"Time (s)","Acceleration x (m/s^2)","Acceleration y (m/s^2)","Acceleration z (m/s^2)","Absolute acceleration (m/s^2)"
3.446332500E-2,8.089500666E-1,9.490050316E0,1.087950110E0,9.586401340E0
3.642321000E-2,7.699500322E-1,9.565950394E0,1.087950110E0,9.658357284E0
3.838571000E-2,8.089500666E-1,9.528000832E0,1.011000037E0,9.615577005E0
4.034654300E-2,7.699500322E-1,9.565950394E0,1.011000037E0,9.649992283E0
4.230786400E-2,7.699500322E-1,9.565950394E0,1.050000072E0,9.654156107E0
4.426889400E-2,7.320000529E-1,9.604950905E0,1.050000072E0,9.689860996E0
4.623001300E-2,7.699500322E-1,9.604950905E0,1.011000037E0,9.688654500E0
4.819144200E-2,7.699500322E-1,9.604950905E0,1.050000072E0,9.692801715E0
5.015278000E-2,8.089500666E-1,9.565950394E0,9.730500579E-1,9.649281505E0
5.211399300E-2,8.089500666E-1,9.375000000E0,1.011000037E0,9.463992090E0
5.407524300E-2,8.850000501E-1,9.298050880E0,9.730500579E-1,9.390623072E0
5.603613600E-2,8.089500666E-1,9.183000565E0,9.730500579E-1,9.269774862E0
5.799714700E-2,7.699500322E-1,9.220950127E0,1.011000037E0,9.308107507E0
5.995836900E-2,6.550500393E-1,9.336000443E0,1.050000072E0,9.417669296E0
6.191952900E-2,5.790000558E-1,9.451050758E0,9.349500537E-1,9.514816504E0
6.388063800E-2,5.790000558E-1,9.490050316E0,8.580000401E-1,9.546332287E0
6.584176200E-2,5.790000558E-1,9.528000832E0,8.959500194E-1,9.587531870E0
6.780212000E-2,6.169500351E-1,9.528000832E0,8.959500194E-1,9.589898520E0
6.976269500E-2,5.410500169E-1,9.490050316E0,1.011000037E0,9.559074808E0
7.172381200E-2,5.410500169E-1,9.490050316E0,9.349500537E-1,9.551330887E0
7.368477000E-2,5.020500422E-1,9.412950516E0,8.959500194E-1,9.468812919E0
7.564568800E-2,4.639500082E-1,9.375000000E0,8.959500194E-1,9.429135753E0
7.760661800E-2,4.260000288E-1,9.259950638E0,8.580000401E-1,9.309367643E0
7.956720600E-2,3.870000243E-1,9.183000565E0,8.200500607E-1,9.227662244E0
8.152790700E-2,4.260000288E-1,9.145050049E0,8.200500607E-1,9.191621104E0
8.348886700E-2,3.870000243E-1,9.067950249E0,8.580000401E-1,9.116669063E0
8.544975100E-2,3.490500152E-1,9.030000687E0,8.580000401E-1,9.077384666E0
8.741068100E-2,3.109500110E-1,9.030000687E0,8.200500607E-1,9.072490530E0
8.937159700E-2,3.109500110E-1,9.067950249E0,7.810500264E-1,9.106835387E0
9.133250100E-2,1.960500032E-1,9.145050049E0,6.280500293E-1,9.168687084E0
9.329342300E-2,3.490500152E-1,9.106050491E0,7.810500264E-1,9.146148403E0
9.525416700E-2,3.109500110E-1,9.106050491E0,9.349500537E-1,9.159201770E0
9.721496400E-2,2.719500065E-1,9.145050049E0,9.349500537E-1,9.196740118E0
9.917586200E-2,3.490500152E-1,9.067950249E0,8.959500194E-1,9.118787423E0
1.011367310E-1,2.719500065E-1,9.183000565E0,9.349500537E-1,9.234478208E0
1.030976630E-1,1.960500032E-1,9.220950127E0,8.200500607E-1,9.259418931E0
1.050585770E-1,1.570500135E-1,9.259950638E0,7.810500264E-1,9.294158900E0
1.070195470E-1,1.960500032E-1,9.298050880E0,7.810500264E-1,9.332857275E0
1.089805000E-1,1.570500135E-1,9.336000443E0,8.580000401E-1,9.376658949E0
1.109415530E-1,-3.299999982E-2,9.336000443E0,7.810500264E-1,9.368672927E0
1.129025770E-1,-3.019500077E-1,9.183000565E0,8.580000401E-1,9.227937865E0
1.148635290E-1,-1.870500147E-1,9.336000443E0,9.730500579E-1,9.388435353E0
1.168245020E-1,8.100000024E-2,9.259950638E0,6.660000086E-1,9.284223329E0
1.187854160E-1,8.100000024E-2,9.259950638E0,7.429500222E-1,9.290060363E0
1.207463480E-1,4.050000105E-3,9.375000000E0,6.660000086E-1,9.398627422E0
1.227072700E-1,4.050000105E-3,9.375000000E0,6.660000086E-1,9.398627422E0
1.246681950E-1,-3.299999982E-2,9.451050758E0,8.200500607E-1,9.486618551E0
1.266288720E-1,-7.200000435E-2,9.412950516E0,8.580000401E-1,9.452247642E0
1.285896360E-1,-7.200000435E-2,9.412950516E0,7.810500264E-1,9.445573596E0
1.305504050E-1,-1.099500060E-1,9.490050316E0,8.959500194E-1,9.532883637E0
1.325111730E-1,-1.099500060E-1,9.412950516E0,8.580000401E-1,9.452612892E0
1.344719870E-1,-1.480500102E-1,9.451050758E0,8.200500607E-1,9.487716340E0
1.364327880E-1,-2.250000089E-1,9.490050316E0,9.349500537E-1,9.538648311E0
1.383933730E-1,-1.870500147E-1,9.451050758E0,7.429500222E-1,9.482052672E0
1.403540210E-1,-2.629500031E-1,9.528000832E0,8.200500607E-1,9.566839847E0
1.423148100E-1,-2.629500031E-1,9.490050316E0,7.810500264E-1,9.525766995E0
1.442755570E-1,-3.019500077E-1,9.528000832E0,7.810500264E-1,9.564727534E0
1.462364660E-1,-3.019500077E-1,9.528000832E0,7.810500264E-1,9.564727534E0
1.481973270E-1,-3.400500119E-1,9.604950905E0,7.050000429E-1,9.636791009E0
1.501582660E-1,-3.019500077E-1,9.528000832E0,7.810500264E-1,9.564727534E0
1.521191780E-1,-3.019500077E-1,9.528000832E0,8.200500607E-1,9.567991208E0
1.540803280E-1,-3.400500119E-1,9.604950905E0,8.959500194E-1,9.652639138E0
1.560414080E-1,-3.400500119E-1,9.565950394E0,9.349500537E-1,9.617545037E0
1.580024400E-1,-3.400500119E-1,9.681000710E0,9.730500579E-1,9.735719550E0
1.599634870E-1,-3.780000210E-1,9.681000710E0,9.349500537E-1,9.733385349E0
1.619245870E-1,-3.780000210E-1,9.720000267E0,8.959500194E-1,9.768521671E0
1.638856580E-1,-3.019500077E-1,9.720000267E0,9.349500537E-1,9.769529702E0
1.658464220E-1,-3.019500077E-1,9.757950783E0,8.959500194E-1,9.803647470E0
1.678072760E-1,-3.019500077E-1,9.873000145E0,9.349500537E-1,9.921765834E0
1.697679850E-1,-3.400500119E-1,9.873000145E0,8.959500194E-1,9.919399796E0
1.717287370E-1,-3.400500119E-1,9.949950218E0,9.349500537E-1,9.999563738E0
1.736895490E-1,-2.629500031E-1,9.949950218E0,9.349500537E-1,9.997238801E0
1.756503460E-1,-2.629500031E-1,1.010295010E1,9.349500537E-1,1.014952585E1
1.776112910E-1,-2.250000089E-1,1.010295010E1,1.011000037E0,1.015590206E1
1.795721920E-1,-1.870500147E-1,1.018005085E1,9.730500579E-1,1.022815963E1
1.815328940E-1,-2.250000089E-1,1.025595093E1,1.050000072E0,1.031201506E1
1.834936550E-1,-2.250000089E-1,1.025595093E1,1.011000037E0,1.030811697E1
1.854544440E-1,-1.480500102E-1,1.033305073E1,1.011000037E0,1.038344727E1
1.874152110E-1,-1.480500102E-1,1.041000080E1,1.011000037E0,1.046002660E1
1.893759800E-1,-7.200000435E-2,1.041000080E1,1.087950110E0,1.046694493E1
1.913367490E-1,-1.099500060E-1,1.052505016E1,1.050000072E0,1.057786699E1
1.932976990E-1,-1.099500060E-1,1.052505016E1,1.050000072E0,1.057786699E1
1.952585950E-1,-3.299999982E-2,1.056300068E1,1.087950110E0,1.061893157E1
1.972195870E-1,-3.299999982E-2,1.060095024E1,1.087950110E0,1.065668196E1
1.991805370E-1,-3.299999982E-2,1.060095024E1,1.050000072E0,1.065287450E1
2.011415910E-1,4.050000105E-3,1.056300068E1,1.087950110E0,1.061888107E1
2.031026140E-1,4.200000316E-2,1.060095024E1,1.126049995E0,1.066067065E1
2.050635220E-1,4.200000316E-2,1.060095024E1,1.126049995E0,1.066067065E1
2.070244630E-1,4.200000316E-2,1.060095024E1,1.126049995E0,1.066067065E1
2.089855530E-1,4.200000316E-2,1.063995075E1,1.165050030E0,1.070362824E1
2.109466050E-1,-3.299999982E-2,1.056300068E1,1.126049995E0,1.062290266E1
2.129075080E-1,4.200000316E-2,1.060095024E1,1.203000069E0,1.066907302E1
2.148684540E-1,1.570500135E-1,1.056300068E1,1.165050030E0,1.062821667E1
2.168294170E-1,8.100000024E-2,1.052505016E1,1.087950110E0,1.058144023E1
2.187903750E-1,4.050000105E-3,1.052505016E1,1.087950110E0,1.058113098E1
2.207509370E-1,4.050000105E-3,1.048605061E1,1.050000072E0,1.053849011E1
2.227116120E-1,4.050000105E-3,1.048605061E1,1.011000037E0,1.053467583E1
2.246727120E-1,-3.299999982E-2,1.044795036E1,1.011000037E0,1.049680317E1
2.266336870E-1,-7.200000435E-2,1.037100029E1,1.050000072E0,1.042426646E1
2.285946470E-1,-2.250000089E-1,1.041000080E1,1.087950110E0,1.046911539E1
2.305556120E-1,-3.019500077E-1,1.041000080E1,1.050000072E0,1.046717682E1
2.325165130E-1,-3.400500119E-1,1.041000080E1,1.087950110E0,1.047221973E1
2.344774440E-1,-3.400500119E-1,1.044795036E1,1.126049995E0,1.051395689E1
2.364386800E-1,-4.930500090E-1,1.037100029E1,1.050000072E0,1.043567178E1
2.383998260E-1,-4.930500090E-1,1.041000080E1,1.011000037E0,1.047059387E1
2.403609370E-1,-5.320500135E-1,1.041000080E1,9.349500537E-1,1.046543480E1
2.423220590E-1,-5.700000525E-1,1.037100029E1,9.730500579E-1,1.043213178E1
2.442831020E-1,-6.469500065E-1,1.033305073E1,9.349500537E-1,1.039541309E1
2.462441550E-1,-8.380500674E-1,1.033305073E1,9.349500537E-1,1.040905360E1
2.482052800E-1,-7.620000243E-1,1.033305073E1,1.011000037E0,1.041031712E1
2.501663840E-1,-7.999500632E-1,1.033305073E1,1.050000072E0,1.041702249E1
2.521274120E-1,-9.150000215E-1,1.033305073E1,1.050000072E0,1.042648850E1
2.540884630E-1,-9.919500351E-1,1.029495049E1,9.730500579E-1,1.038830096E1
2.560492200E-1,-1.030050039E0,1.037100029E1,9.349500537E-1,1.046387986E1
2.580100690E-1,-1.144950032E0,1.033305073E1,1.011000037E0,1.044533240E1
2.599713190E-1,-1.144950032E0,1.029495049E1,8.580000401E-1,1.039389629E1
2.619324520E-1,-1.336950064E0,1.029495049E1,7.050000429E-1,1.040530951E1
2.638936990E-1,-1.260000110E0,1.025595093E1,7.810500264E-1,1.036253680E1
2.658549130E-1,-1.183050036E0,1.021800041E1,9.349500537E-1,1.032866261E1
2.678160130E-1,-1.144950032E0,1.018005085E1,8.959500194E-1,1.028333955E1
2.697771460E-1,-1.183050036E0,1.018005085E1,9.349500537E-1,1.029112114E1
2.717380330E-1,-1.106999993E0,1.014105034E1,8.959500194E-1,1.024056040E1
2.736989920E-1,-1.106999993E0,1.018005085E1,9.349500537E-1,1.028265607E1
2.756602230E-1,-1.106999993E0,1.018005085E1,8.959500194E-1,1.027918337E1
2.776213750E-1,-1.144950032E0,1.021800041E1,8.580000401E-1,1.031768419E1
2.795819590E-1,-1.222050071E0,1.018005085E1,8.200500607E-1,1.028587983E1
2.815426990E-1,-1.297950029E0,1.021800041E1,8.200500607E-1,1.033269998E1
2.835034720E-1,-1.297950029E0,1.025595093E1,8.580000401E-1,1.037330072E1
2.854642350E-1,-1.375050068E0,1.029495049E1,7.810500264E-1,1.041570004E1
2.874250050E-1,-1.605000019E0,1.021800041E1,7.810500264E-1,1.037273332E1
2.893857730E-1,-1.567050099E0,1.029495049E1,8.580000401E-1,1.044881886E1
2.913470380E-1,-1.489950061E0,1.037100029E1,8.580000401E-1,1.051255260E1
2.933081580E-1,-1.489950061E0,1.033305073E1,8.200500607E-1,1.047207576E1
2.952690930E-1,-1.452000022E0,1.037100029E1,8.200500607E-1,1.050421026E1
2.972300830E-1,-1.489950061E0,1.037100029E1,7.429500222E-1,1.050378850E1
2.991913090E-1,-1.452000022E0,1.044795036E1,7.810500264E-1,1.057724019E1
3.011524660E-1,-1.528050065E0,1.048605061E1,8.200500607E-1,1.062848420E1
3.031134140E-1,-1.528050065E0,1.052505016E1,8.200500607E-1,1.066696302E1
3.050744100E-1,-1.567050099E0,1.052505016E1,9.349500537E-1,1.068206247E1
3.070356350E-1,-1.489950061E0,1.060095024E1,8.200500607E-1,1.073650685E1
3.089967930E-1,-1.413000107E0,1.060095024E1,7.050000429E-1,1.071791679E1
3.109580360E-1,-1.260000110E0,1.067805004E1,7.429500222E-1,1.077777007E1
3.129192540E-1,-1.222050071E0,1.071600056E1,6.660000086E-1,1.080599974E1
3.148804870E-1,-1.144950032E0,1.071600056E1,7.429500222E-1,1.080257160E1
3.168417160E-1,-1.106999993E0,1.071600056E1,7.429500222E-1,1.079861527E1
3.188029470E-1,-9.919500351E-1,1.075500011E1,5.899500251E-1,1.081674782E1
3.207641770E-1,-8.770500422E-1,1.079295063E1,7.050000429E-1,1.085145267E1
3.227252740E-1,-8.770500422E-1,1.083105087E1,8.200500607E-1,1.089740161E1
3.246864100E-1,-7.620000243E-1,1.087005043E1,7.429500222E-1,1.092202431E1
3.266476210E-1,-6.850500107E-1,1.087005043E1,7.050000429E-1,1.091440859E1
3.286088030E-1,-5.700000525E-1,1.087005043E1,9.730500579E-1,1.092839068E1
3.305696830E-1,-4.549500346E-1,1.087005043E1,1.165050030E0,1.094176939E1
3.325306510E-1,-3.019500077E-1,1.087005043E1,1.165050030E0,1.093647620E1
3.344915660E-1,-2.629500031E-1,1.090800095E1,1.165050030E0,1.097319320E1
3.364524970E-1,-2.629500031E-1,1.087005043E1,1.203000069E0,1.093957715E1
3.384135840E-1,-2.250000089E-1,1.087005043E1,1.279950023E0,1.094746059E1
3.403746350E-1,-1.480500102E-1,1.087005043E1,1.318050027E0,1.095066989E1
3.423357620E-1,-3.299999982E-2,1.087005043E1,1.318050027E0,1.094971877E1
3.442968660E-1,8.100000024E-2,1.083105087E1,1.356000066E0,1.091590400E1
3.462575790E-1,1.570500135E-1,1.079295063E1,1.395000100E0,1.088386298E1
3.482184060E-1,1.960500032E-1,1.083105087E1,1.471050024E0,1.093224985E1
3.501795200E-1,1.960500032E-1,1.083105087E1,1.510050058E0,1.093756599E1
3.521405530E-1,2.719500065E-1,1.079295063E1,1.548000097E0,1.090678891E1
3.541012330E-1,3.870000243E-1,1.075500011E1,1.624950051E0,1.088394502E1
3.560620160E-1,3.490500152E-1,1.075500011E1,1.624950051E0,1.088266172E1
3.580229630E-1,3.109500110E-1,1.067805004E1,1.701000094E0,1.081715507E1
3.599838610E-1,3.109500110E-1,1.071600056E1,1.663050056E0,1.084873695E1
3.619446440E-1,3.109500110E-1,1.067805004E1,1.624950051E0,1.080545720E1
3.639054680E-1,1.960500032E-1,1.060095024E1,1.701000094E0,1.073834172E1
3.658665420E-1,1.960500032E-1,1.056300068E1,1.701000094E0,1.070087942E1
3.678275430E-1,2.340000123E-1,1.048605061E1,1.740000129E0,1.063200892E1
3.697886330E-1,1.960500032E-1,1.041000080E1,1.816050053E0,1.056903922E1
3.717496970E-1,1.570500135E-1,1.041000080E1,1.855050087E0,1.057515920E1
3.737107710E-1,1.960500032E-1,1.029495049E1,2.008050203E0,1.049079152E1
3.756718460E-1,1.570500135E-1,1.025595093E1,2.046000004E0,1.045922130E1
3.776327890E-1,1.189500093E-1,1.021800041E1,2.122950077E0,1.043688644E1
3.795937710E-1,1.189500093E-1,1.014105034E1,2.200050116E0,1.037763324E1
3.815546840E-1,4.200000316E-2,1.002600002E1,2.238000154E0,1.027283238E1
3.835156170E-1,8.100000024E-2,9.949950218E0,2.353049994E0,1.022472076E1
3.854766540E-1,1.570500135E-1,9.835050583E0,2.391000032E0,1.012273510E1
3.874376730E-1,1.189500093E-1,9.796050072E0,2.467950106E0,1.010284731E1
3.893987600E-1,8.100000024E-2,9.757950783E0,2.620950222E0,1.010413502E1
3.913598270E-1,1.189500093E-1,9.643050194E0,2.736000061E0,1.002438340E1
3.933209500E-1,1.570500135E-1,9.565950394E0,2.773950100E0,9.961268534E0
3.952820570E-1,1.570500135E-1,9.490050316E0,2.851050138E0,9.910308098E0
3.972429450E-1,1.960500032E-1,9.451050758E0,2.889000177E0,9.884691096E0
3.992039010E-1,2.719500065E-1,9.412950516E0,2.889000177E0,9.850071890E0
4.011649530E-1,3.109500110E-1,9.375000000E0,2.965950251E0,9.837894887E0
4.031259760E-1,3.870000243E-1,9.375000000E0,2.965950251E0,9.840592203E0
4.050878280E-1,5.020500422E-1,9.375000000E0,3.004050255E0,9.857332153E0
4.070494370E-1,6.169500351E-1,9.336000443E0,2.965950251E0,9.815212300E0
4.090103790E-1,6.940500140E-1,9.298050880E0,2.965950251E0,9.784289268E0
4.109715160E-1,7.320000529E-1,9.259950638E0,2.928000212E0,9.739388848E0
4.129322220E-1,8.850000501E-1,9.259950638E0,2.889000177E0,9.740443159E0
4.148930540E-1,9.619500637E-1,9.220950127E0,2.928000212E0,9.722368765E0
4.168538130E-1,1.000050068E0,9.220950127E0,2.928000212E0,9.726212347E0
4.188145930E-1,1.077000022E0,9.220950127E0,2.928000212E0,9.734425280E0
4.207753900E-1,1.114950061E0,9.220950127E0,2.928000212E0,9.738697044E0
4.227361920E-1,1.269000053E0,9.220950127E0,2.851050138E0,9.734719784E0
4.246972710E-1,1.269000053E0,9.220950127E0,2.889000177E0,9.745901928E0
4.266582690E-1,1.614000082E0,9.145050049E0,2.851050138E0,9.714186716E0
4.286191800E-1,1.729050040E0,9.145050049E0,2.812950134E0,9.722872153E0
4.305801170E-1,1.920000076E0,9.106050491E0,2.851050138E0,9.733192834E0
4.325413970E-1,2.149950027E0,8.953050613E0,2.928000212E0,9.661914181E0
4.345025770E-1,2.111999989E0,8.914950371E0,2.889000177E0,9.606414841E0
4.364634570E-1,2.457000017E0,8.838000298E0,3.004050255E0,9.652534189E0
4.384244250E-1,2.610000134E0,8.761950493E0,3.157950163E0,9.672462270E0
4.403851600E-1,2.878050089E0,8.685000420E0,3.004050255E0,9.629990786E0
4.423459640E-1,3.147000074E0,8.608050346E0,2.965950251E0,9.633223818E0
4.443070860E-1,3.223050117E0,8.569950104E0,2.773950100E0,9.566969008E0
4.462681150E-1,3.337950230E0,8.569950104E0,2.736000061E0,9.595397483E0
4.482290670E-1,3.492000103E0,8.532000542E0,2.698050022E0,9.605653121E0
4.501900410E-1,3.607050180E0,8.455050468E0,2.545050144E0,9.538132399E0
4.521510890E-1,3.721950293E0,8.416950226E0,2.467950106E0,9.528312695E0
4.541121150E-1,3.798000097E0,8.455050468E0,2.275950193E0,9.544246039E0
4.560730360E-1,3.913050175E0,8.493000031E0,2.238000154E0,9.615178411E0
4.580339780E-1,3.990000248E0,8.532000542E0,2.200050116E0,9.672401756E0
4.599949420E-1,4.066950321E0,8.532000542E0,2.008050203E0,9.662679948E0
4.619558990E-1,4.182000160E0,8.608050346E0,2.008050203E0,9.778543947E0
4.639168170E-1,4.297049999E0,8.608050346E0,2.046000004E0,9.836121465E0
4.658777470E-1,4.372950077E0,8.569950104E0,2.046000004E0,9.836302820E0
4.678387980E-1,4.450050354E0,8.569950104E0,2.008050203E0,9.863024818E0
4.697998170E-1,4.488000393E0,8.493000031E0,1.930950046E0,9.798049047E0
4.717607700E-1,4.488000393E0,8.532000542E0,1.816050053E0,9.809955075E0
4.737217420E-1,4.564949989E0,8.532000542E0,1.624950051E0,9.811944981E0
4.756828360E-1,4.027950287E0,8.569950104E0,9.349500537E-1,9.515385431E0
4.776438940E-1,4.105050087E0,8.569950104E0,8.200500607E-1,9.537712677E0
4.796049160E-1,4.143000126E0,8.685000420E0,1.050000072E0,9.679678842E0
4.815659590E-1,4.219950199E0,8.722949982E0,1.356000066E0,9.784506745E0
4.835268610E-1,4.182000160E0,8.761950493E0,1.510050058E0,9.825535759E0
4.854878050E-1,4.027950287E0,8.877000809E0,1.585950017E0,9.876272795E0
4.874487680E-1,4.027950287E0,8.991000175E0,1.701000094E0,9.997793206E0
4.894097260E-1,3.798000097E0,9.106050491E0,1.701000094E0,1.001191099E1
4.913705840E-1,3.682950258E0,9.220950127E0,1.701000094E0,1.007389920E1
4.933314820E-1,3.529950142E0,9.375000000E0,1.701000094E0,1.016093373E1
4.952924530E-1,3.415050268E0,9.490050316E0,1.740000129E0,1.023480453E1
4.972534030E-1,3.184950113E0,9.604950905E0,1.740000129E0,1.026774511E1
4.992142780E-1,3.031950235E0,9.681000710E0,1.701000094E0,1.028629663E1
5.011751750E-1,2.917050123E0,9.757950783E0,1.701000094E0,1.032570512E1
5.031360870E-1,2.649000168E0,9.796050072E0,1.585950017E0,1.027107766E1
5.050970050E-1,2.341950178E0,9.796050072E0,1.432950020E0,1.017352807E1
5.070577500E-1,1.996950150E0,9.873000145E0,1.165050030E0,1.014008300E1
5.090185450E-1,1.690050125E0,9.988050461E0,7.429500222E-1,1.015723369E1
5.109793540E-1,1.690050125E0,1.006500053E1,1.011000037E0,1.025585814E1
5.129401590E-1,1.498950124E0,1.014105034E1,8.580000401E-1,1.028707527E1
5.149008680E-1,1.384050012E0,1.021800041E1,7.810500264E-1,1.034084938E1
5.168616120E-1,1.306950092E0,1.025595093E1,8.959500194E-1,1.037763819E1
5.188227900E-1,1.269000053E0,1.033305073E1,1.126049995E0,1.047140330E1
5.207838410E-1,1.153950095E0,1.037100029E1,1.050000072E0,1.048769507E1
5.227447430E-1,1.039050102E0,1.044795036E1,1.087950110E0,1.055570591E1
5.247056890E-1,7.699500322E-1,1.048605061E1,1.050000072E0,1.056657847E1
5.266667330E-1,6.940500140E-1,1.056300068E1,1.050000072E0,1.063772480E1
5.286277550E-1,6.169500351E-1,1.060095024E1,1.087950110E0,1.067447464E1
5.305878060E-1,4.639500082E-1,1.056300068E1,1.050000072E0,1.062519332E1
5.325481420E-1,3.490500152E-1,1.056300068E1,1.011000037E0,1.061701184E1
5.345091200E-1,1.960500032E-1,1.052505016E1,8.959500194E-1,1.056493459E1
5.364699090E-1,1.189500093E-1,1.048605061E1,7.810500264E-1,1.051577128E1
5.384309190E-1,-1.480500102E-1,1.056300068E1,6.280500293E-1,1.058269101E1
5.403918510E-1,-3.400500119E-1,1.071600056E1,5.509500504E-1,1.073554134E1
5.423530880E-1,-4.930500090E-1,1.075500011E1,3.979500234E-1,1.077364794E1
5.443142360E-1,-5.700000525E-1,1.075500011E1,3.979500234E-1,1.077744366E1
5.462753460E-1,-7.620000243E-1,1.083105087E1,3.220500052E-1,1.086259745E1
5.482364680E-1,-8.380500674E-1,1.094595051E1,3.220500052E-1,1.098270807E1
5.501983780E-1,-1.030050039E0,1.098495007E1,3.220500052E-1,1.103783707E1
5.521600670E-1,-1.222050071E0,1.110000038E1,2.449500114E-1,1.116975449E1
5.541206790E-1,-1.297950029E0,1.121400070E1,2.830500007E-1,1.129241353E1
5.560816070E-1,-1.375050068E0,1.121400070E1,2.070000172E-1,1.129988599E1
5.580422140E-1,-1.413000107E0,1.129095078E1,2.070000172E-1,1.138090452E1
5.600029150E-1,-1.413000107E0,1.136805058E1,1.680000126E-1,1.145676076E1
5.619638750E-1,-1.452000022E0,1.148295021E1,1.300500035E-1,1.157511825E1
5.639247590E-1,-1.413000107E0,1.144395065E1,5.295000225E-2,1.153097479E1
5.658856890E-1,-1.452000022E0,1.155900097E1,1.500000060E-2,1.164985118E1
5.678466050E-1,-1.489950061E0,1.159800053E1,5.295000225E-2,1.169343282E1
5.698078450E-1,-1.375050068E0,1.167405033E1,1.500000060E-2,1.175476239E1
5.717689900E-1,-1.375050068E0,1.171305084E1,1.500000060E-2,1.179349599E1
5.737303000E-1,-1.297950029E0,1.167405033E1,9.195000678E-2,1.174634327E1
5.756915480E-1,-1.336950064E0,1.167405033E1,5.295000225E-2,1.175047617E1
5.776525520E-1,-1.297950029E0,1.167405033E1,1.500000060E-2,1.174599295E1
5.796136270E-1,-1.222050071E0,1.163595009E1,-6.105000153E-2,1.170010547E1
5.815745240E-1,-1.068000078E0,1.159800053E1,-2.205000073E-2,1.164709091E1
5.835354730E-1,-9.529500604E-1,1.155900097E1,5.295000225E-2,1.159833699E1
5.854962570E-1,-7.999500632E-1,1.136805058E1,-2.205000073E-2,1.139618270E1
5.874570890E-1,-6.469500065E-1,1.129095078E1,-9.900000691E-2,1.130990339E1
5.894182070E-1,-5.320500135E-1,1.125300026E1,-1.759500057E-1,1.126694504E1
5.913792410E-1,-4.549500346E-1,1.125300026E1,-2.140500098E-1,1.126422708E1
5.933403250E-1,-4.170000255E-1,1.113795090E1,-9.900000691E-2,1.114619398E1
5.953013950E-1,-3.400500119E-1,1.113795090E1,-6.105000153E-2,1.114330792E1
5.972626030E-1,-2.250000089E-1,1.102305031E1,-2.205000073E-2,1.102536844E1
5.992237740E-1,-1.480500102E-1,1.098495007E1,1.500000060E-2,1.098595793E1
6.011846560E-1,-1.099500060E-1,1.090800095E1,1.300500035E-1,1.090933026E1
6.031456220E-1,-3.299999982E-2,1.075500011E1,1.300500035E-1,1.075583700E1
6.051064030E-1,-3.299999982E-2,1.060095024E1,9.195000678E-2,1.060140037E1
6.070672380E-1,-3.299999982E-2,1.048605061E1,-2.205000073E-2,1.048612571E1
6.090281890E-1,-3.299999982E-2,1.033305073E1,-9.900000691E-2,1.033357766E1
6.109890960E-1,8.100000024E-2,1.018005085E1,-1.369500011E-1,1.018129420E1
6.129501570E-1,1.189500093E-1,1.006500053E1,-2.140500098E-1,1.006797906E1
6.149111730E-1,2.340000123E-1,9.949950218E0,-2.520000041E-1,9.955891188E0
6.168726210E-1,2.340000123E-1,9.796050072E0,-2.520000041E-1,9.802084320E0
6.188339420E-1,3.490500152E-1,9.720000267E0,-2.910000086E-1,9.730617766E0
6.207951540E-1,4.260000288E-1,9.565950394E0,-2.140500098E-1,9.577823363E0
6.227564010E-1,5.410500169E-1,9.528000832E0,-2.140500098E-1,9.545750488E0
6.247172680E-1,5.020500422E-1,9.451050758E0,-6.105000153E-2,9.464572985E0
6.266782470E-1,5.020500422E-1,9.412950516E0,-1.369500011E-1,9.427324486E0
6.286397000E-1,6.550500393E-1,9.336000443E0,-6.105000153E-2,9.359151773E0
6.306010140E-1,6.550500393E-1,9.259950638E0,-6.105000153E-2,9.283291629E0
6.325620560E-1,5.790000558E-1,9.145050049E0,-9.900000691E-2,9.163895594E0
6.345231750E-1,6.169500351E-1,9.106050491E0,-2.520000041E-1,9.130404531E0
6.364837490E-1,6.169500351E-1,9.030000687E0,-2.520000041E-1,9.054559280E0
6.384444830E-1,6.169500351E-1,8.953050613E0,-2.520000041E-1,8.977819704E0
6.404048530E-1,6.169500351E-1,8.838000298E0,-3.289500177E-1,8.865612484E0
6.423653290E-1,5.020500422E-1,8.761950493E0,-4.440000355E-1,8.787546115E0
6.443263780E-1,4.639500082E-1,8.685000420E0,-4.440000355E-1,8.708709315E0
6.462872550E-1,4.260000288E-1,8.608050346E0,-5.209500194E-1,8.634315011E0
6.482481860E-1,4.639500082E-1,8.532000542E0,-5.209500194E-1,8.560471469E0
6.502091010E-1,3.870000243E-1,8.532000542E0,-7.120500207E-1,8.570403578E0
6.521699810E-1,3.490500152E-1,8.493000031E0,-6.739500165E-1,8.526845493E0
6.541308720E-1,2.719500065E-1,8.493000031E0,-6.739500165E-1,8.524037479E0
6.560916350E-1,1.960500032E-1,8.493000031E0,-6.739500165E-1,8.521953634E0
6.580524250E-1,2.719500065E-1,8.455050468E0,-7.120500207E-1,8.489337457E0
6.600131900E-1,1.570500135E-1,8.493000031E0,-5.970000029E-1,8.515405054E0
6.619739630E-1,1.189500093E-1,8.493000031E0,-7.120500207E-1,8.523626802E0
6.639349110E-1,8.100000024E-2,8.569950104E0,-6.739500165E-1,8.596790936E0
6.658958070E-1,4.200000316E-2,8.569950104E0,-6.739500165E-1,8.596511933E0
6.678565660E-1,-3.299999982E-2,8.608050346E0,-6.360000372E-1,8.631576670E0
6.698173580E-1,-1.099500060E-1,8.569950104E0,-7.120500207E-1,8.600183080E0
6.717783470E-1,-2.250000089E-1,8.608050346E0,-7.890000343E-1,8.647061745E0
6.737392790E-1,-2.629500031E-1,8.569950104E0,-8.269500136E-1,8.613770011E0
6.757000210E-1,-3.400500119E-1,8.569950104E0,-7.890000343E-1,8.612908907E0
6.776608190E-1,-3.780000210E-1,8.532000542E0,-9.040500522E-1,8.588086152E0
6.796221230E-1,-5.700000525E-1,8.608050346E0,-9.420000315E-1,8.678179238E0
6.815832790E-1,-5.700000525E-1,8.608050346E0,-9.810000658E-1,8.682499177E0
6.835441630E-1,-5.700000525E-1,8.647050858E0,-8.659500480E-1,8.708975719E0
6.855051270E-1,-6.079500318E-1,8.685000420E0,-9.040500522E-1,8.753064722E0
6.874659980E-1,-7.620000243E-1,8.647050858E0,-1.018950105E0,8.740159717E0
6.894268960E-1,-7.620000243E-1,8.569950104E0,-1.018950105E0,8.663887588E0
6.913878510E-1,-7.230000496E-1,8.647050858E0,-1.018950105E0,8.736845937E0
6.933487690E-1,-7.230000496E-1,8.608050346E0,-1.057050109E0,8.702793504E0
6.953099180E-1,-7.999500632E-1,8.647050858E0,-1.171950102E0,8.762697968E0
6.972710000E-1,-7.620000243E-1,8.647050858E0,-1.287000060E0,8.775448805E0
6.992320770E-1,-6.850500107E-1,8.647050858E0,-1.096050024E0,8.743117734E0
7.011931560E-1,-6.850500107E-1,8.722949982E0,-9.810000658E-1,8.804630090E0
7.031541870E-1,-7.620000243E-1,8.761950493E0,-9.810000658E-1,8.849563922E0
7.051152330E-1,-8.380500674E-1,8.761950493E0,-1.096050024E0,8.869917137E0
7.070761350E-1,-7.999500632E-1,8.800050735E0,-1.210950017E0,8.918924430E0
7.090370790E-1,-9.150000215E-1,8.877000809E0,-1.287000060E0,9.016359440E0
7.109983580E-1,-8.770500422E-1,8.877000809E0,-1.249050021E0,9.007246310E0
7.129595390E-1,-8.770500422E-1,8.838000298E0,-1.249050021E0,8.968812184E0
7.149202380E-1,-9.150000215E-1,8.800050735E0,-1.326000094E0,8.946306178E0
7.168810790E-1,-8.770500422E-1,8.838000298E0,-1.326000094E0,8.979852019E0
7.188418360E-1,-9.529500604E-1,8.800050735E0,-1.287000060E0,8.944572428E0
7.208026180E-1,-9.919500351E-1,8.800050735E0,-1.287000060E0,8.948811484E0
7.227634290E-1,-9.150000215E-1,8.761950493E0,-1.210950017E0,8.892435067E0
7.247242310E-1,-9.150000215E-1,8.722949982E0,-1.210950017E0,8.854009338E0
7.266849810E-1,-8.770500422E-1,8.722949982E0,-1.287000060E0,8.860893991E0
7.286457570E-1,-8.770500422E-1,8.685000420E0,-1.287000060E0,8.823537738E0
7.306068840E-1,-9.150000215E-1,8.761950493E0,-1.326000094E0,8.908831446E0
7.325679080E-1,-9.529500604E-1,8.685000420E0,-1.326000094E0,8.837172758E0
7.345285900E-1,-9.150000215E-1,8.608050346E0,-1.287000060E0,8.751692691E0
7.364893720E-1,-8.770500422E-1,8.608050346E0,-1.287000060E0,8.747806393E0
7.384501970E-1,-9.150000215E-1,8.532000542E0,-1.249050021E0,8.671354233E0
7.404109990E-1,-9.150000215E-1,8.416950226E0,-1.287000060E0,8.563798532E0
7.423720780E-1,-9.529500604E-1,8.377950668E0,-1.249050021E0,8.523983645E0
7.443330760E-1,-9.529500604E-1,8.263050079E0,-1.210950017E0,8.405504766E0
7.462940320E-1,-9.919500351E-1,8.187000275E0,-1.210950017E0,8.335306732E0
7.482550010E-1,-9.919500351E-1,8.110050201E0,-1.210950017E0,8.259738439E0
7.502156960E-1,-9.529500604E-1,8.110050201E0,-1.249050021E0,8.260820422E0
7.521764680E-1,-9.150000215E-1,7.957050323E0,-1.210950017E0,8.100510776E0
7.541374160E-1,-9.529500604E-1,7.879950523E0,-1.210950017E0,8.029205067E0
7.560983120E-1,-9.529500604E-1,7.879950523E0,-1.210950017E0,8.029205067E0
7.580591050E-1,-9.150000215E-1,7.842000484E0,-1.287000060E0,7.999410340E0
7.600199290E-1,-9.529500604E-1,7.765050411E0,-1.249050021E0,7.922389012E0
7.619810180E-1,-9.529500604E-1,7.650000572E0,-1.210950017E0,7.803654433E0
7.639420190E-1,-9.529500604E-1,7.650000572E0,-1.287000060E0,7.815816766E0
7.659027500E-1,-8.770500422E-1,7.650000572E0,-1.249050021E0,7.800759674E0
7.678635600E-1,-8.770500422E-1,7.650000572E0,-1.249050021E0,7.800759674E0
7.698246820E-1,-8.380500674E-1,7.650000572E0,-1.249050021E0,7.796471165E0
7.717857120E-1,-7.999500632E-1,7.726950169E0,-1.287000060E0,7.874137932E0
7.737464820E-1,-7.230000496E-1,7.765050411E0,-1.287000060E0,7.904119566E0
7.757073290E-1,-7.999500632E-1,7.803000450E0,-1.249050021E0,7.942723845E0
7.776682640E-1,-7.999500632E-1,7.765050411E0,-1.287000060E0,7.911529381E0
7.796291730E-1,-7.999500632E-1,7.803000450E0,-1.287000060E0,7.948780113E0
7.815900540E-1,-7.999500632E-1,7.803000450E0,-1.326000094E0,7.955187765E0
7.835509440E-1,-8.380500674E-1,7.842000484E0,-1.249050021E0,7.984949935E0
7.855120520E-1,-8.380500674E-1,7.842000484E0,-1.249050021E0,7.984949935E0
7.874730960E-1,-8.380500674E-1,7.842000484E0,-1.210950017E0,7.979078860E0
7.894338190E-1,-8.380500674E-1,7.842000484E0,-1.249050021E0,7.984949935E0
7.913946370E-1,-8.380500674E-1,7.842000484E0,-1.287000060E0,7.990974200E0
7.933553980E-1,-7.999500632E-1,7.842000484E0,-1.249050021E0,7.981041139E0
7.953161750E-1,-8.380500674E-1,7.879950523E0,-1.287000060E0,8.028220059E0
7.972768030E-1,-8.380500674E-1,7.842000484E0,-1.326000094E0,7.997348046E0
7.992374780E-1,-8.770500422E-1,7.879950523E0,-1.363950014E0,8.045072819E0
8.011984420E-1,-8.770500422E-1,7.957050323E0,-1.363950014E0,8.120605043E0
8.031593220E-1,-8.380500674E-1,8.032950401E0,-1.441050053E0,8.204099300E0
8.051205680E-1,-8.770500422E-1,8.071949959E0,-1.441050053E0,8.246345746E0
8.070817070E-1,-8.380500674E-1,8.110050201E0,-1.516950130E0,8.293152590E0
8.090425890E-1,-7.999500632E-1,8.110050201E0,-1.632000089E0,8.311212827E0
8.110035500E-1,-7.999500632E-1,8.110050201E0,-1.555950046E0,8.296614666E0
8.129643310E-1,-7.999500632E-1,8.148000717E0,-1.708950043E0,8.363632347E0
8.149251650E-1,-7.999500632E-1,8.148000717E0,-1.632000089E0,8.348248923E0
8.168862830E-1,-8.770500422E-1,8.187000275E0,-1.594050050E0,8.386726765E0
8.188473170E-1,-8.770500422E-1,8.224950790E0,-1.671000123E0,8.438677248E0
8.208083960E-1,-9.150000215E-1,8.340000153E0,-1.671000123E0,8.554827234E0
8.227694660E-1,-9.150000215E-1,8.340000153E0,-1.708950043E0,8.562320820E0
8.247301850E-1,-9.529500604E-1,8.416950226E0,-1.786050081E0,8.656970591E0
8.266910070E-1,-9.529500604E-1,8.493000031E0,-1.861950040E0,8.746772050E0
8.286519010E-1,-9.919500351E-1,8.608050346E0,-1.939050078E0,8.879324909E0
8.306127740E-1,-1.030050039E0,8.685000420E0,-1.977000117E0,8.966535833E0
8.325731920E-1,-1.106999993E0,8.761950493E0,-2.014950037E0,9.058545638E0
8.345337570E-1,-1.068000078E0,8.800050735E0,-2.014950037E0,9.090739286E0
8.364943800E-1,-1.030050039E0,8.877000809E0,-2.053950071E0,9.169561458E0
8.384549860E-1,-1.030050039E0,8.914950371E0,-2.092050076E0,9.214880179E0
8.404154240E-1,-1.068000078E0,8.953050613E0,-2.130000114E0,9.264698589E0
8.423759110E-1,-1.030050039E0,9.030000687E0,-2.053950071E0,9.317758656E0
8.443365230E-1,-1.068000078E0,9.067950249E0,-2.014950037E0,9.350313873E0
8.462971150E-1,-1.030050039E0,9.106050491E0,-2.014950037E0,9.383026286E0
8.482580950E-1,-9.919500351E-1,9.183000565E0,-2.014950037E0,9.453649448E0
8.502189620E-1,-9.919500351E-1,9.220950127E0,-1.977000117E0,9.482532129E0
8.521798500E-1,-9.529500604E-1,9.259950638E0,-1.977000117E0,9.516476717E0
8.541407310E-1,-9.529500604E-1,9.336000443E0,-1.977000117E0,9.590492560E0
8.561016700E-1,-8.770500422E-1,9.375000000E0,-1.939050078E0,9.613519490E0
8.580625860E-1,-8.380500674E-1,9.451050758E0,-2.092050076E0,9.716036325E0
8.600233310E-1,-8.380500674E-1,9.565950394E0,-2.014950037E0,9.811715370E0
8.619841260E-1,-7.999500632E-1,9.643050194E0,-1.939050078E0,9.868548645E0
8.639451160E-1,-8.380500674E-1,9.720000267E0,-2.014950037E0,9.961965507E0
8.659060480E-1,-8.770500422E-1,9.757950783E0,-2.053950071E0,1.001027128E1
8.678667450E-1,-9.150000215E-1,9.835050583E0,-2.053950071E0,1.008881340E1
8.698275110E-1,-9.150000215E-1,9.796050072E0,-2.092050076E0,1.005865277E1
8.717882800E-1,-8.770500422E-1,9.835050583E0,-2.130000114E0,1.010120474E1
8.737490480E-1,-9.919500351E-1,9.835050583E0,-2.169000149E0,1.012011593E1
8.757098620E-1,-9.919500351E-1,9.796050072E0,-2.206950188E0,1.009045049E1
8.776706630E-1,-1.106999993E0,9.757950783E0,-2.245050192E0,1.007389214E1
8.796313780E-1,-1.068000078E0,9.720000267E0,-2.284050226E0,1.004170876E1
8.815921220E-1,-1.106999993E0,9.720000267E0,-2.245050192E0,1.003713627E1
8.835531200E-1,-1.297950029E0,9.643050194E0,-2.284050226E0,9.994497324E0
8.855140440E-1,-1.336950064E0,9.565950394E0,-2.284050226E0,9.925307443E0
8.874749230E-1,-1.375050068E0,9.528000832E0,-2.130000114E0,9.859536654E0
8.894358150E-1,-1.413000107E0,9.412950516E0,-2.053950071E0,9.737500583E0
8.913963730E-1,-1.605000019E0,9.375000000E0,-2.014950037E0,9.722482899E0
8.933570360E-1,-1.758000135E0,9.298050880E0,-1.824000120E0,9.636975204E0
8.953178220E-1,-1.834950089E0,9.183000565E0,-1.708950043E0,9.519193844E0
8.972785720E-1,-1.950000048E0,9.106050491E0,-1.708950043E0,9.468007498E0
8.992395700E-1,-2.065050125E0,9.030000687E0,-1.632000089E0,9.405783790E0
9.012004950E-1,-2.140950203E0,8.953050613E0,-1.555950046E0,9.336046465E0
9.031613740E-1,-2.256000042E0,8.877000809E0,-1.516950130E0,9.283954828E0
9.051222660E-1,-2.332950115E0,8.838000298E0,-1.479000092E0,9.259608349E0
9.070834190E-1,-2.295000076E0,8.838000298E0,-1.441050053E0,9.244127858E0
9.090444950E-1,-2.371050119E0,8.800050735E0,-1.479000092E0,9.233104185E0
9.110055720E-1,-2.371050119E0,8.800050735E0,-1.479000092E0,9.233104185E0
9.129666490E-1,-2.410050154E0,8.838000298E0,-1.479000092E0,9.279333612E0
9.149274970E-1,-2.485950232E0,8.877000809E0,-1.441050053E0,9.330472505E0
9.168884150E-1,-2.448000193E0,8.914950371E0,-1.402050018E0,9.350657159E0
9.188490240E-1,-2.485950232E0,9.030000687E0,-1.441050053E0,9.476153556E0
9.208097230E-1,-2.524950027E0,9.067950249E0,-1.441050053E0,9.522589963E0
9.227708640E-1,-2.563050032E0,9.145050049E0,-1.516950130E0,9.617811786E0
9.247318750E-1,-2.601000071E0,9.259950638E0,-1.555950046E0,9.743349923E0
9.266929040E-1,-2.524950027E0,9.298050880E0,-1.632000089E0,9.772028812E0
9.286539380E-1,-2.524950027E0,9.412950516E0,-1.632000089E0,9.881418640E0
9.306147080E-1,-2.485950232E0,9.528000832E0,-1.671000123E0,9.987741978E0
9.325755550E-1,-2.410050154E0,9.643050194E0,-1.708950043E0,1.008549796E1
9.345366250E-1,-2.448000193E0,9.720000267E0,-1.708950043E0,1.016816701E1
9.364976300E-1,-2.371050119E0,9.757950783E0,-1.594050050E0,1.016761908E1
9.384584000E-1,-2.218050003E0,9.873000145E0,-1.555950046E0,1.023801046E1
9.404192420E-1,-2.140950203E0,9.949950218E0,-1.555950046E0,1.029592918E1
9.423803130E-1,-2.065050125E0,1.002600002E1,-1.516950130E0,1.034824846E1
9.443413170E-1,-1.987950087E0,1.014105034E1,-1.479000092E0,1.043936247E1
9.463022720E-1,-1.911000133E0,1.025595093E1,-1.479000092E0,1.053678757E1
9.482632420E-1,-1.950000048E0,1.033305073E1,-1.555950046E0,1.062993029E1
9.502239430E-1,-1.950000048E0,1.041000080E1,-1.594050050E0,1.071035071E1
9.521847470E-1,-1.834950089E0,1.048605061E1,-1.516950130E0,1.075292690E1
9.541458250E-1,-1.795950055E0,1.060095024E1,-1.594050050E0,1.086952520E1
9.561068220E-1,-1.795950055E0,1.067805004E1,-1.594050050E0,1.094473320E1
9.580679580E-1,-1.758000135E0,1.075500011E1,-1.632000089E0,1.101925661E1
9.600290530E-1,-1.834950089E0,1.083105087E1,-1.632000089E0,1.110595017E1
9.619899480E-1,-1.834950089E0,1.094595051E1,-1.671000123E0,1.122377458E1
9.639509010E-1,-1.795950055E0,1.098495007E1,-1.632000089E0,1.124979950E1
9.659119980E-1,-1.834950089E0,1.110000038E1,-1.671000123E0,1.137406223E1
9.678730530E-1,-1.873050094E0,1.113795090E1,-1.671000123E0,1.141728988E1
9.698341340E-1,-1.911000133E0,1.121400070E1,-1.632000089E0,1.149213459E1
9.717952070E-1,-1.911000133E0,1.129095078E1,-1.632000089E0,1.156723455E1
9.737562260E-1,-1.911000133E0,1.132905006E1,-1.671000123E0,1.160997581E1
9.757172710E-1,-1.834950089E0,1.136805058E1,-1.671000123E0,1.163580067E1
9.776783520E-1,-1.795950055E0,1.136805058E1,-1.671000123E0,1.162971418E1
9.796394230E-1,-1.834950089E0,1.132905006E1,-1.671000123E0,1.159770057E1
9.816000070E-1,-1.795950055E0,1.136805058E1,-1.632000089E0,1.162417458E1
9.835607330E-1,-1.720050097E0,1.144395065E1,-1.632000089E0,1.168700146E1
9.855215230E-1,-1.795950055E0,1.144395065E1,-1.594050050E0,1.169317915E1
9.874822840E-1,-1.758000135E0,1.136805058E1,-1.594050050E0,1.161310182E1
9.894432350E-1,-1.642950058E0,1.136805058E1,-1.516950130E0,1.158589645E1
9.914041300E-1,-1.605000019E0,1.136805058E1,-1.441050053E0,1.157087828E1
9.933651930E-1,-1.642950058E0,1.132905006E1,-1.402050018E0,1.153310039E1
9.953262070E-1,-1.605000019E0,1.129095078E1,-1.326000094E0,1.148128350E1
9.972871560E-1,-1.567050099E0,1.125300026E1,-1.249050021E0,1.143003879E1
9.992481270E-1,-1.528050065E0,1.121400070E1,-1.171950102E0,1.137814641E1
1.001209042E0,-1.567050099E0,1.121400070E1,-1.134000063E0,1.137960517E1
1.003169973E0,-1.528050065E0,1.121400070E1,-1.018950105E0,1.136340653E1
1.005131074E0,-1.567050099E0,1.117605019E1,-9.810000658E-1,1.132793471E1
1.007092125E0,-1.528050065E0,1.113795090E1,-9.040500522E-1,1.127857232E1
1.009053196E0,-1.528050065E0,1.113795090E1,-9.040500522E-1,1.127857232E1
1.011014238E0,-1.489950061E0,1.117605019E1,-8.269500136E-1,1.130521540E1
1.012975320E0,-1.413000107E0,1.113795090E1,-8.269500136E-1,1.125763589E1
1.014936390E0,-1.413000107E0,1.121400070E1,-7.890000343E-1,1.133017661E1
1.016897513E0,-1.375050068E0,1.129095078E1,-6.360000372E-1,1.139213887E1
1.018858620E0,-1.260000110E0,1.132905006E1,-5.209500194E-1,1.141080035E1
1.020819841E0,-1.144950032E0,1.136805058E1,-3.289500177E-1,1.143029713E1
1.022781019E0,-1.144950032E0,1.152105045E1,-2.140500098E-1,1.157978115E1
1.024741944E0,-1.030050039E0,1.163595009E1,-6.105000153E-2,1.168161225E1
1.026702944E0,-9.529500604E-1,1.175100040E1,1.300500035E-1,1.179029420E1
1.028664033E0,-8.380500674E-1,1.186605072E1,2.070000172E-1,1.189740882E1
1.030625096E0,-6.850500107E-1,1.190400028E1,2.070000172E-1,1.192549224E1
1.032585966E0,-5.700000525E-1,1.205805016E1,2.449500114E-1,1.207399992E1
1.034546882E0,-4.930500090E-1,1.217295074E1,2.830500007E-1,1.218621949E1
1.036507085E0,-3.400500119E-1,1.240305042E1,3.220500052E-1,1.241188986E1
1.038467497E0,-4.170000255E-1,1.255605030E1,2.830500007E-1,1.256616113E1
1.040428191E0,-3.780000210E-1,1.270905018E1,1.680000126E-1,1.271578014E1
1.042388803E0,-7.200000435E-2,1.270905018E1,5.899500251E-1,1.272293918E1
1.044349905E0,4.200000316E-2,1.286295033E1,9.730500579E-1,1.289977060E1
1.046310870E0,1.570500135E-1,1.297800064E1,1.050000072E0,1.302135421E1
1.048272147E0,2.340000123E-1,1.305405045E1,1.011000037E0,1.309523234E1
1.050233332E0,3.490500152E-1,1.309305096E1,1.087950110E0,1.314281000E1
1.052194570E0,4.639500082E-1,1.316895103E1,1.050000072E0,1.321888880E1
1.054155793E0,5.410500169E-1,1.328400040E1,1.126049995E0,1.334261557E1
1.056117085E0,7.699500322E-1,1.324605083E1,1.087950110E0,1.331293811E1
1.058078346E0,8.470500112E-1,1.324605083E1,1.126049995E0,1.332078620E1
1.060038671E0,1.039050102E0,1.320795059E1,1.126049995E0,1.329652483E1
1.061999271E0,1.114950061E0,1.313100052E1,1.126049995E0,1.322627222E1
1.063960068E0,1.230000019E0,1.305405045E1,1.240950108E0,1.317046280E1
1.065920807E0,1.306950092E0,1.286295033E1,1.279950023E0,1.299237783E1
1.067881727E0,1.306950092E0,1.267095089E1,1.318050027E0,1.280618487E1
1.069842586E0,1.345050097E0,1.240305042E1,1.395000100E0,1.255351922E1
1.071803206E0,1.345050097E0,1.209600067E1,1.471050024E0,1.225913456E1
1.073763896E0,1.422000051E0,1.182795048E1,1.432950020E0,1.199899339E1
1.075724813E0,1.498950124E0,1.140600014E1,1.471050024E0,1.159774456E1
1.077685663E0,1.498950124E0,1.110000038E1,1.471050024E0,1.129693977E1
1.079646289E0,1.537050128E0,1.079295063E1,1.471050024E0,1.100064973E1
1.081606978E0,1.575000048E0,1.044795036E1,1.471050024E0,1.066790889E1
1.083567895E0,1.575000048E0,1.014105034E1,1.471050024E0,1.036752214E1
1.085528745E0,1.614000082E0,9.873000145E0,1.432950020E0,1.010616019E1
1.087489366E0,1.614000082E0,9.604950905E0,1.432950020E0,9.844461586E0
1.089450055E0,1.614000082E0,9.375000000E0,1.432950020E0,9.620237368E0
1.091410787E0,1.614000082E0,9.145050049E0,1.432950020E0,9.396290886E0
1.093371510E0,1.575000048E0,8.914950371E0,1.318050027E0,9.148454576E0
1.095332153E0,1.575000048E0,8.722949982E0,1.279950023E0,8.955933988E0
1.097292819E0,1.575000048E0,8.455050468E0,1.203000069E0,8.684222057E0
1.099253920E0,1.614000082E0,8.302050591E0,1.165050030E0,8.537352156E0
1.101214894E0,1.537050128E0,8.032950401E0,1.087950110E0,8.250724252E0
1.103175854E0,1.614000082E0,7.842000484E0,1.050000072E0,8.074928360E0
1.105136819E0,1.614000082E0,7.687950134E0,1.126049995E0,7.935840354E0
1.107097510E0,1.575000048E0,7.573050499E0,1.087950110E0,7.811232582E0
1.109058281E0,1.614000082E0,7.534950256E0,1.203000069E0,7.799210267E0
1.111018870E0,1.575000048E0,7.420050144E0,1.050000072E0,7.657693481E0
1.112979512E0,1.575000048E0,7.342950344E0,1.050000072E0,7.583010290E0
1.114940361E0,1.651950121E0,7.267050266E0,9.349500537E-1,7.510864822E0
1.116901139E0,1.614000082E0,7.267050266E0,8.959500194E-1,7.497849177E0
1.118861683E0,1.575000048E0,7.267050266E0,1.011000037E0,7.504183220E0
1.120822295E0,1.575000048E0,7.305000305E0,1.126049995E0,7.557224570E0
1.122782910E0,1.537050128E0,7.267050266E0,1.165050030E0,7.518635796E0
1.124743524E0,1.498950124E0,7.342950344E0,1.240950108E0,7.596428661E0
1.126704520E0,1.459950089E0,7.420050144E0,1.240950108E0,7.663455851E0
1.128665390E0,1.498950124E0,7.420050144E0,1.203000069E0,7.664933449E0
1.130626143E0,1.498950124E0,7.534950256E0,1.318050027E0,7.794843341E0
1.132586930E0,1.537050128E0,7.534950256E0,1.395000100E0,7.815626894E0
1.134547696E0,1.498950124E0,7.650000572E0,1.432950020E0,7.926077592E0
1.136508469E0,1.575000048E0,7.765050411E0,1.471050024E0,8.058574391E0
1.138469281E0,1.498950124E0,7.918050289E0,1.471050024E0,8.191847168E0
1.140430082E0,1.384050012E0,7.995000362E0,1.471050024E0,8.246187810E0
1.142391342E0,1.345050097E0,8.148000717E0,1.471050024E0,8.388269406E0
1.144352467E0,1.306950092E0,8.224950790E0,1.471050024E0,8.457063451E0
1.146313221E0,1.306950092E0,8.340000153E0,1.510050058E0,8.575778231E0
1.148274084E0,1.269000053E0,8.493000031E0,1.510050058E0,8.719040190E0
1.150235131E0,1.306950092E0,8.569950104E0,1.471050024E0,8.792960338E0
1.152196138E0,1.306950092E0,8.685000420E0,1.510050058E0,8.911655402E0
1.154156868E0,1.269000053E0,8.800050735E0,1.471050024E0,9.011949970E0
1.156117679E0,1.269000053E0,8.877000809E0,1.471050024E0,9.087105847E0
1.158078305E0,1.269000053E0,8.953050613E0,1.432950020E0,9.155371220E0
1.160038986E0,1.230000019E0,8.991000175E0,1.471050024E0,9.193202509E0
1.161999954E0,1.230000019E0,9.106050491E0,1.471050024E0,9.305753262E0
1.163960835E0,1.269000053E0,9.106050491E0,1.471050024E0,9.310988393E0
1.165921586E0,1.269000053E0,9.220950127E0,1.510050058E0,9.429556382E0
1.167882376E0,1.269000053E0,9.220950127E0,1.510050058E0,9.429556382E0
1.169843321E0,1.269000053E0,9.298050880E0,1.471050024E0,9.498847271E0
1.171804220E0,1.269000053E0,9.375000000E0,1.510050058E0,9.580252466E0
1.173765093E0,1.269000053E0,9.375000000E0,1.471050024E0,9.574182697E0
1.175725981E0,1.269000053E0,9.451050758E0,1.471050024E0,9.648663625E0
1.177687134E0,1.269000053E0,9.412950516E0,1.471050024E0,9.611346769E0
1.179648210E0,1.306950092E0,9.528000832E0,1.471050024E0,9.729075319E0
1.181609108E0,1.306950092E0,9.528000832E0,1.510050058E0,9.735048514E0
1.183570058E0,1.384050012E0,9.528000832E0,1.510050058E0,9.745698818E0
1.185530766E0,1.384050012E0,9.528000832E0,1.510050058E0,9.745698818E0
1.187491535E0,1.459950089E0,9.528000832E0,1.510050058E0,9.756767154E0
1.189452124E0,1.614000082E0,9.528000832E0,1.585950017E0,9.793009423E0
1.191412766E0,1.651950121E0,9.490050316E0,1.510050058E0,9.750397191E0
1.193373420E0,1.690050125E0,9.490050316E0,1.510050058E0,9.756924495E0
1.195334071E0,1.729050040E0,9.528000832E0,1.471050024E0,9.794712965E0
1.197295157E0,1.729050040E0,9.565950394E0,1.471050024E0,9.831633087E0
1.199256129E0,1.729050040E0,9.604950905E0,1.471050024E0,9.869583786E0
1.201216910E0,1.767000079E0,9.643050194E0,1.471050024E0,9.913359395E0
1.203177747E0,1.804950118E0,9.720000267E0,1.471050024E0,9.995010670E0
1.205138504E0,1.843950033E0,9.720000267E0,1.471050024E0,1.000212703E1
1.207099285E0,1.843950033E0,9.720000267E0,1.471050024E0,1.000212703E1
1.209060357E0,1.882050037E0,9.757950783E0,1.471050024E0,1.004607904E1
1.211021350E0,1.920000076E0,9.681000710E0,1.471050024E0,9.978585231E0
1.212982487E0,1.920000076E0,9.720000267E0,1.471050024E0,1.001642619E1
1.214943581E0,1.996950150E0,9.681000710E0,1.471050024E0,9.993676641E0
1.216904295E0,2.035050154E0,9.681000710E0,1.432950020E0,9.995826610E0
1.218865121E0,1.996950150E0,9.681000710E0,1.432950020E0,9.988139486E0
1.220826046E0,2.111999989E0,9.681000710E0,1.432950020E0,1.001177629E1
1.222786951E0,2.149950027E0,9.643050194E0,1.432950020E0,9.983188264E0
1.224747878E0,2.111999989E0,9.604950905E0,1.471050024E0,9.943822907E0
1.226708798E0,2.035050154E0,9.604950905E0,1.471050024E0,9.927764058E0
1.228669901E0,2.074050188E0,9.681000710E0,1.471050024E0,1.000936797E1
1.230630951E0,1.996950150E0,9.643050194E0,1.432950020E0,9.951360344E0
1.232591844E0,1.959000111E0,9.643050194E0,1.356000066E0,9.933017399E0
1.234552790E0,1.882050037E0,9.643050194E0,1.318050027E0,9.913010908E0
1.236513483E0,1.843950033E0,9.643050194E0,1.240950108E0,9.895884293E0
1.238474251E0,1.729050040E0,9.604950905E0,1.356000066E0,9.853092515E0
1.240435380E0,1.651950121E0,9.565950394E0,1.356000066E0,9.801789751E0
1.242396403E0,1.614000082E0,9.565950394E0,1.356000066E0,9.795465246E0
1.244357475E0,1.537050128E0,9.528000832E0,1.395000100E0,9.751479284E0
1.246318543E0,1.422000051E0,9.604950905E0,1.356000066E0,9.803871797E0
1.248279442E0,1.422000051E0,9.565950394E0,1.432950020E0,9.776647525E0
1.250240391E0,1.384050012E0,9.528000832E0,1.471050024E0,9.739732155E0
1.252201534E0,1.345050097E0,9.528000832E0,1.471050024E0,9.734266679E0
1.254162620E0,1.306950092E0,9.490050316E0,1.471050024E0,9.691912180E0
1.256123511E0,1.306950092E0,9.565950394E0,1.471050024E0,9.766243579E0
1.258084463E0,1.269000053E0,9.528000832E0,1.471050024E0,9.724050039E0
1.260045696E0,1.230000019E0,9.565950394E0,1.510050058E0,9.762200477E0
1.262006846E0,1.230000019E0,9.565950394E0,1.471050024E0,9.756243906E0
1.263967596E0,1.192050099E0,9.565950394E0,1.471050024E0,9.751532113E0
1.265928463E0,1.153950095E0,9.528000832E0,1.471050024E0,9.709705909E0
1.267889399E0,1.039050102E0,9.565950394E0,1.471050024E0,9.734013572E0
1.269850311E0,1.039050102E0,9.565950394E0,1.471050024E0,9.734013572E0
1.271811416E0,1.039050102E0,9.565950394E0,1.471050024E0,9.734013572E0
1.273772465E0,1.039050102E0,9.565950394E0,1.471050024E0,9.734013572E0
1.275733547E0,9.619500637E-1,9.565950394E0,1.471050024E0,9.726085699E0
1.277694619E0,9.619500637E-1,9.565950394E0,1.471050024E0,9.726085699E0
1.279655172E0,9.240000248E-1,9.490050316E0,1.471050024E0,9.647736482E0
1.281615867E0,8.470500112E-1,9.490050316E0,1.471050024E0,9.640670977E0
1.283576963E0,8.089500666E-1,9.528000832E0,1.471050024E0,9.674770707E0
1.285537942E0,7.699500322E-1,9.565950394E0,1.432950020E0,9.703276547E0
1.287499035E0,8.089500666E-1,9.528000832E0,1.432950020E0,9.669050926E0
1.289460095E0,8.089500666E-1,9.490050316E0,1.471050024E0,9.637398164E0
1.291421060E0,8.089500666E-1,9.528000832E0,1.432950020E0,9.669050926E0
1.293382040E0,7.320000529E-1,9.490050316E0,1.356000066E0,9.614344245E0
1.295342953E0,7.699500322E-1,9.412950516E0,1.471050024E0,9.558265985E0
1.297303886E0,7.320000529E-1,9.412950516E0,1.471050024E0,9.555283861E0
1.299264402E0,6.550500393E-1,9.490050316E0,1.471050024E0,9.625701726E0
1.301225040E0,5.020500422E-1,9.375000000E0,1.432950020E0,9.497158786E0
1.303186176E0,5.790000558E-1,9.412950516E0,1.471050024E0,9.544782169E0
1.305147176E0,5.410500169E-1,9.375000000E0,1.395000100E0,9.493649741E0
1.307108311E0,5.790000558E-1,9.298050880E0,1.318050027E0,9.408838776E0
1.309069407E0,5.020500422E-1,9.298050880E0,1.318050027E0,9.404417063E0
1.311030076E0,4.639500082E-1,9.259950638E0,1.240950108E0,9.354244630E0
1.312990871E0,4.260000288E-1,9.220950127E0,1.240950108E0,9.313825982E0
1.314951827E0,4.260000288E-1,9.183000565E0,1.165050030E0,9.266407986E0
1.316912759E0,3.109500110E-1,9.145050049E0,1.050000072E0,9.210381667E0
1.318874176E0,2.719500065E-1,9.183000565E0,1.050000072E0,9.246834936E0
1.320835451E0,3.109500110E-1,9.106050491E0,1.165050030E0,9.185542283E0
1.322796721E0,3.109500110E-1,9.067950249E0,1.087950110E0,9.138273746E0
1.324757992E0,1.960500032E-1,9.067950249E0,1.050000072E0,9.130643869E0
1.326719010E0,1.189500093E-1,8.953050613E0,1.011000037E0,9.010737232E0
1.328680088E0,4.050000105E-3,8.991000175E0,1.011000037E0,9.047663877E0
1.330641208E0,4.200000316E-2,9.030000687E0,9.730500579E-1,9.082373193E0
1.332602316E0,4.200000316E-2,9.030000687E0,8.580000401E-1,9.070768461E0
1.334563523E0,4.200000316E-2,8.991000175E0,7.429500222E-1,9.021741677E0
1.336524701E0,4.200000316E-2,9.030000687E0,7.810500264E-1,9.063813521E0
1.338485822E0,4.200000316E-2,9.030000687E0,7.429500222E-1,9.060609866E0
1.340446949E0,8.100000024E-2,8.877000809E0,7.429500222E-1,8.908404969E0
1.342408151E0,4.050000105E-3,8.953050613E0,7.810500264E-1,8.987055738E0
1.344369331E0,4.050000105E-3,8.953050613E0,7.429500222E-1,8.983824710E0
1.346330437E0,-3.299999982E-2,8.914950371E0,7.050000429E-1,8.942843741E0
1.348291564E0,-7.200000435E-2,8.991000175E0,6.280500293E-1,9.013196713E0
1.350252946E0,-7.200000435E-2,8.953050613E0,5.899500251E-1,8.972755447E0
1.352214254E0,4.050000105E-3,8.953050613E0,6.280500293E-1,8.975053121E0
1.354175158E0,4.050000105E-3,8.838000298E0,6.660000086E-1,8.863059386E0
1.356136180E0,-1.099500060E-1,8.914950371E0,5.509500504E-1,8.932635394E0
1.358097220E0,-1.480500102E-1,8.991000175E0,6.660000086E-1,9.016848616E0
1.360058254E0,-1.099500060E-1,9.030000687E0,5.509500504E-1,9.047460824E0
1.362019529E0,-1.099500060E-1,9.030000687E0,4.750500321E-1,9.043156193E0
1.363980726E0,-1.480500102E-1,9.067950249E0,4.750500321E-1,9.081591989E0
1.365941648E0,-1.480500102E-1,9.067950249E0,4.360500276E-1,9.079635463E0
1.367902651E0,-2.250000089E-1,9.106050491E0,4.360500276E-1,9.119260945E0
1.369863875E0,-1.870500147E-1,9.183000565E0,4.360500276E-1,9.195250225E0
1.371825034E0,-1.870500147E-1,9.183000565E0,3.979500234E-1,9.193522247E0
1.373786291E0,-2.250000089E-1,9.183000565E0,3.979500234E-1,9.194372659E0
1.375747509E0,-1.870500147E-1,9.183000565E0,3.979500234E-1,9.193522247E0
1.377708787E0,-1.870500147E-1,9.106050491E0,4.360500276E-1,9.118403527E0
1.379670048E0,-2.250000089E-1,9.067950249E0,4.360500276E-1,9.081216127E0
1.381631409E0,-1.480500102E-1,8.953050613E0,5.130000114E-1,8.968957749E0
1.383592740E0,-1.870500147E-1,8.877000809E0,5.130000114E-1,8.893778729E0
1.385553825E0,-1.870500147E-1,8.761950493E0,4.750500321E-1,8.776812444E0
1.387514978E0,-2.629500031E-1,8.761950493E0,4.360500276E-1,8.776733947E0
1.389476042E0,-1.870500147E-1,8.838000298E0,6.280500293E-1,8.862261777E0
1.391437132E0,-1.870500147E-1,8.914950371E0,5.899500251E-1,8.936406932E0
1.393398566E0,-2.629500031E-1,9.106050491E0,5.509500504E-1,9.126491342E0
1.395359899E0,-2.629500031E-1,9.375000000E0,4.750500321E-1,9.390710316E0
1.397321247E0,-2.250000089E-1,9.490050316E0,4.360500276E-1,9.502726957E0
1.399282591E0,-2.629500031E-1,9.565950394E0,5.130000114E-1,9.583304161E0
1.401243804E0,-2.629500031E-1,9.565950394E0,4.750500321E-1,9.581347618E0
1.403205055E0,-2.629500031E-1,9.490050316E0,4.360500276E-1,9.503701244E0
1.405166461E0,-3.019500077E-1,9.412950516E0,4.750500321E-1,9.429765838E0
1.407127822E0,-3.400500119E-1,9.336000443E0,5.130000114E-1,9.356265670E0
1.409089256E0,-3.019500077E-1,9.259950638E0,5.509500504E-1,9.281239442E0
1.411050668E0,-4.170000255E-1,9.183000565E0,5.509500504E-1,9.208959461E0
1.413011689E0,-3.400500119E-1,9.183000565E0,5.899500251E-1,9.208212335E0
1.414972824E0,-3.780000210E-1,9.259950638E0,6.280500293E-1,9.288919026E0
1.416934025E0,-3.400500119E-1,9.336000443E0,6.280500293E-1,9.363278545E0
1.418895207E0,-3.780000210E-1,9.375000000E0,5.899500251E-1,9.401146209E0
1.420856312E0,-3.019500077E-1,9.451050758E0,5.899500251E-1,9.474258561E0
1.422817439E0,-2.629500031E-1,9.528000832E0,5.130000114E-1,9.545423593E0
1.424778507E0,-2.250000089E-1,9.604950905E0,4.750500321E-1,9.619323231E0
1.426739593E0,-1.099500060E-1,9.490050316E0,5.899500251E-1,9.509005470E0
1.428700848E0,-3.299999982E-2,9.604950905E0,4.360500276E-1,9.614900442E0
1.430662053E0,-1.480500102E-1,9.796050072E0,6.280500293E-1,9.817278780E0
1.432623264E0,-1.480500102E-1,9.910950661E0,6.280500293E-1,9.931933782E0
1.434584490E0,-7.200000435E-2,9.949950218E0,5.899500251E-1,9.967684504E0
1.436545678E0,4.200000316E-2,9.949950218E0,5.130000114E-1,9.963254607E0
1.438506877E0,-3.299999982E-2,9.910950661E0,4.750500321E-1,9.922384015E0
1.440467798E0,4.050000105E-3,9.949950218E0,4.750500321E-1,9.961284971E0
1.442428800E0,1.189500093E-1,9.949950218E0,4.750500321E-1,9.961994328E0
1.444390043E0,1.960500032E-1,1.006500053E1,6.280500293E-1,1.008648195E1
1.446351202E0,1.960500032E-1,1.006500053E1,4.750500321E-1,1.007811212E1
1.448312806E0,2.340000123E-1,1.006500053E1,4.750500321E-1,1.007892178E1
1.450274279E0,3.490500152E-1,1.006500053E1,4.360500276E-1,1.008048666E1
1.452235695E0,3.870000243E-1,1.006500053E1,4.750500321E-1,1.008363413E1
1.454197127E0,3.870000243E-1,1.010295010E1,6.280500293E-1,1.012984780E1
1.456158688E0,3.870000243E-1,1.006500053E1,5.130000114E-1,1.008549323E1
1.458120207E0,4.639500082E-1,1.002600002E1,4.360500276E-1,1.004619658E1
1.460081884E0,4.639500082E-1,1.002600002E1,4.360500276E-1,1.004619658E1
1.462043514E0,5.020500422E-1,9.873000145E0,4.750500321E-1,9.897164172E0
1.464004723E0,6.169500351E-1,9.796050072E0,3.600000143E-1,9.822058051E0
1.465966055E0,4.260000288E-1,9.835050583E0,5.130000114E-1,9.857629786E0
1.467927223E0,3.109500110E-1,9.910950661E0,6.660000086E-1,9.938168288E0
1.469888440E0,3.109500110E-1,9.949950218E0,5.899500251E-1,9.972273577E0
1.471849717E0,3.109500110E-1,9.873000145E0,5.130000114E-1,9.891207752E0
1.473810976E0,2.719500065E-1,9.873000145E0,4.360500276E-1,9.886365778E0
1.475773103E0,3.870000243E-1,9.835050583E0,4.750500321E-1,9.854119013E0
1.477734976E0,3.870000243E-1,9.720000267E0,2.830500007E-1,9.731818510E0
1.479695517E0,3.490500152E-1,9.681000710E0,3.220500052E-1,9.692642924E0
1.481656445E0,2.340000123E-1,9.643050194E0,3.600000143E-1,9.652604470E0
1.483617591E0,3.109500110E-1,9.604950905E0,3.600000143E-1,9.616723548E0
1.485578673E0,2.719500065E-1,9.528000832E0,3.600000143E-1,9.538676882E0
1.487540651E0,2.340000123E-1,9.528000832E0,3.979500234E-1,9.539178166E0
1.489502366E0,8.100000024E-2,9.528000832E0,1.300500035E-1,9.529232595E0
1.491462969E0,1.960500032E-1,9.412950516E0,4.360500276E-1,9.425084225E0
1.493423901E0,5.410500169E-1,8.991000175E0,5.130000114E-1,9.021861686E0
1.495385002E0,2.719500065E-1,9.106050491E0,8.200500607E-1,9.146944542E0
1.497346053E0,4.050000105E-3,9.220950127E0,9.730500579E-1,9.272149916E0
1.499307270E0,-7.200000435E-2,9.336000443E0,1.011000037E0,9.390857753E0
1.501268438E0,-1.099500060E-1,9.412950516E0,9.349500537E-1,9.459907929E0
1.503229679E0,-7.200000435E-2,9.412950516E0,8.200500607E-1,9.448878426E0
1.505190899E0,-1.099500060E-1,9.412950516E0,7.050000429E-1,9.439955057E0
1.507152132E0,-1.099500060E-1,9.451050758E0,5.899500251E-1,9.470083974E0
1.509113361E0,-3.299999982E-2,9.375000000E0,7.429500222E-1,9.404450475E0
1.511074413E0,4.050000105E-3,9.375000000E0,8.580000401E-1,9.414181083E0
1.513035517E0,-3.299999982E-2,9.412950516E0,8.959500194E-1,9.455551430E0
1.514996753E0,-3.299999982E-2,9.412950516E0,9.730500579E-1,9.463168224E0
1.516957961E0,-7.200000435E-2,9.451050758E0,9.349500537E-1,9.497456293E0
1.518919062E0,-1.099500060E-1,9.490050316E0,9.730500579E-1,9.540438691E0
1.520880194E0,-1.099500060E-1,9.565950394E0,1.011000037E0,9.619855353E0
1.522841261E0,-7.200000435E-2,9.604950905E0,9.349500537E-1,9.650616430E0
1.524802348E0,-1.099500060E-1,9.643050194E0,8.959500194E-1,9.685206889E0
1.526763587E0,-1.099500060E-1,9.720000267E0,8.580000401E-1,9.758414741E0
1.528724792E0,-7.200000435E-2,9.681000710E0,7.810500264E-1,9.712723505E0
1.530685983E0,4.200000316E-2,9.643050194E0,8.959500194E-1,9.684673845E0
1.532647179E0,-7.200000435E-2,9.757950783E0,7.810500264E-1,9.789424223E0
1.534608415E0,4.050000105E-3,9.681000710E0,5.899500251E-1,9.698960366E0
1.536569639E0,-1.870500147E-1,9.910950661E0,7.050000429E-1,9.937754061E0
1.538531406E0,-3.019500077E-1,1.006500053E1,6.280500293E-1,1.008909592E1
1.540493018E0,-4.170000255E-1,1.014105034E1,3.600000143E-1,1.015600271E1
1.542453148E0,-3.019500077E-1,1.018005085E1,4.360500276E-1,1.019385838E1
1.544413712E0,-1.480500102E-1,1.018005085E1,5.899500251E-1,1.019820549E1
1.546374696E0,-1.099500060E-1,1.018005085E1,5.899500251E-1,1.019772354E1
1.548335557E0,-1.099500060E-1,1.018005085E1,5.899500251E-1,1.019772354E1
1.550296645E0,-1.870500147E-1,1.021800041E1,5.509500504E-1,1.023455256E1
1.552257653E0,-1.480500102E-1,1.021800041E1,4.750500321E-1,1.023010869E1
1.554218786E0,-1.480500102E-1,1.021800041E1,5.509500504E-1,1.023391407E1
1.556179883E0,-1.870500147E-1,1.021800041E1,4.360500276E-1,1.022901069E1
1.558141272E0,-1.870500147E-1,1.025595093E1,5.509500504E-1,1.027244192E1
1.560102576E0,-3.019500077E-1,1.037100029E1,3.600000143E-1,1.038163864E1
1.562063225E0,-2.629500031E-1,1.037100029E1,4.750500321E-1,1.038520401E1
1.564024087E0,-1.870500147E-1,1.029495049E1,7.050000429E-1,1.032075667E1
1.565984886E0,-1.870500147E-1,1.025595093E1,8.200500607E-1,1.029038382E1
1.567945703E0,-2.250000089E-1,1.029495049E1,8.200500607E-1,1.033001029E1
1.569906823E0,-3.019500077E-1,1.037100029E1,7.429500222E-1,1.040196114E1
1.571867854E0,-3.780000210E-1,1.033305073E1,7.050000429E-1,1.036396866E1
1.573828923E0,-4.549500346E-1,1.037100029E1,5.899500251E-1,1.039772415E1
1.575789960E0,-4.549500346E-1,1.044795036E1,5.509500504E-1,1.047235371E1
1.577751449E0,-5.320500135E-1,1.048605061E1,5.130000114E-1,1.051206467E1
1.579712806E0,-5.700000525E-1,1.052505016E1,4.360500276E-1,1.054948912E1
1.581673836E0,-7.230000496E-1,1.048605061E1,4.360500276E-1,1.051998698E1
1.583634962E0,-7.999500632E-1,1.048605061E1,3.979500234E-1,1.052404588E1
1.585596046E0,-8.380500674E-1,1.056300068E1,4.750500321E-1,1.060683665E1
1.587557131E0,-8.770500422E-1,1.056300068E1,4.360500276E-1,1.060831465E1
1.589518161E0,-9.529500604E-1,1.060095024E1,4.750500321E-1,1.065429173E1
1.591479208E0,-9.919500351E-1,1.052505016E1,4.360500276E-1,1.058067982E1
1.593440334E0,-1.030050039E0,1.056300068E1,3.979500234E-1,1.062056263E1
1.595401437E0,-1.030050039E0,1.056300068E1,3.979500234E-1,1.062056263E1
1.597362466E0,-1.068000078E0,1.056300068E1,4.360500276E-1,1.062580572E1
1.599323516E0,-1.106999993E0,1.052505016E1,4.750500321E-1,1.059376243E1
1.601284417E0,-1.183050036E0,1.052505016E1,5.130000114E-1,1.060374733E1
1.603245362E0,-1.183050036E0,1.052505016E1,4.360500276E-1,1.060030320E1
1.605206461E0,-1.260000110E0,1.048605061E1,4.750500321E-1,1.057215825E1
1.607167514E0,-1.260000110E0,1.052505016E1,5.130000114E-1,1.061260808E1
1.609128456E0,-1.222050071E0,1.052505016E1,5.509500504E-1,1.061007226E1
1.611089434E0,-1.297950029E0,1.052505016E1,5.899500251E-1,1.062117678E1
1.613050662E0,-1.222050071E0,1.052505016E1,5.509500504E-1,1.061007226E1
1.615011817E0,-1.222050071E0,1.056300068E1,5.509500504E-1,1.064771974E1
1.616972926E0,-1.222050071E0,1.052505016E1,5.509500504E-1,1.061007226E1
1.618934049E0,-1.144950032E0,1.052505016E1,5.899500251E-1,1.060356697E1
1.620894912E0,-1.068000078E0,1.052505016E1,5.899500251E-1,1.059553425E1
1.622855838E0,-9.919500351E-1,1.056300068E1,6.280500293E-1,1.062804757E1
1.624816760E0,-9.150000215E-1,1.056300068E1,5.509500504E-1,1.061686179E1
1.626777684E0,-7.999500632E-1,1.056300068E1,5.509500504E-1,1.060756567E1
1.628738651E0,-7.230000496E-1,1.056300068E1,5.130000114E-1,1.060013592E1
1.630699605E0,-6.469500065E-1,1.063995075E1,5.130000114E-1,1.067193822E1
1.632660698E0,-5.320500135E-1,1.063995075E1,4.750500321E-1,1.066383148E1
1.634621754E0,-3.780000210E-1,1.067805004E1,5.130000114E-1,1.069704659E1
1.636582791E0,-3.019500077E-1,1.071600056E1,5.509500504E-1,1.073440207E1
1.638543833E0,-1.099500060E-1,1.071600056E1,5.509500504E-1,1.073071773E1
1.640505095E0,-3.299999982E-2,1.075500011E1,5.509500504E-1,1.076915328E1
1.642466292E0,4.050000105E-3,1.083105087E1,3.220500052E-1,1.083583848E1
1.644427685E0,8.100000024E-2,1.090800095E1,3.220500052E-1,1.091305465E1
1.646389037E0,3.870000243E-1,1.079295063E1,5.509500504E-1,1.081393075E1
1.648351374E0,5.020500422E-1,1.075500011E1,7.429500222E-1,1.079231469E1
1.650313422E0,5.790000558E-1,1.075500011E1,8.200500607E-1,1.080174757E1
1.652274469E0,6.550500393E-1,1.079295063E1,7.429500222E-1,1.083830469E1
1.654235809E0,7.320000529E-1,1.075500011E1,7.050000429E-1,1.080291056E1
1.656197385E0,8.089500666E-1,1.071600056E1,6.660000086E-1,1.076710844E1
1.658158889E0,8.470500112E-1,1.071600056E1,4.750500321E-1,1.075991795E1
1.660119893E0,9.240000248E-1,1.075500011E1,5.509500504E-1,1.080867011E1
1.662081044E0,1.114950061E0,1.056300068E1,8.580000401E-1,1.065627801E1
1.664042333E0,1.230000019E0,1.056300068E1,9.730500579E-1,1.067879721E1
1.666003581E0,1.192050099E0,1.052505016E1,1.011000037E0,1.064047863E1
1.667964989E0,1.192050099E0,1.044795036E1,9.730500579E-1,1.056065702E1
1.669926350E0,1.192050099E0,1.044795036E1,1.011000037E0,1.056422128E1
1.671887695E0,1.153950095E0,1.041000080E1,9.349500537E-1,1.051541008E1
1.673849044E0,1.192050099E0,1.029495049E1,9.730500579E-1,1.040931387E1
1.675809894E0,1.114950061E0,1.029495049E1,1.011000037E0,1.040438562E1
1.677770891E0,1.077000022E0,1.021800041E1,1.050000072E0,1.032811510E1
1.679731801E0,1.039050102E0,1.025595093E1,1.050000072E0,1.036178820E1
1.681692737E0,8.850000501E-1,1.018005085E1,1.050000072E0,1.027225197E1
1.683653702E0,8.850000501E-1,1.014105034E1,1.050000072E0,1.023360285E1
1.685614658E0,7.699500322E-1,1.006500053E1,1.126049995E0,1.015701961E1
1.687575711E0,6.940500140E-1,1.002600002E1,1.126049995E0,1.011288141E1
1.689536735E0,6.169500351E-1,9.988050461E0,1.165050030E0,1.007467721E1
1.691497101E0,4.639500082E-1,9.949950218E0,1.279950023E0,1.004266055E1
1.693457660E0,3.490500152E-1,9.910950661E0,1.279950023E0,9.999352528E0
1.695418644E0,3.109500110E-1,9.873000145E0,1.279950023E0,9.960476587E0
1.697379504E0,2.340000123E-1,9.835050583E0,1.318050027E0,9.925735834E0
1.699340438E0,2.719500065E-1,9.796050072E0,1.318050027E0,9.888064001E0
1.701301350E0,2.340000123E-1,9.757950783E0,1.395000100E0,9.859938375E0
1.703262131E0,1.570500135E-1,9.757950783E0,1.432950020E0,9.863853909E0
1.705222958E0,8.100000024E-2,9.681000710E0,1.471050024E0,9.792462607E0
1.707183851E0,8.100000024E-2,9.681000710E0,1.471050024E0,9.792462607E0
1.709144725E0,4.050000105E-3,9.643050194E0,1.471050024E0,9.754610275E0
1.711105882E0,-3.299999982E-2,9.643050194E0,1.548000097E0,9.766565944E0
1.713066956E0,-3.299999982E-2,9.604950905E0,1.663050056E0,9.747918053E0
1.715027840E0,-3.299999982E-2,9.565950394E0,1.701000094E0,9.716063877E0
1.716988790E0,-7.200000435E-2,9.528000832E0,1.663050056E0,9.672317165E0
1.718949663E0,-3.299999982E-2,9.451050758E0,1.816050053E0,9.624005779E0
1.720910559E0,4.050000105E-3,9.490050316E0,1.893000126E0,9.677009914E0
1.722871307E0,4.050000105E-3,9.528000832E0,2.085000038E0,9.753463047E0
1.724832098E0,8.100000024E-2,9.490050316E0,2.161050081E0,9.733332084E0
1.726793043E0,8.100000024E-2,9.451050758E0,2.314950228E0,9.730771603E0
1.728753942E0,1.189500093E-1,9.490050316E0,2.391000032E0,9.787343115E0
1.730715094E0,1.189500093E-1,9.490050316E0,2.545050144E0,9.826112372E0
1.732676172E0,1.960500032E-1,9.490050316E0,2.659050226E0,9.857486429E0
1.734637205E0,1.960500032E-1,9.451050758E0,2.773950100E0,9.851679816E0
1.736598251E0,2.340000123E-1,9.451050758E0,2.889000177E0,9.885516601E0
1.738559178E0,2.719500065E-1,9.375000000E0,2.965950251E0,9.836739434E0
1.740520154E0,3.109500110E-1,9.298050880E0,3.043050051E0,9.788288599E0
1.742481383E0,4.260000288E-1,9.259950638E0,3.118950129E0,9.780389141E0
1.744442537E0,5.790000558E-1,9.220950127E0,3.081000090E0,9.739287646E0
1.746404142E0,6.169500351E-1,9.220950127E0,3.157950163E0,9.766227410E0
1.748365614E0,7.320000529E-1,9.145050049E0,3.157950163E0,9.702598297E0
1.750326282E0,9.240000248E-1,9.067950249E0,3.081000090E0,9.621541421E0
1.752287173E0,1.000050068E0,9.067950249E0,3.118950129E0,9.641352175E0
1.754247786E0,1.114950061E0,8.991000175E0,3.118950129E0,9.581703799E0
1.756208481E0,1.269000053E0,8.914950371E0,3.118950129E0,9.529666896E0
1.758169262E0,1.345050097E0,8.914950371E0,3.118950129E0,9.540091707E0
1.760130018E0,1.422000051E0,8.877000809E0,3.081000090E0,9.503461951E0
1.762091057E0,1.537050128E0,8.914950371E0,3.081000090E0,9.556747604E0
1.764052047E0,1.614000082E0,8.877000809E0,3.043050051E0,9.521884962E0
1.766012824E0,1.767000079E0,8.877000809E0,3.043050051E0,9.549009700E0
1.767973664E0,1.843950033E0,8.877000809E0,3.004050255E0,9.551210029E0
1.769934555E0,1.729050040E0,8.838000298E0,3.004050255E0,9.493375650E0
1.771895431E0,2.035050154E0,8.877000809E0,3.004050255E0,9.589936935E0
1.773856233E0,2.494950056E0,8.877000809E0,2.965950251E0,9.686215981E0
1.775817054E0,2.572050095E0,8.914950371E0,2.965950251E0,9.741080160E0
1.777778173E0,2.649000168E0,8.877000809E0,2.889000177E0,9.703848065E0
1.779739205E0,2.878050089E0,8.877000809E0,2.928000212E0,9.780465271E0
1.781700606E0,2.917050123E0,8.991000175E0,2.889000177E0,9.884006657E0
1.783661898E0,2.802000046E0,8.991000175E0,2.812950134E0,9.828630468E0
1.785622774E0,3.070050240E0,8.991000175E0,2.812950134E0,9.908379337E0
1.787583761E0,3.300000191E0,8.991000175E0,2.851050138E0,9.992826042E0
1.789544897E0,3.223050117E0,9.030000687E0,2.812950134E0,9.992079509E0
1.791505990E0,3.262050152E0,9.106050491E0,2.773950100E0,1.006260035E1
1.793467020E0,3.568050146E0,9.145050049E0,2.698050022E0,1.018049096E1
1.795428069E0,3.492000103E0,9.183000565E0,2.736000061E0,1.019839499E1
1.797389010E0,3.607050180E0,9.220950127E0,2.583000183E0,1.023272311E1
1.799349987E0,3.798000097E0,9.220950127E0,2.583000183E0,1.030158318E1
1.801310856E0,3.682950258E0,9.298050880E0,2.353049994E0,1.027398253E1
1.803271756E0,3.913050175E0,9.298050880E0,2.046000004E0,1.029329043E1
1.805232907E0,4.027950287E0,9.030000687E0,2.122950077E0,1.011297251E1
1.807193985E0,3.990000248E0,9.298050880E0,1.855050087E0,1.028664488E1
1.809154867E0,3.952050209E0,9.451050758E0,1.816050053E0,1.040380215E1
1.811115818E0,4.105050087E0,9.528000832E0,1.777950048E0,1.052593665E1
1.813076916E0,4.182000160E0,9.604950905E0,1.855050087E0,1.063886357E1
1.815037970E0,4.258049965E0,9.604950905E0,1.777950048E0,1.065585181E1
1.816999231E0,4.297049999E0,9.720000267E0,1.816050053E0,1.078151574E1
1.818960431E0,4.297049999E0,9.835050583E0,1.816050053E0,1.088535238E1
1.820921284E0,4.297049999E0,9.949950218E0,1.740000129E0,1.097696445E1
1.822882256E0,4.411950111E0,9.949950218E0,1.585950017E0,1.099918409E1
1.824843485E0,4.450050354E0,9.988050461E0,1.471050024E0,1.103304529E1
1.826804638E0,4.411950111E0,1.006500053E1,1.471050024E0,1.108753930E1
1.828765523E0,3.760050297E0,1.018005085E1,7.429500222E-1,1.087765546E1
1.830726486E0,4.027950287E0,1.006500053E1,7.050000429E-1,1.086396080E1
1.832687596E0,4.105050087E0,9.873000145E0,1.203000069E0,1.075986883E1
1.834648653E0,4.027950287E0,9.796050072E0,1.318050027E0,1.067352971E1
1.836609734E0,3.837000132E0,9.910950661E0,1.471050024E0,1.072909601E1
1.838570807E0,3.607050180E0,9.949950218E0,1.510050058E0,1.069077039E1
1.840531345E0,3.415050268E0,9.910950661E0,1.510050058E0,1.059102273E1
1.842492040E0,3.184950113E0,9.949950218E0,1.510050058E0,1.055583572E1
1.844453010E0,2.917050123E0,1.006500053E1,1.432950020E0,1.057670851E1
1.846413893E0,2.610000134E0,1.021800041E1,1.203000069E0,1.061446382E1
1.848374823E0,2.304000139E0,1.037100029E1,8.580000401E-1,1.065843458E1
1.850335739E0,2.188950062E0,1.044795036E1,6.280500293E-1,1.069325096E1
1.852296663E0,2.149950027E0,1.052505016E1,8.200500607E-1,1.077364600E1
1.854257585E0,2.149950027E0,1.063995075E1,1.126049995E0,1.091324084E1
1.856218390E0,1.882050037E0,1.071600056E1,1.050000072E0,1.093056634E1
1.858179218E0,1.537050128E0,1.071600056E1,7.429500222E-1,1.085113661E1
1.860140471E0,1.651950121E0,1.067805004E1,8.959500194E-1,1.084215930E1
1.862101600E0,1.498950124E0,1.067805004E1,1.126049995E0,1.084138334E1
1.864062714E0,1.269000053E0,1.071600056E1,8.959500194E-1,1.082800792E1
1.866023833E0,1.000050068E0,1.075500011E1,3.979500234E-1,1.080872295E1
1.867985056E0,1.039050102E0,1.067805004E1,5.509500504E-1,1.074262183E1
1.869946235E0,8.850000501E-1,1.071600056E1,5.130000114E-1,1.076471375E1
1.871906754E0,4.639500082E-1,1.083105087E1,1.680000126E-1,1.084228466E1
1.873867467E0,3.870000243E-1,1.083105087E1,1.300500035E-1,1.083874278E1
1.875828426E0,3.490500152E-1,1.090800095E1,2.449500114E-1,1.091633277E1
1.877789312E0,1.189500093E-1,1.098495007E1,2.070000172E-1,1.098754413E1
1.879750102E0,-3.299999982E-2,1.106100082E1,1.300500035E-1,1.106181455E1
1.881710924E0,-1.099500060E-1,1.113795090E1,2.070000172E-1,1.114041688E1
1.883671863E0,-3.019500077E-1,1.121400070E1,1.680000126E-1,1.121932304E1
1.885632768E0,-5.320500135E-1,1.136805058E1,1.300500035E-1,1.138123737E1
1.887593694E0,-6.850500107E-1,1.140600014E1,2.070000172E-1,1.142842866E1
1.889554614E0,-7.230000496E-1,1.144395065E1,9.195000678E-2,1.146713523E1
1.891515489E0,-8.380500674E-1,1.152105045E1,-2.205000073E-2,1.155151149E1
1.893476381E0,-9.919500351E-1,1.155900097E1,-2.205000073E-2,1.160150656E1
1.895436993E0,-1.144950032E0,1.163595009E1,1.500000060E-2,1.169215421E1
1.897397688E0,-1.222050071E0,1.171305084E1,9.195000678E-2,1.177698693E1
1.899358784E0,-1.336950064E0,1.178895092E1,5.295000225E-2,1.186463666E1
1.901319763E0,-1.452000022E0,1.186605072E1,1.300500035E-1,1.195526565E1
1.903280871E0,-1.489950061E0,1.198095036E1,5.295000225E-2,1.207335605E1
1.905241931E0,-1.681950092E0,1.201905060E1,-6.105000153E-2,1.213631989E1
1.907203056E0,-1.720050097E0,1.205805016E1,-6.105000153E-2,1.218026572E1
1.909164162E0,-1.720050097E0,1.205805016E1,-2.205000073E-2,1.218013268E1
1.911125369E0,-1.681950092E0,1.205805016E1,-6.105000153E-2,1.217494381E1
1.913086546E0,-1.681950092E0,1.198095036E1,-2.205000073E-2,1.209845501E1
1.915047292E0,-1.605000019E0,1.194300079E1,1.500000060E-2,1.205037419E1
1.917008164E0,-1.605000019E0,1.190400028E1,5.295000225E-2,1.201182965E1
1.918969230E0,-1.567050099E0,1.182795048E1,1.500000060E-2,1.193131525E1
1.920930239E0,-1.452000022E0,1.175100040E1,-6.105000153E-2,1.184052540E1
1.922891193E0,-1.375050068E0,1.163595009E1,-1.369500011E-1,1.171771533E1
1.924852164E0,-1.297950029E0,1.152105045E1,-2.140500098E-1,1.159590856E1
1.926813398E0,-1.297950029E0,1.140600014E1,-4.060500264E-1,1.148679198E1
1.928774552E0,-1.144950032E0,1.132905006E1,-4.440000355E-1,1.139541232E1
1.930735482E0,-9.919500351E-1,1.121400070E1,-4.819500148E-1,1.126809888E1
1.932696477E0,-9.150000215E-1,1.110000038E1,-4.060500264E-1,1.114504868E1
1.934657522E0,-8.380500674E-1,1.098495007E1,-4.060500264E-1,1.102435179E1
1.936618552E0,-7.230000496E-1,1.087005043E1,-4.440000355E-1,1.090311247E1
1.938579803E0,-6.469500065E-1,1.079295063E1,-4.440000355E-1,1.082143538E1
1.940540999E0,-6.079500318E-1,1.071600056E1,-3.670500219E-1,1.073950636E1
1.942501741E0,-5.700000525E-1,1.060095024E1,-3.670500219E-1,1.062260664E1
1.944462616E0,-4.930500090E-1,1.041000080E1,-3.670500219E-1,1.042813218E1
1.946423367E0,-4.930500090E-1,1.033305073E1,-3.670500219E-1,1.035131689E1
1.948384155E0,-4.170000255E-1,1.025595093E1,-3.670500219E-1,1.027098555E1
1.950345074E0,-4.170000255E-1,1.014105034E1,-4.060500264E-1,1.015773930E1
1.952305941E0,-3.400500119E-1,9.988050461E0,-4.060500264E-1,1.000208292E1
1.954267235E0,-3.780000210E-1,9.910950661E0,-4.440000355E-1,9.928089597E0
1.956228403E0,-3.019500077E-1,9.720000267E0,-4.060500264E-1,9.733162673E0
1.958189511E0,-3.019500077E-1,9.565950394E0,-4.060500264E-1,9.579324473E0
1.960150636E0,-1.870500147E-1,9.375000000E0,-3.289500177E-1,9.382634002E0
1.962111833E0,-1.870500147E-1,9.220950127E0,-3.670500219E-1,9.230148139E0
1.964073013E0,-1.480500102E-1,9.030000687E0,-4.440000355E-1,9.042121833E0
1.966034253E0,-1.480500102E-1,8.877000809E0,-4.819500148E-1,8.891306877E0
1.967995475E0,-1.099500060E-1,8.722949982E0,-5.590500236E-1,8.741537755E0
1.969956167E0,-2.250000089E-1,8.569950104E0,-7.510500550E-1,8.605739130E0
1.971917015E0,-2.250000089E-1,8.377950668E0,-8.269500136E-1,8.421670186E0
1.973878130E0,-1.480500102E-1,8.263050079E0,-8.659500480E-1,8.309620022E0
1.975839167E0,-1.099500060E-1,8.148000717E0,-7.890000343E-1,8.186850783E0
1.977799891E0,-7.200000435E-2,8.110050201E0,-7.510500550E-1,8.145070562E0
1.979760707E0,4.200000316E-2,8.071949959E0,-7.120500207E-1,8.103403937E0
1.981721648E0,8.100000024E-2,8.032950401E0,-7.890000343E-1,8.072011782E0
1.983682552E0,8.100000024E-2,8.110050201E0,-8.269500136E-1,8.152504008E0
1.985643528E0,1.189500093E-1,8.032950401E0,-7.890000343E-1,8.072481794E0
1.987604480E0,1.189500093E-1,7.995000362E0,-8.659500480E-1,8.042639454E0
1.989565579E0,1.570500135E-1,7.995000362E0,-9.040500522E-1,8.047484203E0
1.991526634E0,1.570500135E-1,8.032950401E0,-8.269500136E-1,8.076930307E0
1.993487490E0,8.100000024E-2,8.071949959E0,-8.269500136E-1,8.114603100E0
1.995448405E0,8.100000024E-2,8.032950401E0,-8.659500480E-1,8.079896202E0
1.997409154E0,4.050000105E-3,8.071949959E0,-9.810000658E-1,8.131343903E0
1.999369948E0,4.200000316E-2,8.110050201E0,-9.810000658E-1,8.169274105E0
2.001330533E0,-3.299999982E-2,8.187000275E0,-9.420000315E-1,8.241081638E0
2.003291179E0,4.050000105E-3,8.302050591E0,-9.040500522E-1,8.351129678E0
2.005252013E0,-3.299999982E-2,8.416950226E0,-9.810000658E-1,8.473989688E0
2.007212792E0,-1.099500060E-1,8.493000031E0,-1.018950105E0,8.554612664E0
2.009173768E0,-1.480500102E-1,8.532000542E0,-1.096050024E0,8.603387571E0
2.011134667E0,-1.870500147E-1,8.608050346E0,-1.018950105E0,8.670165961E0
2.013095415E0,-2.629500031E-1,8.608050346E0,-1.018950105E0,8.672135422E0
2.015056207E0,-3.780000210E-1,8.722949982E0,-1.134000063E0,8.804470259E0
2.017017332E0,-3.780000210E-1,8.761950493E0,-1.134000063E0,8.843111251E0
2.018978359E0,-3.780000210E-1,8.838000298E0,-1.134000063E0,8.918469006E0
2.020939201E0,-4.549500346E-1,8.800050735E0,-1.249050021E0,8.899887552E0
2.022900111E0,-5.320500135E-1,8.877000809E0,-1.287000060E0,8.985576761E0
2.024860901E0,-6.079500318E-1,8.914950371E0,-1.249050021E0,9.022531203E0
2.026821727E0,-7.230000496E-1,8.991000175E0,-1.363950014E0,9.122563942E0
2.028782441E0,-6.469500065E-1,8.953050613E0,-1.594050050E0,9.116833615E0
2.030743188E0,-7.230000496E-1,8.914950371E0,-1.479000092E0,9.065677606E0
2.032703936E0,-7.230000496E-1,8.877000809E0,-1.402050018E0,9.016075459E0
2.034664701E0,-7.999500632E-1,8.877000809E0,-1.441050053E0,9.028714677E0
2.036625651E0,-7.999500632E-1,8.877000809E0,-1.594050050E0,9.054394459E0
2.038586547E0,-7.999500632E-1,8.838000298E0,-1.516950130E0,9.002849941E0
2.040547340E0,-9.919500351E-1,8.877000809E0,-1.555950046E0,9.066757346E0
2.042508164E0,-9.919500351E-1,8.838000298E0,-1.594050050E0,9.035220512E0
2.044469020E0,-9.919500351E-1,8.761950493E0,-1.594050050E0,8.960844652E0
2.046429893E0,-1.068000078E0,8.685000420E0,-1.594050050E0,8.894428144E0
2.048390646E0,-1.106999993E0,8.608050346E0,-1.747050047E0,8.853031324E0
2.050351434E0,-1.068000078E0,8.532000542E0,-1.671000123E0,8.759446262E0
2.052312065E0,-1.106999993E0,8.455050468E0,-1.594050050E0,8.674924955E0
2.054272742E0,-1.106999993E0,8.416950226E0,-1.594050050E0,8.637794606E0
2.056233826E0,-1.144950032E0,8.302050591E0,-1.632000089E0,8.538054748E0
2.058194802E0,-1.144950032E0,8.302050591E0,-1.671000123E0,8.545595122E0
2.060155717E0,-1.183050036E0,8.148000717E0,-1.671000123E0,8.401295405E0
2.062116650E0,-1.144950032E0,8.110050201E0,-1.555950046E0,8.336954203E0
2.064077795E0,-1.144950032E0,8.032950401E0,-1.671000123E0,8.284409704E0
2.066038878E0,-1.068000078E0,7.957050323E0,-1.708950043E0,8.208275353E0
2.067999785E0,-1.144950032E0,7.918050289E0,-1.671000123E0,8.173045477E0
2.069960737E0,-1.106999993E0,7.803000450E0,-1.671000123E0,8.056333311E0
2.071921789E0,-1.068000078E0,7.726950169E0,-1.708950043E0,7.985417542E0
2.073882812E0,-1.030050039E0,7.650000572E0,-1.747050047E0,7.914271647E0
2.075843943E0,-1.030050039E0,7.573050499E0,-1.708950043E0,7.831513723E0
2.077805042E0,-1.068000078E0,7.534950256E0,-1.747050047E0,7.808218965E0
2.079766145E0,-1.106999993E0,7.458000183E0,-1.708950043E0,7.730958929E0
2.081727227E0,-1.068000078E0,7.458000183E0,-1.747050047E0,7.733988283E0
2.083688482E0,-1.068000078E0,7.381950378E0,-1.747050047E0,7.660678783E0
2.085649687E0,-1.030050039E0,7.342950344E0,-1.747050047E0,7.617880723E0
2.087610878E0,-9.919500351E-1,7.342950344E0,-1.786050081E0,7.621867194E0
2.089572073E0,-9.919500351E-1,7.342950344E0,-1.786050081E0,7.621867194E0
2.091533179E0,-9.529500604E-1,7.305000305E0,-1.824000120E0,7.589342509E0
2.093494308E0,-7.999500632E-1,7.267050266E0,-1.824000120E0,7.535045860E0
2.095455510E0,-7.230000496E-1,7.381950378E0,-1.861950040E0,7.647403377E0
2.097416691E0,-7.620000243E-1,7.420050144E0,-1.900950074E0,7.697493057E0
2.099378111E0,-7.620000243E-1,7.420050144E0,-1.900950074E0,7.697493057E0
2.101339460E0,-7.230000496E-1,7.458000183E0,-1.861950040E0,7.720838928E0
2.103300506E0,-7.999500632E-1,7.497000217E0,-1.824000120E0,7.757055421E0
2.105261631E0,-7.620000243E-1,7.458000183E0,-1.786050081E0,7.706645552E0
2.107222564E0,-7.999500632E-1,7.458000183E0,-1.747050047E0,7.701549890E0
2.109183554E0,-7.999500632E-1,7.420050144E0,-1.747050047E0,7.664805810E0
2.111144600E0,-8.380500674E-1,7.458000183E0,-1.671000123E0,7.688714851E0
2.113105629E0,-8.770500422E-1,7.420050144E0,-1.747050047E0,7.673235614E0
2.115067060E0,-8.380500674E-1,7.458000183E0,-1.708950043E0,7.697051701E0
2.117028383E0,-9.150000215E-1,7.420050144E0,-1.671000123E0,7.660718673E0
2.118989823E0,-9.150000215E-1,7.420050144E0,-1.671000123E0,7.660718673E0
2.120951229E0,-9.919500351E-1,7.458000183E0,-1.671000123E0,7.707008046E0
2.122912386E0,-1.030050039E0,7.458000183E0,-1.671000123E0,7.712004359E0
2.124873616E0,-9.919500351E-1,7.497000217E0,-1.632000089E0,7.736433379E0
2.126834841E0,-1.068000078E0,7.458000183E0,-1.747050047E0,7.733988283E0
2.128796071E0,-1.030050039E0,7.534950256E0,-1.708950043E0,7.794676946E0
2.130757122E0,-1.068000078E0,7.458000183E0,-1.708950043E0,7.725470934E0
2.132718226E0,-1.068000078E0,7.458000183E0,-1.671000123E0,7.717164784E0
2.134679298E0,-1.183050036E0,7.573050499E0,-1.747050047E0,7.861481102E0
2.136640380E0,-1.222050071E0,7.573050499E0,-1.708950043E0,7.859071859E0
2.138601442E0,-1.260000110E0,7.650000572E0,-1.747050047E0,7.947470849E0
2.140562520E0,-1.260000110E0,7.687950134E0,-1.786050081E0,7.992631134E0
2.142523597E0,-1.260000110E0,7.726950169E0,-1.861950040E0,8.047373307E0
2.144484674E0,-1.260000110E0,7.726950169E0,-1.900950074E0,8.056486230E0
2.146445795E0,-1.297950029E0,7.765050411E0,-1.977000117E0,8.117216988E0
2.148406903E0,-1.336950064E0,7.879950523E0,-2.053950071E0,8.252258274E0
2.150367991E0,-1.413000107E0,7.879950523E0,-2.053950071E0,8.264919869E0
2.152329074E0,-1.413000107E0,7.957050323E0,-2.130000114E0,8.357518749E0
2.154290149E0,-1.489950061E0,8.032950401E0,-2.130000114E0,8.443052992E0
2.156251227E0,-1.452000022E0,8.110050201E0,-2.169000149E0,8.519728868E0
2.158212618E0,-1.489950061E0,8.224950790E0,-2.284050226E0,8.665255456E0
2.160173918E0,-1.489950061E0,8.340000153E0,-2.322000027E0,8.784488480E0
2.162134977E0,-1.528050065E0,8.377950668E0,-2.437050104E0,8.858002462E0
2.164096093E0,-1.489950061E0,8.455050468E0,-2.514000177E0,8.945838502E0
2.166057028E0,-1.452000022E0,8.493000031E0,-2.514000177E0,8.975497227E0
2.168018016E0,-1.375050068E0,8.532000542E0,-2.475000143E0,8.989517320E0
2.169979242E0,-1.413000107E0,8.569950104E0,-2.514000177E0,9.042168489E0
2.171940398E0,-1.452000022E0,8.608050346E0,-2.475000143E0,9.073723631E0
2.173901346E0,-1.375050068E0,8.647050858E0,-2.359950066E0,9.068164949E0
2.175862342E0,-1.336950064E0,8.722949982E0,-2.169000149E0,9.087455832E0
2.177823432E0,-1.260000110E0,8.722949982E0,-2.092050076E0,9.058373484E0
2.179784494E0,-1.144950032E0,8.800050735E0,-2.092050076E0,9.117481946E0
2.181746069E0,-1.106999993E0,8.877000809E0,-2.053950071E0,9.178524023E0
2.183707494E0,-1.030050039E0,8.953050613E0,-2.130000114E0,9.260400578E0
2.185668707E0,-9.919500351E-1,8.991000175E0,-2.206950188E0,9.310890299E0
2.187629972E0,-1.030050039E0,9.145050049E0,-2.206950188E0,9.463803285E0
2.189591241E0,-1.030050039E0,9.259950638E0,-2.245050192E0,9.583733055E0
2.191552508E0,-9.919500351E-1,9.298050880E0,-2.245050192E0,9.616546439E0
2.193513868E0,-9.919500351E-1,9.412950516E0,-2.206950188E0,9.718962466E0
2.195475201E0,-1.068000078E0,9.490050316E0,-2.359950066E0,9.837227428E0
2.197436261E0,-1.183050036E0,9.604950905E0,-2.359950066E0,9.961127124E0
2.199397414E0,-1.183050036E0,9.681000710E0,-2.475000143E0,1.006215722E1
2.201358433E0,-1.297950029E0,9.720000267E0,-2.551950216E0,1.013289344E1
2.203319491E0,-1.336950064E0,9.720000267E0,-2.514000177E0,1.012847657E1
2.205280615E0,-1.413000107E0,9.757950783E0,-2.437050104E0,1.015644554E1
2.207241720E0,-1.489950061E0,9.757950783E0,-2.437050104E0,1.016743664E1
2.209202758E0,-1.605000019E0,9.796050072E0,-2.398950100E0,1.021242301E1
2.211163809E0,-1.642950058E0,9.796050072E0,-2.359950066E0,1.020937051E1
2.213124934E0,-1.758000135E0,9.757950783E0,-2.322000027E0,1.018331243E1
2.215086038E0,-1.911000133E0,9.720000267E0,-2.206950188E0,1.014893866E1
2.217047111E0,-1.911000133E0,9.681000710E0,-2.206950188E0,1.011159361E1
2.219008194E0,-2.026050091E0,9.643050194E0,-2.092050076E0,1.007323034E1
2.220969089E0,-2.103000164E0,9.604950905E0,-2.014950037E0,1.003681798E1
2.222930040E0,-2.218050003E0,9.528000832E0,-1.939050078E0,9.973086828E0
2.224891138E0,-2.295000076E0,9.604950905E0,-1.861950040E0,1.004932660E1
2.226852192E0,-2.410050154E0,9.528000832E0,-1.786050081E0,9.989049829E0
2.228813272E0,-2.448000193E0,9.528000832E0,-1.900950074E0,1.001943691E1
2.230774345E0,-2.524950027E0,9.451050758E0,-1.900950074E0,9.965507727E0
2.232735447E0,-2.485950232E0,9.451050758E0,-1.786050081E0,9.934399020E0
2.234696523E0,-2.524950027E0,9.528000832E0,-1.786050081E0,1.001739224E1
2.236657600E0,-2.524950027E0,9.565950394E0,-1.632000089E0,1.002727300E1
2.238618677E0,-2.563050032E0,9.528000832E0,-1.594050050E0,9.994649612E0
2.240579935E0,-2.640000105E0,9.604950905E0,-1.555950046E0,1.008194738E1
2.242541139E0,-2.640000105E0,9.643050194E0,-1.594050050E0,1.012417963E1
2.244502145E0,-2.601000071E0,9.757950783E0,-1.671000123E0,1.023596826E1
2.246463213E0,-2.563050032E0,9.757950783E0,-1.708950043E0,1.023266042E1
2.248424515E0,-2.563050032E0,9.835050583E0,-1.708950043E0,1.030620957E1
2.250385749E0,-2.524950027E0,9.910950661E0,-1.786050081E0,1.038230661E1
2.252346981E0,-2.485950232E0,9.988050461E0,-1.861950040E0,1.045982593E1
2.254308213E0,-2.410050154E0,1.006500053E1,-1.977000117E0,1.053665540E1
2.256269092E0,-2.410050154E0,1.010295010E1,-2.014950037E0,1.058007401E1
2.258230068E0,-2.448000193E0,1.014105034E1,-2.130000114E0,1.064755875E1
2.260191341E0,-2.332950115E0,1.018005085E1,-2.169000149E0,1.066680145E1
2.262152527E0,-2.371050119E0,1.025595093E1,-2.206950188E0,1.075532599E1
2.264113541E0,-2.332950115E0,1.021800041E1,-2.322000027E0,1.073507675E1
2.266074606E0,-2.332950115E0,1.029495049E1,-2.359950066E0,1.081656258E1
2.268035646E0,-2.295000076E0,1.033305073E1,-2.359950066E0,1.084473730E1
2.269996720E0,-2.218050003E0,1.033305073E1,-2.322000027E0,1.082050679E1
2.271957798E0,-2.218050003E0,1.037100029E1,-2.284050226E0,1.084869938E1
2.273918874E0,-2.256000042E0,1.041000080E1,-2.398950100E0,1.091845293E1
2.275880312E0,-2.332950115E0,1.044795036E1,-2.359950066E0,1.096228477E1
2.277841643E0,-2.332950115E0,1.052505016E1,-2.284050226E0,1.101981046E1
2.279802492E0,-2.295000076E0,1.056300068E1,-2.322000027E0,1.105602518E1
2.281763486E0,-2.295000076E0,1.071600056E1,-2.245050192E0,1.118659661E1
2.283724262E0,-2.332950115E0,1.071600056E1,-2.245050192E0,1.119444391E1
2.285685102E0,-2.371050119E0,1.075500011E1,-2.206950188E0,1.123220972E1
2.287646038E0,-2.371050119E0,1.090800095E1,-2.169000149E0,1.137149616E1
2.289606946E0,-2.410050154E0,1.098495007E1,-2.130000114E0,1.144615089E1
2.291567997E0,-2.332950115E0,1.110000038E1,-2.053950071E0,1.152698467E1
2.293529013E0,-2.371050119E0,1.117605019E1,-1.939050078E0,1.158817896E1
2.295490146E0,-2.332950115E0,1.129095078E1,-1.939050078E0,1.169137036E1
2.297451244E0,-2.332950115E0,1.136805058E1,-1.900950074E0,1.175962760E1
2.299412093E0,-2.295000076E0,1.144395065E1,-1.861950040E0,1.181938619E1
2.301373015E0,-2.218050003E0,1.155900097E1,-1.861950040E0,1.191625391E1
2.303333758E0,-2.218050003E0,1.163595009E1,-1.824000120E0,1.198507642E1
2.305294553E0,-2.103000164E0,1.171305084E1,-1.786050081E0,1.203362558E1
2.307255497E0,-2.103000164E0,1.171305084E1,-1.786050081E0,1.203362558E1
2.309216398E0,-2.026050091E0,1.178895092E1,-1.747050047E0,1.208869003E1
2.311177370E0,-1.950000048E0,1.178895092E1,-1.708950043E0,1.207072385E1
2.313138321E0,-1.950000048E0,1.182795048E1,-1.708950043E0,1.210881592E1
2.315099255E0,-1.911000133E0,1.182795048E1,-1.671000123E0,1.209729620E1
2.317060184E0,-1.911000133E0,1.182795048E1,-1.632000089E0,1.209197082E1
2.319021285E0,-1.834950089E0,1.175100040E1,-1.555950046E0,1.199475022E1
2.320982336E0,-1.758000135E0,1.167405033E1,-1.594050050E0,1.191280870E1
2.322943193E0,-1.681950092E0,1.163595009E1,-1.516950130E0,1.185434217E1
2.324904107E0,-1.642950058E0,1.152105045E1,-1.441050053E0,1.172648770E1
2.326865095E0,-1.567050099E0,1.148295021E1,-1.249050021E0,1.165649679E1
2.328826047E0,-1.567050099E0,1.140600014E1,-1.171950102E0,1.157263808E1
2.330787100E0,-1.528050065E0,1.132905006E1,-9.040500522E-1,1.146732832E1
2.332748124E0,-1.452000022E0,1.132905006E1,-8.659500480E-1,1.145449907E1
2.334709390E0,-1.375050068E0,1.129095078E1,-7.120500207E-1,1.139663754E1
2.336670585E0,-1.336950064E0,1.121400070E1,-5.209500194E-1,1.130542508E1
2.338631474E0,-1.297950029E0,1.117605019E1,-4.060500264E-1,1.125849229E1
2.340592477E0,-1.106999993E0,1.121400070E1,-2.520000041E-1,1.127132489E1
2.342553565E0,-1.106999993E0,1.121400070E1,-2.205000073E-2,1.126852905E1
2.344514628E0,-1.030050039E0,1.117605019E1,-1.369500011E-1,1.122425303E1
2.346476023E0,-9.529500604E-1,1.125300026E1,1.500000060E-2,1.129328799E1
2.348437321E0,-8.770500422E-1,1.129095078E1,2.070000172E-1,1.132685460E1
2.350397472E0,-7.230000496E-1,1.144395065E1,2.830500007E-1,1.147025950E1
2.352357982E0,-6.469500065E-1,1.144395065E1,4.360500276E-1,1.147051396E1
2.354319155E0,-4.170000255E-1,1.155900097E1,5.130000114E-1,1.157789106E1
2.356280134E0,-2.629500031E-1,1.159800053E1,5.509500504E-1,1.161405635E1
2.358241408E0,-1.480500102E-1,1.178895092E1,6.280500293E-1,1.180659686E1
2.360202595E0,-3.299999982E-2,1.190400028E1,8.580000401E-1,1.193492672E1
2.362164023E0,8.100000024E-2,1.201905060E1,6.280500293E-1,1.203572121E1
2.364125374E0,2.340000123E-1,1.217295074E1,7.810500264E-1,1.220022643E1
2.366086585E0,4.639500082E-1,1.232595062E1,8.580000401E-1,1.236448432E1
2.368047837E0,5.410500169E-1,1.244100094E1,1.011000037E0,1.249373285E1
2.370009739E0,5.790000558E-1,1.259400082E1,8.580000401E-1,1.263646555E1
2.371971451E0,9.240000248E-1,1.267095089E1,1.087950110E0,1.275109438E1
2.373932280E0,1.230000019E0,1.274805069E1,1.432950020E0,1.288716579E1
2.375893371E0,1.345050097E0,1.278600025E1,1.510050058E0,1.294493003E1
2.377854265E0,1.498950124E0,1.297800064E1,1.510050058E0,1.315125862E1
2.379815217E0,1.651950121E0,1.305405045E1,1.510050058E0,1.324452428E1
2.381775730E0,1.882050037E0,1.305405045E1,1.510050058E0,1.327518725E1
2.383736371E0,2.111999989E0,1.305405045E1,1.471050024E0,1.330536603E1
2.385697152E0,2.304000139E0,1.313100052E1,1.471050024E0,1.341251578E1
2.387657898E0,2.494950056E0,1.309305096E1,1.510050058E0,1.341391107E1
2.389618897E0,2.686950207E0,1.301595020E1,1.548000097E0,1.338024534E1
2.391579821E0,2.839950085E0,1.293900108E1,1.510050058E0,1.333279103E1
2.393540745E0,2.992950201E0,1.286295033E1,1.548000097E0,1.329697508E1
2.395501669E0,3.262050152E0,1.270905018E1,1.548000097E0,1.321201090E1
2.397462367E0,3.376950264E0,1.251795101E1,1.548000097E0,1.305753403E1
2.399423131E0,3.529950142E0,1.228800011E1,1.585950017E0,1.288296286E1
2.401383721E0,3.645000219E0,1.201905060E1,1.548000097E0,1.265463979E1
2.403344362E0,3.682950258E0,1.175100040E1,1.585950017E0,1.241633483E1
2.405305377E0,3.682950258E0,1.144395065E1,1.585950017E0,1.212614393E1
2.407266283E0,3.645000219E0,1.113795090E1,1.585950017E0,1.182603967E1
2.409227583E0,3.607050180E0,1.075500011E1,1.624950051E0,1.145955065E1
2.411188758E0,3.568050146E0,1.044795036E1,1.585950017E0,1.115373866E1
2.413150134E0,3.529950142E0,1.014105034E1,1.624950051E0,1.086010647E1
2.415111451E0,3.415050268E0,9.757950783E0,1.585950017E0,1.045922604E1
2.417072892E0,3.376950264E0,9.412950516E0,1.548000097E0,1.011947305E1
2.419034297E0,3.337950230E0,9.030000687E0,1.585950017E0,9.756949400E0
2.420995324E0,3.337950230E0,8.761950493E0,1.510050058E0,9.497048981E0
2.422956458E0,3.223050117E0,8.455050468E0,1.471050024E0,9.167328873E0
2.424917839E0,3.184950113E0,8.187000275E0,1.471050024E0,8.907012344E0
2.426879148E0,3.070050240E0,7.879950523E0,1.432950020E0,8.577422368E0
2.428840367E0,3.031950235E0,7.650000572E0,1.432950020E0,8.352758631E0
2.430801612E0,2.917050123E0,7.381950378E0,1.279950023E0,8.039940601E0
2.432762840E0,2.802000046E0,7.228050232E0,1.240950108E0,7.850851647E0
2.434724073E0,2.725050211E0,7.113000393E0,1.318050027E0,7.730325292E0
2.436685123E0,2.572050095E0,6.922050476E0,1.279950023E0,7.494564467E0
2.438646227E0,2.533950090E0,6.768000126E0,1.279950023E0,7.339277950E0
2.440607659E0,2.494950056E0,6.654000282E0,1.165050030E0,7.201238582E0
2.442568994E0,2.341950178E0,6.654000282E0,1.203000069E0,7.155952736E0
2.444530013E0,2.265000105E0,6.654000282E0,1.203000069E0,7.131139768E0
2.446491135E0,2.188950062E0,6.654000282E0,1.318050027E0,7.127726005E0
2.448452204E0,2.111999989E0,6.691950321E0,1.240950108E0,7.126198160E0
2.450413289E0,1.996950150E0,6.730050087E0,1.126049995E0,7.109808202E0
2.452374365E0,1.920000076E0,6.844950199E0,1.240950108E0,7.216626684E0
2.454335443E0,1.767000079E0,6.960000515E0,1.240950108E0,7.287239094E0
2.456296550E0,1.729050040E0,7.075050354E0,1.279950023E0,7.394878201E0
2.458257658E0,1.575000048E0,7.267050266E0,1.318050027E0,7.551681971E0
2.460218686E0,1.384050012E0,7.458000183E0,1.279950023E0,7.692570001E0
2.462179737E0,1.345050097E0,7.497000217E0,1.203000069E0,7.711120618E0
2.464140683E0,1.306950092E0,7.650000572E0,1.279950023E0,7.865678570E0
2.466101660E0,1.306950092E0,7.842000484E0,1.318050027E0,8.058681407E0
2.468062728E0,1.306950092E0,7.957050323E0,1.395000100E0,8.183446320E0
2.470023755E0,1.114950061E0,8.187000275E0,1.395000100E0,8.379505499E0
2.471984661E0,1.039050102E0,8.340000153E0,1.471050024E0,8.532245650E0
2.473945603E0,1.000050068E0,8.416950226E0,1.510050058E0,8.609611049E0
2.475905802E0,6.550500393E-1,8.722949982E0,1.510050058E0,8.876891242E0
2.477866218E0,5.020500422E-1,8.800050735E0,1.432950020E0,8.930077992E0
2.479827388E0,4.639500082E-1,8.914950371E0,1.318050027E0,9.023793304E0
2.481788351E0,4.639500082E-1,9.030000687E0,1.318050027E0,9.137473277E0
2.483749133E0,4.260000288E-1,9.183000565E0,1.279950023E0,9.281554151E0
2.485709968E0,3.870000243E-1,9.298050880E0,1.318050027E0,9.398977342E0
2.487671040E0,3.870000243E-1,9.412950516E0,1.318050027E0,9.512658004E0
2.489632043E0,3.870000243E-1,9.490050316E0,1.203000069E0,9.573820198E0
2.491592967E0,3.870000243E-1,9.565950394E0,1.165050030E0,9.644403430E0
2.493553905E0,3.490500152E-1,9.643050194E0,1.165050030E0,9.719444147E0
2.495515005E0,2.719500065E-1,9.757950783E0,1.126049995E0,9.826471843E0
2.497476057E0,2.719500065E-1,9.873000145E0,1.165050030E0,9.945221478E0
2.499436960E0,2.719500065E-1,9.988050461E0,1.165050030E0,1.005944583E1
2.501397906E0,3.109500110E-1,1.002600002E1,1.165050030E0,1.009825272E1
2.503359165E0,3.870000243E-1,1.014105034E1,1.126049995E0,1.021071298E1
2.505320346E0,3.870000243E-1,1.018005085E1,1.126049995E0,1.024944842E1
2.507281271E0,5.020500422E-1,1.025595093E1,1.126049995E0,1.032979052E1
2.509242271E0,5.410500169E-1,1.025595093E1,1.050000072E0,1.032374761E1
2.511204036E0,6.169500351E-1,1.025595093E1,1.011000037E0,1.032411148E1
2.513165577E0,7.699500322E-1,1.025595093E1,1.011000037E0,1.033438308E1
2.515126449E0,8.470500112E-1,1.025595093E1,1.050000072E0,1.034429907E1
2.517087511E0,9.240000248E-1,1.014105034E1,1.050000072E0,1.023704929E1
2.519048365E0,9.619500637E-1,1.006500053E1,1.050000072E0,1.016523900E1
2.521009280E0,1.114950061E0,9.988050461E0,1.050000072E0,1.010478925E1
2.522969844E0,1.153950095E0,9.949950218E0,1.011000037E0,1.006753352E1
2.524930511E0,1.192050099E0,9.873000145E0,9.349500537E-1,9.988555797E0
2.526891542E0,1.269000053E0,9.835050583E0,1.011000037E0,9.967983857E0
2.528852452E0,1.306950092E0,9.757950783E0,1.050000072E0,9.900920269E0
2.530813738E0,1.306950092E0,9.720000267E0,9.349500537E-1,9.851936629E0
2.532774914E0,1.384050012E0,9.681000710E0,9.730500579E-1,9.827725860E0
2.534735975E0,1.422000051E0,9.604950905E0,1.011000037E0,9.762135376E0
2.536697069E0,1.498950124E0,9.565950394E0,1.011000037E0,9.735316096E0
2.538658117E0,1.537050128E0,9.490050316E0,1.011000037E0,9.666731566E0
2.540619165E0,1.537050128E0,9.451050758E0,9.730500579E-1,9.624536869E0
2.542579887E0,1.575000048E0,9.412950516E0,8.959500194E-1,9.585770131E0
2.544540704E0,1.575000048E0,9.336000443E0,8.580000401E-1,9.506718334E0
2.546501510E0,1.614000082E0,9.412950516E0,8.959500194E-1,9.592255215E0
2.548462319E0,1.614000082E0,9.336000443E0,8.580000401E-1,9.513257307E0
2.550423205E0,1.575000048E0,9.412950516E0,8.580000401E-1,9.582297565E0
2.552384076E0,1.575000048E0,9.412950516E0,8.959500194E-1,9.585770131E0
2.554345054E0,1.498950124E0,9.336000443E0,9.349500537E-1,9.501678133E0
2.556306000E0,1.459950089E0,9.336000443E0,9.349500537E-1,9.495603726E0
2.558267054E0,1.459950089E0,9.298050880E0,9.349500537E-1,9.458294563E0
2.560228076E0,1.422000051E0,9.259950638E0,1.011000037E0,9.422891862E0
2.562189199E0,1.384050012E0,9.259950638E0,1.087950110E0,9.425811142E0
2.564150298E0,1.306950092E0,9.259950638E0,1.165050030E0,9.424019627E0
2.566111552E0,1.345050097E0,9.336000443E0,1.165050030E0,9.504073106E0
2.568072760E0,1.306950092E0,9.375000000E0,1.203000069E0,9.541800287E0
2.570033816E0,1.345050097E0,9.375000000E0,1.126049995E0,9.537702729E0
2.571994916E0,1.345050097E0,9.412950516E0,1.050000072E0,9.566362805E0
2.573955818E0,1.306950092E0,9.412950516E0,9.730500579E-1,9.552935799E0
2.575916771E0,1.345050097E0,9.412950516E0,1.011000037E0,9.562160752E0
2.577877823E0,1.306950092E0,9.412950516E0,9.730500579E-1,9.552935799E0
2.579838846E0,1.306950092E0,9.336000443E0,1.050000072E0,9.485331990E0
2.581799753E0,1.306950092E0,9.298050880E0,1.011000037E0,9.443727537E0
2.583760694E0,1.306950092E0,9.220950127E0,1.126049995E0,9.380939632E0
2.585721673E0,1.306950092E0,9.183000565E0,1.126049995E0,9.343639896E0
2.587682630E0,1.230000019E0,9.067950249E0,1.165050030E0,9.224855735E0
2.589643863E0,1.230000019E0,9.030000687E0,1.165050030E0,9.187554300E0
2.591605015E0,1.192050099E0,8.953050613E0,1.165050030E0,9.106889716E0
2.593565764E0,1.153950095E0,8.877000809E0,1.126049995E0,9.022235464E0
2.595526632E0,1.000050068E0,8.877000809E0,1.165050030E0,9.008805973E0
2.597487879E0,1.000050068E0,8.877000809E0,1.203000069E0,9.013792357E0
2.599449015E0,9.619500637E-1,8.953050613E0,1.279950023E0,9.095094022E0
2.601409903E0,8.470500112E-1,8.914950371E0,1.279950023E0,9.046109987E0
2.603370863E0,6.940500140E-1,8.991000175E0,1.203000069E0,9.097636987E0
2.605332004E0,7.320000529E-1,8.991000175E0,1.240950108E0,9.105705102E0
2.607293092E0,8.470500112E-1,9.030000687E0,1.240950108E0,9.154144596E0
2.609253797E0,8.850000501E-1,9.030000687E0,1.165050030E0,9.147758144E0
2.611214622E0,8.850000501E-1,9.030000687E0,1.126049995E0,9.142872967E0
2.613175516E0,6.940500140E-1,8.953050613E0,1.087950110E0,9.045576607E0
2.615136389E0,6.940500140E-1,8.991000175E0,1.011000037E0,9.074244357E0
2.617097366E0,6.550500393E-1,8.914950371E0,9.730500579E-1,8.991788314E0
2.619058312E0,5.790000558E-1,8.914950371E0,9.730500579E-1,8.986568177E0
2.621018452E0,5.790000558E-1,8.914950371E0,9.730500579E-1,8.986568177E0
2.622978838E0,5.020500422E-1,8.953050613E0,9.349500537E-1,9.015725214E0
2.624940032E0,5.020500422E-1,8.953050613E0,9.730500579E-1,9.019755870E0
2.626900990E0,5.020500422E-1,9.030000687E0,9.730500579E-1,9.096141658E0
2.628861952E0,4.639500082E-1,9.067950249E0,9.349500537E-1,9.127820272E0
2.630822913E0,3.870000243E-1,9.106050491E0,8.580000401E-1,9.154566546E0
2.632783951E0,4.260000288E-1,9.183000565E0,8.959500194E-1,9.236433393E0
2.634744976E0,4.260000288E-1,9.145050049E0,8.580000401E-1,9.195084583E0
2.636705883E0,4.260000288E-1,9.220950127E0,8.200500607E-1,9.267139762E0
2.638666824E0,3.490500152E-1,9.298050880E0,8.200500607E-1,9.340667438E0
2.640627744E0,2.719500065E-1,9.375000000E0,7.050000429E-1,9.405403068E0
2.642588670E0,3.490500152E-1,9.375000000E0,7.429500222E-1,9.410867954E0
2.644549466E0,3.490500152E-1,9.336000443E0,6.660000086E-1,9.366231696E0
2.646510262E0,3.109500110E-1,9.375000000E0,5.509500504E-1,9.396321667E0
2.648471251E0,2.719500065E-1,9.490050316E0,5.509500504E-1,9.509918915E0
2.650432183E0,2.340000123E-1,9.451050758E0,5.509500504E-1,9.469987455E0
2.652393106E0,3.109500110E-1,9.375000000E0,4.750500321E-1,9.392176928E0
2.654354031E0,3.109500110E-1,9.451050758E0,4.360500276E-1,9.466213075E0
2.656314723E0,2.719500065E-1,9.451050758E0,5.509500504E-1,9.471001172E0
2.658275487E0,2.340000123E-1,9.412950516E0,4.750500321E-1,9.427834637E0
2.660236437E0,2.719500065E-1,9.412950516E0,4.360500276E-1,9.426968433E0
2.662197332E0,1.960500032E-1,9.490050316E0,4.360500276E-1,9.502085573E0
2.664158080E0,1.960500032E-1,9.375000000E0,5.130000114E-1,9.391071803E0
2.666118872E0,1.570500135E-1,9.375000000E0,5.899500251E-1,9.394856611E0
2.668079835E0,1.189500093E-1,9.336000443E0,5.130000114E-1,9.350840731E0
2.670040735E0,4.200000316E-2,9.298050880E0,4.750500321E-1,9.310273181E0
2.672002203E0,-1.099500060E-1,9.336000443E0,3.979500234E-1,9.345124798E0
2.673963504E0,-2.250000089E-1,9.298050880E0,3.220500052E-1,9.306346833E0
2.675924408E0,-2.250000089E-1,9.336000443E0,2.449500114E-1,9.341923237E0
2.677885429E0,-2.250000089E-1,9.375000000E0,1.300500035E-1,9.378601335E0
2.679846460E0,-3.019500077E-1,9.375000000E0,2.070000172E-1,9.382145161E0
2.681807495E0,-3.400500119E-1,9.412950516E0,1.680000126E-1,9.420588911E0
2.683768400E0,-3.400500119E-1,9.375000000E0,1.300500035E-1,9.382066511E0
2.685729344E0,-3.400500119E-1,9.375000000E0,1.300500035E-1,9.382066511E0
2.687690442E0,-4.549500346E-1,9.336000443E0,1.680000126E-1,9.348588546E0
2.689651495E0,-4.549500346E-1,9.220950127E0,1.300500035E-1,9.233082572E0
2.691612595E0,-5.320500135E-1,9.183000565E0,1.680000126E-1,9.199934814E0
2.693573668E0,-5.320500135E-1,9.067950249E0,1.680000126E-1,9.085098950E0
2.695534611E0,-6.079500318E-1,9.030000687E0,-2.205000073E-2,9.050469703E0
2.697495593E0,-7.230000496E-1,9.030000687E0,-6.105000153E-2,9.059104182E0
2.699456326E0,-7.620000243E-1,8.953050613E0,-2.205000073E-2,8.985446318E0
2.701417132E0,-7.620000243E-1,9.145050049E0,5.295000225E-2,9.176894253E0
2.703377861E0,-8.770500422E-1,9.336000443E0,-6.105000153E-2,9.377304951E0
2.705338636E0,-8.770500422E-1,9.565950394E0,-6.105000153E-2,9.606266226E0
2.707299359E0,-7.999500632E-1,9.604950905E0,-6.105000153E-2,9.638398679E0
2.709260098E0,-7.999500632E-1,9.681000710E0,-6.105000153E-2,9.714186633E0
2.711220916E0,-7.620000243E-1,9.604950905E0,-1.369500011E-1,9.636103010E0
2.713181711E0,-8.380500674E-1,9.565950394E0,-1.369500011E-1,9.603566533E0
2.715142472E0,-8.380500674E-1,9.451050758E0,-9.900000691E-2,9.488650555E0
2.717103247E0,-9.150000215E-1,9.451050758E0,-9.900000691E-2,9.495756235E0
2.719064149E0,-9.150000215E-1,9.375000000E0,-9.900000691E-2,9.420066403E0
2.721025014E0,-8.770500422E-1,9.336000443E0,-6.105000153E-2,9.377304951E0
2.722985813E0,-9.529500604E-1,9.298050880E0,-6.105000153E-2,9.346956248E0
2.724946631E0,-9.529500604E-1,9.298050880E0,-1.369500011E-1,9.347760122E0
2.726907507E0,-9.919500351E-1,9.220950127E0,-1.369500011E-1,9.275162608E0
2.728868380E0,-9.529500604E-1,9.183000565E0,-1.759500057E-1,9.233990015E0
2.730829177E0,-9.919500351E-1,9.183000565E0,-2.140500098E-1,9.238900457E0
2.732789997E0,-1.030050039E0,9.106050491E0,-2.140500098E-1,9.166622935E0
2.734750757E0,-9.919500351E-1,9.067950249E0,-2.520000041E-1,9.125524127E0
2.736711535E0,-1.144950032E0,8.991000175E0,-2.520000041E-1,9.067110826E0
2.738672482E0,-1.183050036E0,8.953050613E0,-1.759500057E-1,9.032589943E0
2.740633380E0,-1.068000078E0,8.991000175E0,-2.140500098E-1,9.056739244E0
2.742594128E0,-9.529500604E-1,8.991000175E0,-3.670500219E-1,9.048807860E0
2.744554920E0,-1.030050039E0,9.145050049E0,-2.520000041E-1,9.206326492E0
2.746515640E0,-1.030050039E0,9.106050491E0,-2.520000041E-1,9.167587613E0
2.748476382E0,-9.529500604E-1,9.145050049E0,-2.140500098E-1,9.197057770E0
2.750437214E0,-9.150000215E-1,9.183000565E0,-2.520000041E-1,9.231913583E0
2.752398009E0,-9.529500604E-1,9.220950127E0,-2.520000041E-1,9.273485809E0
2.754358550E0,-8.380500674E-1,9.220950127E0,-2.520000041E-1,9.262383773E0
2.756319165E0,-7.999500632E-1,9.259950638E0,-2.140500098E-1,9.296903965E0
2.758280004E0,-8.380500674E-1,9.336000443E0,-2.140500098E-1,9.375982593E0
2.760240778E0,-7.230000496E-1,9.336000443E0,-2.520000041E-1,9.367344199E0
2.762201727E0,-7.620000243E-1,9.412950516E0,-2.140500098E-1,9.446168475E0
2.764162624E0,-7.230000496E-1,9.451050758E0,-2.520000041E-1,9.482014212E0
2.766123373E0,-6.850500107E-1,9.412950516E0,-2.910000086E-1,9.442330853E0
2.768084165E0,-6.079500318E-1,9.451050758E0,-2.520000041E-1,9.473936229E0
2.770045064E0,-6.079500318E-1,9.490050316E0,-2.910000086E-1,9.513954974E0
2.772005932E0,-5.320500135E-1,9.565950394E0,-2.140500098E-1,9.583125876E0
2.773966681E0,-5.320500135E-1,9.528000832E0,-1.369500011E-1,9.543826925E0
2.775927468E0,-4.170000255E-1,9.528000832E0,-1.759500057E-1,9.538744533E0
2.777888413E0,-4.549500346E-1,9.528000832E0,-1.369500011E-1,9.539839343E0
2.779849312E0,-2.250000089E-1,9.336000443E0,-2.140500098E-1,9.341164096E0
2.781810284E0,-3.299999982E-2,9.183000565E0,-2.520000041E-1,9.186516879E0
2.783771235E0,-2.629500031E-1,9.490050316E0,1.300500035E-1,9.494583230E0
2.785732285E0,-3.400500119E-1,9.451050758E0,2.070000172E-1,9.459431455E0
2.787693308E0,-3.019500077E-1,9.490050316E0,2.070000172E-1,9.497108919E0
2.789654439E0,-1.480500102E-1,9.451050758E0,1.680000126E-1,9.453703150E0
2.791615539E0,-7.200000435E-2,9.412950516E0,5.295000225E-2,9.413374799E0
2.793576433E0,-7.200000435E-2,9.375000000E0,5.295000225E-2,9.375426001E0
2.795537387E0,4.050000105E-3,9.298050880E0,-2.205000073E-2,9.298077908E0
2.797498280E0,8.100000024E-2,9.259950638E0,1.500000060E-2,9.260317047E0
2.799459208E0,4.050000105E-3,9.259950638E0,9.195000678E-2,9.260408038E0
2.801419770E0,4.200000316E-2,9.183000565E0,1.680000126E-1,9.184633219E0
2.803380439E0,4.200000316E-2,9.220950127E0,2.449500114E-1,9.224298659E0
2.805340820E0,-3.299999982E-2,9.220950127E0,3.600000143E-1,9.228033932E0
2.807301285E0,-7.200000435E-2,9.183000565E0,4.360500276E-1,9.193629479E0
2.809262365E0,-1.099500060E-1,9.259950638E0,4.750500321E-1,9.272779915E0
2.811223240E0,-1.480500102E-1,9.259950638E0,4.750500321E-1,9.273309935E0
2.813184126E0,-1.870500147E-1,9.336000443E0,6.280500293E-1,9.358971034E0
2.815145009E0,-1.480500102E-1,9.336000443E0,7.050000429E-1,9.363751819E0
2.817105939E0,-2.250000089E-1,9.336000443E0,8.580000401E-1,9.378043151E0
2.819066855E0,-3.019500077E-1,9.451050758E0,8.959500194E-1,9.498224080E0
2.821027680E0,-3.019500077E-1,9.490050316E0,8.959500194E-1,9.537030735E0
2.822988507E0,-3.019500077E-1,9.565950394E0,8.959500194E-1,9.612559866E0
2.824949221E0,-3.780000210E-1,9.565950394E0,9.730500579E-1,9.622739598E0
2.826909968E0,-3.780000210E-1,9.681000710E0,8.959500194E-1,9.729716604E0
2.828870606E0,-4.170000255E-1,9.757950783E0,7.810500264E-1,9.798037132E0
2.830831276E0,-4.549500346E-1,9.796050072E0,8.580000401E-1,9.844071343E0
2.832792210E0,-4.549500346E-1,9.835050583E0,9.349500537E-1,9.889860014E0
2.834753057E0,-4.930500090E-1,9.910950661E0,9.349500537E-1,9.967154705E0
2.836713859E0,-4.549500346E-1,9.949950218E0,8.580000401E-1,9.997232264E0
2.838674675E0,-4.549500346E-1,9.988050461E0,8.580000401E-1,1.003515299E1
2.840635570E0,-4.549500346E-1,1.006500053E1,8.959500194E-1,1.011503543E1
2.842596442E0,-4.549500346E-1,1.006500053E1,8.200500607E-1,1.010859522E1
2.844557424E0,-4.549500346E-1,1.014105034E1,8.200500607E-1,1.018431950E1
2.846518370E0,-4.170000255E-1,1.014105034E1,7.429500222E-1,1.017677580E1
2.848479424E0,-4.170000255E-1,1.021800041E1,6.660000086E-1,1.024816947E1
2.850440447E0,-3.400500119E-1,1.025595093E1,6.280500293E-1,1.028078841E1
2.852401174E0,-3.019500077E-1,1.029495049E1,5.509500504E-1,1.031410322E1
2.854361987E0,-2.629500031E-1,1.029495049E1,5.509500504E-1,1.031303516E1
2.856322628E0,-2.250000089E-1,1.033305073E1,4.750500321E-1,1.034641169E1
2.858283309E0,-1.480500102E-1,1.033305073E1,4.750500321E-1,1.034502434E1
2.860243868E0,-1.099500060E-1,1.037100029E1,5.130000114E-1,1.038426237E1
2.862204463E0,-7.200000435E-2,1.025595093E1,4.750500321E-1,1.026719952E1
2.864164947E0,-7.200000435E-2,1.025595093E1,4.750500321E-1,1.026719952E1
2.866125463E0,4.050000105E-3,1.018005085E1,5.130000114E-1,1.019296918E1
2.868086239E0,-3.299999982E-2,1.018005085E1,4.360500276E-1,1.018943884E1
2.870046932E0,4.200000316E-2,1.021800041E1,5.130000114E-1,1.023095623E1
2.872007940E0,8.100000024E-2,1.014105034E1,5.130000114E-1,1.015434055E1
2.873968856E0,1.189500093E-1,1.006500053E1,5.130000114E-1,1.007876748E1
2.875929601E0,1.960500032E-1,1.002600002E1,4.360500276E-1,1.003739267E1
2.877890396E0,1.189500093E-1,9.988050461E0,4.750500321E-1,1.000004868E1
2.879851271E0,1.570500135E-1,9.949950218E0,4.750500321E-1,9.962522100E0
2.881812139E0,2.340000123E-1,9.949950218E0,4.750500321E-1,9.964032210E0
2.883772757E0,2.719500065E-1,9.949950218E0,4.360500276E-1,9.963212623E0
2.885733449E0,3.109500110E-1,9.873000145E0,3.979500234E-1,9.885908456E0
2.887695267E0,2.340000123E-1,9.873000145E0,3.600000143E-1,9.882332107E0
2.889656755E0,2.719500065E-1,9.835050583E0,2.449500114E-1,9.841858426E0
2.891617596E0,3.109500110E-1,9.835050583E0,1.680000126E-1,9.841398980E0
2.893578617E0,1.189500093E-1,9.949950218E0,2.070000172E-1,9.952814047E0
2.895539388E0,4.200000316E-2,9.949950218E0,2.830500007E-1,9.954064027E0
2.897500232E0,8.100000024E-2,9.988050461E0,2.830500007E-1,9.992388619E0
2.899461664E0,4.050000105E-3,1.002600002E1,1.680000126E-1,1.002740828E1
2.901422923E0,-1.099500060E-1,9.988050461E0,1.680000126E-1,9.990068319E0
2.903384199E0,-1.870500147E-1,1.002600002E1,5.295000225E-2,1.002788452E1
2.905345466E0,-2.629500031E-1,1.010295010E1,9.195000678E-2,1.010678971E1
2.907306331E0,-2.629500031E-1,1.014105034E1,1.680000126E-1,1.014584983E1
2.909267314E0,-2.629500031E-1,1.025595093E1,1.680000126E-1,1.026069667E1
2.911228227E0,-3.400500119E-1,1.025595093E1,1.680000126E-1,1.026296192E1
2.913189160E0,-3.400500119E-1,1.033305073E1,2.070000172E-1,1.034071663E1
2.915149901E0,-3.780000210E-1,1.037100029E1,2.070000172E-1,1.037995087E1
2.917110699E0,-4.170000255E-1,1.041000080E1,2.449500114E-1,1.042122863E1
2.919071823E0,-4.170000255E-1,1.052505016E1,2.070000172E-1,1.053534143E1
2.921032851E0,-4.549500346E-1,1.052505016E1,1.680000126E-1,1.053621775E1
2.922993757E0,-3.780000210E-1,1.060095024E1,2.070000172E-1,1.060970683E1
2.924954699E0,-4.170000255E-1,1.063995075E1,1.680000126E-1,1.064944435E1
2.926916158E0,-3.400500119E-1,1.071600056E1,1.680000126E-1,1.072271076E1
2.928877466E0,-3.400500119E-1,1.079295063E1,1.680000126E-1,1.079961302E1
2.930837783E0,-2.629500031E-1,1.079295063E1,3.220500052E-1,1.080095562E1
2.932798391E0,-1.480500102E-1,1.079295063E1,3.979500234E-1,1.080129929E1
2.934760043E0,-1.480500102E-1,1.090800095E1,4.360500276E-1,1.091771693E1
2.936721389E0,-1.480500102E-1,1.090800095E1,3.220500052E-1,1.091375827E1
2.938683006E0,-7.200000435E-2,1.094595051E1,3.220500052E-1,1.095092383E1
2.940644543E0,-7.200000435E-2,1.102305031E1,2.449500114E-1,1.102600665E1
2.942605677E0,4.200000316E-2,1.113795090E1,2.070000172E-1,1.113995346E1
2.944566930E0,8.100000024E-2,1.117605019E1,2.070000172E-1,1.117826050E1
2.946527976E0,1.570500135E-1,1.117605019E1,2.449500114E-1,1.117983734E1
2.948489083E0,1.960500032E-1,1.121400070E1,2.449500114E-1,1.121838883E1
2.950449585E0,1.960500032E-1,1.129095078E1,2.830500007E-1,1.129619946E1
2.952410285E0,2.340000123E-1,1.132905006E1,3.979500234E-1,1.133845208E1
2.954371786E0,3.109500110E-1,1.136805058E1,4.360500276E-1,1.138065918E1
2.956333053E0,2.340000123E-1,1.144395065E1,3.600000143E-1,1.145200256E1
2.958294322E0,2.340000123E-1,1.140600014E1,5.130000114E-1,1.141992838E1
2.960255591E0,2.719500065E-1,1.152105045E1,5.509500504E-1,1.153742200E1
2.962217083E0,2.719500065E-1,1.152105045E1,5.899500251E-1,1.153935013E1
2.964178543E0,2.340000123E-1,1.152105045E1,6.280500293E-1,1.154052886E1
2.966139736E0,2.719500065E-1,1.152105045E1,5.899500251E-1,1.153935013E1
2.968101007E0,8.100000024E-2,1.163595009E1,4.750500321E-1,1.164592495E1
2.970062095E0,1.189500093E-1,1.167405033E1,5.899500251E-1,1.168955265E1
2.972023237E0,1.189500093E-1,1.171305084E1,6.660000086E-1,1.173257283E1
2.973984447E0,1.189500093E-1,1.171305084E1,7.050000429E-1,1.173485126E1
2.975945630E0,8.100000024E-2,1.171305084E1,7.810500264E-1,1.173934241E1
2.977906869E0,4.050000105E-3,1.167405033E1,8.580000401E-1,1.170553850E1
2.979868091E0,-7.200000435E-2,1.163595009E1,7.429500222E-1,1.165986677E1
2.981829144E0,-1.480500102E-1,1.167405033E1,7.429500222E-1,1.169860439E1
2.983790247E0,-1.870500147E-1,1.159800053E1,7.810500264E-1,1.162577494E1
2.985751023E0,-2.250000089E-1,1.159800053E1,7.429500222E-1,1.162395010E1
2.987711882E0,-3.019500077E-1,1.163595009E1,8.580000401E-1,1.167144688E1
2.989672635E0,-3.780000210E-1,1.159800053E1,1.050000072E0,1.165156643E1
2.991633420E0,-4.170000255E-1,1.144395065E1,1.126049995E0,1.150677558E1
2.993594320E0,-4.170000255E-1,1.136805058E1,1.240950108E0,1.144318225E1
2.995555187E0,-4.549500346E-1,1.140600014E1,1.203000069E0,1.147828506E1
2.997515907E0,-6.079500318E-1,1.132905006E1,1.240950108E0,1.141301607E1
2.999476694E0,-5.700000525E-1,1.129095078E1,1.356000066E0,1.138636051E1
3.001437639E0,-5.320500135E-1,1.125300026E1,1.471050024E0,1.136120945E1
3.003398538E0,-5.320500135E-1,1.117605019E1,1.548000097E0,1.129528571E1
3.005359465E0,-5.700000525E-1,1.117605019E1,1.663050056E0,1.131347574E1
3.007320384E0,-6.079500318E-1,1.117605019E1,1.777950048E0,1.133290816E1
3.009281368E0,-6.469500065E-1,1.113795090E1,1.855050087E0,1.130989413E1
3.011242322E0,-6.850500107E-1,1.106100082E1,1.816050053E0,1.123000759E1
3.013203375E0,-7.999500632E-1,1.113795090E1,1.816050053E0,1.131335088E1
3.015164399E0,-7.620000243E-1,1.117605019E1,1.893000126E0,1.136081825E1
3.017125666E0,-7.230000496E-1,1.121400070E1,1.930950046E0,1.140197829E1
3.019086861E0,-6.469500065E-1,1.121400070E1,2.008050203E0,1.141072398E1
3.021047870E0,-6.850500107E-1,1.125300026E1,2.122950077E0,1.147197565E1
3.023008968E0,-5.320500135E-1,1.113795090E1,2.430000067E0,1.141235855E1
3.024969906E0,-6.079500318E-1,1.117605019E1,2.583000183E0,1.148675720E1
3.026930891E0,-4.549500346E-1,1.113795090E1,2.773950100E0,1.148719848E1
3.028892163E0,-4.549500346E-1,1.110000038E1,3.081000090E0,1.152864040E1
3.030853350E0,-5.700000525E-1,1.113795090E1,2.965950251E0,1.154017812E1
3.032814589E0,-5.320500135E-1,1.113795090E1,2.889000177E0,1.151882587E1
3.034775812E0,-4.549500346E-1,1.110000038E1,2.773950100E0,1.145040555E1
3.036736685E0,-1.480500102E-1,1.102305031E1,3.004050255E0,1.142601745E1
3.038697660E0,-1.099500060E-1,1.098495007E1,3.234000206E0,1.145163631E1
3.040658708E0,-3.299999982E-2,1.094595051E1,3.310950041E0,1.143579082E1
3.042619735E0,-3.299999982E-2,1.079295063E1,3.157950163E0,1.124551117E1
3.044580866E0,8.100000024E-2,1.075500011E1,3.081000090E0,1.118790195E1
3.046541966E0,4.260000288E-1,1.060095024E1,3.234000206E0,1.109145524E1
3.048503715E0,6.169500351E-1,1.052505016E1,3.273000240E0,1.103946733E1
3.050465273E0,7.699500322E-1,1.044795036E1,3.273000240E0,1.097565581E1
3.052426134E0,9.619500637E-1,1.033305073E1,3.349050045E0,1.090474307E1
3.054387199E0,1.039050102E0,1.018005085E1,3.234000206E0,1.073181335E1
3.056348291E0,1.192050099E0,1.006500053E1,3.234000206E0,1.063879582E1
3.058309365E0,1.384050012E0,1.002600002E1,3.234000206E0,1.062520721E1
3.060270398E0,1.537050128E0,9.910950661E0,3.310950041E0,1.056181122E1
3.062231444E0,1.537050128E0,9.720000267E0,3.234000206E0,1.035855616E1
3.064192391E0,1.345050097E0,9.720000267E0,3.196050167E0,1.031999523E1
3.066153367E0,1.729050040E0,9.490050316E0,3.157950163E0,1.015004031E1
3.068114305E0,2.380050182E0,9.336000443E0,3.234000206E0,1.016288839E1
3.070075238E0,2.419050217E0,9.259950638E0,3.118950129E0,1.006609853E1
3.072035979E0,2.380050182E0,9.220950127E0,3.004050255E0,9.985733726E0
3.073996776E0,2.917050123E0,9.067950249E0,3.043050051E0,9.999852836E0
3.075957720E0,2.839950085E0,8.877000809E0,3.004050255E0,9.792383662E0
3.077918620E0,3.108000040E0,8.761950493E0,3.157950163E0,9.818558444E0
3.079879701E0,3.300000191E0,8.647050858E0,3.426000118E0,9.869091478E0
3.081840716E0,3.300000191E0,8.493000031E0,3.655950069E0,9.817689223E0
3.083801669E0,3.492000103E0,8.377950668E0,3.655950069E0,9.785197649E0
3.085762641E0,3.300000191E0,8.302050591E0,3.426000118E0,9.568255958E0
3.087723510E0,3.568050146E0,8.110050201E0,3.196050167E0,9.419056895E0
3.089684410E0,3.453000069E0,8.032950401E0,3.234000206E0,9.322567187E0
3.091645521E0,3.645000219E0,7.918050289E0,3.196050167E0,9.284195369E0
3.093606567E0,3.682950258E0,7.803000450E0,3.196050167E0,9.201395291E0
3.095567830E0,3.837000132E0,7.650000572E0,3.273000240E0,9.162838498E0
3.097529029E0,3.913050175E0,7.573050499E0,3.196050167E0,9.103724084E0
3.099490265E0,3.952050209E0,7.458000183E0,3.118950129E0,8.998239688E0
3.101451490E0,3.990000248E0,7.342950344E0,3.043050051E0,8.893771717E0
3.103412746E0,4.066950321E0,7.267050266E0,2.889000177E0,8.814557647E0
3.105373976E0,4.066950321E0,7.228050232E0,2.812950134E0,8.757709948E0
3.107335387E0,4.105050087E0,7.113000393E0,2.659050226E0,8.632309014E0
3.109296745E0,3.990000248E0,7.113000393E0,2.583000183E0,8.554926447E0
3.111257775E0,4.066950321E0,7.036950111E0,2.430000067E0,8.483139284E0
3.113218901E0,3.990000248E0,7.036950111E0,2.353049994E0,8.424702554E0
3.115180044E0,4.027950287E0,7.036950111E0,2.238000154E0,8.411402682E0
3.117141161E0,3.913050175E0,7.075050354E0,2.008050203E0,8.330700139E0
3.119102410E0,3.837000132E0,7.152000427E0,1.855050087E0,8.325556495E0
3.121063620E0,3.837000132E0,7.189950466E0,1.777950048E0,8.341406601E0
3.123024811E0,3.760050297E0,7.267050266E0,1.816050053E0,8.381290808E0
3.124986007E0,3.645000219E0,7.342950344E0,1.701000094E0,8.372475600E0
3.126947316E0,3.568050146E0,7.458000183E0,1.740000129E0,8.448689190E0
3.128908572E0,3.415050268E0,7.573050499E0,1.701000094E0,8.479803271E0
3.130870114E0,3.337950230E0,7.765050411E0,1.624950051E0,8.606879940E0
3.132831572E0,3.184950113E0,7.879950523E0,1.624950051E0,8.653206928E0
3.134792450E0,3.070050240E0,7.995000362E0,1.548000097E0,8.702961770E0
3.136753498E0,2.955000162E0,8.032950401E0,1.548000097E0,8.698081536E0
3.138714572E0,2.764050245E0,8.224950790E0,1.471050024E0,8.800782774E0
3.140675612E0,2.725050211E0,8.377950668E0,1.471050024E0,8.931961947E0
3.142636515E0,2.572050095E0,8.569950104E0,1.471050024E0,9.067716065E0
3.144597459E0,2.494950056E0,8.800050735E0,1.510050058E0,9.270702234E0
3.146558198E0,2.419050217E0,8.953050613E0,1.510050058E0,9.396231714E0
3.148518997E0,2.341950178E0,9.220950127E0,1.510050058E0,9.632803489E0
3.150480042E0,2.304000139E0,9.336000443E0,1.471050024E0,9.727965310E0
3.152440975E0,2.227050066E0,9.490050316E0,1.471050024E0,9.858234891E0
3.154401672E0,2.149950027E0,9.604950905E0,1.432950020E0,9.946391947E0
3.156362439E0,1.996950150E0,9.796050072E0,1.356000066E0,1.008906057E1
3.158323207E0,1.920000076E0,9.910950661E0,1.165050030E0,1.016221850E1
3.160283975E0,1.843950033E0,1.006500053E1,1.087950110E0,1.029019062E1
3.162244920E0,1.690050125E0,1.018005085E1,7.050000429E-1,1.034343897E1
3.164205816E0,1.498950124E0,1.018005085E1,5.130000114E-1,1.030259461E1
3.166166789E0,1.459950089E0,1.025595093E1,4.750500321E-1,1.037022932E1
3.168127739E0,1.306950092E0,1.029495049E1,5.899500251E-1,1.039433332E1
3.170088614E0,1.306950092E0,1.037100029E1,7.810500264E-1,1.048216603E1
3.172049511E0,1.269000053E0,1.048605061E1,8.959500194E-1,1.060048795E1
3.174010248E0,1.114950061E0,1.060095024E1,8.959500194E-1,1.069700828E1
3.175971039E0,1.077000022E0,1.060095024E1,8.959500194E-1,1.069311935E1
3.177931805E0,9.619500637E-1,1.067805004E1,8.959500194E-1,1.075866288E1
3.179892578E0,8.470500112E-1,1.071600056E1,8.200500607E-1,1.078066064E1
3.181853526E0,6.940500140E-1,1.079295063E1,5.899500251E-1,1.083132170E1
3.183814422E0,6.940500140E-1,1.075500011E1,5.509500504E-1,1.079144471E1
3.185774664E0,6.550500393E-1,1.079295063E1,5.899500251E-1,1.082889260E1
3.187735073E0,5.020500422E-1,1.087005043E1,4.750500321E-1,1.089200271E1
3.189697165E0,2.340000123E-1,1.090800095E1,2.449500114E-1,1.091325988E1
3.191658764E0,1.189500093E-1,1.087005043E1,5.295000225E-2,1.087083020E1
3.193619437E0,3.109500110E-1,1.083105087E1,2.449500114E-1,1.083828185E1
3.195580381E0,8.100000024E-2,1.094595051E1,2.830500007E-1,1.094990917E1
3.197541101E0,8.100000024E-2,1.083105087E1,2.449500114E-1,1.083412315E1
3.199501900E0,1.189500093E-1,1.079295063E1,2.830500007E-1,1.079731678E1
3.201463880E0,4.200000316E-2,1.083105087E1,2.830500007E-1,1.083483015E1
3.203425514E0,-1.099500060E-1,1.083105087E1,1.680000126E-1,1.083291171E1
3.205386497E0,-1.870500147E-1,1.079295063E1,1.300500035E-1,1.079535474E1
3.207347670E0,-1.480500102E-1,1.083105087E1,1.300500035E-1,1.083284334E1
3.209308633E0,-3.400500119E-1,1.094595051E1,9.195000678E-2,1.095161729E1
3.211269631E0,-4.170000255E-1,1.098495007E1,9.195000678E-2,1.099324664E1
3.213231036E0,-5.320500135E-1,1.110000038E1,9.195000678E-2,1.111312470E1
3.215192321E0,-6.079500318E-1,1.117605019E1,1.300500035E-1,1.119332900E1
3.217153544E0,-7.230000496E-1,1.125300026E1,-2.205000073E-2,1.127622411E1
3.219114785E0,-7.620000243E-1,1.125300026E1,-9.900000691E-2,1.127920475E1
3.221075639E0,-7.999500632E-1,1.132905006E1,-9.900000691E-2,1.135768887E1
3.223036617E0,-9.150000215E-1,1.136805058E1,-1.759500057E-1,1.140617190E1
3.224997755E0,-9.150000215E-1,1.148295021E1,-1.759500057E-1,1.152069134E1
3.226958846E0,-9.150000215E-1,1.152105045E1,-1.369500011E-1,1.155813929E1
3.228919876E0,-8.770500422E-1,1.155900097E1,-1.369500011E-1,1.159303565E1
3.230880924E0,-8.380500674E-1,1.159800053E1,-1.369500011E-1,1.162904551E1
3.232842054E0,-7.999500632E-1,1.163595009E1,-2.140500098E-1,1.166537920E1
3.234803157E0,-7.999500632E-1,1.159800053E1,-2.520000041E-1,1.162828622E1
3.236764186E0,-7.620000243E-1,1.163595009E1,-2.520000041E-1,1.166359647E1
3.238725236E0,-7.230000496E-1,1.159800053E1,-2.140500098E-1,1.162248522E1
3.240686542E0,-7.230000496E-1,1.159800053E1,-2.910000086E-1,1.162415701E1
3.242647773E0,-6.850500107E-1,1.155900097E1,-2.910000086E-1,1.158293909E1
3.244608930E0,-5.700000525E-1,1.148295021E1,-2.140500098E-1,1.149908096E1
3.246570130E0,-5.320500135E-1,1.132905006E1,-2.520000041E-1,1.134433588E1
3.248531050E0,-3.400500119E-1,1.121400070E1,-2.140500098E-1,1.122119705E1
3.250492053E0,-2.250000089E-1,1.110000038E1,-2.140500098E-1,1.110434378E1
3.252453277E0,-2.250000089E-1,1.094595051E1,-2.910000086E-1,1.095212941E1
3.254414436E0,-1.480500102E-1,1.083105087E1,-2.910000086E-1,1.083597078E1
3.256375869E0,-1.480500102E-1,1.075500011E1,-3.289500177E-1,1.076104802E1
3.258337215E0,-1.870500147E-1,1.063995075E1,-6.739500165E-1,1.066291463E1
3.260297932E0,-1.480500102E-1,1.048605061E1,-7.510500550E-1,1.051395512E1
3.262258833E0,-1.480500102E-1,1.044795036E1,-9.040500522E-1,1.048803566E1
3.264219759E0,-1.099500060E-1,1.041000080E1,-8.269500136E-1,1.044337359E1
3.266180677E0,4.050000105E-3,1.029495049E1,-6.360000372E-1,1.031457793E1
3.268141601E0,1.189500093E-1,1.018005085E1,-5.209500194E-1,1.019406559E1
3.270102523E0,8.100000024E-2,1.006500053E1,-4.819500148E-1,1.007685827E1
3.272063627E0,2.340000123E-1,1.002600002E1,-4.060500264E-1,1.003694720E1
3.274024677E0,3.109500110E-1,9.873000145E0,-4.060500264E-1,9.886237828E0
3.275985759E0,3.870000243E-1,9.720000267E0,-4.440000355E-1,9.737828826E0
3.277946831E0,5.020500422E-1,9.681000710E0,-5.590500236E-1,9.710116679E0
3.279907875E0,5.410500169E-1,9.528000832E0,-6.360000372E-1,9.564519382E0
3.281868920E0,5.020500422E-1,9.490050316E0,-6.739500165E-1,9.527188351E0
3.283830181E0,5.020500422E-1,9.298050880E0,-7.510500550E-1,9.341834970E0
3.285791379E0,4.260000288E-1,9.220950127E0,-9.040500522E-1,9.274950337E0
3.287752301E0,4.260000288E-1,9.067950249E0,-8.659500480E-1,9.119159349E0
