"Time (s)","Acceleration x (m/s^2)","Acceleration y (m/s^2)","Acceleration z (m/s^2)","Absolute acceleration (m/s^2)"
3.386561200E-2,-6.850500107E-1,7.918050289E0,-1.287000060E0,8.051160354E0
3.582506700E-2,-6.079500318E-1,7.918050289E0,-1.249050021E0,8.038983118E0
3.778722800E-2,-6.469500065E-1,7.957050323E0,-1.249050021E0,8.080428214E0
3.974811900E-2,-6.079500318E-1,7.957050323E0,-1.287000060E0,8.083354641E0
4.170938200E-2,-5.700000525E-1,7.957050323E0,-1.326000094E0,8.086892244E0
4.367036800E-2,-6.079500318E-1,7.957050323E0,-1.363950014E0,8.095962743E0
4.563144500E-2,-6.079500318E-1,7.995000362E0,-1.363950014E0,8.133264638E0
4.759216100E-2,-6.469500065E-1,7.995000362E0,-1.441050053E0,8.149552157E0
4.955298300E-2,-6.469500065E-1,7.957050323E0,-1.441050053E0,8.112325155E0
5.151392200E-2,-6.469500065E-1,7.957050323E0,-1.632000089E0,8.148412020E0
5.347482700E-2,-6.850500107E-1,7.957050323E0,-1.594050050E0,8.144012459E0
5.543556400E-2,-6.469500065E-1,7.957050323E0,-1.594050050E0,8.140896125E0
5.739635800E-2,-7.230000496E-1,7.995000362E0,-1.671000123E0,8.199695194E0
5.935716700E-2,-7.230000496E-1,7.995000362E0,-1.671000123E0,8.199695194E0
6.131797100E-2,-7.230000496E-1,8.032950401E0,-1.824000120E0,8.269098963E0
6.327905000E-2,-7.620000243E-1,8.032950401E0,-1.861950040E0,8.281050304E0
6.524004800E-2,-7.999500632E-1,7.995000362E0,-2.014950037E0,8.283717435E0
6.720095900E-2,-7.999500632E-1,8.032950401E0,-1.977000117E0,8.311241888E0
6.916189600E-2,-8.380500674E-1,8.032950401E0,-2.092050076E0,8.343098560E0
7.112286100E-2,-8.770500422E-1,8.071949959E0,-2.169000149E0,8.404174829E0
7.308381700E-2,-8.380500674E-1,8.032950401E0,-2.206950188E0,8.372648876E0
7.504473500E-2,-8.770500422E-1,8.032950401E0,-2.245050192E0,8.386760953E0
7.700566500E-2,-9.150000215E-1,8.032950401E0,-2.322000027E0,8.411729983E0
7.896639200E-2,-9.529500604E-1,8.032950401E0,-2.398950100E0,8.437497707E0
8.092718900E-2,-9.529500604E-1,8.032950401E0,-2.437050104E0,8.448409269E0
8.288813300E-2,-1.030050039E0,8.071949959E0,-2.437050104E0,8.494503660E0
8.484903300E-2,-9.919500351E-1,8.110050201E0,-2.514000177E0,8.548513089E0
8.680960100E-2,-1.068000078E0,8.187000275E0,-2.475000143E0,8.619351679E0
8.877026600E-2,-1.144950032E0,8.224950790E0,-2.514000177E0,8.676457974E0
9.073088300E-2,-1.260000110E0,8.263050079E0,-2.551950216E0,8.739453461E0
9.269150700E-2,-1.260000110E0,8.302050591E0,-2.590050220E0,8.787491362E0
9.465225500E-2,-1.297950029E0,8.377950668E0,-2.551950216E0,8.853653573E0
9.661296600E-2,-1.297950029E0,8.416950226E0,-2.629050016E0,8.913003387E0
9.857392500E-2,-1.413000107E0,8.532000542E0,-2.704950094E0,9.061366208E0
1.005348120E-1,-1.452000022E0,8.569950104E0,-2.704950094E0,9.103246885E0
1.024957400E-1,-1.489950061E0,8.647050858E0,-2.629050016E0,9.159876839E0
1.044566570E-1,-1.528050065E0,8.722949982E0,-2.590050220E0,9.226762895E0
1.064174470E-1,-1.605000019E0,8.800050735E0,-2.514000177E0,9.291776735E0
1.083782750E-1,-1.605000019E0,8.914950371E0,-2.475000143E0,9.390313673E0
1.103390340E-1,-1.681950092E0,9.030000687E0,-2.359950066E0,9.483629728E0
1.122998130E-1,-1.758000135E0,9.259950638E0,-2.322000027E0,9.707158926E0
1.142610560E-1,-1.758000135E0,9.259950638E0,-2.245050192E0,9.689040234E0
1.162221770E-1,-1.795950055E0,9.412950516E0,-2.206950188E0,9.833600721E0
1.181830670E-1,-1.834950089E0,9.528000832E0,-2.169000149E0,9.942555171E0
1.201440250E-1,-1.834950089E0,9.720000267E0,-2.169000149E0,1.012669782E1
1.221048070E-1,-1.950000048E0,9.796050072E0,-2.130000114E0,1.021283495E1
1.240656410E-1,-1.950000048E0,9.949950218E0,-2.130000114E0,1.036054584E1
1.260269330E-1,-1.911000133E0,1.006500053E1,-2.053950071E0,1.044867782E1
1.279880950E-1,-1.987950087E0,1.021800041E1,-1.977000117E0,1.059565984E1
1.299489330E-1,-1.987950087E0,1.033305073E1,-2.014950037E0,1.071372515E1
1.319098660E-1,-1.987950087E0,1.044795036E1,-1.977000117E0,1.081758484E1
1.338707870E-1,-1.987950087E0,1.048605061E1,-1.861950040E0,1.083402330E1
1.358317120E-1,-1.987950087E0,1.056300068E1,-1.900950074E0,1.091524347E1
1.377926690E-1,-1.987950087E0,1.060095024E1,-1.824000120E0,1.093887874E1
1.397536240E-1,-1.911000133E0,1.067805004E1,-1.747050047E0,1.098748643E1
1.417147210E-1,-1.873050094E0,1.063995075E1,-1.786050081E0,1.095019833E1
1.436757770E-1,-1.911000133E0,1.071600056E1,-1.747050047E0,1.102437179E1
1.456366790E-1,-1.795950055E0,1.075500011E1,-1.747050047E0,1.104299090E1
1.475976260E-1,-1.758000135E0,1.071600056E1,-1.708950043E0,1.099289510E1
1.495585550E-1,-1.681950092E0,1.071600056E1,-1.632000089E0,1.096927748E1
1.515194820E-1,-1.605000019E0,1.075500011E1,-1.671000123E0,1.100174050E1
1.534807180E-1,-1.528050065E0,1.075500011E1,-1.747050047E0,1.100259734E1
1.554418640E-1,-1.452000022E0,1.079295063E1,-1.708950043E0,1.102345670E1
1.574027950E-1,-1.375050068E0,1.079295063E1,-1.786050081E0,1.102581158E1
1.593637890E-1,-1.336950064E0,1.079295063E1,-1.786050081E0,1.102112488E1
1.613245400E-1,-1.260000110E0,1.079295063E1,-1.824000120E0,1.101827391E1
1.632853480E-1,-1.144950032E0,1.079295063E1,-1.861950040E0,1.101206392E1
1.652464250E-1,-1.068000078E0,1.079295063E1,-1.939050078E0,1.101763689E1
1.672074230E-1,-1.030050039E0,1.075500011E1,-1.977000117E0,1.098360414E1
1.691683340E-1,-9.529500604E-1,1.075500011E1,-2.092050076E0,1.099794594E1
1.711292710E-1,-9.150000215E-1,1.071600056E1,-2.130000114E0,1.096388587E1
1.730900850E-1,-8.380500674E-1,1.067805004E1,-2.092050076E0,1.091328338E1
1.750509150E-1,-7.999500632E-1,1.067805004E1,-2.130000114E0,1.091776412E1
1.770118530E-1,-7.620000243E-1,1.063995075E1,-2.092050076E0,1.087041258E1
1.789727600E-1,-6.850500107E-1,1.060095024E1,-2.130000114E0,1.083449768E1
1.809336420E-1,-6.469500065E-1,1.060095024E1,-2.206950188E0,1.084754901E1
1.828945310E-1,-5.700000525E-1,1.056300068E1,-2.092050076E0,1.078325354E1
1.848551450E-1,-5.320500135E-1,1.056300068E1,-2.130000114E0,1.078874233E1
1.868158390E-1,-4.930500090E-1,1.060095024E1,-2.169000149E0,1.083179606E1
1.887766200E-1,-4.549500346E-1,1.060095024E1,-2.130000114E0,1.082238541E1
1.907373750E-1,-4.930500090E-1,1.060095024E1,-2.169000149E0,1.083179606E1
1.926984620E-1,-4.549500346E-1,1.063995075E1,-2.130000114E0,1.086059078E1
1.946594520E-1,-4.930500090E-1,1.071600056E1,-2.053950071E0,1.092220111E1
1.966202080E-1,-4.170000255E-1,1.071600056E1,-1.939050078E0,1.089800313E1
1.985810160E-1,-3.780000210E-1,1.075500011E1,-1.977000117E0,1.094172934E1
2.005418240E-1,-4.170000255E-1,1.087005043E1,-1.824000120E0,1.102990761E1
2.025026320E-1,-4.549500346E-1,1.094595051E1,-1.786050081E0,1.110003545E1
2.044635740E-1,-4.549500346E-1,1.106100082E1,-1.594050050E0,1.118453013E1
2.064244760E-1,-4.549500346E-1,1.117605019E1,-1.594050050E0,1.129832168E1
2.083852470E-1,-4.549500346E-1,1.125300026E1,-1.516950130E0,1.136389599E1
2.103460400E-1,-5.700000525E-1,1.144395065E1,-1.479000092E0,1.155319644E1
2.123069400E-1,-6.079500318E-1,1.152105045E1,-1.555950046E0,1.164152857E1
2.142678080E-1,-6.469500065E-1,1.163595009E1,-1.594050050E0,1.176243488E1
2.162287410E-1,-6.079500318E-1,1.175100040E1,-1.594050050E0,1.187419931E1
2.181896540E-1,-7.230000496E-1,1.175100040E1,-1.555950046E0,1.187559346E1
2.201507920E-1,-6.850500107E-1,1.186605072E1,-1.632000089E0,1.199732793E1
2.221118410E-1,-7.230000496E-1,1.186605072E1,-1.516950130E0,1.198444936E1
2.240727430E-1,-6.850500107E-1,1.186605072E1,-1.441050053E0,1.197284755E1
2.260336890E-1,-7.230000496E-1,1.186605072E1,-1.363950014E0,1.196604565E1
2.279946520E-1,-7.230000496E-1,1.182795048E1,-1.363950014E0,1.192826480E1
2.299556100E-1,-1.030050039E0,1.167405033E1,-2.014950037E0,1.189136148E1
2.319166570E-1,-6.850500107E-1,1.155900097E1,-1.594050050E0,1.168848974E1
2.338776820E-1,-5.700000525E-1,1.155900097E1,-5.590500236E-1,1.158654135E1
2.358386340E-1,-6.469500065E-1,1.159800053E1,-3.670500219E-1,1.162182801E1
2.377996070E-1,-7.620000243E-1,1.144395065E1,-4.440000355E-1,1.147788250E1
2.397606560E-1,-7.620000243E-1,1.132905006E1,-5.590500236E-1,1.136840166E1
2.417216820E-1,-7.999500632E-1,1.117605019E1,-4.819500148E-1,1.121500306E1
2.436822380E-1,-7.230000496E-1,1.110000038E1,-4.440000355E-1,1.113237951E1
2.456429250E-1,-7.620000243E-1,1.094595051E1,-3.289500177E-1,1.097737148E1
2.476040680E-1,-7.999500632E-1,1.083105087E1,-2.140500098E-1,1.086266084E1
2.495650770E-1,-7.620000243E-1,1.071600056E1,-9.900000691E-2,1.074351493E1
2.515259860E-1,-7.620000243E-1,1.056300068E1,1.500000060E-2,1.059046044E1
2.534869250E-1,-7.230000496E-1,1.052505016E1,9.195000678E-2,1.055025425E1
2.554476650E-1,-7.999500632E-1,1.041000080E1,1.300500035E-1,1.044150132E1
2.574084630E-1,-7.230000496E-1,1.037100029E1,1.680000126E-1,1.039752856E1
2.593696320E-1,-7.230000496E-1,1.021800041E1,2.070000172E-1,1.024563861E1
2.613306920E-1,-6.850500107E-1,1.021800041E1,2.449500114E-1,1.024386775E1
2.632910520E-1,-6.469500065E-1,1.014105034E1,2.830500007E-1,1.016560690E1
2.652516170E-1,-6.079500318E-1,1.021800041E1,3.220500052E-1,1.024113528E1
2.672122690E-1,-5.700000525E-1,1.018005085E1,5.130000114E-1,1.020889340E1
2.691728750E-1,-6.079500318E-1,1.018005085E1,5.509500504E-1,1.021305951E1
2.711336720E-1,-5.700000525E-1,1.021800041E1,7.050000429E-1,1.025814104E1
2.730944130E-1,-4.170000255E-1,1.025595093E1,8.200500607E-1,1.029713070E1
2.750555030E-1,-4.170000255E-1,1.025595093E1,8.959500194E-1,1.030345306E1
2.770164900E-1,-3.780000210E-1,1.033305073E1,8.580000401E-1,1.037549929E1
2.789773930E-1,-2.629500031E-1,1.037100029E1,1.011000037E0,1.042347882E1
2.809383280E-1,-2.250000089E-1,1.041000080E1,9.349500537E-1,1.045432319E1
2.828991140E-1,-1.480500102E-1,1.048605061E1,1.011000037E0,1.053571531E1
2.848599440E-1,-3.299999982E-2,1.052505016E1,1.087950110E0,1.058118166E1
2.868208370E-1,8.100000024E-2,1.063995075E1,1.165050030E0,1.070385232E1
2.887817110E-1,1.960500032E-1,1.067805004E1,1.126049995E0,1.073904916E1
2.907427310E-1,2.719500065E-1,1.075500011E1,1.087950110E0,1.081330753E1
2.927036770E-1,3.109500110E-1,1.079295063E1,1.165050030E0,1.086010197E1
2.946651370E-1,5.020500422E-1,1.079295063E1,1.203000069E0,1.087138661E1
2.966264460E-1,6.169500351E-1,1.083105087E1,1.279950023E0,1.092385291E1
2.985873040E-1,7.699500322E-1,1.079295063E1,1.240950108E0,1.089130679E1
3.005482940E-1,8.850000501E-1,1.071600056E1,1.318050027E0,1.083296584E1
3.025091890E-1,1.077000022E0,1.071600056E1,1.395000100E0,1.085995498E1
3.044700920E-1,1.269000053E0,1.060095024E1,1.395000100E0,1.076738280E1
3.064310170E-1,1.345050097E0,1.056300068E1,1.432950020E0,1.074427703E1
3.083919360E-1,1.422000051E0,1.041000080E1,1.356000066E0,1.059381598E1
3.103525460E-1,1.498950124E0,1.029495049E1,1.318050027E0,1.048666357E1
3.123132460E-1,1.804950118E0,1.018005085E1,1.395000100E0,1.043251195E1
3.142743650E-1,1.996950150E0,1.002600002E1,1.395000100E0,1.031767957E1
3.162353450E-1,2.149950027E0,9.949950218E0,1.471050024E0,1.028531879E1
3.181966190E-1,2.227050066E0,9.835050583E0,1.471050024E0,1.019077819E1
3.201578060E-1,2.304000139E0,9.796050072E0,1.471050024E0,1.017029999E1
3.221187300E-1,2.304000139E0,9.757950783E0,1.548000097E0,1.014506404E1
3.240797310E-1,2.227050066E0,9.757950783E0,1.624950051E0,1.013991214E1
3.260407370E-1,2.149950027E0,9.681000710E0,1.701000094E0,1.006168282E1
3.280017680E-1,2.111999989E0,9.643050194E0,1.701000094E0,1.001710349E1
3.299626740E-1,1.996950150E0,9.604950905E0,1.663050056E0,9.950307898E0
3.319236160E-1,1.959000111E0,9.565950394E0,1.777950048E0,9.925028702E0
3.338845800E-1,1.959000111E0,9.412950516E0,1.777950048E0,9.777649269E0
3.358455370E-1,1.996950150E0,9.375000000E0,1.855050087E0,9.763178055E0
3.378064520E-1,1.882050037E0,9.259950638E0,1.893000126E0,9.637024833E0
3.397673820E-1,1.882050037E0,9.220950127E0,1.893000126E0,9.599556399E0
3.417284830E-1,1.920000076E0,9.220950127E0,1.855050087E0,9.599663138E0
3.436895330E-1,1.804950118E0,9.183000565E0,1.816050053E0,9.533277615E0
3.456507500E-1,1.729050040E0,9.145050049E0,1.816050053E0,9.482594172E0
3.476119180E-1,1.651950121E0,9.106050491E0,1.816050053E0,9.431178746E0
3.495728250E-1,1.614000082E0,9.145050049E0,1.740000129E0,9.447991168E0
3.515338230E-1,1.537050128E0,9.106050491E0,1.624950051E0,9.376734043E0
3.534950930E-1,1.459950089E0,9.145050049E0,1.548000097E0,9.389339645E0
3.554562830E-1,1.422000051E0,9.145050049E0,1.548000097E0,9.383513672E0
3.574174750E-1,1.422000051E0,9.106050491E0,1.548000097E0,9.345509296E0
3.593786670E-1,1.384050012E0,9.106050491E0,1.548000097E0,9.339810185E0
3.613399350E-1,1.345050097E0,9.106050491E0,1.548000097E0,9.334110542E0
3.633011910E-1,1.306950092E0,9.106050491E0,1.548000097E0,9.328696500E0
3.652623730E-1,1.345050097E0,9.106050491E0,1.510050058E0,9.327891857E0
3.672235770E-1,1.306950092E0,9.067950249E0,1.510050058E0,9.285262055E0
3.691848570E-1,1.306950092E0,9.067950249E0,1.548000097E0,9.291509272E0
3.711461140E-1,1.306950092E0,9.067950249E0,1.585950017E0,9.297907168E0
3.731071470E-1,1.269000053E0,9.106050491E0,1.585950017E0,9.329831410E0
3.750682560E-1,1.269000053E0,9.030000687E0,1.585950017E0,9.255620508E0
3.770295060E-1,1.192050099E0,9.030000687E0,1.585950017E0,9.245384432E0
3.789907150E-1,1.192050099E0,9.067950249E0,1.585950017E0,9.282453480E0
3.809517700E-1,1.114950061E0,9.067950249E0,1.548000097E0,9.266452377E0
3.829128710E-1,8.850000501E-1,9.106050491E0,1.585950017E0,9.285398112E0
3.848741230E-1,7.699500322E-1,9.145050049E0,1.471050024E0,9.294554945E0
3.868353310E-1,7.699500322E-1,9.183000565E0,1.471050024E0,9.331897481E0
3.887967460E-1,7.320000529E-1,9.183000565E0,1.471050024E0,9.328842995E0
3.907581000E-1,5.790000558E-1,9.183000565E0,1.471050024E0,9.318086102E0
3.927189500E-1,6.550500393E-1,9.183000565E0,1.432950020E0,9.317184966E0
3.946799480E-1,6.550500393E-1,9.183000565E0,1.395000100E0,9.311423908E0
3.966404930E-1,5.020500422E-1,9.220950127E0,1.432950020E0,9.345122859E0
3.986011740E-1,5.410500169E-1,9.145050049E0,1.279950023E0,9.250024193E0
4.005623180E-1,4.639500082E-1,9.106050491E0,1.165050030E0,9.191993621E0
4.025233260E-1,4.260000288E-1,9.145050049E0,1.165050030E0,9.228800463E0
4.044844150E-1,3.870000243E-1,9.183000565E0,1.050000072E0,9.250933387E0
4.064454800E-1,3.870000243E-1,9.183000565E0,1.050000072E0,9.250933387E0
4.084067440E-1,4.260000288E-1,9.145050049E0,9.730500579E-1,9.206532617E0
4.103679460E-1,4.639500082E-1,9.067950249E0,9.349500537E-1,9.127820272E0
4.123291380E-1,4.639500082E-1,9.106050491E0,8.580000401E-1,9.158142237E0
4.142903330E-1,3.870000243E-1,9.067950249E0,8.200500607E-1,9.113175782E0
4.162523350E-1,5.410500169E-1,8.991000175E0,6.660000086E-1,9.031853369E0
4.182141000E-1,6.169500351E-1,8.953050613E0,6.280500293E-1,8.996231960E0
4.201750740E-1,6.940500140E-1,8.877000809E0,6.280500293E-1,8.926213958E0
4.221362700E-1,7.699500322E-1,8.838000298E0,5.899500251E-1,8.891069303E0
4.240973260E-1,8.089500666E-1,8.761950493E0,5.899500251E-1,8.818969196E0
4.260584240E-1,7.699500322E-1,8.838000298E0,5.509500504E-1,8.888566716E0
4.280203970E-1,8.850000501E-1,8.838000298E0,3.220500052E-1,8.888036372E0
4.299821140E-1,9.240000248E-1,8.800050735E0,2.449500114E-1,8.851817299E0
4.319427160E-1,1.039050102E0,8.761950493E0,2.070000172E-1,8.825771953E0
4.339036490E-1,1.039050102E0,8.800050735E0,1.680000126E-1,8.862772820E0
4.358642100E-1,9.240000248E-1,8.761950493E0,2.070000172E-1,8.812967803E0
4.378248800E-1,8.850000501E-1,8.914950371E0,3.220500052E-1,8.964556955E0
4.397870620E-1,9.240000248E-1,9.030000687E0,2.830500007E-1,9.081564059E0
4.417488010E-1,9.619500637E-1,9.106050491E0,2.070000172E-1,9.159058493E0
4.437099910E-1,9.240000248E-1,9.183000565E0,1.680000126E-1,9.230899166E0
4.456713420E-1,1.039050102E0,9.336000443E0,1.680000126E-1,9.395145203E0
4.476319660E-1,9.240000248E-1,9.451050758E0,2.830500007E-1,9.500329141E0
4.495928030E-1,1.000050068E0,9.451050758E0,3.220500052E-1,9.509267941E0
4.515546410E-1,1.000050068E0,9.412950516E0,3.220500052E-1,9.471401890E0
4.535161860E-1,9.240000248E-1,9.375000000E0,2.830500007E-1,9.424676034E0
4.554771840E-1,9.240000248E-1,9.375000000E0,3.979500234E-1,9.428826293E0
4.574383420E-1,8.850000501E-1,9.375000000E0,2.830500007E-1,9.420932406E0
4.593992700E-1,8.850000501E-1,9.375000000E0,3.220500052E-1,9.422184794E0
4.613602650E-1,7.699500322E-1,9.375000000E0,2.830500007E-1,9.410821715E0
4.633202300E-1,6.550500393E-1,9.451050758E0,3.979500234E-1,9.482078634E0
4.652804960E-1,5.790000558E-1,9.528000832E0,3.979500234E-1,9.553868595E0
4.672406850E-1,3.870000243E-1,9.643050194E0,4.360500276E-1,9.660658657E0
4.692008900E-1,2.719500065E-1,9.681000710E0,4.750500321E-1,9.696463483E0
4.711621160E-1,1.570500135E-1,9.757950783E0,5.130000114E-1,9.772688330E0
4.731230420E-1,1.189500093E-1,9.796050072E0,4.750500321E-1,9.808283165E0
4.750839660E-1,1.189500093E-1,9.835050583E0,4.360500276E-1,9.845430854E0
4.770448900E-1,8.100000024E-2,9.873000145E0,4.360500276E-1,9.882956667E0
4.790060980E-1,-3.299999982E-2,9.873000145E0,5.130000114E-1,9.886373950E0
4.809672440E-1,-1.480500102E-1,9.949950218E0,6.660000086E-1,9.973313600E0
4.829281750E-1,-1.099500060E-1,9.910950661E0,5.899500251E-1,9.929102328E0
4.848891690E-1,-1.870500147E-1,9.910950661E0,5.899500251E-1,9.930255371E0
4.868500800E-1,-2.629500031E-1,9.910950661E0,5.899500251E-1,9.931974967E0
4.888110150E-1,-3.780000210E-1,9.873000145E0,6.280500293E-1,9.900174883E0
4.907720510E-1,-3.400500119E-1,9.873000145E0,7.810500264E-1,9.909682387E0
4.927330710E-1,-4.170000255E-1,9.873000145E0,7.810500264E-1,9.912621249E0
4.946941580E-1,-3.780000210E-1,9.873000145E0,8.580000401E-1,9.917418008E0
4.966552250E-1,-3.780000210E-1,9.835050583E0,8.580000401E-1,9.879639065E0
4.986161690E-1,-3.019500077E-1,9.757950783E0,9.730500579E-1,9.810994022E0
5.005771500E-1,-3.400500119E-1,9.720000267E0,9.349500537E-1,9.770781484E0
5.025380630E-1,-3.019500077E-1,9.604950905E0,9.730500579E-1,9.658834407E0
5.044989960E-1,-3.019500077E-1,9.643050194E0,1.011000037E0,9.700603689E0
5.064604120E-1,-3.019500077E-1,9.565950394E0,9.730500579E-1,9.620052347E0
5.084216870E-1,-3.019500077E-1,9.604950905E0,9.349500537E-1,9.655070548E0
5.103824150E-1,-2.250000089E-1,9.565950394E0,9.349500537E-1,9.614164734E0
5.123433040E-1,-1.480500102E-1,9.565950394E0,8.200500607E-1,9.602177245E0
5.143045760E-1,-7.200000435E-2,9.604950905E0,7.429500222E-1,9.633910972E0
5.162657160E-1,-3.299999982E-2,9.528000832E0,8.200500607E-1,9.563282436E0
5.182264680E-1,-1.099500060E-1,9.412950516E0,7.810500264E-1,9.445939104E0
5.201873330E-1,4.050000105E-3,9.451050758E0,8.200500607E-1,9.486562019E0
5.221480400E-1,1.960500032E-1,9.451050758E0,7.050000429E-1,9.479336533E0
5.241087940E-1,1.960500032E-1,9.375000000E0,6.660000086E-1,9.400671073E0
5.260694310E-1,1.570500135E-1,9.298050880E0,5.130000114E-1,9.313516194E0
5.280301020E-1,3.109500110E-1,9.336000443E0,6.660000086E-1,9.364889224E0
5.299908870E-1,4.260000288E-1,9.183000565E0,6.280500293E-1,9.214305304E0
5.319516390E-1,4.639500082E-1,9.183000565E0,6.280500293E-1,9.216137793E0
5.339133130E-1,6.169500351E-1,9.067950249E0,5.899500251E-1,9.108039860E0
5.358747160E-1,6.550500393E-1,9.067950249E0,6.660000086E-1,9.115940340E0
5.378355330E-1,6.940500140E-1,8.991000175E0,6.280500293E-1,9.039592713E0
5.397965070E-1,6.940500140E-1,8.914950371E0,6.280500293E-1,8.963955175E0
5.417576010E-1,7.699500322E-1,8.914950371E0,5.899500251E-1,8.967564006E0
5.437186590E-1,8.470500112E-1,8.914950371E0,6.660000086E-1,8.979832395E0
5.456793800E-1,8.850000501E-1,8.877000809E0,6.280500293E-1,8.943087570E0
5.476401990E-1,8.850000501E-1,8.877000809E0,5.899500251E-1,8.940492687E0
5.496013450E-1,9.240000248E-1,8.877000809E0,5.899500251E-1,8.944437402E0
5.515624090E-1,1.039050102E0,8.914950371E0,6.660000086E-1,8.999973402E0
5.535233090E-1,1.039050102E0,8.914950371E0,7.429500222E-1,9.005994668E0
5.554842570E-1,1.000050068E0,8.877000809E0,7.050000429E-1,8.960930117E0
5.574449960E-1,1.153950095E0,8.877000809E0,8.200500607E-1,8.989172725E0
5.594057960E-1,1.153950095E0,8.877000809E0,8.580000401E-1,8.992714176E0
5.613665090E-1,1.153950095E0,8.838000298E0,8.959500194E-1,8.957933719E0
5.633272520E-1,1.192050099E0,8.722949982E0,9.730500579E-1,8.857633219E0
5.652883850E-1,1.269000053E0,8.722949982E0,1.011000037E0,8.872560994E0
5.672494040E-1,1.230000019E0,8.647050858E0,1.011000037E0,8.792412050E0
5.692104910E-1,1.269000053E0,8.608050346E0,1.011000037E0,8.759624020E0
5.711715580E-1,1.269000053E0,8.608050346E0,1.050000072E0,8.764210863E0
5.731325070E-1,1.306950092E0,8.569950104E0,1.087950110E0,8.737036040E0
5.750934880E-1,1.230000019E0,8.569950104E0,1.126049995E0,8.730689172E0
5.770542210E-1,1.306950092E0,8.608050346E0,1.165050030E0,8.784303665E0
5.790150260E-1,1.269000053E0,8.647050858E0,1.126049995E0,8.811914563E0
5.809759240E-1,1.269000053E0,8.685000420E0,1.165050030E0,8.854204368E0
5.829367940E-1,1.153950095E0,8.685000420E0,1.165050030E0,8.838448658E0
5.848975370E-1,1.153950095E0,8.877000809E0,1.240950108E0,9.037295024E0
5.868583240E-1,1.269000053E0,8.877000809E0,1.240950108E0,9.052704660E0
5.888191340E-1,1.269000053E0,8.991000175E0,1.240950108E0,9.164518670E0
5.907799370E-1,1.230000019E0,8.991000175E0,1.165050030E0,9.149225419E0
5.927407020E-1,1.192050099E0,9.106050491E0,1.126049995E0,9.252520067E0
5.947014780E-1,1.192050099E0,9.067950249E0,1.087950110E0,9.210447361E0
5.966622270E-1,1.192050099E0,9.030000687E0,9.349500537E-1,9.156201584E0
5.986229970E-1,1.153950095E0,8.991000175E0,8.959500194E-1,9.108919333E0
6.005842610E-1,1.192050099E0,8.914950371E0,8.580000401E-1,9.035125213E0
6.025453800E-1,1.153950095E0,8.914950371E0,9.349500537E-1,9.037813482E0
6.045061350E-1,1.230000019E0,8.953050613E0,1.050000072E0,9.097940178E0
6.064669970E-1,1.192050099E0,9.030000687E0,1.240950108E0,9.192488945E0
6.084276950E-1,1.230000019E0,9.106050491E0,1.279950023E0,9.277463428E0
6.103884490E-1,1.230000019E0,9.220950127E0,1.203000069E0,9.380086911E0
6.123494000E-1,1.192050099E0,9.298050880E0,1.203000069E0,9.451028663E0
6.143102930E-1,1.039050102E0,9.375000000E0,1.126049995E0,9.499380964E0
6.162710880E-1,1.000050068E0,9.375000000E0,1.126049995E0,9.495194244E0
6.182319110E-1,1.077000022E0,9.412950516E0,1.050000072E0,9.532369412E0
6.201928500E-1,1.114950061E0,9.375000000E0,1.087950110E0,9.503545343E0
6.221537550E-1,1.153950095E0,9.336000443E0,1.126049995E0,9.474201480E0
6.241145020E-1,1.114950061E0,9.336000443E0,1.240950108E0,9.483879748E0
6.260752950E-1,1.077000022E0,9.336000443E0,1.203000069E0,9.474599858E0
6.280356540E-1,1.039050102E0,9.336000443E0,1.165050030E0,9.465615191E0
6.299961410E-1,1.039050102E0,9.412950516E0,1.087950110E0,9.532413019E0
6.319566370E-1,8.470500112E-1,9.375000000E0,1.050000072E0,9.471568976E0
6.339171340E-1,7.320000529E-1,9.375000000E0,1.050000072E0,9.461973855E0
6.358770050E-1,5.790000558E-1,9.375000000E0,1.126049995E0,9.460119167E0
6.378370590E-1,5.410500169E-1,9.490050316E0,1.203000069E0,9.581283801E0
6.397986710E-1,6.550500393E-1,9.490050316E0,1.126049995E0,9.579046620E0
6.417598270E-1,7.320000529E-1,9.565950394E0,1.087950110E0,9.655406074E0
6.437197770E-1,6.550500393E-1,9.643050194E0,1.050000072E0,9.722140080E0
6.456801030E-1,5.410500169E-1,9.681000710E0,1.087950110E0,9.756953690E0
6.476409930E-1,4.639500082E-1,9.643050194E0,9.730500579E-1,9.703117698E0
6.496017170E-1,4.260000288E-1,9.643050194E0,9.730500579E-1,9.701377195E0
6.515626740E-1,2.340000123E-1,9.604950905E0,8.959500194E-1,9.649485185E0
6.535235630E-1,1.960500032E-1,9.604950905E0,8.200500607E-1,9.641887761E0
6.554841370E-1,1.189500093E-1,9.528000832E0,7.810500264E-1,9.560700189E0
6.574448000E-1,8.100000024E-2,9.490050316E0,7.050000429E-1,9.516545647E0
6.594055860E-1,-1.480500102E-1,9.451050758E0,7.050000429E-1,9.478465293E0
6.613663360E-1,-1.480500102E-1,9.490050316E0,6.280500293E-1,9.511961976E0
6.633274240E-1,-3.299999982E-2,9.528000832E0,6.660000086E-1,9.551305924E0
6.652884130E-1,-3.299999982E-2,9.528000832E0,5.899500251E-1,9.546304514E0
6.672491270E-1,-1.480500102E-1,9.528000832E0,4.750500321E-1,9.540984812E0
6.692099350E-1,-2.629500031E-1,9.565950394E0,5.130000114E-1,9.583304161E0
6.711706970E-1,-3.400500119E-1,9.604950905E0,5.130000114E-1,9.624649859E0
6.731314730E-1,-3.780000210E-1,9.643050194E0,5.509500504E-1,9.666170235E0
6.750922850E-1,-4.170000255E-1,9.604950905E0,4.750500321E-1,9.625728203E0
6.770530860E-1,-4.170000255E-1,9.604950905E0,5.130000114E-1,9.627675728E0
6.790143510E-1,-4.549500346E-1,9.604950905E0,5.130000114E-1,9.629394084E0
6.809754760E-1,-4.549500346E-1,9.604950905E0,4.360500276E-1,9.625601334E0
6.829363650E-1,-4.549500346E-1,9.565950394E0,5.130000114E-1,9.590492974E0
6.848973240E-1,-5.320500135E-1,9.604950905E0,5.509500504E-1,9.635440055E0
6.868581060E-1,-4.930500090E-1,9.604950905E0,5.509500504E-1,9.633365256E0
6.888189400E-1,-5.320500135E-1,9.643050194E0,5.899500251E-1,9.675718851E0
6.907796720E-1,-5.320500135E-1,9.643050194E0,5.899500251E-1,9.675718851E0
6.927404200E-1,-6.079500318E-1,9.643050194E0,5.899500251E-1,9.680189116E0
6.947011920E-1,-5.320500135E-1,9.681000710E0,6.280500293E-1,9.715930156E0
6.966619570E-1,-4.549500346E-1,9.643050194E0,5.899500251E-1,9.671785647E0
6.986227720E-1,-4.930500090E-1,9.720000267E0,5.899500251E-1,9.750361251E0
7.005835720E-1,-5.700000525E-1,9.757950783E0,6.280500293E-1,9.794740955E0
7.025444710E-1,-4.930500090E-1,9.757950783E0,5.899500251E-1,9.788194053E0
7.045053410E-1,-6.850500107E-1,9.796050072E0,6.280500293E-1,9.840037468E0
7.064663180E-1,-7.230000496E-1,9.720000267E0,5.130000114E-1,9.760343399E0
7.084272640E-1,-6.079500318E-1,9.720000267E0,5.509500504E-1,9.754565823E0
7.103881400E-1,-3.019500077E-1,9.720000267E0,5.130000114E-1,9.738210719E0
7.123490360E-1,-3.780000210E-1,9.757950783E0,5.509500504E-1,9.780799224E0
7.143097730E-1,-4.549500346E-1,9.757950783E0,5.509500504E-1,9.784075274E0
7.162705640E-1,-4.930500090E-1,9.796050072E0,5.130000114E-1,9.821856461E0
7.182311490E-1,-5.320500135E-1,9.757950783E0,5.509500504E-1,9.787963356E0
7.201917950E-1,-4.549500346E-1,9.757950783E0,4.360500276E-1,9.778278102E0
7.221527640E-1,-4.170000255E-1,9.757950783E0,3.979500234E-1,9.774960702E0
7.241136390E-1,-4.170000255E-1,9.720000267E0,3.979500234E-1,9.737076483E0
7.260751560E-1,-4.930500090E-1,9.720000267E0,3.600000143E-1,9.739153121E0
7.280364850E-1,-6.469500065E-1,9.720000267E0,2.830500007E-1,9.745617826E0
7.299967990E-1,-4.930500090E-1,9.757950783E0,3.220500052E-1,9.775705499E0
7.319574100E-1,-1.480500102E-1,9.720000267E0,3.220500052E-1,9.726460826E0
7.339190610E-1,-1.099500060E-1,9.757950783E0,2.070000172E-1,9.760765415E0
7.358804080E-1,-1.870500147E-1,9.796050072E0,2.070000172E-1,9.800022129E0
7.378412640E-1,-2.629500031E-1,9.796050072E0,2.449500114E-1,9.802639452E0
7.398022610E-1,-2.250000089E-1,9.835050583E0,2.449500114E-1,9.840673020E0
7.417629910E-1,-1.870500147E-1,9.910950661E0,2.449500114E-1,9.915741587E0
7.437238000E-1,-1.870500147E-1,9.910950661E0,1.680000126E-1,9.914139131E0
7.456845620E-1,-1.870500147E-1,9.910950661E0,2.070000172E-1,9.914876687E0
7.476453380E-1,-4.930500090E-1,9.949950218E0,2.830500007E-1,9.966179055E0
7.496059360E-1,-1.480500102E-1,9.988050461E0,2.830500007E-1,9.993157065E0
7.515665790E-1,4.200000316E-2,1.006500053E1,2.070000172E-1,1.006721653E1
7.535275490E-1,-3.299999982E-2,1.014105034E1,2.449500114E-1,1.014406188E1
7.554884230E-1,-7.200000435E-2,1.014105034E1,2.449500114E-1,1.014426372E1
7.574492210E-1,-3.019500077E-1,1.014105034E1,2.830500007E-1,1.014949226E1
7.594100410E-1,-2.629500031E-1,1.029495049E1,2.070000172E-1,1.030038821E1
7.613709250E-1,4.200000316E-2,1.029495049E1,1.680000126E-1,1.029640682E1
7.633317980E-1,4.050000105E-3,1.037100029E1,1.680000126E-1,1.037236171E1
7.652927750E-1,-3.299999982E-2,1.044795036E1,1.680000126E-1,1.044935308E1
7.672537210E-1,-1.870500147E-1,1.044795036E1,2.449500114E-1,1.045249516E1
7.692137400E-1,-3.780000210E-1,1.044795036E1,2.449500114E-1,1.045765515E1
7.711740310E-1,-3.400500119E-1,1.048605061E1,3.220500052E-1,1.049650454E1
7.731359670E-1,-3.400500119E-1,1.048605061E1,2.449500114E-1,1.049442194E1
7.750974180E-1,-2.629500031E-1,1.052505016E1,2.449500114E-1,1.053118342E1
7.770578460E-1,-2.629500031E-1,1.052505016E1,1.680000126E-1,1.052967462E1
7.790185740E-1,-4.549500346E-1,1.060095024E1,1.300500035E-1,1.061150501E1
7.809790350E-1,-5.320500135E-1,1.060095024E1,2.449500114E-1,1.061711937E1
7.829395740E-1,-6.079500318E-1,1.060095024E1,2.830500007E-1,1.062214039E1
7.848994310E-1,-6.079500318E-1,1.067805004E1,3.220500052E-1,1.070019028E1
7.868594920E-1,-6.469500065E-1,1.071600056E1,3.220500052E-1,1.074034117E1
7.888212830E-1,-7.999500632E-1,1.067805004E1,2.830500007E-1,1.071171275E1
7.907825670E-1,-9.529500604E-1,1.067805004E1,2.449500114E-1,1.072328620E1
7.927427090E-1,-9.529500604E-1,1.071600056E1,2.070000172E-1,1.076028024E1
7.947031850E-1,-1.030050039E0,1.067805004E1,2.830500007E-1,1.073135001E1
7.966650990E-1,-1.222050071E0,1.067805004E1,1.680000126E-1,1.074906429E1
7.986265810E-1,-1.144950032E0,1.075500011E1,9.195000678E-2,1.081616350E1
8.005872740E-1,-1.144950032E0,1.079295063E1,9.195000678E-2,1.085390016E1
8.025481990E-1,-1.144950032E0,1.075500011E1,9.195000678E-2,1.081616350E1
8.045093010E-1,-1.260000110E0,1.079295063E1,9.195000678E-2,1.086663878E1
8.064703510E-1,-1.375050068E0,1.079295063E1,9.195000678E-2,1.088057907E1
8.084308470E-1,-1.528050065E0,1.079295063E1,1.680000126E-1,1.090187802E1
8.103915060E-1,-1.489950061E0,1.087005043E1,1.680000126E-1,1.097297460E1
8.123523380E-1,-1.489950061E0,1.087005043E1,1.300500035E-1,1.097245918E1
8.143131200E-1,-1.642950058E0,1.079295063E1,1.300500035E-1,1.091805757E1
8.162738430E-1,-1.681950092E0,1.079295063E1,1.300500035E-1,1.092399434E1
8.182345830E-1,-1.642950058E0,1.083105087E1,1.680000126E-1,1.095623895E1
8.201955420E-1,-1.567050099E0,1.090800095E1,1.680000126E-1,1.102126829E1
8.221564330E-1,-1.489950061E0,1.094595051E1,1.300500035E-1,1.104765571E1
8.241171820E-1,-1.413000107E0,1.094595051E1,1.680000126E-1,1.103805353E1
8.260779730E-1,-1.489950061E0,1.087005043E1,1.680000126E-1,1.097297460E1
8.280387820E-1,-1.528050065E0,1.079295063E1,1.680000126E-1,1.090187802E1
8.299995860E-1,-1.489950061E0,1.090800095E1,1.680000126E-1,1.101057037E1
8.319605350E-1,-1.605000019E0,1.075500011E1,1.300500035E-1,1.087487772E1
8.339214380E-1,-1.489950061E0,1.083105087E1,1.680000126E-1,1.093434215E1
8.358821400E-1,-1.297950029E0,1.079295063E1,1.300500035E-1,1.087149348E1
8.378429010E-1,-1.297950029E0,1.075500011E1,9.195000678E-2,1.083342774E1
8.398035370E-1,-1.144950032E0,1.075500011E1,5.295000225E-2,1.081590226E1
8.417642090E-1,-1.106999993E0,1.067805004E1,5.295000225E-2,1.073540895E1
8.437250080E-1,-9.150000215E-1,1.071600056E1,5.295000225E-2,1.075512421E1
8.456857590E-1,-8.380500674E-1,1.063995075E1,1.300500035E-1,1.067369631E1
8.476463520E-1,-7.999500632E-1,1.060095024E1,9.195000678E-2,1.063148724E1
8.496069920E-1,-7.230000496E-1,1.060095024E1,1.300500035E-1,1.062637229E1
8.515677380E-1,-6.469500065E-1,1.056300068E1,1.680000126E-1,1.058412735E1
8.535284520E-1,-5.320500135E-1,1.056300068E1,2.070000172E-1,1.057841716E1
8.554889310E-1,-4.549500346E-1,1.052505016E1,2.449500114E-1,1.053772561E1
8.574494690E-1,-4.170000255E-1,1.052505016E1,2.830500007E-1,1.053711001E1
8.594102770E-1,-3.400500119E-1,1.048605061E1,2.070000172E-1,1.049360473E1
8.613710050E-1,-1.870500147E-1,1.048605061E1,2.449500114E-1,1.049057889E1
8.633310160E-1,-7.200000435E-2,1.048605061E1,3.220500052E-1,1.049124194E1
8.652912380E-1,4.200000316E-2,1.044795036E1,3.220500052E-1,1.045299703E1
8.672517540E-1,4.200000316E-2,1.044795036E1,3.220500052E-1,1.045299703E1
8.692121730E-1,1.570500135E-1,1.048605061E1,3.220500052E-1,1.049217033E1
8.711728220E-1,2.340000123E-1,1.044795036E1,3.220500052E-1,1.045553150E1
8.731334040E-1,2.719500065E-1,1.044795036E1,3.979500234E-1,1.045906247E1
8.750940700E-1,3.490500152E-1,1.041000080E1,3.979500234E-1,1.042345033E1
8.770547110E-1,3.870000243E-1,1.048605061E1,5.899500251E-1,1.050976058E1
8.790152250E-1,4.260000288E-1,1.044795036E1,6.660000086E-1,1.047781937E1
8.809758140E-1,3.870000243E-1,1.041000080E1,7.429500222E-1,1.044365168E1
8.829366130E-1,3.870000243E-1,1.041000080E1,8.200500607E-1,1.044941950E1
8.848973510E-1,3.870000243E-1,1.037100029E1,8.959500194E-1,1.041682017E1
8.868581710E-1,3.109500110E-1,1.033305073E1,9.349500537E-1,1.037992095E1
8.888189660E-1,2.719500065E-1,1.033305073E1,1.050000072E0,1.038982167E1
8.907797370E-1,3.490500152E-1,1.025595093E1,1.126049995E0,1.032348555E1
8.927405120E-1,3.109500110E-1,1.025595093E1,1.203000069E0,1.033094519E1
8.947015950E-1,3.109500110E-1,1.025595093E1,1.240950108E0,1.033543306E1
8.966625870E-1,3.490500152E-1,1.021800041E1,1.240950108E0,1.029899633E1
8.986236780E-1,3.109500110E-1,1.018005085E1,1.318050027E0,1.026973131E1
9.005847400E-1,2.719500065E-1,1.014105034E1,1.395000100E0,1.024016035E1
9.025458440E-1,1.570500135E-1,1.002600002E1,1.432950020E0,1.012910099E1
9.045069180E-1,4.200000316E-2,1.002600002E1,1.471050024E0,1.013343124E1
9.064679960E-1,4.200000316E-2,1.006500053E1,1.510050058E0,1.017773309E1
9.084290720E-1,8.100000024E-2,1.002600002E1,1.510050058E0,1.013940278E1
9.103903750E-1,-3.299999982E-2,1.006500053E1,1.548000097E0,1.018339968E1
9.123516110E-1,-1.480500102E-1,1.002600002E1,1.548000097E0,1.014588092E1
9.143124610E-1,-1.870500147E-1,9.910950661E0,1.663050056E0,1.005125197E1
9.162734390E-1,-2.250000089E-1,9.873000145E0,1.663050056E0,1.001461394E1
9.182345320E-1,-3.400500119E-1,9.757950783E0,1.701000094E0,9.910935315E0
9.201955910E-1,-4.930500090E-1,9.412950516E0,1.585950017E0,9.558345734E0
9.221566270E-1,-4.170000255E-1,9.604950905E0,1.816050053E0,9.784018024E0
9.241176700E-1,-2.629500031E-1,9.604950905E0,2.046000004E0,9.823967661E0
9.260785860E-1,-3.019500077E-1,9.604950905E0,2.122950077E0,9.841400953E0
9.280395300E-1,-3.400500119E-1,9.565950394E0,2.238000154E0,9.830141690E0
9.300004930E-1,-3.400500119E-1,9.565950394E0,2.314950228E0,9.847945750E0
9.319614510E-1,-2.629500031E-1,9.451050758E0,2.467950106E0,9.771503511E0
9.339225030E-1,-2.629500031E-1,9.336000443E0,2.545050144E0,9.680254501E0
9.358835280E-1,-2.250000089E-1,9.220950127E0,2.620950222E0,9.588843846E0
9.378444710E-1,-1.870500147E-1,9.067950249E0,2.736000061E0,9.473563519E0
9.398054440E-1,-1.870500147E-1,8.914950371E0,2.773950100E0,9.338422082E0
9.417665380E-1,-1.099500060E-1,8.838000298E0,2.812950134E0,9.275506817E0
9.437275960E-1,-1.099500060E-1,8.800050735E0,2.773950100E0,9.227555533E0
9.456886320E-1,4.050000105E-3,8.685000420E0,2.736000061E0,9.105764384E0
9.476496750E-1,1.189500093E-1,8.685000420E0,2.736000061E0,9.106540382E0
9.496105810E-1,1.570500135E-1,8.685000420E0,2.773950100E0,9.118590689E0
9.515715250E-1,1.960500032E-1,8.685000420E0,2.812950134E0,9.131284485E0
9.535326240E-1,4.260000288E-1,8.608050346E0,2.773950100E0,9.053993922E0
9.554936770E-1,5.410500169E-1,8.608050346E0,2.773950100E0,9.060136039E0
9.574551180E-1,6.550500393E-1,8.532000542E0,2.812950134E0,9.007597474E0
9.594164460E-1,9.240000248E-1,8.532000542E0,2.851050138E0,9.043080016E0
9.613768150E-1,1.153950095E0,8.455050468E0,2.851050138E0,8.997108765E0
9.633374580E-1,1.306950092E0,8.493000031E0,2.928000212E0,9.078124988E0
9.652982480E-1,1.384050012E0,8.455050468E0,2.928000212E0,9.054096206E0
9.672589940E-1,1.575000048E0,8.493000031E0,2.851050138E0,9.096161914E0
9.692199470E-1,1.843950033E0,8.455050468E0,2.928000212E0,9.135710995E0
9.711808400E-1,2.035050154E0,8.455050468E0,2.889000177E0,9.163821778E0
9.731416030E-1,2.304000139E0,8.416950226E0,2.889000177E0,9.192376720E0
9.751023950E-1,2.419050217E0,8.416950226E0,2.851050138E0,9.210067424E0
9.770632940E-1,2.572050095E0,8.302050591E0,2.736000061E0,9.111815518E0
9.790241620E-1,2.725050211E0,8.263050079E0,2.545050144E0,9.065383362E0
9.809850950E-1,2.992950201E0,8.263050079E0,2.620950222E0,9.170884777E0
9.829460080E-1,3.262050152E0,8.263050079E0,2.583000183E0,9.251532725E0
9.849067990E-1,3.415050268E0,8.187000275E0,2.430000067E0,9.197523697E0
9.868676260E-1,3.492000103E0,8.148000717E0,2.238000154E0,9.142900256E0
9.888287000E-1,3.760050297E0,8.148000717E0,2.161050081E0,9.230277968E0
9.907897010E-1,3.913050175E0,8.110050201E0,2.161050081E0,9.260400283E0
9.927507910E-1,3.913050175E0,8.148000717E0,2.046000004E0,9.267577535E0
9.947118550E-1,4.105050087E0,8.148000717E0,1.893000126E0,9.317982688E0
9.966729340E-1,4.297049999E0,8.148000717E0,1.740000129E0,9.374548247E0
9.986340080E-1,4.450050354E0,8.148000717E0,1.585950017E0,9.418497826E0
1.000595086E0,4.564949989E0,8.187000275E0,1.471050024E0,9.488399764E0
1.002556162E0,4.603050232E0,8.263050079E0,1.318050027E0,9.550043137E0
1.004518141E0,4.795050144E0,7.879950523E0,7.810500264E-1,9.257222331E0
1.006479855E0,4.717950344E0,7.267050266E0,-2.910000086E-1,8.669126601E0
1.008439917E0,4.717950344E0,7.726950169E0,1.300500035E-1,9.054376144E0
1.010400467E0,4.795050144E0,7.957050323E0,7.050000429E-1,9.316876129E0
1.012361318E0,4.680000305E0,8.148000717E0,1.050000072E0,9.454883325E0
1.014322080E0,4.717950344E0,8.302050591E0,1.087950110E0,9.610761411E0
1.016283346E0,4.795050144E0,8.493000031E0,1.050000072E0,9.809488037E0
1.018244465E0,4.717950344E0,8.647050858E0,9.730500579E-1,9.898351903E0
1.020205531E0,4.642050266E0,8.838000298E0,7.050000429E-1,1.000779221E1
1.022166616E0,4.603050232E0,9.106050491E0,5.130000114E-1,1.021623199E1
1.024128276E0,4.488000393E0,9.259950638E0,3.220500052E-1,1.029526831E1
1.026089768E0,4.411950111E0,9.490050316E0,2.070000172E-1,1.046753112E1
1.028050549E0,4.219950199E0,9.720000267E0,9.195000678E-2,1.059692595E1
1.030011539E0,4.066950321E0,9.988050461E0,5.295000225E-2,1.078443511E1
1.031972482E0,3.952050209E0,1.018005085E1,5.295000225E-2,1.092039101E1
1.033933448E0,3.874950171E0,1.044795036E1,9.195000678E-2,1.114375881E1
1.035894543E0,3.721950293E0,1.067805004E1,1.300500035E-1,1.130887172E1
1.037855600E0,3.529950142E0,1.094595051E1,1.300500035E-1,1.150179523E1
1.039816321E0,3.337950230E0,1.113795090E1,1.680000126E-1,1.162858916E1
1.041777140E0,3.147000074E0,1.144395065E1,2.830500007E-1,1.187214106E1
1.043737125E0,3.031950235E0,1.167405033E1,4.360500276E-1,1.206923001E1
1.045697361E0,2.839950085E0,1.182795048E1,5.509500504E-1,1.217658716E1
1.047658266E0,2.686950207E0,1.201905060E1,5.899500251E-1,1.232985481E1
1.049618975E0,2.457000017E0,1.209600067E1,4.750500321E-1,1.235215584E1
1.051579709E0,2.227050066E0,1.213395023E1,3.220500052E-1,1.234083532E1
1.053540436E0,1.959000111E0,1.232595062E1,3.979500234E-1,1.248699741E1
1.055501904E0,1.614000082E0,1.244100094E1,3.979500234E-1,1.255156822E1
1.057463176E0,1.422000051E0,1.251795101E1,2.449500114E-1,1.260084053E1
1.059424085E0,1.269000053E0,1.267095089E1,1.680000126E-1,1.273544587E1
1.061385101E0,1.077000022E0,1.278600025E1,9.195000678E-2,1.283160887E1
1.063345828E0,8.470500112E-1,1.282395077E1,9.195000678E-2,1.285222400E1
1.065306640E0,6.550500393E-1,1.290105057E1,1.680000126E-1,1.291876234E1
1.067266836E0,3.870000243E-1,1.297800064E1,1.680000126E-1,1.298485632E1
1.069227198E0,1.960500032E-1,1.274805069E1,-2.140500098E-1,1.275135481E1
1.071187316E0,1.570500135E-1,1.236405087E1,-6.739500165E-1,1.238340127E1
1.073147506E0,4.200000316E-2,1.259400082E1,3.220500052E-1,1.259818784E1
1.075108374E0,-5.320500135E-1,1.282395077E1,1.050000072E0,1.287786048E1
1.077069043E0,-8.770500422E-1,1.297800064E1,9.349500537E-1,1.304115980E1
1.079030215E0,-9.919500351E-1,1.297800064E1,6.280500293E-1,1.303099813E1
1.080991253E0,-1.030050039E0,1.293900108E1,4.360500276E-1,1.298725882E1
1.082952877E0,-1.106999993E0,1.286295033E1,2.449500114E-1,1.291282078E1
1.084914330E0,-1.222050071E0,1.286295033E1,5.295000225E-2,1.292097911E1
1.086875118E0,-1.375050068E0,1.282395077E1,-1.759500057E-1,1.289866018E1
1.088836101E0,-1.528050065E0,1.282395077E1,-3.289500177E-1,1.291885670E1
1.090796884E0,-1.605000019E0,1.274805069E1,-3.670500219E-1,1.285393120E1
1.092757722E0,-1.605000019E0,1.274805069E1,-3.670500219E-1,1.285393120E1
1.094718254E0,-1.642950058E0,1.259400082E1,-3.670500219E-1,1.270601697E1
1.096678876E0,-1.567050099E0,1.244100094E1,-3.670500219E-1,1.254467521E1
1.098640030E0,-1.567050099E0,1.163595009E1,-1.326000094E0,1.181563611E1
1.100601028E0,-1.452000022E0,1.136805058E1,-1.594050050E0,1.157073349E1
1.102561804E0,-1.260000110E0,1.152105045E1,-6.739500165E-1,1.160932438E1
1.104522645E0,-1.413000107E0,1.155900097E1,5.295000225E-2,1.164516537E1
1.106483402E0,-1.605000019E0,1.155900097E1,-2.205000073E-2,1.166991922E1
1.108444183E0,-1.567050099E0,1.155900097E1,1.500000060E-2,1.166474922E1
1.110405085E0,-1.336950064E0,1.152105045E1,1.500000060E-2,1.159837333E1
1.112365951E0,-1.297950029E0,1.144395065E1,-2.140500098E-1,1.151930980E1
1.114327109E0,-1.260000110E0,1.132905006E1,-4.819500148E-1,1.140908635E1
1.116288181E0,-1.144950032E0,1.121400070E1,-6.739500165E-1,1.129242804E1
1.118249259E0,-1.106999993E0,1.110000038E1,-7.510500550E-1,1.118031903E1
1.120210335E0,-1.068000078E0,1.094595051E1,-7.510500550E-1,1.102354448E1
1.122171368E0,-9.919500351E-1,1.087005043E1,-7.890000343E-1,1.094369601E1
1.124132414E0,-8.770500422E-1,1.075500011E1,-6.739500165E-1,1.081172756E1
1.126093755E0,-8.770500422E-1,1.063995075E1,-8.269500136E-1,1.070801639E1
1.128054985E0,-7.620000243E-1,1.052505016E1,-8.659500480E-1,1.058806850E1
1.130016172E0,-6.469500065E-1,1.052505016E1,-6.739500165E-1,1.056642957E1
1.131977371E0,-6.850500107E-1,1.041000080E1,-7.120500207E-1,1.045678849E1
1.133938606E0,-6.469500065E-1,1.033305073E1,-7.890000343E-1,1.038330404E1
1.135899831E0,-5.320500135E-1,1.025595093E1,-7.120500207E-1,1.029439760E1
1.137860884E0,-4.930500090E-1,1.025595093E1,-7.510500550E-1,1.029522724E1
1.139821987E0,-3.780000210E-1,1.014105034E1,-1.134000063E0,1.021125566E1
1.141783059E0,-3.780000210E-1,1.002600002E1,-1.516950130E0,1.014715222E1
1.143744141E0,-2.250000089E-1,9.873000145E0,-1.287000060E0,9.959072548E0
1.145705576E0,-7.200000435E-2,9.796050072E0,-7.890000343E-1,9.828036531E0
1.147666908E0,-1.480500102E-1,9.681000710E0,-7.120500207E-1,9.708280423E0
1.149628157E0,-1.480500102E-1,9.565950394E0,-7.120500207E-1,9.593557264E0
1.151589438E0,-7.200000435E-2,9.451050758E0,-5.590500236E-1,9.467844600E0
1.153551020E0,-1.099500060E-1,9.298050880E0,-5.209500194E-1,9.313282348E0
1.155512513E0,-1.099500060E-1,9.067950249E0,-7.890000343E-1,9.102874918E0
1.157473700E0,8.100000024E-2,9.106050491E0,-5.970000029E-1,9.125958884E0
1.159434977E0,1.570500135E-1,9.030000687E0,-4.060500264E-1,9.040489684E0
1.161396190E0,1.189500093E-1,8.991000175E0,-4.440000355E-1,9.002742321E0
1.163357429E0,8.100000024E-2,8.914950371E0,-5.970000029E-1,8.935284557E0
1.165318659E0,8.100000024E-2,8.877000809E0,-6.360000372E-1,8.900123617E0
1.167279891E0,1.570500135E-1,8.685000420E0,-7.510500550E-1,8.718828659E0
1.169241076E0,1.960500032E-1,8.608050346E0,-9.040500522E-1,8.657613578E0
1.171202275E0,1.570500135E-1,8.569950104E0,-9.810000658E-1,8.627344355E0
1.173163510E0,1.960500032E-1,8.493000031E0,-1.057050109E0,8.560773333E0
1.175124735E0,2.340000123E-1,8.377950668E0,-1.134000063E0,8.457586509E0
1.177086012E0,2.719500065E-1,8.340000153E0,-1.134000063E0,8.421135048E0
1.179047274E0,3.109500110E-1,8.302050591E0,-1.134000063E0,8.384908471E0
1.181008455E0,3.490500152E-1,8.224950790E0,-1.210950017E0,8.320940533E0
1.182969660E0,1.570500135E-1,7.650000572E0,-1.900950074E0,7.884211099E0
1.184931305E0,5.410500169E-1,7.497000217E0,-2.398950100E0,7.890038591E0
1.186892817E0,7.320000529E-1,7.726950169E0,-8.269500136E-1,7.805474317E0
1.188852739E0,5.020500422E-1,7.879950523E0,-4.060500264E-1,7.906361434E0
1.190813127E0,2.340000123E-1,7.842000484E0,-8.659500480E-1,7.893136074E0
1.192773915E0,3.490500152E-1,7.765050411E0,-1.326000094E0,7.885183578E0
1.194734586E0,3.870000243E-1,7.842000484E0,-9.810000658E-1,7.912591342E0
1.196695408E0,3.490500152E-1,7.918050289E0,-5.970000029E-1,7.948192581E0
1.198656192E0,2.719500065E-1,7.957050323E0,-9.040500522E-1,8.012859237E0
1.200617319E0,2.340000123E-1,7.957050323E0,-1.018950105E0,8.025438628E0
1.202578345E0,2.719500065E-1,7.918050289E0,-1.134000063E0,8.003463833E0
1.204539207E0,3.109500110E-1,7.842000484E0,-1.210950017E0,7.941036548E0
1.206500117E0,3.109500110E-1,7.726950169E0,-1.287000060E0,7.839567461E0
1.208460921E0,3.109500110E-1,7.687950134E0,-1.249050021E0,7.794959470E0
1.210421746E0,1.960500032E-1,7.612050533E0,-1.326000094E0,7.729167172E0
1.212382640E0,1.960500032E-1,7.573050499E0,-1.287000060E0,7.684132913E0
1.214343513E0,1.189500093E-1,7.573050499E0,-1.326000094E0,7.689181960E0
1.216304311E0,1.189500093E-1,7.381950378E0,-1.441050053E0,7.522231434E0
1.218265131E0,1.189500093E-1,7.458000183E0,-1.287000060E0,7.569166730E0
1.220225886E0,1.189500093E-1,7.420050144E0,-1.171950102E0,7.512972800E0
1.222186664E0,4.200000316E-2,7.458000183E0,-1.134000063E0,7.543837675E0
1.224147432E0,-7.200000435E-2,7.458000183E0,-1.210950017E0,7.556014206E0
1.226108203E0,-7.200000435E-2,7.342950344E0,-1.594050050E0,7.514326272E0
1.228069151E0,-3.299999982E-2,7.381950378E0,-1.363950014E0,7.506972761E0
1.230030047E0,-1.099500060E-1,7.420050144E0,-1.249050021E0,7.525248109E0
1.231990760E0,-1.870500147E-1,7.458000183E0,-1.363950014E0,7.584003829E0
1.233951520E0,-3.780000210E-1,7.534950256E0,-1.594050050E0,7.710989232E0
1.235912335E0,-4.170000255E-1,7.534950256E0,-1.747050047E0,7.746066631E0
1.237873134E0,-4.930500090E-1,7.497000217E0,-1.708950043E0,7.705103557E0
1.239833854E0,-5.700000525E-1,7.534950256E0,-1.516950130E0,7.707237710E0
1.241794597E0,-5.700000525E-1,7.573050499E0,-1.632000089E0,7.767845146E0
1.243755434E0,-7.230000496E-1,7.573050499E0,-1.708950043E0,7.797072090E0
1.245716230E0,-7.999500632E-1,7.534950256E0,-1.708950043E0,7.767619051E0
1.247676950E0,-8.770500422E-1,7.612050533E0,-1.594050050E0,7.826463164E0
1.249637693E0,-9.529500604E-1,7.650000572E0,-1.594050050E0,7.872205417E0
1.251598151E0,-1.030050039E0,7.650000572E0,-1.747050047E0,7.914271647E0
1.253558693E0,-1.068000078E0,7.726950169E0,-1.671000123E0,7.977382057E0
1.255519515E0,-1.106999993E0,7.726950169E0,-1.632000089E0,7.974624266E0
1.257480245E0,-1.144950032E0,7.726950169E0,-1.632000089E0,7.979980813E0
1.259441156E0,-1.260000110E0,7.765050411E0,-1.708950043E0,8.050100522E0
1.261402014E0,-1.336950064E0,7.842000484E0,-1.708950043E0,8.136640420E0
1.263362814E0,-1.375050068E0,7.879950523E0,-1.594050050E0,8.156309122E0
1.265323631E0,-1.413000107E0,7.957050323E0,-1.671000123E0,8.252482085E0
1.267284396E0,-1.452000022E0,7.995000362E0,-1.671000123E0,8.295816793E0
1.269245174E0,-1.489950061E0,7.995000362E0,-1.708950043E0,8.310264269E0
1.271206256E0,-1.489950061E0,8.032950401E0,-1.786050081E0,8.362907283E0
1.273167249E0,-1.452000022E0,8.032950401E0,-1.747050047E0,8.347980599E0
1.275127846E0,-1.452000022E0,8.071949959E0,-1.747050047E0,8.385515134E0
1.277088559E0,-1.452000022E0,8.110050201E0,-1.671000123E0,8.406750843E0
1.279049619E0,-1.452000022E0,8.071949959E0,-1.708950043E0,8.377660201E0
1.281010600E0,-1.413000107E0,8.110050201E0,-1.708950043E0,8.407734167E0
1.282971515E0,-1.413000107E0,8.187000275E0,-1.594050050E0,8.459582635E0
1.284932449E0,-1.336950064E0,8.148000717E0,-1.594050050E0,8.409420118E0
1.286893594E0,-1.297950029E0,8.224950790E0,-1.708950043E0,8.500294114E0
1.288854677E0,-1.260000110E0,8.302050591E0,-1.632000089E0,8.554242724E0
1.290815594E0,-1.183050036E0,8.416950226E0,-1.555950046E0,8.640928135E0
1.292776546E0,-1.068000078E0,8.455050468E0,-1.671000123E0,8.684511731E0
1.294737464E0,-1.030050039E0,8.532000542E0,-1.671000123E0,8.754900213E0
1.296698392E0,-1.030050039E0,8.569950104E0,-1.555950046E0,8.770748452E0
1.298659089E0,-1.030050039E0,8.569950104E0,-1.555950046E0,8.770748452E0
1.300619853E0,-9.919500351E-1,8.608050346E0,-1.632000089E0,8.817364682E0
1.302580652E0,-9.919500351E-1,8.647050858E0,-1.555950046E0,8.841743830E0
1.304541452E0,-9.919500351E-1,8.647050858E0,-1.479000092E0,8.828527322E0
1.306502217E0,-1.030050039E0,8.647050858E0,-1.363950014E0,8.814354841E0
1.308462992E0,-9.529500604E-1,8.685000420E0,-1.402050018E0,8.848903342E0
1.310423939E0,-9.529500604E-1,8.685000420E0,-1.441050053E0,8.855166365E0
1.312384836E0,-9.150000215E-1,8.685000420E0,-1.363950014E0,8.838937548E0
1.314345706E0,-9.529500604E-1,8.761950493E0,-1.441050053E0,8.930650341E0
1.316306594E0,-9.919500351E-1,8.722949982E0,-1.441050053E0,8.896653669E0
1.318267207E0,-9.919500351E-1,8.722949982E0,-1.479000092E0,8.902879451E0
1.320227901E0,-9.529500604E-1,8.722949982E0,-1.441050053E0,8.892389749E0
1.322188998E0,-9.529500604E-1,8.722949982E0,-1.479000092E0,8.898618515E0
1.324149976E0,-9.529500604E-1,8.722949982E0,-1.479000092E0,8.898618515E0
1.326110580E0,-9.529500604E-1,8.685000420E0,-1.479000092E0,8.861421296E0
1.328071291E0,-9.919500351E-1,8.608050346E0,-1.555950046E0,8.803605862E0
1.330031845E0,-9.529500604E-1,8.569950104E0,-1.594050050E0,8.768874167E0
1.331992445E0,-9.529500604E-1,8.569950104E0,-1.632000089E0,8.775852260E0
1.333953107E0,-9.919500351E-1,8.569950104E0,-1.632000089E0,8.780172774E0
1.335913750E0,-9.919500351E-1,8.455050468E0,-1.671000123E0,8.675487577E0
1.337874316E0,-9.919500351E-1,8.455050468E0,-1.786050081E0,8.698380205E0
1.339834905E0,-9.529500604E-1,8.377950668E0,-1.824000120E0,8.627001081E0
1.341795749E0,-9.529500604E-1,8.302050591E0,-1.786050081E0,8.545298866E0
1.343756519E0,-9.919500351E-1,8.302050591E0,-1.824000120E0,8.557744172E0
1.345717289E0,-1.030050039E0,8.302050591E0,-1.861950040E0,8.570408686E0
1.347678059E0,-1.068000078E0,8.263050079E0,-1.900950074E0,8.545889770E0
1.349638798E0,-1.030050039E0,8.302050591E0,-1.939050078E0,8.587488707E0
1.351599536E0,-1.068000078E0,8.224950790E0,-1.977000117E0,8.526369048E0
1.353560175E0,-1.144950032E0,8.187000275E0,-2.053950071E0,8.518015906E0
1.355520843E0,-1.144950032E0,8.263050079E0,-2.014950037E0,8.581895527E0
1.357481629E0,-1.183050036E0,8.148000717E0,-2.053950071E0,8.485766552E0
1.359442380E0,-1.260000110E0,8.148000717E0,-2.130000114E0,8.515539704E0
1.361403272E0,-1.222050071E0,8.071949959E0,-2.169000149E0,8.447150061E0
1.363364134E0,-1.297950029E0,8.071949959E0,-2.206950188E0,8.468274886E0
1.365324528E0,-1.413000107E0,8.071949959E0,-2.169000149E0,8.476880740E0
1.367285059E0,-1.489950061E0,8.110050201E0,-2.130000114E0,8.516440920E0
1.369245508E0,-1.567050099E0,8.110050201E0,-2.169000149E0,8.540089105E0
1.371205982E0,-1.567050099E0,8.224950790E0,-2.130000114E0,8.639581124E0
1.373166662E0,-1.758000135E0,8.340000153E0,-2.206950188E0,8.804362336E0
1.375127284E0,-1.834950089E0,8.455050468E0,-2.284050226E0,8.948285070E0
1.377087899E0,-1.873050094E0,8.569950104E0,-2.359950066E0,9.084146947E0
1.379048517E0,-2.026050091E0,8.647050858E0,-2.475000143E0,9.219652554E0
1.381008906E0,-1.987950087E0,8.761950493E0,-2.514000177E0,9.329733055E0
1.382969363E0,-1.987950087E0,8.800050735E0,-2.437050104E0,9.345161941E0
1.384930024E0,-2.026050091E0,8.800050735E0,-2.437050104E0,9.353340854E0
1.386890611E0,-2.026050091E0,8.838000298E0,-2.475000143E0,9.398976218E0
1.388851231E0,-2.026050091E0,8.877000809E0,-2.398950100E0,9.415996172E0
1.390811841E0,-1.950000048E0,8.991000175E0,-2.359950066E0,9.497891800E0
1.392772323E0,-2.026050091E0,9.030000687E0,-2.322000027E0,9.541356062E0
1.394732843E0,-1.987950087E0,9.067950249E0,-2.284050226E0,9.560154428E0
1.396693594E0,-2.026050091E0,9.145050049E0,-2.284050226E0,9.641250168E0
1.398654288E0,-2.065050125E0,9.220950127E0,-2.245050192E0,9.712394330E0
1.400614891E0,-2.140950203E0,9.336000443E0,-2.284050226E0,9.846900907E0
1.402575521E0,-2.179949999E0,9.565950394E0,-2.322000027E0,1.008222560E1
1.404536134E0,-2.218050003E0,9.643050194E0,-2.245050192E0,1.014634975E1
1.406496752E0,-2.140950203E0,9.720000267E0,-2.169000149E0,1.018659092E1
1.408457056E0,-2.218050003E0,9.873000145E0,-2.130000114E0,1.034083063E1
1.410417449E0,-2.256000042E0,1.002600002E1,-2.130000114E0,1.049509948E1
1.412378056E0,-2.256000042E0,1.010295010E1,-2.053950071E0,1.055357038E1
1.414338601E0,-2.256000042E0,1.021800041E1,-1.977000117E0,1.064920645E1
1.416299049E0,-2.295000076E0,1.029495049E1,-2.014950037E0,1.073839162E1
1.418259526E0,-2.256000042E0,1.033305073E1,-1.900950074E0,1.074593340E1
1.420220029E0,-2.295000076E0,1.048605061E1,-1.861950040E0,1.089454637E1
1.422180524E0,-2.218050003E0,1.048605061E1,-1.824000120E0,1.087216536E1
1.424141160E0,-2.179949999E0,1.056300068E1,-1.747050047E0,1.092617725E1
1.426101755E0,-2.179949999E0,1.063995075E1,-1.786050081E0,1.100684827E1
1.428062509E0,-2.218050003E0,1.067805004E1,-1.747050047E0,1.104502976E1
1.430023216E0,-2.179949999E0,1.075500011E1,-1.671000123E0,1.110020049E1
1.431983617E0,-2.179949999E0,1.075500011E1,-1.708950043E0,1.110597676E1
1.433944122E0,-2.103000164E0,1.075500011E1,-1.824000120E0,1.110943804E1
1.435904576E0,-2.065050125E0,1.079295063E1,-1.861950040E0,1.114536107E1
1.437865045E0,-2.065050125E0,1.075500011E1,-1.824000120E0,1.110231669E1
1.439825370E0,-2.026050091E0,1.075500011E1,-1.786050081E0,1.108895312E1
1.441785738E0,-2.065050125E0,1.071600056E1,-1.900950074E0,1.107748668E1
1.443746544E0,-1.987950087E0,1.063995075E1,-1.977000117E0,1.100313714E1
1.445707211E0,-1.911000133E0,1.060095024E1,-2.014950037E0,1.095865371E1
1.447667998E0,-1.834950089E0,1.063995075E1,-1.977000117E0,1.097652601E1
1.449628750E0,-1.834950089E0,1.056300068E1,-2.092050076E0,1.092340143E1
1.451589567E0,-1.795950055E0,1.056300068E1,-2.130000114E0,1.092425377E1
1.453550365E0,-1.758000135E0,1.056300068E1,-2.130000114E0,1.091807897E1
1.455511293E0,-1.758000135E0,1.044795036E1,-2.206950188E0,1.082223916E1
1.457472163E0,-1.720050097E0,1.044795036E1,-2.284050226E0,1.083213389E1
1.459432781E0,-1.681950092E0,1.044795036E1,-2.359950066E0,1.084241612E1
1.461393473E0,-1.758000135E0,1.041000080E1,-2.322000027E0,1.080973475E1
1.463354210E0,-1.758000135E0,1.037100029E1,-2.322000027E0,1.077218156E1
1.465314933E0,-1.720050097E0,1.037100029E1,-2.284050226E0,1.075793218E1
1.467275941E0,-1.681950092E0,1.037100029E1,-2.359950066E0,1.076828526E1
1.469236861E0,-1.681950092E0,1.037100029E1,-2.322000027E0,1.076003194E1
1.471197560E0,-1.642950058E0,1.037100029E1,-2.245050192E0,1.073765255E1
1.473158324E0,-1.605000019E0,1.041000080E1,-2.130000114E0,1.074621060E1
1.475118914E0,-1.567050099E0,1.048605061E1,-1.900950074E0,1.077156045E1
1.477079555E0,-1.605000019E0,1.060095024E1,-1.861950040E0,1.088223456E1
1.479040210E0,-1.642950058E0,1.063995075E1,-1.632000089E0,1.088904317E1
1.481000861E0,-1.605000019E0,1.063995075E1,-1.516950130E0,1.086672512E1
1.482961291E0,-1.642950058E0,1.075500011E1,-1.402050018E0,1.096973366E1
1.484921786E0,-1.681950092E0,1.079295063E1,-1.363950014E0,1.100804701E1
1.486882736E0,-1.720050097E0,1.087005043E1,-1.326000094E0,1.108489264E1
1.488843553E0,-1.720050097E0,1.087005043E1,-1.287000060E0,1.108029503E1
1.490804374E0,-1.758000135E0,1.094595051E1,-1.287000060E0,1.116067947E1
1.492765184E0,-1.758000135E0,1.098495007E1,-1.326000094E0,1.120348020E1
1.494725901E0,-1.758000135E0,1.102305031E1,-1.287000060E0,1.123630596E1
1.496686646E0,-1.758000135E0,1.106100082E1,-1.249050021E0,1.126926926E1
1.498647463E0,-1.758000135E0,1.113795090E1,-1.134000063E0,1.133271683E1
1.500608259E0,-1.758000135E0,1.125300026E1,-1.057050109E0,1.143844108E1
1.502569130E0,-1.642950058E0,1.129095078E1,-9.810000658E-1,1.145195247E1
1.504530000E0,-1.605000019E0,1.140600014E1,-7.890000343E-1,1.154536207E1
1.506490932E0,-1.489950061E0,1.148295021E1,-6.739500165E-1,1.159880620E1
1.508451846E0,-1.413000107E0,1.155900097E1,-5.590500236E-1,1.165845657E1
1.510412591E0,-1.260000110E0,1.167405033E1,-4.060500264E-1,1.174886922E1
1.512373386E0,-1.106999993E0,1.171305084E1,-2.910000086E-1,1.176884404E1
1.514333997E0,-1.068000078E0,1.186605072E1,-1.759500057E-1,1.191531545E1
1.516294675E0,-9.529500604E-1,1.198095036E1,-9.900000691E-2,1.201919657E1
1.518255054E0,-8.770500422E-1,1.213395023E1,5.295000225E-2,1.216572105E1
1.520215521E0,-7.999500632E-1,1.228800011E1,1.300500035E-1,1.231469771E1
1.522175441E0,-7.230000496E-1,1.240305042E1,3.600000143E-1,1.242931973E1
1.524135521E0,-6.079500318E-1,1.255605030E1,4.360500276E-1,1.257832032E1
1.526096092E0,-4.549500346E-1,1.270905018E1,4.750500321E-1,1.272606021E1
1.528056519E0,-4.170000255E-1,1.290105057E1,5.509500504E-1,1.291954104E1
1.530017302E0,-3.400500119E-1,1.301595020E1,6.660000086E-1,1.303741346E1
1.531977981E0,-2.250000089E-1,1.320795059E1,7.050000429E-1,1.322866618E1
1.533938406E0,-1.480500102E-1,1.336095047E1,8.580000401E-1,1.338928976E1
1.535898906E0,-3.299999982E-2,1.355205059E1,8.959500194E-1,1.358167481E1
1.537859551E0,4.200000316E-2,1.366695023E1,9.730500579E-1,1.370161008E1
1.539820177E0,1.189500093E-1,1.378200054E1,1.050000072E0,1.382245232E1
1.541780926E0,2.340000123E-1,1.393605042E1,1.087950110E0,1.398041103E1
1.543741639E0,2.340000123E-1,1.405095100E1,1.240950108E0,1.410758439E1
1.545703139E0,3.490500152E-1,1.412700081E1,1.395000100E0,1.420000046E1
1.547664408E0,5.790000558E-1,1.416600037E1,1.471050024E0,1.425393965E1
1.549625093E0,7.699500322E-1,1.424205112E1,1.471050024E0,1.433850869E1
1.551585949E0,9.619500637E-1,1.428105068E1,1.548000097E0,1.439687677E1
1.553546523E0,1.114950061E0,1.424205112E1,1.701000094E0,1.438654007E1
1.555507179E0,1.269000053E0,1.424205112E1,1.816050053E0,1.441334171E1
1.557467427E0,1.306950092E0,1.408905029E1,1.893000126E0,1.427560528E1
1.559427795E0,1.306950092E0,1.405095100E1,2.085000038E0,1.426480171E1
1.561388152E0,1.422000051E0,1.405095100E1,2.200050116E0,1.429305876E1
1.563348502E0,1.729050040E0,1.382100105E1,2.238000154E0,1.410738561E1
1.565309342E0,1.959000111E0,1.359105110E1,2.200050116E0,1.390663770E1
1.567270039E0,2.149950027E0,1.336095047E1,2.275950193E0,1.372287258E1
1.569230775E0,2.419050217E0,1.309305096E1,2.275950193E0,1.350776579E1
1.571191500E0,2.572050095E0,1.274805069E1,2.314950228E0,1.320936155E1
1.573152088E0,2.764050245E0,1.236405087E1,2.467950106E0,1.290738181E1
1.575112723E0,2.839950085E0,1.201905060E1,2.545050144E0,1.260952711E1
1.577073514E0,2.955000162E0,1.159800053E1,2.659050226E0,1.226035033E1
1.579034259E0,3.031950235E0,1.121400070E1,2.736000061E0,1.193449749E1
1.580994674E0,3.070050240E0,1.079295063E1,2.698050022E0,1.154090402E1
1.582955185E0,3.108000040E0,1.044795036E1,2.659050226E0,1.122006592E1
1.584915832E0,3.184950113E0,1.010295010E1,2.659050226E0,1.092172404E1
1.586876428E0,3.147000074E0,9.720000267E0,2.545050144E0,1.052897407E1
1.588837047E0,3.147000074E0,9.336000443E0,2.467950106E0,1.015653934E1
1.590797659E0,3.070050240E0,8.991000175E0,2.353049994E0,9.787754436E0
1.592758275E0,2.955000162E0,8.761950493E0,2.238000154E0,9.513802977E0
1.594718890E0,2.917050123E0,8.532000542E0,2.200050116E0,9.281402651E0
1.596679541E0,2.878050089E0,8.263050079E0,1.969950080E0,8.968939304E0
1.598640188E0,2.764050245E0,8.071949959E0,1.893000126E0,8.739553728E0
1.600600978E0,2.649000168E0,7.842000484E0,1.816050053E0,8.474208593E0
1.602561726E0,2.533950090E0,7.650000572E0,1.701000094E0,8.236310651E0
1.604522679E0,2.457000017E0,7.534950256E0,1.624950051E0,8.090289681E0
1.606483572E0,2.341950178E0,7.381950378E0,1.624950051E0,7.913177914E0
1.608444461E0,2.265000105E0,7.267050266E0,1.585950017E0,7.775312373E0
1.610405348E0,2.111999989E0,7.189950466E0,1.510050058E0,7.644356274E0
1.612365962E0,2.074050188E0,7.113000393E0,1.471050024E0,7.553836571E0
1.614326656E0,2.035050154E0,7.113000393E0,1.510050058E0,7.550924109E0
1.616287617E0,1.996950150E0,6.997950554E0,1.471050024E0,7.424493924E0
1.618248500E0,1.882050037E0,7.036950111E0,1.471050024E0,7.431336851E0
1.620209610E0,1.843950033E0,7.075050354E0,1.471050024E0,7.457913744E0
1.622170654E0,1.767000079E0,7.075050354E0,1.510050058E0,7.447071772E0
1.624131557E0,1.804950118E0,7.075050354E0,1.510050058E0,7.456167489E0
1.626092502E0,1.729050040E0,7.075050354E0,1.510050058E0,7.438158558E0
1.628053555E0,1.690050125E0,7.113000393E0,1.510050058E0,7.465339590E0
1.630014577E0,1.614000082E0,7.189950466E0,1.510050058E0,7.522010047E0
1.631975500E0,1.575000048E0,7.228050232E0,1.510050058E0,7.550204400E0
1.633936473E0,1.614000082E0,7.342950344E0,1.510050058E0,7.668387523E0
1.635897207E0,1.537050128E0,7.420050144E0,1.510050058E0,7.726572229E0
1.637858012E0,1.459950089E0,7.458000183E0,1.510050058E0,7.748127011E0
1.639819135E0,1.459950089E0,7.497000217E0,1.510050058E0,7.785673876E0
1.641780164E0,1.384050012E0,7.612050533E0,1.471050024E0,7.875461633E0
1.643741051E0,1.384050012E0,7.650000572E0,1.510050058E0,7.919492052E0
1.645701993E0,1.384050012E0,7.765050411E0,1.510050058E0,8.030682007E0
1.647663092E0,1.384050012E0,7.879950523E0,1.471050024E0,8.134691319E0
1.649624145E0,1.345050097E0,7.957050323E0,1.471050024E0,8.202913981E0
1.651585002E0,1.306950092E0,8.032950401E0,1.471050024E0,8.270453365E0
1.653545916E0,1.306950092E0,8.187000275E0,1.471050024E0,8.420159156E0
1.655506838E0,1.306950092E0,8.263050079E0,1.471050024E0,8.494121693E0
1.657467759E0,1.306950092E0,8.302050591E0,1.432950020E0,8.525579647E0
1.659428549E0,1.192050099E0,8.569950104E0,1.432950020E0,8.770312080E0
1.661389377E0,1.230000019E0,8.647050858E0,1.395000100E0,8.844795863E0
1.663350315E0,1.269000053E0,8.722949982E0,1.279950023E0,8.907215591E0
1.665311221E0,1.230000019E0,8.877000809E0,1.240950108E0,9.047320077E0
1.667271939E0,1.192050099E0,8.991000175E0,1.279950023E0,9.159549097E0
1.669232732E0,1.153950095E0,9.030000687E0,1.279950023E0,9.192974779E0
1.671193497E0,1.039050102E0,9.183000565E0,1.240950108E0,9.324541900E0
1.673154271E0,1.000050068E0,9.220950127E0,1.318050027E0,9.368205658E0
1.675115218E0,9.619500637E-1,9.336000443E0,1.279950023E0,9.472303007E0
1.677076115E0,9.619500637E-1,9.375000000E0,1.279950023E0,9.510743661E0
1.679037178E0,1.000050068E0,9.451050758E0,1.318050027E0,9.594775477E0
1.680998192E0,1.000050068E0,9.451050758E0,1.318050027E0,9.594775477E0
1.682959280E0,9.619500637E-1,9.336000443E0,1.395000100E0,9.488534000E0
1.684920346E0,8.470500112E-1,9.604950905E0,1.471050024E0,9.753797403E0
1.686881110E0,1.000050068E0,9.565950394E0,1.432950020E0,9.724240476E0
1.688841963E0,1.000050068E0,9.412950516E0,1.356000066E0,9.562555816E0
1.690802751E0,1.000050068E0,9.681000710E0,1.356000066E0,9.826525889E0
1.692763534E0,1.192050099E0,9.643050194E0,1.395000100E0,9.816079959E0
1.694724121E0,1.306950092E0,9.681000710E0,1.318050027E0,9.857339862E0
1.696684765E0,1.306950092E0,9.720000267E0,1.318050027E0,9.895644477E0
1.698645510E0,1.345050097E0,9.681000710E0,1.318050027E0,9.862463707E0
1.700606225E0,1.384050012E0,9.643050194E0,1.318050027E0,9.830629041E0
1.702567229E0,1.422000051E0,9.643050194E0,1.356000066E0,9.841201012E0
1.704528148E0,1.498950124E0,9.565950394E0,1.356000066E0,9.777167002E0
1.706488892E0,1.575000048E0,9.528000832E0,1.395000100E0,9.757533002E0
1.708449688E0,1.575000048E0,9.451050758E0,1.432950020E0,9.687947737E0
1.710410587E0,1.575000048E0,9.490050316E0,1.510050058E0,9.737655330E0
1.712371456E0,1.575000048E0,9.490050316E0,1.471050024E0,9.731683735E0
1.714332448E0,1.614000082E0,9.412950516E0,1.471050024E0,9.662950991E0
1.716293394E0,1.690050125E0,9.412950516E0,1.471050024E0,9.675944141E0
1.718254448E0,1.690050125E0,9.375000000E0,1.471050024E0,9.639029132E0
1.720215471E0,1.767000079E0,9.375000000E0,1.471050024E0,9.652818368E0
1.722176602E0,1.767000079E0,9.412950516E0,1.471050024E0,9.689680844E0
1.724137701E0,1.767000079E0,9.375000000E0,1.510050058E0,9.658838722E0
1.726099109E0,1.690050125E0,9.412950516E0,1.548000097E0,9.687941533E0
1.728060413E0,1.575000048E0,9.375000000E0,1.585950017E0,9.637763621E0
1.730021497E0,1.575000048E0,9.412950516E0,1.624950051E0,9.681153094E0
1.731982645E0,1.459950089E0,9.375000000E0,1.510050058E0,9.607410184E0
1.733943889E0,1.498950124E0,9.336000443E0,1.510050058E0,9.575385471E0
1.735905105E0,1.422000051E0,9.259950638E0,1.510050058E0,9.489416270E0
1.737866304E0,1.384050012E0,9.259950638E0,1.471050024E0,9.477672099E0
1.739827501E0,1.345050097E0,9.298050880E0,1.471050024E0,9.509305869E0
1.741788557E0,1.306950092E0,9.298050880E0,1.471050024E0,9.503991629E0
1.743749654E0,1.306950092E0,9.220950127E0,1.432950020E0,9.422705850E0
1.745710412E0,1.269000053E0,9.298050880E0,1.395000100E0,9.487367211E0
1.747671270E0,1.192050099E0,9.298050880E0,1.356000066E0,9.471719474E0
1.749632393E0,1.153950095E0,9.220950127E0,1.318050027E0,9.385881841E0
1.751593432E0,1.192050099E0,9.220950127E0,1.279950023E0,9.385370357E0
1.753554516E0,1.153950095E0,9.145050049E0,1.240950108E0,9.300725691E0
1.755515586E0,1.077000022E0,9.145050049E0,1.240950108E0,9.291492163E0
1.757476620E0,1.077000022E0,9.106050491E0,1.203000069E0,9.248096764E0
1.759437665E0,9.240000248E-1,9.030000687E0,1.165050030E0,9.151613520E0
1.761398553E0,8.850000501E-1,9.030000687E0,1.165050030E0,9.147758144E0
1.763359497E0,8.850000501E-1,8.953050613E0,1.050000072E0,9.057750302E0
1.765319560E0,8.470500112E-1,8.914950371E0,9.349500537E-1,9.003775066E0
1.767279881E0,5.410500169E-1,8.761950493E0,9.349500537E-1,8.828286536E0
1.769241627E0,5.020500422E-1,8.761950493E0,9.349500537E-1,8.825982228E0
1.771202956E0,7.320000529E-1,8.800050735E0,8.959500194E-1,8.875778471E0
1.773163976E0,7.699500322E-1,8.838000298E0,8.580000401E-1,8.912869144E0
1.775125097E0,5.790000558E-1,8.877000809E0,7.810500264E-1,8.930085306E0
1.777085220E0,5.020500422E-1,8.877000809E0,8.959500194E-1,8.936214189E0
1.779045636E0,5.410500169E-1,8.914950371E0,8.959500194E-1,8.976179681E0
1.781005970E0,3.870000243E-1,8.914950371E0,8.200500607E-1,8.960948121E0
1.782966328E0,1.960500032E-1,8.800050735E0,7.810500264E-1,8.836818867E0
1.784927352E0,2.340000123E-1,8.838000298E0,7.810500264E-1,8.875530655E0
1.786888177E0,1.189500093E-1,8.647050858E0,7.050000429E-1,8.676558229E0
1.788849072E0,4.200000316E-2,8.685000420E0,7.429500222E-1,8.716821154E0
1.790809946E0,2.719500065E-1,8.647050858E0,7.429500222E-1,8.683168781E0
1.792770744E0,3.109500110E-1,8.647050858E0,6.660000086E-1,8.678233372E0
1.794731564E0,2.719500065E-1,8.647050858E0,6.660000086E-1,8.676923496E0
1.796692620E0,1.570500135E-1,8.685000420E0,6.660000086E-1,8.711914428E0
1.798653620E0,1.570500135E-1,8.647050858E0,7.050000429E-1,8.677164185E0
1.800614396E0,1.570500135E-1,8.647050858E0,7.810500264E-1,8.683673899E0
1.802575237E0,8.100000024E-2,8.608050346E0,7.429500222E-1,8.640432078E0
1.804536308E0,8.100000024E-2,8.685000420E0,7.429500222E-1,8.717096307E0
1.806497312E0,4.200000316E-2,8.647050858E0,5.899500251E-1,8.667254096E0
1.808458096E0,-3.299999982E-2,8.685000420E0,5.899500251E-1,8.705076813E0
1.810418938E0,-7.200000435E-2,8.685000420E0,6.280500293E-1,8.707976983E0
1.812379829E0,-1.099500060E-1,8.647050858E0,5.899500251E-1,8.667849708E0
1.814340706E0,-1.480500102E-1,8.722949982E0,5.899500251E-1,8.744130387E0
1.816301142E0,-1.870500147E-1,8.722949982E0,6.660000086E-1,8.750337142E0
1.818261708E0,-2.250000089E-1,8.838000298E0,7.810500264E-1,8.875297933E0
1.820222295E0,-2.629500031E-1,8.914950371E0,8.580000401E-1,8.960002616E0
1.822182869E0,-3.400500119E-1,9.030000687E0,8.959500194E-1,9.080708830E0
1.824143537E0,-4.549500346E-1,9.183000565E0,1.011000037E0,9.249681074E0
1.826104177E0,-3.780000210E-1,9.336000443E0,9.730500579E-1,9.394179831E0
1.828064969E0,-3.400500119E-1,9.490050316E0,8.580000401E-1,9.534823180E0
1.830025716E0,-3.780000210E-1,9.565950394E0,8.580000401E-1,9.611787296E0
1.831986498E0,-4.549500346E-1,9.681000710E0,8.200500607E-1,9.726316691E0
1.833947263E0,-5.320500135E-1,9.757950783E0,8.580000401E-1,9.810037959E0
1.835907854E0,-5.700000525E-1,9.873000145E0,8.580000401E-1,9.926590351E0
1.837868496E0,-5.320500135E-1,9.949950218E0,8.959500194E-1,1.000436470E1
1.839829286E0,-4.930500090E-1,1.002600002E1,9.349500537E-1,1.008156270E1
1.841790032E0,-4.930500090E-1,1.010295010E1,8.200500607E-1,1.014816146E1
1.843750626E0,-5.320500135E-1,1.010295010E1,8.200500607E-1,1.015013103E1
1.845711265E0,-5.320500135E-1,1.014105034E1,7.810500264E-1,1.018498985E1
1.847672236E0,-4.549500346E-1,1.014105034E1,7.429500222E-1,1.017840146E1
1.849633109E0,-3.780000210E-1,1.025595093E1,7.050000429E-1,1.028710059E1
1.851594221E0,-3.400500119E-1,1.033305073E1,5.899500251E-1,1.035546292E1
1.853555263E0,-3.780000210E-1,1.037100029E1,6.280500293E-1,1.039687347E1
1.855515816E0,-3.780000210E-1,1.041000080E1,5.899500251E-1,1.043355365E1
1.857476506E0,-4.170000255E-1,1.044795036E1,5.509500504E-1,1.047077369E1
1.859437242E0,-3.780000210E-1,1.044795036E1,4.750500321E-1,1.046557324E1
1.861397965E0,-3.400500119E-1,1.044795036E1,3.979500234E-1,1.046105468E1
1.863358608E0,-2.629500031E-1,1.033305073E1,3.979500234E-1,1.034405357E1
1.865319275E0,-2.250000089E-1,1.025595093E1,3.220500052E-1,1.026347264E1
1.867280557E0,-2.629500031E-1,1.010295010E1,2.830500007E-1,1.011033435E1
1.869241658E0,-1.870500147E-1,9.910950661E0,2.830500007E-1,9.916755922E0
1.871201876E0,-1.099500060E-1,9.720000267E0,2.830500007E-1,9.724742233E0
1.873162352E0,-7.200000435E-2,9.565950394E0,2.830500007E-1,9.570407945E0
1.875123126E0,-3.299999982E-2,9.565950394E0,3.600000143E-1,9.572778904E0
1.877083812E0,1.189500093E-1,9.565950394E0,1.680000126E-1,9.568164926E0
1.879043515E0,4.050000105E-3,9.757950783E0,2.830500007E-1,9.762055992E0
1.881003506E0,-1.099500060E-1,9.873000145E0,3.600000143E-1,9.880173120E0
1.882964813E0,-7.200000435E-2,9.910950661E0,3.220500052E-1,9.916443072E0
1.884925735E0,-3.299999982E-2,9.873000145E0,2.449500114E-1,9.876093427E0
1.886886299E0,4.200000316E-2,9.757950783E0,1.680000126E-1,9.759487255E0
1.888846968E0,4.200000316E-2,9.604950905E0,9.195000678E-2,9.605482845E0
1.890807584E0,4.050000105E-3,9.412950516E0,5.295000225E-2,9.413100314E0
1.892768208E0,-7.200000435E-2,9.220950127E0,9.195000678E-2,9.221689652E0
1.894728822E0,-7.200000435E-2,9.067950249E0,5.295000225E-2,9.068390674E0
1.896689439E0,-7.200000435E-2,8.991000175E0,5.295000225E-2,8.991444370E0
1.898650368E0,-3.299999982E-2,8.914950371E0,1.500000060E-2,8.915024067E0
1.900611206E0,4.200000316E-2,8.914950371E0,-1.369500011E-1,8.916101133E0
1.902571995E0,4.200000316E-2,8.914950371E0,1.500000060E-2,8.915061924E0
1.904532809E0,-3.299999982E-2,8.838000298E0,9.195000678E-2,8.838540211E0
1.906493705E0,-3.299999982E-2,8.838000298E0,5.295000225E-2,8.838220520E0
1.908454576E0,-3.299999982E-2,8.722949982E0,-2.205000073E-2,8.723040272E0
1.910415508E0,4.050000105E-3,8.722949982E0,-2.205000073E-2,8.722978791E0
1.912376422E0,4.050000105E-3,8.685000420E0,-9.900000691E-2,8.685565594E0
1.914337362E0,-7.200000435E-2,8.608050346E0,-9.900000691E-2,8.608920709E0
1.916298283E0,-3.299999982E-2,8.569950104E0,-6.105000153E-2,8.570231087E0
1.918258847E0,4.050000105E-3,8.569950104E0,-6.105000153E-2,8.570168510E0
1.920219516E0,-3.299999982E-2,8.532000542E0,-6.105000153E-2,8.532282775E0
1.922180346E0,-1.099500060E-1,8.455050468E0,1.500000060E-2,8.455778641E0
1.924141129E0,-2.250000089E-1,8.377950668E0,5.295000225E-2,8.381138712E0
1.926102252E0,-3.400500119E-1,8.302050591E0,1.500000060E-2,8.309025395E0
1.928063278E0,-7.200000435E-2,8.455050468E0,1.300500035E-1,8.456357101E0
1.930024184E0,8.100000024E-2,8.416950226E0,-2.205000073E-2,8.417368847E0
1.931985126E0,-1.480500102E-1,8.455050468E0,-1.369500011E-1,8.457455441E0
1.933945506E0,4.050000105E-3,8.493000031E0,-6.105000153E-2,8.493220415E0
1.935906050E0,4.200000316E-2,8.493000031E0,-6.105000153E-2,8.493323297E0
1.937867042E0,-1.870500147E-1,8.493000031E0,-2.205000073E-2,8.495088194E0
1.939827899E0,-2.629500031E-1,8.647050858E0,5.295000225E-2,8.651210027E0
1.941788429E0,-7.200000435E-2,8.685000420E0,1.500000060E-2,8.685311813E0
1.943749055E0,-3.299999982E-2,8.800050735E0,-2.205000073E-2,8.800140235E0
1.945709488E0,-3.299999982E-2,8.914950371E0,-2.205000073E-2,8.915038716E0
1.947669978E0,4.050000105E-3,9.030000687E0,-2.205000073E-2,9.030028516E0
1.949630974E0,4.200000316E-2,9.145050049E0,5.295000225E-2,9.145299782E0
1.951591822E0,4.200000316E-2,9.336000443E0,5.295000225E-2,9.336245068E0
1.953552803E0,-3.299999982E-2,9.451050758E0,5.295000225E-2,9.451256696E0
1.955513745E0,4.200000316E-2,9.565950394E0,1.300500035E-1,9.566926567E0
1.957474666E0,4.200000316E-2,9.681000710E0,1.300500035E-1,9.681965283E0
1.959435593E0,-3.299999982E-2,9.720000267E0,1.680000126E-1,9.721508021E0
1.961396704E0,4.050000105E-3,9.796050072E0,2.449500114E-1,9.799112915E0
1.963357754E0,1.570500135E-1,9.873000145E0,2.449500114E-1,9.877286929E0
1.965317755E0,2.340000123E-1,9.873000145E0,2.830500007E-1,9.879828195E0
1.967278064E0,1.570500135E-1,9.910950661E0,3.600000143E-1,9.918730146E0
1.969238911E0,1.960500032E-1,9.873000145E0,3.979500234E-1,9.882961686E0
1.971199600E0,1.960500032E-1,9.835050583E0,4.750500321E-1,9.848468313E0
1.973160374E0,1.570500135E-1,9.835050583E0,4.750500321E-1,9.847769149E0
1.975121130E0,1.570500135E-1,9.796050072E0,5.130000114E-1,9.810730387E0
1.977082082E0,1.960500032E-1,9.835050583E0,5.130000114E-1,9.850371799E0
1.979042976E0,1.960500032E-1,9.796050072E0,5.509500504E-1,9.813489622E0
1.981003904E0,8.100000024E-2,9.757950783E0,5.509500504E-1,9.773827829E0
1.982964822E0,1.960500032E-1,9.720000267E0,5.130000114E-1,9.735502545E0
1.984925586E0,8.100000024E-2,9.681000710E0,6.280500293E-1,9.701689676E0
1.986886381E0,4.050000105E-3,9.604950905E0,6.280500293E-1,9.625463372E0
1.988847101E0,2.719500065E-1,9.604950905E0,6.660000086E-1,9.631853129E0
1.990807843E0,3.870000243E-1,9.604950905E0,7.050000429E-1,9.638561924E0
1.992768482E0,2.719500065E-1,9.604950905E0,7.050000429E-1,9.634628366E0
1.994729151E0,1.960500032E-1,9.604950905E0,7.050000429E-1,9.632784776E0
1.996689926E0,1.570500135E-1,9.565950394E0,7.429500222E-1,9.596043267E0
1.998650677E0,4.200000316E-2,9.565950394E0,7.429500222E-1,9.594849956E0
2.000611810E0,1.189500093E-1,9.528000832E0,7.810500264E-1,9.560700189E0
2.002572831E0,8.100000024E-2,9.528000832E0,7.810500264E-1,9.560303342E0
2.004533738E0,8.100000024E-2,9.528000832E0,7.050000429E-1,9.554390923E0
2.006494679E0,4.200000316E-2,9.565950394E0,7.429500222E-1,9.594849956E0
2.008455738E0,4.050000105E-3,9.528000832E0,7.050000429E-1,9.554048425E0
2.010416759E0,8.100000024E-2,9.604950905E0,7.050000429E-1,9.631130149E0
2.012377171E0,4.050000105E-3,9.643050194E0,6.660000086E-1,9.666022422E0
2.014337761E0,4.050000105E-3,9.643050194E0,7.050000429E-1,9.668787851E0
2.016298515E0,-7.200000435E-2,9.681000710E0,5.899500251E-1,9.699226761E0
2.018259221E0,-1.480500102E-1,9.681000710E0,5.899500251E-1,9.700089411E0
2.020219982E0,-3.400500119E-1,9.681000710E0,6.280500293E-1,9.707309390E0
2.022180740E0,-1.099500060E-1,9.757950783E0,6.280500293E-1,9.778759600E0
2.024141512E0,1.960500032E-1,9.720000267E0,5.509500504E-1,9.737576020E0
2.026102279E0,1.189500093E-1,9.757950783E0,5.509500504E-1,9.774216007E0
2.028062554E0,-1.480500102E-1,9.720000267E0,6.280500293E-1,9.741394707E0
2.030022973E0,-7.230000496E-1,9.681000710E0,6.280500293E-1,9.728255273E0
2.031983654E0,-3.019500077E-1,9.796050072E0,7.429500222E-1,9.828822185E0
2.033944235E0,4.050000105E-3,9.720000267E0,4.360500276E-1,9.729777039E0
2.035904856E0,-1.099500060E-1,9.796050072E0,3.600000143E-1,9.803279350E0
2.037865465E0,-3.299999982E-2,9.835050583E0,4.360500276E-1,9.844767574E0
2.039825902E0,-1.480500102E-1,9.796050072E0,5.130000114E-1,9.810590442E0
2.041786390E0,-1.099500060E-1,9.835050583E0,5.509500504E-1,9.851083947E0
2.043747182E0,-1.480500102E-1,9.835050583E0,5.899500251E-1,9.853840866E0
2.045707870E0,-2.250000089E-1,9.873000145E0,6.660000086E-1,9.897995397E0
2.047668474E0,-3.019500077E-1,9.873000145E0,6.660000086E-1,9.900043519E0
2.049629103E0,-3.019500077E-1,9.949950218E0,6.280500293E-1,9.974323536E0
2.051589940E0,-3.400500119E-1,9.949950218E0,5.509500504E-1,9.970992394E0
2.053550716E0,-4.170000255E-1,9.949950218E0,5.509500504E-1,9.973913190E0
2.055511305E0,-4.930500090E-1,1.002600002E1,5.509500504E-1,1.005322439E1
2.057471949E0,-4.930500090E-1,1.010295010E1,4.750500321E-1,1.012612322E1
2.059432874E0,-4.549500346E-1,1.014105034E1,5.509500504E-1,1.016619041E1
2.061393716E0,-4.930500090E-1,1.014105034E1,4.750500321E-1,1.016413660E1
2.063354339E0,-5.320500135E-1,1.021800041E1,5.130000114E-1,1.024469515E1
2.065315026E0,-6.850500107E-1,1.018005085E1,5.509500504E-1,1.021793887E1
2.067275979E0,-7.999500632E-1,1.025595093E1,5.509500504E-1,1.030184428E1
2.069236861E0,-7.620000243E-1,1.025595093E1,4.750500321E-1,1.029518557E1
2.071198467E0,-6.850500107E-1,1.029495049E1,3.600000143E-1,1.032399627E1
2.073159861E0,-7.230000496E-1,1.037100029E1,2.830500007E-1,1.040002372E1
2.075120344E0,-7.620000243E-1,1.037100029E1,2.830500007E-1,1.040280771E1
2.077081094E0,-7.999500632E-1,1.044795036E1,2.830500007E-1,1.048235204E1
2.079041195E0,-9.919500351E-1,1.048605061E1,3.220500052E-1,1.053778622E1
2.081001483E0,-1.106999993E0,1.052505016E1,3.600000143E-1,1.058922707E1
2.082962874E0,-1.030050039E0,1.063995075E1,3.979500234E-1,1.069709864E1
2.084923942E0,-1.030050039E0,1.067805004E1,2.449500114E-1,1.073041268E1
2.086884481E0,-1.144950032E0,1.067805004E1,2.070000172E-1,1.074125283E1
2.088845175E0,-1.183050036E0,1.063995075E1,9.195000678E-2,1.070591492E1
2.090805923E0,-1.106999993E0,1.087005043E1,2.070000172E-1,1.092823382E1
2.092766678E0,-1.068000078E0,1.094595051E1,2.449500114E-1,1.100065713E1
2.094727450E0,-9.919500351E-1,1.098495007E1,1.680000126E-1,1.103092547E1
2.096688217E0,-9.919500351E-1,1.102305031E1,2.449500114E-1,1.107030277E1
2.098648942E0,-9.529500604E-1,1.110000038E1,2.449500114E-1,1.114352381E1
2.100609680E0,-9.150000215E-1,1.117605019E1,2.830500007E-1,1.121701565E1
2.102570475E0,-9.529500604E-1,1.121400070E1,2.830500007E-1,1.125797685E1
2.104531270E0,-8.770500422E-1,1.125300026E1,2.449500114E-1,1.128978441E1
2.106492215E0,-8.380500674E-1,1.132905006E1,2.449500114E-1,1.136264510E1
2.108453116E0,-7.999500632E-1,1.140600014E1,2.449500114E-1,1.143664110E1
2.110414043E0,-7.999500632E-1,1.144395065E1,2.449500114E-1,1.147449028E1
2.112374962E0,-7.230000496E-1,1.152105045E1,2.449500114E-1,1.154631253E1
2.114335895E0,-6.469500065E-1,1.155900097E1,2.830500007E-1,1.158055115E1
2.116296817E0,-5.700000525E-1,1.159800053E1,2.070000172E-1,1.161384369E1
2.118257696E0,-5.320500135E-1,1.163595009E1,2.449500114E-1,1.165068291E1
2.120218588E0,-5.320500135E-1,1.171305084E1,2.830500007E-1,1.172854443E1
2.122179156E0,-4.549500346E-1,1.175100040E1,1.680000126E-1,1.176100396E1
2.124139819E0,-4.170000255E-1,1.175100040E1,1.680000126E-1,1.175959708E1
2.126100471E0,-4.170000255E-1,1.182795048E1,1.680000126E-1,1.183649127E1
2.128061127E0,-3.780000210E-1,1.178895092E1,2.070000172E-1,1.179682571E1
2.130021014E0,-2.629500031E-1,1.182795048E1,2.830500007E-1,1.183425843E1
2.131981127E0,-2.629500031E-1,1.186605072E1,3.600000143E-1,1.187442219E1
2.133942007E0,-2.250000089E-1,1.190400028E1,3.600000143E-1,1.191156781E1
2.135902663E0,-2.250000089E-1,1.186605072E1,4.360500276E-1,1.187619149E1
2.137863288E0,-1.870500147E-1,1.194300079E1,5.130000114E-1,1.195547676E1
2.139823911E0,-1.480500102E-1,1.186605072E1,6.280500293E-1,1.188358218E1
2.141784705E0,-2.250000089E-1,1.186605072E1,7.050000429E-1,1.188910467E1
2.143745448E0,-2.629500031E-1,1.182795048E1,7.429500222E-1,1.185417774E1
2.145706402E0,-3.019500077E-1,1.182795048E1,7.429500222E-1,1.185510696E1
2.147667294E0,-3.400500119E-1,1.186605072E1,8.959500194E-1,1.190468480E1
2.149628153E0,-3.400500119E-1,1.182795048E1,8.959500194E-1,1.186670860E1
2.151589040E0,-4.549500346E-1,1.186605072E1,9.349500537E-1,1.191151841E1
2.153549609E0,-4.930500090E-1,1.182795048E1,9.730500579E-1,1.187814536E1
2.155510271E0,-6.469500065E-1,1.171305084E1,9.349500537E-1,1.176810248E1
2.157470878E0,-6.850500107E-1,1.175100040E1,1.087950110E0,1.182112260E1
2.159431502E0,-7.999500632E-1,1.171305084E1,1.087950110E0,1.179063678E1
2.161392336E0,-8.770500422E-1,1.167405033E1,1.126049995E0,1.176098025E1
2.163353111E0,-9.529500604E-1,1.167405033E1,1.240950108E0,1.177843462E1
2.165313836E0,-1.030050039E0,1.159800053E1,1.240950108E0,1.170959335E1
2.167274575E0,-1.068000078E0,1.163595009E1,1.318050027E0,1.175896316E1
2.169235034E0,-1.144950032E0,1.155900097E1,1.395000100E0,1.169903583E1
2.171195575E0,-1.222050071E0,1.152105045E1,1.432950020E0,1.167396058E1
2.173156187E0,-1.297950029E0,1.152105045E1,1.432950020E0,1.168214978E1
2.175116788E0,-1.260000110E0,1.148295021E1,1.432950020E0,1.164040771E1
2.177077406E0,-1.222050071E0,1.136805058E1,1.395000100E0,1.151833345E1
2.179038019E0,-1.222050071E0,1.132905006E1,1.471050024E0,1.148933287E1
2.180998276E0,-1.260000110E0,1.132905006E1,1.471050024E0,1.149343133E1
2.182958637E0,-1.144950032E0,1.121400070E1,1.510050058E0,1.137299316E1
2.184919259E0,-1.068000078E0,1.117605019E1,1.510050058E0,1.132806131E1
2.186879798E0,-1.068000078E0,1.113795090E1,1.548000097E0,1.129561325E1
2.188840652E0,-1.030050039E0,1.110000038E1,1.701000094E0,1.127671995E1
2.190801414E0,-8.770500422E-1,1.106100082E1,1.893000126E0,1.125603862E1
2.192761960E0,-8.770500422E-1,1.094595051E1,1.930950046E0,1.114951198E1
2.194722570E0,-7.230000496E-1,1.094595051E1,1.969950080E0,1.114527994E1
2.196683210E0,-6.079500318E-1,1.087005043E1,2.122950077E0,1.109209253E1
2.198643855E0,-4.930500090E-1,1.079295063E1,2.275950193E0,1.104132378E1
2.200604467E0,-4.170000255E-1,1.071600056E1,2.506050110E0,1.101303065E1
2.202565088E0,-2.629500031E-1,1.063995075E1,2.698050022E0,1.097985285E1
2.204525657E0,-1.870500147E-1,1.060095024E1,2.851050138E0,1.097923588E1
2.206486242E0,-3.299999982E-2,1.048605061E1,2.889000177E0,1.087679495E1
2.208446927E0,4.050000105E-3,1.041000080E1,2.928000212E0,1.081394092E1
2.210407568E0,1.570500135E-1,1.041000080E1,3.004050255E0,1.083591710E1
2.212368359E0,3.870000243E-1,1.029495049E1,3.118950129E0,1.076399667E1
2.214329106E0,5.020500422E-1,1.021800041E1,3.157950163E0,1.070664447E1
2.216290916E0,6.169500351E-1,1.014105034E1,3.234000206E0,1.066209579E1
2.218252414E0,6.940500140E-1,1.006500053E1,3.310950041E0,1.061830172E1
2.220213039E0,8.470500112E-1,9.949950218E0,3.426000118E0,1.055729510E1
2.222173934E0,8.470500112E-1,9.910950661E0,3.426000118E0,1.052054721E1
2.224134861E0,9.619500637E-1,9.796050072E0,3.388050079E0,1.040993892E1
2.226095778E0,8.850000501E-1,9.565950394E0,3.349050045E0,1.017382761E1
2.228056343E0,9.619500637E-1,9.528000832E0,3.273000240E0,1.012031019E1
2.230017011E0,1.384050012E0,9.451050758E0,3.618000269E0,1.021410206E1
2.231977663E0,1.614000082E0,9.336000443E0,3.694050074E0,1.016916449E1
2.233938319E0,1.767000079E0,9.145050049E0,3.655950069E0,1.000600822E1
2.235899061E0,1.767000079E0,9.030000687E0,3.733050108E0,9.929696108E0
2.237859778E0,1.804950118E0,8.953050613E0,3.808950186E0,9.895608204E0
2.239820737E0,1.959000111E0,8.838000298E0,3.808950186E0,9.821203196E0
2.241781625E0,1.959000111E0,8.685000420E0,3.733050108E0,9.654148167E0
2.243742220E0,1.882050037E0,8.532000542E0,3.655950069E0,9.471172921E0
2.245702915E0,2.227050066E0,8.493000031E0,3.618000269E0,9.496353377E0
2.247663832E0,2.610000134E0,8.302050591E0,3.694050074E0,9.454213381E0
2.249624683E0,2.686950207E0,8.263050079E0,3.655950069E0,9.426752831E0
2.251585484E0,2.802000046E0,8.148000717E0,3.655950069E0,9.359865963E0
2.253546300E0,2.839950085E0,8.032950401E0,3.541050196E0,9.226735345E0
2.255507007E0,2.955000162E0,7.918050289E0,3.502950191E0,9.148672384E0
2.257467753E0,3.147000074E0,7.803000450E0,3.541050196E0,9.128497247E0
2.259428345E0,3.184950113E0,7.726950169E0,3.541050196E0,9.076822275E0
2.261388983E0,3.262050152E0,7.612050533E0,3.541050196E0,9.006848561E0
2.263349819E0,3.453000069E0,7.497000217E0,3.463950157E0,8.951378242E0
2.265310597E0,3.568050146E0,7.381950378E0,3.388050079E0,8.871474318E0
2.267271305E0,3.682950258E0,7.228050232E0,3.426000118E0,8.806038245E0
2.269232045E0,3.760050297E0,7.189950466E0,3.388050079E0,8.792738440E0
2.271192639E0,3.837000132E0,7.113000393E0,3.273000240E0,8.719511177E0
2.273153276E0,3.837000132E0,7.036950111E0,3.157950163E0,8.614748175E0
2.275114067E0,4.143000126E0,6.922050476E0,3.004050255E0,8.608341929E0
2.277074813E0,4.297049999E0,6.883050442E0,2.851050138E0,8.600552829E0
2.279035486E0,4.335000038E0,6.844950199E0,2.698050022E0,8.539616062E0
2.280996156E0,4.564949989E0,6.499950409E0,2.545050144E0,8.340587747E0
2.282956941E0,4.756950378E0,6.001950264E0,2.122950077E0,7.947257445E0
2.284917693E0,4.527000427E0,6.424050331E0,1.816050053E0,8.065989916E0
2.286878465E0,4.372950077E0,6.424050331E0,1.663050056E0,7.947128445E0
2.288839231E0,4.335000038E0,6.499950409E0,1.471050024E0,7.950193005E0
2.290799851E0,4.372950077E0,6.654000282E0,1.395000100E0,8.083590626E0
2.292760493E0,4.335000038E0,6.730050087E0,1.203000069E0,8.095246054E0
2.294720923E0,4.372950077E0,6.768000126E0,1.050000072E0,8.125947221E0
2.296681416E0,4.258049965E0,6.883050442E0,8.200500607E-1,8.135100183E0
2.298641872E0,4.066950321E0,7.075050354E0,5.130000114E-1,8.176771456E0
2.300602339E0,4.143000126E0,7.228050232E0,6.280500293E-1,8.354855297E0
2.302562798E0,4.066950321E0,7.420050144E0,8.200500607E-1,8.501159401E0
2.304523261E0,3.913050175E0,7.573050499E0,8.580000401E-1,8.567334451E0
2.306483722E0,3.760050297E0,7.803000450E0,9.349500537E-1,8.711998959E0
2.308444184E0,3.645000219E0,7.995000362E0,1.050000072E0,8.849212256E0
2.310404825E0,3.529950142E0,8.302050591E0,1.087950110E0,9.086706084E0
2.312365413E0,3.376950264E0,8.569950104E0,1.165050030E0,9.284674439E0
2.314326029E0,3.184950113E0,8.722949982E0,1.203000069E0,9.363811872E0
2.316286640E0,3.031950235E0,8.953050613E0,1.126049995E0,9.519339584E0
2.318247077E0,2.839950085E0,9.220950127E0,1.087950110E0,9.709524868E0
2.320207565E0,2.649000168E0,9.375000000E0,1.087950110E0,9.802625278E0
2.322168336E0,2.457000017E0,9.604950905E0,1.126049995E0,9.977971716E0
2.324129024E0,2.265000105E0,9.873000145E0,1.165050030E0,1.019625906E1
2.326089658E0,2.111999989E0,1.006500053E1,1.203000069E0,1.035432223E1
2.328050319E0,1.882050037E0,1.029495049E1,1.240950108E0,1.053888395E1
2.330011241E0,1.690050125E0,1.048605061E1,1.203000069E0,1.068928136E1
2.331972086E0,1.537050128E0,1.071600056E1,1.203000069E0,1.089230922E1
2.333932844E0,1.345050097E0,1.090800095E1,1.203000069E0,1.105625857E1
2.335893627E0,1.269000053E0,1.106100082E1,1.203000069E0,1.119836191E1
2.337854652E0,1.153950095E0,1.129095078E1,1.240950108E0,1.141740458E1
2.339815582E0,1.000050068E0,1.136805058E1,1.203000069E0,1.147518554E1
2.341776505E0,8.470500112E-1,1.155900097E1,1.087950110E0,1.164094638E1
2.343737430E0,6.940500140E-1,1.159800053E1,8.959500194E-1,1.165324196E1
2.345697452E0,5.790000558E-1,1.175100040E1,9.349500537E-1,1.180234651E1
2.347657738E0,4.260000288E-1,1.178895092E1,8.200500607E-1,1.182511403E1
2.349618900E0,3.109500110E-1,1.186605072E1,7.050000429E-1,1.189104178E1
2.351579808E0,1.960500032E-1,1.194300079E1,7.429500222E-1,1.196769311E1
2.353540014E0,1.189500093E-1,1.198095036E1,7.810500264E-1,1.200697129E1
2.355500425E0,4.050000105E-3,1.209600067E1,8.580000401E-1,1.212639323E1
2.357461255E0,-1.099500060E-1,1.213395023E1,7.810500264E-1,1.215955906E1
2.359421962E0,-3.400500119E-1,1.228800011E1,7.429500222E-1,1.231513522E1
2.361382782E0,-4.930500090E-1,1.232595062E1,6.660000086E-1,1.235377323E1
2.363343572E0,-6.079500318E-1,1.240305042E1,6.280500293E-1,1.243381317E1
2.365304653E0,-6.469500065E-1,1.240305042E1,5.899500251E-1,1.243391512E1
2.367265649E0,-7.230000496E-1,1.244100094E1,5.509500504E-1,1.247416448E1
2.369226245E0,-8.380500674E-1,1.244100094E1,6.280500293E-1,1.248500217E1
2.371186959E0,-9.150000215E-1,1.236405087E1,4.750500321E-1,1.240695980E1
2.373148457E0,-8.770500422E-1,1.232595062E1,2.830500007E-1,1.236035569E1
2.375109726E0,-9.150000215E-1,1.232595062E1,1.680000126E-1,1.236100756E1
2.377070185E0,-9.529500604E-1,1.232595062E1,1.680000126E-1,1.236387466E1
2.379030882E0,-1.030050039E0,1.232595062E1,1.680000126E-1,1.237005602E1
2.380991483E0,-1.030050039E0,1.228800011E1,9.195000678E-2,1.233143968E1
2.382952113E0,-9.919500351E-1,1.221105099E1,9.195000678E-2,1.225161973E1
2.384912591E0,-9.919500351E-1,1.221105099E1,1.680000126E-1,1.225242650E1
2.386873113E0,-1.068000078E0,1.217295074E1,2.070000172E-1,1.222146485E1
2.388833878E0,-9.919500351E-1,1.209600067E1,1.300500035E-1,1.213730242E1
2.390794572E0,-9.150000215E-1,1.198095036E1,9.195000678E-2,1.201619121E1
2.392755175E0,-9.529500604E-1,1.186605072E1,-1.759500057E-1,1.190555467E1
2.394715805E0,-9.150000215E-1,1.175100040E1,-2.520000041E-1,1.178926374E1
2.396676278E0,-8.380500674E-1,1.178895092E1,-2.140500098E-1,1.182063912E1
2.398636800E0,-8.380500674E-1,1.167405033E1,-6.105000153E-2,1.170425163E1
2.400597565E0,-8.380500674E-1,1.159800053E1,5.295000225E-2,1.162835964E1
2.402558259E0,-7.999500632E-1,1.144395065E1,1.500000060E-2,1.147188527E1
2.404518862E0,-7.999500632E-1,1.132905006E1,-1.759500057E-1,1.135862024E1
2.406479492E0,-8.380500674E-1,1.129095078E1,-1.759500057E-1,1.132337652E1
2.408440100E0,-7.230000496E-1,1.110000038E1,-3.289500177E-1,1.112838468E1
2.410400718E0,-6.850500107E-1,1.110000038E1,-2.520000041E-1,1.112397438E1
2.412361377E0,-5.700000525E-1,1.102305031E1,-6.105000153E-2,1.103794661E1
2.414322024E0,-6.079500318E-1,1.090800095E1,-9.900000691E-2,1.092537820E1
2.416282635E0,-5.700000525E-1,1.083105087E1,-2.140500098E-1,1.084815102E1
2.418243256E0,-4.170000255E-1,1.075500011E1,-1.759500057E-1,1.076451926E1
2.420203810E0,-4.549500346E-1,1.071600056E1,-1.759500057E-1,1.072709681E1
2.422164395E0,-4.170000255E-1,1.063995075E1,-2.910000086E-1,1.065209473E1
2.424124700E0,-3.400500119E-1,1.052505016E1,-2.910000086E-1,1.053456197E1
2.426085088E0,-2.629500031E-1,1.037100029E1,-2.910000086E-1,1.037841369E1
2.428045696E0,-2.629500031E-1,1.033305073E1,-2.910000086E-1,1.034049134E1
2.430006239E0,-1.099500060E-1,1.025595093E1,-2.520000041E-1,1.025963559E1
2.431966747E0,-7.200000435E-2,1.014105034E1,-2.520000041E-1,1.014443641E1
2.433927256E0,4.050000105E-3,1.002600002E1,-4.440000355E-1,1.003582727E1
2.435887709E0,4.050000105E-3,9.949950218E0,-4.819500148E-1,9.961616413E0
2.437848179E0,4.200000316E-2,9.835050583E0,-5.209500194E-1,9.848927500E0
2.439808594E0,4.200000316E-2,9.757950783E0,-3.670500219E-1,9.764942048E0
2.441769025E0,8.100000024E-2,9.720000267E0,-6.360000372E-1,9.741122227E0
2.443729501E0,8.100000024E-2,9.565950394E0,-7.510500550E-1,9.595730515E0
2.445689956E0,1.189500093E-1,9.528000832E0,-6.739500165E-1,9.552547177E0
2.447650779E0,1.189500093E-1,9.412950516E0,-5.970000029E-1,9.432613398E0
2.449611494E0,1.570500135E-1,9.412950516E0,-7.120500207E-1,9.441150213E0
2.451572139E0,1.960500032E-1,9.259950638E0,-7.120500207E-1,9.289356095E0
2.453532804E0,1.570500135E-1,9.106050491E0,-6.739500165E-1,9.132306876E0
2.455493559E0,2.340000123E-1,9.067950249E0,-7.510500550E-1,9.102008235E0
2.457454278E0,2.719500065E-1,9.030000687E0,-7.120500207E-1,9.062112581E0
2.459414876E0,2.340000123E-1,8.953050613E0,-7.510500550E-1,8.987544018E0
2.461375510E0,1.960500032E-1,8.877000809E0,-9.420000315E-1,8.928994513E0
2.463335987E0,2.340000123E-1,8.800050735E0,-9.040500522E-1,8.849460743E0
2.465296510E0,2.719500065E-1,8.722949982E0,-8.659500480E-1,8.770044622E0
2.467257257E0,3.109500110E-1,8.685000420E0,-7.510500550E-1,8.722958121E0
2.469217951E0,2.719500065E-1,8.608050346E0,-7.510500550E-1,8.645031160E0
2.471178913E0,3.109500110E-1,8.532000542E0,-9.040500522E-1,8.585396301E0
2.473139797E0,3.109500110E-1,8.493000031E0,-8.269500136E-1,8.538828125E0
2.475100548E0,3.490500152E-1,8.455050468E0,-8.269500136E-1,8.502562006E0
2.477061338E0,2.719500065E-1,8.416950226E0,-7.890000343E-1,8.458222565E0
2.479021958E0,3.490500152E-1,8.340000153E0,-9.040500522E-1,8.396114873E0
2.480982635E0,2.340000123E-1,8.263050079E0,-1.057050109E0,8.333673113E0
2.482943374E0,2.340000123E-1,8.224950790E0,-1.210950017E0,8.316908768E0
2.484904095E0,2.340000123E-1,8.263050079E0,-9.420000315E-1,8.319862780E0
2.486864917E0,1.960500032E-1,8.187000275E0,-9.420000315E-1,8.243347206E0
2.488825710E0,1.570500135E-1,8.224950790E0,-9.810000658E-1,8.284735442E0
2.490786615E0,1.189500093E-1,8.148000717E0,-1.134000063E0,8.227394541E0
2.492747484E0,8.100000024E-2,8.187000275E0,-9.810000658E-1,8.245962383E0
2.494708057E0,4.050000105E-3,8.187000275E0,-9.420000315E-1,8.241016561E0
2.496668717E0,-1.870500147E-1,8.110050201E0,-1.057050109E0,8.180785837E0
2.498629549E0,-2.250000089E-1,8.148000717E0,-1.018950105E0,8.214548071E0
2.500590331E0,-2.250000089E-1,8.187000275E0,-8.659500480E-1,8.235743317E0
2.502551075E0,-2.250000089E-1,8.187000275E0,-9.810000658E-1,8.248633804E0
2.504511847E0,-1.480500102E-1,8.224950790E0,-1.057050109E0,8.293918811E0
2.506472436E0,-1.870500147E-1,8.187000275E0,-1.134000063E0,8.267279924E0
2.508433078E0,-1.480500102E-1,8.224950790E0,-1.134000063E0,8.304076737E0
2.510393868E0,-1.480500102E-1,8.224950790E0,-1.171950102E0,8.309344219E0
2.512354614E0,-1.870500147E-1,8.263050079E0,-1.018950105E0,8.327739407E0
2.514315388E0,-1.870500147E-1,8.187000275E0,-1.249050021E0,8.283844950E0
2.516276153E0,-3.019500077E-1,8.187000275E0,-1.249050021E0,8.287235562E0
2.518237103E0,-2.629500031E-1,8.224950790E0,-1.210950017E0,8.317773630E0
2.520197999E0,-1.480500102E-1,8.148000717E0,-1.249050021E0,8.244510928E0
2.522158927E0,-1.870500147E-1,8.110050201E0,-1.402050018E0,8.232475098E0
2.524119845E0,-7.200000435E-2,8.110050201E0,-1.134000063E0,8.189264583E0
2.526080964E0,-1.480500102E-1,8.224950790E0,-8.269500136E-1,8.267743382E0
2.528042014E0,-4.170000255E-1,8.263050079E0,-9.040500522E-1,8.322811552E0
2.530002916E0,-5.320500135E-1,8.187000275E0,-9.040500522E-1,8.253929804E0
2.531963862E0,-6.079500318E-1,8.148000717E0,-1.018950105E0,8.233940627E0
2.533924915E0,-6.079500318E-1,8.148000717E0,-1.057050109E0,8.238742250E0
2.535885937E0,-6.850500107E-1,8.071949959E0,-1.287000060E0,8.202562941E0
2.537846553E0,-7.620000243E-1,7.957050323E0,-1.402050018E0,8.115481387E0
2.539807271E0,-6.079500318E-1,7.803000450E0,-1.249050021E0,7.925688943E0
2.541768048E0,-6.079500318E-1,7.803000450E0,-1.057050109E0,7.897706895E0
2.543728807E0,-7.230000496E-1,7.765050411E0,-9.420000315E-1,7.855323101E0
2.545689219E0,-8.770500422E-1,7.765050411E0,-1.018950105E0,7.880576374E0
2.547649732E0,-9.150000215E-1,7.687950134E0,-1.171950102E0,7.830406717E0
2.549610364E0,-9.529500604E-1,7.612050533E0,-1.402050018E0,7.798536490E0
2.551570961E0,-8.770500422E-1,7.650000572E0,-1.441050053E0,7.833795427E0
2.553531715E0,-9.919500351E-1,7.573050499E0,-1.594050050E0,7.802310830E0
2.555492423E0,-9.919500351E-1,7.420050144E0,-1.555950046E0,7.646050586E0
2.557452888E0,-9.919500351E-1,7.420050144E0,-1.326000094E0,7.602590694E0
2.559413425E0,-9.919500351E-1,7.381950378E0,-1.134000063E0,7.534129837E0
2.561374348E0,-9.919500351E-1,7.305000305E0,-1.134000063E0,7.458749927E0
2.563335172E0,-1.068000078E0,7.267050266E0,-1.249050021E0,7.450554992E0
2.565295572E0,-1.106999993E0,7.189950466E0,-1.326000094E0,7.394532638E0
2.567256097E0,-1.183050036E0,7.075050354E0,-1.441050053E0,7.316595530E0
2.569216772E0,-1.106999993E0,7.075050354E0,-1.555950046E0,7.328217180E0
2.571177403E0,-1.144950032E0,7.075050354E0,-1.516950130E0,7.325870992E0
2.573138175E0,-1.144950032E0,7.036950111E0,-1.479000092E0,7.281278646E0
2.575098888E0,-1.068000078E0,7.075050354E0,-1.441050053E0,7.298875731E0
2.577059667E0,-1.106999993E0,7.189950466E0,-1.479000092E0,7.423494996E0
2.579020427E0,-1.030050039E0,7.228050232E0,-1.516950130E0,7.457000130E0
2.580981198E0,-7.999500632E-1,7.381950378E0,-1.555950046E0,7.586441329E0
2.582941965E0,-6.850500107E-1,7.497000217E0,-1.555950046E0,7.687345857E0
2.584902735E0,-6.079500318E-1,7.650000572E0,-1.555950046E0,7.830267718E0
2.586863504E0,-6.850500107E-1,7.765050411E0,-1.555950046E0,7.948979931E0
2.588824139E0,-7.230000496E-1,7.879950523E0,-1.479000092E0,8.050080161E0
2.590784813E0,-7.230000496E-1,7.957050323E0,-1.441050053E0,8.118744002E0
2.592745733E0,-7.230000496E-1,8.032950401E0,-1.363950014E0,8.179937705E0
2.594706581E0,-7.230000496E-1,8.032950401E0,-1.326000094E0,8.173695460E0
2.596667343E0,-7.620000243E-1,8.071949959E0,-1.287000060E0,8.209347680E0
2.598628126E0,-6.850500107E-1,8.148000717E0,-1.287000060E0,8.277413748E0
2.600588893E0,-6.469500065E-1,8.148000717E0,-1.249050021E0,8.268529854E0
2.602549665E0,-7.230000496E-1,8.148000717E0,-1.287000060E0,8.280640912E0
2.604510253E0,-7.230000496E-1,8.148000717E0,-1.287000060E0,8.280640912E0
2.606470895E0,-6.850500107E-1,8.187000275E0,-1.287000060E0,8.315806405E0
2.608431715E0,-6.850500107E-1,8.187000275E0,-1.249050021E0,8.310017628E0
2.610392462E0,-6.469500065E-1,8.148000717E0,-1.210950017E0,8.262860276E0
2.612353056E0,-7.230000496E-1,8.187000275E0,-1.210950017E0,8.307593064E0
2.614313695E0,-6.850500107E-1,8.187000275E0,-1.210950017E0,8.304376374E0
2.616274306E0,-6.469500065E-1,8.187000275E0,-1.249050021E0,8.306963571E0
2.618234925E0,-6.850500107E-1,8.187000275E0,-1.363950014E0,8.328062599E0
2.620195589E0,-7.230000496E-1,8.148000717E0,-1.402050018E0,8.299300513E0
2.622156236E0,-7.230000496E-1,8.071949959E0,-1.516950130E0,8.245013215E0
2.624116981E0,-7.230000496E-1,8.071949959E0,-1.594050050E0,8.259546039E0
2.626077698E0,-8.380500674E-1,8.032950401E0,-1.555950046E0,8.225059307E0
2.628038656E0,-7.620000243E-1,8.032950401E0,-1.671000123E0,8.240217084E0
2.629999544E0,-7.620000243E-1,8.032950401E0,-1.708950043E0,8.247996510E0
2.631959788E0,-8.380500674E-1,7.995000362E0,-1.786050081E0,8.234824443E0
2.633920228E0,-7.999500632E-1,7.995000362E0,-1.861950040E0,8.247836616E0
2.635881008E0,-7.999500632E-1,7.957050323E0,-1.900950074E0,8.219986687E0
2.637841688E0,-7.620000243E-1,7.957050323E0,-2.014950037E0,8.243501534E0
2.639802158E0,-7.230000496E-1,7.995000362E0,-2.014950037E0,8.276640835E0
2.641762690E0,-6.850500107E-1,7.995000362E0,-2.014950037E0,8.273412111E0
2.643723094E0,-7.230000496E-1,7.995000362E0,-2.014950037E0,8.276640835E0
2.645683536E0,-7.620000243E-1,8.032950401E0,-2.169000149E0,8.355447195E0
2.647644180E0,-7.230000496E-1,8.110050201E0,-2.130000114E0,8.416207212E0
2.649604765E0,-7.230000496E-1,8.187000275E0,-2.206950188E0,8.510013613E0
2.651565430E0,-7.620000243E-1,8.224950790E0,-2.284050226E0,8.570142646E0
2.653526072E0,-7.999500632E-1,8.377950668E0,-2.284050226E0,8.720485247E0
2.655486882E0,-8.770500422E-1,8.532000542E0,-2.284050226E0,8.875873785E0
2.657447630E0,-9.150000215E-1,8.647050858E0,-2.398950100E0,9.020181548E0
2.659408538E0,-9.150000215E-1,8.800050735E0,-2.322000027E0,9.147119881E0
2.661369399E0,-9.529500604E-1,8.991000175E0,-2.206950188E0,9.306816164E0
2.663330198E0,-1.030050039E0,9.259950638E0,-2.245050192E0,9.583733055E0
2.665291016E0,-1.106999993E0,9.375000000E0,-2.245050192E0,9.703418179E0
2.667251597E0,-1.183050036E0,9.451050758E0,-2.284050226E0,9.794838093E0
2.669212247E0,-1.222050071E0,9.604950905E0,-2.359950066E0,9.965834264E0
2.671173171E0,-1.183050036E0,9.681000710E0,-2.322000027E0,1.002562049E1
2.673134014E0,-1.183050036E0,9.757950783E0,-2.322000027E0,1.009994530E1
2.675094817E0,-1.222050071E0,9.835050583E0,-2.322000027E0,1.017906236E1
2.677055632E0,-1.260000110E0,9.873000145E0,-2.245050192E0,1.020313592E1
2.679016567E0,-1.260000110E0,9.988050461E0,-2.130000114E0,1.029007545E1
2.680977471E0,-1.336950064E0,1.006500053E1,-2.130000114E0,1.037441910E1
2.682937993E0,-1.375050068E0,1.014105034E1,-2.092050076E0,1.044549368E1
2.684898627E0,-1.489950061E0,1.021800041E1,-2.053950071E0,1.052835194E1
2.686859283E0,-1.452000022E0,1.033305073E1,-2.014950037E0,1.062733575E1
2.688819932E0,-1.605000019E0,1.041000080E1,-1.939050078E0,1.070999799E1
2.690780896E0,-1.642950058E0,1.048605061E1,-1.939050078E0,1.078964584E1
2.692741740E0,-1.720050097E0,1.056300068E1,-1.900950074E0,1.086964428E1
2.694702317E0,-1.720050097E0,1.060095024E1,-1.824000120E0,1.089337848E1
2.696662973E0,-1.758000135E0,1.067805004E1,-1.747050047E0,1.096191138E1
2.698623941E0,-1.834950089E0,1.083105087E1,-1.594050050E0,1.110043695E1
2.700584817E0,-1.834950089E0,1.090800095E1,-1.671000123E0,1.118676753E1
2.702545614E0,-1.834950089E0,1.094595051E1,-1.632000089E0,1.121803453E1
2.704506434E0,-1.873050094E0,1.102305031E1,-1.555950046E0,1.128879689E1
2.706467509E0,-1.873050094E0,1.110000038E1,-1.632000089E0,1.137460986E1
2.708428509E0,-1.834950089E0,1.113795090E1,-1.594050050E0,1.140008717E1
2.710389465E0,-1.873050094E0,1.117605019E1,-1.594050050E0,1.144348767E1
2.712350434E0,-1.834950089E0,1.121400070E1,-1.594050050E0,1.147439973E1
2.714311316E0,-1.873050094E0,1.132905006E1,-1.632000089E0,1.159823764E1
2.716272247E0,-1.795950055E0,1.136805058E1,-1.708950043E0,1.163522758E1
2.718233303E0,-1.834950089E0,1.144395065E1,-1.786050081E0,1.172693580E1
2.720194322E0,-1.795950055E0,1.140600014E1,-1.824000120E0,1.168970710E1
2.722155050E0,-1.758000135E0,1.144395065E1,-1.977000117E0,1.174576947E1
2.724115863E0,-1.720050097E0,1.140600014E1,-2.014950037E0,1.170963002E1
2.726076264E0,-1.758000135E0,1.144395065E1,-2.206950188E0,1.178665348E1
2.728036786E0,-1.758000135E0,1.129095078E1,-2.284050226E0,1.165302619E1
2.729997282E0,-1.758000135E0,1.125300026E1,-2.475000143E0,1.165530802E1
2.731957786E0,-1.795950055E0,1.117605019E1,-2.551950216E0,1.160353327E1
2.733918554E0,-1.758000135E0,1.110000038E1,-2.629050016E0,1.154177096E1
2.735879245E0,-1.720050097E0,1.102305031E1,-2.896950245E0,1.152642751E1
2.737839908E0,-1.720050097E0,1.090800095E1,-2.896950245E0,1.141645206E1
2.739800569E0,-1.758000135E0,1.079295063E1,-3.012000084E0,1.134242004E1
2.741761355E0,-1.681950092E0,1.071600056E1,-2.974050045E0,1.124751518E1
2.743722105E0,-1.758000135E0,1.063995075E1,-2.935050249E0,1.117647692E1
2.745683013E0,-1.758000135E0,1.052505016E1,-2.974050045E0,1.107755474E1
2.747643875E0,-1.720050097E0,1.048605061E1,-2.935050249E0,1.102408044E1
2.749604648E0,-1.795950055E0,1.041000080E1,-3.012000084E0,1.098479393E1
2.751565434E0,-1.834950089E0,1.029495049E1,-2.859000206E0,1.084098379E1
2.753526201E0,-1.911000133E0,1.033305073E1,-2.859000206E0,1.089025900E1
2.755486973E0,-1.987950087E0,1.033305073E1,-2.820000172E0,1.089386451E1
2.757447741E0,-1.987950087E0,1.029495049E1,-2.782050133E0,1.084793778E1
2.759408511E0,-1.987950087E0,1.029495049E1,-2.667000055E0,1.081900367E1
2.761369100E0,-2.026050091E0,1.033305073E1,-2.514000177E0,1.082575693E1
2.763329742E0,-2.103000164E0,1.033305073E1,-2.398950100E0,1.081431961E1
2.765290577E0,-2.140950203E0,1.044795036E1,-2.169000149E0,1.088337706E1
2.767251355E0,-2.140950203E0,1.044795036E1,-2.092050076E0,1.086830291E1
2.769212124E0,-2.256000042E0,1.063995075E1,-1.977000117E0,1.105471020E1
2.771172896E0,-2.332950115E0,1.067805004E1,-1.977000117E0,1.110729213E1
2.773133785E0,-2.371050119E0,1.071600056E1,-1.939050078E0,1.114515419E1
2.775094649E0,-2.410050154E0,1.079295063E1,-1.824000120E0,1.120817119E1
2.777055448E0,-2.410050154E0,1.090800095E1,-1.786050081E0,1.131294839E1
2.779016266E0,-2.371050119E0,1.106100082E1,-1.632000089E0,1.142939378E1
2.780977161E0,-2.371050119E0,1.110000038E1,-1.632000089E0,1.146714051E1
2.782938034E0,-2.332950115E0,1.117605019E1,-1.555950046E0,1.152248821E1
2.784898632E0,-2.295000076E0,1.129095078E1,-1.441050053E0,1.161159851E1
2.786859324E0,-2.256000042E0,1.132905006E1,-1.402050018E0,1.163626468E1
2.788820061E0,-2.179949999E0,1.148295021E1,-1.363950014E0,1.176735685E1
2.790780784E0,-2.065050125E0,1.152105045E1,-1.287000060E0,1.177520296E1
2.792741247E0,-1.987950087E0,1.159800053E1,-1.096050024E0,1.181807461E1
2.794701786E0,-1.873050094E0,1.163595009E1,-1.096050024E0,1.183659481E1
2.796662333E0,-1.795950055E0,1.163595009E1,-9.810000658E-1,1.181453055E1
2.798622903E0,-1.681950092E0,1.171305084E1,-8.659500480E-1,1.186483821E1
2.800583751E0,-1.528050065E0,1.175100040E1,-7.510500550E-1,1.187371145E1
2.802544518E0,-1.413000107E0,1.175100040E1,-7.120500207E-1,1.185704833E1
2.804505063E0,-1.297950029E0,1.178895092E1,-5.590500236E-1,1.187335568E1
2.806465674E0,-1.144950032E0,1.186605072E1,-5.209500194E-1,1.193253784E1
2.808426270E0,-9.529500604E-1,1.182795048E1,-4.440000355E-1,1.187458051E1
2.810386884E0,-7.999500632E-1,1.186605072E1,-2.910000086E-1,1.189654407E1
2.812347680E0,-6.469500065E-1,1.194300079E1,-2.140500098E-1,1.196242574E1
2.814308422E0,-4.930500090E-1,1.190400028E1,-1.369500011E-1,1.191499376E1
2.816269017E0,-2.629500031E-1,1.194300079E1,1.500000060E-2,1.194590456E1
2.818229655E0,-1.870500147E-1,1.198095036E1,9.195000678E-2,1.198276320E1
2.820190267E0,4.050000105E-3,1.198095036E1,1.680000126E-1,1.198212885E1
2.822150886E0,8.100000024E-2,1.205805016E1,2.070000172E-1,1.206009882E1
2.824111725E0,2.340000123E-1,1.213395023E1,2.449500114E-1,1.213867805E1
2.826072499E0,2.719500065E-1,1.217295074E1,2.449500114E-1,1.217845175E1
2.828032503E0,3.490500152E-1,1.217295074E1,2.449500114E-1,1.218041733E1
2.829992732E0,5.410500169E-1,1.221105099E1,3.220500052E-1,1.222727351E1
2.831954715E0,6.550500393E-1,1.224900055E1,2.830500007E-1,1.226976863E1
2.833916187E0,7.320000529E-1,1.232595062E1,2.830500007E-1,1.235091090E1
2.835875890E0,8.850000501E-1,1.236405087E1,3.220500052E-1,1.239986674E1
2.837836112E0,1.000050068E0,1.240305042E1,4.360500276E-1,1.245093971E1
2.839796838E0,1.077000022E0,1.236405087E1,4.750500321E-1,1.241995795E1
2.841757417E0,1.230000019E0,1.232595062E1,6.660000086E-1,1.240506005E1
2.843717795E0,1.306950092E0,1.232595062E1,7.429500222E-1,1.241729246E1
2.845678246E0,1.384050012E0,1.224900055E1,8.959500194E-1,1.235946339E1
2.847638753E0,1.459950089E0,1.228800011E1,1.087950110E0,1.242215908E1
2.849599244E0,1.614000082E0,1.221105099E1,1.126049995E0,1.236861961E1
2.851560016E0,1.767000079E0,1.209600067E1,1.240950108E0,1.228720793E1
2.853520706E0,1.804950118E0,1.205805016E1,1.318050027E0,1.226342833E1
2.855481114E0,1.882050037E0,1.201905060E1,1.395000100E0,1.224523233E1
2.857441616E0,2.035050154E0,1.201905060E1,1.432950020E0,1.227405199E1
2.859402250E0,2.111999989E0,1.194300079E1,1.432950020E0,1.221266382E1
2.861362845E0,2.227050066E0,1.182795048E1,1.432950020E0,1.212078835E1
2.863323464E0,2.341950178E0,1.175100040E1,1.471050024E0,1.207206400E1
2.865284076E0,2.380050182E0,1.163595009E1,1.432950020E0,1.196299791E1
2.867244654E0,2.457000017E0,1.140600014E1,1.471050024E0,1.176000325E1
2.869205268E0,2.457000017E0,1.125300026E1,1.471050024E0,1.161166879E1
2.871165750E0,2.533950090E0,1.106100082E1,1.510050058E0,1.144757151E1
2.873126270E0,2.686950207E0,1.083105087E1,1.585950017E0,1.127149510E1
2.875087217E0,2.764050245E0,1.060095024E1,1.585950017E0,1.106956897E1
2.877048038E0,2.802000046E0,1.037100029E1,1.624950051E0,1.086505011E1
2.879008839E0,2.955000162E0,1.006500053E1,1.663050056E0,1.062082846E1
2.880969650E0,2.992950201E0,9.796050072E0,1.701000094E0,1.038333998E1
2.882930367E0,2.955000162E0,9.490050316E0,1.777950048E0,1.009723662E1
2.884891112E0,2.917050123E0,9.298050880E0,1.701000094E0,9.892235992E0
2.886851570E0,2.764050245E0,9.067950249E0,1.777950048E0,9.645143952E0
2.888812112E0,2.649000168E0,8.877000809E0,1.701000094E0,9.418691341E0
2.890772938E0,2.572050095E0,8.569950104E0,1.624950051E0,9.093951239E0
2.892733667E0,2.494950056E0,8.377950668E0,1.585950017E0,8.884259713E0
2.894694084E0,2.457000017E0,8.110050201E0,1.548000097E0,8.614294379E0
2.896654592E0,2.341950178E0,7.879950523E0,1.510050058E0,8.358145851E0
2.898615540E0,2.265000105E0,7.726950169E0,1.510050058E0,8.192449912E0
2.900576359E0,2.188950062E0,7.573050499E0,1.510050058E0,8.026384455E0
2.902537185E0,2.149950027E0,7.458000183E0,1.471050024E0,7.899875950E0
2.904497996E0,2.111999989E0,7.267050266E0,1.432950020E0,7.702201587E0
2.906458578E0,2.074050188E0,7.152000427E0,1.395000100E0,7.576200867E0
2.908419227E0,2.035050154E0,7.113000393E0,1.356000066E0,7.521631465E0
2.910380151E0,1.959000111E0,7.152000427E0,1.279950023E0,7.525095588E0
2.912340994E0,1.882050037E0,7.113000393E0,1.240950108E0,7.461691772E0
2.914301737E0,1.729050040E0,7.075050354E0,1.203000069E0,7.381948301E0
2.916262520E0,1.651950121E0,7.113000393E0,1.203000069E0,7.400738001E0
2.918223152E0,1.614000082E0,7.228050232E0,1.203000069E0,7.503127054E0
2.920183828E0,1.537050128E0,7.228050232E0,1.203000069E0,7.486951477E0
2.922144747E0,1.459950089E0,7.267050266E0,1.240950108E0,7.515412897E0
2.924105595E0,1.498950124E0,7.267050266E0,1.240950108E0,7.523086349E0
2.926066531E0,1.498950124E0,7.342950344E0,1.318050027E0,7.609403860E0
2.928027441E0,1.384050012E0,7.420050144E0,1.356000066E0,7.668863981E0
2.929988187E0,1.306950092E0,7.534950256E0,1.318050027E0,7.760209390E0
2.931948982E0,1.269000053E0,7.573050499E0,1.318050027E0,7.790937740E0
2.933909567E0,1.230000019E0,7.650000572E0,1.395000100E0,7.872828849E0
2.935870213E0,1.230000019E0,7.687950134E0,1.432950020E0,7.916490578E0
2.937831228E0,1.153950095E0,7.765050411E0,1.432950020E0,7.980034741E0
2.939792134E0,1.153950095E0,7.842000484E0,1.471050024E0,8.061796363E0
2.941752701E0,1.000050068E0,7.995000362E0,1.510050058E0,8.197583919E0
2.943713367E0,8.470500112E-1,8.110050201E0,1.471050024E0,8.285794842E0
2.945673973E0,7.699500322E-1,8.224950790E0,1.471050024E0,8.390865672E0
2.947634597E0,5.790000558E-1,8.416950226E0,1.510050058E0,8.570912632E0
2.949594646E0,5.020500422E-1,8.532000542E0,1.510050058E0,8.679132368E0
2.951554881E0,5.020500422E-1,8.722949982E0,1.471050024E0,8.860355456E0
2.953515876E0,4.639500082E-1,8.800050735E0,1.510050058E0,8.940715505E0
2.955476648E0,3.870000243E-1,8.914950371E0,1.510050058E0,9.050213274E0
2.957437283E0,2.719500065E-1,8.991000175E0,1.548000097E0,9.127340536E0
2.959397958E0,1.570500135E-1,9.259950638E0,1.510050058E0,9.383581496E0
2.961358877E0,1.189500093E-1,9.336000443E0,1.471050024E0,9.451933217E0
2.963319725E0,1.189500093E-1,9.412950516E0,1.510050058E0,9.534046239E0
2.965280661E0,1.570500135E-1,9.528000832E0,1.432950020E0,9.636431410E0
2.967241571E0,1.570500135E-1,9.643050194E0,1.432950020E0,9.750201408E0
2.969202677E0,1.189500093E-1,9.720000267E0,1.471050024E0,9.831405925E0
2.971163725E0,4.050000105E-3,9.873000145E0,1.471050024E0,9.981990605E0
2.973124692E0,-3.299999982E-2,9.873000145E0,1.471050024E0,9.982044331E0
2.975085669E0,4.200000316E-2,9.949950218E0,1.471050024E0,1.005819375E1
2.977046403E0,4.200000316E-2,9.988050461E0,1.471050024E0,1.009588551E1
2.979007208E0,1.570500135E-1,1.002600002E1,1.471050024E0,1.013456113E1
2.980968285E0,1.189500093E-1,9.949950218E0,1.471050024E0,1.005880940E1
2.982929283E0,1.570500135E-1,9.873000145E0,1.471050024E0,9.983225167E0
2.984890214E0,1.570500135E-1,9.988050461E0,1.510050058E0,1.010277526E1
2.986851151E0,1.960500032E-1,9.910950661E0,1.432950020E0,1.001592354E1
2.988812296E0,3.490500152E-1,9.835050583E0,1.318050027E0,9.929114349E0
2.990773380E0,4.639500082E-1,9.796050072E0,1.318050027E0,9.895206036E0
2.992734412E0,4.260000288E-1,9.796050072E0,1.279950023E0,9.888495593E0
2.994695459E0,5.410500169E-1,9.681000710E0,1.279950023E0,9.780224022E0
2.996657292E0,6.550500393E-1,9.643050194E0,1.279950023E0,9.749655361E0
2.998618904E0,8.470500112E-1,9.604950905E0,1.279950023E0,9.726810765E0
3.000579665E0,1.039050102E0,9.490050316E0,1.318050027E0,9.637319959E0
3.002540675E0,1.077000022E0,9.451050758E0,1.203000069E0,9.587987205E0
3.004501403E0,1.230000019E0,9.412950516E0,1.165050030E0,9.564197772E0
3.006462214E0,1.306950092E0,9.336000443E0,1.203000069E0,9.503485254E0
3.008423021E0,1.306950092E0,9.298050880E0,1.050000072E0,9.447982264E0
3.010383829E0,1.384050012E0,9.259950638E0,1.050000072E0,9.421506270E0
3.012344771E0,1.498950124E0,9.259950638E0,1.165050030E0,9.452559381E0
3.014305673E0,1.575000048E0,9.220950127E0,1.165050030E0,9.426764448E0
3.016266421E0,1.651950121E0,9.259950638E0,1.126049995E0,9.473310594E0
3.018227214E0,1.690050125E0,9.298050880E0,1.126049995E0,9.517247932E0
3.020187969E0,1.767000079E0,9.298050880E0,1.165050030E0,9.535899592E0
3.022148742E0,1.729050040E0,9.336000443E0,1.087950110E0,9.556890381E0
3.024109466E0,1.767000079E0,9.336000443E0,1.087950110E0,9.563829201E0
3.026070204E0,1.843950033E0,9.375000000E0,1.203000069E0,9.630056380E0
3.028030844E0,1.804950118E0,9.412950516E0,1.203000069E0,9.659642411E0
3.029991512E0,1.729050040E0,9.451050758E0,1.279950023E0,9.692793536E0
3.031952452E0,1.690050125E0,9.490050316E0,1.240950108E0,9.718913601E0
3.033913298E0,1.651950121E0,9.528000832E0,1.279950023E0,9.754486717E0
3.035874234E0,1.651950121E0,9.490050316E0,1.318050027E0,9.722512539E0
3.037835144E0,1.651950121E0,9.451050758E0,1.279950023E0,9.679337359E0
3.039796069E0,1.690050125E0,9.375000000E0,1.240950108E0,9.606604582E0
3.041756990E0,1.729050040E0,9.375000000E0,1.318050027E0,9.623798362E0
3.043717754E0,1.729050040E0,9.259950638E0,1.279950023E0,9.506554156E0
3.045678550E0,1.690050125E0,9.183000565E0,1.279950023E0,9.424544597E0
3.047639494E0,1.651950121E0,9.106050491E0,1.318050027E0,9.348066679E0
3.049600394E0,1.690050125E0,9.067950249E0,1.279950023E0,9.312478897E0
3.051561366E0,1.690050125E0,9.030000687E0,1.240950108E0,9.270228638E0
3.053522317E0,1.690050125E0,8.991000175E0,1.279950023E0,9.237566002E0
3.055483440E0,1.690050125E0,8.991000175E0,1.279950023E0,9.237566002E0
3.057444495E0,1.651950121E0,8.991000175E0,1.395000100E0,9.247326567E0
3.059405532E0,1.575000048E0,8.953050613E0,1.395000100E0,9.196943281E0
3.061366574E0,1.537050128E0,8.991000175E0,1.395000100E0,9.227493296E0
3.063327656E0,1.537050128E0,8.991000175E0,1.432950020E0,9.233306721E0
3.065288726E0,1.459950089E0,8.991000175E0,1.432950020E0,9.220785443E0
3.067249816E0,1.306950092E0,8.914950371E0,1.356000066E0,9.111706472E0
3.069210923E0,1.345050097E0,9.067950249E0,1.432950020E0,9.278481947E0
3.071171455E0,1.384050012E0,9.106050491E0,1.356000066E0,9.309913327E0
3.073132156E0,1.345050097E0,9.106050491E0,1.318050027E0,9.298740301E0
3.075092891E0,1.153950095E0,8.953050613E0,1.279950023E0,9.117400297E0
3.077053616E0,1.192050099E0,9.183000565E0,1.318050027E0,9.353381136E0
3.079014603E0,1.306950092E0,9.183000565E0,1.395000100E0,9.379853047E0
3.080975524E0,1.306950092E0,9.220950127E0,1.432950020E0,9.422705850E0
3.082936447E0,1.230000019E0,9.259950638E0,1.395000100E0,9.444872214E0
3.084897370E0,1.192050099E0,9.336000443E0,1.395000100E0,9.514615756E0
3.086858428E0,1.153950095E0,9.375000000E0,1.432950020E0,9.553824971E0
3.088819447E0,1.077000022E0,9.412950516E0,1.432950020E0,9.582114183E0
3.090780395E0,9.619500637E-1,9.451050758E0,1.395000100E0,9.601756800E0
3.092741367E0,9.240000248E-1,9.451050758E0,1.356000066E0,9.592438306E0
3.094702282E0,9.619500637E-1,9.412950516E0,1.432950020E0,9.569865783E0
3.096663213E0,1.000050068E0,9.451050758E0,1.432950020E0,9.611233341E0
3.098624135E0,9.240000248E-1,9.490050316E0,1.432950020E0,9.642000664E0
3.100585059E0,8.089500666E-1,9.528000832E0,1.471050024E0,9.674770707E0
3.102546145E0,8.089500666E-1,9.565950394E0,1.471050024E0,9.712146792E0
3.104507163E0,7.699500322E-1,9.604950905E0,1.471050024E0,9.747404429E0
3.106467936E0,7.699500322E-1,9.643050194E0,1.432950020E0,9.779293730E0
3.108428781E0,7.320000529E-1,9.643050194E0,1.395000100E0,9.770888721E0
3.110389537E0,6.550500393E-1,9.643050194E0,1.318050027E0,9.754730312E0
3.112350319E0,5.790000558E-1,9.681000710E0,1.356000066E0,9.792637642E0
3.114310491E0,5.790000558E-1,9.681000710E0,1.356000066E0,9.792637642E0
3.116270849E0,5.020500422E-1,9.681000710E0,1.318050027E0,9.783204222E0
3.118231733E0,5.020500422E-1,9.643050194E0,1.279950023E0,9.740572024E0
3.120192462E0,4.639500082E-1,9.681000710E0,1.279950023E0,9.776261883E0
3.122153418E0,4.260000288E-1,9.681000710E0,1.279950023E0,9.774534404E0
3.124114308E0,4.260000288E-1,9.681000710E0,1.240950108E0,9.769503976E0
3.126075376E0,4.639500082E-1,9.643050194E0,1.165050030E0,9.724248466E0
3.128036389E0,3.870000243E-1,9.643050194E0,1.165050030E0,9.720881011E0
3.129997298E0,3.109500110E-1,9.643050194E0,1.165050030E0,9.718150468E0
3.131958237E0,3.109500110E-1,9.643050194E0,1.087950110E0,9.709209154E0
3.133919201E0,3.109500110E-1,9.643050194E0,1.050000072E0,9.705029990E0
3.135880158E0,3.109500110E-1,9.604950905E0,9.730500579E-1,9.659119950E0
3.137841271E0,2.719500065E-1,9.643050194E0,8.580000401E-1,9.684964528E0
3.139802327E0,1.960500032E-1,9.604950905E0,7.810500264E-1,9.638649108E0
3.141763228E0,1.960500032E-1,9.565950394E0,7.050000429E-1,9.593897414E0
3.143724175E0,1.570500135E-1,9.528000832E0,6.280500293E-1,9.549969183E0
3.145685049E0,1.189500093E-1,9.451050758E0,5.509500504E-1,9.467843234E0
3.147645945E0,1.189500093E-1,9.412950516E0,5.509500504E-1,9.429810840E0
3.149606737E0,8.100000024E-2,9.336000443E0,5.509500504E-1,9.352593823E0
3.151567560E0,8.100000024E-2,9.298050880E0,5.130000114E-1,9.312544238E0
3.153528499E0,4.200000316E-2,9.259950638E0,5.130000114E-1,9.274244919E0
3.155489404E0,-3.299999982E-2,9.183000565E0,5.130000114E-1,9.197377745E0
3.157450151E0,4.050000105E-3,9.220950127E0,5.130000114E-1,9.235210157E0
3.159410945E0,-1.099500060E-1,9.220950127E0,4.360500276E-1,9.231909330E0
3.161372019E0,-3.299999982E-2,9.259950638E0,5.130000114E-1,9.274208528E0
3.163333014E0,-3.299999982E-2,9.259950638E0,4.360500276E-1,9.270270462E0
3.165293791E0,-7.200000435E-2,9.259950638E0,4.750500321E-1,9.272407581E0
3.167254632E0,-3.299999982E-2,9.220950127E0,4.360500276E-1,9.231313550E0
3.169215568E0,-1.480500102E-1,9.183000565E0,4.360500276E-1,9.194539564E0
3.171176476E0,-1.870500147E-1,8.991000175E0,3.600000143E-1,9.000148436E0
3.173137358E0,-1.870500147E-1,9.030000687E0,5.509500504E-1,9.048726212E0
3.175098247E0,-7.200000435E-2,8.953050613E0,4.750500321E-1,8.965933962E0
3.177059041E0,-7.200000435E-2,8.953050613E0,4.360500276E-1,8.963952193E0
3.179019863E0,-1.480500102E-1,9.067950249E0,4.360500276E-1,9.079635463E0
3.180980802E0,-2.250000089E-1,9.183000565E0,4.750500321E-1,9.198032230E0
3.182941707E0,-3.019500077E-1,9.298050880E0,4.360500276E-1,9.313166143E0
3.184902288E0,-3.019500077E-1,9.412950516E0,3.979500234E-1,9.426196234E0
3.186862954E0,-3.400500119E-1,9.412950516E0,3.600000143E-1,9.425967931E0
3.188824055E0,-4.549500346E-1,9.412950516E0,3.979500234E-1,9.432336994E0
3.190785029E0,-2.629500031E-1,9.528000832E0,3.220500052E-1,9.537067618E0
3.192746529E0,-1.480500102E-1,9.565950394E0,2.449500114E-1,9.570231254E0
3.194707875E0,-1.480500102E-1,9.451050758E0,2.070000172E-1,9.454476625E0
3.196668511E0,-1.480500102E-1,9.259950638E0,2.070000172E-1,9.263447178E0
3.198629348E0,-1.099500060E-1,9.220950127E0,2.449500114E-1,9.224858305E0
3.200589971E0,-1.480500102E-1,9.145050049E0,2.449500114E-1,9.149527841E0
3.202550656E0,-7.200000435E-2,8.991000175E0,2.830500007E-1,8.995742630E0
3.204511574E0,-1.099500060E-1,8.953050613E0,2.830500007E-1,8.958198569E0
3.206472423E0,-1.099500060E-1,8.991000175E0,2.830500007E-1,8.996126414E0
3.208433399E0,-1.099500060E-1,8.953050613E0,2.830500007E-1,8.958198569E0
3.210394341E0,-7.200000435E-2,8.953050613E0,2.449500114E-1,8.956690225E0
3.212355441E0,-7.200000435E-2,8.914950371E0,2.070000172E-1,8.917643922E0
3.214316495E0,-7.200000435E-2,8.914950371E0,2.449500114E-1,8.918605531E0
3.216277397E0,4.200000316E-2,8.877000809E0,2.070000172E-1,8.879513296E0
3.218238343E0,4.200000316E-2,8.838000298E0,1.680000126E-1,8.839696673E0
3.220198902E0,8.100000024E-2,8.838000298E0,2.449500114E-1,8.841765139E0
3.222159574E0,4.200000316E-2,8.800050735E0,2.449500114E-1,8.803559363E0
3.224120314E0,4.050000105E-3,8.761950493E0,3.220500052E-1,8.767867988E0
3.226081034E0,-1.480500102E-1,8.761950493E0,2.830500007E-1,8.767771242E0
3.228041857E0,8.100000024E-2,8.800050735E0,3.220500052E-1,8.806314221E0
3.230002649E0,1.960500032E-1,8.761950493E0,2.830500007E-1,8.768713095E0
3.231963554E0,1.189500093E-1,8.722949982E0,1.300500035E-1,8.724730282E0
3.233924423E0,4.200000316E-2,8.685000420E0,1.680000126E-1,8.686726673E0
3.235885355E0,-3.299999982E-2,8.761950493E0,2.070000172E-1,8.764457453E0
3.237846269E0,1.570500135E-1,8.722949982E0,1.300500035E-1,8.725332893E0
3.239807194E0,1.570500135E-1,8.722949982E0,5.295000225E-2,8.724524330E0
3.241768116E0,1.570500135E-1,8.761950493E0,1.500000060E-2,8.763370707E0
3.243729034E0,2.719500065E-1,8.800050735E0,-2.205000073E-2,8.804279411E0
3.245689957E0,2.340000123E-1,8.722949982E0,-2.205000073E-2,8.726115894E0
3.247650701E0,1.960500032E-1,8.761950493E0,1.500000060E-2,8.764156379E0
3.249611497E0,2.340000123E-1,8.800050735E0,1.500000060E-2,8.803174084E0
3.251572127E0,3.109500110E-1,8.761950493E0,-2.205000073E-2,8.767494086E0
3.253532805E0,3.109500110E-1,8.761950493E0,5.295000225E-2,8.767626250E0
3.255493562E0,2.340000123E-1,8.761950493E0,9.195000678E-2,8.765556870E0
3.257454283E0,3.109500110E-1,8.800050735E0,1.300500035E-1,8.806503044E0
3.259415106E0,3.870000243E-1,8.800050735E0,1.300500035E-1,8.809516160E0
3.261375899E0,3.490500152E-1,8.800050735E0,9.195000678E-2,8.807450463E0
3.263336844E0,2.719500065E-1,8.800050735E0,1.680000126E-1,8.805854516E0
3.265297745E0,2.719500065E-1,8.800050735E0,1.680000126E-1,8.805854516E0
3.267258822E0,3.109500110E-1,8.838000298E0,2.830500007E-1,8.847997314E0
3.269219837E0,3.870000243E-1,8.838000298E0,2.449500114E-1,8.849859817E0
3.271180024E0,4.260000288E-1,8.914950371E0,3.220500052E-1,8.930931214E0
3.273140454E0,2.719500065E-1,8.914950371E0,3.600000143E-1,8.926359668E0
3.275101686E0,2.719500065E-1,8.914950371E0,4.360500276E-1,8.929750083E0
3.277062683E0,1.570500135E-1,8.914950371E0,4.750500321E-1,8.928979637E0
3.279023743E0,1.189500093E-1,8.991000175E0,5.899500251E-1,9.011119481E0
3.280984774E0,2.340000123E-1,9.030000687E0,5.509500504E-1,9.049818471E0
3.282945680E0,2.719500065E-1,9.106050491E0,5.899500251E-1,9.129192373E0
3.284906622E0,1.570500135E-1,9.106050491E0,6.280500293E-1,9.129034292E0
3.286867181E0,4.200000316E-2,9.220950127E0,7.050000429E-1,9.247957088E0
3.288827853E0,-3.299999982E-2,9.259950638E0,8.580000401E-1,9.299674128E0
