"Time (s)","Acceleration x (m/s^2)","Acceleration y (m/s^2)","Acceleration z (m/s^2)","Absolute acceleration (m/s^2)"
3.339034400E-2,1.960500032E-1,9.681000710E0,1.395000100E0,9.782956385E0
3.534977800E-2,1.189500093E-1,9.720000267E0,1.356000066E0,9.814850507E0
3.731195900E-2,1.570500135E-1,9.720000267E0,1.356000066E0,9.815386191E0
3.927284600E-2,1.570500135E-1,9.720000267E0,1.356000066E0,9.815386191E0
4.123411300E-2,1.960500032E-1,9.720000267E0,1.356000066E0,9.816087661E0
4.319480600E-2,1.189500093E-1,9.720000267E0,1.356000066E0,9.814850507E0
4.515566100E-2,1.960500032E-1,9.681000710E0,1.395000100E0,9.782956385E0
4.711659500E-2,1.570500135E-1,9.604950905E0,1.356000066E0,9.701468073E0
4.907750500E-2,1.570500135E-1,9.681000710E0,1.356000066E0,9.776767136E0
5.103843000E-2,8.100000024E-2,9.643050194E0,1.395000100E0,9.743767409E0
5.299935100E-2,4.200000316E-2,9.643050194E0,1.318050027E0,9.732802110E0
5.496028300E-2,4.200000316E-2,9.643050194E0,1.318050027E0,9.732802110E0
5.692120600E-2,4.200000316E-2,9.643050194E0,1.318050027E0,9.732802110E0
5.888244500E-2,4.050000105E-3,9.604950905E0,1.240950108E0,9.684784740E0
6.084359100E-2,-3.299999982E-2,9.565950394E0,1.279950023E0,9.651257327E0
6.280465700E-2,-1.480500102E-1,9.604950905E0,1.318050027E0,9.696094913E0
6.476574700E-2,-1.870500147E-1,9.565950394E0,1.240950108E0,9.647919559E0
6.672664100E-2,-2.250000089E-1,9.565950394E0,1.279950023E0,9.653823284E0
6.868759300E-2,-3.400500119E-1,9.565950394E0,1.240950108E0,9.652098120E0
7.064855500E-2,-3.019500077E-1,9.528000832E0,1.279950023E0,9.618328634E0
7.260951400E-2,-4.170000255E-1,9.565950394E0,1.279950023E0,9.660205382E0
7.457043200E-2,-4.170000255E-1,9.490050316E0,1.279950023E0,9.585051699E0
7.653136200E-2,-5.320500135E-1,9.528000832E0,1.356000066E0,9.638703919E0
7.849246800E-2,-5.700000525E-1,9.528000832E0,1.318050027E0,9.635608739E0
8.045351900E-2,-6.079500318E-1,9.565950394E0,1.318050027E0,9.675446556E0
8.241442100E-2,-6.469500065E-1,9.565950394E0,1.356000066E0,9.683216791E0
8.437536700E-2,-7.230000496E-1,9.565950394E0,1.318050027E0,9.683356437E0
8.633610600E-2,-7.620000243E-1,9.604950905E0,1.395000100E0,9.735591980E0
8.829690600E-2,-7.999500632E-1,9.643050194E0,1.432950020E0,9.781701432E0
9.025766000E-2,-8.380500674E-1,9.604950905E0,1.432950020E0,9.747346078E0
9.221843400E-2,-9.150000215E-1,9.681000710E0,1.432950020E0,9.829157926E0
9.417951700E-2,-9.529500604E-1,9.681000710E0,1.395000100E0,9.827304505E0
9.614050900E-2,-9.919500351E-1,9.720000267E0,1.432950020E0,9.875004599E0
9.810124100E-2,-1.030050039E0,9.757950783E0,1.432950020E0,9.916246887E0
1.000620500E-1,-1.106999993E0,9.757950783E0,1.432950020E0,9.924535164E0
1.020226910E-1,-1.144950032E0,9.796050072E0,1.432950020E0,9.966285835E0
1.039833710E-1,-1.144950032E0,9.835050583E0,1.432950020E0,1.000462275E1
1.059444700E-1,-1.183050036E0,9.835050583E0,1.471050024E0,1.001458015E1
1.079054460E-1,-1.183050036E0,9.873000145E0,1.432950020E0,1.004634685E1
1.098664060E-1,-1.183050036E0,9.873000145E0,1.432950020E0,1.004634685E1
1.118273710E-1,-1.222050071E0,9.910950661E0,1.471050024E0,1.009377717E1
1.137886470E-1,-1.260000110E0,1.002600002E1,1.471050024E0,1.021137919E1
1.157498310E-1,-1.260000110E0,9.988050461E0,1.471050024E0,1.017412111E1
1.177107100E-1,-1.260000110E0,1.006500053E1,1.471050024E0,1.024967435E1
1.196716790E-1,-1.297950029E0,1.010295010E1,1.432950020E0,1.028628313E1
1.216324140E-1,-1.297950029E0,1.014105034E1,1.471050024E0,1.032906406E1
1.235932170E-1,-1.336950064E0,1.021800041E1,1.471050024E0,1.040956080E1
1.255541250E-1,-1.413000107E0,1.025595093E1,1.432950020E0,1.045152833E1
1.275149950E-1,-1.413000107E0,1.033305073E1,1.395000100E0,1.052209732E1
1.294757930E-1,-1.413000107E0,1.041000080E1,1.432950020E0,1.060273699E1
1.314366120E-1,-1.452000022E0,1.044795036E1,1.395000100E0,1.064020658E1
1.333976870E-1,-1.528050065E0,1.048605061E1,1.395000100E0,1.068822808E1
1.353586870E-1,-1.489950061E0,1.052505016E1,1.279950023E0,1.070676908E1
1.373196120E-1,-1.567050099E0,1.056300068E1,1.318050027E0,1.075964150E1
1.392805490E-1,-1.567050099E0,1.060095024E1,1.318050027E0,1.079689992E1
1.412415140E-1,-1.605000019E0,1.071600056E1,1.318050027E0,1.091539962E1
1.432024700E-1,-1.642950058E0,1.071600056E1,1.279950023E0,1.091651157E1
1.451635680E-1,-1.720050097E0,1.071600056E1,1.279950023E0,1.092838105E1
1.471246240E-1,-1.681950092E0,1.075500011E1,1.318050027E0,1.096522865E1
1.490855540E-1,-1.681950092E0,1.071600056E1,1.279950023E0,1.092244918E1
1.510465010E-1,-1.681950092E0,1.075500011E1,1.279950023E0,1.096071419E1
1.530075540E-1,-1.642950058E0,1.067805004E1,1.240950108E0,1.087474113E1
1.549685760E-1,-1.528050065E0,1.075500011E1,1.203000069E0,1.092941781E1
1.569294830E-1,-1.642950058E0,1.083105087E1,1.240950108E0,1.102501270E1
1.588904240E-1,-1.567050099E0,1.083105087E1,1.203000069E0,1.100974651E1
1.608512140E-1,-1.605000019E0,1.083105087E1,1.279950023E0,1.102388136E1
1.628120450E-1,-1.567050099E0,1.083105087E1,1.240950108E0,1.101395779E1
1.647728030E-1,-1.413000107E0,1.083105087E1,1.279950023E0,1.099756811E1
1.667335830E-1,-1.413000107E0,1.083105087E1,1.240950108E0,1.099309736E1
1.686948450E-1,-1.375050068E0,1.079295063E1,1.203000069E0,1.094649511E1
1.706559660E-1,-1.375050068E0,1.087005043E1,1.203000069E0,1.102252096E1
1.726170510E-1,-1.183050036E0,1.087005043E1,1.240950108E0,1.100443369E1
1.745781360E-1,-1.106999993E0,1.090800095E1,1.165050030E0,1.102575509E1
1.765392120E-1,-1.030050039E0,1.090800095E1,1.203000069E0,1.102237256E1
1.785002900E-1,-9.919500351E-1,1.090800095E1,1.011000037E0,1.099957138E1
1.804615460E-1,-9.919500351E-1,1.098495007E1,9.730500579E-1,1.107248478E1
1.824227490E-1,-8.770500422E-1,1.090800095E1,8.580000401E-1,1.097678758E1
1.843838510E-1,-6.850500107E-1,1.094595051E1,1.203000069E0,1.103314711E1
1.863449820E-1,-5.700000525E-1,1.094595051E1,1.471050024E0,1.105905605E1
1.883058690E-1,-4.930500090E-1,1.102305031E1,1.510050058E0,1.113692002E1
1.902668280E-1,-4.549500346E-1,1.094595051E1,1.471050024E0,1.105372337E1
1.922279240E-1,-4.549500346E-1,1.098495007E1,1.471050024E0,1.109234401E1
1.941889800E-1,-4.170000255E-1,1.106100082E1,1.395000100E0,1.115641759E1
1.961500660E-1,-4.170000255E-1,1.106100082E1,1.318050027E0,1.114705720E1
1.981111390E-1,-3.780000210E-1,1.110000038E1,1.279950023E0,1.117994475E1
2.000722170E-1,-3.400500119E-1,1.113795090E1,1.318050027E0,1.122082172E1
2.020332930E-1,-3.400500119E-1,1.110000038E1,1.395000100E0,1.119248264E1
2.039945500E-1,-2.629500031E-1,1.102305031E1,1.356000066E0,1.110925366E1
2.059557540E-1,-2.250000089E-1,1.106100082E1,1.356000066E0,1.114608005E1
2.079167500E-1,-2.629500031E-1,1.102305031E1,1.356000066E0,1.110925366E1
2.098778180E-1,-3.400500119E-1,1.102305031E1,1.432950020E0,1.112099896E1
2.118385810E-1,-3.400500119E-1,1.094595051E1,1.395000100E0,1.103972336E1
2.137994330E-1,-3.400500119E-1,1.094595051E1,1.395000100E0,1.103972336E1
2.157605480E-1,-3.400500119E-1,1.087005043E1,1.318050027E0,1.095494803E1
2.177215850E-1,-3.780000210E-1,1.087005043E1,1.356000066E0,1.096082189E1
2.196828250E-1,-3.400500119E-1,1.083105087E1,1.356000066E0,1.092089892E1
2.216440230E-1,-3.780000210E-1,1.075500011E1,1.356000066E0,1.084673442E1
2.236053940E-1,-4.170000255E-1,1.063995075E1,1.395000100E0,1.073910920E1
2.255667150E-1,-4.549500346E-1,1.060095024E1,1.356000066E0,1.069700246E1
2.275277960E-1,-4.549500346E-1,1.052505016E1,1.356000066E0,1.062178877E1
2.294889480E-1,-4.930500090E-1,1.041000080E1,1.356000066E0,1.050951717E1
2.314499890E-1,-5.320500135E-1,1.037100029E1,1.395000100E0,1.047791723E1
2.334110790E-1,-5.320500135E-1,1.037100029E1,1.356000066E0,1.047279621E1
2.353722870E-1,-6.079500318E-1,1.029495049E1,1.395000100E0,1.040680710E1
2.373334610E-1,-6.469500065E-1,1.018005085E1,1.356000066E0,1.029032146E1
2.392945220E-1,-7.230000496E-1,1.018005085E1,1.356000066E0,1.029538249E1
2.412556170E-1,-9.529500604E-1,1.006500053E1,1.318050027E0,1.019556793E1
2.432164960E-1,-8.380500674E-1,1.006500053E1,1.432950020E0,1.020097591E1
2.451774490E-1,-8.380500674E-1,1.002600002E1,1.356000066E0,1.015193285E1
2.471387270E-1,-9.529500604E-1,9.949950218E0,1.318050027E0,1.008200769E1
2.490999090E-1,-8.380500674E-1,9.910950661E0,1.356000066E0,1.003832691E1
2.510611480E-1,-7.620000243E-1,9.910950661E0,1.318050027E0,1.002720514E1
2.530223710E-1,-7.620000243E-1,9.835050583E0,1.279950023E0,9.947217504E0
2.549835740E-1,-7.230000496E-1,9.835050583E0,1.165050030E0,9.930170724E0
2.569448030E-1,-7.620000243E-1,9.796050072E0,1.203000069E0,9.899012588E0
2.589059000E-1,-7.620000243E-1,9.835050583E0,1.126049995E0,9.928587644E0
2.608670360E-1,-7.620000243E-1,9.757950783E0,1.087950110E0,9.847938005E0
2.628285970E-1,-7.620000243E-1,9.757950783E0,1.050000072E0,9.843817738E0
2.647900340E-1,-6.850500107E-1,9.757950783E0,1.126049995E0,9.846567198E0
2.667509100E-1,-6.850500107E-1,9.720000267E0,1.087950110E0,9.804658798E0
2.687119540E-1,-6.850500107E-1,9.720000267E0,1.050000072E0,9.800520336E0
2.706730360E-1,-6.469500065E-1,9.720000267E0,1.011000037E0,9.793828188E0
2.726341060E-1,-5.320500135E-1,9.720000267E0,1.011000037E0,9.786909803E0
2.745951400E-1,-4.549500346E-1,9.720000267E0,1.050000072E0,9.787128531E0
2.765561850E-1,-4.930500090E-1,9.643050194E0,1.050000072E0,9.712569974E0
2.785170770E-1,-4.549500346E-1,9.643050194E0,1.050000072E0,9.710710413E0
2.804780210E-1,-5.320500135E-1,9.604950905E0,1.011000037E0,9.672656314E0
2.824389840E-1,-4.930500090E-1,9.604950905E0,1.165050030E0,9.687905954E0
2.843999420E-1,-4.170000255E-1,9.490050316E0,1.395000100E0,9.601092089E0
2.863605000E-1,-4.170000255E-1,9.490050316E0,1.395000100E0,9.601092089E0
2.883211750E-1,-3.400500119E-1,9.451050758E0,1.395000100E0,9.559498927E0
2.902819260E-1,-3.400500119E-1,9.375000000E0,1.432950020E0,9.489973908E0
2.922426780E-1,-3.019500077E-1,9.298050880E0,1.395000100E0,9.406962807E0
2.942038110E-1,-2.629500031E-1,9.259950638E0,1.432950020E0,9.373855892E0
2.961648320E-1,-2.629500031E-1,9.220950127E0,1.395000100E0,9.329581407E0
2.981258740E-1,-1.480500102E-1,9.183000565E0,1.395000100E0,9.289534082E0
3.000869090E-1,-1.099500060E-1,9.106050491E0,1.395000100E0,9.212940347E0
3.020481450E-1,-1.099500060E-1,8.991000175E0,1.356000066E0,9.093344233E0
3.040093420E-1,-1.099500060E-1,8.991000175E0,1.432950020E0,9.105136952E0
3.059704440E-1,-3.299999982E-2,8.877000809E0,1.471050024E0,8.998123167E0
3.079315740E-1,4.200000316E-2,8.761950493E0,1.471050024E0,8.884679432E0
3.098922820E-1,4.200000316E-2,8.722949982E0,1.432950020E0,8.839964148E0
3.118531130E-1,-7.200000435E-2,8.647050858E0,1.471050024E0,8.771582566E0
3.138140510E-1,-1.099500060E-1,8.608050346E0,1.471050024E0,8.733533531E0
3.157749570E-1,2.340000123E-1,8.532000542E0,1.510050058E0,8.667758674E0
3.177356590E-1,3.109500110E-1,8.493000031E0,1.510050058E0,8.631801122E0
3.196964210E-1,3.490500152E-1,8.416950226E0,1.471050024E0,8.551659207E0
3.216572350E-1,3.490500152E-1,8.416950226E0,1.510050058E0,8.558454194E0
3.236180340E-1,3.490500152E-1,8.377950668E0,1.585950017E0,8.533881343E0
3.255789280E-1,3.490500152E-1,8.302050591E0,1.663050056E0,8.474173435E0
3.275397980E-1,4.639500082E-1,8.302050591E0,1.663050056E0,8.479683314E0
3.295009110E-1,4.639500082E-1,8.224950790E0,1.740000129E0,8.419778237E0
3.314619520E-1,5.410500169E-1,8.187000275E0,1.701000094E0,8.379326342E0
3.334234410E-1,5.410500169E-1,8.263050079E0,1.740000129E0,8.461579769E0
3.353847980E-1,6.940500140E-1,8.224950790E0,1.777950048E0,8.443496154E0
3.373459480E-1,7.699500322E-1,8.224950790E0,1.855050087E0,8.466631525E0
3.393071700E-1,8.089500666E-1,8.302050591E0,1.816050053E0,8.536772342E0
3.412679060E-1,9.240000248E-1,8.340000153E0,1.855050087E0,8.593636565E0
3.432287850E-1,9.619500637E-1,8.377950668E0,1.893000126E0,8.642849924E0
3.451896690E-1,9.619500637E-1,8.455050468E0,1.930950046E0,8.725926566E0
3.471505520E-1,1.077000022E0,8.532000542E0,1.930950046E0,8.813826091E0
3.491114950E-1,1.230000019E0,8.569950104E0,1.969950080E0,8.879056715E0
3.510724430E-1,1.269000053E0,8.608050346E0,2.046000004E0,8.938400747E0
3.530337220E-1,1.306950092E0,8.647050858E0,2.122950077E0,8.999251308E0
3.549949040E-1,1.306950092E0,8.722949982E0,2.122950077E0,9.072204360E0
3.569563230E-1,1.306950092E0,8.761950493E0,2.161050081E0,9.118663961E0
3.589176730E-1,1.345050097E0,8.838000298E0,2.161050081E0,9.197257552E0
3.608788940E-1,1.384050012E0,8.877000809E0,2.200050116E0,9.249700444E0
3.628401460E-1,1.422000051E0,8.914950371E0,2.275950193E0,9.310122101E0
3.648013280E-1,1.384050012E0,8.953050613E0,2.275950193E0,9.340913178E0
3.667625310E-1,1.230000019E0,8.914950371E0,2.353049994E0,9.301939821E0
3.687235860E-1,1.345050097E0,8.953050613E0,2.545050144E0,9.404443380E0
3.706846840E-1,1.882050037E0,8.991000175E0,2.430000067E0,9.501847022E0
3.726456080E-1,2.074050188E0,8.991000175E0,2.506050110E0,9.561383555E0
3.746065930E-1,1.882050037E0,9.106050491E0,2.583000183E0,9.650604014E0
3.765674610E-1,2.035050154E0,9.183000565E0,2.659050226E0,9.774429733E0
3.785283630E-1,2.111999989E0,9.259950638E0,2.545050144E0,9.832828179E0
3.804894690E-1,2.074050188E0,9.336000443E0,2.620950222E0,9.916247703E0
3.824505150E-1,1.996950150E0,9.336000443E0,2.545050144E0,9.880586744E0
3.844116260E-1,2.227050066E0,9.451050758E0,2.698050022E0,1.007777686E1
3.863727290E-1,2.380050182E0,9.375000000E0,2.698050022E0,1.004165015E1
3.883337580E-1,2.457000017E0,9.412950516E0,2.736000061E0,1.010574999E1
3.902948080E-1,2.265000105E0,9.412950516E0,2.736000061E0,1.006079317E1
3.922557540E-1,2.457000017E0,9.528000832E0,2.773950100E0,1.022323080E1
3.942167310E-1,2.572050095E0,9.412950516E0,2.698050022E0,1.012415690E1
3.961783440E-1,2.686950207E0,9.412950516E0,2.698050022E0,1.015395552E1
3.981397530E-1,2.686950207E0,9.412950516E0,2.698050022E0,1.015395552E1
4.001009550E-1,2.686950207E0,9.375000000E0,2.659050226E0,1.010845560E1
4.020622170E-1,2.725050211E0,9.336000443E0,2.506050110E0,1.004326093E1
4.040232620E-1,2.265000105E0,9.145050049E0,1.279950023E0,9.507914489E0
4.059843710E-1,2.380050182E0,9.183000565E0,1.548000097E0,9.611890685E0
4.079456120E-1,2.917050123E0,9.106050491E0,2.046000004E0,9.778315447E0
4.099068210E-1,2.992950201E0,9.106050491E0,2.353049994E0,9.869891120E0
4.118682810E-1,2.955000162E0,9.145050049E0,2.430000067E0,9.913065453E0
4.138296670E-1,2.955000162E0,9.183000565E0,2.467950106E0,9.957424519E0
4.157908270E-1,2.992950201E0,9.259950638E0,2.353049994E0,1.001205678E1
4.177520540E-1,2.955000162E0,9.336000443E0,2.161050081E0,1.002811386E1
4.197131340E-1,2.992950201E0,9.298050880E0,2.085000038E0,9.987929027E0
4.216742370E-1,2.992950201E0,9.336000443E0,2.085000038E0,1.002326695E1
4.236351290E-1,3.070050240E0,9.375000000E0,2.008050203E0,1.006717930E1
4.255960830E-1,2.955000162E0,9.451050758E0,1.930950046E0,1.008875386E1
4.275572250E-1,2.992950201E0,9.412950516E0,1.777950048E0,1.003605972E1
4.295183120E-1,2.917050123E0,9.412950516E0,1.701000094E0,1.000031100E1
4.314797330E-1,2.878050089E0,9.490050316E0,1.701000094E0,1.006169114E1
4.334410660E-1,2.802000046E0,9.490050316E0,1.663050056E0,1.003384247E1
4.354020550E-1,2.764050245E0,9.565950394E0,1.624950051E0,1.008899615E1
4.373631450E-1,2.610000134E0,9.604950905E0,1.624950051E0,1.008502084E1
4.393242640E-1,2.572050095E0,9.604950905E0,1.548000097E0,1.006314205E1
4.412853740E-1,2.419050217E0,9.643050194E0,1.510050058E0,1.005586755E1
4.432465850E-1,2.265000105E0,9.720000267E0,1.510050058E0,1.009400227E1
4.452077630E-1,2.149950027E0,9.796050072E0,1.510050058E0,1.014224498E1
4.471688690E-1,2.035050154E0,9.835050583E0,1.395000100E0,1.013980643E1
4.491299960E-1,1.843950033E0,9.910950661E0,1.356000066E0,1.017181552E1
4.510908840E-1,1.729050040E0,1.002600002E1,1.240950108E0,1.024940231E1
4.530518420E-1,1.537050128E0,1.010295010E1,1.203000069E0,1.028976836E1
4.550125600E-1,1.384050012E0,1.018005085E1,1.050000072E0,1.032722276E1
4.569733620E-1,1.306950092E0,1.033305073E1,1.126049995E0,1.047607009E1
4.589346200E-1,1.230000019E0,1.037100029E1,1.240950108E0,1.051715286E1
4.608957450E-1,1.077000022E0,1.052505016E1,1.356000066E0,1.066655268E1
4.628568140E-1,9.240000248E-1,1.056300068E1,1.240950108E0,1.067570684E1
4.648179000E-1,7.699500322E-1,1.067805004E1,1.126049995E0,1.076482997E1
4.667789840E-1,6.940500140E-1,1.075500011E1,1.050000072E0,1.082839938E1
4.687400630E-1,6.169500351E-1,1.079295063E1,1.011000037E0,1.085774064E1
4.707002390E-1,5.410500169E-1,1.090800095E1,9.349500537E-1,1.096135719E1
4.726606790E-1,3.490500152E-1,1.087005043E1,8.200500607E-1,1.090652623E1
4.746216840E-1,2.340000123E-1,1.090800095E1,7.810500264E-1,1.093843132E1
4.765825230E-1,1.960500032E-1,1.090800095E1,6.280500293E-1,1.092782536E1
4.785435250E-1,8.100000024E-2,1.087005043E1,5.899500251E-1,1.088634918E1
4.805044650E-1,8.100000024E-2,1.083105087E1,5.899500251E-1,1.084740822E1
4.824653860E-1,-3.299999982E-2,1.083105087E1,6.660000086E-1,1.085155786E1
4.844263130E-1,-3.299999982E-2,1.083105087E1,7.810500264E-1,1.085922608E1
4.863874150E-1,-1.480500102E-1,1.079295063E1,6.660000086E-1,1.081449297E1
4.883484650E-1,-1.480500102E-1,1.079295063E1,5.899500251E-1,1.081007600E1
4.903095320E-1,-1.870500147E-1,1.079295063E1,4.360500276E-1,1.080337497E1
4.922705730E-1,-1.870500147E-1,1.083105087E1,3.979500234E-1,1.083997301E1
4.942316550E-1,-3.400500119E-1,1.079295063E1,3.979500234E-1,1.080563656E1
4.961927250E-1,-4.549500346E-1,1.083105087E1,3.220500052E-1,1.084538421E1
4.981539830E-1,-5.700000525E-1,1.079295063E1,2.449500114E-1,1.081076703E1
5.001151860E-1,-7.230000496E-1,1.087005043E1,2.830500007E-1,1.089774485E1
5.020751820E-1,-6.850500107E-1,1.087005043E1,3.220500052E-1,1.089637582E1
5.040355490E-1,-8.770500422E-1,1.087005043E1,3.600000143E-1,1.091131583E1
5.059967470E-1,-9.150000215E-1,1.087005043E1,2.449500114E-1,1.091124291E1
5.079577010E-1,-7.620000243E-1,1.090800095E1,3.220500052E-1,1.093932561E1
5.099186200E-1,-9.150000215E-1,1.098495007E1,4.360500276E-1,1.103161333E1
5.118795490E-1,-9.529500604E-1,1.102305031E1,3.979500234E-1,1.107131953E1
5.138404760E-1,-1.030050039E0,1.106100082E1,3.600000143E-1,1.111469038E1
5.158014000E-1,-1.030050039E0,1.110000038E1,3.600000143E-1,1.115350221E1
5.177629980E-1,-1.068000078E0,1.117605019E1,3.600000143E-1,1.123273439E1
5.197243980E-1,-1.144950032E0,1.125300026E1,2.830500007E-1,1.131463843E1
5.216854210E-1,-1.030050039E0,1.129095078E1,3.220500052E-1,1.134241106E1
5.236465540E-1,-1.106999993E0,1.136805058E1,2.830500007E-1,1.142532889E1
5.256067600E-1,-1.106999993E0,1.144395065E1,2.830500007E-1,1.150085096E1
5.275672410E-1,-1.106999993E0,1.148295021E1,2.830500007E-1,1.153965822E1
5.295291400E-1,-9.919500351E-1,1.159800053E1,2.449500114E-1,1.164291981E1
5.314906240E-1,-1.030050039E0,1.163595009E1,2.830500007E-1,1.168488146E1
5.334518120E-1,-9.529500604E-1,1.167405033E1,2.070000172E-1,1.171470930E1
5.354130870E-1,-9.919500351E-1,1.171305084E1,2.449500114E-1,1.175753058E1
5.373738040E-1,-9.150000215E-1,1.167405033E1,1.680000126E-1,1.171105888E1
5.393346600E-1,-9.150000215E-1,1.167405033E1,1.300500035E-1,1.171057595E1
5.412957740E-1,-8.770500422E-1,1.163595009E1,1.300500035E-1,1.166968141E1
5.432568120E-1,-8.380500674E-1,1.159800053E1,1.300500035E-1,1.162896630E1
5.452177160E-1,-8.380500674E-1,1.155900097E1,1.300500035E-1,1.159007094E1
5.471786600E-1,-7.999500632E-1,1.144395065E1,5.295000225E-2,1.147199766E1
5.491400800E-1,-7.620000243E-1,1.144395065E1,1.500000060E-2,1.146930144E1
5.511013880E-1,-6.850500107E-1,1.140600014E1,5.295000225E-2,1.142667652E1
5.530622010E-1,-6.079500318E-1,1.132905006E1,9.195000678E-2,1.134572313E1
5.550231590E-1,-5.700000525E-1,1.125300026E1,5.295000225E-2,1.126755158E1
5.569842550E-1,-5.320500135E-1,1.129095078E1,-2.205000073E-2,1.130350091E1
5.589453110E-1,-4.549500346E-1,1.121400070E1,1.500000060E-2,1.122323555E1
5.609066060E-1,-3.780000210E-1,1.113795090E1,-2.205000073E-2,1.114438515E1
5.628678070E-1,-3.019500077E-1,1.113795090E1,-9.900000691E-2,1.114248289E1
5.648285030E-1,-2.250000089E-1,1.102305031E1,-1.369500011E-1,1.102619691E1
5.667893470E-1,-1.870500147E-1,1.098495007E1,-1.759500057E-1,1.098795131E1
5.687501490E-1,-1.099500060E-1,1.083105087E1,-1.369500011E-1,1.083247466E1
5.707109630E-1,-7.200000435E-2,1.075500011E1,-1.759500057E-1,1.075668024E1
5.726717050E-1,-7.200000435E-2,1.063995075E1,-9.900000691E-2,1.064065491E1
5.746324820E-1,-3.299999982E-2,1.048605061E1,-1.369500011E-1,1.048699679E1
5.765936090E-1,4.050000105E-3,1.041000080E1,-1.369500011E-1,1.041090238E1
5.785546340E-1,4.050000105E-3,1.029495049E1,-1.759500057E-1,1.029645474E1
5.805156750E-1,8.100000024E-2,1.018005085E1,-9.900000691E-2,1.018085445E1
5.824767110E-1,1.570500135E-1,1.006500053E1,-1.369500011E-1,1.006715728E1
5.844379650E-1,1.960500032E-1,9.949950218E0,-9.900000691E-2,9.952373885E0
5.863991620E-1,2.340000123E-1,9.796050072E0,-6.105000153E-2,9.799034652E0
5.883602190E-1,2.719500065E-1,9.757950783E0,-6.105000153E-2,9.761930515E0
5.903213180E-1,2.719500065E-1,9.643050194E0,-2.205000073E-2,9.646909352E0
5.922822560E-1,3.109500110E-1,9.565950394E0,-9.900000691E-2,9.571514919E0
5.942432410E-1,4.260000288E-1,9.451050758E0,5.295000225E-2,9.460794901E0
5.962041730E-1,3.109500110E-1,9.298050880E0,-6.105000153E-2,9.303449209E0
5.981651070E-1,3.490500152E-1,9.183000565E0,-1.759500057E-1,9.191316211E0
6.001260280E-1,3.490500152E-1,9.145050049E0,-1.369500011E-1,9.152733560E0
6.020869530E-1,4.260000288E-1,9.106050491E0,-1.369500011E-1,9.117038273E0
6.040478300E-1,4.639500082E-1,9.067950249E0,-2.205000073E-2,9.079837968E0
6.060087220E-1,3.870000243E-1,8.953050613E0,-6.105000153E-2,8.961618794E0
6.079694480E-1,3.870000243E-1,8.800050735E0,-2.520000041E-1,8.812160119E0
6.099302700E-1,5.020500422E-1,8.685000420E0,-1.759500057E-1,8.701278351E0
6.118915250E-1,5.410500169E-1,8.685000420E0,-6.105000153E-2,8.702051167E0
6.138526530E-1,5.020500422E-1,8.722949982E0,5.295000225E-2,8.737546242E0
6.158134070E-1,5.020500422E-1,8.761950493E0,9.195000678E-2,8.776803831E0
6.177742700E-1,5.020500422E-1,8.685000420E0,1.500000060E-2,8.699512143E0
6.197355180E-1,5.410500169E-1,8.569950104E0,-1.369500011E-1,8.588104285E0
6.216966530E-1,5.410500169E-1,8.532000542E0,-2.520000041E-1,8.552851710E0
6.236584410E-1,5.410500169E-1,8.493000031E0,-4.440000355E-1,8.521790931E0
6.256200380E-1,6.169500351E-1,8.493000031E0,-4.819500148E-1,8.529006547E0
6.275808460E-1,5.790000558E-1,8.455050468E0,-5.970000029E-1,8.495853606E0
6.295418860E-1,6.169500351E-1,8.493000031E0,-5.209500194E-1,8.531299185E0
6.315021180E-1,5.410500169E-1,8.569950104E0,-4.440000355E-1,8.598483351E0
6.334625830E-1,5.410500169E-1,8.608050346E0,-3.670500219E-1,8.632843773E0
6.354235380E-1,3.870000243E-1,8.685000420E0,-4.060500264E-1,8.703095882E0
6.373843500E-1,4.260000288E-1,8.722949982E0,-4.819500148E-1,8.746634108E0
6.393453370E-1,4.639500082E-1,8.722949982E0,-5.590500236E-1,8.753150457E0
6.413062730E-1,4.639500082E-1,8.722949982E0,-6.360000372E-1,8.758401797E0
6.432670480E-1,5.020500422E-1,8.722949982E0,-6.360000372E-1,8.760502650E0
6.452278470E-1,3.490500152E-1,8.455050468E0,-1.018950105E0,8.523378066E0
6.471889260E-1,4.260000288E-1,8.608050346E0,-9.420000315E-1,8.669911813E0
6.491499220E-1,4.639500082E-1,8.722949982E0,-4.819500148E-1,8.748564557E0
6.511108340E-1,4.260000288E-1,8.877000809E0,5.295000225E-2,8.887374364E0
6.530717700E-1,2.719500065E-1,8.991000175E0,1.300500035E-1,8.996052132E0
6.550327400E-1,4.050000105E-3,9.030000687E0,5.295000225E-2,9.030156837E0
6.569936960E-1,-1.480500102E-1,8.991000175E0,-3.289500177E-1,8.998233775E0
6.589547940E-1,4.050000105E-3,8.877000809E0,-9.810000658E-1,8.931042542E0
6.609158500E-1,1.960500032E-1,8.761950493E0,-1.363950014E0,8.869643267E0
6.628771110E-1,2.340000123E-1,8.761950493E0,-1.287000060E0,8.859057602E0
6.648383110E-1,1.960500032E-1,8.800050735E0,-1.057050109E0,8.865477059E0
6.667991690E-1,1.189500093E-1,8.877000809E0,-9.810000658E-1,8.931833719E0
6.687601410E-1,4.200000316E-2,8.838000298E0,-9.040500522E-1,8.884217453E0
6.707213700E-1,4.050000105E-3,8.838000298E0,-9.420000315E-1,8.888061078E0
6.726825230E-1,-7.200000435E-2,8.838000298E0,-9.420000315E-1,8.888351777E0
6.746434080E-1,-7.200000435E-2,8.914950371E0,-9.810000658E-1,8.969051524E0
6.766043710E-1,-1.480500102E-1,8.914950371E0,-9.420000315E-1,8.965802975E0
6.785653380E-1,-2.250000089E-1,8.953050613E0,-1.018950105E0,9.013656284E0
6.805263000E-1,-3.019500077E-1,8.914950371E0,-9.810000658E-1,8.973843939E0
6.824872160E-1,-3.019500077E-1,8.953050613E0,-1.057050109E0,9.020290684E0
6.844481460E-1,-3.019500077E-1,8.877000809E0,-1.057050109E0,8.944812580E0
6.864090680E-1,-3.400500119E-1,8.877000809E0,-1.018950105E0,8.941758031E0
6.883699920E-1,-4.170000255E-1,8.914950371E0,-1.096050024E0,8.991749262E0
6.903310770E-1,-3.780000210E-1,8.877000809E0,-1.096050024E0,8.952393704E0
6.922920950E-1,-3.780000210E-1,8.800050735E0,-1.096050024E0,8.876097263E0
6.942528670E-1,-3.780000210E-1,8.877000809E0,-1.096050024E0,8.952393704E0
6.962137120E-1,-4.549500346E-1,8.800050735E0,-1.096050024E0,8.879707097E0
6.981747830E-1,-4.930500090E-1,8.800050735E0,-1.134000063E0,8.886503666E0
7.001357870E-1,-5.320500135E-1,8.761950493E0,-1.096050024E0,8.846252275E0
7.020970530E-1,-5.700000525E-1,8.722949982E0,-1.096050024E0,8.809998984E0
7.040582450E-1,-4.930500090E-1,8.722949982E0,-1.134000063E0,8.810159524E0
7.060191230E-1,-5.320500135E-1,8.685000420E0,-1.171950102E0,8.779850599E0
7.079800930E-1,-5.700000525E-1,8.647050858E0,-1.171950102E0,8.744704434E0
7.099410080E-1,-6.079500318E-1,8.608050346E0,-1.134000063E0,8.703682563E0
7.119019390E-1,-6.079500318E-1,8.569950104E0,-1.210950017E0,8.676407550E0
7.138630300E-1,-6.469500065E-1,8.493000031E0,-1.171950102E0,8.597852108E0
7.158240810E-1,-6.850500107E-1,8.416950226E0,-1.134000063E0,8.520581011E0
7.177851630E-1,-6.079500318E-1,8.377950668E0,-1.134000063E0,8.476179374E0
7.197462350E-1,-6.850500107E-1,8.340000153E0,-1.171950102E0,8.449755210E0
7.217073130E-1,-6.469500065E-1,8.263050079E0,-1.171950102E0,8.370782996E0
7.236683890E-1,-6.079500318E-1,8.224950790E0,-1.134000063E0,8.324984978E0
7.256296410E-1,-6.850500107E-1,8.224950790E0,-1.134000063E0,8.330970241E0
7.275908450E-1,-7.230000496E-1,8.148000717E0,-1.171950102E0,8.263541117E0
7.295522610E-1,-6.850500107E-1,8.110050201E0,-1.249050021E0,8.234217251E0
7.315136140E-1,-7.230000496E-1,8.110050201E0,-1.171950102E0,8.226123655E0
7.334746450E-1,-7.230000496E-1,8.032950401E0,-1.249050021E0,8.161565241E0
7.354357700E-1,-7.230000496E-1,7.995000362E0,-1.210950017E0,8.118445652E0
7.373967080E-1,-7.620000243E-1,7.995000362E0,-1.249050021E0,8.127779573E0
7.393576980E-1,-7.620000243E-1,7.957050323E0,-1.287000060E0,8.096398152E0
7.413191050E-1,-8.380500674E-1,7.995000362E0,-1.363950014E0,8.153693540E0
7.432803890E-1,-8.380500674E-1,7.918050289E0,-1.326000094E0,8.071934375E0
7.452412960E-1,-8.770500422E-1,7.957050323E0,-1.326000094E0,8.114317154E0
7.472023140E-1,-8.380500674E-1,8.032950401E0,-1.287000060E0,8.178446626E0
7.491634960E-1,-8.770500422E-1,8.032950401E0,-1.363950014E0,8.194990456E0
7.511246570E-1,-8.770500422E-1,8.071949959E0,-1.402050018E0,8.239619965E0
7.530855850E-1,-8.380500674E-1,8.110050201E0,-1.479000092E0,8.286294917E0
7.550465820E-1,-9.150000215E-1,8.148000717E0,-1.516950130E0,8.338361855E0
7.570078070E-1,-8.770500422E-1,8.187000275E0,-1.479000092E0,8.365622006E0
7.589689650E-1,-8.770500422E-1,8.187000275E0,-1.555950046E0,8.379568653E0
7.609297480E-1,-9.529500604E-1,8.224950790E0,-1.555950046E0,8.424898211E0
7.628906170E-1,-9.529500604E-1,8.263050079E0,-1.594050050E0,8.469185675E0
7.648515490E-1,-9.529500604E-1,8.263050079E0,-1.594050050E0,8.469185675E0
7.668124620E-1,-9.529500604E-1,8.340000153E0,-1.747050047E0,8.574141370E0
7.687735220E-1,-9.150000215E-1,8.377950668E0,-1.747050047E0,8.606942913E0
7.707345380E-1,-9.919500351E-1,8.416950226E0,-1.786050081E0,8.661350407E0
7.726956570E-1,-1.030050039E0,8.416950226E0,-1.824000120E0,8.673697633E0
7.746567550E-1,-1.030050039E0,8.455050468E0,-1.824000120E0,8.710674942E0
7.766179640E-1,-9.919500351E-1,8.532000542E0,-1.900950074E0,8.797306935E0
7.785791400E-1,-1.068000078E0,8.532000542E0,-2.014950037E0,8.831516351E0
7.805405600E-1,-1.068000078E0,8.569950104E0,-1.977000117E0,8.859638729E0
7.825019090E-1,-1.106999993E0,8.647050858E0,-2.053950071E0,8.956318910E0
7.844630150E-1,-1.068000078E0,8.647050858E0,-2.092050076E0,8.960401008E0
7.864241710E-1,-1.030050039E0,8.685000420E0,-2.053950071E0,8.983815797E0
7.883852340E-1,-1.068000078E0,8.761950493E0,-2.169000149E0,9.089387342E0
7.903463250E-1,-1.068000078E0,8.761950493E0,-2.206950188E0,9.098517997E0
7.923077590E-1,-1.068000078E0,8.800050735E0,-2.245050192E0,9.144493834E0
7.942690920E-1,-1.106999993E0,8.838000298E0,-2.245050192E0,9.185638171E0
7.962302940E-1,-1.106999993E0,8.877000809E0,-2.284050226E0,9.232739451E0
7.981915120E-1,-1.106999993E0,8.914950371E0,-2.245050192E0,9.259699750E0
8.001526090E-1,-1.183050036E0,9.030000687E0,-2.284050226E0,9.389217498E0
8.021137420E-1,-1.144950032E0,9.030000687E0,-2.322000027E0,9.393801526E0
8.040747640E-1,-1.106999993E0,9.030000687E0,-2.359950066E0,9.398708725E0
8.060358190E-1,-1.183050036E0,9.067950249E0,-2.322000027E0,9.434988777E0
8.079967780E-1,-1.144950032E0,9.145050049E0,-2.322000027E0,9.504448174E0
8.099577560E-1,-1.144950032E0,9.145050049E0,-2.359950066E0,9.513790795E0
8.119186700E-1,-1.183050036E0,9.183000565E0,-2.398950100E0,9.564625886E0
8.138796030E-1,-1.183050036E0,9.220950127E0,-2.322000027E0,9.582129865E0
8.158402990E-1,-1.260000110E0,9.259950638E0,-2.398950100E0,9.648276928E0
8.178010640E-1,-1.183050036E0,9.298050880E0,-2.322000027E0,9.656347223E0
8.197620180E-1,-1.222050071E0,9.259950638E0,-2.359950066E0,9.633766475E0
8.217229130E-1,-1.222050071E0,9.259950638E0,-2.284050226E0,9.615455144E0
8.236833460E-1,-1.144950032E0,9.259950638E0,-2.284050226E0,9.605960745E0
8.256439150E-1,-1.144950032E0,9.220950127E0,-2.206950188E0,9.550259732E0
8.276048980E-1,-1.106999993E0,9.145050049E0,-2.284050226E0,9.490746800E0
8.295657590E-1,-1.106999993E0,9.145050049E0,-2.245050192E0,9.481436587E0
8.315266190E-1,-1.144950032E0,9.030000687E0,-2.206950188E0,9.366026484E0
8.334875000E-1,-1.106999993E0,8.991000175E0,-2.169000149E0,9.314939333E0
8.354486110E-1,-1.068000078E0,8.953050613E0,-2.130000114E0,9.264698589E0
8.374096540E-1,-1.106999993E0,8.991000175E0,-2.130000114E0,9.305935398E0
8.393707360E-1,-1.106999993E0,8.953050613E0,-2.092050076E0,9.260628369E0
8.413318070E-1,-1.144950032E0,8.953050613E0,-2.130000114E0,9.273884103E0
8.432928660E-1,-1.144950032E0,8.877000809E0,-2.169000149E0,9.209593671E0
8.452539420E-1,-1.183050036E0,8.914950371E0,-2.206950188E0,9.259944742E0
8.472148850E-1,-1.144950032E0,8.914950371E0,-2.206950188E0,9.255154230E0
8.491758670E-1,-1.144950032E0,8.877000809E0,-2.169000149E0,9.209593671E0
8.511372750E-1,-1.183050036E0,8.877000809E0,-2.169000149E0,9.214407870E0
8.530985580E-1,-1.183050036E0,8.877000809E0,-2.169000149E0,9.214407870E0
8.550598000E-1,-1.222050071E0,8.877000809E0,-2.092050076E0,9.201696759E0
8.570210400E-1,-1.222050071E0,8.914950371E0,-2.053950071E0,9.229759335E0
8.589819090E-1,-1.183050036E0,8.914950371E0,-2.092050076E0,9.233234591E0
8.609428860E-1,-1.144950032E0,8.914950371E0,-2.053950071E0,9.219867764E0
8.629042050E-1,-1.144950032E0,8.953050613E0,-2.092050076E0,9.265241464E0
8.648654230E-1,-1.106999993E0,8.991000175E0,-2.092050076E0,9.297322553E0
8.668266270E-1,-1.068000078E0,9.030000687E0,-2.130000114E0,9.339081168E0
8.687878240E-1,-1.068000078E0,9.030000687E0,-2.053950071E0,9.322030222E0
8.707488800E-1,-1.068000078E0,9.106050491E0,-2.130000114E0,9.412634074E0
8.727099780E-1,-1.030050039E0,9.183000565E0,-2.014950037E0,9.457723093E0
8.746709160E-1,-9.919500351E-1,9.259950638E0,-2.053950071E0,9.536737471E0
8.766319010E-1,-9.529500604E-1,9.298050880E0,-2.014950037E0,9.561479365E0
8.785927540E-1,-8.770500422E-1,9.451050758E0,-1.939050078E0,9.687697994E0
8.805536560E-1,-9.150000215E-1,9.490050316E0,-1.861950040E0,9.714172018E0
8.825144470E-1,-8.380500674E-1,9.528000832E0,-2.053950071E0,9.782833877E0
8.844752710E-1,-8.770500422E-1,9.604950905E0,-2.053950071E0,9.861187026E0
8.864365260E-1,-8.380500674E-1,9.681000710E0,-1.939050078E0,9.908784883E0
8.883976540E-1,-7.620000243E-1,9.757950783E0,-1.939050078E0,9.977883680E0
8.903585530E-1,-7.620000243E-1,9.796050072E0,-2.014950037E0,1.003011788E1
8.923195120E-1,-7.230000496E-1,9.796050072E0,-1.977000117E0,1.001967342E1
8.942806080E-1,-7.620000243E-1,9.835050583E0,-2.053950071E0,1.007608927E1
8.962416640E-1,-7.999500632E-1,9.910950661E0,-2.092050076E0,1.016088267E1
8.982026100E-1,-7.620000243E-1,9.949950218E0,-2.053950071E0,1.018827092E1
9.001635890E-1,-7.230000496E-1,9.988050461E0,-2.053950071E0,1.022265093E1
9.021243510E-1,-7.620000243E-1,1.002600002E1,-2.130000114E0,1.027804558E1
9.040851560E-1,-6.850500107E-1,1.014105034E1,-2.053950071E0,1.036961457E1
9.060459190E-1,-7.230000496E-1,1.018005085E1,-2.014950037E0,1.040270100E1
9.080066950E-1,-7.620000243E-1,1.021800041E1,-1.977000117E0,1.043535845E1
9.099677770E-1,-7.620000243E-1,1.021800041E1,-1.900950074E0,1.042121815E1
9.119287700E-1,-7.999500632E-1,1.029495049E1,-1.824000120E0,1.048584293E1
9.138895020E-1,-7.999500632E-1,1.033305073E1,-1.747050047E0,1.051018750E1
9.158503100E-1,-7.999500632E-1,1.041000080E1,-1.632000089E0,1.056747184E1
9.178109370E-1,-9.150000215E-1,1.052505016E1,-1.441050053E0,1.066257620E1
9.197716180E-1,-9.529500604E-1,1.056300068E1,-1.326000094E0,1.068846918E1
9.217324010E-1,-9.529500604E-1,1.071600056E1,-1.326000094E0,1.083969824E1
9.236931540E-1,-9.529500604E-1,1.075500011E1,-1.249050021E0,1.086914289E1
9.256542610E-1,-9.529500604E-1,1.083105087E1,-1.096050024E0,1.092799627E1
9.276152500E-1,-9.529500604E-1,1.090800095E1,-9.810000658E-1,1.099340528E1
9.295763420E-1,-9.919500351E-1,1.098495007E1,-9.420000315E-1,1.106979932E1
9.315374040E-1,-1.030050039E0,1.102305031E1,-9.810000658E-1,1.111445016E1
9.334983490E-1,-1.030050039E0,1.113795090E1,-9.420000315E-1,1.122507538E1
9.354593290E-1,-1.030050039E0,1.113795090E1,-9.040500522E-1,1.122195436E1
9.374203800E-1,-1.068000078E0,1.125300026E1,-9.810000658E-1,1.134605659E1
9.393814080E-1,-9.529500604E-1,1.125300026E1,-1.018950105E0,1.133915288E1
9.413424930E-1,-9.529500604E-1,1.129095078E1,-9.810000658E-1,1.137347987E1
9.433035620E-1,-9.529500604E-1,1.132905006E1,-9.810000658E-1,1.141130362E1
9.452646400E-1,-8.770500422E-1,1.132905006E1,-1.018950105E0,1.140854292E1
9.472257160E-1,-8.380500674E-1,1.132905006E1,-1.018950105E0,1.140561101E1
9.491866590E-1,-7.230000496E-1,1.136805058E1,-1.057050109E0,1.143995882E1
9.511476410E-1,-6.079500318E-1,1.136805058E1,-1.018950105E0,1.142980474E1
9.531088690E-1,-5.320500135E-1,1.136805058E1,-9.810000658E-1,1.142269724E1
9.550700240E-1,-4.549500346E-1,1.136805058E1,-9.810000658E-1,1.141936577E1
9.570311330E-1,-3.019500077E-1,1.136805058E1,-8.659500480E-1,1.140498212E1
9.589922560E-1,-2.250000089E-1,1.136805058E1,-8.659500480E-1,1.140320430E1
9.609535330E-1,-1.099500060E-1,1.132905006E1,-8.659500480E-1,1.136262883E1
9.629147450E-1,-7.200000435E-2,1.132905006E1,-8.659500480E-1,1.136232498E1
9.648758000E-1,4.200000316E-2,1.140600014E1,-7.510500550E-1,1.143077772E1
9.668369010E-1,1.570500135E-1,1.140600014E1,-7.890000343E-1,1.143433535E1
9.687979740E-1,1.960500032E-1,1.132905006E1,-7.890000343E-1,1.135818348E1
9.707590550E-1,2.719500065E-1,1.144395065E1,-7.890000343E-1,1.147434026E1
9.727202310E-1,3.490500152E-1,1.140600014E1,-7.890000343E-1,1.143858366E1
9.746814030E-1,4.260000288E-1,1.132905006E1,-7.510500550E-1,1.136190686E1
9.766430040E-1,5.410500169E-1,1.140600014E1,-7.890000343E-1,1.144605152E1
9.786044800E-1,6.550500393E-1,1.132905006E1,-7.890000343E-1,1.137536755E1
9.805653090E-1,7.320000529E-1,1.132905006E1,-8.269500136E-1,1.138275212E1
9.825263280E-1,8.470500112E-1,1.132905006E1,-8.269500136E-1,1.139072936E1
9.844874740E-1,8.470500112E-1,1.125300026E1,-7.890000343E-1,1.131238390E1
9.864485720E-1,9.619500637E-1,1.117605019E1,-7.510500550E-1,1.124248735E1
9.884096010E-1,9.619500637E-1,1.125300026E1,-7.120500207E-1,1.131646491E1
9.903706510E-1,1.039050102E0,1.117605019E1,-5.590500236E-1,1.123816087E1
9.923313720E-1,1.114950061E0,1.110000038E1,-6.739500165E-1,1.117619482E1
9.942921890E-1,9.619500637E-1,1.110000038E1,-8.269500136E-1,1.117225146E1
9.962531250E-1,9.619500637E-1,1.098495007E1,-1.096050024E0,1.108132670E1
9.982140290E-1,1.230000019E0,1.094595051E1,-3.289500177E-1,1.101975230E1
1.000175000E0,1.230000019E0,1.098495007E1,5.295000225E-2,1.105372479E1
1.002135952E0,1.153950095E0,1.098495007E1,-2.205000073E-2,1.104541602E1
1.004097230E0,1.077000022E0,1.098495007E1,-1.759500057E-1,1.103902239E1
1.006058413E0,1.000050068E0,1.094595051E1,-2.910000086E-1,1.099539056E1
1.008019788E0,1.039050102E0,1.090800095E1,-3.289500177E-1,1.096231353E1
1.009981106E0,1.077000022E0,1.083105087E1,-3.289500177E-1,1.088943525E1
1.011942142E0,1.077000022E0,1.075500011E1,-3.289500177E-1,1.081379511E1
1.013903261E0,1.000050068E0,1.067805004E1,-1.759500057E-1,1.072622073E1
1.015864196E0,1.000050068E0,1.063995075E1,-9.900000691E-2,1.068730336E1
1.017825185E0,1.039050102E0,1.056300068E1,-6.105000153E-2,1.061415732E1
1.019785897E0,1.039050102E0,1.044795036E1,-2.205000073E-2,1.049951323E1
1.021746704E0,1.039050102E0,1.037100029E1,-6.105000153E-2,1.042309931E1
1.023707962E0,9.619500637E-1,1.033305073E1,-2.205000073E-2,1.037775368E1
1.025669087E0,9.240000248E-1,1.025595093E1,-2.205000073E-2,1.029751386E1
1.027629841E0,8.850000501E-1,1.018005085E1,1.500000060E-2,1.021845807E1
1.029590704E0,9.240000248E-1,1.006500053E1,-2.205000073E-2,1.010734871E1
1.031551669E0,9.240000248E-1,9.988050461E0,-2.205000073E-2,1.003072352E1
1.033512581E0,8.470500112E-1,9.949950218E0,-2.205000073E-2,9.985964614E0
1.035473686E0,7.699500322E-1,9.873000145E0,-6.105000153E-2,9.903165252E0
1.037434735E0,7.320000529E-1,9.835050583E0,-6.105000153E-2,9.862442453E0
1.039395817E0,7.320000529E-1,9.796050072E0,-9.900000691E-2,9.823859836E0
1.041356889E0,7.320000529E-1,9.757950783E0,-1.369500011E-1,9.786326321E0
1.043317593E0,6.550500393E-1,9.720000267E0,-6.105000153E-2,9.742239109E0
1.045278415E0,6.550500393E-1,9.643050194E0,-1.369500011E-1,9.666243474E0
1.047239535E0,6.169500351E-1,9.643050194E0,-9.900000691E-2,9.663273016E0
1.049200567E0,6.550500393E-1,9.643050194E0,-9.900000691E-2,9.665780289E0
1.051161472E0,6.550500393E-1,9.565950394E0,-9.900000691E-2,9.588863253E0
1.053122415E0,6.169500351E-1,9.528000832E0,-1.369500011E-1,9.548936197E0
1.055083256E0,6.169500351E-1,9.528000832E0,-1.369500011E-1,9.548936197E0
1.057044151E0,6.169500351E-1,9.490050316E0,-9.900000691E-2,9.510598475E0
1.059004403E0,5.410500169E-1,9.451050758E0,-6.105000153E-2,9.466721854E0
1.060964843E0,5.410500169E-1,9.412950516E0,-6.105000153E-2,9.428684937E0
1.062925803E0,5.020500422E-1,9.375000000E0,1.500000060E-2,9.388445252E0
1.064886610E0,5.020500422E-1,9.336000443E0,9.195000678E-2,9.349941888E0
1.066847774E0,4.639500082E-1,9.336000443E0,9.195000678E-2,9.347973506E0
1.068808836E0,4.639500082E-1,9.298050880E0,9.195000678E-2,9.310072749E0
1.070769331E0,4.260000288E-1,9.220950127E0,1.300500035E-1,9.231701374E0
1.072729992E0,3.870000243E-1,9.183000565E0,3.220500052E-1,9.196792082E0
1.074690959E0,4.639500082E-1,9.106050491E0,2.830500007E-1,9.122254242E0
1.076651836E0,4.639500082E-1,9.106050491E0,3.220500052E-1,9.123547631E0
1.078612569E0,4.639500082E-1,9.030000687E0,2.830500007E-1,9.046340659E0
1.080573357E0,4.260000288E-1,8.991000175E0,3.220500052E-1,9.006846084E0
1.082534348E0,4.639500082E-1,8.953050613E0,3.600000143E-1,8.972288722E0
1.084495279E0,4.639500082E-1,8.877000809E0,3.600000143E-1,8.896403373E0
1.086456157E0,5.020500422E-1,8.761950493E0,3.600000143E-1,8.783702562E0
1.088417050E0,4.260000288E-1,8.722949982E0,4.750500321E-1,8.746256624E0
1.090377643E0,4.639500082E-1,8.722949982E0,5.509500504E-1,8.752636857E0
1.092338338E0,4.260000288E-1,8.647050858E0,6.660000086E-1,8.683116985E0
1.094299119E0,4.639500082E-1,8.532000542E0,6.660000086E-1,8.570521505E0
1.096259875E0,3.870000243E-1,8.493000031E0,7.429500222E-1,8.534213102E0
1.098220827E0,4.639500082E-1,8.455050468E0,8.580000401E-1,8.511127546E0
1.100181721E0,4.639500082E-1,8.340000153E0,8.580000401E-1,8.396845612E0
1.102142970E0,4.639500082E-1,8.302050591E0,8.959500194E-1,8.363134583E0
1.104104111E0,4.639500082E-1,8.302050591E0,9.349500537E-1,8.367402537E0
1.106065402E0,4.260000288E-1,8.263050079E0,9.349500537E-1,8.326680265E0
1.108026649E0,3.870000243E-1,8.263050079E0,9.730500579E-1,8.329141135E0
1.109987833E0,3.490500152E-1,8.224950790E0,1.050000072E0,8.299045220E0
1.111949036E0,2.719500065E-1,8.224950790E0,1.050000072E0,8.296160103E0
1.113910105E0,2.340000123E-1,8.148000717E0,1.011000037E0,8.213817186E0
1.115871204E0,8.100000024E-2,8.071949959E0,1.087950110E0,8.145340544E0
1.117832321E0,4.050000105E-3,7.995000362E0,1.011000037E0,8.058670379E0
1.119793432E0,1.960500032E-1,8.187000275E0,1.165050030E0,8.271804560E0
1.121754504E0,4.260000288E-1,8.148000717E0,1.203000069E0,8.247339018E0
1.123715588E0,4.260000288E-1,8.148000717E0,1.203000069E0,8.247339018E0
1.125676872E0,4.260000288E-1,8.224950790E0,1.126049995E0,8.312597676E0
1.127638077E0,2.719500065E-1,8.302050591E0,1.165050030E0,8.387809153E0
1.129599312E0,2.340000123E-1,8.340000153E0,1.240950108E0,8.435064654E0
1.131560538E0,1.189500093E-1,8.377950668E0,1.356000066E0,8.487811419E0
1.133521545E0,4.200000316E-2,8.416950226E0,1.279950023E0,8.513817426E0
1.135482617E0,4.200000316E-2,8.416950226E0,1.203000069E0,8.502589269E0
1.137443859E0,-3.299999982E-2,8.416950226E0,1.165050030E0,8.497263187E0
1.139405062E0,-1.099500060E-1,8.416950226E0,1.279950023E0,8.514423772E0
1.141366118E0,-2.250000089E-1,8.455050468E0,1.203000069E0,8.543167597E0
1.143327218E0,-1.480500102E-1,8.608050346E0,1.126049995E0,8.682651563E0
1.145288335E0,-3.299999982E-2,8.722949982E0,1.203000069E0,8.805575197E0
1.147249447E0,4.050000105E-3,8.685000420E0,1.126049995E0,8.757695889E0
1.149210503E0,4.050000105E-3,8.761950493E0,1.126049995E0,8.834012759E0
1.151171587E0,-1.099500060E-1,8.838000298E0,1.203000069E0,8.920176424E0
1.153132483E0,-1.480500102E-1,8.953050613E0,1.240950108E0,9.039855710E0
1.155093434E0,-7.200000435E-2,9.030000687E0,1.279950023E0,9.120546500E0
1.157054486E0,-7.200000435E-2,9.106050491E0,1.318050027E0,9.201227930E0
1.159015508E0,4.050000105E-3,9.106050491E0,1.318050027E0,9.200947116E0
1.160976674E0,-7.200000435E-2,9.259950638E0,1.356000066E0,9.358985308E0
1.162937773E0,-1.480500102E-1,9.336000443E0,1.432950020E0,9.446489762E0
1.164898847E0,-1.099500060E-1,9.412950516E0,1.471050024E0,9.527838925E0
1.166859929E0,-1.870500147E-1,9.490050316E0,1.471050024E0,9.605208529E0
1.168820960E0,-2.629500031E-1,9.528000832E0,1.510050058E0,9.650502253E0
1.170782006E0,-2.629500031E-1,9.643050194E0,1.548000097E0,9.770049337E0
1.172742953E0,-3.400500119E-1,9.757950783E0,1.585950017E0,9.891838805E0
1.174703929E0,-3.019500077E-1,9.796050072E0,1.510050058E0,9.916351244E0
1.176665158E0,-3.780000210E-1,9.835050583E0,1.510050058E0,9.957477349E0
1.178626312E0,-3.400500119E-1,9.873000145E0,1.510050058E0,9.993598804E0
1.180587377E0,-3.780000210E-1,9.949950218E0,1.510050058E0,1.007098032E1
1.182548468E0,-3.400500119E-1,9.988050461E0,1.510050058E0,1.010727645E1
1.184509412E0,-3.019500077E-1,1.010295010E1,1.548000097E0,1.022531558E1
1.186470396E0,-3.780000210E-1,9.988050461E0,1.585950017E0,1.012024078E1
1.188431263E0,-5.320500135E-1,1.002600002E1,1.701000094E0,1.018318000E1
1.190392165E0,-6.469500065E-1,1.021800041E1,1.548000097E0,1.035482405E1
1.192353271E0,-3.780000210E-1,1.021800041E1,1.471050024E0,1.033026643E1
1.194314317E0,-2.629500031E-1,1.021800041E1,1.432950020E0,1.032133813E1
1.196275264E0,-1.099500060E-1,1.025595093E1,1.356000066E0,1.034578922E1
1.198236241E0,-7.200000435E-2,1.025595093E1,1.318050027E0,1.034054976E1
1.200197334E0,4.050000105E-3,1.029495049E1,1.395000100E0,1.038903495E1
1.202158393E0,4.050000105E-3,1.029495049E1,1.395000100E0,1.038903495E1
1.204119294E0,8.100000024E-2,1.025595093E1,1.356000066E0,1.034552206E1
1.206080241E0,1.189500093E-1,1.021800041E1,1.395000100E0,1.031347210E1
1.208041373E0,1.570500135E-1,1.018005085E1,1.240950108E0,1.025661041E1
1.210002427E0,1.960500032E-1,1.014105034E1,1.240950108E0,1.021857596E1
1.211963329E0,3.109500110E-1,1.010295010E1,1.279950023E0,1.018845242E1
1.213924275E0,5.020500422E-1,1.002600002E1,1.279950023E0,1.011983215E1
1.215886094E0,5.410500169E-1,9.988050461E0,1.279950023E0,1.008425303E1
1.217847658E0,5.790000558E-1,9.949950218E0,1.279950023E0,1.004863287E1
1.219808753E0,6.550500393E-1,9.910950661E0,1.203000069E0,1.000516080E1
1.221770010E0,6.940500140E-1,9.873000145E0,1.240950108E0,9.974858117E0
1.223731101E0,8.089500666E-1,9.873000145E0,1.126049995E0,9.969880675E0
1.225692241E0,7.699500322E-1,9.873000145E0,1.126049995E0,9.966792037E0
1.227653441E0,8.089500666E-1,9.835050583E0,1.126049995E0,9.932301283E0
1.229614624E0,9.240000248E-1,9.796050072E0,1.126049995E0,9.903754927E0
1.231575724E0,9.619500637E-1,9.796050072E0,1.126049995E0,9.907367639E0
1.233536852E0,1.039050102E0,9.796050072E0,1.126049995E0,9.915150564E0
1.235498054E0,1.077000022E0,9.757950783E0,1.165050030E0,9.886094987E0
1.237459235E0,9.619500637E-1,9.835050583E0,1.126049995E0,9.945931655E0
1.239420475E0,8.850000501E-1,9.796050072E0,1.011000037E0,9.887767350E0
1.241381697E0,9.619500637E-1,9.835050583E0,8.580000401E-1,9.919159842E0
1.243342948E0,9.240000248E-1,9.757950783E0,8.580000401E-1,9.839082457E0
1.245304177E0,8.850000501E-1,9.757950783E0,9.349500537E-1,9.842507819E0
1.247265454E0,1.000050068E0,9.720000267E0,1.050000072E0,9.827563558E0
1.249226716E0,1.077000022E0,9.681000710E0,1.011000037E0,9.793049824E0
1.251188122E0,1.077000022E0,9.681000710E0,9.730500579E-1,9.789204779E0
1.253149485E0,1.000050068E0,9.681000710E0,1.011000037E0,9.784886098E0
1.255110514E0,9.240000248E-1,9.681000710E0,1.011000037E0,9.777406193E0
1.257071641E0,9.619500637E-1,9.681000710E0,9.730500579E-1,9.777215814E0
1.259032843E0,8.850000501E-1,9.643050194E0,9.730500579E-1,9.732341370E0
1.260994023E0,8.850000501E-1,9.681000710E0,9.730500579E-1,9.769945048E0
1.262955443E0,8.850000501E-1,9.681000710E0,9.349500537E-1,9.766224011E0
1.264916793E0,8.850000501E-1,9.643050194E0,9.349500537E-1,9.728605950E0
1.266877838E0,8.470500112E-1,9.604950905E0,9.349500537E-1,9.687451017E0
1.268838962E0,7.699500322E-1,9.604950905E0,9.349500537E-1,9.681014231E0
1.270800031E0,7.320000529E-1,9.528000832E0,9.349500537E-1,9.601705865E0
1.272761116E0,7.320000529E-1,9.528000832E0,1.050000072E0,9.613590592E0
1.274722551E0,6.550500393E-1,9.565950394E0,9.730500579E-1,9.637599489E0
1.276683883E0,6.169500351E-1,9.528000832E0,1.050000072E0,9.605515465E0
1.278644071E0,5.410500169E-1,9.565950394E0,1.126049995E0,9.647182524E0
1.280604588E0,4.639500082E-1,9.604950905E0,1.087950110E0,9.677497969E0
1.282566256E0,4.639500082E-1,9.643050194E0,1.203000069E0,9.728868167E0
1.284527586E0,3.870000243E-1,9.604950905E0,1.165050030E0,9.683087962E0
1.286488621E0,3.870000243E-1,9.643050194E0,1.240950108E0,9.730269432E0
1.288449742E0,3.490500152E-1,9.643050194E0,1.240950108E0,9.728833955E0
1.290410816E0,3.109500110E-1,9.643050194E0,1.240950108E0,9.727541525E0
1.292371901E0,3.490500152E-1,9.565950394E0,1.203000069E0,9.647613799E0
1.294332976E0,2.719500065E-1,9.528000832E0,1.279950023E0,9.617433582E0
1.296294054E0,2.340000123E-1,9.528000832E0,1.279950023E0,9.616435302E0
1.298254816E0,2.340000123E-1,9.490050316E0,1.279950023E0,9.578835162E0
1.300215670E0,2.340000123E-1,9.490050316E0,1.318050027E0,9.584000567E0
1.302176589E0,1.960500032E-1,9.412950516E0,1.395000100E0,9.517778012E0
1.304137499E0,1.960500032E-1,9.412950516E0,1.395000100E0,9.517778012E0
1.306098560E0,2.340000123E-1,9.412950516E0,1.318050027E0,9.507662662E0
1.308059576E0,2.340000123E-1,9.451050758E0,1.356000066E0,9.550699065E0
1.310020529E0,2.719500065E-1,9.375000000E0,1.356000066E0,9.476461259E0
1.311981501E0,2.340000123E-1,9.298050880E0,1.356000066E0,9.399321378E0
1.313942746E0,1.960500032E-1,9.375000000E0,1.318050027E0,9.469229983E0
1.315903931E0,1.960500032E-1,9.336000443E0,1.356000066E0,9.435998943E0
1.317865170E0,2.340000123E-1,9.298050880E0,1.395000100E0,9.405026925E0
1.319826393E0,2.340000123E-1,9.298050880E0,1.356000066E0,9.399321378E0
1.321787446E0,3.109500110E-1,9.259950638E0,1.318050027E0,9.358452415E0
1.323748549E0,3.109500110E-1,9.298050880E0,1.395000100E0,9.407255995E0
1.325709786E0,2.719500065E-1,9.259950638E0,1.356000066E0,9.362658746E0
1.327670962E0,1.960500032E-1,9.220950127E0,1.279950023E0,9.311424644E0
1.329632202E0,-7.200000435E-2,8.914950371E0,1.318050027E0,9.012146248E0
1.331593423E0,-3.019500077E-1,9.067950249E0,1.279950023E0,9.162814392E0
1.333554701E0,4.050000105E-3,9.145050049E0,1.432950020E0,9.256635596E0
1.335515962E0,1.960500032E-1,9.067950249E0,1.318050027E0,9.165337593E0
1.337477124E0,1.960500032E-1,9.183000565E0,1.050000072E0,9.244914014E0
1.339438329E0,1.960500032E-1,9.145050049E0,1.087950110E0,9.211623714E0
1.341399429E0,3.109500110E-1,9.145050049E0,1.240950108E0,9.234099170E0
1.343360560E0,3.109500110E-1,9.183000565E0,1.279950023E0,9.276985574E0
1.345321628E0,3.490500152E-1,9.145050049E0,1.279950023E0,9.240781805E0
1.347282714E0,3.109500110E-1,9.106050491E0,1.240950108E0,9.195477292E0
1.349243909E0,2.719500065E-1,9.145050049E0,1.165050030E0,9.222973424E0
1.351205082E0,3.109500110E-1,9.106050491E0,1.087950110E0,9.176082002E0
1.353166368E0,3.490500152E-1,9.067950249E0,1.126049995E0,9.144263022E0
1.355127621E0,4.260000288E-1,9.067950249E0,1.240950108E0,9.162377143E0
1.357088669E0,3.490500152E-1,9.106050491E0,1.165050030E0,9.186910963E0
1.359049777E0,3.109500110E-1,9.220950127E0,1.050000072E0,9.285747751E0
1.361010986E0,2.719500065E-1,9.220950127E0,1.011000037E0,9.280193916E0
1.362972163E0,3.109500110E-1,9.259950638E0,1.011000037E0,9.320166136E0
1.364933089E0,2.340000123E-1,9.298050880E0,8.959500194E-1,9.344047978E0
1.366894088E0,1.570500135E-1,9.336000443E0,7.429500222E-1,9.366832106E0
1.368855493E0,1.960500032E-1,9.375000000E0,7.050000429E-1,9.403514538E0
1.370816779E0,1.570500135E-1,9.375000000E0,7.810500264E-1,9.408789978E0
1.372777641E0,1.570500135E-1,9.451050758E0,7.810500264E-1,9.484569800E0
1.374738627E0,1.189500093E-1,9.490050316E0,7.810500264E-1,9.522879987E0
1.376699584E0,1.189500093E-1,9.451050758E0,7.810500264E-1,9.484015430E0
1.378660550E0,8.100000024E-2,9.412950516E0,7.429500222E-1,9.442572380E0
1.380621825E0,8.100000024E-2,9.375000000E0,7.050000429E-1,9.401819561E0
1.382583010E0,8.100000024E-2,9.336000443E0,6.660000086E-1,9.360075922E0
1.384543909E0,8.100000024E-2,9.298050880E0,5.899500251E-1,9.317099989E0
1.386504878E0,-3.299999982E-2,9.259950638E0,5.130000114E-1,9.274208528E0
1.388465748E0,-3.299999982E-2,9.220950127E0,4.360500276E-1,9.231313550E0
1.390426647E0,-1.480500102E-1,9.298050880E0,4.750500321E-1,9.311355514E0
1.392387573E0,-1.870500147E-1,9.412950516E0,5.130000114E-1,9.428774795E0
1.394348491E0,-2.250000089E-1,9.451050758E0,4.360500276E-1,9.463779640E0
1.396309250E0,-2.250000089E-1,9.490050316E0,4.750500321E-1,9.504596390E0
1.398270046E0,-2.629500031E-1,9.528000832E0,4.750500321E-1,9.543459283E0
1.400230810E0,-3.019500077E-1,9.451050758E0,3.220500052E-1,9.461355635E0
1.402191584E0,-3.400500119E-1,9.451050758E0,3.220500052E-1,9.462648184E0
1.404152396E0,-3.780000210E-1,9.490050316E0,3.600000143E-1,9.504395774E0
1.406113197E0,-3.780000210E-1,9.490050316E0,3.220500052E-1,9.503034001E0
1.408073936E0,-3.780000210E-1,9.528000832E0,2.830500007E-1,9.539696073E0
1.410034680E0,-4.170000255E-1,9.451050758E0,3.600000143E-1,9.467092979E0
1.411995452E0,-4.549500346E-1,9.490050316E0,2.449500114E-1,9.504106220E0
1.413956216E0,-4.549500346E-1,9.490050316E0,3.600000143E-1,9.507767064E0
1.415916987E0,-4.549500346E-1,9.451050758E0,3.600000143E-1,9.468840477E0
1.417877755E0,-5.320500135E-1,9.412950516E0,3.220500052E-1,9.433473954E0
1.419838364E0,-5.320500135E-1,9.375000000E0,3.979500234E-1,9.398514055E0
1.421799007E0,-5.320500135E-1,9.375000000E0,4.360500276E-1,9.400204351E0
1.423759618E0,-5.320500135E-1,9.298050880E0,4.360500276E-1,9.323463252E0
1.425720238E0,-6.079500318E-1,9.298050880E0,4.750500321E-1,9.330006750E0
1.427681031E0,-5.700000525E-1,9.298050880E0,4.360500276E-1,9.325705864E0
1.429641774E0,-6.469500065E-1,9.259950638E0,5.130000114E-1,9.296687536E0
1.431602588E0,-6.079500318E-1,9.220950127E0,4.750500321E-1,9.253172268E0
1.433563384E0,-6.469500065E-1,9.183000565E0,5.130000114E-1,9.220044072E0
1.435524329E0,-6.850500107E-1,9.183000565E0,5.509500504E-1,9.224984490E0
1.437485231E0,-6.079500318E-1,9.145050049E0,5.899500251E-1,9.184202996E0
1.439446473E0,-6.469500065E-1,9.145050049E0,5.899500251E-1,9.186867025E0
1.441407615E0,-7.230000496E-1,9.067950249E0,6.660000086E-1,9.121074871E0
1.443368727E0,-9.150000215E-1,9.067950249E0,7.810500264E-1,9.147403232E0
1.445329848E0,-7.999500632E-1,9.183000565E0,6.660000086E-1,9.241805856E0
1.447291096E0,-6.079500318E-1,9.145050049E0,5.509500504E-1,9.181780306E0
1.449252307E0,-5.700000525E-1,9.145050049E0,3.979500234E-1,9.171434167E0
1.451213002E0,-4.930500090E-1,9.259950638E0,4.750500321E-1,9.285227873E0
1.453173848E0,-5.320500135E-1,9.259950638E0,5.130000114E-1,9.289398906E0
1.455135094E0,-4.930500090E-1,9.298050880E0,6.280500293E-1,9.332271713E0
1.457096226E0,-4.549500346E-1,9.298050880E0,7.050000429E-1,9.335831766E0
1.459057339E0,-4.170000255E-1,9.375000000E0,7.429500222E-1,9.413633133E0
1.461018458E0,-3.400500119E-1,9.412950516E0,7.050000429E-1,9.445437866E0
1.462979662E0,-3.400500119E-1,9.451050758E0,7.050000429E-1,9.483407589E0
1.464940841E0,-2.629500031E-1,9.451050758E0,5.509500504E-1,9.470747019E0
1.466901522E0,-3.019500077E-1,9.490050316E0,6.660000086E-1,9.518181802E0
1.468862362E0,-1.480500102E-1,9.528000832E0,6.280500293E-1,9.549825417E0
1.470823704E0,-1.099500060E-1,9.528000832E0,7.429500222E-1,9.557555314E0
1.472784899E0,-3.299999982E-2,9.643050194E0,8.200500607E-1,9.677912386E0
1.474746136E0,-7.200000435E-2,9.720000267E0,8.959500194E-1,9.761470977E0
1.476707360E0,4.050000105E-3,9.681000710E0,8.580000401E-1,9.718948256E0
1.478668568E0,1.189500093E-1,9.643050194E0,7.810500264E-1,9.675360732E0
1.480629798E0,1.570500135E-1,9.720000267E0,8.200500607E-1,9.755795816E0
1.482591029E0,1.960500032E-1,9.681000710E0,7.810500264E-1,9.714435109E0
1.484552260E0,3.109500110E-1,9.681000710E0,7.810500264E-1,9.717432984E0
1.486513806E0,2.719500065E-1,9.681000710E0,7.810500264E-1,9.716263206E0
1.488475260E0,3.109500110E-1,9.604950905E0,7.810500264E-1,9.641670547E0
1.490436323E0,3.109500110E-1,9.565950394E0,7.810500264E-1,9.602819169E0
1.492397497E0,4.260000288E-1,9.565950394E0,9.349500537E-1,9.620967444E0
1.494358692E0,3.870000243E-1,9.528000832E0,8.959500194E-1,9.577854421E0
1.496319880E0,3.490500152E-1,9.490050316E0,8.580000401E-1,9.535148398E0
1.498280939E0,4.639500082E-1,9.451050758E0,9.349500537E-1,9.508508908E0
1.500242036E0,5.410500169E-1,9.336000443E0,9.730500579E-1,9.402152190E0
1.502202794E0,5.020500422E-1,9.336000443E0,1.050000072E0,9.408265444E0
1.504163651E0,5.020500422E-1,9.259950638E0,1.087950110E0,9.337150288E0
1.506124765E0,5.020500422E-1,9.259950638E0,1.050000072E0,9.332804520E0
1.508085803E0,4.639500082E-1,9.259950638E0,1.050000072E0,9.330832523E0
1.510047022E0,4.639500082E-1,9.220950127E0,1.050000072E0,9.292129519E0
1.512008188E0,4.639500082E-1,9.259950638E0,1.087950110E0,9.335179209E0
1.513969395E0,4.639500082E-1,9.220950127E0,1.050000072E0,9.292129519E0
1.515930614E0,3.870000243E-1,9.259950638E0,1.050000072E0,9.327323034E0
1.517891892E0,4.260000288E-1,9.259950638E0,1.050000072E0,9.329022563E0
1.519853153E0,3.490500152E-1,9.298050880E0,1.126049995E0,9.372490314E0
1.521814334E0,3.490500152E-1,9.298050880E0,1.050000072E0,9.363657738E0
1.523775539E0,2.340000123E-1,9.412950516E0,1.087950110E0,9.478503514E0
1.525736604E0,1.570500135E-1,9.412950516E0,1.126049995E0,9.481365445E0
1.527697703E0,1.570500135E-1,9.528000832E0,1.165050030E0,9.600250316E0
1.529658820E0,8.100000024E-2,9.604950905E0,1.165050030E0,9.675690387E0
1.531619932E0,4.050000105E-3,9.643050194E0,1.203000069E0,9.717800297E0
1.533581004E0,-7.200000435E-2,9.720000267E0,1.203000069E0,9.794426903E0
1.535542088E0,-1.480500102E-1,9.835050583E0,1.126049995E0,9.900410465E0
1.537503178E0,-1.480500102E-1,9.910950661E0,1.203000069E0,9.984791984E0
1.539464256E0,-2.629500031E-1,1.006500053E1,1.240950108E0,1.014462102E1
1.541425512E0,-3.019500077E-1,1.014105034E1,1.240950108E0,1.022115615E1
1.543386715E0,-4.549500346E-1,1.021800041E1,1.318050027E0,1.031269935E1
1.545347951E0,-4.930500090E-1,1.025595093E1,1.279950023E0,1.034726533E1
1.547309177E0,-6.079500318E-1,1.037100029E1,1.356000066E0,1.047692638E1
1.549270394E0,-6.469500065E-1,1.048605061E1,1.356000066E0,1.059313635E1
1.551231624E0,-7.620000243E-1,1.060095024E1,1.279950023E0,1.070509515E1
1.553192991E0,-7.999500632E-1,1.067805004E1,1.356000066E0,1.079348919E1
1.555154317E0,-7.999500632E-1,1.071600056E1,1.356000066E0,1.083103523E1
1.557115352E0,-8.380500674E-1,1.083105087E1,1.395000100E0,1.095262600E1
1.559076473E0,-8.770500422E-1,1.090800095E1,1.356000066E0,1.102689610E1
1.561037587E0,-9.150000215E-1,1.087005043E1,1.356000066E0,1.099245003E1
1.562998703E0,-9.150000215E-1,1.094595051E1,1.318050027E0,1.106292518E1
1.564959728E0,-9.919500351E-1,1.102305031E1,1.395000100E0,1.115516151E1
1.566920780E0,-9.919500351E-1,1.102305031E1,1.318050027E0,1.114580005E1
1.568881905E0,-9.919500351E-1,1.110000038E1,1.318050027E0,1.122190845E1
1.570843009E0,-1.106999993E0,1.110000038E1,1.203000069E0,1.121974450E1
1.572803993E0,-1.106999993E0,1.117605019E1,1.240950108E0,1.129909306E1
1.574765044E0,-1.068000078E0,1.117605019E1,1.203000069E0,1.129123249E1
1.576725765E0,-1.068000078E0,1.117605019E1,1.126049995E0,1.128329343E1
1.578686582E0,-1.030050039E0,1.125300026E1,1.126049995E0,1.135601191E1
1.580647568E0,-1.030050039E0,1.125300026E1,1.050000072E0,1.134872319E1
1.582608504E0,-9.919500351E-1,1.121400070E1,1.050000072E0,1.130664746E1
1.584569576E0,-9.529500604E-1,1.125300026E1,9.349500537E-1,1.133191335E1
1.586530628E0,-9.529500604E-1,1.121400070E1,8.959500194E-1,1.129002445E1
1.588491531E0,-9.150000215E-1,1.125300026E1,9.349500537E-1,1.132878508E1
1.590452477E0,-8.380500674E-1,1.125300026E1,8.580000401E-1,1.131673570E1
1.592413575E0,-8.380500674E-1,1.121400070E1,7.810500264E-1,1.127236350E1
1.594374628E0,-9.529500604E-1,1.098495007E1,7.810500264E-1,1.105383557E1
1.596335466E0,-1.030050039E0,1.106100082E1,7.050000429E-1,1.113120691E1
1.598296381E0,-7.620000243E-1,1.110000038E1,8.200500607E-1,1.115630470E1
1.600257349E0,-6.079500318E-1,1.106100082E1,5.509500504E-1,1.109138803E1
1.602218302E0,-4.170000255E-1,1.102305031E1,5.130000114E-1,1.104285724E1
1.604179400E0,-3.400500119E-1,1.102305031E1,5.130000114E-1,1.104021925E1
1.606140456E0,-2.250000089E-1,1.098495007E1,5.130000114E-1,1.099922370E1
1.608101298E0,-1.480500102E-1,1.090800095E1,5.899500251E-1,1.092494597E1
1.610062213E0,-1.870500147E-1,1.090800095E1,5.899500251E-1,1.092554408E1
1.612023542E0,-1.480500102E-1,1.079295063E1,6.660000086E-1,1.081449297E1
1.613984749E0,-7.200000435E-2,1.079295063E1,6.660000086E-1,1.081371922E1
1.615945984E0,-1.099500060E-1,1.071600056E1,6.280500293E-1,1.073495243E1
1.617907211E0,4.050000105E-3,1.067805004E1,6.280500293E-1,1.069650485E1
1.619868263E0,8.100000024E-2,1.060095024E1,5.509500504E-1,1.061556654E1
1.621829367E0,1.570500135E-1,1.056300068E1,5.130000114E-1,1.057661652E1
1.623790214E0,2.340000123E-1,1.056300068E1,4.750500321E-1,1.057626644E1
1.625751136E0,2.719500065E-1,1.048605061E1,4.750500321E-1,1.050032793E1
1.627712103E0,3.109500110E-1,1.048605061E1,3.979500234E-1,1.049820515E1
1.629673057E0,3.870000243E-1,1.052505016E1,5.130000114E-1,1.054464883E1
1.631634119E0,3.870000243E-1,1.048605061E1,4.360500276E-1,1.050224576E1
1.633595143E0,3.490500152E-1,1.044795036E1,4.360500276E-1,1.046286970E1
1.635556095E0,3.870000243E-1,1.044795036E1,4.360500276E-1,1.046420448E1
1.637517068E0,3.490500152E-1,1.044795036E1,4.360500276E-1,1.046286970E1
1.639478162E0,4.260000288E-1,1.044795036E1,4.750500321E-1,1.046741684E1
1.641439220E0,4.639500082E-1,1.048605061E1,4.750500321E-1,1.050705379E1
1.643400112E0,3.870000243E-1,1.048605061E1,4.360500276E-1,1.050224576E1
1.645361059E0,4.639500082E-1,1.048605061E1,4.360500276E-1,1.050536275E1
1.647322157E0,4.639500082E-1,1.052505016E1,4.360500276E-1,1.054429088E1
1.649283211E0,4.260000288E-1,1.063995075E1,4.360500276E-1,1.065739967E1
1.651244607E0,3.490500152E-1,1.060095024E1,4.360500276E-1,1.061565455E1
1.653205903E0,3.490500152E-1,1.063995075E1,3.979500234E-1,1.065310998E1
1.655167198E0,2.340000123E-1,1.067805004E1,5.130000114E-1,1.069292653E1
1.657128473E0,2.340000123E-1,1.067805004E1,4.750500321E-1,1.069117305E1
1.659089830E0,1.189500093E-1,1.083105087E1,5.509500504E-1,1.084570690E1
1.661051163E0,4.200000316E-2,1.087005043E1,5.509500504E-1,1.088408500E1
1.663012242E0,-3.299999982E-2,1.090800095E1,5.130000114E-1,1.092010726E1
1.664973396E0,-3.299999982E-2,1.098495007E1,5.130000114E-1,1.099697167E1
1.666934798E0,-1.099500060E-1,1.102305031E1,5.130000114E-1,1.103552881E1
1.668896110E0,-1.099500060E-1,1.102305031E1,5.509500504E-1,1.103735807E1
1.670857507E0,-2.250000089E-1,1.106100082E1,4.750500321E-1,1.107348350E1
1.672818879E0,-2.250000089E-1,1.110000038E1,6.660000086E-1,1.112223851E1
1.674780087E0,-2.250000089E-1,1.110000038E1,7.810500264E-1,1.112972024E1
1.676741343E0,-3.019500077E-1,1.106100082E1,8.580000401E-1,1.109833668E1
1.678702448E0,-3.780000210E-1,1.102305031E1,9.730500579E-1,1.107236870E1
1.680663588E0,-4.170000255E-1,1.094595051E1,1.011000037E0,1.100044738E1
1.682624968E0,-3.780000210E-1,1.098495007E1,1.126049995E0,1.104898188E1
1.684586278E0,-3.780000210E-1,1.098495007E1,1.240950108E0,1.106128244E1
1.686547497E0,-4.170000255E-1,1.094595051E1,1.279950023E0,1.102841755E1
1.688508742E0,-3.780000210E-1,1.090800095E1,1.356000066E0,1.099845920E1
1.690470168E0,-4.170000255E-1,1.087005043E1,1.395000100E0,1.096712864E1
1.692431528E0,-4.549500346E-1,1.083105087E1,1.471050024E0,1.093995570E1
1.694392917E0,-5.320500135E-1,1.071600056E1,1.510050058E0,1.083494330E1
1.696354297E0,-5.320500135E-1,1.067805004E1,1.548000097E0,1.080278363E1
1.698315504E0,-4.549500346E-1,1.063995075E1,1.624950051E0,1.077292877E1
1.700276761E0,-4.930500090E-1,1.056300068E1,1.701000094E0,1.071043804E1
1.702237632E0,-4.549500346E-1,1.052505016E1,1.816050053E0,1.069026184E1
1.704198612E0,-4.170000255E-1,1.048605061E1,1.893000126E0,1.066370460E1
1.706159749E0,-3.780000210E-1,1.041000080E1,2.046000004E0,1.061588982E1
1.708120840E0,-3.019500077E-1,1.033305073E1,2.085000038E0,1.054563115E1
1.710081871E0,-3.400500119E-1,1.033305073E1,2.275950193E0,1.058619481E1
1.712042919E0,-2.250000089E-1,1.021800041E1,2.430000067E0,1.050538232E1
1.714004185E0,-1.870500147E-1,1.014105034E1,2.545050144E0,1.045720660E1
1.715965384E0,-1.099500060E-1,1.002600002E1,2.620950222E0,1.036350064E1
1.717926486E0,4.050000105E-3,9.949950218E0,2.698050022E0,1.030926766E1
1.719887617E0,8.100000024E-2,9.835050583E0,2.736000061E0,1.020884309E1
1.721848640E0,2.340000123E-1,9.757950783E0,2.889000177E0,1.017932618E1
1.723809694E0,2.719500065E-1,9.681000710E0,3.004050255E0,1.014002216E1
1.725770625E0,4.260000288E-1,9.604950905E0,3.081000090E0,1.009599522E1
1.727731602E0,4.639500082E-1,9.490050316E0,3.118950129E0,1.000020772E1
1.729693551E0,5.790000558E-1,9.375000000E0,3.196050167E0,9.921723778E0
1.731655215E0,7.699500322E-1,9.220950127E0,3.234000206E0,9.801913161E0
1.733616057E0,8.470500112E-1,9.106050491E0,3.234000206E0,9.700330232E0
1.735577140E0,8.850000501E-1,8.953050613E0,3.273000240E0,9.573550593E0
1.737538166E0,1.039050102E0,8.761950493E0,3.273000240E0,9.410841202E0
1.739499212E0,1.269000053E0,8.722949982E0,3.349050045E0,9.429546846E0
1.741460338E0,1.306950092E0,8.608050346E0,3.388050079E0,9.342672672E0
1.743421441E0,1.345050097E0,8.532000542E0,3.388050079E0,9.278096591E0
1.745382334E0,1.345050097E0,8.377950668E0,3.310950041E0,9.108326264E0
1.747343289E0,1.384050012E0,8.302050591E0,3.196050167E0,9.003020333E0
1.749304013E0,1.729050040E0,8.224950790E0,3.234000206E0,9.005453175E0
1.751264814E0,2.265000105E0,8.110050201E0,3.273000240E0,9.034139158E0
1.753225757E0,2.380050182E0,8.071949959E0,3.349050045E0,9.057436238E0
1.755186658E0,2.380050182E0,8.071949959E0,3.388050079E0,9.071929141E0
1.757147585E0,2.304000139E0,7.995000362E0,3.426000118E0,8.998106703E0
1.759108504E0,2.494950056E0,8.032950401E0,3.426000118E0,9.082430553E0
1.761069471E0,2.457000017E0,7.957050323E0,3.349050045E0,8.975947590E0
1.763030393E0,2.764050245E0,8.032950401E0,3.349050045E0,9.131506016E0
1.764991137E0,3.147000074E0,7.995000362E0,3.463950157E0,9.264048303E0
1.766951934E0,3.147000074E0,7.957050323E0,3.310950041E0,9.175001335E0
1.768912878E0,3.031950235E0,8.032950401E0,3.349050045E0,9.216135339E0
1.770873778E0,3.376950264E0,8.032950401E0,3.196050167E0,9.281531226E0
1.772834526E0,3.415050268E0,8.032950401E0,3.234000206E0,9.308577647E0
1.774795318E0,3.300000191E0,8.187000275E0,3.081000090E0,9.349306729E0
1.776756084E0,3.568050146E0,8.187000275E0,3.043050051E0,9.434940856E0
1.778716857E0,3.529950142E0,8.302050591E0,2.928000212E0,9.484607385E0
1.780677760E0,3.568050146E0,8.377950668E0,2.812950134E0,9.530672993E0
1.782638624E0,3.607050180E0,8.455050468E0,2.698050022E0,9.580092032E0
1.784599402E0,3.568050146E0,8.532000542E0,2.583000183E0,9.601974018E0
1.786560188E0,3.682950258E0,8.608050346E0,2.430000067E0,9.673032291E0
1.788521359E0,3.645000219E0,8.722949982E0,2.353049994E0,9.742316319E0
1.790482417E0,3.682950258E0,8.838000298E0,2.353049994E0,9.859574846E0
1.792443633E0,3.760050297E0,8.953050613E0,2.122950077E0,9.939920047E0
1.794404802E0,3.607050180E0,9.067950249E0,1.816050053E0,9.926558845E0
1.796366103E0,3.607050180E0,8.647050858E0,8.200500607E-1,9.405040225E0
1.798327355E0,3.721950293E0,8.608050346E0,8.200500607E-1,9.414028195E0
1.800288538E0,3.721950293E0,8.761950493E0,1.279950023E0,9.605361132E0
1.802249742E0,3.645000219E0,8.877000809E0,1.548000097E0,9.720261018E0
1.804210842E0,3.492000103E0,9.106050491E0,1.624950051E0,9.887096790E0
1.806171973E0,3.376950264E0,9.183000565E0,1.740000129E0,9.937750898E0
1.808133015E0,3.376950264E0,9.298050880E0,1.701000094E0,1.003747700E1
1.810094069E0,3.262050152E0,9.451050758E0,1.701000094E0,1.014183085E1
1.812055015E0,3.184950113E0,9.565950394E0,1.663050056E0,1.021846611E1
1.814015992E0,3.147000074E0,9.681000710E0,1.624950051E0,1.030853272E1
1.815977220E0,2.955000162E0,9.796050072E0,1.585950017E0,1.035421945E1
1.817938374E0,2.839950085E0,9.949950218E0,1.585950017E0,1.046814517E1
1.819899460E0,2.725050211E0,9.988050461E0,1.510050058E0,1.046266227E1
1.821860583E0,2.572050095E0,1.014105034E1,1.510050058E0,1.057055319E1
1.823821652E0,2.494950056E0,1.025595093E1,1.510050058E0,1.066253049E1
1.825782737E0,2.341950178E0,1.033305073E1,1.471050024E0,1.069675914E1
1.827743767E0,2.227050066E0,1.044795036E1,1.471050024E0,1.078347843E1
1.829704814E0,2.111999989E0,1.052505016E1,1.318050027E0,1.081547413E1
1.831665780E0,1.996950150E0,1.060095024E1,1.318050027E0,1.086762218E1
1.833626756E0,1.843950033E0,1.067805004E1,1.318050027E0,1.091595897E1
1.835587849E0,1.690050125E0,1.079295063E1,1.356000066E0,1.100830545E1
1.837548908E0,1.498950124E0,1.087005043E1,1.318050027E0,1.105179188E1
1.839510168E0,1.384050012E0,1.087005043E1,1.240950108E0,1.102785328E1
1.841471369E0,1.306950092E0,1.090800095E1,1.240950108E0,1.105588352E1
1.843432906E0,1.230000019E0,1.098495007E1,1.203000069E0,1.111886852E1
1.845394355E0,1.039050102E0,1.102305031E1,9.730500579E-1,1.111458904E1
1.847355775E0,1.000050068E0,1.110000038E1,8.959500194E-1,1.118091387E1
1.849317204E0,8.850000501E-1,1.113795090E1,8.200500607E-1,1.120310927E1
1.851277634E0,7.320000529E-1,1.121400070E1,7.050000429E-1,1.125995830E1
1.853238357E0,5.410500169E-1,1.129095078E1,7.050000429E-1,1.132586993E1
1.855199358E0,4.639500082E-1,1.132905006E1,6.280500293E-1,1.135592673E1
1.857160278E0,3.870000243E-1,1.140600014E1,5.130000114E-1,1.142408759E1
1.859122238E0,2.719500065E-1,1.140600014E1,3.979500234E-1,1.141617975E1
1.861083894E0,1.960500032E-1,1.132905006E1,2.449500114E-1,1.133339364E1
1.863044918E0,8.100000024E-2,1.136805058E1,2.070000172E-1,1.137022356E1
1.865006127E0,4.050000105E-3,1.136805058E1,2.449500114E-1,1.137068999E1
1.866967135E0,-1.099500060E-1,1.121400070E1,1.680000126E-1,1.121579800E1
1.868928203E0,-1.870500147E-1,1.121400070E1,1.300500035E-1,1.121631457E1
1.870889505E0,-2.629500031E-1,1.113795090E1,1.680000126E-1,1.114232098E1
1.872850739E0,-3.780000210E-1,1.113795090E1,2.070000172E-1,1.114628562E1
1.874811790E0,-5.320500135E-1,1.106100082E1,2.070000172E-1,1.107572415E1
1.876772895E0,-6.469500065E-1,1.110000038E1,1.300500035E-1,1.111959827E1
1.878734336E0,-7.230000496E-1,1.110000038E1,5.295000225E-2,1.112364784E1
1.880695672E0,-8.770500422E-1,1.110000038E1,1.500000060E-2,1.113460598E1
1.882656661E0,-9.919500351E-1,1.113795090E1,-2.205000073E-2,1.118205711E1
1.884617751E0,-1.144950032E0,1.113795090E1,-2.205000073E-2,1.119666678E1
1.886579005E0,-1.222050071E0,1.113795090E1,1.500000060E-2,1.120480172E1
1.888540211E0,-1.222050071E0,1.106100082E1,-2.205000073E-2,1.112832565E1
1.890501506E0,-1.222050071E0,1.102305031E1,9.195000678E-2,1.109096476E1
1.892462764E0,-1.297950029E0,1.094595051E1,1.500000060E-2,1.102264632E1
1.894424306E0,-1.375050068E0,1.090800095E1,-2.205000073E-2,1.099435007E1
1.896385764E0,-1.375050068E0,1.079295063E1,-6.105000153E-2,1.088036181E1
1.898346822E0,-1.452000022E0,1.075500011E1,-6.105000153E-2,1.085274429E1
1.900307997E0,-1.452000022E0,1.075500011E1,-9.900000691E-2,1.085302412E1
1.902269241E0,-1.528050065E0,1.063995075E1,-2.140500098E-1,1.075124674E1
1.904230461E0,-1.489950061E0,1.060095024E1,-1.759500057E-1,1.070658935E1
1.906191650E0,-1.528050065E0,1.060095024E1,-1.759500057E-1,1.071195787E1
1.908152848E0,-1.452000022E0,1.056300068E1,-2.140500098E-1,1.066447865E1
1.910113949E0,-1.452000022E0,1.056300068E1,-2.140500098E-1,1.066447865E1
1.912075079E0,-1.297950029E0,1.060095024E1,-1.759500057E-1,1.068156256E1
1.914036281E0,-1.222050071E0,1.056300068E1,-1.759500057E-1,1.063491176E1
1.915997461E0,-1.144950032E0,1.060095024E1,-1.759500057E-1,1.066405247E1
1.917958521E0,-9.919500351E-1,1.056300068E1,-1.369500011E-1,1.061035831E1
1.919919617E0,-9.529500604E-1,1.056300068E1,-6.105000153E-2,1.060607488E1
1.921880870E0,-8.770500422E-1,1.060095024E1,-9.900000691E-2,1.063762961E1
1.923842077E0,-7.999500632E-1,1.044795036E1,-9.900000691E-2,1.047899747E1
1.925803192E0,-6.469500065E-1,1.044795036E1,-2.520000041E-1,1.047099399E1
1.927764324E0,-6.079500318E-1,1.037100029E1,-2.520000041E-1,1.039186000E1
1.929725570E0,-6.079500318E-1,1.033305073E1,-2.140500098E-1,1.035313276E1
1.931686783E0,-5.700000525E-1,1.025595093E1,-3.289500177E-1,1.027704421E1
1.933647612E0,-5.320500135E-1,1.018005085E1,-5.590500236E-1,1.020926292E1
1.935608554E0,-3.780000210E-1,1.018005085E1,-6.360000372E-1,1.020690038E1
1.937569667E0,-3.780000210E-1,1.014105034E1,-6.360000372E-1,1.016800285E1
1.939530720E0,-1.870500147E-1,1.014105034E1,-6.360000372E-1,1.016269579E1
1.941491846E0,-1.480500102E-1,9.988050461E0,-5.209500194E-1,1.000272262E1
1.943452951E0,4.050000105E-3,9.949950218E0,-5.209500194E-1,9.963579411E0
1.945414024E0,4.200000316E-2,9.910950661E0,-4.440000355E-1,9.920979943E0
1.947375107E0,1.189500093E-1,9.720000267E0,-3.670500219E-1,9.727655422E0
1.949336372E0,1.960500032E-1,9.643050194E0,-2.910000086E-1,9.649431779E0
1.951297576E0,2.340000123E-1,9.528000832E0,-2.910000086E-1,9.535315247E0
1.953258632E0,2.340000123E-1,9.412950516E0,-3.670500219E-1,9.423010089E0
1.955219732E0,2.719500065E-1,9.298050880E0,-4.060500264E-1,9.310885221E0
1.957180625E0,3.490500152E-1,9.220950127E0,-4.060500264E-1,9.236483843E0
1.959141578E0,3.109500110E-1,9.067950249E0,-4.440000355E-1,9.084137144E0
1.961103050E0,5.020500422E-1,8.991000175E0,-4.440000355E-1,9.015945565E0
1.963064360E0,5.410500169E-1,8.914950371E0,-4.060500264E-1,8.940578944E0
1.965025938E0,5.410500169E-1,8.877000809E0,-4.060500264E-1,8.902738629E0
1.966987437E0,5.410500169E-1,8.800050735E0,-5.970000029E-1,8.836856742E0
1.968949343E0,7.699500322E-1,8.761950493E0,-5.970000029E-1,8.815951934E0
1.970911129E0,7.320000529E-1,8.685000420E0,-4.440000355E-1,8.727095301E0
1.972872261E0,6.550500393E-1,8.685000420E0,-4.440000355E-1,8.720978092E0
1.974833588E0,7.320000529E-1,8.647050858E0,-4.440000355E-1,8.689329585E0
1.976794981E0,6.940500140E-1,8.685000420E0,-5.209500194E-1,8.728248772E0
1.978756355E0,6.550500393E-1,8.647050858E0,-5.209500194E-1,8.687460389E0
1.980717562E0,6.940500140E-1,8.608050346E0,-5.209500194E-1,8.651683369E0
1.982678818E0,7.320000529E-1,8.532000542E0,-3.289500177E-1,8.569659587E0
1.984639995E0,6.169500351E-1,8.569950104E0,-3.289500177E-1,8.598423125E0
1.986601198E0,5.790000558E-1,8.569950104E0,-5.209500194E-1,8.605270174E0
1.988562432E0,6.940500140E-1,8.532000542E0,-7.120500207E-1,8.589747022E0
1.990523657E0,7.320000529E-1,8.532000542E0,-7.510500550E-1,8.596216232E0
1.992484889E0,7.320000529E-1,8.532000542E0,-7.890000343E-1,8.599615013E0
1.994446119E0,7.320000529E-1,8.532000542E0,-7.120500207E-1,8.592896633E0
1.996407362E0,6.940500140E-1,8.608050346E0,-5.970000029E-1,8.656595473E0
1.998368624E0,6.550500393E-1,8.532000542E0,-6.739500165E-1,8.583608357E0
2.000329085E0,6.940500140E-1,8.608050346E0,-5.970000029E-1,8.656595473E0
2.002289780E0,5.410500169E-1,8.685000420E0,-5.970000029E-1,8.722291924E0
2.004250561E0,5.020500422E-1,8.722949982E0,-6.739500165E-1,8.763339503E0
2.006211317E0,5.020500422E-1,8.722949982E0,-6.739500165E-1,8.763339503E0
2.008172328E0,5.020500422E-1,8.800050735E0,-6.360000372E-1,8.837275782E0
2.010133254E0,3.490500152E-1,8.838000298E0,-5.970000029E-1,8.865015182E0
2.012093997E0,2.719500065E-1,8.877000809E0,-7.120500207E-1,8.909664157E0
2.014054794E0,2.340000123E-1,8.877000809E0,-8.269500136E-1,8.918505799E0
2.016015693E0,1.960500032E-1,8.877000809E0,-9.040500522E-1,8.925070614E0
2.017976562E0,1.960500032E-1,8.914950371E0,-9.040500522E-1,8.962816645E0
2.019937484E0,2.719500065E-1,8.953050613E0,-9.040500522E-1,9.002687298E0
2.021898398E0,3.109500110E-1,8.991000175E0,-7.510500550E-1,9.027671364E0
2.023859323E0,1.960500032E-1,9.106050491E0,-6.739500165E-1,9.133060811E0
2.025820244E0,4.050000105E-3,9.183000565E0,-6.739500165E-1,9.207699191E0
2.027781528E0,-3.299999982E-2,9.220950127E0,-7.120500207E-1,9.248460708E0
2.029742705E0,-1.099500060E-1,9.220950127E0,-8.659500480E-1,9.262174676E0
2.031703631E0,-7.200000435E-2,9.183000565E0,-8.659500480E-1,9.224020428E0
2.033664631E0,-7.200000435E-2,9.183000565E0,-9.420000315E-1,9.231470491E0
2.035625541E0,-1.480500102E-1,9.106050491E0,-9.420000315E-1,9.155841764E0
2.037586477E0,-1.099500060E-1,9.106050491E0,-1.018950105E0,9.163542103E0
2.039547532E0,-1.480500102E-1,9.067950249E0,-1.018950105E0,9.126220457E0
2.041508552E0,-1.870500147E-1,9.030000687E0,-1.018950105E0,9.089233159E0
2.043469674E0,-2.250000089E-1,8.877000809E0,-1.096050024E0,8.947239463E0
2.045430773E0,-1.480500102E-1,8.877000809E0,-1.134000063E0,8.950364144E0
2.047391802E0,-2.250000089E-1,8.647050858E0,-1.479000092E0,8.775508806E0
2.049352852E0,-2.629500031E-1,8.455050468E0,-1.861950040E0,8.661632587E0
2.051313933E0,-1.099500060E-1,8.569950104E0,-1.249050021E0,8.661192744E0
2.053275004E0,-2.629500031E-1,8.647050858E0,-6.739500165E-1,8.677259928E0
2.055236030E0,-3.400500119E-1,8.685000420E0,-7.890000343E-1,8.727392930E0
2.057197106E0,-3.019500077E-1,8.647050858E0,-9.040500522E-1,8.699423477E0
2.059158228E0,-2.629500031E-1,8.647050858E0,-7.890000343E-1,8.686952992E0
2.061119337E0,-3.400500119E-1,8.647050858E0,-8.659500480E-1,8.696953031E0
2.063080724E0,-3.780000210E-1,8.608050346E0,-1.018950105E0,8.676386004E0
2.065042029E0,-3.780000210E-1,8.532000542E0,-1.134000063E0,8.615327817E0
2.067002914E0,-3.019500077E-1,8.340000153E0,-1.287000060E0,8.444118989E0
2.068963935E0,-3.019500077E-1,8.302050591E0,-1.326000094E0,8.412698382E0
2.070925336E0,-2.250000089E-1,8.148000717E0,-1.326000094E0,8.258257500E0
2.072886626E0,-2.250000089E-1,7.957050323E0,-1.326000094E0,8.069916425E0
2.074847712E0,-1.870500147E-1,7.957050323E0,-1.287000060E0,8.062630260E0
2.076808858E0,-2.629500031E-1,7.842000484E0,-1.249050021E0,7.945202342E0
2.078770036E0,-2.250000089E-1,7.803000450E0,-1.171950102E0,7.893725867E0
2.080731220E0,-2.250000089E-1,7.687950134E0,-1.210950017E0,7.785987556E0
2.082692144E0,-2.629500031E-1,7.650000572E0,-1.249050021E0,7.755757694E0
2.084653145E0,-2.250000089E-1,7.687950134E0,-1.249050021E0,7.792004121E0
2.086614369E0,-1.870500147E-1,7.612050533E0,-1.249050021E0,7.716114760E0
2.088575528E0,-3.299999982E-2,7.650000572E0,-1.326000094E0,7.764140262E0
2.090536573E0,-3.299999982E-2,7.687950134E0,-1.287000060E0,7.795000668E0
2.092497665E0,4.050000105E-3,7.765050411E0,-1.363950014E0,7.883932010E0
2.094458739E0,4.200000316E-2,7.803000450E0,-1.326000094E0,7.914976707E0
2.096419818E0,4.050000105E-3,7.803000450E0,-1.326000094E0,7.914866308E0
2.098380939E0,4.050000105E-3,7.842000484E0,-1.326000094E0,7.953317814E0
2.100342047E0,4.050000105E-3,7.879950523E0,-1.287000060E0,7.984360075E0
2.102303101E0,-3.299999982E-2,7.879950523E0,-1.249050021E0,7.978398035E0
2.104264184E0,-1.099500060E-1,7.918050289E0,-1.210950017E0,8.010868201E0
2.106225215E0,-1.480500102E-1,7.879950523E0,-1.210950017E0,7.973828378E0
2.108186261E0,-1.099500060E-1,7.918050289E0,-1.210950017E0,8.010868201E0
2.110147163E0,-1.480500102E-1,7.918050289E0,-1.210950017E0,8.011481706E0
2.112108107E0,-1.480500102E-1,7.918050289E0,-1.249050021E0,8.017329053E0
2.114068836E0,-1.870500147E-1,7.957050323E0,-1.287000060E0,8.062630260E0
2.116029636E0,-2.250000089E-1,7.995000362E0,-1.210950017E0,8.089317384E0
2.117990444E0,-2.629500031E-1,7.957050323E0,-1.210950017E0,8.052961722E0
2.119951249E0,-3.019500077E-1,7.995000362E0,-1.249050021E0,8.097612646E0
2.121912013E0,-3.400500119E-1,8.032950401E0,-1.249050021E0,8.136587252E0
2.123872789E0,-3.400500119E-1,7.995000362E0,-1.210950017E0,8.093334588E0
2.125833917E0,-3.780000210E-1,8.032950401E0,-1.287000060E0,8.144172476E0
2.127794941E0,-3.780000210E-1,8.071949959E0,-1.326000094E0,8.188866613E0
2.129756027E0,-4.549500346E-1,8.110050201E0,-1.249050021E0,8.218273527E0
2.131717095E0,-4.170000255E-1,8.110050201E0,-1.363950014E0,8.234510485E0
2.133677949E0,-4.930500090E-1,8.071949959E0,-1.363950014E0,8.201209307E0
2.135638866E0,-5.320500135E-1,8.110050201E0,-1.441050053E0,8.254248406E0
2.137599626E0,-6.079500318E-1,8.148000717E0,-1.402050018E0,8.290070155E0
2.139560453E0,-5.700000525E-1,8.187000275E0,-1.402050018E0,8.325720258E0
2.141521572E0,-5.700000525E-1,8.187000275E0,-1.402050018E0,8.325720258E0
2.143482605E0,-6.079500318E-1,8.187000275E0,-1.441050053E0,8.335058608E0
2.145443465E0,-6.079500318E-1,8.187000275E0,-1.441050053E0,8.335058608E0
2.147404376E0,-6.850500107E-1,8.224950790E0,-1.516950130E0,8.391677229E0
2.149365147E0,-6.850500107E-1,8.263050079E0,-1.516950130E0,8.429022946E0
2.151325972E0,-6.850500107E-1,8.263050079E0,-1.555950046E0,8.436128892E0
2.153286551E0,-7.230000496E-1,8.263050079E0,-1.555950046E0,8.439295363E0
2.155247203E0,-7.999500632E-1,8.302050591E0,-1.594050050E0,8.491463930E0
2.157207992E0,-7.620000243E-1,8.302050591E0,-1.671000123E0,8.502760108E0
2.159168740E0,-7.620000243E-1,8.340000153E0,-1.708950043E0,8.547324542E0
2.161129809E0,-8.380500674E-1,8.340000153E0,-1.824000120E0,8.578164541E0
2.163090798E0,-7.999500632E-1,8.377950668E0,-1.900950074E0,8.628069812E0
2.165051350E0,-8.380500674E-1,8.416950226E0,-1.861950040E0,8.661075971E0
2.167012030E0,-8.770500422E-1,8.455050468E0,-1.977000117E0,8.727291943E0
2.168972679E0,-8.770500422E-1,8.493000031E0,-2.014950037E0,8.772701405E0
2.170933338E0,-8.770500422E-1,8.608050346E0,-1.977000117E0,8.875600093E0
2.172893946E0,-8.770500422E-1,8.722949982E0,-2.053950071E0,9.004320299E0
2.174854569E0,-8.770500422E-1,8.761950493E0,-2.092050076E0,9.050837902E0
2.176815542E0,-9.150000215E-1,8.914950371E0,-2.206950188E0,9.229528389E0
2.178776413E0,-8.770500422E-1,8.953050613E0,-2.206950188E0,9.262664908E0
2.180737120E0,-8.770500422E-1,9.067950249E0,-2.245050192E0,9.382813483E0
2.182697876E0,-7.999500632E-1,9.145050049E0,-2.245050192E0,9.450508498E0
2.184659071E0,-7.999500632E-1,9.220950127E0,-2.245050192E0,9.523974575E0
2.186620124E0,-6.469500065E-1,9.259950638E0,-2.206950188E0,9.541271365E0
2.188580981E0,-6.079500318E-1,9.259950638E0,-2.206950188E0,9.538706316E0
2.190541895E0,-6.079500318E-1,9.220950127E0,-2.284050226E0,9.519055096E0
2.192502459E0,-5.700000525E-1,9.259950638E0,-2.322000027E0,9.563643134E0
2.194463126E0,-6.079500318E-1,9.259950638E0,-2.284050226E0,9.556839148E0
2.196423942E0,-6.469500065E-1,9.336000443E0,-2.284050226E0,9.633085384E0
2.198384725E0,-7.230000496E-1,9.451050758E0,-2.359950066E0,9.768032239E0
2.200345627E0,-7.999500632E-1,9.490050316E0,-2.398950100E0,9.821198332E0
2.202306494E0,-8.380500674E-1,9.643050194E0,-2.359950066E0,9.962936779E0
2.204267292E0,-9.150000215E-1,9.720000267E0,-2.398950100E0,1.005338708E1
2.206228111E0,-1.030050039E0,9.757950783E0,-2.359950066E0,1.009197557E1
2.208189231E0,-1.144950032E0,9.873000145E0,-2.398950100E0,1.022457843E1
2.210150263E0,-1.222050071E0,9.949950218E0,-2.359950066E0,1.029875138E1
2.212111303E0,-1.297950029E0,9.949950218E0,-2.359950066E0,1.030803317E1
2.214072340E0,-1.375050068E0,1.002600002E1,-2.359950066E0,1.039138121E1
2.216033065E0,-1.528050065E0,9.988050461E0,-2.284050226E0,1.035919758E1
2.217993881E0,-1.605000019E0,1.006500053E1,-2.284050226E0,1.044495793E1
2.219954507E0,-1.681950092E0,1.006500053E1,-2.284050226E0,1.045705873E1
2.221915188E0,-1.834950089E0,1.002600002E1,-2.169000149E0,1.042076197E1
2.223876107E0,-1.834950089E0,1.006500053E1,-2.092050076E0,1.044260270E1
2.225836956E0,-1.950000048E0,1.010295010E1,-2.053950071E0,1.049241687E1
2.227797712E0,-2.065050125E0,1.014105034E1,-2.053950071E0,1.055102104E1
2.229758496E0,-2.140950203E0,1.014105034E1,-2.092050076E0,1.057361070E1
2.231719447E0,-2.256000042E0,1.018005085E1,-2.092050076E0,1.063483169E1
2.233680345E0,-2.295000076E0,1.021800041E1,-2.053950071E0,1.067207893E1
2.235641453E0,-2.371050119E0,1.021800041E1,-2.053950071E0,1.068869131E1
2.237602499E0,-2.410050154E0,1.025595093E1,-2.014950037E0,1.072627125E1
2.239563402E0,-2.485950232E0,1.029495049E1,-1.939050078E0,1.076688763E1
2.241524347E0,-2.524950027E0,1.033305073E1,-1.977000117E0,1.081923470E1
2.243485499E0,-2.524950027E0,1.037100029E1,-1.977000117E0,1.085548475E1
2.245446552E0,-2.563050032E0,1.041000080E1,-1.977000117E0,1.090164536E1
2.247407454E0,-2.563050032E0,1.048605061E1,-1.977000117E0,1.097428869E1
2.249368400E0,-2.563050032E0,1.048605061E1,-1.900950074E0,1.096084367E1
2.251329363E0,-2.448000193E0,1.048605061E1,-1.977000117E0,1.094799030E1
2.253290321E0,-2.485950232E0,1.048605061E1,-1.861950040E0,1.093636429E1
2.255251244E0,-2.410050154E0,1.044795036E1,-1.900950074E0,1.088951880E1
2.257212174E0,-2.371050119E0,1.044795036E1,-1.900950074E0,1.088095385E1
2.259173096E0,-2.371050119E0,1.048605061E1,-2.053950071E0,1.094522028E1
2.261134021E0,-2.295000076E0,1.048605061E1,-2.092050076E0,1.093622221E1
2.263095438E0,-2.218050003E0,1.048605061E1,-2.092050076E0,1.092033317E1
2.265056711E0,-2.218050003E0,1.048605061E1,-2.130000114E0,1.092766689E1
2.267017640E0,-2.103000164E0,1.052505016E1,-2.206950188E0,1.095764207E1
2.268978656E0,-2.140950203E0,1.048605061E1,-2.284050226E0,1.094339118E1
2.270939697E0,-2.103000164E0,1.052505016E1,-2.322000027E0,1.098139220E1
2.272900731E0,-2.103000164E0,1.056300068E1,-2.322000027E0,1.101777097E1
2.274861681E0,-2.026050091E0,1.056300068E1,-2.322000027E0,1.100334251E1
2.276822656E0,-2.026050091E0,1.056300068E1,-2.398950100E0,1.101983774E1
2.278783768E0,-2.065050125E0,1.063995075E1,-2.359950066E0,1.109244555E1
2.280744827E0,-2.026050091E0,1.071600056E1,-2.322000027E0,1.115030184E1
2.282705863E0,-2.065050125E0,1.071600056E1,-2.322000027E0,1.115745419E1
2.284666906E0,-2.026050091E0,1.083105087E1,-2.322000027E0,1.126091586E1
2.286627988E0,-1.987950087E0,1.083105087E1,-2.169000149E0,1.122355426E1
2.288589058E0,-1.987950087E0,1.090800095E1,-2.130000114E0,1.129040879E1
2.290549976E0,-2.026050091E0,1.098495007E1,-1.939050078E0,1.133728019E1
2.292510925E0,-1.987950087E0,1.106100082E1,-1.900950074E0,1.139786366E1
2.294471708E0,-2.026050091E0,1.117605019E1,-1.786050081E0,1.149778029E1
2.296432540E0,-2.065050125E0,1.125300026E1,-1.708950043E0,1.156784151E1
2.298393613E0,-1.987950087E0,1.136805058E1,-1.632000089E0,1.165538261E1
2.300354615E0,-1.987950087E0,1.140600014E1,-1.555950046E0,1.168202744E1
2.302315581E0,-1.987950087E0,1.155900097E1,-1.479000092E0,1.182158577E1
2.304276550E0,-1.987950087E0,1.159800053E1,-1.479000092E0,1.185972188E1
2.306237420E0,-1.911000133E0,1.167405033E1,-1.402050018E0,1.191222552E1
2.308198319E0,-1.834950089E0,1.175100040E1,-1.441050053E0,1.198038721E1
2.310159066E0,-1.834950089E0,1.182795048E1,-1.441050053E0,1.205587324E1
2.312119858E0,-1.795950055E0,1.182795048E1,-1.363950014E0,1.204102191E1
2.314080847E0,-1.681950092E0,1.194300079E1,-1.363950014E0,1.213773388E1
2.316041779E0,-1.642950058E0,1.198095036E1,-1.249050021E0,1.215740853E1
2.318002881E0,-1.567050099E0,1.198095036E1,-1.326000094E0,1.215553757E1
2.319963933E0,-1.413000107E0,1.201905060E1,-1.171950102E0,1.215843796E1
2.321924970E0,-1.297950029E0,1.198095036E1,-1.171950102E0,1.210790290E1
2.323886012E0,-1.260000110E0,1.201905060E1,-1.134000063E0,1.213800370E1
2.325847283E0,-1.106999993E0,1.198095036E1,-1.134000063E0,1.208530416E1
2.327808480E0,-9.919500351E-1,1.194300079E1,-1.096050024E0,1.203414137E1
2.329769402E0,-9.150000215E-1,1.194300079E1,-1.018950105E0,1.202126251E1
2.331730405E0,-8.380500674E-1,1.198095036E1,-9.810000658E-1,1.205022242E1
2.333691134E0,-6.850500107E-1,1.201905060E1,-9.810000658E-1,1.207846149E1
2.335651944E0,-6.850500107E-1,1.194300079E1,-9.810000658E-1,1.200278812E1
2.337612836E0,-5.700000525E-1,1.190400028E1,-9.040500522E-1,1.195187974E1
2.339573707E0,-4.930500090E-1,1.190400028E1,-7.890000343E-1,1.194030327E1
2.341534505E0,-4.549500346E-1,1.194300079E1,-7.890000343E-1,1.197767793E1
2.343495325E0,-4.170000255E-1,1.194300079E1,-7.120500207E-1,1.197147327E1
2.345456399E0,-3.400500119E-1,1.194300079E1,-6.739500165E-1,1.196683377E1
2.347417399E0,-2.250000089E-1,1.198095036E1,-7.120500207E-1,1.200419975E1
2.349378679E0,-1.480500102E-1,1.205805016E1,-6.739500165E-1,1.207777715E1
2.351339870E0,-7.200000435E-2,1.205805016E1,-7.120500207E-1,1.207927037E1
2.353300793E0,4.050000105E-3,1.209600067E1,-6.739500165E-1,1.211476196E1
2.355261795E0,4.200000316E-2,1.213395023E1,-5.970000029E-1,1.214870039E1
2.357223019E0,1.189500093E-1,1.217295074E1,-5.590500236E-1,1.218636188E1
2.359184178E0,1.570500135E-1,1.221105099E1,-4.440000355E-1,1.222012958E1
2.361145292E0,2.340000123E-1,1.224900055E1,-5.209500194E-1,1.226230645E1
2.363106416E0,3.109500110E-1,1.232595062E1,-5.209500194E-1,1.234087264E1
2.365067484E0,4.260000288E-1,1.224900055E1,-4.440000355E-1,1.226444563E1
2.367028569E0,5.020500422E-1,1.232595062E1,-3.289500177E-1,1.234055595E1
2.368990365E0,6.169500351E-1,1.224900055E1,-2.910000086E-1,1.226797957E1
2.370951952E0,6.169500351E-1,1.217295074E1,-6.739500165E-1,1.220719320E1
2.372913239E0,9.240000248E-1,1.198095036E1,-5.970000029E-1,1.203134890E1
2.374874627E0,1.077000022E0,1.205805016E1,5.295000225E-2,1.210616811E1
2.376834975E0,1.039050102E0,1.209600067E1,4.360500276E-1,1.214837425E1
2.378795627E0,1.114950061E0,1.221105099E1,5.509500504E-1,1.227421793E1
2.380756911E0,1.269000053E0,1.205805016E1,3.979500234E-1,1.213117055E1
2.382718010E0,1.384050012E0,1.190400028E1,3.600000143E-1,1.198959621E1
2.384679683E0,1.384050012E0,1.163595009E1,2.070000172E-1,1.171980281E1
2.386641178E0,1.537050128E0,1.155900097E1,2.830500007E-1,1.166418209E1
2.388601644E0,1.920000076E0,1.129095078E1,5.130000114E-1,1.146451651E1
2.390562411E0,2.111999989E0,1.094595051E1,5.509500504E-1,1.116144804E1
2.392523720E0,2.188950062E0,1.067805004E1,7.050000429E-1,1.092287875E1
2.394484870E0,2.188950062E0,1.033305073E1,7.429500222E-1,1.058845666E1
2.396446115E0,2.265000105E0,1.006500053E1,8.200500607E-1,1.034924844E1
2.398407332E0,2.341950178E0,9.796050072E0,9.349500537E-1,1.011540702E1
2.400368386E0,2.419050217E0,9.490050316E0,1.087950110E0,9.853755345E0
2.402329488E0,2.494950056E0,9.183000565E0,1.126049995E0,9.582289066E0
2.404290739E0,2.457000017E0,8.953050613E0,1.165050030E0,9.356885483E0
2.406251947E0,2.572050095E0,8.722949982E0,1.240950108E0,9.178521408E0
2.408213163E0,2.494950056E0,8.532000542E0,1.279950023E0,8.980984416E0
2.410174390E0,2.494950056E0,8.263050079E0,1.318050027E0,8.731553600E0
2.412135577E0,2.457000017E0,8.071949959E0,1.395000100E0,8.552148882E0
2.414096776E0,2.380050182E0,7.879950523E0,1.395000100E0,8.348909174E0
2.416057832E0,2.341950178E0,7.687950134E0,1.432950020E0,8.163495187E0
2.418018930E0,2.380050182E0,7.534950256E0,1.395000100E0,8.024097427E0
2.419980178E0,2.304000139E0,7.381950378E0,1.318050027E0,7.844671051E0
2.421941385E0,2.188950062E0,7.267050266E0,1.356000066E0,7.709750847E0
2.423902620E0,2.188950062E0,7.075050354E0,1.279950023E0,7.515724313E0
2.425863846E0,2.111999989E0,6.960000515E0,1.356000066E0,7.398708489E0
2.427825078E0,2.074050188E0,6.844950199E0,1.279950023E0,7.265899770E0
2.429786308E0,1.996950150E0,6.768000126E0,1.203000069E0,7.158271074E0
2.431747510E0,1.920000076E0,6.691950321E0,1.126049995E0,7.052417173E0
2.433708740E0,1.804950118E0,6.654000282E0,1.050000072E0,6.973956183E0
2.435670152E0,1.690050125E0,6.654000282E0,1.050000072E0,6.945105423E0
2.437631510E0,1.690050125E0,6.654000282E0,9.730500579E-1,6.933888923E0
2.439592720E0,1.614000082E0,6.691950321E0,8.959500194E-1,6.941896124E0
2.441553973E0,1.498950124E0,6.768000126E0,9.730500579E-1,6.999964542E0
2.443515006E0,1.459950089E0,6.883050442E0,1.011000037E0,7.108442778E0
2.445476113E0,1.384050012E0,6.960000515E0,1.050000072E0,7.173541786E0
2.447437185E0,1.306950092E0,7.075050354E0,1.011000037E0,7.265437160E0
2.449398267E0,1.269000053E0,7.267050266E0,9.730500579E-1,7.440914401E0
2.451359163E0,1.269000053E0,7.381950378E0,1.011000037E0,7.558152790E0
2.453320113E0,1.306950092E0,7.458000183E0,1.126049995E0,7.654924811E0
2.455281420E0,1.230000019E0,7.612050533E0,1.165050030E0,7.798304620E0
2.457242633E0,1.192050099E0,7.765050411E0,1.165050030E0,7.941935085E0
2.459203823E0,1.077000022E0,7.918050289E0,1.240950108E0,8.086742644E0
2.461165020E0,1.000050068E0,8.071949959E0,1.279950023E0,8.233756636E0
2.463126661E0,9.240000248E-1,8.187000275E0,1.279950023E0,8.337806762E0
2.465088172E0,8.850000501E-1,8.340000153E0,1.356000066E0,8.495737979E0
2.467049711E0,8.470500112E-1,8.493000031E0,1.395000100E0,8.648385313E0
2.469011245E0,8.850000501E-1,8.608050346E0,1.432950020E0,8.771265679E0
2.470972605E0,9.619500637E-1,8.722949982E0,1.356000066E0,8.879974126E0
2.472934016E0,8.850000501E-1,8.877000809E0,1.395000100E0,9.029418239E0
2.474895396E0,8.470500112E-1,9.106050491E0,1.395000100E0,9.251144500E0
2.476856785E0,8.470500112E-1,9.259950638E0,1.471050024E0,9.414253433E0
2.478818528E0,7.320000529E-1,9.375000000E0,1.471050024E0,9.517900885E0
2.480780168E0,7.320000529E-1,9.604950905E0,1.471050024E0,9.744480188E0
2.482740744E0,6.550500393E-1,9.757950783E0,1.471050024E0,9.889928322E0
2.484701632E0,5.020500422E-1,9.835050583E0,1.395000100E0,9.946170092E0
2.486663641E0,5.020500422E-1,9.949950218E0,1.395000100E0,1.005980064E1
2.488625322E0,5.020500422E-1,9.988050461E0,1.279950023E0,1.008223578E1
2.490586642E0,5.410500169E-1,1.002600002E1,1.240950108E0,1.011698417E1
2.492548078E0,5.020500422E-1,1.006500053E1,1.203000069E0,1.014906395E1
2.494510579E0,6.550500393E-1,1.006500053E1,1.165050030E0,1.015335747E1
2.496472768E0,6.940500140E-1,1.014105034E1,1.087950110E0,1.022282949E1
2.498434016E0,6.940500140E-1,1.010295010E1,1.050000072E0,1.018105133E1
2.500395540E0,7.320000529E-1,1.010295010E1,1.050000072E0,1.018370880E1
2.502357061E0,7.320000529E-1,1.006500053E1,1.011000037E0,1.014209943E1
2.504318596E0,7.320000529E-1,1.006500053E1,1.011000037E0,1.014209943E1
2.506279956E0,6.940500140E-1,1.002600002E1,1.087950110E0,1.010870997E1
2.508241367E0,6.169500351E-1,1.006500053E1,1.087950110E0,1.014241088E1
2.510201666E0,5.790000558E-1,1.002600002E1,1.011000037E0,1.009346514E1
2.512162290E0,5.020500422E-1,1.002600002E1,9.730500579E-1,1.008561139E1
2.514123948E0,4.260000288E-1,1.010295010E1,9.730500579E-1,1.015863687E1
2.516085297E0,4.639500082E-1,1.010295010E1,8.959500194E-1,1.015320524E1
2.518046193E0,4.260000288E-1,1.010295010E1,7.429500222E-1,1.013918396E1
2.520007222E0,3.870000243E-1,1.014105034E1,8.580000401E-1,1.018463721E1
2.521968306E0,3.870000243E-1,1.021800041E1,9.730500579E-1,1.027152023E1
2.523929374E0,3.109500110E-1,1.025595093E1,1.011000037E0,1.031035113E1
2.525890837E0,2.719500065E-1,1.021800041E1,9.349500537E-1,1.026428862E1
2.527852167E0,2.340000123E-1,1.021800041E1,9.349500537E-1,1.026335325E1
2.529813382E0,2.340000123E-1,1.021800041E1,8.580000401E-1,1.025662968E1
2.531774631E0,1.570500135E-1,1.018005085E1,7.050000429E-1,1.020564183E1
2.533735993E0,1.189500093E-1,1.014105034E1,7.050000429E-1,1.016622231E1
2.535697321E0,1.570500135E-1,1.006500053E1,6.660000086E-1,1.008823357E1
2.537658397E0,1.960500032E-1,9.910950661E0,6.280500293E-1,9.932765246E0
2.539619550E0,1.189500093E-1,9.910950661E0,6.280500293E-1,9.931542627E0
2.541580614E0,1.570500135E-1,9.796050072E0,5.899500251E-1,9.815054903E0
2.543541704E0,1.960500032E-1,9.720000267E0,5.130000114E-1,9.735502545E0
2.545503093E0,2.719500065E-1,9.643050194E0,5.509500504E-1,9.662604194E0
2.547464394E0,3.490500152E-1,9.565950394E0,5.509500504E-1,9.588158781E0
2.549425414E0,3.109500110E-1,9.528000832E0,5.899500251E-1,9.551310423E0
2.551386530E0,3.870000243E-1,9.451050758E0,5.130000114E-1,9.472871712E0
2.553347645E0,4.639500082E-1,9.375000000E0,5.130000114E-1,9.400481031E0
2.555308761E0,5.020500422E-1,9.336000443E0,3.979500234E-1,9.357955051E0
2.557270912E0,6.550500393E-1,9.259950638E0,5.509500504E-1,9.299425914E0
2.559232759E0,7.320000529E-1,9.183000565E0,6.280500293E-1,9.233513431E0
2.561193679E0,8.089500666E-1,9.183000565E0,6.280500293E-1,9.239932165E0
2.563154857E0,9.240000248E-1,9.183000565E0,7.810500264E-1,9.262360097E0
2.565115917E0,9.240000248E-1,9.220950127E0,7.429500222E-1,9.296863558E0
2.567077011E0,9.240000248E-1,9.183000565E0,6.660000086E-1,9.253368653E0
2.569038310E0,8.850000501E-1,9.106050491E0,6.280500293E-1,9.170486763E0
2.570999548E0,6.940500140E-1,9.067950249E0,5.899500251E-1,9.113587009E0
2.572960758E0,8.850000501E-1,9.183000565E0,7.050000429E-1,9.252445597E0
2.574921991E0,1.077000022E0,9.145050049E0,7.810500264E-1,9.241315306E0
2.576883401E0,1.077000022E0,9.220950127E0,7.810500264E-1,9.316431153E0
2.578844759E0,1.039050102E0,9.259950638E0,7.429500222E-1,9.347635298E0
2.580805969E0,1.114950061E0,9.259950638E0,6.660000086E-1,9.350580488E0
2.582767222E0,1.077000022E0,9.336000443E0,5.509500504E-1,9.414052224E0
2.584728395E0,1.039050102E0,9.298050880E0,5.899500251E-1,9.374508858E0
2.586689598E0,1.114950061E0,9.298050880E0,7.050000429E-1,9.391160145E0
2.588650832E0,1.153950095E0,9.220950127E0,8.200500607E-1,9.328987306E0
2.590612057E0,1.230000019E0,9.183000565E0,8.959500194E-1,9.308228932E0
2.592573155E0,1.269000053E0,9.298050880E0,9.730500579E-1,9.434560813E0
2.594534290E0,1.269000053E0,9.336000443E0,1.011000037E0,9.475937235E0
2.596495720E0,1.269000053E0,9.336000443E0,1.011000037E0,9.475937235E0
2.598457061E0,1.269000053E0,9.375000000E0,1.050000072E0,9.518586360E0
2.600418274E0,1.269000053E0,9.375000000E0,1.011000037E0,9.514363206E0
2.602379525E0,1.230000019E0,9.412950516E0,1.050000072E0,9.550865804E0
2.604341788E0,1.192050099E0,9.183000565E0,4.360500276E-1,9.270308648E0
2.606303754E0,1.230000019E0,8.991000175E0,1.680000126E-1,9.076299257E0
2.608263963E0,1.422000051E0,9.106050491E0,1.126049995E0,9.284946327E0
2.610224684E0,1.384050012E0,9.220950127E0,1.510050058E0,9.445727439E0
2.612186226E0,1.384050012E0,9.298050880E0,1.471050024E0,9.514900566E0
2.614147528E0,1.345050097E0,9.336000443E0,1.432950020E0,9.540618941E0
2.616108703E0,1.306950092E0,9.336000443E0,1.279950023E0,9.513532197E0
2.618069915E0,1.306950092E0,9.412950516E0,1.011000037E0,9.556875903E0
2.620031203E0,1.230000019E0,9.412950516E0,9.349500537E-1,9.538902928E0
2.621992461E0,1.230000019E0,9.451050758E0,8.200500607E-1,9.565967938E0
2.623953688E0,1.269000053E0,9.451050758E0,8.200500607E-1,9.571060739E0
2.625914925E0,1.269000053E0,9.451050758E0,8.959500194E-1,9.577862393E0
2.627876469E0,1.306950092E0,9.412950516E0,9.730500579E-1,9.552935799E0
2.629837923E0,1.269000053E0,9.412950516E0,1.011000037E0,9.551760027E0
2.631799130E0,1.269000053E0,9.375000000E0,9.730500579E-1,9.510405488E0
2.633760400E0,1.269000053E0,9.375000000E0,1.050000072E0,9.518586360E0
2.635721669E0,1.269000053E0,9.375000000E0,1.050000072E0,9.518586360E0
2.637682939E0,1.192050099E0,9.336000443E0,9.349500537E-1,9.458119227E0
2.639644297E0,1.230000019E0,9.220950127E0,8.959500194E-1,9.345669999E0
2.641605629E0,1.269000053E0,9.183000565E0,8.959500194E-1,9.313462672E0
2.643566683E0,1.192050099E0,9.030000687E0,5.130000114E-1,9.122777255E0
2.645527805E0,1.077000022E0,9.067950249E0,3.600000143E-1,9.138777313E0
2.647489233E0,1.114950061E0,9.145050049E0,9.349500537E-1,9.260085617E0
2.649450572E0,1.039050102E0,9.183000565E0,1.087950110E0,9.305415624E0
2.651411786E0,1.000050068E0,9.259950638E0,1.011000037E0,9.368506126E0
2.653373036E0,8.470500112E-1,9.298050880E0,8.580000401E-1,9.375895049E0
2.655334102E0,8.470500112E-1,9.336000443E0,7.429500222E-1,9.403742485E0
2.657295208E0,7.699500322E-1,9.298050880E0,6.280500293E-1,9.350990325E0
2.659256324E0,6.940500140E-1,9.336000443E0,6.660000086E-1,9.385423043E0
2.661217437E0,6.169500351E-1,9.259950638E0,5.130000114E-1,9.294648039E0
2.663178104E0,5.790000558E-1,9.220950127E0,5.899500251E-1,9.257926514E0
2.665138901E0,4.639500082E-1,9.259950638E0,5.899500251E-1,9.290316273E0
2.667100205E0,4.639500082E-1,9.336000443E0,5.509500504E-1,9.363743900E0
2.669061360E0,3.870000243E-1,9.259950638E0,5.899500251E-1,9.286791473E0
2.671022470E0,3.109500110E-1,9.220950127E0,5.509500504E-1,9.242627176E0
2.672983593E0,1.960500032E-1,9.220950127E0,5.130000114E-1,9.237289963E0
2.674944617E0,1.189500093E-1,9.259950638E0,4.750500321E-1,9.272890998E0
2.676905670E0,1.189500093E-1,9.220950127E0,4.360500276E-1,9.232020904E0
2.678866455E0,1.189500093E-1,9.183000565E0,3.979500234E-1,9.192388846E0
2.680827305E0,8.100000024E-2,9.183000565E0,3.600000143E-1,9.190411328E0
2.682788420E0,4.050000105E-3,9.145050049E0,3.600000143E-1,9.152134003E0
2.684749457E0,-3.299999982E-2,9.106050491E0,3.600000143E-1,9.113223610E0
2.686711397E0,-3.299999982E-2,9.106050491E0,3.600000143E-1,9.113223610E0
2.688673073E0,-7.200000435E-2,8.991000175E0,2.830500007E-1,8.995742630E0
2.690633961E0,-1.480500102E-1,8.914950371E0,2.830500007E-1,8.920671288E0
2.692595046E0,-1.870500147E-1,8.914950371E0,2.830500007E-1,8.921403764E0
2.694555716E0,-2.629500031E-1,9.030000687E0,3.220500052E-1,9.039566987E0
2.696516507E0,-4.170000255E-1,9.030000687E0,3.220500052E-1,9.045358900E0
2.698478218E0,-5.700000525E-1,9.106050491E0,1.680000126E-1,9.125419421E0
2.700439659E0,-6.079500318E-1,9.220950127E0,1.300500035E-1,9.241884953E0
2.702400675E0,-5.700000525E-1,9.220950127E0,2.070000172E-1,9.240869564E0
2.704361815E0,-5.320500135E-1,9.298050880E0,1.680000126E-1,9.314775971E0
2.706322881E0,-4.930500090E-1,9.259950638E0,1.680000126E-1,9.274589378E0
2.708283969E0,-5.320500135E-1,9.259950638E0,9.195000678E-2,9.275678834E0
2.710245044E0,-4.930500090E-1,9.259950638E0,5.295000225E-2,9.273218849E0
2.712206123E0,-4.930500090E-1,9.220950127E0,1.300500035E-1,9.235038308E0
2.714167382E0,-5.320500135E-1,9.183000565E0,1.300500035E-1,9.199320061E0
2.716128586E0,-4.930500090E-1,9.145050049E0,1.300500035E-1,9.159254976E0
2.718090002E0,-4.170000255E-1,9.067950249E0,1.300500035E-1,9.078464834E0
2.720051355E0,-4.930500090E-1,9.067950249E0,1.300500035E-1,9.082275763E0
2.722012521E0,-4.930500090E-1,8.991000175E0,1.300500035E-1,9.005448099E0
2.723973742E0,-4.549500346E-1,8.953050613E0,9.195000678E-2,8.965073877E0
2.725935168E0,-4.930500090E-1,8.914950371E0,1.300500035E-1,8.929521344E0
2.727896524E0,-4.930500090E-1,8.877000809E0,9.195000678E-2,8.891158331E0
2.729857780E0,-4.170000255E-1,8.914950371E0,1.300500035E-1,8.925645195E0
2.731819065E0,-4.549500346E-1,8.838000298E0,1.680000126E-1,8.851296673E0
2.733780106E0,-4.930500090E-1,8.914950371E0,1.680000126E-1,8.930154670E0
2.735741219E0,-4.170000255E-1,8.914950371E0,1.680000126E-1,8.926278796E0
2.737702683E0,-4.170000255E-1,8.877000809E0,9.195000678E-2,8.887265450E0
2.739664020E0,-4.170000255E-1,8.877000809E0,9.195000678E-2,8.887265450E0
2.741625593E0,-4.930500090E-1,8.914950371E0,9.195000678E-2,8.929047722E0
2.743587097E0,-4.549500346E-1,8.877000809E0,9.195000678E-2,8.889126937E0
2.745548462E0,-4.549500346E-1,8.953050613E0,1.680000126E-1,8.966176377E0
2.747509868E0,-3.780000210E-1,8.953050613E0,9.195000678E-2,8.961498430E0
2.749471043E0,-3.780000210E-1,8.953050613E0,1.300500035E-1,8.961970336E0
2.751432272E0,-4.549500346E-1,8.953050613E0,5.295000225E-2,8.964758699E0
2.753393323E0,-4.170000255E-1,8.953050613E0,9.195000678E-2,8.963228164E0
2.755354426E0,-3.780000210E-1,8.991000175E0,1.300500035E-1,8.999882287E0
2.757315677E0,-4.170000255E-1,8.991000175E0,1.300500035E-1,9.001604645E0
2.759276885E0,-4.930500090E-1,9.030000687E0,5.295000225E-2,9.043606273E0
2.761238170E0,-4.170000255E-1,9.106050491E0,5.295000225E-2,9.115747269E0
2.763199429E0,-4.170000255E-1,9.106050491E0,5.295000225E-2,9.115747269E0
2.765160656E0,-3.780000210E-1,9.106050491E0,5.295000225E-2,9.114046482E0
2.767121892E0,-4.170000255E-1,9.106050491E0,9.195000678E-2,9.116057228E0
2.769082942E0,-3.780000210E-1,9.145050049E0,9.195000678E-2,9.153320666E0
2.771044046E0,-3.780000210E-1,9.220950127E0,5.295000225E-2,9.228846567E0
2.773005068E0,-4.170000255E-1,9.220950127E0,1.300500035E-1,9.231290444E0
2.774966118E0,-3.780000210E-1,9.220950127E0,5.295000225E-2,9.228846567E0
2.776927378E0,-3.780000210E-1,9.259950638E0,5.295000225E-2,9.267813849E0
2.778888577E0,-3.400500119E-1,9.259950638E0,5.295000225E-2,9.266343590E0
2.780849859E0,-3.019500077E-1,9.259950638E0,1.300500035E-1,9.265785052E0
2.782811116E0,-3.019500077E-1,9.259950638E0,1.680000126E-1,9.266395396E0
2.784772486E0,-3.019500077E-1,9.298050880E0,2.449500114E-1,9.306176685E0
2.786733817E0,-2.250000089E-1,9.336000443E0,1.300500035E-1,9.339616816E0
2.788694897E0,-1.870500147E-1,9.298050880E0,1.680000126E-1,9.301449451E0
2.790656050E0,-1.480500102E-1,9.298050880E0,2.070000172E-1,9.301533099E0
2.792617248E0,-3.299999982E-2,9.259950638E0,2.830500007E-1,9.264334413E0
2.794578433E0,-7.200000435E-2,9.259950638E0,2.830500007E-1,9.264555419E0
2.796538951E0,-7.200000435E-2,9.298050880E0,3.220500052E-1,9.303905115E0
2.798499665E0,8.100000024E-2,9.298050880E0,3.220500052E-1,9.303979115E0
2.800460803E0,4.200000316E-2,9.220950127E0,2.830500007E-1,9.225389018E0
2.802421817E0,1.570500135E-1,9.298050880E0,3.600000143E-1,9.306342724E0
2.804382771E0,1.570500135E-1,9.375000000E0,3.979500234E-1,9.384756466E0
2.806343742E0,3.109500110E-1,9.336000443E0,5.130000114E-1,9.355253240E0
2.808305017E0,3.109500110E-1,9.336000443E0,5.509500504E-1,9.357410974E0
2.810266202E0,3.490500152E-1,9.375000000E0,5.899500251E-1,9.400026699E0
2.812227262E0,3.870000243E-1,9.375000000E0,6.660000086E-1,9.406590776E0
2.814188358E0,3.870000243E-1,9.412950516E0,7.810500264E-1,9.453224084E0
2.816149610E0,3.870000243E-1,9.375000000E0,6.660000086E-1,9.406590776E0
2.818110817E0,4.260000288E-1,9.412950516E0,7.429500222E-1,9.451829885E0
2.820072728E0,5.410500169E-1,9.412950516E0,8.580000401E-1,9.467446150E0
2.822034433E0,5.790000558E-1,9.490050316E0,8.959500194E-1,9.549817930E0
2.823995403E0,6.550500393E-1,9.528000832E0,8.959500194E-1,9.592424972E0
2.825956589E0,6.940500140E-1,9.604950905E0,9.349500537E-1,9.675273583E0
2.827917826E0,6.940500140E-1,9.565950394E0,1.050000072E0,9.648399479E0
2.829879048E0,6.940500140E-1,9.604950905E0,1.203000069E0,9.704843969E0
2.831840146E0,5.790000558E-1,9.720000267E0,1.203000069E0,9.811261663E0
2.833801281E0,6.550500393E-1,9.757950783E0,1.240950108E0,9.858329027E0
2.835762662E0,6.940500140E-1,9.835050583E0,1.279950023E0,9.942243079E0
2.837723971E0,6.169500351E-1,9.873000145E0,1.279950023E0,9.974719609E0
2.839685054E0,6.169500351E-1,9.949950218E0,1.318050027E0,1.005581387E1
2.841646204E0,6.169500351E-1,1.002600002E1,1.356000066E0,1.013607616E1
2.843606454E0,5.790000558E-1,9.988050461E0,1.395000100E0,1.010160474E1
2.845567002E0,5.410500169E-1,1.006500053E1,1.395000100E0,1.017560790E1
2.847528394E0,4.639500082E-1,1.018005085E1,1.356000066E0,1.028043876E1
2.849489539E0,4.639500082E-1,1.021800041E1,1.279950023E0,1.030830025E1
2.851450739E0,4.639500082E-1,1.029495049E1,1.279950023E0,1.038458122E1
2.853411923E0,4.639500082E-1,1.033305073E1,1.279950023E0,1.042235381E1
2.855373028E0,4.639500082E-1,1.037100029E1,1.318050027E0,1.046470986E1
2.857334156E0,3.870000243E-1,1.044795036E1,1.279950023E0,1.053317179E1
2.859295404E0,3.870000243E-1,1.048605061E1,1.203000069E0,1.056192385E1
2.861256616E0,3.870000243E-1,1.048605061E1,1.165050030E0,1.055766868E1
2.863218030E0,4.260000288E-1,1.056300068E1,1.165050030E0,1.063559124E1
2.865179385E0,3.490500152E-1,1.063995075E1,9.730500579E-1,1.069005212E1
2.867140545E0,3.870000243E-1,1.063995075E1,1.011000037E0,1.069487925E1
2.869101766E0,3.490500152E-1,1.063995075E1,9.730500579E-1,1.069005212E1
2.871062638E0,3.490500152E-1,1.067805004E1,9.349500537E-1,1.072458485E1
2.873023613E0,3.490500152E-1,1.075500011E1,8.959500194E-1,1.079789747E1
2.874984931E0,3.109500110E-1,1.079295063E1,8.200500607E-1,1.082852508E1
2.876946149E0,3.109500110E-1,1.079295063E1,7.810500264E-1,1.082564143E1
2.878907654E0,3.109500110E-1,1.083105087E1,7.429500222E-1,1.086095427E1
2.880869106E0,3.490500152E-1,1.083105087E1,5.899500251E-1,1.085272039E1
2.882830480E0,3.490500152E-1,1.083105087E1,6.660000086E-1,1.085712001E1
2.884791877E0,3.109500110E-1,1.090800095E1,6.280500293E-1,1.093049045E1
2.886752899E0,2.719500065E-1,1.090800095E1,5.509500504E-1,1.092529118E1
2.888714031E0,3.109500110E-1,1.094595051E1,5.509500504E-1,1.096421764E1
2.890675139E0,3.490500152E-1,1.087005043E1,5.130000114E-1,1.088774546E1
2.892636257E0,3.490500152E-1,1.087005043E1,5.509500504E-1,1.088959954E1
2.894597506E0,3.870000243E-1,1.090800095E1,5.130000114E-1,1.092691277E1
2.896558716E0,4.260000288E-1,1.090800095E1,4.360500276E-1,1.092502175E1
2.898520086E0,5.020500422E-1,1.087005043E1,4.360500276E-1,1.089037145E1
2.900481409E0,4.639500082E-1,1.083105087E1,4.360500276E-1,1.084974895E1
2.902442665E0,3.870000243E-1,1.079295063E1,4.360500276E-1,1.080868595E1
2.904403944E0,4.639500082E-1,1.075500011E1,3.979500234E-1,1.077235542E1
2.906365122E0,4.639500082E-1,1.071600056E1,3.220500052E-1,1.073087293E1
2.908326329E0,4.639500082E-1,1.071600056E1,3.220500052E-1,1.073087293E1
2.910287608E0,4.260000288E-1,1.063995075E1,3.220500052E-1,1.065334427E1
2.912248865E0,3.870000243E-1,1.060095024E1,3.220500052E-1,1.061289929E1
2.914210213E0,3.870000243E-1,1.056300068E1,3.600000143E-1,1.057621635E1
2.916171544E0,3.109500110E-1,1.048605061E1,3.220500052E-1,1.049560210E1
2.918133704E0,2.719500065E-1,1.052505016E1,3.220500052E-1,1.053348726E1
2.920095621E0,3.109500110E-1,1.041000080E1,2.449500114E-1,1.041752404E1
2.922056735E0,2.340000123E-1,1.041000080E1,2.070000172E-1,1.041468779E1
2.924018084E0,1.960500032E-1,1.041000080E1,2.070000172E-1,1.041390423E1
2.925978739E0,2.340000123E-1,1.037100029E1,2.830500007E-1,1.037750068E1
2.927939608E0,1.570500135E-1,1.041000080E1,3.220500052E-1,1.041616521E1
2.929901260E0,1.189500093E-1,1.037100029E1,3.220500052E-1,1.037668118E1
2.931862683E0,1.189500093E-1,1.033305073E1,2.830500007E-1,1.033761112E1
2.933823882E0,1.570500135E-1,1.029495049E1,2.830500007E-1,1.030003823E1
2.935785146E0,1.189500093E-1,1.041000080E1,2.449500114E-1,1.041356165E1
2.937746362E0,1.189500093E-1,1.041000080E1,2.449500114E-1,1.041356165E1
2.939707599E0,8.100000024E-2,1.044795036E1,2.070000172E-1,1.045031467E1
2.941668783E0,8.100000024E-2,1.048605061E1,2.449500114E-1,1.048922394E1
2.943629983E0,1.189500093E-1,1.048605061E1,2.070000172E-1,1.048876806E1
2.945591084E0,4.200000316E-2,1.056300068E1,2.830500007E-1,1.056687582E1
2.947552214E0,-3.299999982E-2,1.060095024E1,2.830500007E-1,1.060477969E1
2.949513437E0,-7.200000435E-2,1.075500011E1,3.220500052E-1,1.076006169E1
2.951474650E0,-7.200000435E-2,1.071600056E1,2.830500007E-1,1.071997991E1
2.953435344E0,-7.200000435E-2,1.083105087E1,3.220500052E-1,1.083607693E1
2.955396190E0,-1.480500102E-1,1.094595051E1,3.220500052E-1,1.095168789E1
2.957357125E0,-1.870500147E-1,1.102305031E1,3.600000143E-1,1.103051340E1
2.959318034E0,-1.099500060E-1,1.110000038E1,4.360500276E-1,1.110910604E1
2.961279289E0,-1.870500147E-1,1.117605019E1,4.750500321E-1,1.118770566E1
2.963240433E0,-2.250000089E-1,1.129095078E1,6.660000086E-1,1.131281355E1
2.965201364E0,-2.629500031E-1,1.136805058E1,7.429500222E-1,1.139533638E1
2.967162358E0,-1.480500102E-1,1.140600014E1,8.959500194E-1,1.144209266E1
2.969123763E0,-1.870500147E-1,1.155900097E1,1.011000037E0,1.160463753E1
2.971085048E0,-2.629500031E-1,1.159800053E1,1.011000037E0,1.164495084E1
2.973045735E0,-1.480500102E-1,1.163595009E1,1.240950108E0,1.170287189E1
2.975006594E0,-3.400500119E-1,1.171305084E1,1.318050027E0,1.179188068E1
2.976967752E0,-3.780000210E-1,1.178895092E1,1.240950108E0,1.186010982E1
2.978928823E0,-3.400500119E-1,1.182795048E1,1.356000066E0,1.191028055E1
2.980889677E0,-4.170000255E-1,1.178895092E1,1.548000097E0,1.189746011E1
2.982850594E0,-4.930500090E-1,1.186605072E1,1.624950051E0,1.198693959E1
2.984811483E0,-5.700000525E-1,1.186605072E1,1.701000094E0,1.200089418E1
2.986772404E0,-6.079500318E-1,1.190400028E1,1.740000129E0,1.204584685E1
2.988733327E0,-6.469500065E-1,1.194300079E1,1.740000129E0,1.208641439E1
2.990694250E0,-7.999500632E-1,1.198095036E1,1.855050087E0,1.215007417E1
2.992655399E0,-7.999500632E-1,1.198095036E1,2.008050203E0,1.217437297E1
2.994616481E0,-8.380500674E-1,1.194300079E1,2.085000038E0,1.215256438E1
2.996577903E0,-8.770500422E-1,1.194300079E1,2.238000154E0,1.218249274E1
2.998539236E0,-8.380500674E-1,1.190400028E1,2.430000067E0,1.217835995E1
3.000500584E0,-8.770500422E-1,1.182795048E1,2.506050110E0,1.212229007E1
3.002461928E0,-9.150000215E-1,1.182795048E1,2.659050226E0,1.215763898E1
3.004423186E0,-9.150000215E-1,1.175100040E1,2.812950134E0,1.211758738E1
3.006384469E0,-8.770500422E-1,1.175100040E1,2.889000177E0,1.213266456E1
3.008345646E0,-8.380500674E-1,1.171305084E1,2.965950251E0,1.211176077E1
3.010306854E0,-8.380500674E-1,1.163595009E1,3.004050255E0,1.204665847E1
3.012268087E0,-7.999500632E-1,1.159800053E1,3.081000090E0,1.202689062E1
3.014229313E0,-7.620000243E-1,1.155900097E1,3.081000090E0,1.198681396E1
3.016190411E0,-6.469500065E-1,1.148295021E1,3.157950163E0,1.192683273E1
3.018151546E0,-5.700000525E-1,1.136805058E1,3.273000240E0,1.184356384E1
3.020112787E0,-5.320500135E-1,1.132905006E1,3.310950041E0,1.181494150E1
3.022074000E0,-3.780000210E-1,1.125300026E1,3.426000118E0,1.176904311E1
3.024035234E0,-2.629500031E-1,1.113795090E1,3.502950191E0,1.167877361E1
3.025996462E0,-1.480500102E-1,1.106100082E1,3.579000235E0,1.162656014E1
3.027957649E0,4.200000316E-2,1.087005043E1,3.579000235E0,1.144416895E1
3.029918849E0,1.960500032E-1,1.071600056E1,3.655950069E0,1.132418096E1
3.031880869E0,3.870000243E-1,1.060095024E1,3.733050108E0,1.124569154E1
3.033842635E0,6.169500351E-1,1.048605061E1,3.886050224E0,1.119996746E1
3.035803955E0,7.320000529E-1,1.037100029E1,3.886050224E0,1.109931788E1
3.037765406E0,1.000050068E0,1.021800041E1,3.924000263E0,1.099115147E1
3.039726554E0,1.192050099E0,9.988050461E0,3.963000298E0,1.081145258E1
3.041687791E0,1.269000053E0,9.988050461E0,3.963000298E0,1.082020723E1
3.043649030E0,1.384050012E0,9.796050072E0,3.886050224E0,1.062918519E1
3.045610293E0,1.614000082E0,9.643050194E0,3.847950220E0,1.050714682E1
3.047571520E0,1.804950118E0,9.490050316E0,3.771000147E0,1.037011774E1
3.049532757E0,2.074050188E0,9.298050880E0,3.808950186E0,1.025980194E1
3.051493941E0,2.265000105E0,9.183000565E0,3.886050224E0,1.022541496E1
3.053455141E0,2.380050182E0,9.067950249E0,3.886050224E0,1.014858349E1
3.055416421E0,2.686950207E0,8.914950371E0,3.963000298E0,1.011935832E1
3.057377678E0,2.725050211E0,8.761950493E0,3.963000298E0,9.995151147E0
3.059338725E0,3.070050240E0,8.647050858E0,3.924000263E0,9.979703156E0
3.061299834E0,3.147000074E0,8.493000031E0,3.886050224E0,9.855762037E0
3.063261220E0,3.223050117E0,8.340000153E0,3.771000147E0,9.703818667E0
3.065222524E0,3.492000103E0,8.263050079E0,3.655950069E0,9.687003264E0
3.067183428E0,3.568050146E0,8.148000717E0,3.579000235E0,9.588020662E0
3.069144449E0,3.798000097E0,8.071949959E0,3.349050045E0,9.528762621E0
3.071105535E0,3.952050209E0,7.957050323E0,3.234000206E0,9.454739977E0
3.073066601E0,4.143000126E0,7.918050289E0,3.004050255E0,9.427846433E0
3.075027680E0,4.297049999E0,7.726950169E0,2.812950134E0,9.278097114E0
3.076988755E0,4.603050232E0,7.036950111E0,2.430000067E0,8.752807471E0
3.078949967E0,4.642050266E0,7.267050266E0,2.353049994E0,8.938427967E0
3.080911139E0,4.564949989E0,7.305000305E0,2.238000154E0,8.900024863E0
3.082872380E0,4.527000427E0,7.267050266E0,2.161050081E0,8.830282549E0
3.084833601E0,4.488000393E0,7.305000305E0,1.930950046E0,8.788273156E0
3.086794519E0,4.411950111E0,7.342950344E0,1.855050087E0,8.765011943E0
3.088755526E0,4.642050266E0,7.305000305E0,1.510050058E0,8.785892744E0
3.090716619E0,4.603050232E0,7.381950378E0,1.395000100E0,8.810634943E0
3.092677683E0,4.680000305E0,7.420050144E0,1.165050030E0,8.849682964E0
3.094638538E0,4.642050266E0,7.497000217E0,1.050000072E0,8.880098146E0
3.096599454E0,4.642050266E0,7.534950256E0,1.011000037E0,8.907649921E0
3.098560603E0,4.680000305E0,7.650000572E0,1.011000037E0,9.024800978E0
3.100521683E0,4.603050232E0,7.765050411E0,9.730500579E-1,9.079146752E0
3.102483270E0,4.488000393E0,7.879950523E0,8.959500194E-1,9.112545979E0
3.104444698E0,4.411950111E0,8.032950401E0,8.200500607E-1,9.201417175E0
3.106405716E0,4.258049965E0,8.148000717E0,7.810500264E-1,9.226643178E0
3.108366854E0,4.066950321E0,8.340000153E0,7.429500222E-1,9.308472603E0
3.110327966E0,3.952050209E0,8.416950226E0,7.429500222E-1,9.328222054E0
3.112289085E0,3.760050297E0,8.608050346E0,7.429500222E-1,9.422764124E0
3.114250634E0,3.607050180E0,8.722949982E0,8.200500607E-1,9.474869365E0
3.116212068E0,3.492000103E0,8.877000809E0,8.580000401E-1,9.577649615E0
3.118173265E0,3.376950264E0,9.030000687E0,8.200500607E-1,9.675597531E0
3.120134531E0,3.184950113E0,9.183000565E0,9.349500537E-1,9.764503991E0
3.122095800E0,2.955000162E0,9.336000443E0,9.349500537E-1,9.837025049E0
3.124057068E0,2.764050245E0,9.528000832E0,9.730500579E-1,9.968430168E0
3.126018239E0,2.610000134E0,9.757950783E0,1.087950110E0,1.015939662E1
3.127979445E0,2.380050182E0,9.873000145E0,1.087950110E0,1.021393196E1
3.129940545E0,2.227050066E0,1.002600002E1,1.126049995E0,1.033191256E1
3.131901676E0,1.959000111E0,1.010295010E1,1.126049995E0,1.035254899E1
3.133862923E0,1.767000079E0,1.025595093E1,1.011000037E0,1.045604800E1
3.135824136E0,1.537050128E0,1.033305073E1,9.349500537E-1,1.048849808E1
3.137785602E0,1.384050012E0,1.044795036E1,8.959500194E-1,1.057723913E1
3.139746957E0,1.306950092E0,1.052505016E1,9.349500537E-1,1.064701513E1
3.141708303E0,1.230000019E0,1.060095024E1,7.810500264E-1,1.070061144E1
3.143669651E0,1.114950061E0,1.060095024E1,7.050000429E-1,1.068270961E1
3.145630727E0,1.000050068E0,1.067805004E1,7.810500264E-1,1.075318055E1
3.147591882E0,8.850000501E-1,1.067805004E1,6.280500293E-1,1.073305290E1
3.149553144E0,7.699500322E-1,1.075500011E1,3.979500234E-1,1.078986630E1
3.151514361E0,7.320000529E-1,1.083105087E1,3.220500052E-1,1.086053421E1
3.153475550E0,6.169500351E-1,1.090800095E1,3.220500052E-1,1.093017970E1
3.155436748E0,4.260000288E-1,1.094595051E1,2.830500007E-1,1.095789331E1
3.157397488E0,3.109500110E-1,1.094595051E1,2.830500007E-1,1.095402391E1
3.159358363E0,1.960500032E-1,1.094595051E1,2.830500007E-1,1.095136455E1
3.161319474E0,4.050000105E-3,1.106100082E1,2.830500007E-1,1.106462258E1
3.163280515E0,-7.200000435E-2,1.110000038E1,3.600000143E-1,1.110607007E1
3.165241554E0,-1.480500102E-1,1.110000038E1,3.220500052E-1,1.110565817E1
3.167202594E0,-2.629500031E-1,1.117605019E1,3.220500052E-1,1.118378097E1
3.169164622E0,-3.780000210E-1,1.121400070E1,2.449500114E-1,1.122304309E1
3.171126361E0,-3.780000210E-1,1.129095078E1,2.070000172E-1,1.129917264E1
3.173087480E0,-4.170000255E-1,1.132905006E1,1.680000126E-1,1.133796668E1
3.175048767E0,-4.170000255E-1,1.132905006E1,1.300500035E-1,1.133746786E1
3.177009988E0,-5.320500135E-1,1.144395065E1,9.195000678E-2,1.145668096E1
3.178971229E0,-6.469500065E-1,1.148295021E1,-2.205000073E-2,1.150118151E1
3.180932277E0,-6.079500318E-1,1.148295021E1,-2.140500098E-1,1.150102457E1
3.182893382E0,-6.469500065E-1,1.144395065E1,-2.910000086E-1,1.146591609E1
3.184854653E0,-6.469500065E-1,1.144395065E1,-1.369500011E-1,1.146304088E1
3.186815861E0,-6.079500318E-1,1.152105045E1,-6.105000153E-2,1.153724117E1
3.188776962E0,-6.079500318E-1,1.155900097E1,-2.205000073E-2,1.157499861E1
3.190738094E0,-6.469500065E-1,1.159800053E1,-2.205000073E-2,1.161605125E1
3.192699295E0,-7.230000496E-1,1.159800053E1,1.500000060E-2,1.162052367E1
3.194660476E0,-6.850500107E-1,1.159800053E1,1.500000060E-2,1.161822425E1
3.196621337E0,-7.620000243E-1,1.152105045E1,-2.205000073E-2,1.154624328E1
3.198582306E0,-8.380500674E-1,1.155900097E1,-6.105000153E-2,1.158950208E1
3.200543400E0,-8.770500422E-1,1.148295021E1,-9.900000691E-2,1.151682089E1
3.202504457E0,-7.999500632E-1,1.144395065E1,-1.759500057E-1,1.147322470E1
3.204465538E0,-7.999500632E-1,1.140600014E1,-2.140500098E-1,1.143602101E1
3.206426611E0,-7.620000243E-1,1.140600014E1,-2.910000086E-1,1.143512852E1
3.208387734E0,-7.230000496E-1,1.132905006E1,-2.140500098E-1,1.135411475E1
3.210348842E0,-7.620000243E-1,1.117605019E1,-2.140500098E-1,1.120404209E1
3.212309870E0,-8.380500674E-1,1.117605019E1,-3.670500219E-1,1.121343620E1
3.214270921E0,-9.150000215E-1,1.110000038E1,-3.289500177E-1,1.114250607E1
3.216232001E0,-9.150000215E-1,1.106100082E1,-2.140500098E-1,1.110084599E1
3.218193073E0,-9.529500604E-1,1.102305031E1,-2.520000041E-1,1.106703465E1
3.220154371E0,-8.380500674E-1,1.102305031E1,-1.759500057E-1,1.105626177E1
3.222115606E0,-7.999500632E-1,1.094595051E1,-9.900000691E-2,1.097558899E1
3.224076837E0,-7.620000243E-1,1.087005043E1,-1.369500011E-1,1.089758669E1
3.226038070E0,-7.230000496E-1,1.079295063E1,-1.369500011E-1,1.081800664E1
3.227999255E0,-7.230000496E-1,1.075500011E1,-2.910000086E-1,1.078320164E1
3.229960455E0,-6.850500107E-1,1.067805004E1,-2.140500098E-1,1.070214294E1
3.231922074E0,-6.079500318E-1,1.063995075E1,-3.289500177E-1,1.066238076E1
3.233883553E0,-5.320500135E-1,1.063995075E1,-4.440000355E-1,1.066249339E1
3.235844923E0,-4.930500090E-1,1.056300068E1,-5.209500194E-1,1.058732594E1
3.237806325E0,-4.170000255E-1,1.048605061E1,-5.970000029E-1,1.051130607E1
3.239767706E0,-3.400500119E-1,1.041000080E1,-5.209500194E-1,1.042857323E1
3.241729094E0,-2.629500031E-1,1.025595093E1,-4.819500148E-1,1.027063523E1
3.243690148E0,-2.250000089E-1,1.014105034E1,-4.819500148E-1,1.015498906E1
3.245651310E0,-1.480500102E-1,9.988050461E0,-5.590500236E-1,1.000477925E1
3.247612551E0,4.050000105E-3,9.873000145E0,-6.360000372E-1,9.893464727E0
3.249573769E0,8.100000024E-2,9.720000267E0,-5.590500236E-1,9.736400933E0
3.251535138E0,1.189500093E-1,9.565950394E0,-5.970000029E-1,9.585299424E0
3.253496462E0,1.960500032E-1,9.412950516E0,-6.739500165E-1,9.439082669E0
3.255457902E0,2.719500065E-1,9.298050880E0,-7.120500207E-1,9.329240173E0
3.257419308E0,3.490500152E-1,9.183000565E0,-6.360000372E-1,9.211613937E0
3.259380869E0,3.490500152E-1,9.067950249E0,-7.890000343E-1,9.108901069E0
3.261342385E0,3.870000243E-1,8.914950371E0,-7.890000343E-1,8.958159978E0
3.263303927E0,3.490500152E-1,8.838000298E0,-8.659500480E-1,8.887179230E0
3.265265462E0,3.490500152E-1,8.761950493E0,-9.040500522E-1,8.815379677E0
3.267226591E0,3.490500152E-1,8.685000420E0,-9.040500522E-1,8.738900085E0
3.269187843E0,4.260000288E-1,8.608050346E0,-8.659500480E-1,8.661978774E0
3.271148935E0,4.639500082E-1,8.532000542E0,-9.420000315E-1,8.596374056E0
3.273110074E0,4.639500082E-1,8.532000542E0,-9.420000315E-1,8.596374056E0
3.275071320E0,5.410500169E-1,8.493000031E0,-9.810000658E-1,8.566571413E0
3.277032534E0,5.410500169E-1,8.455050468E0,-1.018950105E0,8.533397498E0
3.278994244E0,5.790000558E-1,8.416950226E0,-1.057050109E0,8.502802309E0
3.280955822E0,5.790000558E-1,8.340000153E0,-9.810000658E-1,8.417434570E0
3.282917174E0,6.169500351E-1,8.263050079E0,-1.096050024E0,8.358226463E0
