"Time (s)","Acceleration x (m/s^2)","Acceleration y (m/s^2)","Acceleration z (m/s^2)","Absolute acceleration (m/s^2)"
3.327647400E-2,1.230000019E0,9.643050194E0,2.200050116E0,9.967022504E0
3.523700600E-2,1.077000022E0,9.643050194E0,2.122950077E0,9.932535583E0
3.720024300E-2,9.619500637E-1,9.720000267E0,2.200050116E0,1.001219125E1
3.916162500E-2,8.089500666E-1,9.720000267E0,2.122950077E0,9.981969867E0
4.112355100E-2,6.169500351E-1,9.757950783E0,1.969950080E0,9.973912680E0
4.308454100E-2,5.020500422E-1,9.757950783E0,1.969950080E0,9.967465126E0
4.504579600E-2,3.109500110E-1,9.796050072E0,1.855050087E0,9.974993621E0
4.700769700E-2,4.200000316E-2,9.796050072E0,1.624950051E0,9.929996157E0
4.896940900E-2,-1.099500060E-1,9.757950783E0,1.432950020E0,9.863216425E0
5.093109900E-2,-2.250000089E-1,9.796050072E0,1.356000066E0,9.892014870E0
5.289279600E-2,-3.400500119E-1,9.796050072E0,1.356000066E0,9.895300258E0
5.485449200E-2,-4.930500090E-1,9.796050072E0,1.395000100E0,9.907155020E0
5.681618500E-2,-7.230000496E-1,9.835050583E0,1.279950023E0,9.944305964E0
5.877805700E-2,-8.770500422E-1,9.910950661E0,1.203000069E0,1.002214393E1
6.073987600E-2,-1.030050039E0,9.949950218E0,1.050000072E0,1.005808195E1
6.270195200E-2,-1.222050071E0,9.988050461E0,9.349500537E-1,1.010587403E1
6.466395200E-2,-1.375050068E0,1.002600002E1,7.429500222E-1,1.014708894E1
6.662669700E-2,-1.642950058E0,9.873000145E0,-2.205000073E-2,1.000879128E1
6.858920700E-2,-1.681950092E0,9.949950218E0,1.300500035E-1,1.009194622E1
7.055035500E-2,-1.720050097E0,9.873000145E0,5.509500504E-1,1.003684463E1
7.251190200E-2,-1.911000133E0,9.949950218E0,8.200500607E-1,1.016493546E1
7.447379800E-2,-2.026050091E0,9.910950661E0,1.011000037E0,1.016631413E1
7.643559200E-2,-2.140950203E0,9.949950218E0,1.165050030E0,1.024414558E1
7.839762200E-2,-2.179949999E0,9.873000145E0,1.318050027E0,1.019635080E1
8.035958700E-2,-2.295000076E0,9.910950661E0,1.356000066E0,1.026317224E1
8.232159300E-2,-2.448000193E0,9.949950218E0,1.318050027E0,1.033109240E1
8.428358700E-2,-2.563050032E0,9.949950218E0,1.165050030E0,1.034060329E1
8.624540900E-2,-2.677950144E0,9.988050461E0,9.349500537E-1,1.038300056E1
8.820728100E-2,-2.755050182E0,9.988050461E0,8.200500607E-1,1.039345638E1
9.016916200E-2,-2.830950022E0,1.006500053E1,6.280500293E-1,1.047439548E1
9.213104300E-2,-2.985000134E0,1.006500053E1,5.130000114E-1,1.051083396E1
9.409337900E-2,-3.022950172E0,1.006500053E1,4.360500276E-1,1.051820342E1
9.605558200E-2,-3.100050211E0,1.010295010E1,3.600000143E-1,1.057400170E1
9.801754800E-2,-3.175950050E0,1.014105034E1,3.600000143E-1,1.063283409E1
9.997958400E-2,-3.253050089E0,1.021800041E1,3.979500234E-1,1.073071440E1
1.019416220E-1,-3.330000162E0,1.025595093E1,3.600000143E-1,1.078902361E1
1.039036590E-1,-3.330000162E0,1.021800041E1,2.449500114E-1,1.074971786E1
1.058663290E-1,-3.520950079E0,1.006500053E1,-7.510500550E-1,1.068949959E1
1.078288130E-1,-3.138000250E0,1.014105034E1,1.500000060E-2,1.061546855E1
1.097898750E-1,-3.330000162E0,1.025595093E1,2.449500114E-1,1.078579765E1
1.117513530E-1,-3.406050205E0,1.037100029E1,3.979500234E-1,1.092324078E1
1.137133910E-1,-3.291000128E0,1.048605061E1,7.429500222E-1,1.101543980E1
1.156752690E-1,-3.175950050E0,1.044795036E1,8.580000401E-1,1.095365188E1
1.176372900E-1,-3.138000250E0,1.044795036E1,9.349500537E-1,1.094901110E1
1.195992690E-1,-3.138000250E0,1.041000080E1,7.810500264E-1,1.090069729E1
1.215610940E-1,-3.022950172E0,1.037100029E1,7.050000429E-1,1.082556695E1
1.235229640E-1,-2.985000134E0,1.029495049E1,4.750500321E-1,1.072948758E1
1.254846390E-1,-2.985000134E0,1.025595093E1,2.830500007E-1,1.068526427E1
1.274463620E-1,-2.869950056E0,1.021800041E1,3.600000143E-1,1.061949838E1
1.294091750E-1,-2.869950056E0,1.018005085E1,3.220500052E-1,1.058176568E1
1.313716680E-1,-2.946000099E0,1.010295010E1,-2.205000073E-2,1.052373524E1
1.333335840E-1,-2.830950022E0,1.010295010E1,9.195000678E-2,1.049248938E1
1.352956700E-1,-2.793000221E0,9.988050461E0,1.680000126E-1,1.037257086E1
1.372578210E-1,-2.755050182E0,9.988050461E0,2.070000172E-1,1.036312224E1
1.392199620E-1,-2.716050148E0,9.949950218E0,1.680000126E-1,1.031536048E1
1.411820740E-1,-2.640000105E0,9.835050583E0,1.680000126E-1,1.018459840E1
1.431441940E-1,-2.563050032E0,9.796050072E0,1.680000126E-1,1.012719342E1
1.451063980E-1,-2.448000193E0,9.720000267E0,2.070000172E-1,1.002566502E1
1.470685770E-1,-2.410050154E0,9.643050194E0,2.070000172E-1,9.941811092E0
1.490305370E-1,-2.332950115E0,9.528000832E0,1.680000126E-1,9.810895988E0
1.509925690E-1,-2.256000042E0,9.451050758E0,1.680000126E-1,9.718030697E0
1.529547430E-1,-2.218050003E0,9.412950516E0,1.680000126E-1,9.672207981E0
1.549168750E-1,-2.179949999E0,9.375000000E0,1.680000126E-1,9.626579403E0
1.568786730E-1,-2.065050125E0,9.298050880E0,2.070000172E-1,9.526858412E0
1.588405690E-1,-1.987950087E0,9.298050880E0,1.300500035E-1,9.509080330E0
1.608025720E-1,-1.950000048E0,9.220950127E0,1.680000126E-1,9.426380293E0
1.627645530E-1,-1.911000133E0,9.183000565E0,9.195000678E-2,9.380185269E0
1.647265120E-1,-1.873050094E0,9.106050491E0,9.195000678E-2,9.297146175E0
1.666884780E-1,-1.834950089E0,9.145050049E0,1.300500035E-1,9.328231088E0
1.686508440E-1,-1.834950089E0,9.030000687E0,1.680000126E-1,9.216082586E0
1.706130920E-1,-1.834950089E0,9.067950249E0,9.195000678E-2,9.252200730E0
1.725750760E-1,-1.795950055E0,9.030000687E0,9.195000678E-2,9.207323379E0
1.745371510E-1,-1.758000135E0,9.067950249E0,1.300500035E-1,9.237705299E0
1.764994970E-1,-1.795950055E0,9.067950249E0,5.295000225E-2,9.244239396E0
1.784617640E-1,-1.720050097E0,8.991000175E0,5.295000225E-2,9.154204509E0
1.804239000E-1,-1.681950092E0,8.991000175E0,1.300500035E-1,9.147893379E0
1.823860740E-1,-1.642950058E0,9.030000687E0,1.680000126E-1,9.179783293E0
1.843480200E-1,-1.605000019E0,9.030000687E0,2.449500114E-1,9.174799070E0
1.863100500E-1,-1.681950092E0,9.067950249E0,2.449500114E-1,9.225870058E0
1.882723590E-1,-1.720050097E0,9.183000565E0,3.220500052E-1,9.348250527E0
1.902345860E-1,-1.605000019E0,9.183000565E0,9.195000678E-2,9.322659451E0
1.921965930E-1,-1.452000022E0,9.030000687E0,-9.900000691E-2,9.146530351E0
1.941586650E-1,-1.413000107E0,8.991000175E0,-1.759500057E-1,9.103055084E0
1.961209530E-1,-1.413000107E0,8.914950371E0,-2.140500098E-1,9.028772166E0
1.980831880E-1,-1.452000022E0,8.877000809E0,-2.910000086E-1,8.999673796E0
2.000453740E-1,-1.452000022E0,8.838000298E0,-3.289500177E-1,8.962519815E0
2.020075740E-1,-1.452000022E0,8.838000298E0,-2.910000086E-1,8.961207191E0
2.039694940E-1,-1.528050065E0,8.877000809E0,-3.289500177E-1,9.013561365E0
2.059314970E-1,-1.567050099E0,8.914950371E0,-3.289500177E-1,9.057604222E0
2.078936800E-1,-1.489950061E0,8.953050613E0,-4.060500264E-1,9.085259660E0
2.098558070E-1,-1.452000022E0,8.877000809E0,-4.819500148E-1,9.007870072E0
2.118180110E-1,-1.452000022E0,8.914950371E0,-5.590500236E-1,9.049706134E0
2.137801920E-1,-1.413000107E0,8.877000809E0,-4.819500148E-1,9.001665872E0
2.157424760E-1,-1.375050068E0,8.877000809E0,-4.060500264E-1,8.992039962E0
2.177047300E-1,-1.413000107E0,8.877000809E0,-3.670500219E-1,8.996245794E0
2.196665030E-1,-1.413000107E0,8.877000809E0,-3.289500177E-1,8.994771858E0
2.216284200E-1,-1.452000022E0,8.914950371E0,-3.289500177E-1,9.038409832E0
2.235906140E-1,-1.489950061E0,8.991000175E0,-4.060500264E-1,9.122659259E0
2.255527260E-1,-1.528050065E0,8.953050613E0,-5.209500194E-1,9.097441465E0
2.275151120E-1,-1.528050065E0,9.030000687E0,-4.440000355E-1,9.169132207E0
2.294774180E-1,-1.567050099E0,9.030000687E0,-5.209500194E-1,9.179757477E0
2.314395370E-1,-1.567050099E0,8.991000175E0,-5.209500194E-1,9.141395905E0
2.334017180E-1,-1.567050099E0,8.991000175E0,-5.590500236E-1,9.143646269E0
2.353636870E-1,-1.605000019E0,8.953050613E0,-4.819500148E-1,9.108535347E0
2.373257180E-1,-1.642950058E0,8.914950371E0,-7.510500550E-1,9.096136608E0
2.392876670E-1,-1.642950058E0,8.877000809E0,-7.890000343E-1,9.062171335E0
2.412496410E-1,-1.605000019E0,8.800050735E0,-8.659500480E-1,8.987034410E0
2.432116250E-1,-1.642950058E0,8.800050735E0,-7.890000343E-1,8.986806935E0
2.451736200E-1,-1.681950092E0,8.761950493E0,-7.890000343E-1,8.956743471E0
2.471354870E-1,-1.642950058E0,8.761950493E0,-7.890000343E-1,8.949501795E0
2.490973910E-1,-1.720050097E0,8.761950493E0,-6.739500165E-1,8.954583039E0
2.510595870E-1,-1.681950092E0,8.722949982E0,-7.120500207E-1,8.912116905E0
2.530216970E-1,-1.681950092E0,8.685000420E0,-6.739500165E-1,8.872000734E0
2.549836290E-1,-1.758000135E0,8.685000420E0,-6.739500165E-1,8.886731986E0
2.569456170E-1,-1.795950055E0,8.647050858E0,-7.890000343E-1,8.866760749E0
2.589073040E-1,-1.834950089E0,8.608050346E0,-7.890000343E-1,8.836746780E0
2.608690790E-1,-1.795950055E0,8.569950104E0,-8.659500480E-1,8.798826676E0
2.628309360E-1,-1.873050094E0,8.569950104E0,-8.659500480E-1,8.814886892E0
2.647927690E-1,-1.834950089E0,8.455050468E0,-9.420000315E-1,8.703004327E0
2.667547530E-1,-1.834950089E0,8.455050468E0,-9.810000658E-1,8.707311949E0
2.687166920E-1,-1.795950055E0,8.455050468E0,-8.269500136E-1,8.683153883E0
2.706785230E-1,-2.026050091E0,8.302050591E0,-1.096050024E0,8.615697803E0
2.726403860E-1,-1.911000133E0,8.302050591E0,-1.134000063E0,8.594295879E0
2.746019140E-1,-1.911000133E0,8.340000153E0,-9.810000658E-1,8.612193982E0
2.765635400E-1,-1.911000133E0,8.340000153E0,-9.420000315E-1,8.607838760E0
2.785257990E-1,-1.950000048E0,8.340000153E0,-9.420000315E-1,8.616580922E0
2.804878610E-1,-1.987950087E0,8.340000153E0,-9.810000658E-1,8.629594963E0
2.824500310E-1,-1.987950087E0,8.302050591E0,-1.134000063E0,8.611733025E0
2.844121690E-1,-2.026050091E0,8.224950790E0,-1.210950017E0,8.556932536E0
2.863743250E-1,-2.065050125E0,8.071949959E0,-1.171950102E0,8.413933396E0
2.883364760E-1,-2.103000164E0,8.071949959E0,-1.171950102E0,8.423327897E0
2.902986260E-1,-2.065050125E0,7.957050323E0,-1.171950102E0,8.303767152E0
2.922607790E-1,-2.065050125E0,7.918050289E0,-1.134000063E0,8.261108191E0
2.942228890E-1,-2.103000164E0,7.842000484E0,-1.134000063E0,8.197898355E0
2.961850120E-1,-2.179949999E0,7.726950169E0,-1.171950102E0,8.113655646E0
2.981468100E-1,-2.179949999E0,7.612050533E0,-1.134000063E0,7.998840632E0
3.001087040E-1,-2.218050003E0,7.534950256E0,-1.171950102E0,7.941579706E0
3.020705420E-1,-2.179949999E0,7.381950378E0,-1.171950102E0,7.785810197E0
3.040323970E-1,-2.295000076E0,7.342950344E0,-1.171950102E0,7.781992813E0
3.059941060E-1,-2.332950115E0,7.189950466E0,-1.057050109E0,7.632522445E0
3.079558580E-1,-2.295000076E0,7.075050354E0,-1.018950105E0,7.507437790E0
3.099177190E-1,-2.332950115E0,6.997950554E0,-9.040500522E-1,7.431774666E0
3.118795480E-1,-2.371050119E0,6.922050476E0,-8.269500136E-1,7.363457597E0
3.138413630E-1,-2.332950115E0,6.883050442E0,-8.269500136E-1,7.314566696E0
3.158031760E-1,-2.371050119E0,6.807000160E0,-7.510500550E-1,7.247151581E0
3.177648920E-1,-2.332950115E0,6.730050087E0,-8.269500136E-1,7.170779368E0
3.197266370E-1,-2.410050154E0,6.654000282E0,-8.269500136E-1,7.125160196E0
3.216884550E-1,-2.371050119E0,6.691950321E0,-8.269500136E-1,7.147581696E0
3.236502510E-1,-2.332950115E0,6.691950321E0,-7.890000343E-1,7.130734632E0
3.256119710E-1,-2.256000042E0,6.768000126E0,-7.120500207E-1,7.169545113E0
3.275737140E-1,-2.179949999E0,6.883050442E0,-6.360000372E-1,7.247969469E0
3.295357120E-1,-2.295000076E0,6.960000515E0,-7.120500207E-1,7.363127579E0
3.314976350E-1,-2.332950115E0,6.960000515E0,-8.659500480E-1,7.391490573E0
3.334596930E-1,-2.371050119E0,7.036950111E0,-9.040500522E-1,7.480498114E0
3.354217120E-1,-2.371050119E0,7.075050354E0,-8.659500480E-1,7.511862996E0
3.373835440E-1,-2.448000193E0,7.152000427E0,-7.120500207E-1,7.592814385E0
3.393454210E-1,-2.448000193E0,7.189950466E0,-6.739500165E-1,7.625109919E0
3.413073960E-1,-2.448000193E0,7.267050266E0,-6.739500165E-1,7.697852502E0
3.432693420E-1,-2.485950232E0,7.267050266E0,-7.510500550E-1,7.717126688E0
3.452311720E-1,-2.485950232E0,7.342950344E0,-7.120500207E-1,7.784978069E0
3.471930360E-1,-2.524950027E0,7.458000183E0,-7.890000343E-1,7.913258521E0
3.491546940E-1,-2.563050032E0,7.458000183E0,-7.510500550E-1,7.921809666E0
3.511164160E-1,-2.563050032E0,7.573050499E0,-7.890000343E-1,8.033855885E0
3.530783270E-1,-2.601000071E0,7.612050533E0,-7.890000343E-1,8.082761641E0
3.550401830E-1,-2.601000071E0,7.650000572E0,-8.269500136E-1,8.122287636E0
3.570020280E-1,-2.601000071E0,7.726950169E0,-7.890000343E-1,8.191061062E0
3.589638770E-1,-2.640000105E0,7.803000450E0,-7.510500550E-1,8.271668076E0
3.609253620E-1,-2.563050032E0,7.879950523E0,-7.120500207E-1,8.316842006E0
3.628869540E-1,-2.601000071E0,7.957050323E0,-7.120500207E-1,8.401599041E0
3.648486630E-1,-2.601000071E0,7.957050323E0,-7.120500207E-1,8.401599041E0
3.668103370E-1,-2.601000071E0,8.032950401E0,-7.120500207E-1,8.473518086E0
3.687722130E-1,-2.601000071E0,8.032950401E0,-7.510500550E-1,8.476884434E0
3.707340290E-1,-2.485950232E0,8.110050201E0,-6.739500165E-1,8.509234481E0
3.726956800E-1,-2.563050032E0,8.148000717E0,-8.269500136E-1,8.581549247E0
3.746573630E-1,-2.601000071E0,8.187000275E0,-8.659500480E-1,8.633773471E0
3.766192810E-1,-2.563050032E0,8.187000275E0,-8.659500480E-1,8.622416625E0
3.785811300E-1,-2.563050032E0,8.263050079E0,-1.057050109E0,8.715766003E0
3.805427520E-1,-2.524950027E0,8.340000153E0,-1.134000063E0,8.787316503E0
3.825044400E-1,-2.524950027E0,8.377950668E0,-1.134000063E0,8.823343254E0
3.844659980E-1,-2.524950027E0,8.263050079E0,-1.479000092E0,8.765889032E0
3.864275940E-1,-2.563050032E0,8.493000031E0,-1.402050018E0,8.981426348E0
3.883891230E-1,-2.563050032E0,8.647050858E0,-1.363950014E0,9.121462253E0
3.903506710E-1,-2.485950232E0,8.722949982E0,-1.402050018E0,9.177992656E0
3.923123870E-1,-2.448000193E0,8.838000298E0,-1.441050053E0,9.283295722E0
3.942740530E-1,-2.448000193E0,8.838000298E0,-1.555950046E0,9.301824270E0
3.962359000E-1,-2.371050119E0,8.914950371E0,-1.671000123E0,9.374991210E0
3.981976840E-1,-2.218050003E0,8.877000809E0,-1.632000089E0,9.294316191E0
4.001594060E-1,-2.140950203E0,8.914950371E0,-1.632000089E0,9.312541660E0
4.021211470E-1,-2.026050091E0,8.914950371E0,-1.708950043E0,9.300630588E0
4.040829650E-1,-1.911000133E0,8.991000175E0,-1.786050081E0,9.363758890E0
4.060447600E-1,-1.795950055E0,8.991000175E0,-1.747050047E0,9.333579411E0
4.080063050E-1,-1.758000135E0,9.106050491E0,-1.786050081E0,9.444611952E0
4.099679200E-1,-1.720050097E0,9.183000565E0,-1.786050081E0,9.511889749E0
4.119295800E-1,-1.642950058E0,9.259950638E0,-1.786050081E0,9.572666588E0
4.138912260E-1,-1.605000019E0,9.336000443E0,-1.900950074E0,9.661808346E0
4.158531060E-1,-1.681950092E0,9.451050758E0,-1.900950074E0,9.785955637E0
4.178149180E-1,-1.681950092E0,9.528000832E0,-2.053950071E0,9.890928513E0
4.197768070E-1,-1.720050097E0,9.604950905E0,-2.092050076E0,9.979495365E0
4.217386790E-1,-1.795950055E0,9.643050194E0,-2.130000114E0,1.003746752E1
4.237004770E-1,-1.834950089E0,9.643050194E0,-2.169000149E0,1.005286131E1
4.256622960E-1,-1.873050094E0,9.643050194E0,-2.169000149E0,1.005988545E1
4.276240120E-1,-1.950000048E0,9.643050194E0,-2.130000114E0,1.006617195E1
4.295857580E-1,-1.987950087E0,9.604950905E0,-2.053950071E0,1.002126431E1
4.315479440E-1,-2.026050091E0,9.643050194E0,-1.900950074E0,1.003528311E1
4.335099950E-1,-2.103000164E0,9.604950905E0,-1.747050047E0,9.986484639E0
4.354718530E-1,-2.179949999E0,9.565950394E0,-1.516950130E0,9.927775513E0
4.374337670E-1,-2.295000076E0,9.528000832E0,-1.326000094E0,9.889797847E0
4.393956010E-1,-2.332950115E0,9.490050316E0,-1.134000063E0,9.838173986E0
4.413574590E-1,-2.448000193E0,9.451050758E0,-1.096050024E0,9.824275599E0
4.433192580E-1,-2.563050032E0,9.451050758E0,-9.420000315E-1,9.837629286E0
4.452810740E-1,-2.640000105E0,9.412950516E0,-9.040500522E-1,9.817868631E0
4.472431040E-1,-2.755050182E0,9.412950516E0,-7.120500207E-1,9.833664330E0
4.492050720E-1,-2.755050182E0,9.412950516E0,-6.739500165E-1,9.830978972E0
4.511667630E-1,-2.946000099E0,9.412950516E0,-5.970000029E-1,9.881242989E0
4.531285360E-1,-2.985000134E0,9.528000832E0,-5.590500236E-1,1.000027812E1
4.550905650E-1,-3.100050211E0,9.604950905E0,-5.209500194E-1,1.010627439E1
4.570525250E-1,-3.175950050E0,9.643050194E0,-5.209500194E-1,1.016594633E1
4.590145320E-1,-3.253050089E0,9.757950783E0,-5.590500236E-1,1.030109098E1
4.609765250E-1,-3.367950201E0,9.873000145E0,-6.360000372E-1,1.045101509E1
4.629381660E-1,-3.406050205E0,9.949950218E0,-6.360000372E-1,1.053599466E1
4.648999110E-1,-3.445050240E0,1.002600002E1,-7.510500550E-1,1.062794071E1
4.668611680E-1,-3.483000278E0,1.010295010E1,-8.269500136E-1,1.071842982E1
4.688225830E-1,-3.520950079E0,1.014105034E1,-7.890000343E-1,1.076385212E1
4.707845020E-1,-3.520950079E0,1.025595093E1,-9.420000315E-1,1.088434578E1
4.727462730E-1,-3.483000278E0,1.029495049E1,-9.810000658E-1,1.091236260E1
4.747081320E-1,-3.483000278E0,1.029495049E1,-1.096050024E0,1.092330637E1
4.766699650E-1,-3.483000278E0,1.029495049E1,-1.171950102E0,1.093118308E1
4.786318140E-1,-3.483000278E0,1.025595093E1,-1.249050021E0,1.090302464E1
4.805936580E-1,-3.483000278E0,1.021800041E1,-1.402050018E0,1.088598032E1
4.825555040E-1,-3.445050240E0,1.010295010E1,-1.479000092E0,1.077615020E1
4.845173500E-1,-3.445050240E0,1.002600002E1,-1.555950046E0,1.071494415E1
4.864788820E-1,-3.445050240E0,9.949950218E0,-1.708950043E0,1.066725788E1
4.884405060E-1,-3.559950113E0,9.949950218E0,-1.824000120E0,1.072388598E1
4.904023440E-1,-3.520950079E0,9.835050583E0,-2.014950037E0,1.063885958E1
4.923641190E-1,-3.559950113E0,9.796050072E0,-2.053950071E0,1.062330234E1
4.943257980E-1,-3.559950113E0,9.757950783E0,-2.053950071E0,1.058818016E1
4.962875060E-1,-3.598050117E0,9.720000267E0,-2.092050076E0,1.057360125E1
4.982491960E-1,-3.636000156E0,9.681000710E0,-2.053950071E0,1.054329089E1
5.002108910E-1,-3.712950230E0,9.643050194E0,-2.130000114E0,1.055041786E1
5.021724190E-1,-3.712950230E0,9.565950394E0,-2.092050076E0,1.047234835E1
5.041340160E-1,-3.712950230E0,9.565950394E0,-2.169000149E0,1.048799161E1
5.060959040E-1,-3.828000069E0,9.528000832E0,-2.169000149E0,1.049480567E1
5.080577070E-1,-3.865950108E0,9.565950394E0,-2.206950188E0,1.055100025E1
5.100190210E-1,-3.981000185E0,9.528000832E0,-2.245050192E0,1.056746955E1
5.119804780E-1,-4.018949986E0,9.565950394E0,-2.245050192E0,1.061600755E1
5.139421740E-1,-4.173000336E0,9.565950394E0,-2.206950188E0,1.066733181E1
5.159037930E-1,-4.249050140E0,9.643050194E0,-2.169000149E0,1.075859683E1
5.178655430E-1,-4.326000214E0,9.681000710E0,-2.092050076E0,1.080799362E1
5.198272540E-1,-4.402950287E0,9.757950783E0,-2.053950071E0,1.090056355E1
5.217889440E-1,-4.518000126E0,9.796050072E0,-2.014950037E0,1.097428566E1
5.237506410E-1,-4.633050442E0,9.910950661E0,-1.861950040E0,1.109770054E1
5.257122690E-1,-4.747950077E0,9.949950218E0,-1.900950074E0,1.118741036E1
5.276739300E-1,-4.747950077E0,1.002600002E1,-1.861950040E0,1.124858055E1
5.296356710E-1,-4.786050320E0,1.010295010E1,-1.786050081E0,1.132103587E1
5.315973890E-1,-4.824000359E0,1.018005085E1,-1.708950043E0,1.139407412E1
5.335590330E-1,-4.786050320E0,1.021800041E1,-1.632000089E0,1.140075587E1
5.355206990E-1,-4.824000359E0,1.029495049E1,-1.555950046E0,1.147510198E1
5.374823990E-1,-4.786050320E0,1.033305073E1,-1.441050053E0,1.147845113E1
5.394440860E-1,-4.863000393E0,1.033305073E1,-1.632000089E0,1.153620971E1
5.414056450E-1,-4.747950077E0,1.037100029E1,-1.786050081E0,1.154515707E1
5.433672420E-1,-4.441050053E0,1.033305073E1,-1.018950105E0,1.129305637E1
5.453292650E-1,-4.363950253E0,1.044795036E1,-5.970000029E-1,1.133843629E1
5.472911630E-1,-4.363950253E0,1.044795036E1,-4.060500264E-1,1.132998699E1
5.492530020E-1,-4.363950253E0,1.052505016E1,-3.670500219E-1,1.139980125E1
5.512148580E-1,-4.249050140E0,1.060095024E1,-2.910000086E-1,1.142450236E1
5.531765670E-1,-4.210950375E0,1.067805004E1,-2.910000086E-1,1.148205281E1
5.551383190E-1,-4.134000301E0,1.075500011E1,-1.759500057E-1,1.152349532E1
5.571000010E-1,-4.018949986E0,1.079295063E1,-2.205000073E-2,1.151695396E1
5.590617040E-1,-3.943050146E0,1.087005043E1,5.295000225E-2,1.156323677E1
5.610232230E-1,-3.865950108E0,1.102305031E1,3.979500234E-1,1.168809533E1
5.629847900E-1,-3.790050268E0,1.102305031E1,1.680000126E-1,1.165763025E1
5.649457380E-1,-3.675000191E0,1.110000038E1,2.449500114E-1,1.169511160E1
5.669068670E-1,-3.520950079E0,1.117605019E1,4.750500321E-1,1.172718465E1
5.688685200E-1,-3.406050205E0,1.129095078E1,5.509500504E-1,1.180636665E1
5.708300190E-1,-3.253050089E0,1.136805058E1,5.899500251E-1,1.183904345E1
5.727920560E-1,-3.214950085E0,1.144395065E1,7.050000429E-1,1.190785185E1
5.747539380E-1,-3.061050177E0,1.152105045E1,6.660000086E-1,1.193935458E1
5.767158230E-1,-2.908050060E0,1.163595009E1,7.810500264E-1,1.201923994E1
5.786777070E-1,-2.869950056E0,1.182795048E1,8.959500194E-1,1.220408752E1
5.806396820E-1,-2.755050182E0,1.190400028E1,1.050000072E0,1.226368723E1
5.826016300E-1,-2.908050060E0,1.201905060E1,4.360500276E-1,1.237353919E1
5.845634550E-1,-2.563050032E0,1.209600067E1,8.580000401E-1,1.239429795E1
5.865253190E-1,-2.332950115E0,1.232595062E1,1.548000097E0,1.263993747E1
5.884872070E-1,-2.256000042E0,1.255605030E1,1.740000129E0,1.287522954E1
5.904490870E-1,-2.218050003E0,1.274805069E1,1.701000094E0,1.305089819E1
5.924110630E-1,-2.140950203E0,1.290105057E1,1.701000094E0,1.318765236E1
5.943730100E-1,-2.065050125E0,1.305405045E1,1.585950017E0,1.331119463E1
5.963345000E-1,-1.950000048E0,1.324605083E1,1.548000097E0,1.347800680E1
5.982961410E-1,-1.873050094E0,1.339905071E1,1.585950017E0,1.362197174E1
6.002580220E-1,-1.681950092E0,1.347600079E1,1.663050056E0,1.368200602E1
6.022198320E-1,-1.605000019E0,1.366695023E1,1.740000129E0,1.387044174E1
6.041815050E-1,-1.489950061E0,1.374405098E1,1.816050053E0,1.394334703E1
6.061432180E-1,-1.297950029E0,1.378200054E1,1.855050087E0,1.396672560E1
6.081050450E-1,-1.106999993E0,1.385895061E1,2.008050203E0,1.404735658E1
6.100668360E-1,-8.770500422E-1,1.382100105E1,2.046000004E0,1.399912150E1
6.120287370E-1,-6.079500318E-1,1.374405098E1,2.046000004E0,1.390879781E1
6.139906050E-1,-3.019500077E-1,1.355205059E1,2.238000154E0,1.373891894E1
6.159522680E-1,-7.200000435E-2,1.343700027E1,2.238000154E0,1.362229074E1
6.179139920E-1,1.570500135E-1,1.324605083E1,2.353049994E0,1.345434397E1
6.198761640E-1,4.639500082E-1,1.305405045E1,2.353049994E0,1.327254033E1
6.218382110E-1,7.320000529E-1,1.282395077E1,2.314950228E0,1.305176356E1
6.237998440E-1,1.000050068E0,1.251795101E1,2.314950228E0,1.276942411E1
6.257615980E-1,1.269000053E0,1.221105099E1,2.314950228E0,1.249316301E1
6.277233250E-1,1.345050097E0,1.190400028E1,2.353049994E0,1.220865377E1
6.296850600E-1,1.498950124E0,1.163595009E1,2.353049994E0,1.196574403E1
6.316466990E-1,1.690050125E0,1.132905006E1,2.391000032E0,1.170130445E1
6.336083670E-1,1.804950118E0,1.098495007E1,2.391000032E0,1.138612551E1
6.355701080E-1,1.996950150E0,1.063995075E1,2.430000067E0,1.109510082E1
6.375318270E-1,2.111999989E0,1.029495049E1,2.353049994E0,1.076955866E1
6.394936500E-1,2.188950062E0,9.988050461E0,2.391000032E0,1.050093022E1
6.414554420E-1,2.227050066E0,9.643050194E0,2.430000067E0,1.019083261E1
6.434171780E-1,2.227050066E0,9.298050880E0,2.314950228E0,9.837301293E0
6.453789200E-1,2.111999989E0,9.030000687E0,2.200050116E0,9.531090014E0
6.473407830E-1,2.074050188E0,8.722949982E0,2.122950077E0,9.214035902E0
6.493026100E-1,2.035050154E0,8.455050468E0,2.046000004E0,8.933947815E0
6.512644160E-1,1.920000076E0,8.148000717E0,1.930950046E0,8.590976898E0
6.532262280E-1,1.882050037E0,7.879950523E0,1.930950046E0,8.328523319E0
6.551882790E-1,1.882050037E0,7.687950134E0,1.893000126E0,8.138190160E0
6.571502460E-1,1.767000079E0,7.497000217E0,1.777950048E0,7.904960969E0
6.591121170E-1,1.690050125E0,7.267050266E0,1.740000129E0,7.661193735E0
6.610740170E-1,1.614000082E0,7.113000393E0,1.740000129E0,7.498491268E0
6.630359880E-1,1.537050128E0,6.960000515E0,1.701000094E0,7.327859959E0
6.649979380E-1,1.422000051E0,6.883050442E0,1.624950051E0,7.213801369E0
6.669598270E-1,1.384050012E0,6.730050087E0,1.548000097E0,7.043115284E0
6.689217240E-1,1.306950092E0,6.691950321E0,1.548000097E0,6.991896878E0
6.708835610E-1,1.269000053E0,6.615000248E0,1.510050058E0,6.902813962E0
6.728454160E-1,1.230000019E0,6.538950443E0,1.471050024E0,6.814305623E0
6.748074400E-1,1.153950095E0,6.499950409E0,1.471050024E0,6.763500892E0
6.767694140E-1,1.077000022E0,6.499950409E0,1.471050024E0,6.750797919E0
6.787311990E-1,1.000050068E0,6.577050209E0,1.471050024E0,6.813345563E0
6.806930360E-1,8.850000501E-1,6.577050209E0,1.471050024E0,6.797411472E0
6.826554230E-1,7.699500322E-1,6.654000282E0,1.510050058E0,6.866497942E0
6.846176490E-1,6.940500140E-1,6.730050087E0,1.510050058E0,6.932209660E0
6.865785300E-1,6.169500351E-1,6.807000160E0,1.471050024E0,6.991413784E0
6.885398050E-1,4.639500082E-1,6.883050442E0,1.471050024E0,7.053766453E0
6.905018130E-1,4.260000288E-1,6.960000515E0,1.510050058E0,7.134657271E0
6.924635920E-1,2.340000123E-1,7.152000427E0,1.548000097E0,7.321350314E0
6.944252710E-1,1.570500135E-1,7.228050232E0,1.624950051E0,7.410117241E0
6.963869790E-1,1.189500093E-1,7.342950344E0,1.585950017E0,7.513208790E0
6.983488480E-1,4.050000105E-3,7.573050499E0,1.740000129E0,7.770373911E0
7.003106690E-1,-1.099500060E-1,7.650000572E0,1.777950048E0,7.854661300E0
7.022723310E-1,-1.480500102E-1,7.765050411E0,1.816050053E0,7.975961665E0
7.042340460E-1,-2.250000089E-1,7.918050289E0,1.777950048E0,8.118328138E0
7.061960490E-1,-3.400500119E-1,8.071949959E0,1.777950048E0,8.272431113E0
7.081579670E-1,-4.170000255E-1,8.187000275E0,1.777950048E0,8.388204152E0
7.101194870E-1,-4.930500090E-1,8.377950668E0,1.855050087E0,8.595019868E0
7.120811230E-1,-5.320500135E-1,8.532000542E0,1.893000126E0,8.755658738E0
7.140428430E-1,-6.469500065E-1,8.722949982E0,1.969950080E0,8.965997101E0
7.160045240E-1,-6.850500107E-1,8.838000298E0,1.969950080E0,9.080762418E0
7.179663540E-1,-8.380500674E-1,8.991000175E0,1.969950080E0,9.242354429E0
7.199281400E-1,-8.770500422E-1,9.183000565E0,1.930950046E0,9.424716665E0
7.218898170E-1,-9.150000215E-1,9.298050880E0,1.930950046E0,9.540416306E0
7.238515260E-1,-9.529500604E-1,9.451050758E0,1.855050087E0,9.678413355E0
7.258134340E-1,-1.068000078E0,9.604950905E0,1.816050053E0,9.833297710E0
7.277752560E-1,-1.106999993E0,9.681000710E0,1.777950048E0,9.904964922E0
7.297371060E-1,-1.106999993E0,9.873000145E0,1.740000129E0,1.008608850E1
7.316989480E-1,-1.106999993E0,9.949950218E0,1.701000094E0,1.015481953E1
7.336606610E-1,-1.144950032E0,9.988050461E0,1.701000094E0,1.019634562E1
7.356224120E-1,-1.068000078E0,1.010295010E1,1.816050053E0,1.032028404E1
7.375844330E-1,-9.919500351E-1,1.018005085E1,1.701000094E0,1.036874156E1
7.395463570E-1,-9.919500351E-1,1.025595093E1,1.740000129E0,1.044969352E1
7.415078760E-1,-9.150000215E-1,1.021800041E1,1.701000094E0,1.039894989E1
7.434695130E-1,-8.770500422E-1,1.021800041E1,1.777950048E0,1.040854724E1
7.454313490E-1,-8.380500674E-1,1.025595093E1,1.740000129E0,1.043620898E1
7.473931260E-1,-7.230000496E-1,1.014105034E1,1.740000129E0,1.031461252E1
7.493549790E-1,-6.469500065E-1,1.006500053E1,1.777950048E0,1.024128344E1
7.513168130E-1,-5.320500135E-1,1.006500053E1,1.740000129E0,1.022814320E1
7.532788870E-1,-5.320500135E-1,9.988050461E0,1.740000129E0,1.015242974E1
7.552408900E-1,-4.170000255E-1,9.873000145E0,1.701000094E0,1.002713430E1
7.572024850E-1,-3.019500077E-1,9.757950783E0,1.663050056E0,9.903257685E0
7.591642000E-1,-2.629500031E-1,9.681000710E0,1.585950017E0,9.813569936E0
7.611257270E-1,-1.870500147E-1,9.565950394E0,1.585950017E0,9.698331408E0
7.630872960E-1,-1.480500102E-1,9.451050758E0,1.510050058E0,9.572070331E0
7.650492340E-1,-1.099500060E-1,9.412950516E0,1.510050058E0,9.533938200E0
7.670110630E-1,-7.200000435E-2,9.375000000E0,1.471050024E0,9.489984045E0
7.689729120E-1,4.050000105E-3,9.336000443E0,1.510050058E0,9.457334288E0
7.709347550E-1,-3.299999982E-2,9.259950638E0,1.510050058E0,9.382325191E0
7.728967420E-1,-3.299999982E-2,9.298050880E0,1.471050024E0,9.413757345E0
7.748586830E-1,-1.480500102E-1,9.259950638E0,1.471050024E0,9.377238015E0
7.768205590E-1,-1.099500060E-1,9.220950127E0,1.395000100E0,9.326523228E0
7.787824550E-1,-1.099500060E-1,9.145050049E0,1.356000066E0,9.245689027E0
7.807446070E-1,-7.200000435E-2,9.106050491E0,1.318050027E0,9.201227930E0
7.827066840E-1,-1.099500060E-1,9.106050491E0,1.318050027E0,9.201603144E0
7.846683930E-1,-1.099500060E-1,9.106050491E0,1.279950023E0,9.196222954E0
7.866301840E-1,-1.099500060E-1,9.030000687E0,1.279950023E0,9.120925033E0
7.885925790E-1,-1.480500102E-1,9.106050491E0,1.279950023E0,9.196757386E0
7.905547970E-1,-1.480500102E-1,9.030000687E0,1.240950108E0,9.116073079E0
7.925165810E-1,-2.250000089E-1,9.106050491E0,1.203000069E0,9.187926301E0
7.944784920E-1,-3.019500077E-1,9.106050491E0,1.240950108E0,9.195177352E0
7.964403270E-1,-3.400500119E-1,9.106050491E0,1.240950108E0,9.196507312E0
7.984021840E-1,-3.780000210E-1,9.106050491E0,1.279950023E0,9.203331550E0
8.003641620E-1,-4.170000255E-1,9.145050049E0,1.356000066E0,9.254434915E0
8.023261050E-1,-3.780000210E-1,9.145050049E0,1.395000100E0,9.258555486E0
8.042879810E-1,-4.930500090E-1,9.220950127E0,1.395000100E0,9.338899551E0
8.062498760E-1,-6.079500318E-1,9.220950127E0,1.432950020E0,9.351410067E0
8.082119080E-1,-6.469500065E-1,9.220950127E0,1.432950020E0,9.354026476E0
8.101738890E-1,-7.230000496E-1,9.220950127E0,1.471050024E0,9.365502575E0
8.121357140E-1,-7.620000243E-1,9.220950127E0,1.432950020E0,9.362687170E0
8.140975840E-1,-7.999500632E-1,9.183000565E0,1.471050024E0,9.334420584E0
8.160595600E-1,-8.770500422E-1,9.220950127E0,1.510050058E0,9.384848917E0
8.180215050E-1,-9.150000215E-1,9.183000565E0,1.471050024E0,9.344983284E0
8.199833350E-1,-9.150000215E-1,9.183000565E0,1.471050024E0,9.344983284E0
8.219451990E-1,-9.919500351E-1,9.183000565E0,1.510050058E0,9.359044578E0
8.239070420E-1,-1.030050039E0,9.145050049E0,1.471050024E0,9.319706629E0
8.258688910E-1,-1.030050039E0,9.106050491E0,1.471050024E0,9.281440988E0
8.278309160E-1,-1.106999993E0,9.106050491E0,1.471050024E0,9.290295620E0
8.297928890E-1,-1.144950032E0,9.067950249E0,1.471050024E0,9.257570981E0
8.317546630E-1,-1.183050036E0,9.067950249E0,1.471050024E0,9.262360243E0
8.337165320E-1,-1.260000110E0,8.914950371E0,1.510050058E0,9.129304002E0
8.356787780E-1,-1.336950064E0,8.991000175E0,1.548000097E0,9.220727950E0
8.376409140E-1,-1.260000110E0,9.067950249E0,1.510050058E0,9.278770025E0
8.396027120E-1,-1.297950029E0,8.991000175E0,1.471050024E0,9.202540226E0
8.415646090E-1,-1.336950064E0,9.067950249E0,1.471050024E0,9.283272341E0
8.435269250E-1,-1.375050068E0,9.106050491E0,1.471050024E0,9.326033799E0
8.454891290E-1,-1.375050068E0,9.067950249E0,1.471050024E0,9.288835911E0
8.474511400E-1,-1.452000022E0,9.030000687E0,1.471050024E0,9.263541690E0
8.494132080E-1,-1.452000022E0,9.030000687E0,1.471050024E0,9.263541690E0
8.513749710E-1,-1.605000019E0,9.030000687E0,1.471050024E0,9.288752642E0
8.533368240E-1,-1.642950058E0,9.030000687E0,1.471050024E0,9.295385170E0
8.552986740E-1,-1.567050099E0,9.067950249E0,1.356000066E0,9.301725856E0
8.572605210E-1,-1.528050065E0,9.106050491E0,1.356000066E0,9.332407446E0
8.592225460E-1,-1.605000019E0,9.106050491E0,1.356000066E0,9.345315232E0
8.611845190E-1,-1.642950058E0,9.145050049E0,1.356000066E0,9.389886126E0
8.631463890E-1,-1.681950092E0,9.145050049E0,1.432950020E0,9.408200799E0
8.651082900E-1,-1.681950092E0,9.183000565E0,1.356000066E0,9.433726287E0
8.670702460E-1,-1.720050097E0,9.183000565E0,1.318050027E0,9.435217410E0
8.690321960E-1,-1.758000135E0,9.183000565E0,1.240950108E0,9.431755988E0
8.709942050E-1,-1.758000135E0,9.145050049E0,1.203000069E0,9.389872951E0
8.729561960E-1,-1.834950089E0,9.183000565E0,1.165050030E0,9.436730513E0
8.749181980E-1,-1.795950055E0,9.183000565E0,1.165050030E0,9.429224652E0
8.768801960E-1,-1.834950089E0,9.106050491E0,1.165050030E0,9.361866211E0
8.788420140E-1,-1.834950089E0,9.106050491E0,1.126049995E0,9.357092816E0
8.808038870E-1,-1.950000048E0,9.067950249E0,1.050000072E0,9.334490990E0
8.827659080E-1,-1.950000048E0,9.030000687E0,1.050000072E0,9.297629415E0
8.847278850E-1,-1.950000048E0,8.991000175E0,9.730500579E-1,9.251346429E0
8.866898890E-1,-1.950000048E0,8.953050613E0,9.730500579E-1,9.214469159E0
8.886518850E-1,-1.987950087E0,8.914950371E0,1.011000037E0,9.189690242E0
8.906138860E-1,-2.026050091E0,8.914950371E0,1.011000037E0,9.198007402E0
8.925758850E-1,-2.065050125E0,8.953050613E0,1.050000072E0,9.247921251E0
8.945380650E-1,-2.103000164E0,8.953050613E0,1.011000037E0,9.252126569E0
8.965001920E-1,-2.140950203E0,8.914950371E0,1.050000072E0,9.228353485E0
8.984620360E-1,-2.179949999E0,8.914950371E0,1.011000037E0,9.233127487E0
9.004239630E-1,-2.179949999E0,8.877000809E0,1.011000037E0,9.196490985E0
9.023857960E-1,-2.218050003E0,8.877000809E0,1.011000037E0,9.205596681E0
9.043476560E-1,-2.179949999E0,8.838000298E0,9.349500537E-1,9.150768430E0
9.063096790E-1,-2.256000042E0,8.800050735E0,8.959500194E-1,9.128699555E0
9.082716540E-1,-2.256000042E0,8.838000298E0,8.200500607E-1,9.158180362E0
9.102336580E-1,-2.332950115E0,8.800050735E0,7.810500264E-1,9.137482604E0
9.121956540E-1,-2.371050119E0,8.800050735E0,7.429500222E-1,9.144109927E0
9.141574550E-1,-2.371050119E0,8.722949982E0,6.660000086E-1,9.063955597E0
9.161193280E-1,-2.371050119E0,8.722949982E0,6.280500293E-1,9.061246156E0
9.180811250E-1,-2.410050154E0,8.722949982E0,6.280500293E-1,9.071529362E0
9.200429440E-1,-2.371050119E0,8.722949982E0,5.899500251E-1,9.058685119E0
9.220044790E-1,-2.410050154E0,8.722949982E0,5.130000114E-1,9.064290769E0
9.239660970E-1,-2.410050154E0,8.722949982E0,4.750500321E-1,9.062222170E0
9.259281280E-1,-2.448000193E0,8.722949982E0,3.600000143E-1,9.067092221E0
9.278900620E-1,-2.485950232E0,8.722949982E0,3.600000143E-1,9.077411798E0
9.298523890E-1,-2.563050032E0,8.685000420E0,3.220500052E-1,9.061024995E0
9.318146010E-1,-2.601000071E0,8.685000420E0,3.600000143E-1,9.073259264E0
9.337771050E-1,-2.601000071E0,8.647050858E0,2.449500114E-1,9.033088642E0
9.357395240E-1,-2.448000193E0,8.569950104E0,2.070000172E-1,8.915133130E0
9.377012530E-1,-2.524950027E0,8.455050468E0,1.300500035E-1,8.824973885E0
9.396631980E-1,-2.563050032E0,8.416950226E0,1.680000126E-1,8.800142077E0
9.416252510E-1,-2.563050032E0,8.377950668E0,1.300500035E-1,8.762202684E0
9.435872730E-1,-2.601000071E0,8.340000153E0,-6.105000153E-2,8.736391189E0
9.455492250E-1,-2.640000105E0,8.532000542E0,1.500000060E-2,8.931117444E0
9.475111980E-1,-2.601000071E0,8.685000420E0,1.300500035E-1,9.067047296E0
9.494734060E-1,-2.677950144E0,8.722949982E0,1.300500035E-1,9.125688268E0
9.514355280E-1,-2.755050182E0,8.800050735E0,9.195000678E-2,9.221694490E0
9.533977330E-1,-2.755050182E0,8.838000298E0,1.300500035E-1,9.258372631E0
9.553599130E-1,-2.755050182E0,8.877000809E0,1.300500035E-1,9.295609602E0
9.573221970E-1,-2.793000221E0,8.877000809E0,9.195000678E-2,9.306473467E0
9.592844510E-1,-2.793000221E0,8.914950371E0,9.195000678E-2,9.342678693E0
9.612464540E-1,-2.793000221E0,8.877000809E0,5.295000225E-2,9.306169851E0
9.632085300E-1,-2.793000221E0,8.838000298E0,1.500000060E-2,9.268836200E0
9.651708760E-1,-2.830950022E0,8.914950371E0,5.295000225E-2,9.353791843E0
9.671331430E-1,-2.830950022E0,8.838000298E0,1.500000060E-2,9.280342250E0
9.690950540E-1,-2.869950056E0,8.761950493E0,9.195000678E-2,9.220457937E0
9.710570690E-1,-2.869950056E0,8.685000420E0,5.295000225E-2,9.147056866E0
9.730190470E-1,-2.869950056E0,8.647050858E0,5.295000225E-2,9.111032080E0
9.749810500E-1,-2.830950022E0,8.569950104E0,5.295000225E-2,9.025581782E0
9.769428690E-1,-2.869950056E0,8.493000031E0,1.500000060E-2,8.964813877E0
9.789047420E-1,-2.830950022E0,8.493000031E0,-2.205000073E-2,8.952419435E0
9.808668080E-1,-2.830950022E0,8.455050468E0,-2.205000073E-2,8.916425441E0
9.828288170E-1,-2.830950022E0,8.455050468E0,1.500000060E-2,8.916410794E0
9.847907570E-1,-2.830950022E0,8.493000031E0,5.295000225E-2,8.952548869E0
9.867527280E-1,-2.830950022E0,8.493000031E0,1.500000060E-2,8.952404847E0
9.887145980E-1,-2.830950022E0,8.493000031E0,-2.205000073E-2,8.952419435E0
9.906764970E-1,-2.830950022E0,8.455050468E0,5.295000225E-2,8.916555397E0
9.926381540E-1,-2.793000221E0,8.455050468E0,1.500000060E-2,8.904434494E0
9.945998820E-1,-2.755050182E0,8.340000153E0,5.295000225E-2,8.783433711E0
9.965619320E-1,-2.830950022E0,8.493000031E0,1.300500035E-1,8.953336839E0
9.985238840E-1,-2.755050182E0,8.532000542E0,5.295000225E-2,8.965943255E0
1.000485713E0,-2.716050148E0,8.569950104E0,-2.205000073E-2,8.990075605E0
1.002447578E0,-2.640000105E0,8.569950104E0,-2.205000073E-2,8.967392683E0
1.004409376E0,-2.716050148E0,8.569950104E0,1.300500035E-1,8.990989166E0
1.006371193E0,-2.640000105E0,8.647050858E0,1.680000126E-1,9.042638613E0
1.008333223E0,-2.563050032E0,8.647050858E0,1.300500035E-1,9.019846285E0
1.010295191E0,-2.601000071E0,8.685000420E0,1.680000126E-1,9.067671016E0
1.012257242E0,-2.524950027E0,8.761950493E0,1.680000126E-1,9.120053349E0
1.014219268E0,-2.524950027E0,8.761950493E0,1.300500035E-1,9.119433211E0
1.016181040E0,-2.485950232E0,8.800050735E0,2.070000172E-1,9.146785802E0
1.018142886E0,-2.448000193E0,8.800050735E0,2.449500114E-1,9.137483154E0
1.020104785E0,-2.410050154E0,8.877000809E0,2.449500114E-1,9.201602339E0
1.022066631E0,-2.410050154E0,8.838000298E0,2.830500007E-1,9.165080922E0
1.024027441E0,-2.448000193E0,8.914950371E0,3.220500052E-1,9.250554646E0
1.025988554E0,-2.295000076E0,8.838000298E0,3.600000143E-1,9.138209596E0
1.027950300E0,-2.332950115E0,8.761950493E0,3.220500052E-1,9.072934965E0
1.029911860E0,-2.218050003E0,8.914950371E0,3.600000143E-1,9.193785180E0
1.031873456E0,-2.103000164E0,8.914950371E0,4.360500276E-1,9.170010329E0
1.033835030E0,-2.065050125E0,8.953050613E0,3.220500052E-1,9.193762207E0
1.035796742E0,-1.911000133E0,8.991000175E0,3.600000143E-1,9.198891546E0
1.037758414E0,-1.834950089E0,8.991000175E0,3.600000143E-1,9.183394035E0
1.039720425E0,-1.795950055E0,8.991000175E0,4.750500321E-1,9.180914622E0
1.041682337E0,-1.681950092E0,8.953050613E0,5.899500251E-1,9.128751965E0
1.043644366E0,-1.605000019E0,8.991000175E0,6.280500293E-1,9.154701309E0
1.045606351E0,-1.567050099E0,9.030000687E0,7.429500222E-1,9.195027632E0
1.047568175E0,-1.567050099E0,9.030000687E0,7.050000429E-1,9.192039136E0
1.049530046E0,-1.413000107E0,8.991000175E0,5.130000114E-1,9.115800704E0
1.051491707E0,-1.375050068E0,9.067950249E0,7.429500222E-1,9.201655239E0
1.053453430E0,-1.375050068E0,8.991000175E0,8.200500607E-1,9.132432805E0
1.055415356E0,-1.336950064E0,9.030000687E0,7.810500264E-1,9.161789510E0
1.057377212E0,-1.297950029E0,9.067950249E0,9.349500537E-1,9.207960013E0
1.059339012E0,-1.260000110E0,9.106050491E0,8.959500194E-1,9.236367374E0
1.061300829E0,-1.183050036E0,9.145050049E0,9.349500537E-1,9.268531674E0
1.063262904E0,-1.106999993E0,9.106050491E0,9.730500579E-1,9.224555867E0
1.065224904E0,-1.106999993E0,9.183000565E0,9.349500537E-1,9.296616587E0
1.067186716E0,-1.068000078E0,9.183000565E0,1.011000037E0,9.300013151E0
1.069148589E0,-1.030050039E0,9.183000565E0,1.126049995E0,9.308946828E0
1.071110610E0,-9.150000215E-1,9.220950127E0,1.203000069E0,9.344001040E0
1.073072587E0,-9.150000215E-1,9.183000565E0,1.203000069E0,9.306553260E0
1.075034547E0,-8.770500422E-1,9.259950638E0,1.356000066E0,9.399714824E0
1.076996512E0,-8.380500674E-1,9.336000443E0,1.471050024E0,9.488267511E0
1.078958547E0,-8.380500674E-1,9.375000000E0,1.471050024E0,9.526643747E0
1.080920572E0,-7.999500632E-1,9.490050316E0,1.432950020E0,9.630904467E0
1.082882929E0,-7.620000243E-1,9.451050758E0,1.395000100E0,9.583789947E0
1.084845188E0,-7.620000243E-1,9.565950394E0,1.240950108E0,9.676156682E0
1.086806964E0,-7.230000496E-1,9.604950905E0,1.126049995E0,9.697721359E0
1.088768882E0,-7.230000496E-1,9.643050194E0,1.165050030E0,9.740045569E0
1.090731075E0,-7.999500632E-1,9.681000710E0,1.165050030E0,9.783610602E0
1.092693188E0,-7.999500632E-1,9.757950783E0,1.087950110E0,9.850947113E0
1.094655170E0,-8.380500674E-1,9.796050072E0,1.087950110E0,9.891843123E0
1.096617190E0,-8.770500422E-1,9.796050072E0,8.959500194E-1,9.875957686E0
1.098579501E0,-9.529500604E-1,9.910950661E0,1.126049995E0,1.002013201E1
1.100541726E0,-8.380500674E-1,9.949950218E0,1.165050030E0,1.005291892E1
1.102503514E0,-8.770500422E-1,9.949950218E0,1.240950108E0,1.006532082E1
1.104465426E0,-9.150000215E-1,1.002600002E1,1.203000069E0,1.013928551E1
1.106426945E0,-9.529500604E-1,1.006500053E1,1.165050030E0,1.017691953E1
1.108388579E0,-9.529500604E-1,1.010295010E1,1.240950108E0,1.022338846E1
1.110350416E0,-9.919500351E-1,1.018005085E1,1.203000069E0,1.029876737E1
1.112312193E0,-1.068000078E0,1.018005085E1,1.203000069E0,1.030637029E1
1.114274110E0,-1.030050039E0,1.025595093E1,1.126049995E0,1.036887270E1
1.116235976E0,-1.144950032E0,1.025595093E1,1.011000037E0,1.036906751E1
1.118197820E0,-1.222050071E0,1.029495049E1,1.011000037E0,1.041640691E1
1.120159670E0,-1.260000110E0,1.033305073E1,9.730500579E-1,1.045496839E1
1.122121471E0,-1.297950029E0,1.037100029E1,1.050000072E0,1.050451434E1
1.124083286E0,-1.375050068E0,1.041000080E1,9.730500579E-1,1.054541160E1
1.126045022E0,-1.413000107E0,1.041000080E1,1.050000072E0,1.055780214E1
1.128006767E0,-1.567050099E0,1.041000080E1,9.730500579E-1,1.057216104E1
1.129968765E0,-1.605000019E0,1.044795036E1,9.349500537E-1,1.061177758E1
1.131930688E0,-1.642950058E0,1.044795036E1,9.349500537E-1,1.061758368E1
1.133892701E0,-1.758000135E0,1.044795036E1,9.349500537E-1,1.063599374E1
1.135854688E0,-1.834950089E0,1.041000080E1,9.349500537E-1,1.061175245E1
1.137816837E0,-1.911000133E0,1.041000080E1,9.349500537E-1,1.062516681E1
1.139778962E0,-2.026050091E0,1.029495049E1,8.580000401E-1,1.052744264E1
1.141740626E0,-2.218050003E0,1.029495049E1,8.580000401E-1,1.056607379E1
1.143702426E0,-2.256000042E0,1.029495049E1,7.429500222E-1,1.056539239E1
1.145664099E0,-2.332950115E0,1.033305073E1,6.280500293E-1,1.061174069E1
1.147625810E0,-2.332950115E0,1.029495049E1,5.130000114E-1,1.056843559E1
1.149587629E0,-2.410050154E0,1.029495049E1,5.130000114E-1,1.058572228E1
1.151549419E0,-2.448000193E0,1.033305073E1,5.130000114E-1,1.063145387E1
1.153511275E0,-2.563050032E0,1.029495049E1,5.509500504E-1,1.062350116E1
1.155473111E0,-2.640000105E0,1.029495049E1,5.130000114E-1,1.064043115E1
1.157435004E0,-2.677950144E0,1.014105034E1,3.220500052E-1,1.049361878E1
1.159396880E0,-2.793000221E0,1.025595093E1,4.360500276E-1,1.063839834E1
1.161359207E0,-2.755050182E0,1.025595093E1,3.600000143E-1,1.062564967E1
1.163321409E0,-2.755050182E0,1.025595093E1,2.830500007E-1,1.062332096E1
1.165283960E0,-2.716050148E0,1.025595093E1,2.070000172E-1,1.061151765E1
1.167246409E0,-2.677950144E0,1.025595093E1,1.300500035E-1,1.060060656E1
1.169208153E0,-2.640000105E0,1.029495049E1,9.195000678E-2,1.062845524E1
1.171170103E0,-2.601000071E0,1.025595093E1,9.195000678E-2,1.058102952E1
1.173132061E0,-2.563050032E0,1.029495049E1,5.295000225E-2,1.060933715E1
1.175094020E0,-2.448000193E0,1.025595093E1,1.300500035E-1,1.054486355E1
1.177056072E0,-2.448000193E0,1.025595093E1,1.300500035E-1,1.054486355E1
1.179018097E0,-2.295000076E0,1.029495049E1,1.680000126E-1,1.054899307E1
1.180980228E0,-2.179949999E0,1.033305073E1,2.070000172E-1,1.056252661E1
1.182942328E0,-2.103000164E0,1.037100029E1,2.070000172E-1,1.058409683E1
1.184904122E0,-2.065050125E0,1.033305073E1,2.449500114E-1,1.054022627E1
1.186866012E0,-1.950000048E0,1.037100029E1,2.449500114E-1,1.055557425E1
1.188827895E0,-1.911000133E0,1.044795036E1,2.449500114E-1,1.062410414E1
1.190789781E0,-1.834950089E0,1.044795036E1,2.070000172E-1,1.060988019E1
1.192751799E0,-1.758000135E0,1.048605061E1,2.449500114E-1,1.063521614E1
1.194713779E0,-1.681950092E0,1.056300068E1,2.070000172E-1,1.069807405E1
1.196675918E0,-1.642950058E0,1.060095024E1,2.449500114E-1,1.073030435E1
1.198638010E0,-1.567050099E0,1.063995075E1,2.449500114E-1,1.075751823E1
1.200599274E0,-1.489950061E0,1.071600056E1,2.449500114E-1,1.082185842E1
1.202560781E0,-1.452000022E0,1.075500011E1,3.220500052E-1,1.085734994E1
1.204522190E0,-1.336950064E0,1.071600056E1,3.600000143E-1,1.080507767E1
1.206483628E0,-1.336950064E0,1.083105087E1,3.979500234E-1,1.092050652E1
1.208445362E0,-1.336950064E0,1.083105087E1,4.360500276E-1,1.092196128E1
1.210407010E0,-1.297950029E0,1.087005043E1,4.360500276E-1,1.095594862E1
1.212369206E0,-1.297950029E0,1.090800095E1,4.750500321E-1,1.099521857E1
1.214331241E0,-1.297950029E0,1.098495007E1,5.130000114E-1,1.107325477E1
1.216293461E0,-1.222050071E0,1.106100082E1,6.280500293E-1,1.114601240E1
1.218255626E0,-1.260000110E0,1.106100082E1,7.429500222E-1,1.115729870E1
1.220217358E0,-1.336950064E0,1.110000038E1,8.959500194E-1,1.121606751E1
1.222179228E0,-1.452000022E0,1.110000038E1,1.011000037E0,1.124012605E1
1.224140934E0,-1.413000107E0,1.113795090E1,1.087950110E0,1.127981183E1
1.226102689E0,-1.489950061E0,1.113795090E1,1.165050030E0,1.129739983E1
1.228064685E0,-1.528050065E0,1.113795090E1,1.240950108E0,1.131056340E1
1.230026611E0,-1.567050099E0,1.110000038E1,1.395000100E0,1.129653397E1
1.231988469E0,-1.681950092E0,1.110000038E1,1.432950020E0,1.131778734E1
1.233950362E0,-1.758000135E0,1.110000038E1,1.510050058E0,1.133934849E1
1.235912334E0,-1.795950055E0,1.110000038E1,1.510050058E0,1.134529401E1
1.237874283E0,-1.873050094E0,1.110000038E1,1.701000094E0,1.138471460E1
1.239835977E0,-1.950000048E0,1.102305031E1,1.930950046E0,1.135952052E1
1.241797746E0,-2.026050091E0,1.102305031E1,2.161050081E0,1.141414274E1
1.243759716E0,-2.103000164E0,1.106100082E1,2.353049994E0,1.150239945E1
1.245721644E0,-2.179949999E0,1.098495007E1,2.545050144E0,1.148471115E1
1.247683522E0,-2.179949999E0,1.090800095E1,2.698050022E0,1.144622822E1
1.249645415E0,-2.295000076E0,1.087005043E1,2.851050138E0,1.146967779E1
1.251607387E0,-2.332950115E0,1.083105087E1,2.965950251E0,1.146957628E1
1.253569336E0,-2.332950115E0,1.075500011E1,3.081000090E0,1.142826519E1
1.255531321E0,-2.256000042E0,1.071600056E1,3.234000206E0,1.141844829E1
1.257493312E0,-2.140950203E0,1.063995075E1,3.310950041E0,1.134700885E1
1.259455494E0,-2.140950203E0,1.052505016E1,3.426000118E0,1.127376714E1
1.261417620E0,-2.103000164E0,1.048605061E1,3.618000269E0,1.129025212E1
1.263379419E0,-2.026050091E0,1.037100029E1,3.733050108E0,1.120705979E1
1.265341314E0,-1.987950087E0,1.029495049E1,3.886050224E0,1.118209897E1
1.267302932E0,-1.834950089E0,1.014105034E1,3.886050224E0,1.101405149E1
1.269264786E0,-1.834950089E0,1.006500053E1,4.039050102E0,1.099932740E1
1.271226990E0,-1.720050097E0,9.949950218E0,4.078050137E0,1.088992996E1
1.273189092E0,-1.642950058E0,9.757950783E0,4.231050014E0,1.076190841E1
1.275151076E0,-1.642950058E0,9.681000710E0,4.269000053E0,1.070726020E1
1.277113094E0,-1.681950092E0,9.490050316E0,4.423050404E0,1.060440408E1
1.279075135E0,-1.375050068E0,9.298050880E0,4.461000443E0,1.040408755E1
1.281037169E0,-1.260000110E0,9.106050491E0,4.384050369E0,1.018467739E1
1.282999344E0,-1.222050071E0,8.953050613E0,4.384050369E0,1.004342667E1
1.284961477E0,-1.260000110E0,8.838000298E0,4.384050369E0,9.945740152E0
1.286923455E0,-1.795950055E0,8.532000542E0,4.384050369E0,9.759117147E0
1.288885479E0,-1.297950029E0,8.532000542E0,4.537950039E0,9.750522964E0
1.290847599E0,-9.529500604E-1,8.340000153E0,4.498950005E0,9.523878806E0
1.292809697E0,-7.230000496E-1,8.263050079E0,4.461000443E0,9.418134138E0
1.294771861E0,-5.700000525E-1,8.187000275E0,4.423050404E0,9.322834785E0
1.296734005E0,-3.780000210E-1,8.110050201E0,4.345950127E0,9.208858821E0
1.298696206E0,-3.019500077E-1,8.110050201E0,4.308000088E0,9.188196386E0
1.300658390E0,-1.870500147E-1,8.032950401E0,4.345950127E0,9.135127933E0
1.302620714E0,-3.299999982E-2,7.995000362E0,4.231050014E0,9.045601363E0
1.304583000E0,4.200000316E-2,7.957050323E0,4.231050014E0,9.012113963E0
1.306545087E0,8.100000024E-2,7.918050289E0,4.308000088E0,9.014485351E0
1.308507233E0,3.109500110E-1,7.803000450E0,4.308000088E0,8.918652964E0
1.310469253E0,3.870000243E-1,7.842000484E0,4.345950127E0,8.974075057E0
1.312431310E0,5.020500422E-1,7.842000484E0,4.269000053E0,8.942784091E0
1.314394170E0,6.550500393E-1,7.842000484E0,4.153950214E0,8.898391121E0
1.316356784E0,7.320000529E-1,7.879950523E0,4.039050102E0,8.885008163E0
1.318318725E0,9.240000248E-1,7.879950523E0,3.924000263E0,8.851280945E0
1.320280863E0,1.153950095E0,7.879950523E0,3.847950220E0,8.844882247E0
1.322242794E0,1.269000053E0,7.918050289E0,3.694050074E0,8.829036610E0
1.324204786E0,1.345050097E0,7.918050289E0,3.463950157E0,8.746635401E0
1.326166810E0,1.459950089E0,7.995000362E0,3.273000240E0,8.761507612E0
1.328128808E0,1.651950121E0,8.032950401E0,3.081000090E0,8.760695914E0
1.330090808E0,1.804950118E0,8.148000717E0,2.889000177E0,8.831425855E0
1.332052808E0,1.920000076E0,8.187000275E0,2.698050022E0,8.831355938E0
1.334014808E0,2.111999989E0,8.263050079E0,2.545050144E0,8.900327005E0
1.335976808E0,2.304000139E0,8.340000153E0,2.200050116E0,8.927723097E0
1.337938827E0,2.380050182E0,8.455050468E0,2.008050203E0,9.010259869E0
1.339900827E0,2.419050217E0,8.608050346E0,1.930950046E0,9.147617329E0
1.341863008E0,2.304000139E0,8.800050735E0,1.777950048E0,9.268787189E0
1.343825135E0,2.035050154E0,8.877000809E0,1.318050027E0,9.202164330E0
1.345787519E0,2.074050188E0,9.106050491E0,1.356000066E0,9.437191103E0
1.347749827E0,2.188950062E0,9.183000565E0,1.432950020E0,9.548421205E0
1.349712334E0,2.265000105E0,9.336000443E0,1.548000097E0,9.730746839E0
1.351674769E0,2.265000105E0,9.490050316E0,1.701000094E0,9.903771090E0
1.353636831E0,2.227050066E0,9.643050194E0,1.816050053E0,1.006211741E1
1.355599002E0,2.111999989E0,9.835050583E0,1.969950080E0,1.025033986E1
1.357560973E0,2.035050154E0,1.002600002E1,1.930950046E0,1.041108417E1
1.359523002E0,1.882050037E0,1.025595093E1,2.046000004E0,1.062604149E1
1.361485075E0,1.651950121E0,1.044795036E1,2.122950077E0,1.078867568E1
1.363447111E0,1.575000048E0,1.071600056E1,2.085000038E0,1.102998269E1
1.365409466E0,1.459950089E0,1.090800095E1,2.122950077E0,1.120816024E1
1.367371727E0,1.384050012E0,1.110000038E1,1.930950046E0,1.135139511E1
1.369333997E0,1.306950092E0,1.132905006E1,1.893000126E0,1.156023111E1
1.371296265E0,1.230000019E0,1.152105045E1,1.855050087E0,1.173408345E1
1.373258401E0,1.077000022E0,1.171305084E1,1.855050087E0,1.190784195E1
1.375220575E0,8.470500112E-1,1.190400028E1,1.816050053E0,1.207148517E1
1.377182184E0,6.169500351E-1,1.209600067E1,1.816050053E0,1.224711792E1
1.379143959E0,4.260000288E-1,1.232595062E1,1.663050056E0,1.244492950E1
1.381106042E0,2.340000123E-1,1.251795101E1,1.624950051E0,1.262514619E1
1.383068034E0,4.050000105E-3,1.274805069E1,1.510050058E0,1.283717508E1
1.385029991E0,-2.629500031E-1,1.297800064E1,1.471050024E0,1.306375258E1
1.386991959E0,-5.700000525E-1,1.316895103E1,1.471050024E0,1.326311274E1
1.388954009E0,-7.230000496E-1,1.332300091E1,1.471050024E0,1.342345225E1
1.390916034E0,-9.529500604E-1,1.343700027E1,1.432950020E0,1.354675001E1
1.392878210E0,-1.106999993E0,1.351395035E1,1.165050030E0,1.360917501E1
1.394840342E0,-1.375050068E0,1.347600079E1,8.959500194E-1,1.357556947E1
1.396802270E0,-1.567050099E0,1.351395035E1,7.050000429E-1,1.362275762E1
1.398764262E0,-1.758000135E0,1.336095047E1,4.750500321E-1,1.348448125E1
1.400726262E0,-1.911000133E0,1.316895103E1,2.830500007E-1,1.330989520E1
1.402688260E0,-2.026050091E0,1.301595020E1,3.220500052E-1,1.317662912E1
1.404650260E0,-2.256000042E0,1.274805069E1,4.360500276E-1,1.295347336E1
1.406612260E0,-2.410050154E0,1.247895050E1,4.750500321E-1,1.271842049E1
1.408574615E0,-2.640000105E0,1.217295074E1,5.130000114E-1,1.246649507E1
1.410536870E0,-2.830950022E0,1.178895092E1,5.899500251E-1,1.213843824E1
1.412499007E0,-2.946000099E0,1.152105045E1,6.280500293E-1,1.190831503E1
1.414461179E0,-3.061050177E0,1.117605019E1,6.660000086E-1,1.160679465E1
1.416423374E0,-3.253050089E0,1.098495007E1,7.810500264E-1,1.148309636E1
1.418385562E0,-3.483000278E0,1.079295063E1,8.200500607E-1,1.137064450E1
1.420347472E0,-3.598050117E0,1.060095024E1,7.050000429E-1,1.121709123E1
1.422309473E0,-3.675000191E0,1.044795036E1,6.660000086E-1,1.109544272E1
1.424271652E0,-3.751050234E0,1.033305073E1,6.280500293E-1,1.101075665E1
1.426233779E0,-3.943050146E0,1.025595093E1,5.509500504E-1,1.100162351E1
1.428195982E0,-3.981000185E0,1.010295010E1,4.750500321E-1,1.086938985E1
1.430158163E0,-4.096050262E0,1.006500053E1,3.220500052E-1,1.087131913E1
1.432121232E0,-4.173000336E0,1.002600002E1,2.830500007E-1,1.086345827E1
1.434084028E0,-4.326000214E0,9.910950661E0,1.680000126E-1,1.081524132E1
1.436045713E0,-4.363950253E0,9.910950661E0,2.070000172E-1,1.083115201E1
1.438007723E0,-4.441050053E0,9.835050583E0,2.070000172E-1,1.079323837E1
1.439969676E0,-4.441050053E0,9.757950783E0,2.070000172E-1,1.072303026E1
1.441931646E0,-4.441050053E0,9.720000267E0,2.070000172E-1,1.068850690E1
1.443893369E0,-4.441050053E0,9.604950905E0,2.449500114E-1,1.058480080E1
1.445855141E0,-4.441050053E0,9.604950905E0,2.830500007E-1,1.058575102E1
1.447817179E0,-4.326000214E0,9.565950394E0,2.449500114E-1,1.050150871E1
1.449779139E0,-4.288050175E0,9.451050758E0,1.680000126E-1,1.037968972E1
1.451741146E0,-4.173000336E0,9.490050316E0,1.300500035E-1,1.036783004E1
1.453703139E0,-4.096050262E0,9.336000443E0,-1.369500011E-1,1.019594465E1
1.455665177E0,-4.249050140E0,8.838000298E0,-1.441050053E0,9.911675015E0
1.457627050E0,-3.598050117E0,8.953050613E0,-1.134000063E0,9.715402003E0
1.459589026E0,-3.520950079E0,9.030000687E0,-2.910000086E-1,9.696529424E0
1.461550971E0,-3.483000278E0,9.067950249E0,5.295000225E-2,9.714001048E0
1.463512981E0,-3.367950201E0,9.145050049E0,9.195000678E-2,9.745947043E0
1.465474971E0,-3.330000162E0,9.220950127E0,1.500000060E-2,9.803828197E0
1.467437003E0,-3.291000128E0,9.298050880E0,-6.105000153E-2,9.863476016E0
1.469399033E0,-3.253050089E0,9.336000443E0,-9.900000691E-2,9.887013712E0
1.471361343E0,-3.138000250E0,9.336000443E0,-2.910000086E-1,9.853559298E0
1.473323571E0,-2.985000134E0,9.336000443E0,-4.819500148E-1,9.813429873E0
1.475285893E0,-2.830950022E0,9.375000000E0,-5.590500236E-1,9.809048881E0
1.477248187E0,-2.755050182E0,9.336000443E0,-5.970000029E-1,9.752313304E0
1.479210174E0,-2.677950144E0,9.298050880E0,-6.739500165E-1,9.699452344E0
1.481172257E0,-2.601000071E0,9.336000443E0,-5.590500236E-1,9.707658964E0
1.483134422E0,-2.448000193E0,9.298050880E0,-4.440000355E-1,9.625154084E0
1.485096562E0,-2.295000076E0,9.220950127E0,-4.060500264E-1,9.510931774E0
1.487058718E0,-2.218050003E0,9.259950638E0,-4.819500148E-1,9.534081364E0
1.489020870E0,-2.065050125E0,9.183000565E0,-5.970000029E-1,9.431242781E0
1.490982845E0,-1.911000133E0,9.030000687E0,-4.819500148E-1,9.242570515E0
1.492944872E0,-1.795950055E0,8.953050613E0,-5.209500194E-1,9.146252829E0
1.494906822E0,-1.681950092E0,8.877000809E0,-4.060500264E-1,9.044057502E0
1.496868795E0,-1.605000019E0,8.877000809E0,-2.910000086E-1,9.025621830E0
1.498830799E0,-1.489950061E0,8.838000298E0,-9.900000691E-2,8.963258417E0
1.500792793E0,-1.375050068E0,8.761950493E0,-6.105000153E-2,8.869400556E0
1.502754420E0,-1.336950064E0,8.722949982E0,9.195000678E-2,8.825290174E0
1.504716165E0,-1.336950064E0,8.761950493E0,5.295000225E-2,8.863521626E0
1.506678072E0,-1.260000110E0,8.722949982E0,1.300500035E-1,8.814440973E0
1.508639932E0,-1.183050036E0,8.685000420E0,2.830500007E-1,8.769775196E0
1.510601777E0,-1.144950032E0,8.569950104E0,1.680000126E-1,8.647726832E0
1.512563626E0,-1.106999993E0,8.493000031E0,1.500000060E-2,8.564853969E0
1.514525817E0,-1.030050039E0,8.455050468E0,-2.205000073E-2,8.517591661E0
1.516487918E0,-1.030050039E0,8.340000153E0,-9.900000691E-2,8.403951846E0
1.518449857E0,-9.919500351E-1,8.263050079E0,-6.105000153E-2,8.322601071E0
1.520411843E0,-9.150000215E-1,8.187000275E0,-9.900000691E-2,8.238567809E0
1.522373665E0,-7.999500632E-1,8.071949959E0,-2.205000073E-2,8.111521586E0
1.524335535E0,-8.380500674E-1,8.032950401E0,1.500000060E-2,8.076561463E0
1.526297213E0,-9.529500604E-1,7.995000362E0,1.500000060E-2,8.051606648E0
1.528258968E0,-8.770500422E-1,8.032950401E0,-2.205000073E-2,8.080717488E0
1.530220829E0,-8.770500422E-1,8.032950401E0,4.750500321E-1,8.094639057E0
1.532182658E0,-9.529500604E-1,8.032950401E0,-2.205000073E-2,8.089307274E0
1.534144642E0,-9.919500351E-1,7.995000362E0,-2.140500098E-1,8.059144686E0
1.536106581E0,-1.030050039E0,7.995000362E0,-2.520000041E-1,8.065019397E0
1.538068632E0,-1.030050039E0,8.032950401E0,-2.910000086E-1,8.103948188E0
1.540030653E0,-1.144950032E0,7.995000362E0,-2.910000086E-1,8.081808113E0
1.541992650E0,-1.183050036E0,8.071949959E0,-2.140500098E-1,8.160992644E0
1.543954655E0,-1.144950032E0,8.110050201E0,-2.910000086E-1,8.195639441E0
1.545917149E0,-1.183050036E0,8.110050201E0,-2.910000086E-1,8.201048876E0
1.547879499E0,-1.260000110E0,8.148000717E0,-4.060500264E-1,8.254840555E0
1.549841591E0,-1.297950029E0,8.187000275E0,-4.440000355E-1,8.301131478E0
1.551803780E0,-1.297950029E0,8.263050079E0,-6.105000153E-2,8.364591920E0
1.553765972E0,-1.528050065E0,8.224950790E0,-5.590500236E-1,8.384347884E0
1.555728163E0,-1.528050065E0,8.302050591E0,-7.890000343E-1,8.478295941E0
1.557690131E0,-1.567050099E0,8.224950790E0,-8.659500480E-1,8.417560870E0
1.559652165E0,-1.605000019E0,8.263050079E0,-8.269500136E-1,8.458006148E0
1.561614523E0,-1.605000019E0,8.263050079E0,-7.120500207E-1,8.447546206E0
1.563576783E0,-1.720050097E0,8.224950790E0,-6.360000372E-1,8.426914257E0
1.565539279E0,-1.720050097E0,8.187000275E0,-6.360000372E-1,8.389877346E0
1.567501706E0,-1.795950055E0,8.148000717E0,-6.739500165E-1,8.370756293E0
1.569464129E0,-1.873050094E0,8.110050201E0,-7.120500207E-1,8.353935968E0
1.571426554E0,-1.950000048E0,8.071949959E0,-7.890000343E-1,8.341546462E0
1.573388882E0,-2.026050091E0,8.071949959E0,-8.269500136E-1,8.363318805E0
1.575351242E0,-2.026050091E0,7.995000362E0,-8.269500136E-1,8.289074501E0
1.577313675E0,-2.026050091E0,7.957050323E0,-8.659500480E-1,8.256476143E0
1.579276086E0,-2.026050091E0,7.879950523E0,-9.040500522E-1,8.186318203E0
1.581238556E0,-2.065050125E0,7.803000450E0,-9.420000315E-1,8.126414468E0
1.583201009E0,-2.065050125E0,7.765050411E0,-1.018950105E0,8.099302391E0
1.585163163E0,-2.103000164E0,7.650000572E0,-1.018950105E0,7.998961043E0
1.587125401E0,-2.103000164E0,7.650000572E0,-9.810000658E-1,7.994215382E0
1.589087540E0,-2.103000164E0,7.534950256E0,-9.420000315E-1,7.879432030E0
1.591049708E0,-2.103000164E0,7.497000217E0,-9.420000315E-1,7.843148986E0
1.593011994E0,-2.065050125E0,7.420050144E0,-9.810000658E-1,7.764273133E0
1.594974245E0,-2.065050125E0,7.342950344E0,-1.018950105E0,7.695557880E0
1.596936607E0,-1.987950087E0,7.228050232E0,-1.018950105E0,7.565376066E0
1.598898937E0,-1.950000048E0,7.113000393E0,-1.096050024E0,7.456446904E0
1.600861197E0,-1.950000048E0,7.075050354E0,-1.134000063E0,7.425954069E0
1.602823478E0,-1.950000048E0,6.960000515E0,-1.210950017E0,7.328745274E0
1.604785474E0,-1.950000048E0,6.960000515E0,-1.287000060E0,7.341694390E0
1.606747554E0,-1.873050094E0,6.844950199E0,-1.210950017E0,7.199170773E0
1.608710075E0,-1.834950089E0,6.844950199E0,-1.249050021E0,7.195867635E0
1.610672471E0,-1.795950055E0,6.768000126E0,-1.249050021E0,7.112762351E0
1.612634944E0,-1.795950055E0,6.768000126E0,-1.249050021E0,7.112762351E0
1.614597394E0,-1.758000135E0,6.730050087E0,-1.287000060E0,7.073931566E0
1.616559858E0,-1.720050097E0,6.730050087E0,-1.363950014E0,7.079018728E0
1.618522317E0,-1.681950092E0,6.768000126E0,-1.402050018E0,7.113404675E0
1.620484564E0,-1.605000019E0,6.807000160E0,-1.441050053E0,7.140581314E0
1.622446867E0,-1.567050099E0,6.883050442E0,-1.441050053E0,7.204766107E0
1.624409175E0,-1.567050099E0,6.960000515E0,-1.516950130E0,7.293722704E0
1.626371481E0,-1.681950092E0,6.997950554E0,-1.479000092E0,7.347632907E0
1.628333789E0,-1.681950092E0,7.036950111E0,-1.479000092E0,7.384785999E0
1.630296096E0,-1.758000135E0,7.113000393E0,-1.441050053E0,7.467393409E0
1.632258389E0,-1.795950055E0,7.075050354E0,-1.402050018E0,7.432867439E0
1.634220696E0,-1.834950089E0,7.152000427E0,-1.326000094E0,7.501761673E0
1.636182329E0,-1.873050094E0,7.152000427E0,-1.363950014E0,7.517964246E0
1.638144160E0,-1.873050094E0,7.152000427E0,-1.326000094E0,7.511171880E0
1.640106007E0,-1.911000133E0,7.189950466E0,-1.249050021E0,7.543701689E0
1.642067850E0,-1.950000048E0,7.189950466E0,-1.210950017E0,7.547468969E0
1.644029672E0,-1.950000048E0,7.267050266E0,-1.171950102E0,7.614853039E0
1.645991487E0,-1.987950087E0,7.228050232E0,-1.134000063E0,7.581728816E0
1.647953382E0,-1.950000048E0,7.267050266E0,-1.134000063E0,7.609104803E0
1.649915254E0,-1.950000048E0,7.228050232E0,-1.096050024E0,7.566276231E0
1.651877591E0,-1.987950087E0,7.267050266E0,-1.057050109E0,7.607845953E0
1.653839792E0,-2.026050091E0,7.305000305E0,-9.810000658E-1,7.643969490E0
1.655801920E0,-1.987950087E0,7.305000305E0,-1.018950105E0,7.638928873E0
1.657764083E0,-2.026050091E0,7.342950344E0,-1.018950105E0,7.685184321E0
1.659726055E0,-2.026050091E0,7.342950344E0,-9.810000658E-1,7.680244778E0
1.661688083E0,-2.065050125E0,7.381950378E0,-9.420000315E-1,7.723016734E0
1.663649898E0,-2.026050091E0,7.420050144E0,-9.810000658E-1,7.753991504E0
1.665611775E0,-1.950000048E0,7.420050144E0,-9.810000658E-1,7.734468660E0
1.667574166E0,-1.987950087E0,7.420050144E0,-1.057050109E0,7.754124362E0
1.669536399E0,-1.911000133E0,7.305000305E0,-1.096050024E0,7.629959149E0
1.671498360E0,-1.834950089E0,7.381950378E0,-1.096050024E0,7.685151845E0
1.673460401E0,-1.911000133E0,7.458000183E0,-1.057050109E0,7.771167426E0
1.675422573E0,-1.911000133E0,7.497000217E0,-1.134000063E0,7.819391914E0
1.677384706E0,-1.950000048E0,7.458000183E0,-1.134000063E0,7.791676524E0
1.679346513E0,-1.950000048E0,7.458000183E0,-1.249050021E0,7.809250468E0
1.681308410E0,-1.950000048E0,7.458000183E0,-1.326000094E0,7.821927075E0
1.683270292E0,-1.950000048E0,7.458000183E0,-1.363950014E0,7.828449818E0
1.685232179E0,-1.911000133E0,7.534950256E0,-1.402050018E0,7.898932911E0
1.687193838E0,-1.950000048E0,7.612050533E0,-1.402050018E0,7.981952002E0
1.689155564E0,-1.950000048E0,7.726950169E0,-1.441050053E0,8.098449503E0
1.691117561E0,-1.987950087E0,7.765050411E0,-1.479000092E0,8.150791048E0
1.693079481E0,-2.065050125E0,7.879950523E0,-1.594050050E0,8.300545032E0
1.695041540E0,-2.103000164E0,7.918050289E0,-1.786050081E0,8.384992842E0
1.697003558E0,-2.218050003E0,7.995000362E0,-2.014950037E0,8.538137986E0
1.698965735E0,-2.256000042E0,8.148000717E0,-2.014950037E0,8.691344863E0
1.700927865E0,-2.295000076E0,8.224950790E0,-2.053950071E0,8.782684769E0
1.702889969E0,-2.256000042E0,8.340000153E0,-2.014950037E0,8.871593002E0
1.704852088E0,-2.218050003E0,8.416950226E0,-1.939050078E0,8.917662930E0
1.706813932E0,-2.140950203E0,8.493000031E0,-1.861950040E0,8.954416522E0
1.708775857E0,-2.065050125E0,8.608050346E0,-1.747050047E0,9.023034226E0
1.710737690E0,-2.103000164E0,8.685000420E0,-1.594050050E0,9.077050046E0
1.712699550E0,-2.026050091E0,8.838000298E0,-1.516950130E0,9.193272863E0
1.714661583E0,-1.987950087E0,8.914950371E0,-1.555950046E0,9.265487910E0
1.716623558E0,-1.987950087E0,9.067950249E0,-1.632000089E0,9.425661332E0
1.718586238E0,-2.103000164E0,9.183000565E0,-1.747050047E0,9.581351310E0
1.720548712E0,-2.179949999E0,9.336000443E0,-1.939050078E0,9.781257663E0
1.722510992E0,-2.256000042E0,9.412950516E0,-2.092050076E0,9.903022121E0
1.724473329E0,-2.332950115E0,9.490050316E0,-2.169000149E0,1.001040823E1
1.726435086E0,-2.448000193E0,9.565950394E0,-2.245050192E0,1.012622152E1
1.728397016E0,-2.563050032E0,9.643050194E0,-2.245050192E0,1.022731113E1
1.730359072E0,-2.755050182E0,9.681000710E0,-2.206950188E0,1.030449928E1
1.732321091E0,-2.908050060E0,9.757950783E0,-2.130000114E0,1.040246409E1
1.734283089E0,-3.061050177E0,9.796050072E0,-1.977000117E0,1.045184934E1
1.736245093E0,-3.138000250E0,9.796050072E0,-1.747050047E0,1.043368710E1
1.738207402E0,-3.330000162E0,9.835050583E0,-1.555950046E0,1.049943339E1
1.740169625E0,-3.483000278E0,9.835050583E0,-1.402050018E0,1.052735746E1
1.742131227E0,-3.636000156E0,9.796050072E0,-1.171950102E0,1.051458802E1
1.744093011E0,-3.828000069E0,9.796050072E0,-9.810000658E-1,1.056307449E1
1.746054912E0,-3.943050146E0,9.796050072E0,-9.040500522E-1,1.059846913E1
1.748016779E0,-4.134000301E0,9.835050583E0,-8.269500136E-1,1.070056189E1
1.749978622E0,-4.288050175E0,9.873000145E0,-7.510500550E-1,1.079016137E1
1.751940473E0,-4.441050053E0,9.873000145E0,-5.970000029E-1,1.084229987E1
1.753902318E0,-4.594050407E0,9.910950661E0,-5.209500194E-1,1.093634450E1
1.755864165E0,-4.671000004E0,9.873000145E0,-4.440000355E-1,1.093121718E1
1.757826145E0,-4.708950043E0,9.873000145E0,-4.819500148E-1,1.094909212E1
1.759788086E0,-4.786050320E0,9.910950661E0,-5.209500194E-1,1.101837600E1
1.761749796E0,-4.824000359E0,9.988050461E0,-4.440000355E-1,1.110086787E1
1.763711564E0,-4.939050198E0,1.006500053E1,-5.209500194E-1,1.122362871E1
1.765673558E0,-4.863000393E0,1.014105034E1,-5.590500236E-1,1.126064881E1
1.767635485E0,-4.900950432E0,1.014105034E1,-5.590500236E-1,1.127708979E1
1.769597318E0,-4.863000393E0,1.025595093E1,-6.739500165E-1,1.137046661E1
1.771559179E0,-4.786050320E0,1.021800041E1,-8.659500480E-1,1.131652241E1
1.773521033E0,-4.747950077E0,1.018005085E1,-1.096050024E0,1.128617698E1
1.775482882E0,-4.708950043E0,1.010295010E1,-1.249050021E0,1.121623542E1
1.777444907E0,-4.633050442E0,1.002600002E1,-1.402050018E0,1.113335426E1
1.779406880E0,-4.555950165E0,9.910950661E0,-1.516950130E0,1.101293615E1
1.781369065E0,-4.479000092E0,9.796050072E0,-1.747050047E0,1.091220522E1
1.783331187E0,-4.363950253E0,9.720000267E0,-2.014950037E0,1.084354604E1
1.785293212E0,-4.402950287E0,9.643050194E0,-2.130000114E0,1.081255237E1
1.787255266E0,-4.288050175E0,9.604950905E0,-2.245050192E0,1.075558955E1
1.789217032E0,-4.210950375E0,9.565950394E0,-2.322000027E0,1.070659582E1
1.791178882E0,-4.134000301E0,9.565950394E0,-2.398950100E0,1.069356475E1
1.793140727E0,-4.134000301E0,9.604950905E0,-2.359950066E0,1.071981365E1
1.795102574E0,-4.057950020E0,9.604950905E0,-2.437050104E0,1.070799951E1
1.797064303E0,-4.096050262E0,9.720000267E0,-2.437050104E0,1.082567532E1
1.799026054E0,-4.134000301E0,9.757950783E0,-2.322000027E0,1.084892834E1
1.800988051E0,-4.134000301E0,9.835050583E0,-2.322000027E0,1.091832691E1
1.802949976E0,-4.173000336E0,9.988050461E0,-2.284050226E0,1.106309040E1
1.804911989E0,-4.288050175E0,1.010295010E1,-2.169000149E0,1.118756169E1
1.806873976E0,-4.288050175E0,1.018005085E1,-2.092050076E0,1.124266352E1
1.808835464E0,-4.363950253E0,1.033305073E1,-1.939050078E0,1.138314167E1
1.810797112E0,-4.363950253E0,1.044795036E1,-1.786050081E0,1.146270926E1
1.812759307E0,-4.402950287E0,1.060095024E1,-1.786050081E0,1.161706039E1
1.814721341E0,-4.363950253E0,1.067805004E1,-1.708950043E0,1.166127458E1
1.816683336E0,-4.402950287E0,1.083105087E1,-1.632000089E0,1.180512848E1
1.818645343E0,-4.402950287E0,1.090800095E1,-1.671000123E0,1.188119090E1
1.820607166E0,-4.441050053E0,1.098495007E1,-1.594050050E0,1.195546106E1
1.822569040E0,-4.288050175E0,1.090800095E1,-1.594050050E0,1.182847642E1
1.824530925E0,-4.249050140E0,1.102305031E1,-1.479000092E0,1.190586017E1
1.826492807E0,-4.210950375E0,1.113795090E1,-1.441050053E0,1.199427691E1
1.828454648E0,-4.173000336E0,1.129095078E1,-1.326000094E0,1.211023441E1
1.830416501E0,-4.096050262E0,1.132905006E1,-1.210950017E0,1.210749367E1
1.832378461E0,-4.018949986E0,1.140600014E1,-1.134000063E0,1.214638853E1
1.834340403E0,-3.904950142E0,1.148295021E1,-9.810000658E-1,1.216836646E1
1.836302413E0,-3.865950108E0,1.148295021E1,-9.040500522E-1,1.214993919E1
1.838264403E0,-3.712950230E0,1.144395065E1,-7.890000343E-1,1.205705300E1
1.840226405E0,-3.712950230E0,1.148295021E1,-6.360000372E-1,1.208505858E1
1.842188403E0,-3.520950079E0,1.144395065E1,-5.209500194E-1,1.198467709E1
1.844150478E0,-3.445050240E0,1.140600014E1,-3.670500219E-1,1.192056777E1
1.846112509E0,-3.330000162E0,1.140600014E1,-3.289500177E-1,1.188671310E1
1.848073919E0,-3.138000250E0,1.140600014E1,-1.369500011E-1,1.183058071E1
1.850035511E0,-3.061050177E0,1.136805058E1,2.830500007E-1,1.177636274E1
1.851997085E0,-2.985000134E0,1.132905006E1,2.449500114E-1,1.171825933E1
1.853958665E0,-2.869950056E0,1.132905006E1,5.130000114E-1,1.169816899E1
1.855921417E0,-2.716050148E0,1.129095078E1,8.200500607E-1,1.164194915E1
1.857883822E0,-2.908050060E0,1.125300026E1,3.600000143E-1,1.162825739E1
1.859844897E0,-2.563050032E0,1.125300026E1,4.360500276E-1,1.154943202E1
1.861806362E0,-2.295000076E0,1.129095078E1,1.510050058E0,1.162036342E1
1.863768408E0,-2.332950115E0,1.125300026E1,1.663050056E0,1.161199408E1
1.865730283E0,-2.332950115E0,1.132905006E1,1.510050058E0,1.166491675E1
1.867692295E0,-2.371050119E0,1.140600014E1,1.279950023E0,1.171993984E1
1.869654273E0,-2.295000076E0,1.144395065E1,1.165050030E0,1.172980705E1
1.871616143E0,-2.179949999E0,1.163595009E1,1.356000066E0,1.191579845E1
1.873578045E0,-2.103000164E0,1.182795048E1,1.510050058E0,1.210798387E1
1.875540195E0,-2.026050091E0,1.194300079E1,1.510050058E0,1.220739113E1
1.877502273E0,-2.065050125E0,1.205805016E1,1.510050058E0,1.232644542E1
1.879464097E0,-1.987950087E0,1.228800011E1,1.471050024E0,1.253438791E1
1.881426016E0,-1.873050094E0,1.244100094E1,1.510050058E0,1.267150631E1
1.883387984E0,-1.758000135E0,1.263300037E1,1.663050056E0,1.286269794E1
1.885349937E0,-1.758000135E0,1.274805069E1,1.777950048E0,1.299093789E1
1.887311585E0,-1.605000019E0,1.290105057E1,1.893000126E0,1.313760177E1
1.889273323E0,-1.489950061E0,1.301595020E1,1.930950046E0,1.324248764E1
1.891235213E0,-1.413000107E0,1.313100052E1,2.008050203E0,1.335859310E1
1.893197072E0,-1.260000110E0,1.328400040E1,2.200050116E0,1.352377489E1
1.895159051E0,-1.106999993E0,1.339905071E1,2.314950228E0,1.364254388E1
1.897120995E0,-9.529500604E-1,1.351395035E1,2.430000067E0,1.376371564E1
1.899082825E0,-7.999500632E-1,1.359105110E1,2.430000067E0,1.382973212E1
1.901044689E0,-6.079500318E-1,1.370595074E1,2.467950106E0,1.393963653E1
1.903006522E0,-4.930500090E-1,1.374405098E1,2.506050110E0,1.397935345E1
1.904968371E0,-3.019500077E-1,1.362900066E1,2.545050144E0,1.386788063E1
1.906930037E0,-2.250000089E-1,1.370595074E1,2.698050022E0,1.397079756E1
1.908891756E0,-3.299999982E-2,1.362900066E1,2.698050022E0,1.389353166E1
1.910853444E0,2.340000123E-1,1.355205059E1,2.583000183E0,1.379799700E1
1.912815141E0,4.639500082E-1,1.339905071E1,2.620950222E0,1.366086343E1
1.914777562E0,7.320000529E-1,1.324605083E1,2.506050110E0,1.350088789E1
1.916739764E0,9.619500637E-1,1.309305096E1,2.467950106E0,1.335829738E1
1.918701415E0,1.230000019E0,1.286295033E1,2.430000067E0,1.314812882E1
1.920663228E0,1.306950092E0,1.259400082E1,2.314950228E0,1.287151777E1
1.922624899E0,1.422000051E0,1.228800011E1,2.314950228E0,1.258475369E1
1.924586612E0,1.651950121E0,1.194300079E1,2.008050203E0,1.222278498E1
1.926548134E0,1.804950118E0,1.171305084E1,2.122950077E0,1.203994693E1
1.928509703E0,1.882050037E0,1.140600014E1,2.161050081E0,1.176048846E1
1.930471416E0,1.959000111E0,1.102305031E1,2.200050116E0,1.140988782E1
1.932433086E0,2.035050154E0,1.067805004E1,2.200050116E0,1.109064481E1
1.934394962E0,2.074050188E0,1.029495049E1,2.085000038E0,1.070676958E1
1.936356778E0,2.111999989E0,9.949950218E0,1.969950080E0,1.036063495E1
1.938318386E0,2.074050188E0,9.528000832E0,1.893000126E0,9.933173385E0
1.940280069E0,2.035050154E0,9.183000565E0,1.816050053E0,9.579507623E0
1.942241761E0,1.996950150E0,8.800050735E0,1.777950048E0,9.197271836E0
1.944203451E0,1.920000076E0,8.455050468E0,1.777950048E0,8.850727941E0
1.946165144E0,1.882050037E0,8.148000717E0,1.777950048E0,8.549452287E0
1.948126836E0,1.920000076E0,7.803000450E0,1.663050056E0,8.206031428E0
1.950088519E0,1.882050037E0,7.573050499E0,1.585950017E0,7.962941897E0
1.952050211E0,1.843950033E0,7.267050266E0,1.548000097E0,7.655486634E0
1.954011769E0,1.843950033E0,6.997950554E0,1.510050058E0,7.392679816E0
1.955973366E0,1.729050040E0,6.768000126E0,1.548000097E0,7.154840602E0
1.957935074E0,1.651950121E0,6.538950443E0,1.510050058E0,6.911372026E0
1.959896749E0,1.575000048E0,6.424050331E0,1.471050024E0,6.775915878E0
1.961858275E0,1.459950089E0,6.270000458E0,1.510050058E0,6.612458785E0
1.963819838E0,1.345050097E0,6.154950142E0,1.510050058E0,6.478643546E0
1.965781731E0,1.230000019E0,6.079050064E0,1.510050058E0,6.383416084E0
1.967743528E0,1.153950095E0,6.079050064E0,1.471050024E0,6.360065933E0
1.969705383E0,9.619500637E-1,6.079050064E0,1.510050058E0,6.337227216E0
1.971667221E0,7.320000529E-1,6.154950142E0,1.510050058E0,6.379614918E0
1.973628373E0,4.639500082E-1,6.154950142E0,1.471050024E0,6.345285575E0
1.975589709E0,2.340000123E-1,6.270000458E0,1.471050024E0,6.444505405E0
1.977551957E0,4.200000316E-2,6.385050297E0,1.432950020E0,6.544003137E0
1.979513938E0,-1.870500147E-1,6.499950409E0,1.432950020E0,6.658655178E0
1.981475762E0,-4.170000255E-1,6.577050209E0,1.318050027E0,6.720768881E0
1.983437632E0,-4.930500090E-1,6.691950321E0,1.395000100E0,6.853562774E0
1.985399358E0,-6.079500318E-1,6.883050442E0,1.395000100E0,7.049256124E0
1.987361113E0,-7.620000243E-1,7.036950111E0,1.432950020E0,7.221679629E0
1.989323154E0,-8.770500422E-1,7.228050232E0,1.471050024E0,7.428183836E0
1.991285111E0,-1.030050039E0,7.420050144E0,1.432950020E0,7.627023862E0
1.993247254E0,-1.183050036E0,7.573050499E0,1.432950020E0,7.797694980E0
1.995209342E0,-1.375050068E0,7.803000450E0,1.395000100E0,8.045098134E0
1.997170967E0,-1.567050099E0,7.957050323E0,1.395000100E0,8.228992717E0
1.999132728E0,-1.720050097E0,8.148000717E0,1.087950110E0,8.398340518E0
2.001094588E0,-1.911000133E0,8.377950668E0,1.240950108E0,8.682277125E0
2.003056419E0,-1.987950087E0,8.569950104E0,1.279950023E0,8.890121618E0
2.005018088E0,-2.065050125E0,8.722949982E0,1.279950023E0,9.054974349E0
2.006979805E0,-2.140950203E0,8.914950371E0,1.279950023E0,9.257336547E0
2.008941493E0,-2.103000164E0,9.106050491E0,1.165050030E0,9.418073413E0
2.010903190E0,-2.179949999E0,9.259950638E0,1.240950108E0,9.593686725E0
2.012864566E0,-2.256000042E0,9.375000000E0,1.240950108E0,9.722145769E0
2.014826036E0,-2.256000042E0,9.490050316E0,1.203000069E0,9.828417998E0
2.016787585E0,-2.410050154E0,9.604950905E0,1.165050030E0,9.970996199E0
2.018749111E0,-2.448000193E0,9.643050194E0,1.126049995E0,1.001244778E1
2.020710806E0,-2.371050119E0,9.720000267E0,1.126049995E0,1.006818119E1
2.022672438E0,-2.332950115E0,9.757950783E0,1.087950110E0,1.009177364E1
2.024633646E0,-2.295000076E0,9.835050583E0,1.165050030E0,1.016624743E1
2.026594978E0,-2.218050003E0,9.796050072E0,1.087950110E0,1.010277082E1
2.028556506E0,-2.026050091E0,9.757950783E0,1.165050030E0,1.003393363E1
2.030517976E0,-1.873050094E0,9.720000267E0,1.126049995E0,9.962665830E0
2.032479854E0,-1.758000135E0,9.681000710E0,1.165050030E0,9.908061404E0
2.034441635E0,-1.642950058E0,9.604950905E0,1.087950110E0,9.804998838E0
2.036403359E0,-1.489950061E0,9.490050316E0,1.165050030E0,9.676690951E0
2.038365099E0,-1.413000107E0,9.490050316E0,1.165050030E0,9.665141793E0
2.040326783E0,-1.297950029E0,9.298050880E0,1.203000069E0,9.464968760E0
2.042288484E0,-1.183050036E0,9.259950638E0,1.203000069E0,9.412412144E0
2.044250304E0,-9.919500351E-1,9.145050049E0,1.126049995E0,9.267356358E0
2.046212092E0,-8.380500674E-1,9.067950249E0,1.050000072E0,9.166926954E0
2.048173948E0,-7.230000496E-1,8.991000175E0,1.087950110E0,9.085397552E0
2.050135784E0,-5.700000525E-1,8.914950371E0,1.050000072E0,8.994650650E0
2.052097498E0,-4.170000255E-1,8.800050735E0,1.087950110E0,8.876847268E0
2.054059248E0,-2.250000089E-1,8.800050735E0,1.050000072E0,8.865326734E0
2.056020555E0,-1.870500147E-1,8.722949982E0,9.349500537E-1,8.774906022E0
2.057982002E0,-1.870500147E-1,8.722949982E0,8.580000401E-1,8.767041015E0
2.059943690E0,-1.480500102E-1,8.722949982E0,7.810500264E-1,8.759098945E0
2.061905308E0,-1.480500102E-1,8.685000420E0,7.810500264E-1,8.721306682E0
2.063866879E0,-7.200000435E-2,8.685000420E0,8.200500607E-1,8.723926776E0
2.065828464E0,-7.200000435E-2,8.685000420E0,8.580000401E-1,8.727575858E0
2.067790009E0,-1.480500102E-1,8.685000420E0,9.730500579E-1,8.740593659E0
2.069751556E0,-7.200000435E-2,8.647050858E0,9.730500579E-1,8.701925014E0
2.071713407E0,-1.099500060E-1,8.722949982E0,1.011000037E0,8.782030885E0
2.073675169E0,-1.480500102E-1,8.685000420E0,9.349500537E-1,8.736434210E0
2.075636715E0,-1.870500147E-1,8.685000420E0,8.959500194E-1,8.733094894E0
2.077598325E0,-1.870500147E-1,8.722949982E0,9.349500537E-1,8.774906022E0
2.079560018E0,-1.870500147E-1,8.685000420E0,1.050000072E0,8.750241148E0
2.081521664E0,-1.870500147E-1,8.647050858E0,1.126049995E0,8.722067693E0
2.083483544E0,-2.250000089E-1,8.685000420E0,1.203000069E0,8.770807629E0
2.085445356E0,-2.250000089E-1,8.722949982E0,1.318050027E0,8.824836387E0
2.087407253E0,-3.019500077E-1,8.647050858E0,1.395000100E0,8.764056573E0
2.089369125E0,-3.780000210E-1,8.685000420E0,1.432950020E0,8.810531316E0
2.091330959E0,-4.170000255E-1,8.685000420E0,1.471050024E0,8.818566181E0
2.093292810E0,-4.549500346E-1,8.647050858E0,1.471050024E0,8.783077834E0
2.095254656E0,-4.170000255E-1,8.685000420E0,1.471050024E0,8.818566181E0
2.097216503E0,-4.930500090E-1,8.722949982E0,1.471050024E0,8.859850048E0
2.099177988E0,-5.320500135E-1,8.722949982E0,1.471050024E0,8.862105945E0
2.101139580E0,-6.469500065E-1,8.647050858E0,1.471050024E0,8.795113474E0
2.103101444E0,-7.230000496E-1,8.761950493E0,1.548000097E0,8.926970920E0
2.105063246E0,-6.079500318E-1,8.838000298E0,1.510050058E0,8.986662544E0
2.107024740E0,-6.469500065E-1,8.838000298E0,1.510050058E0,8.989385115E0
2.108986325E0,-6.469500065E-1,8.838000298E0,1.510050058E0,8.989385115E0
2.110948170E0,-6.469500065E-1,8.877000809E0,1.548000097E0,9.034156960E0
2.112909938E0,-7.230000496E-1,8.877000809E0,1.510050058E0,9.033500075E0
2.114871654E0,-7.230000496E-1,8.953050613E0,1.548000097E0,9.114611822E0
2.116833392E0,-7.620000243E-1,8.953050613E0,1.663050056E0,9.138024667E0
2.118794851E0,-7.620000243E-1,9.030000687E0,1.740000129E0,9.227630080E0
2.120756392E0,-7.620000243E-1,9.106050491E0,1.740000129E0,9.302064289E0
2.122717930E0,-7.230000496E-1,9.106050491E0,1.740000129E0,9.298950751E0
2.124679469E0,-7.230000496E-1,9.183000565E0,1.855050087E0,9.396352445E0
2.126641236E0,-6.850500107E-1,9.220950127E0,1.893000126E0,9.438149407E0
2.128602933E0,-7.230000496E-1,9.259950638E0,1.893000126E0,9.479075080E0
2.130564581E0,-7.230000496E-1,9.298050880E0,1.855050087E0,9.508821697E0
2.132526243E0,-6.850500107E-1,9.298050880E0,1.855050087E0,9.506011494E0
2.134487805E0,-6.850500107E-1,9.298050880E0,1.816050053E0,9.498477851E0
2.136449397E0,-6.850500107E-1,9.412950516E0,1.816050053E0,9.610981673E0
2.138410916E0,-6.079500318E-1,9.412950516E0,1.893000126E0,9.620638759E0
2.140372464E0,-6.469500065E-1,9.528000832E0,1.816050053E0,9.721079259E0
2.142334001E0,-5.700000525E-1,9.528000832E0,1.855050087E0,9.723626419E0
2.144295541E0,-6.079500318E-1,9.528000832E0,1.777950048E0,9.711514272E0
2.146257438E0,-5.320500135E-1,9.528000832E0,1.740000129E0,9.700179252E0
2.148219231E0,-4.930500090E-1,9.565950394E0,1.624950051E0,9.715501424E0
2.150181067E0,-5.700000525E-1,9.451050758E0,1.624950051E0,9.606649945E0
2.152142904E0,-6.079500318E-1,9.528000832E0,1.548000097E0,9.672058074E0
2.154104573E0,-4.170000255E-1,9.528000832E0,1.510050058E0,9.655927716E0
2.156066291E0,-4.170000255E-1,9.565950394E0,1.585950017E0,9.705489859E0
2.158028113E0,-4.170000255E-1,9.604950905E0,1.510050058E0,9.731866321E0
2.159989904E0,-3.780000210E-1,9.565950394E0,1.510050058E0,9.691777037E0
2.161951425E0,-3.780000210E-1,9.604950905E0,1.510050058E0,9.730273227E0
2.163913040E0,-3.780000210E-1,9.565950394E0,1.471050024E0,9.685777156E0
2.165875240E0,-3.400500119E-1,9.565950394E0,1.471050024E0,9.684370352E0
2.167837269E0,-3.400500119E-1,9.604950905E0,1.471050024E0,9.722895868E0
2.169798905E0,-3.400500119E-1,9.604950905E0,1.471050024E0,9.722895868E0
2.171760656E0,-3.400500119E-1,9.565950394E0,1.432950020E0,9.678656245E0
2.173722533E0,-2.629500031E-1,9.490050316E0,1.432950020E0,9.601226144E0
2.175684394E0,-2.250000089E-1,9.490050316E0,1.395000100E0,9.594670671E0
2.177646239E0,-3.019500077E-1,9.375000000E0,1.203000069E0,9.456691175E0
2.179608088E0,-2.250000089E-1,9.259950638E0,1.279950023E0,9.350699593E0
2.181569934E0,-2.250000089E-1,9.220950127E0,1.203000069E0,9.301814630E0
2.183531781E0,-3.019500077E-1,9.183000565E0,1.240950108E0,9.271387725E0
2.185493415E0,-3.019500077E-1,9.145050049E0,1.240950108E0,9.233800484E0
2.187455102E0,-3.780000210E-1,9.145050049E0,1.240950108E0,9.236600109E0
2.189416975E0,-5.320500135E-1,9.145050049E0,1.240950108E0,9.244185999E0
2.191378793E0,-6.469500065E-1,9.183000565E0,1.126049995E0,9.274375034E0
2.193340824E0,-7.230000496E-1,9.220950127E0,8.200500607E-1,9.285533502E0
2.195302793E0,-7.230000496E-1,9.220950127E0,9.730500579E-1,9.300294443E0
2.197264813E0,-7.999500632E-1,9.220950127E0,1.126049995E0,9.323831291E0
2.199226808E0,-8.770500422E-1,9.145050049E0,1.087950110E0,9.251204928E0
2.201188494E0,-9.529500604E-1,9.183000565E0,1.011000037E0,9.287504200E0
2.203150271E0,-9.529500604E-1,9.145050049E0,8.200500607E-1,9.231063661E0
2.205112308E0,-1.030050039E0,9.145050049E0,7.429500222E-1,9.232817458E0
2.207074269E0,-1.183050036E0,9.067950249E0,6.280500293E-1,9.166339288E0
2.209036096E0,-1.222050071E0,9.067950249E0,5.899500251E-1,9.168924098E0
2.210997963E0,-1.336950064E0,9.106050491E0,5.130000114E-1,9.217958561E0
2.212960165E0,-1.413000107E0,9.067950249E0,5.130000114E-1,9.191706045E0
2.214922269E0,-1.528050065E0,9.067950249E0,5.130000114E-1,9.210093796E0
2.216884387E0,-1.605000019E0,9.067950249E0,5.509500504E-1,9.225361388E0
2.218846500E0,-1.642950058E0,8.914950371E0,4.360500276E-1,9.075558640E0
2.220808384E0,-1.720050097E0,8.953050613E0,4.360500276E-1,9.127202597E0
2.222770309E0,-1.758000135E0,8.838000298E0,4.360500276E-1,9.021693486E0
2.224732097E0,-1.642950058E0,8.761950493E0,3.600000143E-1,8.921920272E0
2.226693925E0,-1.834950089E0,8.685000420E0,3.600000143E-1,8.884023533E0
2.228656178E0,-1.911000133E0,8.569950104E0,3.220500052E-1,8.786334986E0
2.230618307E0,-1.987950087E0,8.493000031E0,3.220500052E-1,8.728499944E0
2.232581016E0,-1.987950087E0,8.455050468E0,2.449500114E-1,8.689063498E0
2.234543548E0,-2.026050091E0,8.377950668E0,2.449500114E-1,8.622930875E0
2.236505098E0,-2.065050125E0,8.416950226E0,2.070000172E-1,8.669044476E0
2.238466935E0,-2.140950203E0,8.340000153E0,1.300500035E-1,8.611398453E0
2.240428781E0,-2.218050003E0,8.340000153E0,2.449500114E-1,8.633385713E0
2.242390625E0,-2.218050003E0,8.224950790E0,2.830500007E-1,8.523478083E0
2.244352476E0,-2.332950115E0,8.148000717E0,3.220500052E-1,8.481526286E0
2.246314322E0,-2.448000193E0,8.148000717E0,2.830500007E-1,8.512504798E0
2.248275944E0,-2.448000193E0,8.148000717E0,2.830500007E-1,8.512504798E0
2.250237632E0,-2.371050119E0,8.148000717E0,2.449500114E-1,8.489510873E0
2.252199190E0,-2.371050119E0,8.187000275E0,2.070000172E-1,8.525942832E0
2.254160786E0,-2.448000193E0,8.071949959E0,2.449500114E-1,8.438547362E0
2.256122633E0,-2.448000193E0,8.110050201E0,3.220500052E-1,8.477578394E0
2.258084403E0,-2.485950232E0,8.187000275E0,2.830500007E-1,8.560784973E0
2.260045948E0,-2.485950232E0,8.187000275E0,2.830500007E-1,8.560784973E0
2.262007559E0,-2.485950232E0,8.148000717E0,2.830500007E-1,8.523495852E0
2.263969264E0,-2.485950232E0,8.224950790E0,2.830500007E-1,8.597085632E0
2.265930942E0,-2.485950232E0,8.263050079E0,2.449500114E-1,8.632377753E0
2.267892627E0,-2.524950027E0,8.302050591E0,1.680000126E-1,8.679149766E0
2.269854317E0,-2.563050032E0,8.302050591E0,2.070000172E-1,8.691151735E0
2.271816325E0,-2.524950027E0,8.377950668E0,2.449500114E-1,8.753595293E0
2.273778240E0,-2.524950027E0,8.416950226E0,2.070000172E-1,8.789952944E0
2.275739174E0,-2.485950232E0,8.532000542E0,2.830500007E-1,8.891293444E0
2.277700396E0,-2.485950232E0,8.569950104E0,3.600000143E-1,8.930486736E0
2.279662037E0,-2.448000193E0,8.608050346E0,3.600000143E-1,8.956608494E0
2.281623552E0,-2.371050119E0,8.722949982E0,4.750500321E-1,9.051928390E0
2.283585455E0,-2.332950115E0,8.722949982E0,5.130000114E-1,9.044096507E0
2.285547244E0,-2.218050003E0,8.761950493E0,4.750500321E-1,9.050811830E0
2.287509280E0,-2.140950203E0,8.800050735E0,6.280500293E-1,9.078491480E0
2.289471244E0,-2.103000164E0,8.877000809E0,6.280500293E-1,9.144298764E0
2.291433396E0,-2.026050091E0,8.914950371E0,6.660000086E-1,9.166502883E0
2.293395485E0,-1.950000048E0,8.914950371E0,7.810500264E-1,9.159087260E0
2.295357335E0,-1.873050094E0,8.991000175E0,8.959500194E-1,9.227628474E0
2.297319256E0,-1.834950089E0,9.030000687E0,1.050000072E0,9.274182141E0
2.299281268E0,-1.795950055E0,9.067950249E0,1.087950110E0,9.307888792E0
2.301243254E0,-1.758000135E0,9.106050491E0,1.126049995E0,9.342307457E0
2.303205451E0,-1.720050097E0,9.106050491E0,1.203000069E0,9.344834779E0
2.305167576E0,-1.605000019E0,9.145050049E0,1.240950108E0,9.367386115E0
2.307129691E0,-1.567050099E0,9.145050049E0,1.279950023E0,9.366208329E0
2.309091809E0,-1.681950092E0,9.183000565E0,1.318050027E0,9.428346162E0
2.311053653E0,-1.642950058E0,9.259950638E0,1.395000100E0,9.507470536E0
2.313015578E0,-1.642950058E0,9.220950127E0,1.432950020E0,9.475154452E0
2.314977600E0,-1.642950058E0,9.259950638E0,1.471050024E0,9.518926351E0
2.316939586E0,-1.642950058E0,9.298050880E0,1.471050024E0,9.555994100E0
2.318901184E0,-1.642950058E0,9.336000443E0,1.471050024E0,9.592923294E0
2.320862896E0,-1.642950058E0,9.336000443E0,1.471050024E0,9.592923294E0
2.322824944E0,-1.605000019E0,9.375000000E0,1.471050024E0,9.624481193E0
2.324786894E0,-1.642950058E0,9.375000000E0,1.510050058E0,9.636916575E0
2.326748778E0,-1.605000019E0,9.375000000E0,1.471050024E0,9.624481193E0
2.328710675E0,-1.642950058E0,9.451050758E0,1.471050024E0,9.704928310E0
2.330672646E0,-1.605000019E0,9.528000832E0,1.471050024E0,9.773577292E0
2.332634596E0,-1.528050065E0,9.604950905E0,1.471050024E0,9.836361475E0
2.334596605E0,-1.567050099E0,9.604950905E0,1.471050024E0,9.842495419E0
2.336558596E0,-1.528050065E0,9.681000710E0,1.471050024E0,9.910635697E0
2.338520297E0,-1.489950061E0,9.757950783E0,1.471050024E0,9.980057256E0
2.340482074E0,-1.413000107E0,9.796050072E0,1.471050024E0,1.000615583E1
2.342443751E0,-1.297950029E0,9.835050583E0,1.395000100E0,1.001792990E1
2.344405458E0,-1.297950029E0,9.949950218E0,1.395000100E0,1.013075559E1
2.346366922E0,-1.260000110E0,9.949950218E0,1.356000066E0,1.012066430E1
2.348328458E0,-1.336950064E0,9.988050461E0,1.356000066E0,1.016795573E1
2.350290056E0,-1.260000110E0,1.010295010E1,1.432950020E0,1.028156344E1
2.352251625E0,-1.297950029E0,1.014105034E1,1.395000100E0,1.031850772E1
2.354213339E0,-1.260000110E0,1.018005085E1,1.395000100E0,1.035215247E1
2.356175010E0,-1.260000110E0,1.021800041E1,1.395000100E0,1.038947342E1
2.358136886E0,-1.297950029E0,1.025595093E1,1.318050027E0,1.042144230E1
2.360098702E0,-1.297950029E0,1.021800041E1,1.240950108E0,1.037459223E1
2.362060569E0,-1.260000110E0,1.029495049E1,1.203000069E0,1.044130332E1
2.364022410E0,-1.336950064E0,1.029495049E1,1.126049995E0,1.044229044E1
2.365984257E0,-1.336950064E0,1.033305073E1,1.087950110E0,1.047582972E1
2.367946102E0,-1.375050068E0,1.033305073E1,1.011000037E0,1.047305214E1
2.369907948E0,-1.489950061E0,1.037100029E1,8.959500194E-1,1.051571798E1
2.371869794E0,-1.567050099E0,1.041000080E1,8.580000401E-1,1.056219327E1
2.373831396E0,-1.681950092E0,1.037100029E1,8.200500607E-1,1.053845744E1
2.375793084E0,-1.834950089E0,1.037100029E1,8.200500607E-1,1.056395622E1
2.377755001E0,-1.950000048E0,1.044795036E1,8.200500607E-1,1.065995540E1
2.379716851E0,-2.026050091E0,1.041000080E1,7.050000429E-1,1.062873561E1
2.381678832E0,-2.140950203E0,1.048605061E1,5.509500504E-1,1.071655127E1
2.383640774E0,-2.140950203E0,1.048605061E1,4.750500321E-1,1.071291732E1
2.385602646E0,-2.256000042E0,1.056300068E1,3.979500234E-1,1.080855604E1
2.387564541E0,-2.371050119E0,1.052505016E1,3.600000143E-1,1.079482096E1
2.389527054E0,-2.485950232E0,1.056300068E1,2.830500007E-1,1.085527748E1
2.391489386E0,-2.677950144E0,1.056300068E1,2.830500007E-1,1.090084940E1
2.393450969E0,-2.830950022E0,1.052505016E1,1.680000126E-1,1.090042123E1
2.395412772E0,-2.985000134E0,1.048605061E1,5.295000225E-2,1.090276510E1
2.397374310E0,-3.100050211E0,1.052505016E1,1.500000060E-2,1.097211088E1
2.399335926E0,-3.138000250E0,1.052505016E1,-6.105000153E-2,1.098305302E1
2.401297991E0,-3.214950085E0,1.048605061E1,-9.900000691E-2,1.096827071E1
2.403259924E0,-3.367950201E0,1.044795036E1,-1.759500057E-1,1.097878471E1
2.405221890E0,-3.406050205E0,1.044795036E1,-2.520000041E-1,1.099201295E1
2.407183847E0,-3.483000278E0,1.041000080E1,-2.910000086E-1,1.098107866E1
2.409145734E0,-3.559950113E0,1.037100029E1,-3.670500219E-1,1.097112654E1
2.411107632E0,-3.520950079E0,1.033305073E1,-4.060500264E-1,1.092400583E1
2.413069603E0,-3.559950113E0,1.025595093E1,-4.060500264E-1,1.086382303E1
2.415031553E0,-3.520950079E0,1.029495049E1,-4.819500148E-1,1.089106839E1
2.416993562E0,-3.483000278E0,1.033305073E1,-5.209500194E-1,1.091671275E1
2.418955553E0,-3.406050205E0,1.029495049E1,-5.970000029E-1,1.086018382E1
2.420917352E0,-3.330000162E0,1.033305073E1,-5.209500194E-1,1.086886504E1
2.422879224E0,-3.214950085E0,1.037100029E1,-5.590500236E-1,1.087226232E1
2.424841110E0,-3.100050211E0,1.041000080E1,-4.819500148E-1,1.087247459E1
2.426802991E0,-3.022950172E0,1.044795036E1,-5.209500194E-1,1.088895236E1
2.428765012E0,-2.869950056E0,1.052505016E1,-4.819500148E-1,1.091996200E1
2.430726991E0,-2.793000221E0,1.052505016E1,-4.819500148E-1,1.089999115E1
2.432688585E0,-2.677950144E0,1.052505016E1,-4.060500264E-1,1.086797932E1
2.434650296E0,-2.601000071E0,1.060095024E1,-3.670500219E-1,1.092154170E1
2.436611985E0,-2.485950232E0,1.071600056E1,-2.910000086E-1,1.100442172E1
2.438573680E0,-2.332950115E0,1.067805004E1,-3.289500177E-1,1.093488075E1
2.440535597E0,-2.256000042E0,1.075500011E1,-2.140500098E-1,1.099115012E1
2.442497448E0,-2.179949999E0,1.083105087E1,-9.900000691E-2,1.104869431E1
2.444459249E0,-2.103000164E0,1.087005043E1,-9.900000691E-2,1.107205523E1
2.446421065E0,-2.065050125E0,1.094595051E1,9.195000678E-2,1.113942186E1
2.448382781E0,-2.026050091E0,1.102305031E1,1.300500035E-1,1.120845351E1
2.450344527E0,-2.065050125E0,1.106100082E1,1.680000126E-1,1.125337262E1
2.452305624E0,-1.950000048E0,1.113795090E1,3.220500052E-1,1.131194796E1
2.454266911E0,-1.950000048E0,1.121400070E1,5.509500504E-1,1.139560696E1
2.456228857E0,-1.987950087E0,1.129095078E1,6.660000086E-1,1.148394840E1
2.458190607E0,-1.987950087E0,1.132905006E1,6.660000086E-1,1.152140950E1
2.460152155E0,-1.987950087E0,1.140600014E1,7.810500264E-1,1.160425887E1
2.462113762E0,-2.065050125E0,1.144395065E1,8.959500194E-1,1.166323990E1
2.464075828E0,-2.103000164E0,1.148295021E1,1.011000037E0,1.171763100E1
2.466037760E0,-2.140950203E0,1.152105045E1,1.087950110E0,1.176868331E1
2.467999952E0,-2.218050003E0,1.152105045E1,1.165050030E0,1.179032192E1
2.469962068E0,-2.295000076E0,1.155900097E1,1.318050027E0,1.185811050E1
2.471924184E0,-2.295000076E0,1.155900097E1,1.395000100E0,1.186691005E1
2.473886300E0,-2.410050154E0,1.159800053E1,1.471050024E0,1.193674772E1
2.475848100E0,-2.448000193E0,1.159800053E1,1.548000097E0,1.195418862E1
2.477809993E0,-2.524950027E0,1.155900097E1,1.740000129E0,1.195882421E1
2.479771881E0,-2.601000071E0,1.148295021E1,2.008050203E0,1.194385250E1
2.481733767E0,-2.677950144E0,1.140600014E1,2.238000154E0,1.192798813E1
2.483695741E0,-2.716050148E0,1.132905006E1,2.314950228E0,1.187784906E1
2.485657689E0,-2.793000221E0,1.121400070E1,2.314950228E0,1.178616378E1
2.487619338E0,-2.830950022E0,1.110000038E1,2.391000032E0,1.170218645E1
2.489581075E0,-2.869950056E0,1.102305031E1,2.506050110E0,1.166295582E1
2.491543119E0,-2.830950022E0,1.087005043E1,2.659050226E0,1.154308548E1
2.493505073E0,-2.793000221E0,1.079295063E1,2.812950134E0,1.149788337E1
2.495466947E0,-2.755050182E0,1.075500011E1,2.965950251E0,1.149161389E1
2.497428844E0,-2.677950144E0,1.067805004E1,3.081000090E0,1.143174226E1
2.499390861E0,-2.524950027E0,1.060095024E1,3.196050167E0,1.135650718E1
2.501352842E0,-2.485950232E0,1.048605061E1,3.310950041E0,1.127384566E1
2.503315030E0,-2.332950115E0,1.041000080E1,3.426000118E0,1.120483154E1
2.505277154E0,-2.218050003E0,1.033305073E1,3.579000235E0,1.115799829E1
2.507239134E0,-2.103000164E0,1.018005085E1,3.771000147E0,1.105786992E1
2.509201156E0,-2.026050091E0,1.018005085E1,3.808950186E0,1.105651011E1
2.511163152E0,-1.950000048E0,1.010295010E1,3.963000298E0,1.102621749E1
2.513125156E0,-1.873050094E0,9.988050461E0,4.039050102E0,1.093541926E1
2.515087155E0,-1.834950089E0,9.873000145E0,4.078050137E0,1.083852696E1
2.517049156E0,-1.720050097E0,9.720000267E0,4.116000175E0,1.069478541E1
2.519011156E0,-1.642950058E0,9.681000710E0,4.116000175E0,1.064718353E1
2.520973156E0,-1.528050065E0,9.528000832E0,4.078050137E0,1.047607893E1
2.522934796E0,-1.336950064E0,9.451050758E0,4.116000175E0,1.039477048E1
2.524896541E0,-1.144950032E0,9.298050880E0,4.039050102E0,1.020189132E1
2.526858515E0,-1.068000078E0,9.145050049E0,4.078050137E0,1.006990851E1
2.528820438E0,-8.770500422E-1,9.067950249E0,4.153950214E0,1.001260410E1
2.530782317E0,-6.850500107E-1,8.914950371E0,4.269000053E0,9.908077265E0
2.532744209E0,-5.320500135E-1,8.838000298E0,4.345950127E0,9.863093276E0
2.534706047E0,-3.019500077E-1,8.685000420E0,4.345950127E0,9.716361901E0
2.536667901E0,-2.250000089E-1,8.569950104E0,4.345950127E0,9.611553063E0
2.538629761E0,-1.870500147E-1,8.569950104E0,4.308000088E0,9.593638374E0
2.540591609E0,8.100000024E-2,8.455050468E0,4.345950127E0,9.506930205E0
2.542553274E0,3.490500152E-1,8.377950668E0,4.269000053E0,9.409370583E0
2.544514993E0,2.340000123E-1,8.302050591E0,4.192950249E0,9.303742892E0
2.546477897E0,5.020500422E-1,8.224950790E0,4.153950214E0,9.228064376E0
2.548440453E0,9.240000248E-1,8.071949959E0,4.231050014E0,9.160345867E0
2.550401863E0,9.619500637E-1,8.032950401E0,4.078050137E0,9.060029414E0
2.552363609E0,1.114950061E0,7.995000362E0,4.078050137E0,9.043983489E0
2.554325471E0,1.306950092E0,7.879950523E0,4.116000175E0,8.985721798E0
2.556287299E0,1.422000051E0,7.803000450E0,3.963000298E0,8.866468944E0
2.558249148E0,1.804950118E0,7.687950134E0,3.924000263E0,8.818174429E0
2.560210991E0,1.920000076E0,7.573050499E0,3.733050108E0,8.658704133E0
2.562172633E0,2.227050066E0,7.420050144E0,3.579000235E0,8.533823224E0
2.564134320E0,2.494950056E0,7.342950344E0,3.502950191E0,8.509662483E0
2.566096418E0,2.457000017E0,7.381950378E0,3.349050045E0,8.470311486E0
2.568058395E0,2.764050245E0,7.342950344E0,3.196050167E0,8.471931904E0
2.570020220E0,2.917050123E0,7.420050144E0,3.157950163E0,8.575486855E0
2.571982089E0,2.917050123E0,7.573050499E0,3.043050051E0,8.667204214E0
2.573943900E0,3.031950235E0,7.726950169E0,2.889000177E0,8.788902273E0
2.575905719E0,2.992950201E0,7.957050323E0,2.736000061E0,8.930738888E0
2.577867254E0,3.184950113E0,8.148000717E0,2.506050110E0,9.100225825E0
2.579828873E0,3.108000040E0,8.340000153E0,2.275950193E0,9.186686893E0
2.581790757E0,3.147000074E0,8.608050346E0,2.008050203E0,9.382665179E0
2.583752563E0,3.070050240E0,8.877000809E0,1.855050087E0,9.574317869E0
2.585714352E0,2.917050123E0,9.106050491E0,1.777950048E0,9.725761839E0
2.587676159E0,2.839950085E0,9.259950638E0,1.585950017E0,9.814644148E0
2.589637878E0,2.649000168E0,9.030000687E0,1.165050030E0,9.482376066E0
2.591599623E0,2.494950056E0,9.375000000E0,1.240950108E0,9.780355717E0
2.593561485E0,2.457000017E0,9.604950905E0,1.510050058E0,1.002856830E1
2.595523313E0,2.419050217E0,9.757950783E0,1.816050053E0,1.021603863E1
2.597485263E0,2.341950178E0,9.873000145E0,2.008050203E0,1.034374826E1
2.599447202E0,2.227050066E0,1.006500053E1,2.122950077E0,1.052477576E1
2.601409034E0,2.035050154E0,1.021800041E1,2.314950228E0,1.067276703E1
2.603370897E0,1.920000076E0,1.033305073E1,2.314950228E0,1.076184613E1
2.605332740E0,1.690050125E0,1.052505016E1,2.353049994E0,1.091649186E1
2.607294589E0,1.575000048E0,1.067805004E1,2.314950228E0,1.103903856E1
2.609256634E0,1.422000051E0,1.083105087E1,2.275950193E0,1.115857054E1
2.611218607E0,1.269000053E0,1.098495007E1,2.161050081E0,1.126719249E1
2.613180612E0,1.192050099E0,1.110000038E1,2.122950077E0,1.136388617E1
2.615142607E0,1.039050102E0,1.125300026E1,2.046000004E0,1.148458776E1
2.617104653E0,8.850000501E-1,1.136805058E1,2.008050203E0,1.157791279E1
2.619066684E0,7.320000529E-1,1.155900097E1,1.930950046E0,1.174201412E1
2.621027914E0,5.410500169E-1,1.171305084E1,1.816050053E0,1.186534167E1
2.622989378E0,3.490500152E-1,1.186605072E1,1.585950017E0,1.197665367E1
2.624951694E0,1.570500135E-1,1.201905060E1,1.510050058E0,1.211455708E1
2.626913761E0,-7.200000435E-2,1.221105099E1,1.471050024E0,1.229955033E1
2.628875751E0,-2.629500031E-1,1.240305042E1,1.432950020E0,1.248832047E1
2.630837763E0,-4.170000255E-1,1.259400082E1,1.318050027E0,1.266964883E1
2.632799756E0,-6.079500318E-1,1.274805069E1,1.050000072E0,1.280565890E1
2.634761758E0,-7.230000496E-1,1.286295033E1,9.349500537E-1,1.291713404E1
2.636723712E0,-9.919500351E-1,1.301595020E1,8.200500607E-1,1.307942685E1
2.638685681E0,-1.297950029E0,1.305405045E1,7.810500264E-1,1.314164931E1
2.640647506E0,-1.605000019E0,1.316895103E1,7.429500222E-1,1.328718447E1
2.642609373E0,-1.834950089E0,1.316895103E1,6.660000086E-1,1.331284602E1
2.644571430E0,-1.911000133E0,1.309305096E1,6.660000086E-1,1.324852674E1
2.646533438E0,-2.026050091E0,1.297800064E1,6.280500293E-1,1.315020252E1
2.648495257E0,-2.140950203E0,1.282395077E1,4.360500276E-1,1.300874785E1
2.650457132E0,-2.295000076E0,1.259400082E1,4.360500276E-1,1.280882592E1
2.652418928E0,-2.410050154E0,1.232595062E1,4.360500276E-1,1.256692246E1
2.654380748E0,-2.601000071E0,1.190400028E1,4.360500276E-1,1.219264384E1
2.656342262E0,-2.716050148E0,1.163595009E1,4.750500321E-1,1.195817442E1
2.658303849E0,-2.793000221E0,1.125300026E1,5.130000114E-1,1.160577589E1
2.660265558E0,-2.869950056E0,1.098495007E1,5.130000114E-1,1.136525012E1
2.662227231E0,-2.985000134E0,1.075500011E1,5.130000114E-1,1.117333532E1
2.664188748E0,-3.061050177E0,1.052505016E1,4.360500276E-1,1.096981535E1
2.666150310E0,-3.138000250E0,1.041000080E1,3.979500234E-1,1.087995986E1
2.668112189E0,-3.253050089E0,1.037100029E1,3.979500234E-1,1.087650432E1
2.670073986E0,-3.330000162E0,1.025595093E1,4.360500276E-1,1.079182886E1
2.672035526E0,-3.445050240E0,1.021800041E1,5.130000114E-1,1.079532642E1
2.673997141E0,-3.520950079E0,1.018005085E1,5.130000114E-1,1.078395539E1
2.675959161E0,-3.520950079E0,1.014105034E1,5.899500251E-1,1.075109448E1
2.677921063E0,-3.520950079E0,1.002600002E1,5.509500504E-1,1.064055036E1
2.679882721E0,-3.675000191E0,1.006500053E1,5.509500504E-1,1.072909167E1
2.681844450E0,-3.598050117E0,9.910950661E0,5.130000114E-1,1.055632875E1
2.683806495E0,-3.636000156E0,9.796050072E0,5.509500504E-1,1.046358639E1
2.685768448E0,-3.559950113E0,9.681000710E0,3.979500234E-1,1.032246985E1
2.687730142E0,-3.559950113E0,9.643050194E0,3.220500052E-1,1.028422958E1
2.689691912E0,-3.483000278E0,9.604950905E0,3.600000143E-1,1.022330538E1
2.691653895E0,-3.406050205E0,9.451050758E0,3.600000143E-1,1.005251901E1
2.693615823E0,-3.291000128E0,9.412950516E0,3.220500052E-1,9.976875035E0
2.695578196E0,-3.291000128E0,9.451050758E0,2.449500114E-1,1.001064647E1
2.697540438E0,-3.253050089E0,9.336000443E0,1.680000126E-1,9.887945345E0
2.699502262E0,-3.598050117E0,8.991000175E0,-1.134000063E0,9.750384861E0
2.701464209E0,-2.869950056E0,8.991000175E0,-8.269500136E-1,9.474098575E0
2.703425137E0,-2.793000221E0,9.030000687E0,9.195000678E-2,9.452524395E0
2.705386363E0,-2.830950022E0,9.067950249E0,4.360500276E-1,9.509581451E0
2.707348089E0,-2.716050148E0,9.145050049E0,5.130000114E-1,9.553640030E0
2.709309669E0,-2.563050032E0,9.145050049E0,5.899500251E-1,9.515734701E0
2.711272282E0,-2.485950232E0,9.220950127E0,6.280500293E-1,9.570805433E0
2.713234592E0,-2.410050154E0,9.220950127E0,2.449500114E-1,9.533848304E0
2.715196594E0,-2.332950115E0,9.220950127E0,-2.205000073E-2,9.511522679E0
2.717158680E0,-2.218050003E0,9.259950638E0,-9.900000691E-2,9.522406872E0
2.719120485E0,-2.140950203E0,9.259950638E0,-1.759500057E-1,9.505856721E0
2.721082372E0,-2.065050125E0,9.336000443E0,-1.369500011E-1,9.562640409E0
2.723044211E0,-1.987950087E0,9.298050880E0,-2.140500098E-1,9.510600040E0
2.725006065E0,-1.911000133E0,9.298050880E0,-3.289500177E-1,9.498098746E0
2.726967876E0,-1.834950089E0,9.298050880E0,-4.060500264E-1,9.486077621E0
2.728929723E0,-1.681950092E0,9.336000443E0,-3.670500219E-1,9.493396973E0
2.730891748E0,-1.567050099E0,9.259950638E0,-4.060500264E-1,9.400383421E0
2.732853721E0,-1.489950061E0,9.259950638E0,-4.060500264E-1,9.387838602E0
2.734815546E0,-1.413000107E0,9.298050880E0,-1.759500057E-1,9.406448739E0
2.736777415E0,-1.413000107E0,9.183000565E0,-3.670500219E-1,9.298322128E0
2.738739077E0,-1.297950029E0,9.106050491E0,-5.970000029E-1,9.217442098E0
2.740700800E0,-1.297950029E0,9.106050491E0,-5.590500236E-1,9.215061951E0
2.742662487E0,-1.222050071E0,9.067950249E0,-5.590500236E-1,9.166987783E0
2.744624185E0,-1.144950032E0,8.991000175E0,-4.819500148E-1,9.076412868E0
2.746585876E0,-1.106999993E0,8.877000809E0,-4.060500264E-1,8.954968954E0
2.748547569E0,-1.106999993E0,8.800050735E0,-5.590500236E-1,8.887006181E0
2.750509381E0,-1.068000078E0,8.685000420E0,-6.360000372E-1,8.773502864E0
2.752471168E0,-1.068000078E0,8.608050346E0,-6.360000372E-1,8.697335855E0
2.754432890E0,-1.030050039E0,8.569950104E0,-4.060500264E-1,8.641176106E0
2.756394631E0,-1.068000078E0,8.569950104E0,-4.819500148E-1,8.649678882E0
2.758356629E0,-1.106999993E0,8.532000542E0,-4.440000355E-1,8.614964786E0
2.760318552E0,-1.068000078E0,8.493000031E0,-4.440000355E-1,8.571394852E0
2.762280382E0,-1.144950032E0,8.493000031E0,-5.970000029E-1,8.590597715E0
2.764242243E0,-1.144950032E0,8.416950226E0,-5.590500236E-1,8.512843157E0
2.766203725E0,-1.144950032E0,8.455050468E0,-5.590500236E-1,8.550516121E0
2.768165319E0,-1.106999993E0,8.493000031E0,-4.819500148E-1,8.578389961E0
2.770127027E0,-1.144950032E0,8.416950226E0,-5.590500236E-1,8.512843157E0
2.772088702E0,-1.222050071E0,8.377950668E0,-6.739500165E-1,8.493389924E0
2.774050282E0,-1.144950032E0,8.302050591E0,-4.440000355E-1,8.392382893E0
2.776011877E0,-1.260000110E0,8.263050079E0,-6.739500165E-1,8.385690521E0
2.777973540E0,-1.336950064E0,8.187000275E0,-8.269500136E-1,8.336561359E0
2.779935183E0,-1.413000107E0,8.071949959E0,-8.659500480E-1,8.240316434E0
2.781896750E0,-1.413000107E0,8.071949959E0,-8.269500136E-1,8.236309353E0
2.783858339E0,-1.489950061E0,8.032950401E0,-9.040500522E-1,8.219826630E0
2.785819901E0,-1.452000022E0,7.995000362E0,-7.510500550E-1,8.160417333E0
2.787781448E0,-1.489950061E0,7.957050323E0,-7.120500207E-1,8.126599305E0
2.789743345E0,-1.528050065E0,7.879950523E0,-5.970000029E-1,8.048910874E0
2.791705139E0,-1.489950061E0,7.957050323E0,-4.819500148E-1,8.109677975E0
2.793666769E0,-1.681950092E0,7.765050411E0,-4.060500264E-1,7.955491225E0
2.795628448E0,-1.758000135E0,7.726950169E0,-6.360000372E-1,7.949894303E0
2.797590142E0,-1.795950055E0,7.765050411E0,-7.890000343E-1,8.008992792E0
2.799551831E0,-1.795950055E0,7.726950169E0,-7.890000343E-1,7.972058490E0
2.801513569E0,-1.834950089E0,7.687950134E0,-8.659500480E-1,7.951194161E0
2.803475293E0,-1.834950089E0,7.650000572E0,-8.269500136E-1,7.910334817E0
2.805437160E0,-1.758000135E0,7.687950134E0,-7.890000343E-1,7.925759446E0
2.807398985E0,-1.795950055E0,7.687950134E0,-7.890000343E-1,7.934263351E0
2.809361044E0,-1.795950055E0,7.687950134E0,-7.890000343E-1,7.934263351E0
2.811323014E0,-1.873050094E0,7.687950134E0,-7.890000343E-1,7.952069855E0
2.813284975E0,-1.795950055E0,7.765050411E0,-4.819500148E-1,7.984592683E0
2.815246939E0,-2.065050125E0,7.726950169E0,-9.420000315E-1,8.053418838E0
2.817208944E0,-2.065050125E0,7.573050499E0,-1.171950102E0,7.936560522E0
2.819170937E0,-1.911000133E0,7.497000217E0,-9.420000315E-1,7.793862831E0
2.821132624E0,-1.950000048E0,7.497000217E0,-7.120500207E-1,7.779108412E0
2.823094401E0,-1.950000048E0,7.497000217E0,-7.120500207E-1,7.779108412E0
2.825056393E0,-1.987950087E0,7.497000217E0,-6.360000372E-1,7.782123994E0
2.827018322E0,-2.026050091E0,7.458000183E0,-7.890000343E-1,7.768472614E0
2.828980200E0,-1.987950087E0,7.458000183E0,-9.040500522E-1,7.771165857E0
2.830942093E0,-1.987950087E0,7.420050144E0,-9.420000315E-1,7.739279924E0
2.832904459E0,-1.987950087E0,7.381950378E0,-1.018950105E0,7.712547974E0
2.834866663E0,-1.911000133E0,7.381950378E0,-1.018950105E0,7.693073002E0
2.836828629E0,-1.911000133E0,7.342950344E0,-1.057050109E0,7.660822162E0
2.838790665E0,-1.950000048E0,7.305000305E0,-1.057050109E0,7.634322798E0
2.840752479E0,-1.950000048E0,7.305000305E0,-1.134000063E0,7.645357139E0
2.842714358E0,-1.950000048E0,7.305000305E0,-1.134000063E0,7.645357139E0
2.844676553E0,-1.873050094E0,7.267050266E0,-1.134000063E0,7.589749164E0
2.846638658E0,-1.873050094E0,7.228050232E0,-1.134000063E0,7.552415703E0
2.848600866E0,-1.950000048E0,7.189950466E0,-1.134000063E0,7.535505559E0
2.850563043E0,-1.873050094E0,7.113000393E0,-1.057050109E0,7.431046102E0
2.852525373E0,-1.950000048E0,7.075050354E0,-1.057050109E0,7.414593221E0
2.854487658E0,-1.950000048E0,6.960000515E0,-1.057050109E0,7.304893037E0
2.856449810E0,-1.911000133E0,7.036950111E0,-1.096050024E0,7.373731351E0
2.858411987E0,-1.911000133E0,6.960000515E0,-1.096050024E0,7.300332481E0
2.860374092E0,-1.873050094E0,6.960000515E0,-1.096050024E0,7.290490345E0
2.862336218E0,-1.911000133E0,7.036950111E0,-1.057050109E0,7.368035241E0
2.864298196E0,-1.834950089E0,7.152000427E0,-9.810000658E-1,7.448524221E0
2.866260218E0,-1.834950089E0,7.152000427E0,-1.057050109E0,7.458921294E0
2.868222389E0,-1.758000135E0,7.228050232E0,-1.057050109E0,7.513496494E0
2.870184519E0,-1.795950055E0,7.305000305E0,-1.057050109E0,7.596434755E0
2.872146498E0,-1.873050094E0,7.342950344E0,-1.057050109E0,7.651443742E0
2.874108521E0,-1.911000133E0,7.381950378E0,-9.810000658E-1,7.688138528E0
2.876070337E0,-1.911000133E0,7.420050144E0,-9.420000315E-1,7.719872389E0
2.878032213E0,-1.950000048E0,7.420050144E0,-8.659500480E-1,7.720719773E0
2.879994390E0,-1.987950087E0,7.458000183E0,-8.659500480E-1,7.766825720E0
2.881956495E0,-1.987950087E0,7.497000217E0,-8.659500480E-1,7.804282625E0
2.883918657E0,-2.026050091E0,7.497000217E0,-7.890000343E-1,7.805921617E0
2.885880802E0,-1.987950087E0,7.420050144E0,-7.120500207E-1,7.714668167E0
2.887842643E0,-1.911000133E0,7.420050144E0,-6.739500165E-1,7.691766655E0
2.889804574E0,-1.950000048E0,7.497000217E0,-6.360000372E-1,7.772516227E0
2.891766390E0,-2.026050091E0,7.534950256E0,-6.739500165E-1,7.831638587E0
2.893728251E0,-2.103000164E0,7.534950256E0,-7.120500207E-1,7.855259403E0
2.895690094E0,-2.065050125E0,7.497000217E0,-7.510500550E-1,7.812395309E0
2.897651943E0,-2.103000164E0,7.497000217E0,-8.269500136E-1,7.830164001E0
2.899613923E0,-2.103000164E0,7.497000217E0,-8.269500136E-1,7.830164001E0
2.901575864E0,-2.065050125E0,7.420050144E0,-7.890000343E-1,7.742357342E0
2.903537740E0,-2.026050091E0,7.381950378E0,-8.659500480E-1,7.703761409E0
2.905499636E0,-2.026050091E0,7.381950378E0,-9.040500522E-1,7.708137055E0
2.907461473E0,-2.026050091E0,7.420050144E0,-9.810000658E-1,7.753991504E0
2.909423328E0,-1.987950087E0,7.381950378E0,-1.134000063E0,7.728589333E0
2.911385307E0,-1.950000048E0,7.381950378E0,-1.210950017E0,7.730594513E0
2.913347249E0,-1.987950087E0,7.381950378E0,-1.249050021E0,7.746306403E0
2.915309125E0,-1.950000048E0,7.420050144E0,-1.249050021E0,7.773015521E0
2.917271020E0,-1.987950087E0,7.458000183E0,-1.363950014E0,7.837989023E0
2.919233217E0,-1.873050094E0,7.497000217E0,-1.402050018E0,7.853602560E0
2.921195326E0,-1.873050094E0,7.573050499E0,-1.402050018E0,7.926232066E0
2.923157083E0,-1.834950089E0,7.612050533E0,-1.441050053E0,7.961594087E0
2.925118943E0,-1.834950089E0,7.726950169E0,-1.479000092E0,8.078381150E0
2.927080997E0,-1.758000135E0,7.842000484E0,-1.594050050E0,8.193200329E0
2.929043004E0,-1.758000135E0,7.879950523E0,-1.594050050E0,8.229530988E0
2.931005004E0,-1.681950092E0,7.918050289E0,-1.632000089E0,8.257596550E0
2.932967006E0,-1.642950058E0,7.842000484E0,-1.747050047E0,8.200514640E0
2.934929006E0,-1.720050097E0,7.918050289E0,-1.747050047E0,8.288924935E0
2.936891006E0,-1.795950055E0,8.071949959E0,-1.632000089E0,8.428833669E0
2.938852966E0,-1.950000048E0,8.340000153E0,-1.479000092E0,8.691693966E0
2.940814934E0,-2.026050091E0,8.569950104E0,-1.363950014E0,8.911188663E0
2.942776984E0,-1.987950087E0,8.761950493E0,-1.326000094E0,9.081960044E0
2.944739009E0,-2.026050091E0,8.991000175E0,-1.363950014E0,9.316830081E0
2.946701006E0,-2.065050125E0,9.145050049E0,-1.441050053E0,9.485409726E0
2.948663011E0,-2.140950203E0,9.298050880E0,-1.516950130E0,9.661188107E0
2.950625000E0,-2.103000164E0,9.490050316E0,-1.594050050E0,9.850109657E0
2.952587001E0,-2.371050119E0,9.643050194E0,-1.861950040E0,1.010332389E1
2.954549135E0,-2.524950027E0,9.835050583E0,-2.284050226E0,1.040771243E1
2.956511230E0,-2.332950115E0,9.835050583E0,-1.671000123E0,1.024515093E1
2.958473439E0,-2.448000193E0,9.988050461E0,-1.287000060E0,1.036389049E1
2.960435615E0,-2.677950144E0,1.014105034E1,-1.210950017E0,1.055834830E1
2.962397707E0,-3.061050177E0,1.025595093E1,-1.594050050E0,1.082106987E1
2.964359833E0,-2.946000099E0,1.029495049E1,-1.479000092E0,1.080982717E1
2.966321811E0,-2.985000134E0,1.041000080E1,-8.269500136E-1,1.086103995E1
2.968283833E0,-3.100050211E0,1.052505016E1,-6.739500165E-1,1.099277949E1
2.970246009E0,-3.253050089E0,1.060095024E1,-5.970000029E-1,1.110490387E1
2.972208139E0,-3.445050240E0,1.067805004E1,-7.120500207E-1,1.124260375E1
2.974170322E0,-3.483000278E0,1.067805004E1,-6.739500165E-1,1.125194438E1
2.976132504E0,-3.559950113E0,1.075500011E1,-6.739500165E-1,1.134889778E1
2.978094429E0,-3.675000191E0,1.079295063E1,-6.739500165E-1,1.142136675E1
2.980056429E0,-3.790050268E0,1.087005043E1,-7.120500207E-1,1.153384119E1
2.982018429E0,-3.865950108E0,1.087005043E1,-7.510500550E-1,1.156147234E1
2.983980429E0,-3.865950108E0,1.098495007E1,-4.440000355E-1,1.165383346E1
2.985942258E0,-3.981000185E0,1.102305031E1,-6.360000372E-1,1.173714176E1
2.987904131E0,-4.057950020E0,1.102305031E1,-9.040500522E-1,1.178099754E1
2.989866197E0,-4.018949986E0,1.110000038E1,-1.171950102E0,1.186319664E1
2.991828206E0,-4.018949986E0,1.110000038E1,-1.210950017E0,1.186711285E1
2.993790385E0,-4.057950020E0,1.113795090E1,-1.210950017E0,1.191584275E1
2.995752514E0,-4.018949986E0,1.121400070E1,-1.287000060E0,1.198174194E1
2.997714438E0,-4.018949986E0,1.121400070E1,-1.326000094E0,1.198599378E1
2.999676429E0,-4.018949986E0,1.121400070E1,-1.441050053E0,1.199926648E1
3.001638610E0,-3.981000185E0,1.117605019E1,-1.594050050E0,1.197052446E1
3.003600735E0,-3.943050146E0,1.110000038E1,-1.708950043E0,1.190286365E1
3.005562893E0,-3.904950142E0,1.102305031E1,-1.939050078E0,1.185395246E1
3.007525042E0,-3.904950142E0,1.094595051E1,-1.977000117E0,1.178859608E1
3.009487217E0,-3.865950108E0,1.075500011E1,-2.169000149E0,1.163271934E1
3.011449370E0,-3.904950142E0,1.063995075E1,-2.245050192E0,1.155410914E1
3.013411390E0,-3.828000069E0,1.052505016E1,-2.398950100E0,1.145361197E1
3.015373449E0,-3.904950142E0,1.033305073E1,-2.475000143E0,1.132016778E1
3.017335258E0,-3.943050146E0,1.021800041E1,-2.667000055E0,1.127244721E1
3.019297141E0,-3.981000185E0,1.010295010E1,-2.743950129E0,1.120032256E1
3.021258911E0,-3.981000185E0,9.988050461E0,-2.782050133E0,1.110627379E1
3.023220732E0,-4.057950020E0,9.873000145E0,-2.782050133E0,1.103099693E1
3.025182987E0,-4.173000336E0,9.757950783E0,-2.859000206E0,1.099115178E1
3.027145114E0,-4.173000336E0,9.681000710E0,-2.859000206E0,1.092289287E1
3.029107093E0,-4.326000214E0,9.604950905E0,-2.859000206E0,1.091527562E1
3.031069116E0,-4.326000214E0,9.528000832E0,-2.859000206E0,1.084762462E1
3.033031213E0,-4.363950253E0,9.375000000E0,-2.743950129E0,1.069878260E1
3.034993312E0,-4.441050053E0,9.375000000E0,-2.667000055E0,1.071104289E1
3.036955341E0,-4.479000092E0,9.298050880E0,-2.551950216E0,1.063144590E1
3.038917391E0,-4.518000126E0,9.220950127E0,-2.475000143E0,1.056238004E1
3.040879157E0,-4.633050442E0,9.183000565E0,-2.359950066E0,1.055282048E1
3.042841006E0,-4.671000004E0,9.145050049E0,-2.245050192E0,1.051144290E1
3.044802717E0,-4.708950043E0,9.220950127E0,-2.130000114E0,1.057057388E1
3.046764468E0,-4.978050232E0,9.298050880E0,-2.859000206E0,1.092742497E1
3.048726465E0,-4.633050442E0,9.298050880E0,-2.437050104E0,1.067043203E1
3.050688389E0,-4.594050407E0,9.336000443E0,-1.479000092E0,1.050969289E1
3.052650088E0,-4.671000004E0,9.375000000E0,-1.363950014E0,1.056263346E1
3.054611853E0,-4.671000004E0,9.451050758E0,-1.326000094E0,1.062538836E1
3.056573852E0,-4.671000004E0,9.490050316E0,-1.479000092E0,1.068020306E1
3.058535779E0,-4.633050442E0,9.565950394E0,-1.632000089E0,1.075341749E1
3.060497612E0,-4.594050407E0,9.720000267E0,-1.708950043E0,1.088596411E1
3.062459473E0,-4.479000092E0,9.681000710E0,-1.824000120E0,1.082174630E1
3.064421496E0,-4.363950253E0,9.873000145E0,-1.632000089E0,1.091712499E1
3.066383471E0,-4.288050175E0,9.988050461E0,-1.594050050E0,1.098587829E1
3.068345475E0,-4.173000336E0,1.006500053E1,-1.479000092E0,1.099570865E1
3.070307471E0,-4.096050262E0,1.018005085E1,-1.326000094E0,1.105302399E1
3.072269652E0,-3.943050146E0,1.025595093E1,-1.249050021E0,1.105858489E1
3.074231779E0,-3.828000069E0,1.033305073E1,-1.057050109E0,1.106990862E1
3.076193758E0,-3.712950230E0,1.037100029E1,-8.269500136E-1,1.104660549E1
3.078155781E0,-3.598050117E0,1.048605061E1,-5.970000029E-1,1.110223540E1
3.080117656E0,-3.445050240E0,1.052505016E1,-4.440000355E-1,1.108341951E1
3.082079564E0,-3.330000162E0,1.056300068E1,-1.369500011E-1,1.107630984E1
3.084040813E0,-3.138000250E0,1.063995075E1,1.300500035E-1,1.109380505E1
3.086002256E0,-3.022950172E0,1.075500011E1,3.220500052E-1,1.117640244E1
3.087963990E0,-2.985000134E0,1.087005043E1,5.130000114E-1,1.128412120E1
3.089925639E0,-2.830950022E0,1.090800095E1,7.050000429E-1,1.129140327E1
3.091887349E0,-2.677950144E0,1.102305031E1,7.810500264E-1,1.137053623E1
3.093849034E0,-2.601000071E0,1.110000038E1,8.959500194E-1,1.143581813E1
3.095810953E0,-2.485950232E0,1.125300026E1,8.580000401E-1,1.155621597E1
3.097772803E0,-2.410050154E0,1.140600014E1,9.349500537E-1,1.169526881E1
3.099734784E0,-2.218050003E0,1.152105045E1,1.011000037E0,1.177609742E1
3.101696726E0,-2.103000164E0,1.163595009E1,1.126049995E0,1.187795996E1
3.103658577E0,-2.026050091E0,1.182795048E1,1.279950023E0,1.206828751E1
3.105620440E0,-1.950000048E0,1.198095036E1,1.432950020E0,1.222288908E1
3.107582462E0,-1.873050094E0,1.213395023E1,1.510050058E0,1.237017850E1
3.109544438E0,-1.795950055E0,1.232595062E1,1.585950017E0,1.255666089E1
3.111506487E0,-1.681950092E0,1.251795101E1,1.663050056E0,1.273945796E1
3.113468515E0,-1.528050065E0,1.267095089E1,1.816050053E0,1.289131379E1
3.115430525E0,-1.413000107E0,1.286295033E1,1.855050087E0,1.307261532E1
3.117392531E0,-1.297950029E0,1.301595020E1,1.855050087E0,1.321139072E1
3.119354305E0,-1.260000110E0,1.316895103E1,1.930950046E0,1.336927222E1
3.121316147E0,-1.030050039E0,1.328400040E1,2.008050203E0,1.347434359E1
3.123278353E0,-9.529500604E-1,1.347600079E1,2.046000004E0,1.366370473E1
3.125240452E0,-7.620000243E-1,1.351395035E1,2.008050203E0,1.368355815E1
3.127202266E0,-6.469500065E-1,1.362900066E1,1.969950080E0,1.378582267E1
3.129164157E0,-5.700000525E-1,1.374405098E1,2.008050203E0,1.390165828E1
3.131125995E0,-3.400500119E-1,1.370595074E1,2.008050203E0,1.385644201E1
3.133087849E0,-2.250000089E-1,1.382100105E1,2.008050203E0,1.396792614E1
3.135049873E0,-3.299999982E-2,1.378200054E1,1.969950080E0,1.392211662E1
3.137011847E0,1.960500032E-1,1.370595074E1,1.930950046E0,1.384269083E1
3.138974411E0,3.870000243E-1,1.366695023E1,1.930950046E0,1.380810869E1
3.140936789E0,6.169500351E-1,1.355205059E1,1.969950080E0,1.370836992E1
3.142898770E0,8.470500112E-1,1.339905071E1,2.008050203E0,1.357513607E1
3.144860868E0,1.039050102E0,1.320795059E1,2.046000004E0,1.340580844E1
3.146822626E0,1.230000019E0,1.301595020E1,2.085000038E0,1.323914970E1
3.148784483E0,1.345050097E0,1.270905018E1,2.085000038E0,1.294898997E1
3.150746525E0,1.459950089E0,1.244100094E1,2.046000004E0,1.269236285E1
3.152708500E0,1.498950124E0,1.209600067E1,2.046000004E0,1.235905335E1
3.154670190E0,1.575000048E0,1.175100040E1,1.969950080E0,1.201862467E1
3.156631964E0,1.498950124E0,1.129095078E1,2.008050203E0,1.156566844E1
3.158593597E0,1.459950089E0,1.094595051E1,2.046000004E0,1.123082378E1
3.160555272E0,1.384050012E0,1.056300068E1,1.969950080E0,1.083389501E1
3.162516837E0,1.345050097E0,1.006500053E1,2.008050203E0,1.035111883E1
3.164478430E0,1.269000053E0,9.643050194E0,2.046000004E0,9.939059019E0
3.166439959E0,1.192050099E0,9.336000443E0,2.085000038E0,9.639974733E0
3.168401507E0,1.114950061E0,8.953050613E0,2.161050081E0,9.277411621E0
3.170363178E0,1.077000022E0,8.608050346E0,2.122950077E0,8.931146446E0
3.172324813E0,1.039050102E0,8.263050079E0,2.046000004E0,8.575764557E0
3.174286505E0,9.240000248E-1,7.918050289E0,1.969950080E0,8.211577178E0
3.176248188E0,8.089500666E-1,7.726950169E0,1.893000126E0,7.996474760E0
3.178209027E0,6.940500140E-1,7.420050144E0,1.855050087E0,7.679847680E0
3.180170113E0,5.020500422E-1,7.267050266E0,1.816050053E0,7.507337185E0
3.182132088E0,3.109500110E-1,7.075050354E0,1.777950048E0,7.301652813E0
3.184093803E0,2.340000123E-1,6.922050476E0,1.777950048E0,7.150569570E0
3.186055308E0,1.189500093E-1,6.768000126E0,1.663050056E0,6.970345063E0
3.188016878E0,-7.200000435E-2,6.730050087E0,1.701000094E0,6.942057296E0
3.189978590E0,-2.250000089E-1,6.654000282E0,1.624950051E0,6.853233356E0
3.191940261E0,-3.780000210E-1,6.615000248E0,1.548000097E0,6.804220499E0
3.193901778E0,-4.930500090E-1,6.577050209E0,1.548000097E0,6.774731881E0
3.195863340E0,-6.079500318E-1,6.499950409E0,1.510050058E0,6.700687259E0
3.197825208E0,-7.620000243E-1,6.538950443E0,1.548000097E0,6.762752490E0
3.199786972E0,-8.380500674E-1,6.538950443E0,1.548000097E0,6.771743137E0
3.201748832E0,-9.529500604E-1,6.577050209E0,1.548000097E0,6.823635949E0
3.203710664E0,-1.030050039E0,6.615000248E0,1.663050056E0,6.898185765E0
3.205672334E0,-1.144950032E0,6.654000282E0,1.701000094E0,6.962760347E0
3.207634051E0,-1.336950064E0,6.844950199E0,1.855050087E0,7.216785263E0
3.209595788E0,-1.489950061E0,6.922050476E0,1.777950048E0,7.300400013E0
3.211557515E0,-1.567050099E0,7.075050354E0,1.816050053E0,7.470610505E0
3.213518977E0,-1.642950058E0,7.228050232E0,1.816050053E0,7.631646798E0
3.215480517E0,-1.873050094E0,7.381950378E0,1.701000094E0,7.803519037E0
3.217442595E0,-1.911000133E0,7.497000217E0,1.624950051E0,7.905529485E0
3.219404515E0,-1.987950087E0,7.726950169E0,1.510050058E0,8.120218940E0
3.221366184E0,-2.065050125E0,7.842000484E0,1.510050058E0,8.248736558E0
3.223327916E0,-2.218050003E0,8.187000275E0,1.585950017E0,8.629134184E0
3.225289602E0,-2.256000042E0,8.302050591E0,1.585950017E0,8.748075083E0
3.227251301E0,-2.295000076E0,8.416950226E0,1.548000097E0,8.860495514E0
3.229213216E0,-2.332950115E0,8.532000542E0,1.548000097E0,8.979643299E0
3.231175068E0,-2.295000076E0,8.685000420E0,1.510050058E0,9.109144242E0
3.233136909E0,-2.332950115E0,8.838000298E0,1.510050058E0,9.264618539E0
3.235098757E0,-2.332950115E0,8.953050613E0,1.510050058E0,9.374434527E0
3.237060423E0,-2.332950115E0,9.030000687E0,1.471050024E0,9.441798389E0
3.239022142E0,-2.218050003E0,9.183000565E0,1.471050024E0,9.560922202E0
3.240984009E0,-2.179949999E0,9.259950638E0,1.471050024E0,9.626154787E0
3.242945832E0,-2.026050091E0,9.336000443E0,1.471050024E0,9.665907687E0
3.244907489E0,-1.987950087E0,9.412950516E0,1.471050024E0,9.732398015E0
3.246869205E0,-1.911000133E0,9.490050316E0,1.471050024E0,9.791678338E0
3.248831072E0,-1.834950089E0,9.565950394E0,1.471050024E0,9.850808948E0
3.250792895E0,-1.758000135E0,9.565950394E0,1.471050024E0,9.836765707E0
3.252754925E0,-1.681950092E0,9.643050194E0,1.510050058E0,9.904424483E0
3.254716895E0,-1.489950061E0,9.643050194E0,1.471050024E0,9.867743227E0
3.256678573E0,-1.336950064E0,9.565950394E0,1.432950020E0,9.764639684E0
3.258640314E0,-1.222050071E0,9.643050194E0,1.432950020E0,9.825231253E0
3.260602493E0,-1.030050039E0,9.604950905E0,1.395000100E0,9.760231055E0
3.262564543E0,-9.529500604E-1,9.565950394E0,1.356000066E0,9.708463160E0
3.264526220E0,-7.999500632E-1,9.528000832E0,1.356000066E0,9.657197116E0
3.266488006E0,-6.850500107E-1,9.528000832E0,1.356000066E0,9.648358904E0
3.268449682E0,-5.320500135E-1,9.412950516E0,1.279950023E0,9.514461976E0
3.270411391E0,-3.780000210E-1,9.375000000E0,1.240950108E0,9.464325976E0
3.272373035E0,-2.250000089E-1,9.336000443E0,1.240950108E0,9.420800732E0
3.274334698E0,-1.480500102E-1,9.259950638E0,1.279950023E0,9.349164491E0
3.276296620E0,4.200000316E-2,9.259950638E0,1.318050027E0,9.353379373E0
3.278258466E0,1.570500135E-1,9.183000565E0,1.318050027E0,9.278438443E0
3.280220677E0,1.960500032E-1,9.183000565E0,1.240950108E0,9.268543151E0
3.282182778E0,3.109500110E-1,9.183000565E0,1.126049995E0,9.257006961E0
3.284144537E0,3.490500152E-1,9.145050049E0,1.165050030E0,9.225568702E0
3.286106396E0,4.260000288E-1,9.106050491E0,1.126049995E0,9.185293690E0
3.288068419E0,4.639500082E-1,9.030000687E0,1.126049995E0,9.111758919E0
3.290030394E0,5.020500422E-1,9.067950249E0,1.165050030E0,9.156261111E0
