"Time (s)","Acceleration x (m/s^2)","Acceleration y (m/s^2)","Acceleration z (m/s^2)","Absolute acceleration (m/s^2)"
3.367205000E-2,-4.173000336E0,9.145050049E0,-1.516950130E0,1.016597314E1
3.563255800E-2,-4.210950375E0,9.106050491E0,-1.516950130E0,1.014659531E1
3.759574300E-2,-4.210950375E0,9.067950249E0,-1.402050018E0,1.009581938E1
3.955754000E-2,-4.173000336E0,9.067950249E0,-1.326000094E0,1.006975321E1
4.151974300E-2,-4.134000301E0,8.991000175E0,-1.326000094E0,9.984303626E0
4.348174800E-2,-4.173000336E0,8.953050613E0,-1.441050053E0,9.982368073E0
4.544381500E-2,-4.249050140E0,9.067950249E0,-1.287000060E0,1.009646067E1
4.740580300E-2,-4.363950253E0,9.106050491E0,-1.096050024E0,1.015704401E1
4.936781500E-2,-4.441050053E0,9.145050049E0,-9.810000658E-1,1.021358052E1
5.132976800E-2,-4.518000126E0,9.220950127E0,-7.120500207E-1,1.029297147E1
5.329173800E-2,-4.633050442E0,9.336000443E0,-5.590500236E-1,1.043736545E1
5.525355800E-2,-4.708950043E0,9.412950516E0,-2.910000086E-1,1.052912764E1
5.721542500E-2,-4.863000393E0,9.528000832E0,-1.369500011E-1,1.069814601E1
5.917695200E-2,-4.939050198E0,9.643050194E0,1.500000060E-2,1.083433703E1
6.113857900E-2,-5.053950310E0,9.796050072E0,1.680000126E-1,1.102421130E1
6.310023700E-2,-5.208000183E0,9.949950218E0,1.680000126E-1,1.123178522E1
6.506188500E-2,-5.476050377E0,1.014105034E1,-2.910000086E-1,1.152877750E1
6.702365900E-2,-5.553000450E0,1.021800041E1,-1.759500057E-1,1.163074825E1
6.898537500E-2,-5.629050255E0,1.037100029E1,1.500000060E-2,1.180017283E1
7.094634300E-2,-5.668050289E0,1.044795036E1,3.600000143E-1,1.189184851E1
7.290753100E-2,-5.668050289E0,1.052505016E1,4.750500321E-1,1.196365945E1
7.486948900E-2,-5.706000328E0,1.056300068E1,5.130000114E-1,1.201659653E1
7.683122100E-2,-5.743950367E0,1.063995075E1,3.220500052E-1,1.209567005E1
7.879379300E-2,-5.743950367E0,1.067805004E1,2.070000172E-1,1.212668823E1
8.075612900E-2,-5.668050289E0,1.063995075E1,1.300500035E-1,1.205621247E1
8.271802800E-2,-5.629050255E0,1.063995075E1,1.500000060E-2,1.203723323E1
8.468005500E-2,-5.514000416E0,1.060095024E1,-9.900000691E-2,1.194965052E1
8.664150900E-2,-5.514000416E0,1.052505016E1,-4.440000355E-1,1.189024884E1
8.860313100E-2,-5.437950134E0,1.056300068E1,-9.420000315E-1,1.191787100E1
9.056465000E-2,-5.361000061E0,1.056300068E1,-1.759500057E-1,1.184686724E1
9.252620300E-2,-5.131050110E0,1.056300068E1,2.070000172E-1,1.174510569E1
9.448719800E-2,-5.016000271E0,1.060095024E1,1.203000069E0,1.178930082E1
9.644835700E-2,-4.978050232E0,1.056300068E1,1.432950020E0,1.176483375E1
9.841000500E-2,-4.863000393E0,1.056300068E1,1.777950048E0,1.176379456E1
1.003715090E-1,-4.747950077E0,1.063995075E1,2.467950106E0,1.190975901E1
1.023330540E-1,-4.633050442E0,1.071600056E1,2.889000177E0,1.202680948E1
1.042945860E-1,-4.671000004E0,1.071600056E1,3.043050051E0,1.207936516E1
1.062563060E-1,-4.633050442E0,1.075500011E1,2.928000212E0,1.207097217E1
1.082179710E-1,-4.594050407E0,1.075500011E1,2.736000061E0,1.201087103E1
1.101798030E-1,-4.633050442E0,1.083105087E1,2.391000032E0,1.202055326E1
1.121415860E-1,-4.555950165E0,1.083105087E1,2.122950077E0,1.194048835E1
1.141032640E-1,-4.479000092E0,1.094595051E1,1.893000126E0,1.197742559E1
1.160649730E-1,-4.441050053E0,1.106100082E1,1.701000094E0,1.204001936E1
1.180267060E-1,-4.402950287E0,1.117605019E1,1.624950051E0,1.212149049E1
1.199884320E-1,-4.326000214E0,1.132905006E1,1.585950017E0,1.223016315E1
1.219502990E-1,-4.288050175E0,1.144395065E1,1.624950051E0,1.232849721E1
1.239121250E-1,-4.288050175E0,1.155900097E1,1.701000094E0,1.244553249E1
1.258739600E-1,-4.173000336E0,1.163595009E1,1.816050053E0,1.249429086E1
1.278358020E-1,-4.018949986E0,1.175100040E1,2.046000004E0,1.258666300E1
1.297977840E-1,-4.018949986E0,1.194300079E1,2.200050116E0,1.279169447E1
1.317597250E-1,-3.943050146E0,1.201905060E1,2.391000032E0,1.287330971E1
1.337215560E-1,-3.904950142E0,1.209600067E1,2.583000183E0,1.297049567E1
1.356834190E-1,-3.790050268E0,1.217295074E1,2.736000061E0,1.303958999E1
1.376452340E-1,-3.636000156E0,1.221105099E1,2.851050138E0,1.305598523E1
1.396070830E-1,-3.559950113E0,1.240305042E1,3.043050051E0,1.325779236E1
1.415687480E-1,-3.445050240E0,1.247895050E1,3.310950041E0,1.336244614E1
1.435304670E-1,-3.291000128E0,1.259400082E1,3.541050196E0,1.348994347E1
1.454920200E-1,-3.100050211E0,1.263300037E1,3.541050196E0,1.348117377E1
1.474536210E-1,-2.869950056E0,1.270905018E1,3.541050196E0,1.350168901E1
1.494154630E-1,-2.716050148E0,1.270905018E1,3.426000118E0,1.344002834E1
1.513772340E-1,-2.410050154E0,1.267095089E1,3.426000118E0,1.334536680E1
1.533389140E-1,-2.179949999E0,1.267095089E1,3.426000118E0,1.330573768E1
1.553006210E-1,-1.873050094E0,1.267095089E1,3.579000235E0,1.329926899E1
1.572623110E-1,-1.605000019E0,1.255605030E1,3.579000235E0,1.315445426E1
1.592240060E-1,-1.260000110E0,1.236405087E1,3.541050196E0,1.292270833E1
1.611858720E-1,-9.150000215E-1,1.217295074E1,3.579000235E0,1.272113193E1
1.631476910E-1,-5.700000525E-1,1.190400028E1,3.502950191E0,1.242178662E1
1.651095870E-1,-1.480500102E-1,1.163595009E1,3.502950191E0,1.215269161E1
1.670714600E-1,2.340000123E-1,1.132905006E1,3.579000235E0,1.188323921E1
1.690341580E-1,5.790000558E-1,1.110000038E1,3.541050196E0,1.166551696E1
1.709966140E-1,8.850000501E-1,1.083105087E1,3.502950191E0,1.141777334E1
1.729581820E-1,1.153950095E0,1.056300068E1,3.541050196E0,1.120034020E1
1.749200060E-1,1.306950092E0,1.033305073E1,3.463950157E0,1.097629293E1
1.768817200E-1,1.422000051E0,1.006500053E1,3.388050079E0,1.071471900E1
1.788434670E-1,1.651950121E0,9.720000267E0,3.196050167E0,1.036446241E1
1.808049700E-1,1.767000079E0,9.451050758E0,3.043050051E0,1.008487994E1
1.827665440E-1,1.843950033E0,9.183000565E0,3.004050255E0,9.836257877E0
1.847280710E-1,1.882050037E0,8.800050735E0,2.928000212E0,9.463413260E0
1.866896160E-1,1.843950033E0,8.532000542E0,2.928000212E0,9.206973998E0
1.886513330E-1,1.729050040E0,8.263050079E0,2.851050138E0,8.910448785E0
1.906129990E-1,1.651950121E0,8.032950401E0,2.812950134E0,8.670058812E0
1.925746510E-1,1.422000051E0,7.803000450E0,2.812950134E0,8.415556347E0
1.945363080E-1,1.306950092E0,7.612050533E0,2.851050138E0,8.232856051E0
1.964979920E-1,1.153950095E0,7.497000217E0,2.889000177E0,8.116830361E0
1.984596770E-1,1.000050068E0,7.267050266E0,2.851050138E0,7.870108424E0
2.004213710E-1,9.619500637E-1,7.113000393E0,2.812950134E0,7.709267862E0
2.023830620E-1,9.240000248E-1,6.960000515E0,2.698050022E0,7.521625964E0
2.043447990E-1,8.470500112E-1,6.883050442E0,2.583000183E0,7.400389655E0
2.063065230E-1,6.169500351E-1,6.807000160E0,2.430000067E0,7.254018118E0
2.082676250E-1,5.410500169E-1,6.730050087E0,2.275950193E0,7.125044461E0
2.102289100E-1,3.490500152E-1,6.654000282E0,2.161050081E0,7.004833554E0
2.121905360E-1,1.570500135E-1,6.654000282E0,2.122950077E0,6.986222262E0
2.141520620E-1,-1.099500060E-1,6.654000282E0,1.930950046E0,6.929385026E0
2.161137830E-1,-4.549500346E-1,6.538950443E0,9.730500579E-1,6.626588779E0
2.180754460E-1,-3.780000210E-1,6.654000282E0,1.624950051E0,6.859961111E0
2.200375040E-1,-6.079500318E-1,6.615000248E0,2.122950077E0,6.973861810E0
2.219994460E-1,-7.999500632E-1,6.615000248E0,2.238000154E0,7.028996591E0
2.239614110E-1,-1.030050039E0,6.615000248E0,2.122950077E0,7.023257677E0
2.259233690E-1,-1.222050071E0,6.615000248E0,1.969950080E0,7.009446339E0
2.278848820E-1,-1.489950061E0,6.691950321E0,1.893000126E0,7.112355430E0
2.298465250E-1,-1.758000135E0,6.844950199E0,1.740000129E0,7.278152798E0
2.318084050E-1,-2.026050091E0,6.922050476E0,1.701000094E0,7.410334883E0
2.337702160E-1,-2.218050003E0,6.960000515E0,1.585950017E0,7.475064578E0
2.357320680E-1,-2.371050119E0,7.152000427E0,1.624950051E0,7.708012159E0
2.376939080E-1,-2.563050032E0,7.267050266E0,1.624950051E0,7.875259215E0
2.396557550E-1,-2.677950144E0,7.342950344E0,1.663050056E0,7.990999450E0
2.416176000E-1,-2.869950056E0,7.497000217E0,1.624950051E0,8.190365575E0
2.435796270E-1,-3.061050177E0,7.612050533E0,1.663050056E0,8.371324686E0
2.455416000E-1,-3.253050089E0,7.879950523E0,1.701000094E0,8.693063698E0
2.475033810E-1,-3.406050205E0,8.032950401E0,1.701000094E0,8.889480945E0
2.494652180E-1,-3.598050117E0,8.187000275E0,1.624950051E0,9.089191428E0
2.514271100E-1,-3.712950230E0,8.302050591E0,1.548000097E0,9.225310169E0
2.533889850E-1,-3.865950108E0,8.493000031E0,1.510050058E0,9.452876331E0
2.553509460E-1,-3.943050146E0,8.608050346E0,1.471050024E0,9.581762019E0
2.573128930E-1,-3.981000185E0,8.685000420E0,1.356000066E0,9.649680354E0
2.592747680E-1,-4.096050262E0,8.800050735E0,9.730500579E-1,9.755272785E0
2.612366640E-1,-4.173000336E0,8.991000175E0,8.580000401E-1,9.949280377E0
2.631986810E-1,-4.173000336E0,9.145050049E0,1.087950110E0,1.011086088E1
2.651606620E-1,-4.096050262E0,9.183000565E0,1.165050030E0,1.012237466E1
2.671226800E-1,-3.981000185E0,9.298050880E0,1.395000100E0,1.021019774E1
2.690846770E-1,-3.865950108E0,9.336000443E0,1.471050024E0,1.021129094E1
2.710466330E-1,-3.751050234E0,9.336000443E0,1.471050024E0,1.016834649E1
2.730086020E-1,-3.559950113E0,9.451050758E0,1.471050024E0,1.020586074E1
2.749706060E-1,-3.483000278E0,9.451050758E0,1.471050024E0,1.017927500E1
2.769326000E-1,-3.483000278E0,9.336000443E0,6.660000086E-1,9.986778821E0
2.788946100E-1,-3.061050177E0,9.375000000E0,9.730500579E-1,9.909968698E0
2.808566090E-1,-2.755050182E0,9.412950516E0,1.816050053E0,9.974566492E0
2.828186540E-1,-2.524950027E0,9.412950516E0,2.391000032E0,1.003473424E1
2.847806860E-1,-2.524950027E0,9.220950127E0,1.777950048E0,9.724320041E0
2.867425020E-1,-2.218050003E0,9.259950638E0,1.777950048E0,9.686461583E0
2.887043810E-1,-1.987950087E0,9.298050880E0,2.046000004E0,9.725832187E0
2.906662210E-1,-1.911000133E0,9.375000000E0,1.855050087E0,9.745961078E0
2.926280730E-1,-1.911000133E0,9.298050880E0,1.663050056E0,9.636981227E0
2.945906380E-1,-2.103000164E0,9.145050049E0,7.810500264E-1,9.416187617E0
2.965529940E-1,-2.103000164E0,8.761950493E0,2.070000172E-1,9.013170094E0
2.985139880E-1,-1.950000048E0,8.800050735E0,1.680000126E-1,9.015077212E0
3.004753810E-1,-1.873050094E0,8.800050735E0,5.509500504E-1,9.014031038E0
3.024371680E-1,-1.873050094E0,8.722949982E0,8.959500194E-1,8.966654865E0
3.043988400E-1,-1.873050094E0,8.647050858E0,1.318050027E0,8.945225601E0
3.063607170E-1,-1.873050094E0,8.569950104E0,1.548000097E0,8.907786803E0
3.083225330E-1,-1.758000135E0,8.532000542E0,1.816050053E0,8.898518726E0
3.102843400E-1,-1.681950092E0,8.493000031E0,1.930950046E0,8.870658020E0
3.122461500E-1,-1.758000135E0,8.493000031E0,1.777950048E0,8.853401627E0
3.142078620E-1,-1.950000048E0,8.532000542E0,1.624950051E0,8.901572676E0
3.161696060E-1,-2.140950203E0,8.569950104E0,1.471050024E0,8.954981894E0
3.181312900E-1,-2.295000076E0,8.569950104E0,1.471050024E0,8.993056116E0
3.200929910E-1,-2.524950027E0,8.569950104E0,1.395000100E0,9.042424603E0
3.220550410E-1,-2.716050148E0,8.493000031E0,1.356000066E0,9.019241326E0
3.240169890E-1,-2.830950022E0,8.455050468E0,1.432950020E0,9.030808503E0
3.259786540E-1,-2.985000134E0,8.340000153E0,1.471050024E0,8.979410700E0
3.279403910E-1,-3.061050177E0,8.302050591E0,1.510050058E0,8.976320146E0
3.299020300E-1,-3.100050211E0,8.187000275E0,1.510050058E0,8.883554243E0
3.318636980E-1,-3.138000250E0,8.148000717E0,1.548000097E0,8.867539995E0
3.338252590E-1,-3.100050211E0,8.071949959E0,1.777950048E0,8.827672050E0
3.357868520E-1,-3.061050177E0,7.957050323E0,1.893000126E0,8.733162515E0
3.377487360E-1,-2.908050060E0,7.957050323E0,1.893000126E0,8.680717394E0
3.397105380E-1,-2.793000221E0,7.918050289E0,1.855050087E0,8.598696497E0
3.416725270E-1,-2.677950144E0,7.957050323E0,1.624950051E0,8.551405118E0
3.436344610E-1,-2.677950144E0,7.957050323E0,1.471050024E0,8.523500161E0
3.455965180E-1,-2.485950232E0,8.032950401E0,1.471050024E0,8.536523231E0
3.475585380E-1,-2.371050119E0,8.071949959E0,1.471050024E0,8.540623103E0
3.495203150E-1,-2.179949999E0,8.071949959E0,1.432950020E0,8.483036243E0
3.514821600E-1,-2.103000164E0,8.187000275E0,1.356000066E0,8.560859733E0
3.534440500E-1,-1.987950087E0,8.224950790E0,1.432950020E0,8.582255345E0
3.554059270E-1,-1.873050094E0,8.302050591E0,1.432950020E0,8.630510206E0
3.573673630E-1,-1.795950055E0,8.340000153E0,1.395000100E0,8.644481733E0
3.593289290E-1,-1.720050097E0,8.340000153E0,1.395000100E0,8.629032400E0
3.612906780E-1,-1.605000019E0,8.455050468E0,1.432950020E0,8.724520001E0
3.632523800E-1,-1.567050099E0,8.608050346E0,1.395000100E0,8.860033976E0
3.652145670E-1,-1.489950061E0,8.608050346E0,1.432950020E0,8.852786438E0
3.671766110E-1,-1.375050068E0,8.685000420E0,1.471050024E0,8.915379025E0
3.691384240E-1,-1.260000110E0,8.800050735E0,1.471050024E0,9.010687066E0
3.711003050E-1,-1.222050071E0,8.877000809E0,1.471050024E0,9.080668362E0
3.730621790E-1,-1.144950032E0,8.953050613E0,1.395000100E0,9.133129318E0
3.750240620E-1,-1.144950032E0,9.030000687E0,1.356000066E0,9.202747370E0
3.769863980E-1,-1.183050036E0,9.106050491E0,1.356000066E0,9.282160261E0
3.789486010E-1,-1.106999993E0,9.220950127E0,1.356000066E0,9.385632978E0
3.809102520E-1,-1.183050036E0,9.336000443E0,1.395000100E0,9.513492362E0
3.828720640E-1,-1.183050036E0,9.412950516E0,1.471050024E0,9.600376710E0
3.848337640E-1,-1.260000110E0,9.451050758E0,1.510050058E0,9.653507751E0
3.867954770E-1,-1.489950061E0,9.412950516E0,1.471050024E0,9.643006625E0
3.887571650E-1,-1.834950089E0,9.375000000E0,1.279950023E0,9.638253934E0
3.907188610E-1,-2.256000042E0,9.298050880E0,1.011000037E0,9.621091801E0
3.926808680E-1,-2.640000105E0,9.259950638E0,8.959500194E-1,9.670522882E0
3.946427830E-1,-2.985000134E0,9.183000565E0,7.810500264E-1,9.687505577E0
3.966044830E-1,-3.100050211E0,9.106050491E0,9.730500579E-1,9.668365595E0
3.985662460E-1,-3.100050211E0,8.991000175E0,1.126049995E0,9.576867132E0
4.005278810E-1,-2.946000099E0,8.953050613E0,1.126049995E0,9.492313757E0
4.024895540E-1,-2.830950022E0,8.800050735E0,1.203000069E0,9.322144610E0
4.044511140E-1,-2.716050148E0,8.722949982E0,1.126049995E0,9.205149286E0
4.064127080E-1,-2.716050148E0,8.685000420E0,1.011000037E0,9.155778600E0
4.083743710E-1,-2.640000105E0,8.608050346E0,1.011000037E0,9.060367123E0
4.103360130E-1,-2.716050148E0,8.569950104E0,9.730500579E-1,9.042554927E0
4.122974000E-1,-2.640000105E0,8.569950104E0,9.730500579E-1,9.020003977E0
4.142588610E-1,-2.677950144E0,8.569950104E0,1.050000072E0,9.039798776E0
4.162205920E-1,-2.677950144E0,8.532000542E0,1.087950110E0,9.008334233E0
4.181822440E-1,-2.601000071E0,8.493000031E0,1.087950110E0,8.948736577E0
4.201440730E-1,-2.601000071E0,8.377950668E0,1.011000037E0,8.830480159E0
4.221058540E-1,-2.601000071E0,8.302050591E0,9.730500579E-1,8.754203093E0
4.240675780E-1,-2.601000071E0,8.263050079E0,9.349500537E-1,8.713055123E0
4.260293180E-1,-2.524950027E0,8.224950790E0,9.349500537E-1,8.654439309E0
4.279910020E-1,-2.563050032E0,8.224950790E0,8.580000401E-1,8.657667413E0
4.299527030E-1,-2.601000071E0,8.187000275E0,8.200500607E-1,8.629290641E0
4.319145570E-1,-2.601000071E0,8.148000717E0,7.810500264E-1,8.588664401E0
4.338763450E-1,-2.601000071E0,8.148000717E0,8.200500607E-1,8.592298828E0
4.358383810E-1,-2.601000071E0,8.187000275E0,8.580000401E-1,8.632979725E0
4.378003450E-1,-2.677950144E0,8.148000717E0,7.810500264E-1,8.612280291E0
4.397619920E-1,-2.716050148E0,8.148000717E0,7.050000429E-1,8.617648702E0
4.417237320E-1,-2.793000221E0,8.187000275E0,7.050000429E-1,8.678988927E0
4.436852260E-1,-2.793000221E0,8.187000275E0,7.050000429E-1,8.678988927E0
4.456467990E-1,-2.869950056E0,8.224950790E0,6.280500293E-1,8.733892355E0
4.476080160E-1,-2.908050060E0,8.263050079E0,5.899500251E-1,8.779680678E0
4.495693370E-1,-2.946000099E0,8.302050591E0,5.509500504E-1,8.826466255E0
4.515312270E-1,-2.946000099E0,8.224950790E0,4.360500276E-1,8.747506600E0
4.534929500E-1,-2.985000134E0,8.110050201E0,3.600000143E-1,8.649435824E0
4.554557190E-1,-2.908050060E0,7.995000362E0,2.830500007E-1,8.512162078E0
4.574181810E-1,-2.908050060E0,7.879950523E0,2.449500114E-1,8.402998031E0
4.593797430E-1,-2.869950056E0,7.765050411E0,1.680000126E-1,8.280147657E0
4.613415680E-1,-2.908050060E0,7.803000450E0,2.070000172E-1,8.329851150E0
4.633032380E-1,-2.985000134E0,7.842000484E0,2.449500114E-1,8.394474248E0
4.652649530E-1,-3.061050177E0,7.995000362E0,2.070000172E-1,8.563463551E0
4.672264970E-1,-3.214950085E0,8.224950790E0,2.449500114E-1,8.834348876E0
4.691880970E-1,-3.330000162E0,8.340000153E0,1.680000126E-1,8.981799799E0
4.711496250E-1,-3.330000162E0,8.377950668E0,5.295000225E-2,9.015639865E0
4.731111740E-1,-3.367950201E0,8.302050591E0,1.500000060E-2,8.959205186E0
4.750730250E-1,-3.330000162E0,8.224950790E0,1.500000060E-2,8.873496582E0
4.770347880E-1,-3.291000128E0,8.148000717E0,1.300500035E-1,8.788487386E0
4.789963340E-1,-3.175950050E0,8.032950401E0,2.070000172E-1,8.640474517E0
4.809579440E-1,-3.214950085E0,8.071949959E0,2.070000172E-1,8.691094821E0
4.829196040E-1,-3.214950085E0,7.957050323E0,2.449500114E-1,8.585485100E0
4.848812490E-1,-3.214950085E0,7.918050289E0,2.449500114E-1,8.549352311E0
4.868422300E-1,-3.253050089E0,7.918050289E0,2.830500007E-1,8.564926886E0
4.888034050E-1,-3.330000162E0,7.918050289E0,3.220500052E-1,8.595820942E0
4.907648690E-1,-3.291000128E0,7.918050289E0,3.220500052E-1,8.580787751E0
4.927262490E-1,-3.330000162E0,7.957050323E0,3.600000143E-1,8.633258420E0
4.946883550E-1,-3.367950201E0,7.957050323E0,3.220500052E-1,8.646470645E0
4.966502490E-1,-3.406050205E0,7.995000362E0,3.220500052E-1,8.696259253E0
4.986117280E-1,-3.406050205E0,8.032950401E0,5.130000114E-1,8.740288277E0
5.005733280E-1,-3.406050205E0,8.110050201E0,5.899500251E-1,8.816015727E0
5.025353500E-1,-3.483000278E0,8.110050201E0,5.899500251E-1,8.846029971E0
5.044972490E-1,-3.445050240E0,8.187000275E0,6.280500293E-1,8.904481540E0
5.064585910E-1,-3.520950079E0,8.187000275E0,6.660000086E-1,8.936868521E0
5.084200970E-1,-3.520950079E0,8.148000717E0,7.050000429E-1,8.904158029E0
5.103817750E-1,-3.559950113E0,8.187000275E0,7.810500264E-1,8.961599045E0
5.123434030E-1,-3.598050117E0,8.224950790E0,8.200500607E-1,9.014891139E0
5.143051330E-1,-3.675000191E0,8.263050079E0,9.730500579E-1,9.095628039E0
5.162668460E-1,-3.636000156E0,8.302050591E0,9.349500537E-1,9.111458322E0
5.182285350E-1,-3.675000191E0,8.377950668E0,1.011000037E0,9.204227555E0
5.201902320E-1,-3.675000191E0,8.416950226E0,1.011000037E0,9.239740179E0
5.221518790E-1,-3.675000191E0,8.416950226E0,1.050000072E0,9.244088795E0
5.241135400E-1,-3.751050234E0,8.416950226E0,1.087950110E0,9.278958153E0
5.260752820E-1,-3.675000191E0,8.493000031E0,1.011000037E0,9.309070684E0
5.280370000E-1,-3.675000191E0,8.493000031E0,1.011000037E0,9.309070684E0
5.299986890E-1,-3.675000191E0,8.569950104E0,1.050000072E0,9.383611849E0
5.319603860E-1,-3.636000156E0,8.569950104E0,1.087950110E0,9.372735853E0
5.339223920E-1,-3.598050117E0,8.608050346E0,1.011000037E0,9.384381519E0
5.358843070E-1,-3.559950113E0,8.608050346E0,9.730500579E-1,9.365820946E0
5.378461480E-1,-3.559950113E0,8.685000420E0,1.011000037E0,9.440582512E0
5.398080070E-1,-3.520950079E0,8.685000420E0,1.050000072E0,9.430207946E0
5.417694900E-1,-3.483000278E0,8.685000420E0,1.050000072E0,9.416104469E0
5.437310840E-1,-3.445050240E0,8.685000420E0,1.087950110E0,9.406446666E0
5.456929720E-1,-3.367950201E0,8.685000420E0,1.087950110E0,9.378483688E0
5.476547740E-1,-3.291000128E0,8.685000420E0,1.126049995E0,9.355634811E0
5.496164670E-1,-3.291000128E0,8.722949982E0,1.203000069E0,9.400412086E0
5.515781790E-1,-3.175950050E0,8.722949982E0,1.165050030E0,9.355953007E0
5.535398680E-1,-3.138000250E0,8.722949982E0,1.203000069E0,9.347946893E0
5.555015640E-1,-3.061050177E0,8.722949982E0,1.279950023E0,9.332639317E0
5.574632560E-1,-3.022950172E0,8.722949982E0,1.279950023E0,9.320212239E0
5.594249490E-1,-3.022950172E0,8.647050858E0,1.240950108E0,9.243899256E0
5.613868350E-1,-2.869950056E0,8.608050346E0,9.349500537E-1,9.121911844E0
5.633486540E-1,-2.793000221E0,8.722949982E0,1.279950023E0,9.248187859E0
5.653103710E-1,-2.755050182E0,8.722949982E0,1.432950020E0,9.259238827E0
5.672721180E-1,-2.793000221E0,8.761950493E0,1.471050024E0,9.313249425E0
5.692338000E-1,-2.793000221E0,8.838000298E0,1.395000100E0,9.373213151E0
5.711955020E-1,-2.793000221E0,8.838000298E0,1.356000066E0,9.367488227E0
5.731568030E-1,-2.793000221E0,8.877000809E0,1.395000100E0,9.409995689E0
5.751182420E-1,-2.793000221E0,8.877000809E0,1.395000100E0,9.409995689E0
5.770797510E-1,-2.755050182E0,8.914950371E0,1.395000100E0,9.434652453E0
5.790412400E-1,-2.716050148E0,8.953050613E0,1.471050024E0,9.470904490E0
5.810026080E-1,-2.601000071E0,8.953050613E0,1.510050058E0,9.444711104E0
5.829640120E-1,-2.640000105E0,9.030000687E0,1.510050058E0,9.528418764E0
5.849259140E-1,-2.640000105E0,9.067950249E0,1.510050058E0,9.564390908E0
5.868876830E-1,-2.563050032E0,8.953050613E0,1.471050024E0,9.428166785E0
5.888495420E-1,-2.563050032E0,8.953050613E0,1.203000069E0,9.390077205E0
5.908113750E-1,-2.640000105E0,9.145050049E0,1.548000097E0,9.643539042E0
5.927730900E-1,-2.716050148E0,9.220950127E0,1.585950017E0,9.742591396E0
5.947348390E-1,-2.793000221E0,9.336000443E0,1.701000094E0,9.892176496E0
5.966963360E-1,-2.869950056E0,9.336000443E0,1.624950051E0,9.901413043E0
5.986579110E-1,-2.908050060E0,9.375000000E0,1.548000097E0,9.936985683E0
6.006195770E-1,-2.946000099E0,9.412950516E0,1.471050024E0,9.972288713E0
6.025812170E-1,-2.946000099E0,9.412950516E0,1.510050058E0,9.978116314E0
6.045430980E-1,-2.946000099E0,9.451050758E0,1.510050058E0,1.001406652E1
6.065049090E-1,-3.061050177E0,9.490050316E0,1.585950017E0,1.009684706E1
6.084667650E-1,-2.985000134E0,9.490050316E0,1.585950017E0,1.007405173E1
6.104286050E-1,-2.985000134E0,9.528000832E0,1.548000097E0,1.010392646E1
6.123904520E-1,-2.985000134E0,9.565950394E0,1.510050058E0,1.013399644E1
6.143522970E-1,-2.985000134E0,9.681000710E0,1.510050058E0,1.024266819E1
6.163141440E-1,-3.061050177E0,9.681000710E0,1.510050058E0,1.026508909E1
6.182759900E-1,-3.138000250E0,9.720000267E0,1.471050024E0,1.031937202E1
6.202376590E-1,-3.214950085E0,9.757950783E0,1.471050024E0,1.037870395E1
6.221994100E-1,-3.291000128E0,9.757950783E0,1.471050024E0,1.040251285E1
6.241616320E-1,-3.367950201E0,9.757950783E0,1.432950020E0,1.042180588E1
6.261237160E-1,-3.483000278E0,9.757950783E0,1.279950023E0,1.043969188E1
6.280856580E-1,-3.559950113E0,9.796050072E0,1.356000066E0,1.051068875E1
6.300476410E-1,-3.598050117E0,9.757950783E0,1.279950023E0,1.047863732E1
6.320097170E-1,-3.675000191E0,9.796050072E0,1.279950023E0,1.054070659E1
6.339717450E-1,-3.712950230E0,9.720000267E0,1.279950023E0,1.048344775E1
6.359336960E-1,-3.751050234E0,9.720000267E0,1.203000069E0,1.048789742E1
6.378956700E-1,-3.790050268E0,9.720000267E0,1.165050030E0,1.049762963E1
6.398575390E-1,-3.865950108E0,9.681000710E0,1.165050030E0,1.048926530E1
6.418194390E-1,-3.904950142E0,9.720000267E0,1.165050030E0,1.053965760E1
6.437815900E-1,-3.981000185E0,9.643050194E0,1.087950110E0,1.048906168E1
6.457436680E-1,-4.018949986E0,9.604950905E0,1.087950110E0,1.046855655E1
6.477053410E-1,-3.981000185E0,9.565950394E0,1.050000072E0,1.041433001E1
6.496671320E-1,-4.057950020E0,9.565950394E0,1.087950110E0,1.044787063E1
6.516289860E-1,-4.057950020E0,9.490050316E0,1.126049995E0,1.038248535E1
6.535908220E-1,-4.173000336E0,9.451050758E0,1.011000037E0,1.038067499E1
6.555524960E-1,-4.249050140E0,9.375000000E0,9.349500537E-1,1.033533665E1
6.575142140E-1,-4.288050175E0,9.375000000E0,7.429500222E-1,1.033585865E1
6.594766220E-1,-4.249050140E0,9.220950127E0,3.600000143E-1,1.015922971E1
6.614388270E-1,-4.249050140E0,9.220950127E0,1.680000126E-1,1.015423913E1
6.633996660E-1,-4.326000214E0,9.336000443E0,3.220500052E-1,1.029460530E1
6.653609060E-1,-4.441050053E0,9.375000000E0,4.360500276E-1,1.038285559E1
6.673233910E-1,-4.441050053E0,9.375000000E0,2.830500007E-1,1.037755597E1
6.692855140E-1,-4.441050053E0,9.336000443E0,2.449500114E-1,1.034136501E1
6.712469980E-1,-4.441050053E0,9.412950516E0,1.680000126E-1,1.040936055E1
6.732086700E-1,-4.479000092E0,9.375000000E0,9.195000678E-2,1.039040527E1
6.751705000E-1,-4.479000092E0,9.375000000E0,5.295000225E-2,1.039013333E1
6.771322840E-1,-4.518000126E0,9.412950516E0,1.500000060E-2,1.044108172E1
6.790938260E-1,-4.441050053E0,9.528000832E0,5.295000225E-2,1.051230370E1
6.810554390E-1,-4.479000092E0,9.451050758E0,1.300500035E-1,1.045947968E1
6.830169200E-1,-4.441050053E0,9.490050316E0,1.680000126E-1,1.047913186E1
6.849784400E-1,-4.363950253E0,9.412950516E0,2.449500114E-1,1.037823201E1
6.869394400E-1,-4.363950253E0,9.451050758E0,3.600000143E-1,1.041614239E1
6.889005930E-1,-4.402950287E0,9.490050316E0,3.979500234E-1,1.046925931E1
6.908624270E-1,-4.288050175E0,9.490050316E0,3.979500234E-1,1.042145832E1
6.928240580E-1,-4.249050140E0,9.412950516E0,3.600000143E-1,1.033381171E1
6.947857160E-1,-4.134000301E0,9.490050316E0,4.750500321E-1,1.036227224E1
6.967473660E-1,-4.096050262E0,9.490050316E0,4.360500276E-1,1.034547352E1
6.987090650E-1,-4.018949986E0,9.412950516E0,5.130000114E-1,1.024786638E1
7.006707500E-1,-3.904950142E0,9.490050316E0,5.130000114E-1,1.027486543E1
7.026324680E-1,-3.865950108E0,9.604950905E0,6.280500293E-1,1.037280574E1
7.045941590E-1,-3.828000069E0,9.528000832E0,6.660000086E-1,1.028979788E1
7.065560320E-1,-3.865950108E0,9.528000832E0,4.750500321E-1,1.029339801E1
7.085178510E-1,-3.675000191E0,9.604950905E0,6.280500293E-1,1.030316238E1
7.104797020E-1,-3.598050117E0,9.681000710E0,6.660000086E-1,1.034945870E1
7.124415430E-1,-3.559950113E0,9.681000710E0,6.660000086E-1,1.033627474E1
7.144033910E-1,-3.598050117E0,9.720000267E0,5.509500504E-1,1.037920593E1
7.163652360E-1,-3.598050117E0,9.681000710E0,5.130000114E-1,1.034074022E1
7.183269480E-1,-3.598050117E0,9.681000710E0,5.130000114E-1,1.034074022E1
7.202886990E-1,-3.559950113E0,9.720000267E0,4.750500321E-1,1.036230296E1
7.222503360E-1,-3.675000191E0,9.720000267E0,4.750500321E-1,1.040238935E1
7.242120070E-1,-3.712950230E0,9.720000267E0,5.509500504E-1,1.041959455E1
7.261735680E-1,-3.751050234E0,9.681000710E0,5.509500504E-1,1.039690812E1
7.281351610E-1,-3.751050234E0,9.835050583E0,4.360500276E-1,1.053511924E1
7.300970490E-1,-3.675000191E0,9.873000145E0,3.220500052E-1,1.053970941E1
7.320588510E-1,-3.712950230E0,9.873000145E0,4.360500276E-1,1.055709576E1
7.340204810E-1,-3.751050234E0,9.873000145E0,5.509500504E-1,1.057591867E1
7.359821610E-1,-3.828000069E0,9.796050072E0,7.810500264E-1,1.054638425E1
7.379436650E-1,-3.828000069E0,9.873000145E0,8.580000401E-1,1.062383549E1
7.399052280E-1,-3.790050268E0,9.910950661E0,8.959500194E-1,1.064866895E1
7.418669860E-1,-3.828000069E0,9.910950661E0,8.959500194E-1,1.066223494E1
7.438286870E-1,-3.865950108E0,9.873000145E0,9.349500537E-1,1.064405156E1
7.457905130E-1,-3.865950108E0,9.873000145E0,1.050000072E0,1.065477368E1
7.477523030E-1,-3.904950142E0,9.835050583E0,1.087950110E0,1.063769200E1
7.497140240E-1,-3.904950142E0,9.757950783E0,1.165050030E0,1.057466693E1
7.516757660E-1,-3.981000185E0,9.643050194E0,1.240950108E0,1.050603335E1
7.536372690E-1,-4.018949986E0,9.565950394E0,1.279950023E0,1.045455107E1
7.555988430E-1,-4.134000301E0,9.375000000E0,8.959500194E-1,1.028510136E1
7.575603300E-1,-4.018949986E0,9.375000000E0,1.050000072E0,1.025402770E1
7.595218430E-1,-3.904950142E0,9.528000832E0,1.279950023E0,1.037640147E1
7.614834450E-1,-3.751050234E0,9.490050316E0,1.471050024E0,1.030996707E1
7.634450100E-1,-3.636000156E0,9.451050758E0,1.585950017E0,1.024978512E1
7.654068600E-1,-3.520950079E0,9.451050758E0,1.855050087E0,1.025478721E1
7.673686260E-1,-3.483000278E0,9.412950516E0,1.969950080E0,1.022817832E1
7.693303060E-1,-3.406050205E0,9.451050758E0,2.046000004E0,1.025229996E1
7.712920120E-1,-3.330000162E0,9.451050758E0,2.275950193E0,1.027575841E1
7.732539000E-1,-3.253050089E0,9.412950516E0,2.391000032E0,1.024220940E1
7.752157210E-1,-3.138000250E0,9.412950516E0,2.545050144E0,1.024343513E1
7.771777970E-1,-3.100050211E0,9.412950516E0,2.698050022E0,1.027099911E1
7.791397980E-1,-2.985000134E0,9.412950516E0,2.851050138E0,1.027824645E1
7.811017990E-1,-2.908050060E0,9.375000000E0,3.043050051E0,1.027655262E1
7.830638000E-1,-2.793000221E0,9.412950516E0,3.234000206E0,1.033746802E1
7.850255750E-1,-2.601000071E0,9.412950516E0,3.426000118E0,1.034921811E1
7.869874160E-1,-2.524950027E0,9.451050758E0,3.579000235E0,1.041666817E1
7.889491270E-1,-2.410050154E0,9.336000443E0,3.771000147E0,1.035324529E1
7.909108770E-1,-2.256000042E0,9.412950516E0,3.924000263E0,1.044466140E1
7.928726940E-1,-2.140950203E0,9.375000000E0,4.078050137E0,1.044532363E1
7.948344910E-1,-1.987950087E0,9.412950516E0,4.269000053E0,1.052520520E1
7.967963350E-1,-1.873050094E0,9.375000000E0,4.423050404E0,1.053386522E1
7.987581730E-1,-1.720050097E0,9.375000000E0,4.461000443E0,1.052376940E1
8.007200200E-1,-1.642950058E0,9.336000443E0,4.729050159E0,1.059358790E1
8.026818650E-1,-1.489950061E0,9.336000443E0,4.806000233E0,1.060558785E1
8.046437120E-1,-1.375050068E0,9.375000000E0,4.959000111E0,1.069453458E1
8.066055580E-1,-1.144950032E0,9.336000443E0,5.035950184E0,1.066923657E1
8.085672850E-1,-9.919500351E-1,9.298050880E0,5.074050426E0,1.063878296E1
8.105290360E-1,-8.770500422E-1,9.220950127E0,5.112000465E0,1.057958821E1
8.124908980E-1,-6.850500107E-1,9.183000565E0,5.188950062E0,1.056986261E1
8.144527270E-1,-4.170000255E-1,9.145050049E0,5.151000023E0,1.050421966E1
8.164145320E-1,-2.629500031E-1,9.106050491E0,5.112000465E0,1.044614029E1
8.183763440E-1,-1.099500060E-1,9.067950249E0,5.151000023E0,1.042941091E1
8.203380360E-1,8.100000024E-2,8.991000175E0,5.151000023E0,1.036230893E1
8.222997810E-1,2.340000123E-1,8.953050613E0,5.227050304E0,1.036985661E1
8.242624990E-1,3.870000243E-1,8.953050613E0,5.227050304E0,1.037443681E1
8.262249320E-1,5.410500169E-1,8.877000809E0,5.341950417E0,1.037450301E1
8.281863630E-1,7.320000529E-1,8.838000298E0,5.341950417E0,1.035289851E1
8.301480880E-1,9.240000248E-1,8.838000298E0,5.266050339E0,1.032934226E1
8.321097350E-1,1.000050068E0,8.800050735E0,5.304000378E0,1.032343998E1
8.340714010E-1,1.077000022E0,8.761950493E0,5.266050339E0,1.027925054E1
8.360326020E-1,1.153950095E0,8.722949982E0,5.188950062E0,1.021502129E1
8.379939390E-1,1.192050099E0,8.722949982E0,5.188950062E0,1.021939541E1
8.399556910E-1,1.269000053E0,8.722949982E0,5.074050426E0,1.017085076E1
8.419173220E-1,1.306950092E0,8.722949982E0,4.996950150E0,1.013742994E1
8.438788010E-1,1.306950092E0,8.722949982E0,4.882050037E0,1.008128898E1
8.458403240E-1,1.306950092E0,8.761950493E0,4.768050194E0,1.006052671E1
8.478020900E-1,1.345050097E0,8.761950493E0,4.576050282E0,9.976029891E0
8.497637840E-1,1.345050097E0,8.685000420E0,4.345950127E0,9.804370176E0
8.517252970E-1,9.240000248E-1,8.340000153E0,2.812950134E0,8.849975539E0
8.536868630E-1,1.039050102E0,8.493000031E0,2.851050138E0,9.018822624E0
8.556485350E-1,1.077000022E0,8.377950668E0,3.081000090E0,8.991248412E0
8.576101730E-1,1.192050099E0,8.340000153E0,3.310950041E0,9.052015033E0
8.595718750E-1,1.269000053E0,8.263050079E0,3.426000118E0,9.034701686E0
8.615335580E-1,1.306950092E0,8.263050079E0,3.502950191E0,9.069552095E0
8.634952970E-1,1.306950092E0,8.224950790E0,3.541050196E0,9.049694500E0
8.654570190E-1,1.384050012E0,8.187000275E0,3.426000118E0,8.982207120E0
8.674192160E-1,1.345050097E0,8.224950790E0,3.234000206E0,8.939671840E0
8.693812640E-1,1.306950092E0,8.263050079E0,3.004050255E0,8.888781305E0
8.713433020E-1,1.306950092E0,8.302050591E0,2.928000212E0,8.899738636E0
8.733053430E-1,1.306950092E0,8.377950668E0,2.698050022E0,8.898182391E0
8.752672910E-1,1.269000053E0,8.377950668E0,2.506050110E0,8.836328745E0
8.772292660E-1,1.192050099E0,8.455050468E0,2.391000032E0,8.867115823E0
8.791910710E-1,1.153950095E0,8.532000542E0,2.314950228E0,8.915471307E0
8.811529400E-1,1.039050102E0,8.608050346E0,2.275950193E0,8.964268245E0
8.831147820E-1,9.619500637E-1,8.685000420E0,2.314950228E0,9.039556116E0
8.850766320E-1,9.240000248E-1,8.800050735E0,2.275950193E0,9.136444510E0
8.870384770E-1,7.320000529E-1,8.877000809E0,2.353049994E0,9.212698394E0
8.890003240E-1,6.940500140E-1,8.914950371E0,2.506050110E0,9.286459642E0
8.909609490E-1,5.790000558E-1,9.030000687E0,2.698050022E0,9.442225764E0
8.929219350E-1,4.639500082E-1,9.106050491E0,2.812950134E0,9.541912472E0
8.948837020E-1,3.490500152E-1,9.259950638E0,2.851050138E0,9.695205445E0
8.968452400E-1,2.340000123E-1,9.412950516E0,3.004050255E0,9.883456448E0
8.988071400E-1,1.189500093E-1,9.565950394E0,2.965950251E0,1.001590819E1
9.007689330E-1,4.200000316E-2,9.681000710E0,2.965950251E0,1.012523578E1
9.027308330E-1,-7.200000435E-2,9.835050583E0,2.889000177E0,1.025084026E1
9.046927020E-1,-1.480500102E-1,9.988050461E0,2.851050138E0,1.038804879E1
9.066545000E-1,-2.629500031E-1,1.018005085E1,2.773950100E0,1.055449559E1
9.086163190E-1,-4.170000255E-1,1.033305073E1,2.583000183E0,1.065916114E1
9.105783940E-1,-4.549500346E-1,1.044795036E1,2.391000032E0,1.072769908E1
9.125403940E-1,-5.700000525E-1,1.063995075E1,2.275950193E0,1.089556797E1
9.145025090E-1,-6.469500065E-1,1.083105087E1,2.275950193E0,1.108648531E1
9.164646050E-1,-7.999500632E-1,1.102305031E1,2.200050116E0,1.126888542E1
9.184265900E-1,-9.529500604E-1,1.117605019E1,2.085000038E0,1.140874387E1
9.203886070E-1,-1.106999993E0,1.140600014E1,2.085000038E0,1.164772567E1
9.223506040E-1,-1.222050071E0,1.163595009E1,1.969950080E0,1.186462996E1
9.243126070E-1,-1.375050068E0,1.178895092E1,1.893000126E0,1.201888414E1
9.262744210E-1,-1.528050065E0,1.201905060E1,1.893000126E0,1.226278776E1
9.282362940E-1,-1.758000135E0,1.217295074E1,1.893000126E0,1.244406460E1
9.301978200E-1,-1.911000133E0,1.232595062E1,1.816050053E0,1.260472205E1
9.321594480E-1,-2.026050091E0,1.247895050E1,1.777950048E0,1.276676118E1
9.341211050E-1,-2.179949999E0,1.263300037E1,1.701000094E0,1.293206410E1
9.360827540E-1,-2.332950115E0,1.274805069E1,1.548000097E0,1.305188710E1
9.380443250E-1,-2.524950027E0,1.286295033E1,1.471050024E0,1.319071082E1
9.400059150E-1,-2.677950144E0,1.297800064E1,1.279950023E0,1.331308340E1
9.419678040E-1,-2.830950022E0,1.313100052E1,1.126049995E0,1.347981607E1
9.439296050E-1,-3.061050177E0,1.316895103E1,1.011000037E0,1.355778081E1
9.458914140E-1,-3.330000162E0,1.324605083E1,8.200500607E-1,1.368280841E1
9.478532200E-1,-3.598050117E0,1.328400040E1,7.429500222E-1,1.378269226E1
9.498151040E-1,-4.018949986E0,1.328400040E1,7.810500264E-1,1.390059944E1
9.517769750E-1,-4.441050053E0,1.313100052E1,7.810500264E-1,1.388366448E1
9.537389520E-1,-4.863000393E0,1.297800064E1,5.899500251E-1,1.387174519E1
9.557008980E-1,-5.208000183E0,1.282395077E1,4.360500276E-1,1.384800054E1
9.576627730E-1,-5.323050022E0,1.263300037E1,4.750500321E-1,1.371689588E1
9.596246690E-1,-5.361000061E0,1.232595062E1,4.360500276E-1,1.344840214E1
9.615863070E-1,-5.284050465E0,1.201905060E1,4.750500321E-1,1.313790086E1
9.635480350E-1,-5.245950222E0,1.163595009E1,4.360500276E-1,1.277127511E1
9.655106210E-1,-5.092950344E0,1.125300026E1,2.830500007E-1,1.235509107E1
9.674729560E-1,-4.939050198E0,1.083105087E1,1.680000126E-1,1.190521331E1
9.694348550E-1,-4.824000359E0,1.044795036E1,1.300500035E-1,1.150858633E1
9.713968810E-1,-4.786050320E0,1.014105034E1,9.195000678E-2,1.121408197E1
9.733586770E-1,-4.747950077E0,9.873000145E0,1.680000126E-1,1.095661379E1
9.753205540E-1,-4.633050442E0,9.681000710E0,2.070000172E-1,1.073451350E1
9.772813580E-1,-4.555950165E0,9.490050316E0,2.830500007E-1,1.053080501E1
9.792424770E-1,-4.555950165E0,9.375000000E0,3.220500052E-1,1.042837586E1
9.812045820E-1,-4.479000092E0,9.298050880E0,3.220500052E-1,1.032564323E1
9.831663980E-1,-4.402950287E0,9.183000565E0,3.979500234E-1,1.019175328E1
9.851288410E-1,-4.326000214E0,9.106050491E0,3.220500052E-1,1.008653308E1
9.870910960E-1,-4.210950375E0,9.067950249E0,3.220500052E-1,1.000317654E1
9.890526920E-1,-4.057950020E0,8.991000175E0,3.220500052E-1,9.869587566E0
9.910144820E-1,-3.981000185E0,8.914950371E0,2.449500114E-1,9.766509258E0
9.929761130E-1,-3.981000185E0,8.914950371E0,2.070000172E-1,9.765631142E0
9.949377900E-1,-3.904950142E0,8.838000298E0,1.300500035E-1,9.663115330E0
9.968995290E-1,-3.865950108E0,8.722949982E0,-9.900000691E-2,9.541762291E0
9.988612490E-1,-3.675000191E0,8.800050735E0,-6.105000153E-2,9.536783863E0
1.000822938E0,-3.483000278E0,8.071949959E0,-6.360000372E-1,8.814315806E0
1.002784636E0,-3.175950050E0,7.918050289E0,-1.287000060E0,8.627777713E0
1.004745967E0,-3.022950172E0,8.187000275E0,-5.970000029E-1,8.747663131E0
1.006707405E0,-3.100050211E0,8.187000275E0,-6.105000153E-2,8.754485245E0
1.008668600E0,-3.175950050E0,8.340000153E0,9.195000678E-2,8.924724986E0
1.010629867E0,-3.138000250E0,8.340000153E0,1.500000060E-2,8.910828980E0
1.012591451E0,-3.100050211E0,8.416950226E0,1.500000060E-2,8.969703864E0
1.014552942E0,-3.100050211E0,8.377950668E0,-2.205000073E-2,8.933132425E0
1.016514984E0,-3.100050211E0,8.416950226E0,-2.205000073E-2,8.969718425E0
1.018476865E0,-3.100050211E0,8.377950668E0,-1.759500057E-1,8.934837834E0
1.020438521E0,-3.100050211E0,8.377950668E0,-6.105000153E-2,8.933313820E0
1.022400246E0,-3.022950172E0,8.340000153E0,-9.900000691E-2,8.871506709E0
1.024361933E0,-2.985000134E0,8.302050591E0,-1.369500011E-1,8.823436128E0
1.026323631E0,-2.985000134E0,8.263050079E0,-9.900000691E-2,8.786240573E0
1.028285546E0,-2.869950056E0,8.263050079E0,-2.205000073E-2,8.747290789E0
1.030247398E0,-2.869950056E0,8.302050591E0,1.500000060E-2,8.784126726E0
1.032209083E0,-2.830950022E0,8.340000153E0,9.195000678E-2,8.807856457E0
1.034170804E0,-2.869950056E0,8.340000153E0,1.300500035E-1,8.820948298E0
1.036132492E0,-2.830950022E0,8.340000153E0,5.295000225E-2,8.807535653E0
1.038094189E0,-2.830950022E0,8.302050591E0,5.295000225E-2,8.771609073E0
1.040055835E0,-2.716050148E0,8.302050591E0,9.195000678E-2,8.735526728E0
1.042017496E0,-2.640000105E0,8.263050079E0,5.295000225E-2,8.674698892E0
1.043979193E0,-2.563050032E0,8.224950790E0,9.195000678E-2,8.615538043E0
1.045940879E0,-2.563050032E0,8.224950790E0,9.195000678E-2,8.615538043E0
1.047902573E0,-2.524950027E0,8.148000717E0,9.195000678E-2,8.530752788E0
1.049864264E0,-2.448000193E0,8.071949959E0,9.195000678E-2,8.435492628E0
1.051825956E0,-2.485950232E0,8.110050201E0,1.680000126E-1,8.484166832E0
1.053787648E0,-2.485950232E0,8.032950401E0,9.195000678E-2,8.409321941E0
1.055749507E0,-2.448000193E0,8.032950401E0,9.195000678E-2,8.398181464E0
1.057711326E0,-2.371050119E0,8.032950401E0,1.300500035E-1,8.376579482E0
1.059672998E0,-2.371050119E0,8.032950401E0,1.300500035E-1,8.376579482E0
1.061634713E0,-2.295000076E0,8.032950401E0,1.300500035E-1,8.355371356E0
1.063596580E0,-2.332950115E0,8.032950401E0,9.195000678E-2,8.365369280E0
1.065558403E0,-2.332950115E0,8.032950401E0,9.195000678E-2,8.365369280E0
1.067520133E0,-2.332950115E0,8.110050201E0,2.070000172E-1,8.441470222E0
1.069481881E0,-2.371050119E0,8.148000717E0,1.680000126E-1,8.487639151E0
1.071443743E0,-2.332950115E0,8.148000717E0,1.680000126E-1,8.477074727E0
1.073405571E0,-2.410050154E0,8.148000717E0,1.300500035E-1,8.497950955E0
1.075367241E0,-2.410050154E0,8.187000275E0,9.195000678E-2,8.534856182E0
1.077328958E0,-2.485950232E0,8.224950790E0,1.500000060E-2,8.592437900E0
1.079290457E0,-2.524950027E0,8.148000717E0,-2.205000073E-2,8.530285724E0
1.081252026E0,-2.485950232E0,8.187000275E0,-6.105000153E-2,8.556322174E0
1.083213693E0,-2.485950232E0,8.224950790E0,9.195000678E-2,8.592916784E0
1.085175332E0,-2.563050032E0,8.302050591E0,5.295000225E-2,8.688847632E0
1.087136899E0,-2.640000105E0,8.224950790E0,1.500000060E-2,8.638266091E0
1.089098487E0,-2.640000105E0,8.224950790E0,-2.140500098E-1,8.640904667E0
1.091060327E0,-2.563050032E0,8.187000275E0,-2.140500098E-1,8.581492666E0
1.093022096E0,-2.601000071E0,8.110050201E0,-2.910000086E-1,8.521900999E0
1.094983821E0,-2.716050148E0,8.071949959E0,-3.670500219E-1,8.524554549E0
1.096945559E0,-2.830950022E0,7.803000450E0,-1.210950017E0,8.388533483E0
1.098907378E0,-2.716050148E0,7.918050289E0,-6.739500165E-1,8.398015088E0
1.100869173E0,-2.677950144E0,7.957050323E0,-2.140500098E-1,8.398326276E0
1.102830734E0,-2.716050148E0,7.957050323E0,1.500000060E-2,8.407841772E0
1.104792349E0,-2.755050182E0,7.957050323E0,-2.205000073E-2,8.420536655E0
1.106754008E0,-2.793000221E0,7.995000362E0,1.500000060E-2,8.468831444E0
1.108715654E0,-2.908050060E0,8.032950401E0,1.500000060E-2,8.543141829E0
1.110677400E0,-2.908050060E0,8.032950401E0,-1.369500011E-1,8.544226273E0
1.112639116E0,-2.946000099E0,7.995000362E0,-2.140500098E-1,8.523189825E0
1.114600741E0,-3.022950172E0,7.918050289E0,-3.670500219E-1,8.483423474E0
1.116562407E0,-3.061050177E0,7.918050289E0,-4.819500148E-1,8.502812734E0
1.118523923E0,-3.138000250E0,7.803000450E0,-5.209500194E-1,8.426461328E0
1.120485483E0,-3.175950050E0,7.803000450E0,-5.970000029E-1,8.445702087E0
1.122447018E0,-3.175950050E0,7.687950134E0,-5.970000029E-1,8.339523067E0
1.124408560E0,-3.175950050E0,7.612050533E0,-5.590500236E-1,8.266952823E0
1.126370083E0,-3.253050089E0,7.497000217E0,-6.360000372E-1,8.197063083E0
1.128331622E0,-3.253050089E0,7.420050144E0,-5.970000029E-1,8.123785326E0
1.130293160E0,-3.253050089E0,7.305000305E0,-5.590500236E-1,8.016102623E0
1.132254699E0,-3.253050089E0,7.152000427E0,-5.209500194E-1,7.874314822E0
1.134216102E0,-3.138000250E0,7.036950111E0,-5.590500236E-1,7.725169860E0
1.136177545E0,-3.175950050E0,6.844950199E0,-4.819500148E-1,7.561235201E0
1.138139054E0,-3.214950085E0,6.691950321E0,-4.819500148E-1,7.439783529E0
1.140100543E0,-3.138000250E0,6.615000248E0,-4.440000355E-1,7.335012603E0
1.142062090E0,-3.138000250E0,6.499950409E0,-4.060500264E-1,7.229196187E0
1.144023620E0,-3.061050177E0,6.385050297E0,-4.060500264E-1,7.092515217E0
1.145985340E0,-2.985000134E0,6.232050419E0,-4.060500264E-1,6.921961777E0
1.147947005E0,-2.985000134E0,6.232050419E0,-3.670500219E-1,6.919783518E0
1.149908752E0,-2.908050060E0,6.193950176E0,-4.060500264E-1,6.854680923E0
1.151870472E0,-2.830950022E0,6.154950142E0,-4.440000355E-1,6.789316999E0
1.153832115E0,-2.793000221E0,6.270000458E0,-4.440000355E-1,6.878291358E0
1.155793781E0,-2.793000221E0,6.309000492E0,-4.440000355E-1,6.913860967E0
1.157755298E0,-2.793000221E0,6.424050331E0,-5.209500194E-1,7.024290841E0
1.159716858E0,-2.869950056E0,6.499950409E0,-5.590500236E-1,7.127307035E0
1.161678766E0,-2.908050060E0,6.615000248E0,-6.360000372E-1,7.253928555E0
1.163640562E0,-2.946000099E0,6.691950321E0,-6.739500165E-1,7.342705517E0
1.165602417E0,-3.022950172E0,6.768000126E0,-6.739500165E-1,7.443000878E0
1.167564255E0,-2.985000134E0,6.807000160E0,-6.739500165E-1,7.463222200E0
1.169525743E0,-3.022950172E0,6.807000160E0,-6.360000372E-1,7.475157187E0
1.171487334E0,-3.022950172E0,6.883050442E0,-6.360000372E-1,7.544475275E0
1.173448914E0,-2.985000134E0,6.883050442E0,-6.360000372E-1,7.529349589E0
1.175410493E0,-3.022950172E0,6.922050476E0,-6.739500165E-1,7.583351447E0
1.177372158E0,-2.985000134E0,6.883050442E0,-7.510500550E-1,7.539939348E0
1.179333798E0,-2.985000134E0,6.844950199E0,-8.269500136E-1,7.513149496E0
1.181295365E0,-3.022950172E0,6.883050442E0,-8.659500480E-1,7.567329821E0
1.183256954E0,-3.022950172E0,6.844950199E0,-9.040500522E-1,7.537166409E0
1.185218439E0,-2.985000134E0,6.844950199E0,-9.420000315E-1,7.526681412E0
1.187179954E0,-3.022950172E0,6.807000160E0,-1.057050109E0,7.522687941E0
1.189141541E0,-2.985000134E0,6.807000160E0,-1.096050024E0,7.513108720E0
1.191103106E0,-3.022950172E0,6.807000160E0,-1.096050024E0,7.528267037E0
1.193064641E0,-3.061050177E0,6.844950199E0,-1.134000063E0,7.583490460E0
1.195026185E0,-2.985000134E0,6.807000160E0,-1.134000063E0,7.518738799E0
1.196987727E0,-3.022950172E0,6.768000126E0,-1.134000063E0,7.498667188E0
1.198949267E0,-3.022950172E0,6.768000126E0,-1.134000063E0,7.498667188E0
1.200910939E0,-2.946000099E0,6.807000160E0,-1.249050021E0,7.521588510E0
1.202872573E0,-3.061050177E0,6.768000126E0,-1.363950014E0,7.552232354E0
1.204834096E0,-3.061050177E0,6.807000160E0,-1.363950014E0,7.587202317E0
1.206795652E0,-3.022950172E0,6.768000126E0,-1.402050018E0,7.543858277E0
1.208757351E0,-3.061050177E0,6.844950199E0,-1.516950130E0,7.650131313E0
1.210719019E0,-3.100050211E0,6.844950199E0,-1.479000092E0,7.658400343E0
1.212680716E0,-3.138000250E0,6.883050442E0,-1.516950130E0,7.715216565E0
1.214642404E0,-3.175950050E0,6.960000515E0,-1.516950130E0,7.799320713E0
1.216604097E0,-3.291000128E0,6.960000515E0,-1.441050053E0,7.832554772E0
1.218565788E0,-3.214950085E0,7.036950111E0,-1.363950014E0,7.855885091E0
1.220527333E0,-3.367950201E0,7.113000393E0,-1.479000092E0,8.007827697E0
1.222488930E0,-3.367950201E0,7.228050232E0,-1.555950046E0,8.124578713E0
1.224450953E0,-3.445050240E0,7.228050232E0,-1.555950046E0,8.156841414E0
1.226412851E0,-3.445050240E0,7.342950344E0,-1.441050053E0,8.237955824E0
1.228374554E0,-3.445050240E0,7.381950378E0,-1.249050021E0,8.241461551E0
1.230336315E0,-3.445050240E0,7.534950256E0,-1.096050024E0,8.357342411E0
1.232298114E0,-3.445050240E0,7.612050533E0,-1.134000063E0,8.431941687E0
1.234259913E0,-3.520950079E0,7.650000572E0,-1.057050109E0,8.487458580E0
1.236221633E0,-3.520950079E0,7.726950169E0,-1.134000063E0,8.566726592E0
1.238183377E0,-3.559950113E0,7.842000484E0,-1.171950102E0,8.691586935E0
1.240145060E0,-3.598050117E0,7.842000484E0,-1.134000063E0,8.702234908E0
1.242106761E0,-3.636000156E0,7.957050323E0,-1.134000063E0,8.821627012E0
1.244068268E0,-3.675000191E0,8.032950401E0,-1.171950102E0,8.911082179E0
1.246029834E0,-3.904950142E0,8.148000717E0,-1.555950046E0,9.168398543E0
1.247991368E0,-3.790050268E0,8.263050079E0,-1.171950102E0,9.166021203E0
1.249952911E0,-3.790050268E0,8.302050591E0,-6.360000372E-1,9.148388989E0
1.251914449E0,-3.865950108E0,8.416950226E0,-4.440000355E-1,9.272958394E0
1.253875988E0,-3.865950108E0,8.455050468E0,-3.670500219E-1,9.304201974E0
1.255837526E0,-3.904950142E0,8.493000031E0,-2.520000041E-1,9.351106305E0
1.257799065E0,-4.057950020E0,8.608050346E0,-2.910000086E-1,9.521038291E0
1.259760603E0,-4.057950020E0,8.722949982E0,-2.910000086E-1,9.625045234E0
1.261722142E0,-4.173000336E0,8.761950493E0,-2.140500098E-1,9.707292395E0
1.263683815E0,-4.134000301E0,8.838000298E0,-9.900000691E-2,9.757561619E0
1.265645448E0,-4.096050262E0,8.953050613E0,-2.205000073E-2,9.845569016E0
1.267607345E0,-4.210950375E0,9.030000687E0,-9.900000691E-2,9.964076297E0
1.269569154E0,-4.249050140E0,9.183000565E0,-9.900000691E-2,1.011887975E1
1.271530828E0,-4.288050175E0,9.298050880E0,-1.369500011E-1,1.024011132E1
1.273492541E0,-4.249050140E0,9.412950516E0,-1.759500057E-1,1.032903785E1
1.275454229E0,-4.288050175E0,9.604950905E0,-2.520000041E-1,1.052168999E1
1.277415925E0,-4.288050175E0,9.796050072E0,-2.910000086E-1,1.069741335E1
1.279377267E0,-4.363950253E0,9.910950661E0,-3.670500219E-1,1.083539250E1
1.281338705E0,-4.326000214E0,1.010295010E1,-4.819500148E-1,1.100073426E1
1.283300304E0,-4.402950287E0,1.025595093E1,-5.970000029E-1,1.117707071E1
1.285261856E0,-4.402950287E0,1.041000080E1,-6.360000372E-1,1.132071482E1
1.287223753E0,-4.363950253E0,1.060095024E1,-7.120500207E-1,1.148613177E1
1.289185549E0,-4.363950253E0,1.067805004E1,-8.269500136E-1,1.156497561E1
1.291147168E0,-4.326000214E0,1.079295063E1,-9.810000658E-1,1.166895121E1
1.293108847E0,-4.288050175E0,1.087005043E1,-1.096050024E0,1.173655385E1
1.295070541E0,-4.173000336E0,1.083105087E1,-1.249050021E0,1.167414754E1
1.297032230E0,-4.096050262E0,1.075500011E1,-1.326000094E0,1.158472837E1
1.298994103E0,-4.134000301E0,1.083105087E1,-1.287000060E0,1.166438985E1
1.300955922E0,-4.134000301E0,1.087005043E1,-1.402050018E0,1.171382513E1
1.302917842E0,-4.096050262E0,1.079295063E1,-1.402050018E0,1.162889312E1
1.304879716E0,-3.981000185E0,1.067805004E1,-1.479000092E0,1.149158633E1
1.306841738E0,-3.904950142E0,1.060095024E1,-1.441050053E0,1.138882816E1
1.308803716E0,-3.828000069E0,1.044795036E1,-1.594050050E0,1.124074050E1
1.310765540E0,-3.828000069E0,1.033305073E1,-1.594050050E0,1.113402521E1
1.312727410E0,-3.790050268E0,1.025595093E1,-1.632000089E0,1.105497330E1
1.314689216E0,-3.790050268E0,1.021800041E1,-1.594050050E0,1.101421849E1
1.316651034E0,-3.828000069E0,1.018005085E1,-1.594050050E0,1.099217974E1
1.318612929E0,-3.904950142E0,1.018005085E1,-1.594050050E0,1.101921351E1
1.320574802E0,-4.018949986E0,1.018005085E1,-1.555950046E0,1.105469922E1
1.322536959E0,-4.096050262E0,1.014105034E1,-1.516950130E0,1.104172393E1
1.324499032E0,-4.210950375E0,1.018005085E1,-1.441050053E0,1.111045290E1
1.326460886E0,-4.363950253E0,1.025595093E1,-1.363950014E0,1.122893365E1
1.328422804E0,-4.518000126E0,1.033305073E1,-1.249050021E0,1.134655844E1
1.330384457E0,-4.633050442E0,1.037100029E1,-1.171950102E0,1.141911864E1
1.332346188E0,-4.747950077E0,1.041000080E1,-1.057050109E0,1.149036560E1
1.334308188E0,-4.824000359E0,1.044795036E1,-9.810000658E-1,1.154958906E1
1.336270109E0,-4.900950432E0,1.052505016E1,-8.269500136E-1,1.163958085E1
1.338231828E0,-5.016000271E0,1.052505016E1,-8.269500136E-1,1.168848947E1
1.340193593E0,-5.092950344E0,1.056300068E1,-8.269500136E-1,1.175580592E1
1.342155632E0,-5.092950344E0,1.052505016E1,-7.890000343E-1,1.171910172E1
1.344117591E0,-5.208000183E0,1.060095024E1,-8.269500136E-1,1.184007003E1
1.346079374E0,-5.208000183E0,1.056300068E1,-7.890000343E-1,1.180350670E1
1.348041208E0,-5.092950344E0,1.060095024E1,-9.040500522E-1,1.179557526E1
1.350003036E0,-5.284050465E0,1.056300068E1,-2.014950037E0,1.198157737E1
1.351964879E0,-4.978050232E0,1.060095024E1,-1.018950105E0,1.175582364E1
1.353926051E0,-4.900950432E0,1.056300068E1,-3.289500177E-1,1.164922773E1
1.355887419E0,-4.824000359E0,1.052505016E1,-1.759500057E-1,1.157923222E1
1.357849481E0,-4.786050320E0,1.048605061E1,-2.910000086E-1,1.153031725E1
1.359811340E0,-4.708950043E0,1.044795036E1,-4.440000355E-1,1.146869711E1
1.361773005E0,-4.671000004E0,1.044795036E1,-4.819500148E-1,1.145470138E1
1.363734727E0,-4.633050442E0,1.044795036E1,-4.440000355E-1,1.143774275E1
1.365696774E0,-4.555950165E0,1.044795036E1,-3.670500219E-1,1.140399379E1
1.367658725E0,-4.594050407E0,1.052505016E1,-2.910000086E-1,1.148767431E1
1.369620733E0,-4.555950165E0,1.056300068E1,-6.105000153E-2,1.150379904E1
1.371582725E0,-4.633050442E0,1.063995075E1,5.295000225E-2,1.160502099E1
1.373544791E0,-4.671000004E0,1.067805004E1,1.680000126E-1,1.165620941E1
1.375506821E0,-4.633050442E0,1.071600056E1,2.449500114E-1,1.167723533E1
1.377468051E0,-4.671000004E0,1.075500011E1,3.220500052E-1,1.172996098E1
1.379429515E0,-4.671000004E0,1.083105087E1,3.600000143E-1,1.180082641E1
1.381391606E0,-4.671000004E0,1.083105087E1,4.360500276E-1,1.180339119E1
1.383353513E0,-4.633050442E0,1.090800095E1,5.509500504E-1,1.186394483E1
1.385315211E0,-4.671000004E0,1.098495007E1,7.050000429E-1,1.195760821E1
1.387276973E0,-4.555950165E0,1.106100082E1,8.580000401E-1,1.199327250E1
1.389238787E0,-4.594050407E0,1.113795090E1,1.050000072E0,1.209387239E1
1.391200586E0,-4.633050442E0,1.117605019E1,1.126049995E0,1.215060668E1
1.393162261E0,-4.633050442E0,1.129095078E1,1.318050027E0,1.227550332E1
1.395123973E0,-4.594050407E0,1.132905006E1,1.356000066E0,1.230005734E1
1.397085491E0,-4.594050407E0,1.148295021E1,1.432950020E0,1.245057390E1
1.399047059E0,-4.555950165E0,1.152105045E1,1.395000100E0,1.246745005E1
1.401008771E0,-4.555950165E0,1.159800053E1,1.395000100E0,1.253859336E1
1.402970441E0,-4.479000092E0,1.163595009E1,1.395000100E0,1.254602732E1
1.404932498E0,-4.479000092E0,1.175100040E1,1.471050024E0,1.266141542E1
1.406894441E0,-4.479000092E0,1.178895092E1,1.471050024E0,1.269664498E1
1.408856142E0,-4.402950287E0,1.186605072E1,1.510050058E0,1.274634779E1
1.410817910E0,-4.326000214E0,1.190400028E1,1.510050058E0,1.275538129E1
1.412779364E0,-4.173000336E0,1.186605072E1,1.585950017E0,1.267802544E1
1.414740910E0,-4.134000301E0,1.186605072E1,1.624950051E0,1.267018472E1
1.416702447E0,-3.904950142E0,1.182795048E1,1.740000129E0,1.257682983E1
1.418663987E0,-3.712950230E0,1.178895092E1,1.816050053E0,1.249253381E1
1.420625778E0,-3.520950079E0,1.171305084E1,1.969950080E0,1.238843625E1
1.422587475E0,-3.330000162E0,1.163595009E1,2.161050081E0,1.229448547E1
1.424549168E0,-3.022950172E0,1.148295021E1,2.275950193E0,1.209034005E1
1.426510862E0,-2.793000221E0,1.136805058E1,2.314950228E0,1.193282945E1
1.428472733E0,-2.524950027E0,1.121400070E1,2.506050110E0,1.176475548E1
1.430434552E0,-2.256000042E0,1.110000038E1,2.545050144E0,1.160934214E1
1.432396188E0,-2.065050125E0,1.094595051E1,2.583000183E0,1.143460338E1
1.434357871E0,-1.758000135E0,1.075500011E1,2.620950222E0,1.120847768E1
1.436319430E0,-1.489950061E0,1.063995075E1,2.583000183E0,1.104990467E1
1.438281025E0,-1.106999993E0,1.041000080E1,2.506050110E0,1.076447179E1
1.440243048E0,-8.770500422E-1,1.025595093E1,2.545050144E0,1.060334977E1
1.442204946E0,-6.079500318E-1,1.010295010E1,2.545050144E0,1.043630606E1
1.444166799E0,-3.780000210E-1,9.910950661E0,2.583000183E0,1.024898614E1
1.446128655E0,-7.200000435E-2,9.796050072E0,2.545050144E0,1.012151477E1
1.448090364E0,1.189500093E-1,9.643050194E0,2.545050144E0,9.973958411E0
1.450052117E0,3.109500110E-1,9.490050316E0,2.583000183E0,9.840205021E0
1.452013978E0,4.639500082E-1,9.451050758E0,2.583000183E0,9.808644147E0
1.453975807E0,5.410500169E-1,9.298050880E0,2.659050226E0,9.685919337E0
1.455938372E0,7.320000529E-1,9.220950127E0,2.659050226E0,9.624567181E0
1.457900725E0,6.940500140E-1,9.145050049E0,2.736000061E0,9.570754524E0
1.459862260E0,6.550500393E-1,9.106050491E0,2.773950100E0,9.541700334E0
1.461824035E0,5.790000558E-1,8.991000175E0,2.812950134E0,9.438538747E0
1.463785352E0,4.260000288E-1,8.953050613E0,2.851050138E0,9.405693925E0
1.465746804E0,3.109500110E-1,8.953050613E0,2.889000177E0,9.412764058E0
1.467708546E0,2.340000123E-1,8.838000298E0,2.889000177E0,9.301146558E0
1.469670196E0,1.189500093E-1,8.722949982E0,2.812950134E0,9.166062074E0
1.471631940E0,8.100000024E-2,8.647050858E0,2.812950134E0,9.093444781E0
1.473593657E0,1.570500135E-1,8.493000031E0,2.736000061E0,8.924203637E0
1.475555301E0,1.189500093E-1,8.340000153E0,2.698050022E0,8.766369007E0
1.477516967E0,8.100000024E-2,8.302050591E0,2.773950100E0,8.753593786E0
1.479478742E0,4.200000316E-2,8.224950790E0,2.812950134E0,8.692771018E0
1.481440461E0,4.200000316E-2,8.110050201E0,2.812950134E0,8.584134594E0
1.483402509E0,-7.200000435E-2,8.071949959E0,2.773950100E0,8.535593670E0
1.485364461E0,-1.099500060E-1,8.032950401E0,2.659050226E0,8.462324105E0
1.487326245E0,-1.480500102E-1,8.032950401E0,2.736000061E0,8.487396968E0
1.489288079E0,-2.629500031E-1,7.995000362E0,2.698050022E0,8.442076014E0
1.491249742E0,-3.019500077E-1,8.032950401E0,2.698050022E0,8.479324258E0
1.493211459E0,-4.930500090E-1,8.032950401E0,2.773950100E0,8.512707537E0
1.495173326E0,-5.320500135E-1,8.032950401E0,2.698050022E0,8.490632679E0
1.497135149E0,-6.469500065E-1,8.032950401E0,2.773950100E0,8.523006255E0
1.499096820E0,-7.620000243E-1,8.071949959E0,2.736000061E0,8.557027317E0
1.501058535E0,-8.770500422E-1,8.071949959E0,2.736000061E0,8.568038822E0
1.503020403E0,-8.770500422E-1,8.110050201E0,2.698050022E0,8.591950010E0
1.504982226E0,-9.529500604E-1,8.110050201E0,2.698050022E0,8.600029187E0
1.506943942E0,-1.068000078E0,8.187000275E0,2.698050022E0,8.686027377E0
1.508905689E0,-1.183050036E0,8.187000275E0,2.583000183E0,8.665937389E0
1.510867506E0,-1.336950064E0,8.148000717E0,2.467950106E0,8.617895850E0
1.512829303E0,-1.413000107E0,8.187000275E0,2.467950106E0,8.666851823E0
1.514791208E0,-1.528050065E0,8.263050079E0,2.506050110E0,8.768877965E0
1.516753077E0,-1.489950061E0,8.302050591E0,2.506050110E0,8.799106906E0
1.518715280E0,-1.528050065E0,8.302050591E0,2.506050110E0,8.805638430E0
1.520677385E0,-1.642950058E0,8.377950668E0,2.506050110E0,8.897731702E0
1.522638962E0,-1.642950058E0,8.455050468E0,2.467950106E0,8.959795815E0
1.524600694E0,-1.720050097E0,8.532000542E0,2.506050110E0,9.057256358E0
1.526562415E0,-1.758000135E0,8.569950104E0,2.467950106E0,9.089850768E0
1.528524146E0,-1.834950089E0,8.647050858E0,2.430000067E0,9.167520422E0
1.530485832E0,-1.873050094E0,8.608050346E0,2.391000032E0,9.128183202E0
1.532447531E0,-1.795950055E0,8.608050346E0,2.314950228E0,9.093017207E0
1.534408861E0,-1.642950058E0,8.493000031E0,1.930950046E0,8.863346010E0
1.536370300E0,-1.489950061E0,8.493000031E0,1.740000129E0,8.796510737E0
1.538332249E0,-1.413000107E0,8.532000542E0,1.893000126E0,8.852968543E0
1.540294024E0,-1.413000107E0,8.493000031E0,2.046000004E0,8.849504779E0
1.542255703E0,-1.336950064E0,8.532000542E0,2.046000004E0,8.875166744E0
1.544217411E0,-1.183050036E0,8.340000153E0,1.969950080E0,8.650775298E0
1.546179234E0,-1.336950064E0,8.532000542E0,2.046000004E0,8.875166744E0
1.548141024E0,-1.452000022E0,8.569950104E0,1.777950048E0,8.872060371E0
1.550102939E0,-1.260000110E0,8.569950104E0,1.548000097E0,8.799315278E0
1.552064807E0,-1.068000078E0,8.608050346E0,1.510050058E0,8.804510555E0
1.554026425E0,-9.529500604E-1,8.532000542E0,1.510050058E0,8.716845659E0
1.555988117E0,-9.150000215E-1,8.685000420E0,1.701000094E0,8.897182624E0
1.557949809E0,-9.529500604E-1,8.761950493E0,1.777950048E0,8.991162140E0
1.559911501E0,-9.150000215E-1,8.838000298E0,1.777950048E0,9.061378519E0
1.561873344E0,-9.150000215E-1,8.914950371E0,1.740000129E0,9.129138273E0
1.563835163E0,-8.770500422E-1,8.953050613E0,1.701000094E0,9.155311758E0
1.565796835E0,-7.999500632E-1,8.991000175E0,1.701000094E0,9.185390878E0
1.567758550E0,-7.620000243E-1,8.914950371E0,1.740000129E0,9.115074580E0
1.569720238E0,-6.079500318E-1,8.991000175E0,1.777950048E0,9.185248705E0
1.571681934E0,-5.320500135E-1,8.991000175E0,1.930950046E0,9.211391287E0
1.573643990E0,-4.549500346E-1,8.991000175E0,1.969950080E0,9.215517729E0
1.575605937E0,-4.170000255E-1,9.030000687E0,1.893000126E0,9.235705219E0
1.577567946E0,-3.400500119E-1,9.067950249E0,1.969950080E0,9.285691091E0
1.579529937E0,-2.250000089E-1,9.067950249E0,2.046000004E0,9.298626927E0
1.581491444E0,-1.870500147E-1,9.106050491E0,2.046000004E0,9.334948274E0
1.583453093E0,-1.099500060E-1,9.106050491E0,2.046000004E0,9.333721689E0
1.585414958E0,-1.099500060E-1,9.106050491E0,2.122950077E0,9.350890951E0
1.587376769E0,-7.200000435E-2,9.106050491E0,2.122950077E0,9.350521728E0
1.589338757E0,-7.200000435E-2,9.106050491E0,2.200050116E0,9.368327495E0
1.591300693E0,4.050000105E-3,9.145050049E0,2.238000154E0,9.414913780E0
1.593262570E0,-3.299999982E-2,9.145050049E0,2.353049994E0,9.442980126E0
1.595224464E0,4.200000316E-2,9.220950127E0,2.430000067E0,9.535857883E0
1.597186252E0,-3.299999982E-2,9.220950127E0,2.506050110E0,9.555485199E0
1.599148074E0,-1.099500060E-1,9.259950638E0,2.506050110E0,9.593699077E0
1.601109923E0,-2.629500031E-1,9.298050880E0,2.545050144E0,9.643659737E0
1.603071764E0,-4.170000255E-1,9.336000443E0,2.506050110E0,9.675488641E0
1.605033432E0,-6.079500318E-1,9.375000000E0,2.506050110E0,9.723194711E0
1.606995151E0,-7.620000243E-1,9.412950516E0,2.430000067E0,9.751368200E0
1.608957048E0,-8.380500674E-1,9.451050758E0,2.430000067E0,9.794365149E0
1.610918903E0,-8.770500422E-1,9.528000832E0,2.506050110E0,9.891021372E0
1.612880749E0,-9.919500351E-1,9.490050316E0,2.506050110E0,9.865358940E0
1.614842598E0,-1.144950032E0,9.565950394E0,2.430000067E0,9.935955809E0
1.616804623E0,-1.297950029E0,9.565950394E0,2.391000032E0,9.945298506E0
1.618766596E0,-1.375050068E0,9.490050316E0,2.314950228E0,9.864624283E0
1.620728372E0,-1.489950061E0,9.528000832E0,2.275950193E0,9.908718399E0
1.622690209E0,-1.528050065E0,9.528000832E0,2.275950193E0,9.914518956E0
1.624651877E0,-1.567050099E0,9.490050316E0,2.275950193E0,9.884161588E0
1.626613594E0,-1.681950092E0,9.490050316E0,2.238000154E0,9.894374958E0
1.628575326E0,-1.795950055E0,9.490050316E0,2.161050081E0,9.897304131E0
1.630537053E0,-1.834950089E0,9.375000000E0,2.085000038E0,9.777775411E0
1.632498841E0,-1.873050094E0,9.259950638E0,2.008050203E0,9.658533434E0
1.634460635E0,-1.873050094E0,9.220950127E0,1.969950080E0,9.613269018E0
1.636422175E0,-1.873050094E0,9.145050049E0,1.855050087E0,9.517429688E0
1.638383790E0,-1.987950087E0,9.183000565E0,1.816050053E0,9.569612464E0
1.640345675E0,-2.026050091E0,9.067950249E0,1.816050053E0,9.467345905E0
1.642307481E0,-2.179949999E0,9.067950249E0,1.777950048E0,9.494261956E0
1.644269870E0,-2.179949999E0,9.030000687E0,1.740000129E0,9.450962641E0
1.646232091E0,-2.218050003E0,8.991000175E0,1.740000129E0,9.422602104E0
1.648194369E0,-2.179949999E0,8.991000175E0,1.740000129E0,9.413706316E0
1.650156630E0,-2.256000042E0,8.991000175E0,1.701000094E0,9.424490526E0
1.652118631E0,-2.256000042E0,8.991000175E0,1.740000129E0,9.431607540E0
1.654080709E0,-2.371050119E0,8.953050613E0,1.777950048E0,9.430805922E0
1.656042501E0,-2.332950115E0,8.877000809E0,1.893000126E0,9.371619341E0
1.658004387E0,-2.332950115E0,8.838000298E0,1.855050087E0,9.327063650E0
1.659966226E0,-2.410050154E0,8.800050735E0,1.893000126E0,9.318405667E0
1.661928079E0,-2.371050119E0,8.800050735E0,1.855050087E0,9.300751714E0
1.663890058E0,-2.371050119E0,8.800050735E0,1.777950048E0,9.285681342E0
1.665852000E0,-2.448000193E0,8.761950493E0,1.816050053E0,9.276988691E0
1.667813965E0,-2.485950232E0,8.722949982E0,1.701000094E0,9.228391315E0
1.669775955E0,-2.485950232E0,8.722949982E0,1.624950051E0,9.214676750E0
1.671737598E0,-2.524950027E0,8.685000420E0,1.624950051E0,9.189399741E0
1.673699342E0,-2.524950027E0,8.685000420E0,1.585950017E0,9.182583644E0
1.675661430E0,-2.524950027E0,8.647050858E0,1.624950051E0,9.153541601E0
1.677623417E0,-2.485950232E0,8.608050346E0,1.510050058E0,9.086183495E0
1.679585210E0,-2.601000071E0,8.647050858E0,1.471050024E0,9.148807467E0
1.681547049E0,-2.601000071E0,8.569950104E0,1.471050024E0,9.075970159E0
1.683508941E0,-2.677950144E0,8.608050346E0,1.471050024E0,9.134217860E0
1.685470817E0,-2.793000221E0,8.608050346E0,1.395000100E0,9.156713727E0
1.687432659E0,-2.830950022E0,8.569950104E0,1.395000100E0,9.132598102E0
1.689394511E0,-2.755050182E0,8.532000542E0,1.432950020E0,9.079574908E0
1.691356296E0,-2.793000221E0,8.416950226E0,1.356000066E0,8.971323064E0
1.693318111E0,-2.755050182E0,8.416950226E0,1.279950023E0,8.948386708E0
1.695279828E0,-2.677950144E0,8.377950668E0,1.356000066E0,8.899450014E0
1.697241573E0,-2.677950144E0,8.302050591E0,1.395000100E0,8.834109251E0
1.699203571E0,-2.755050182E0,8.377950668E0,1.279950023E0,8.911713133E0
1.701165494E0,-2.716050148E0,8.416950226E0,9.349500537E-1,8.893599446E0
1.703127683E0,-2.563050032E0,8.416950226E0,1.165050030E0,8.875337635E0
1.705089797E0,-2.524950027E0,8.377950668E0,1.471050024E0,8.872959947E0
1.707051957E0,-2.601000071E0,8.416950226E0,1.471050024E0,8.931642662E0
1.709014104E0,-2.640000105E0,8.377950668E0,1.471050024E0,8.906382326E0
1.710975900E0,-2.563050032E0,8.377950668E0,1.126049995E0,8.833304674E0
1.712937799E0,-2.640000105E0,8.493000031E0,1.203000069E0,8.974845917E0
1.714899641E0,-2.830950022E0,8.608050346E0,1.165050030E0,9.136199996E0
1.716861496E0,-2.830950022E0,8.532000542E0,1.087950110E0,9.054995677E0
1.718823384E0,-2.869950056E0,8.608050346E0,1.087950110E0,9.138860954E0
1.720785263E0,-2.908050060E0,8.569950104E0,1.126049995E0,9.119692348E0
1.722747284E0,-2.985000134E0,8.608050346E0,1.087950110E0,9.175641231E0
1.724709263E0,-2.985000134E0,8.608050346E0,1.050000072E0,9.171218933E0
1.726671267E0,-2.985000134E0,8.569950104E0,9.349500537E-1,9.122960165E0
1.728633263E0,-3.061050177E0,8.608050346E0,1.011000037E0,9.191881202E0
1.730595220E0,-3.100050211E0,8.685000420E0,1.011000037E0,9.276942636E0
1.732557188E0,-3.100050211E0,8.685000420E0,9.349500537E-1,9.268963006E0
1.734519058E0,-3.100050211E0,8.685000420E0,8.200500607E-1,9.258078942E0
1.736480957E0,-3.175950050E0,8.685000420E0,7.429500222E-1,9.277276850E0
1.738442915E0,-3.175950050E0,8.722949982E0,7.050000429E-1,9.309862521E0
1.740404865E0,-3.175950050E0,8.647050858E0,6.280500293E-1,9.233233133E0
1.742366874E0,-3.175950050E0,8.532000542E0,5.509500504E-1,9.120594165E0
1.744328865E0,-3.138000250E0,8.493000031E0,5.509500504E-1,9.070922833E0
1.746290552E0,-3.175950050E0,8.377950668E0,4.360500276E-1,8.970331975E0
1.748252328E0,-3.100050211E0,8.263050079E0,4.360500276E-1,8.836200968E0
1.750214374E0,-3.100050211E0,8.224950790E0,3.979500234E-1,8.798777815E0
1.752176335E0,-3.138000250E0,8.302050591E0,3.220500052E-1,8.881148900E0
1.754138703E0,-3.138000250E0,8.302050591E0,9.195000678E-2,8.875784156E0
1.756100951E0,-3.253050089E0,8.455050468E0,1.680000126E-1,9.060818799E0
1.758062143E0,-3.330000162E0,8.608050346E0,3.220500052E-1,9.235320679E0
1.760023645E0,-3.367950201E0,8.647050858E0,3.220500052E-1,9.285380622E0
1.761986270E0,-3.330000162E0,8.608050346E0,2.449500114E-1,9.232953609E0
1.763948566E0,-3.406050205E0,8.569950104E0,2.070000172E-1,9.224319584E0
1.765910201E0,-3.367950201E0,8.455050468E0,1.680000126E-1,9.102702400E0
1.767872029E0,-3.406050205E0,8.377950668E0,1.500000060E-2,9.043863135E0
1.769833878E0,-3.406050205E0,8.224950790E0,5.295000225E-2,8.902460177E0
1.771795720E0,-3.483000278E0,8.110050201E0,-6.105000153E-2,8.826547021E0
1.773757567E0,-3.483000278E0,8.032950401E0,-1.369500011E-1,8.756616835E0
1.775719412E0,-3.406050205E0,7.918050289E0,-9.900000691E-2,8.620121773E0
1.777681258E0,-3.406050205E0,7.765050411E0,-9.900000691E-2,8.479798753E0
1.779643104E0,-3.445050240E0,7.687950134E0,-6.105000153E-2,8.424765606E0
1.781604951E0,-3.406050205E0,7.612050533E0,-1.369500011E-1,8.340458418E0
1.783566797E0,-3.445050240E0,7.612050533E0,-6.105000153E-2,8.355561715E0
1.785528774E0,-3.445050240E0,7.497000217E0,-9.900000691E-2,8.251253506E0
1.787490716E0,-3.406050205E0,7.458000183E0,-9.900000691E-2,8.199557655E0
1.789452771E0,-3.520950079E0,7.420050144E0,-9.900000691E-2,8.213649287E0
1.791414793E0,-3.559950113E0,7.381950378E0,-2.140500098E-1,8.198307972E0
1.793376745E0,-3.712950230E0,7.420050144E0,-7.120500207E-1,8.327674272E0
1.795338718E0,-3.559950113E0,7.305000305E0,-2.140500098E-1,8.129089228E0
1.797300781E0,-3.520950079E0,7.305000305E0,9.195000678E-2,8.109782594E0
1.799262807E0,-3.559950113E0,7.189950466E0,9.195000678E-2,8.023533344E0
1.801224938E0,-3.675000191E0,7.113000393E0,-2.205000073E-2,8.006302967E0
1.803187038E0,-3.751050234E0,7.228050232E0,-6.105000153E-2,8.143636480E0
1.805149022E0,-3.712950230E0,7.267050266E0,-2.205000073E-2,8.160668182E0
1.807111040E0,-3.865950108E0,7.228050232E0,-1.369500011E-1,8.198111715E0
1.809072856E0,-3.943050146E0,7.381950378E0,-1.369500011E-1,8.370160760E0
1.811034732E0,-3.904950142E0,7.381950378E0,-1.369500011E-1,8.352280066E0
1.812996617E0,-3.904950142E0,7.497000217E0,-2.520000041E-1,8.456781413E0
1.814958499E0,-3.904950142E0,7.497000217E0,-1.369500011E-1,8.454135271E0
1.816920295E0,-3.904950142E0,7.534950256E0,-9.900000691E-2,8.487279421E0
1.818882117E0,-3.943050146E0,7.612050533E0,-6.105000153E-2,8.572904110E0
1.820843981E0,-3.943050146E0,7.650000572E0,-2.205000073E-2,8.606430120E0
1.822805822E0,-3.943050146E0,7.726950169E0,-1.369500011E-1,8.675952897E0
1.824767714E0,-3.981000185E0,7.803000450E0,-1.369500011E-1,8.760932245E0
1.826729591E0,-3.981000185E0,7.842000484E0,-1.369500011E-1,8.795685839E0
1.828691612E0,-3.943050146E0,7.842000484E0,-9.900000691E-2,8.778064539E0
1.830653591E0,-3.943050146E0,7.957050323E0,-1.369500011E-1,8.881500414E0
1.832615555E0,-3.865950108E0,7.995000362E0,-6.105000153E-2,8.880840508E0
1.834577520E0,-3.943050146E0,8.032950401E0,5.295000225E-2,8.948672544E0
1.836539525E0,-3.981000185E0,8.071949959E0,1.500000060E-2,9.000275752E0
1.838501518E0,-3.828000069E0,8.110050201E0,1.680000126E-1,8.969655668E0
1.840463700E0,-3.751050234E0,8.148000717E0,1.680000126E-1,8.971539308E0
1.842425826E0,-3.559950113E0,8.263050079E0,2.070000172E-1,8.999671685E0
1.844386544E0,-3.367950201E0,8.340000153E0,2.449500114E-1,8.997704797E0
1.846347674E0,-3.253050089E0,8.340000153E0,3.600000143E-1,8.959215224E0
1.848309642E0,-3.253050089E0,8.377950668E0,3.979500234E-1,8.996152317E0
1.850271364E0,-3.214950085E0,8.377950668E0,5.509500504E-1,8.990523200E0
1.852233592E0,-3.367950201E0,8.340000153E0,5.509500504E-1,9.011228388E0
1.854195672E0,-3.483000278E0,8.377950668E0,6.660000086E-1,9.097521880E0
1.856157523E0,-3.330000162E0,8.569950104E0,8.959500194E-1,9.237730906E0
1.858119410E0,-3.175950050E0,8.569950104E0,8.959500194E-1,9.183323469E0
1.860080934E0,-3.138000250E0,8.608050346E0,9.730500579E-1,9.213707329E0
1.862042564E0,-3.214950085E0,8.647050858E0,1.050000072E0,9.284928257E0
1.864004266E0,-3.100050211E0,8.761950493E0,1.240950108E0,9.376675579E0
1.865965947E0,-3.061050177E0,8.800050735E0,1.356000066E0,9.415394697E0
1.867927938E0,-2.908050060E0,8.800050735E0,1.356000066E0,9.366770216E0
1.869889851E0,-2.946000099E0,8.838000298E0,1.432950020E0,9.425630568E0
1.871851687E0,-2.908050060E0,8.877000809E0,1.471050024E0,9.456314646E0
1.873813545E0,-2.946000099E0,8.953050613E0,1.471050024E0,9.539393065E0
1.875775389E0,-3.175950050E0,8.953050613E0,1.471050024E0,9.612895619E0
1.877737238E0,-3.214950085E0,8.991000175E0,1.471050024E0,9.661158128E0
1.879698783E0,-3.138000250E0,9.030000687E0,1.471050024E0,9.672225501E0
1.881660406E0,-3.022950172E0,9.106050491E0,1.471050024E0,9.706820873E0
1.883622245E0,-3.022950172E0,9.145050049E0,1.471050024E0,9.743416050E0
1.885584020E0,-3.022950172E0,9.220950127E0,1.432950020E0,9.809051674E0
1.887545744E0,-2.946000099E0,9.220950127E0,1.432950020E0,9.785611048E0
1.889507483E0,-3.022950172E0,9.259950638E0,1.471050024E0,9.851340098E0
1.891469287E0,-3.022950172E0,9.336000443E0,1.432950020E0,9.917281773E0
1.893431082E0,-2.946000099E0,9.451050758E0,1.471050024E0,1.000825985E1
1.895392623E0,-2.908050060E0,9.528000832E0,1.471050024E0,1.006993263E1
1.897354238E0,-2.908050060E0,9.565950394E0,1.471050024E0,1.010584733E1
1.899315942E0,-2.908050060E0,9.643050194E0,1.471050024E0,1.017885850E1
1.901277620E0,-2.946000099E0,9.681000710E0,1.471050024E0,1.022568724E1
1.903239509E0,-2.908050060E0,9.796050072E0,1.471050024E0,1.032392078E1
1.905201327E0,-2.946000099E0,9.835050583E0,1.471050024E0,1.037165005E1
1.907162953E0,-2.946000099E0,9.910950661E0,1.471050024E0,1.044365107E1
1.909124636E0,-2.908050060E0,1.002600002E1,1.471050024E0,1.054236310E1
1.911086374E0,-2.908050060E0,1.010295010E1,1.471050024E0,1.061557083E1
1.913048096E0,-2.946000099E0,1.014105034E1,1.548000097E0,1.067314962E1
1.915009600E0,-2.908050060E0,1.021800041E1,1.510050058E0,1.073054233E1
1.916971171E0,-3.100050211E0,1.014105034E1,1.510050058E0,1.071127744E1
1.918932659E0,-3.138000250E0,1.029495049E1,1.432950020E0,1.085755022E1
1.920894171E0,-2.869950056E0,1.037100029E1,1.432950020E0,1.085576373E1
1.922855398E0,-2.677950144E0,1.044795036E1,1.432950020E0,1.088046091E1
1.924816709E0,-2.640000105E0,1.044795036E1,1.471050024E0,1.087627029E1
1.926778451E0,-2.677950144E0,1.048605061E1,1.471050024E0,1.092211804E1
1.928740077E0,-2.716050148E0,1.052505016E1,1.471050024E0,1.096893785E1
1.930701736E0,-2.830950022E0,1.041000080E1,1.432950020E0,1.088281859E1
1.932663385E0,-2.908050060E0,1.041000080E1,1.356000066E0,1.089328270E1
1.934624590E0,-2.755050182E0,1.044795036E1,9.349500537E-1,1.084546449E1
1.936585925E0,-2.640000105E0,1.044795036E1,1.126049995E0,1.083500143E1
1.938547633E0,-2.640000105E0,1.037100029E1,1.165050030E0,1.076497047E1
1.940509231E0,-2.677950144E0,1.041000080E1,1.240950108E0,1.082032767E1
1.942470805E0,-2.563050032E0,1.033305073E1,9.730500579E-1,1.069055608E1
1.944432387E0,-2.524950027E0,1.033305073E1,1.050000072E0,1.068877028E1
1.946394413E0,-2.524950027E0,1.029495049E1,9.730500579E-1,1.064463266E1
1.948356308E0,-2.563050032E0,1.018005085E1,8.959500194E-1,1.053590942E1
1.950318006E0,-2.677950144E0,1.018005085E1,8.580000401E-1,1.056129804E1
1.952279766E0,-2.755050182E0,1.018005085E1,8.580000401E-1,1.058111057E1
1.954241581E0,-2.755050182E0,1.014105034E1,7.429500222E-1,1.053485540E1
1.956203380E0,-2.755050182E0,1.006500053E1,7.050000429E-1,1.045904213E1
1.958165055E0,-2.793000221E0,1.006500053E1,7.050000429E-1,1.046910269E1
1.960126766E0,-2.793000221E0,9.988050461E0,7.050000429E-1,1.039514441E1
1.962088344E0,-2.830950022E0,9.949950218E0,6.660000086E-1,1.036625986E1
1.964049944E0,-2.985000134E0,9.835050583E0,6.280500293E-1,1.029722742E1
1.966012507E0,-3.138000250E0,9.949950218E0,3.600000143E-1,1.043926027E1
1.967974788E0,-3.022950172E0,9.835050583E0,9.195000678E-2,1.028955308E1
1.969936020E0,-2.946000099E0,9.643050194E0,-2.205000073E-2,1.008304616E1
1.971897559E0,-3.061050177E0,9.757950783E0,2.070000172E-1,1.022890418E1
1.973858787E0,-2.985000134E0,9.796050072E0,3.600000143E-1,1.024706899E1
1.975820103E0,-3.100050211E0,9.681000710E0,3.220500052E-1,1.017033934E1
1.977782715E0,-3.138000250E0,9.681000710E0,2.070000172E-1,1.017898174E1
1.979744947E0,-3.253050089E0,9.604950905E0,2.449500114E-1,1.014383642E1
1.981706548E0,-3.253050089E0,9.604950905E0,1.300500035E-1,1.014171237E1
1.983668334E0,-3.253050089E0,9.643050194E0,2.070000172E-1,1.017907662E1
1.985630174E0,-3.330000162E0,9.565950394E0,2.070000172E-1,1.013109851E1
1.987592009E0,-3.445050240E0,9.528000832E0,2.449500114E-1,1.013465202E1
1.989553723E0,-3.520950079E0,9.528000832E0,2.830500007E-1,1.016169310E1
1.991515473E0,-3.483000278E0,9.490050316E0,2.449500114E-1,1.011199023E1
1.993476569E0,-3.559950113E0,9.451050758E0,3.220500052E-1,1.010442089E1
1.995437857E0,-3.636000156E0,9.490050316E0,4.360500276E-1,1.017210361E1
1.997399644E0,-3.712950230E0,9.528000832E0,5.899500251E-1,1.024289218E1
1.999361298E0,-3.828000069E0,9.490050316E0,5.509500504E-1,1.024783809E1
2.001324033E0,-3.865950108E0,9.604950905E0,5.130000114E-1,1.036647583E1
2.003286452E0,-4.173000336E0,9.757950783E0,-2.140500098E-1,1.061495891E1
2.005247300E0,-4.096050262E0,9.796050072E0,1.300500035E-1,1.061871639E1
2.007208608E0,-4.096050262E0,9.681000710E0,7.810500264E-1,1.054084634E1
2.009170365E0,-4.173000336E0,9.835050583E0,9.349500537E-1,1.072456448E1
2.011131990E0,-4.210950375E0,9.949950218E0,7.050000429E-1,1.082730980E1
2.013093739E0,-4.249050140E0,9.988050461E0,7.810500264E-1,1.088235353E1
2.015055452E0,-4.326000214E0,1.006500053E1,7.810500264E-1,1.098310306E1
2.017017141E0,-4.363950253E0,1.010295010E1,8.959500194E-1,1.104157547E1
2.018978838E0,-4.479000092E0,1.010295010E1,1.011000037E0,1.109743950E1
2.020940664E0,-4.555950165E0,1.033305073E1,1.050000072E0,1.134156600E1
2.022902452E0,-4.555950165E0,1.037100029E1,1.050000072E0,1.137615177E1
2.024863994E0,-4.555950165E0,1.044795036E1,1.165050030E0,1.145747312E1
2.026825608E0,-4.555950165E0,1.052505016E1,1.279950023E0,1.154000151E1
2.028787493E0,-4.555950165E0,1.056300068E1,1.432950020E0,1.159254118E1
2.030749298E0,-4.518000126E0,1.060095024E1,1.471050024E0,1.161707620E1
2.032711116E0,-4.518000126E0,1.044795036E1,1.585950017E0,1.149292084E1
2.034672923E0,-4.479000092E0,1.060095024E1,1.663050056E0,1.162786839E1
2.036634462E0,-4.441050053E0,1.063995075E1,1.624950051E0,1.164353642E1
2.038596079E0,-4.441050053E0,1.060095024E1,1.624950051E0,1.160790826E1
2.040557424E0,-4.441050053E0,1.056300068E1,1.816050053E0,1.160163552E1
2.042518848E0,-4.363950253E0,1.060095024E1,1.930950046E0,1.162552261E1
2.044480376E0,-4.326000214E0,1.048605061E1,2.161050081E0,1.154736648E1
2.046441894E0,-4.363950253E0,1.041000080E1,2.200050116E0,1.150010430E1
2.048403571E0,-4.479000092E0,1.029495049E1,2.391000032E0,1.147886442E1
2.050365202E0,-4.671000004E0,1.014105034E1,2.467950106E0,1.143459316E1
2.052326905E0,-4.479000092E0,1.018005085E1,2.620950222E0,1.142647177E1
2.054288587E0,-4.363950253E0,1.006500053E1,2.659050226E0,1.128799564E1
2.056249972E0,-4.173000336E0,9.988050461E0,2.736000061E0,1.116515921E1
2.058211440E0,-4.057950020E0,9.910950661E0,3.004050255E0,1.112286920E1
2.060172630E0,-3.904950142E0,9.873000145E0,3.234000206E0,1.109880736E1
2.062133901E0,-3.790050268E0,9.757950783E0,3.426000118E0,1.101451594E1
2.064095665E0,-3.675000191E0,9.757950783E0,3.618000269E0,1.103689974E1
2.066057284E0,-3.636000156E0,9.720000267E0,3.733050108E0,1.102880617E1
2.068018760E0,-3.559950113E0,9.681000710E0,3.847950220E0,1.100916620E1
2.069980281E0,-3.367950201E0,9.643050194E0,3.963000298E0,1.095613422E1
2.071941821E0,-3.253050089E0,9.604950905E0,4.039050102E0,1.091564668E1
2.073903356E0,-3.138000250E0,9.528000832E0,4.153950214E0,1.085749270E1
2.075864761E0,-3.061050177E0,9.565950394E0,4.269000053E0,1.091337696E1
2.077826204E0,-2.985000134E0,9.490050316E0,4.308000088E0,1.084113212E1
2.079787907E0,-2.830950022E0,9.451050758E0,4.345950127E0,1.078071987E1
2.081749524E0,-2.677950144E0,9.375000000E0,4.461000443E0,1.072205983E1
2.083710915E0,-2.563050032E0,9.259950638E0,4.576050282E0,1.064218716E1
2.085672372E0,-2.371050119E0,9.183000565E0,4.690950394E0,1.058085033E1
2.087633878E0,-2.256000042E0,9.106050491E0,4.729050159E0,1.050588441E1
2.089595370E0,-2.065050125E0,9.030000687E0,4.768050194E0,1.041823627E1
2.091556912E0,-1.911000133E0,8.991000175E0,4.768050194E0,1.035491711E1
2.093518442E0,-1.681950092E0,8.953050613E0,4.843950272E0,1.031745732E1
2.095479803E0,-1.489950061E0,8.914950371E0,4.882050037E0,1.027281382E1
2.097441213E0,-1.260000110E0,8.800050735E0,4.882050037E0,1.014213517E1
2.099402772E0,-9.529500604E-1,8.761950493E0,4.921050072E0,1.009438577E1
2.101364288E0,-7.620000243E-1,8.761950493E0,4.921050072E0,1.007815232E1
2.103325830E0,-4.930500090E-1,8.685000420E0,4.921050072E0,9.994451681E0
2.105287365E0,-2.629500031E-1,8.608050346E0,4.996950150E0,9.956765753E0
2.107248904E0,4.050000105E-3,8.493000031E0,5.035950184E0,9.873796644E0
2.109210442E0,2.719500065E-1,8.416950226E0,5.035950184E0,9.812227177E0
2.111172566E0,4.260000288E-1,8.340000153E0,4.996950150E0,9.731731057E0
2.113134519E0,6.550500393E-1,8.224950790E0,4.996950150E0,9.646160731E0
2.115096322E0,9.240000248E-1,8.187000275E0,4.996950150E0,9.635883994E0
2.117058155E0,1.153950095E0,8.071949959E0,4.959000111E0,9.543566370E0
2.119019823E0,1.306950092E0,8.032950401E0,4.921050072E0,9.510685806E0
2.120981540E0,1.345050097E0,7.995000362E0,4.921050072E0,9.483982516E0
2.122943048E0,1.498950124E0,7.957050323E0,4.806000233E0,9.415898234E0
2.124904617E0,1.614000082E0,7.957050323E0,4.690950394E0,9.376815116E0
2.126866374E0,1.767000079E0,7.918050289E0,4.653000355E0,9.352444705E0
2.128828076E0,1.920000076E0,7.957050323E0,4.461000443E0,9.322101431E0
2.130789723E0,2.035050154E0,7.918050289E0,4.231050014E0,9.205364400E0
2.132751386E0,2.035050154E0,7.957050323E0,3.847950220E0,9.069884226E0
2.134713082E0,1.920000076E0,7.612050533E0,2.773950100E0,8.326134323E0
2.136674769E0,1.959000111E0,7.726950169E0,2.506050110E0,8.356059328E0
2.138636503E0,2.035050154E0,7.765050411E0,2.545050144E0,8.421087653E0
2.140598226E0,2.074050188E0,7.726950169E0,2.467950106E0,8.372468024E0
2.142560229E0,2.149950027E0,7.803000450E0,2.545050144E0,8.484478852E0
2.144522149E0,2.188950062E0,7.842000484E0,2.467950106E0,8.507599644E0
2.146483668E0,2.227050066E0,7.918050289E0,2.583000183E0,8.621320219E0
2.148445305E0,2.188950062E0,7.995000362E0,2.583000183E0,8.682362761E0
2.150406932E0,2.149950027E0,8.032950401E0,2.545050144E0,8.696427859E0
2.152368582E0,2.111999989E0,8.148000717E0,2.545050144E0,8.793619271E0
2.154330326E0,2.111999989E0,8.224950790E0,2.545050144E0,8.864966988E0
2.156292043E0,2.035050154E0,8.302050591E0,2.506050110E0,8.907623717E0
2.158253732E0,1.959000111E0,8.377950668E0,2.467950106E0,8.950894735E0
2.160215430E0,1.767000079E0,8.569950104E0,2.467950106E0,9.091595668E0
2.162177476E0,1.690050125E0,8.685000420E0,2.430000067E0,9.175532793E0
2.164139423E0,1.498950124E0,8.877000809E0,2.391000032E0,9.314766556E0
2.166101253E0,1.345050097E0,9.067950249E0,2.391000032E0,9.473846243E0
2.168063117E0,1.269000053E0,9.220950127E0,2.430000067E0,9.619832779E0
2.170024960E0,1.114950061E0,9.412950516E0,2.506050110E0,9.804439719E0
2.171986810E0,8.850000501E-1,9.565950394E0,2.467950106E0,9.918740331E0
2.173947724E0,7.320000529E-1,9.757950783E0,2.506050110E0,1.010117393E1
2.175908902E0,4.639500082E-1,9.910950661E0,2.583000183E0,1.025251591E1
2.177870501E0,3.109500110E-1,1.006500053E1,2.545050144E0,1.038644337E1
2.179831977E0,1.189500093E-1,1.025595093E1,2.583000183E0,1.057688841E1
2.181793751E0,-3.299999982E-2,1.048605061E1,2.583000183E0,1.079954797E1
2.183755438E0,-3.400500119E-1,1.075500011E1,2.583000183E0,1.106605401E1
2.185717164E0,-4.930500090E-1,1.094595051E1,2.467950106E0,1.123154970E1
2.187678855E0,-6.469500065E-1,1.113795090E1,2.353049994E0,1.140216378E1
2.189640547E0,-8.770500422E-1,1.132905006E1,2.238000154E0,1.158124505E1
2.191602239E0,-1.106999993E0,1.155900097E1,2.161050081E0,1.181126961E1
2.193564112E0,-1.260000110E0,1.171305084E1,2.046000004E0,1.195697605E1
2.195525932E0,-1.489950061E0,1.194300079E1,1.893000126E0,1.218354089E1
2.197487798E0,-1.681950092E0,1.209600067E1,1.740000129E0,1.233571193E1
2.199449639E0,-1.911000133E0,1.232595062E1,1.701000094E0,1.258866083E1
2.201411802E0,-2.179949999E0,1.251795101E1,1.548000097E0,1.280029624E1
2.203373870E0,-2.448000193E0,1.267095089E1,1.624950051E0,1.300715819E1
2.205335679E0,-2.716050148E0,1.290105057E1,1.548000097E0,1.327442422E1
2.207297564E0,-3.022950172E0,1.309305096E1,1.548000097E0,1.352636372E1
2.209259453E0,-3.367950201E0,1.320795059E1,1.510050058E0,1.371398186E1
2.211221338E0,-3.751050234E0,1.339905071E1,1.548000097E0,1.400004436E1
2.213183133E0,-4.096050262E0,1.351395035E1,1.548000097E0,1.420566035E1
2.215144954E0,-4.479000092E0,1.359105110E1,1.585950017E0,1.439768555E1
2.217106669E0,-4.824000359E0,1.355205059E1,1.548000097E0,1.446808069E1
2.219068415E0,-5.169000149E0,1.355205059E1,1.510050058E0,1.458275999E1
2.221030402E0,-5.398950100E0,1.339905071E1,1.432950020E0,1.451676851E1
2.222992326E0,-5.553000450E0,1.316895103E1,1.279950023E0,1.434905423E1
2.224954205E0,-5.590950489E0,1.290105057E1,1.050000072E0,1.409958628E1
2.226916098E0,-5.514000416E0,1.251795101E1,7.050000429E-1,1.369672673E1
2.228877936E0,-5.361000061E0,1.205805016E1,4.750500321E-1,1.320464190E1
2.230839790E0,-5.208000183E0,1.163595009E1,3.600000143E-1,1.275336036E1
2.232801630E0,-5.169000149E0,1.113795090E1,3.600000143E-1,1.228422211E1
2.234763477E0,-5.053950310E0,1.075500011E1,3.979500234E-1,1.188994556E1
2.236725143E0,-5.053950310E0,1.048605061E1,5.509500504E-1,1.165346373E1
2.238686862E0,-5.092950344E0,1.025595093E1,7.810500264E-1,1.147748717E1
2.240648549E0,-5.131050110E0,1.006500053E1,8.959500194E-1,1.133290066E1
2.242610246E0,-5.131050110E0,9.988050461E0,1.050000072E0,1.127791326E1
2.244572252E0,-5.131050110E0,9.910950661E0,1.126049995E0,1.121706766E1
2.246534168E0,-5.131050110E0,9.796050072E0,1.087950110E0,1.111188137E1
2.248495868E0,-5.131050110E0,9.835050583E0,1.087950110E0,1.114627878E1
2.250457631E0,-5.092950344E0,9.757950783E0,9.730500579E-1,1.105000331E1
2.252419625E0,-4.978050232E0,9.757950783E0,9.349500537E-1,1.099421299E1
2.254381552E0,-4.863000393E0,9.757950783E0,1.011000037E0,1.094936059E1
2.256343260E0,-4.747950077E0,9.757950783E0,9.349500537E-1,1.089195873E1
2.258305026E0,-4.671000004E0,9.757950783E0,8.580000401E-1,1.085228126E1
2.260266705E0,-4.594050407E0,9.796050072E0,8.200500607E-1,1.085082385E1
2.262228410E0,-4.555950165E0,9.757950783E0,6.280500293E-1,1.078743400E1
2.264191136E0,-4.518000126E0,8.914950371E0,-7.120500207E-1,1.001976449E1
2.266153562E0,-4.096050262E0,9.106050491E0,-8.659500480E-1,1.002235765E1
2.268114439E0,-4.018949986E0,9.220950127E0,5.295000225E-2,1.005886097E1
2.270075780E0,-4.096050262E0,9.412950516E0,6.660000086E-1,1.028711919E1
2.272037666E0,-4.134000301E0,9.412950516E0,7.429500222E-1,1.030754921E1
2.273999393E0,-4.057950020E0,9.451050758E0,7.810500264E-1,1.031500644E1
2.275961665E0,-4.057950020E0,9.451050758E0,7.810500264E-1,1.031500644E1
2.277923778E0,-4.057950020E0,9.451050758E0,5.899500251E-1,1.030229876E1
2.279885390E0,-3.943050146E0,9.451050758E0,5.130000114E-1,1.025344693E1
2.281847156E0,-4.057950020E0,9.451050758E0,4.360500276E-1,1.029463251E1
2.283809510E0,-3.981000185E0,9.528000832E0,3.979500234E-1,1.033390181E1
2.285771692E0,-3.904950142E0,9.412950516E0,3.220500052E-1,1.019588099E1
2.287734247E0,-3.865950108E0,9.412950516E0,2.449500114E-1,1.017886085E1
2.289696692E0,-3.751050234E0,9.298050880E0,1.680000126E-1,1.002757957E1
2.291658386E0,-3.559950113E0,9.220950127E0,1.680000126E-1,9.885716466E0
2.293620304E0,-3.559950113E0,9.145050049E0,1.300500035E-1,9.814382212E0
2.295582138E0,-3.483000278E0,9.106050491E0,1.300500035E-1,9.750300482E0
2.297543997E0,-3.406050205E0,9.067950249E0,1.680000126E-1,9.687988631E0
2.299505885E0,-3.330000162E0,9.030000687E0,1.680000126E-1,9.625904502E0
2.301467764E0,-3.253050089E0,8.953050613E0,1.300500035E-1,9.526613416E0
2.303429421E0,-3.175950050E0,8.877000809E0,2.449500114E-1,9.431214269E0
2.305391146E0,-3.175950050E0,8.877000809E0,2.830500007E-1,9.432280710E0
2.307352112E0,-3.061050177E0,8.877000809E0,3.600000143E-1,9.396849023E0
2.309313300E0,-3.100050211E0,8.722949982E0,3.220500052E-1,9.263038589E0
2.311274717E0,-3.022950172E0,8.722949982E0,3.220500052E-1,9.237521331E0
2.313236067E0,-2.946000099E0,8.647050858E0,3.220500052E-1,9.140794349E0
2.315197593E0,-2.869950056E0,8.569950104E0,3.220500052E-1,9.043471364E0
2.317159067E0,-2.793000221E0,8.493000031E0,3.600000143E-1,8.947709191E0
2.319121337E0,-2.793000221E0,8.455050468E0,3.220500052E-1,8.910243816E0
2.321083374E0,-2.793000221E0,8.377950668E0,2.070000172E-1,8.833671753E0
2.323044873E0,-2.755050182E0,8.302050591E0,1.500000060E-2,8.747260743E0
2.325006530E0,-2.716050148E0,8.302050591E0,-2.205000073E-2,8.735070613E0
2.326968252E0,-2.677950144E0,8.224950790E0,-9.900000691E-2,8.650493251E0
2.328929937E0,-2.601000071E0,8.110050201E0,-1.369500011E-1,8.518032105E0
2.330891451E0,-2.524950027E0,8.032950401E0,-1.759500057E-1,8.422269480E0
2.332853016E0,-2.485950232E0,7.957050323E0,-2.140500098E-1,8.339089627E0
2.334814369E0,-2.485950232E0,7.842000484E0,-2.140500098E-1,8.229382575E0
2.336775785E0,-2.371050119E0,7.726950169E0,-9.900000691E-2,8.083157711E0
2.338737517E0,-2.448000193E0,7.687950134E0,-2.205000073E-2,8.068318810E0
2.340699129E0,-2.410050154E0,7.650000572E0,1.500000060E-2,8.020665527E0
2.342660835E0,-2.410050154E0,7.612050533E0,-2.205000073E-2,7.984493802E0
2.344622513E0,-2.485950232E0,7.534950256E0,-6.105000153E-2,7.934680272E0
2.346584208E0,-2.524950027E0,7.573050499E0,-6.105000153E-2,7.983119290E0
2.348545898E0,-2.524950027E0,7.497000217E0,-2.205000073E-2,7.910807235E0
2.350507752E0,-2.524950027E0,7.534950256E0,-2.205000073E-2,7.946781374E0
2.352469571E0,-2.524950027E0,7.534950256E0,5.295000225E-2,7.946927187E0
2.354431288E0,-2.601000071E0,7.458000183E0,1.500000060E-2,7.898556393E0
2.356393035E0,-2.677950144E0,7.342950344E0,-9.900000691E-2,7.816657708E0
2.358355032E0,-2.677950144E0,7.381950378E0,-2.910000086E-1,7.858071606E0
2.360316956E0,-2.601000071E0,7.381950378E0,-2.910000086E-1,7.832181929E0
2.362278641E0,-2.563050032E0,7.381950378E0,-1.759500057E-1,7.816225128E0
2.364240406E0,-2.524950027E0,7.342950344E0,-2.205000073E-2,7.764971256E0
2.366202220E0,-2.448000193E0,7.342950344E0,1.500000060E-2,7.740274523E0
2.368164019E0,-2.448000193E0,7.342950344E0,1.500000060E-2,7.740274523E0
2.370125918E0,-2.448000193E0,7.305000305E0,9.195000678E-2,7.704815975E0
2.372087788E0,-2.448000193E0,7.267050266E0,1.500000060E-2,7.668308126E0
2.374049571E0,-2.485950232E0,7.342950344E0,1.500000060E-2,7.752360499E0
2.376011391E0,-2.524950027E0,7.420050144E0,1.500000060E-2,7.837904170E0
2.377972926E0,-2.563050032E0,7.342950344E0,-2.205000073E-2,7.777443759E0
2.379934544E0,-2.640000105E0,7.381950378E0,-2.205000073E-2,7.839851921E0
2.381896429E0,-2.640000105E0,7.381950378E0,-9.900000691E-2,7.840445966E0
2.383858235E0,-2.677950144E0,7.381950378E0,-9.900000691E-2,7.853305633E0
2.385819900E0,-2.677950144E0,7.420050144E0,-6.105000153E-2,7.888744401E0
2.387781612E0,-2.755050182E0,7.458000183E0,-9.900000691E-2,7.951218098E0
2.389743121E0,-2.716050148E0,7.420050144E0,-6.105000153E-2,7.901759276E0
2.391704689E0,-2.677950144E0,7.420050144E0,-9.900000691E-2,7.889129364E0
2.393666222E0,-2.677950144E0,7.420050144E0,-9.900000691E-2,7.889129364E0
2.395627766E0,-2.755050182E0,7.381950378E0,-1.369500011E-1,7.880497966E0
2.397589283E0,-2.716050148E0,7.342950344E0,-9.900000691E-2,7.829792409E0
2.399550823E0,-2.793000221E0,7.267050266E0,-1.759500057E-1,7.787286319E0
2.401512495E0,-2.793000221E0,7.228050232E0,-1.759500057E-1,7.750904386E0
2.403474129E0,-2.755050182E0,7.228050232E0,-2.140500098E-1,7.738270418E0
2.405435876E0,-2.793000221E0,7.152000427E0,-2.520000041E-1,7.682152325E0
2.407397590E0,-2.755050182E0,7.075050354E0,-2.140500098E-1,7.595555044E0
2.409359414E0,-2.755050182E0,6.960000515E0,-2.910000086E-1,7.491100699E0
2.411321206E0,-2.716050148E0,6.883050442E0,-2.910000086E-1,7.405267908E0
2.413282702E0,-2.716050148E0,6.768000126E0,-2.910000086E-1,7.298454296E0
2.415244285E0,-2.677950144E0,6.691950321E0,-3.289500177E-1,7.215388014E0
2.417206040E0,-2.677950144E0,6.615000248E0,-3.289500177E-1,7.144078203E0
2.419167744E0,-2.677950144E0,6.499950409E0,-3.289500177E-1,7.037682886E0
2.421129201E0,-2.563050032E0,6.424050331E0,-3.670500219E-1,6.926209197E0
2.423090737E0,-2.524950027E0,6.346950531E0,-3.670500219E-1,6.840605193E0
2.425052455E0,-2.410050154E0,6.193950176E0,-4.060500264E-1,6.658696355E0
2.427014120E0,-2.332950115E0,6.270000458E0,-3.289500177E-1,6.698042258E0
2.428975997E0,-2.295000076E0,6.309000492E0,-2.910000086E-1,6.719761422E0
2.430937812E0,-2.218050003E0,6.346950531E0,-2.910000086E-1,6.729651392E0
2.432899318E0,-2.332950115E0,6.462000370E0,-3.670500219E-1,6.880031304E0
2.434860905E0,-2.410050154E0,6.615000248E0,-3.670500219E-1,7.049914591E0
2.436822435E0,-2.485950232E0,6.730050087E0,-4.060500264E-1,7.185986317E0
2.438783982E0,-2.563050032E0,6.768000126E0,-4.060500264E-1,7.248443129E0
2.440745698E0,-2.677950144E0,6.844950199E0,-3.670500219E-1,7.359312870E0
2.442707365E0,-2.716050148E0,6.960000515E0,-4.060500264E-1,7.482206372E0
2.444669266E0,-2.716050148E0,6.997950554E0,-4.060500264E-1,7.517520667E0
2.446631081E0,-2.830950022E0,7.113000393E0,-4.819500148E-1,7.670810155E0
2.448592754E0,-2.830950022E0,7.189950466E0,-4.440000355E-1,7.739948434E0
2.450554468E0,-2.946000099E0,7.189950466E0,-5.970000029E-1,7.792991293E0
2.452516021E0,-2.908050060E0,7.267050266E0,-5.590500236E-1,7.847248668E0
2.454477622E0,-2.985000134E0,7.381950378E0,-5.970000029E-1,7.984975028E0
2.456439297E0,-3.061050177E0,7.381950378E0,-6.739500165E-1,8.019814723E0
2.458400941E0,-3.100050211E0,7.420050144E0,-5.970000029E-1,8.063737623E0
2.460362508E0,-3.100050211E0,7.458000183E0,-6.360000372E-1,8.101640210E0
2.462324097E0,-3.138000250E0,7.458000183E0,-6.360000372E-1,8.116237327E0
2.464285761E0,-3.175950050E0,7.497000217E0,-5.970000029E-1,8.163827533E0
2.466247403E0,-3.253050089E0,7.420050144E0,-6.739500165E-1,8.129802436E0
2.468209104E0,-3.214950085E0,7.420050144E0,-7.120500207E-1,8.117885403E0
2.470170787E0,-3.214950085E0,7.381950378E0,-8.269500136E-1,8.094006533E0
2.472132481E0,-3.291000128E0,7.342950344E0,-8.269500136E-1,8.089094382E0
2.474094172E0,-3.253050089E0,7.305000305E0,-8.659500480E-1,8.043334745E0
2.476056270E0,-3.291000128E0,7.267050266E0,-9.420000315E-1,8.032936292E0
2.478018249E0,-3.291000128E0,7.228050232E0,-9.810000658E-1,8.002359222E0
2.479980043E0,-3.330000162E0,7.189950466E0,-9.810000658E-1,7.984149918E0
2.481941881E0,-3.367950201E0,7.189950466E0,-1.018950105E0,8.004794537E0
2.483903594E0,-3.406050205E0,7.189950466E0,-1.096050024E0,8.031057923E0
2.485865343E0,-3.406050205E0,7.152000427E0,-1.171950102E0,8.007855840E0
2.487826845E0,-3.445050240E0,7.152000427E0,-1.210950017E0,8.030310156E0
2.489788420E0,-3.445050240E0,7.189950466E0,-1.249050021E0,8.069937101E0
2.491750132E0,-3.520950079E0,7.152000427E0,-1.326000094E0,8.081242220E0
2.493711803E0,-3.520950079E0,7.189950466E0,-1.326000094E0,8.114847714E0
2.495673455E0,-3.520950079E0,7.228050232E0,-1.287000060E0,8.142368744E0
2.497635112E0,-3.520950079E0,7.267050266E0,-1.249050021E0,8.171122015E0
2.499596810E0,-3.559950113E0,7.342950344E0,-1.134000063E0,8.238817919E0
2.501558495E0,-3.598050117E0,7.420050144E0,-1.171950102E0,8.329260221E0
2.503520183E0,-3.559950113E0,7.497000217E0,-1.057050109E0,8.366338028E0
2.505481874E0,-3.559950113E0,7.534950256E0,-1.057050109E0,8.400361606E0
2.507443567E0,-3.559950113E0,7.650000572E0,-1.057050109E0,8.503711454E0
2.509405259E0,-3.559950113E0,7.726950169E0,-1.018950105E0,8.568387423E0
2.511367132E0,-3.598050117E0,7.918050289E0,-1.096050024E0,8.766003119E0
2.513328951E0,-3.598050117E0,7.957050323E0,-1.171950102E0,8.811020460E0
2.515290613E0,-3.559950113E0,7.995000362E0,-1.326000094E0,8.851641196E0
2.517252328E0,-3.520950079E0,8.071949959E0,-1.402050018E0,8.917354420E0
2.519214195E0,-3.483000278E0,8.187000275E0,-1.363950014E0,9.001034612E0
2.521176018E0,-3.483000278E0,8.263050079E0,-1.363950014E0,9.070261694E0
2.523137689E0,-3.559950113E0,8.377950668E0,-1.363950014E0,9.204545717E0
2.525099405E0,-3.559950113E0,8.416950226E0,-1.441050053E0,9.251752330E0
2.527060764E0,-3.598050117E0,8.532000542E0,-1.287000060E0,9.348655895E0
2.529022237E0,-3.636000156E0,8.569950104E0,-1.171950102E0,9.382857185E0
2.530983921E0,-3.712950230E0,8.647050858E0,-1.134000063E0,9.478578168E0
2.532945543E0,-3.828000069E0,8.647050858E0,-1.057050109E0,9.515378500E0
2.534907113E0,-3.865950108E0,8.761950493E0,-1.057050109E0,9.635076627E0
2.536868699E0,-4.096050262E0,8.800050735E0,-1.363950014E0,9.801983490E0
2.538830577E0,-4.173000336E0,8.914950371E0,-1.594050050E0,9.971522826E0
2.540792346E0,-4.134000301E0,8.953050613E0,-1.096050024E0,9.922116681E0
2.542754026E0,-4.210950375E0,9.067950249E0,-7.890000343E-1,1.002907502E1
2.544715733E0,-4.326000214E0,9.106050491E0,-6.360000372E-1,1.010143205E1
2.546677422E0,-4.402950287E0,9.145050049E0,-7.120500207E-1,1.017471999E1
2.548639117E0,-4.479000092E0,9.259950638E0,-7.510500550E-1,1.031369012E1
2.550600987E0,-4.594050407E0,9.336000443E0,-8.269500136E-1,1.043791405E1
2.552562807E0,-4.633050442E0,9.451050758E0,-8.659500480E-1,1.056112619E1
2.554524703E0,-4.747950077E0,9.565950394E0,-9.040500522E-1,1.071763702E1
2.556486576E0,-4.708950043E0,9.681000710E0,-9.040500522E-1,1.080339260E1
2.558448239E0,-4.824000359E0,9.835050583E0,-9.040500522E-1,1.099165620E1
2.560409963E0,-4.824000359E0,9.949950218E0,-9.040500522E-1,1.109458405E1
2.562371424E0,-4.824000359E0,9.988050461E0,-9.040500522E-1,1.112876624E1
2.564332963E0,-4.824000359E0,1.010295010E1,-9.040500522E-1,1.123200279E1
2.566294680E0,-4.786050320E0,1.021800041E1,-8.659500480E-1,1.131652241E1
2.568256345E0,-4.824000359E0,1.018005085E1,-8.659500480E-1,1.129841955E1
2.570218267E0,-4.786050320E0,1.025595093E1,-8.659500480E-1,1.135080070E1
2.572180114E0,-4.708950043E0,1.029495049E1,-8.659500480E-1,1.135385774E1
2.574141947E0,-4.633050442E0,1.029495049E1,-9.040500522E-1,1.132556702E1
2.576103794E0,-4.633050442E0,1.025595093E1,-9.040500522E-1,1.129012809E1
2.578065415E0,-4.518000126E0,1.021800041E1,-8.659500480E-1,1.120578989E1
2.580027102E0,-4.479000092E0,1.014105034E1,-8.659500480E-1,1.111990168E1
2.581988794E0,-4.441050053E0,1.014105034E1,-9.040500522E-1,1.110770607E1
2.583950485E0,-4.441050053E0,1.010295010E1,-1.018950105E0,1.108290510E1
2.585912058E0,-4.363950253E0,1.010295010E1,-1.018950105E0,1.105223605E1
2.587873655E0,-4.288050175E0,9.988050461E0,-1.134000063E0,1.092860844E1
2.589835318E0,-4.288050175E0,9.910950661E0,-1.210950017E0,1.086649517E1
2.591796961E0,-4.288050175E0,9.873000145E0,-1.287000060E0,1.084065844E1
2.593758707E0,-4.326000214E0,9.757950783E0,-1.671000123E0,1.080389387E1
2.595720422E0,-4.326000214E0,9.835050583E0,-2.284050226E0,1.098450651E1
2.597682232E0,-4.018949986E0,9.757950783E0,-1.402050018E0,1.064590563E1
2.599644024E0,-4.018949986E0,9.681000710E0,-1.018950105E0,1.053147630E1
2.601605700E0,-4.096050262E0,9.643050194E0,-8.659500480E-1,1.051265496E1
2.603567410E0,-4.134000301E0,9.643050194E0,-9.420000315E-1,1.053402770E1
2.605529099E0,-4.134000301E0,9.565950394E0,-1.096050024E0,1.047848706E1
2.607490795E0,-4.096050262E0,9.604950905E0,-1.134000063E0,1.050326929E1
2.609452725E0,-4.134000301E0,9.643050194E0,-1.134000063E0,1.055293000E1
2.611414576E0,-4.326000214E0,9.604950905E0,-9.810000658E-1,1.057977887E1
2.613376422E0,-4.326000214E0,9.681000710E0,-8.659500480E-1,1.063888726E1
2.615338270E0,-4.363950253E0,9.720000267E0,-7.510500550E-1,1.068113024E1
2.617300071E0,-4.441050053E0,9.757950783E0,-5.209500194E-1,1.073368147E1
2.619261886E0,-4.479000092E0,9.835050583E0,-4.060500264E-1,1.081455216E1
2.621223588E0,-4.594050407E0,9.873000145E0,-4.440000355E-1,1.089855803E1
2.623185333E0,-4.594050407E0,9.910950661E0,-4.060500264E-1,1.093147377E1
2.625146971E0,-4.671000004E0,9.988050461E0,-4.060500264E-1,1.103377858E1
2.627108641E0,-4.633050442E0,9.988050461E0,-3.670500219E-1,1.101639842E1
2.629070022E0,-4.633050442E0,1.002600002E1,-3.670500219E-1,1.105081710E1
2.631031487E0,-4.594050407E0,1.006500053E1,-3.670500219E-1,1.106997112E1
2.632993009E0,-4.594050407E0,1.014105034E1,-2.520000041E-1,1.113596449E1
2.634954534E0,-4.555950165E0,1.014105034E1,-1.369500011E-1,1.111828850E1
2.636916210E0,-4.518000126E0,1.029495049E1,-2.205000073E-2,1.124272284E1
2.638877842E0,-4.441050053E0,1.037100029E1,9.195000678E-2,1.128224390E1
2.640838509E0,-4.402950287E0,1.044795036E1,2.830500007E-1,1.134132952E1
2.642799459E0,-4.288050175E0,1.060095024E1,5.130000114E-1,1.144686373E1
2.644760852E0,-4.249050140E0,1.075500011E1,6.280500293E-1,1.158097152E1
2.646722129E0,-4.173000336E0,1.090800095E1,8.580000401E-1,1.171044749E1
2.648683758E0,-4.096050262E0,1.106100082E1,1.011000037E0,1.183830596E1
2.650645283E0,-4.096050262E0,1.121400070E1,1.203000069E0,1.199911033E1
2.652607140E0,-4.134000301E0,1.144395065E1,1.395000100E0,1.224744832E1
2.654568899E0,-4.057950020E0,1.171305084E1,1.432950020E0,1.247861628E1
2.656530411E0,-4.057950020E0,1.186605072E1,1.471050024E0,1.262672191E1
2.658491988E0,-4.057950020E0,1.209600067E1,1.471050024E0,1.284305956E1
2.660453744E0,-4.057950020E0,1.228800011E1,1.510050058E0,1.302851320E1
2.662415447E0,-3.981000185E0,1.236405087E1,1.510050058E0,1.307663441E1
2.664377318E0,-3.712950230E0,1.198095036E1,1.585950017E0,1.264295884E1
2.666339140E0,-3.790050268E0,1.240305042E1,1.663050056E0,1.307539201E1
2.668300936E0,-3.828000069E0,1.263300037E1,1.624950051E0,1.329987766E1
2.670262747E0,-3.865950108E0,1.270905018E1,1.585950017E0,1.337836926E1
2.672224239E0,-3.828000069E0,1.282395077E1,1.548000097E0,1.347232727E1
2.674185824E0,-3.790050268E0,1.297800064E1,1.548000097E0,1.360842702E1
2.676147400E0,-3.751050234E0,1.297800064E1,1.585950017E0,1.360198941E1
2.678108978E0,-3.636000156E0,1.309305096E1,1.624950051E0,1.368535506E1
2.680070674E0,-3.559950113E0,1.309305096E1,1.585950017E0,1.366076373E1
2.682032346E0,-3.483000278E0,1.309305096E1,1.585950017E0,1.364091316E1
2.683993998E0,-3.520950079E0,1.297800064E1,9.730500579E-1,1.348230012E1
2.685955656E0,-3.175950050E0,1.290105057E1,1.318050027E0,1.335144263E1
2.687917714E0,-2.946000099E0,1.293900108E1,2.046000004E0,1.342694238E1
2.689879654E0,-2.830950022E0,1.290105057E1,2.238000154E0,1.339626920E1
2.691841535E0,-2.677950144E0,1.274805069E1,2.275950193E0,1.322362139E1
2.693803430E0,-2.524950027E0,1.255605030E1,2.200050116E0,1.299499874E1
2.695765223E0,-2.332950115E0,1.240305042E1,2.046000004E0,1.278532096E1
2.697727046E0,-2.179949999E0,1.221105099E1,1.930950046E0,1.255350614E1
2.699688400E0,-1.987950087E0,1.201905060E1,1.969950080E0,1.234059262E1
2.701649892E0,-1.834950089E0,1.182795048E1,1.969950080E0,1.213046403E1
2.703611928E0,-1.605000019E0,1.159800053E1,2.085000038E0,1.189272326E1
2.705573808E0,-1.528050065E0,1.144395065E1,2.046000004E0,1.172540232E1
2.707535469E0,-1.336950064E0,1.113795090E1,2.008050203E0,1.139621215E1
2.709497195E0,-1.183050036E0,1.098495007E1,1.893000126E0,1.120946853E1
2.711459241E0,-1.068000078E0,1.079295063E1,1.816050053E0,1.099665609E1
2.713421193E0,-9.150000215E-1,1.060095024E1,1.816050053E0,1.079423035E1
2.715382662E0,-8.380500674E-1,1.048605061E1,1.855050087E0,1.068179742E1
2.717344272E0,-7.620000243E-1,1.033305073E1,1.855050087E0,1.052586301E1
2.719305798E0,-6.079500318E-1,1.014105034E1,1.816050053E0,1.032029762E1
2.721267348E0,-4.549500346E-1,9.949950218E0,1.893000126E0,1.013863592E1
2.723228884E0,-3.780000210E-1,9.835050583E0,1.969950080E0,1.003751998E1
2.725190425E0,-3.019500077E-1,9.681000710E0,2.046000004E0,9.899447690E0
2.727151987E0,-2.629500031E-1,9.565950394E0,2.122950077E0,9.802217436E0
2.729113557E0,-1.480500102E-1,9.375000000E0,2.161050081E0,9.621989465E0
2.731075091E0,-1.099500060E-1,9.183000565E0,2.161050081E0,9.434496586E0
2.733036636E0,-7.200000435E-2,8.991000175E0,2.200050116E0,9.256537618E0
2.734998668E0,-1.099500060E-1,8.800050735E0,2.161050081E0,9.062180720E0
2.736960557E0,-1.099500060E-1,8.685000420E0,2.161050081E0,8.950500475E0
2.738922217E0,-3.299999982E-2,8.569950104E0,2.200050116E0,8.847901124E0
2.740883944E0,4.200000316E-2,8.340000153E0,2.161050081E0,8.615538521E0
2.742845674E0,8.100000024E-2,8.148000717E0,2.046000004E0,8.401344696E0
2.744807403E0,8.100000024E-2,7.957050323E0,1.969950080E0,8.197677364E0
2.746769090E0,8.100000024E-2,7.842000484E0,1.969950080E0,8.086051936E0
2.748730790E0,4.050000105E-3,7.612050533E0,1.969950080E0,7.862826021E0
2.750692855E0,-7.200000435E-2,7.573050499E0,1.930950046E0,7.815679493E0
2.752654803E0,-1.099500060E-1,7.420050144E0,1.893000126E0,7.658503942E0
2.754616587E0,-7.200000435E-2,7.305000305E0,1.816050053E0,7.527698935E0
2.756578420E0,4.050000105E-3,7.189950466E0,1.816050053E0,7.415756327E0
2.758540088E0,-3.299999982E-2,7.113000393E0,1.855050087E0,7.350991390E0
2.760501805E0,-3.299999982E-2,7.075050354E0,1.816050053E0,7.304482480E0
2.762463308E0,-1.099500060E-1,6.997950554E0,1.893000126E0,7.250300024E0
2.764424877E0,-1.870500147E-1,6.960000515E0,1.855050087E0,7.205401148E0
2.766386635E0,-3.400500119E-1,6.922050476E0,1.893000126E0,7.184279107E0
2.768348337E0,-4.549500346E-1,6.960000515E0,1.969950080E0,7.247709295E0
2.770310343E0,-5.320500135E-1,6.922050476E0,1.969950080E0,7.216547882E0
2.772272260E0,-6.079500318E-1,6.922050476E0,2.008050203E0,7.233025069E0
2.774234145E0,-7.999500632E-1,6.960000515E0,1.969950080E0,7.277515413E0
2.776196036E0,-8.380500674E-1,7.036950111E0,2.008050203E0,7.365681259E0
2.778158009E0,-9.529500604E-1,7.075050354E0,2.085000038E0,7.437182026E0
2.780119957E0,-1.106999993E0,7.075050354E0,2.122950077E0,7.469183592E0
2.782082011E0,-1.183050036E0,7.036950111E0,2.238000154E0,7.478430246E0
2.784044034E0,-1.297950029E0,7.075050354E0,2.353049994E0,7.568213532E0
2.786005645E0,-1.489950061E0,7.113000393E0,2.353049994E0,7.638819938E0
2.787967363E0,-1.567050099E0,7.152000427E0,2.391000032E0,7.702183929E0
2.789929095E0,-1.642950058E0,7.189950466E0,2.467950106E0,7.777239248E0
2.791890822E0,-1.642950058E0,7.228050232E0,2.545050144E0,7.837172659E0
2.793852465E0,-1.720050097E0,7.228050232E0,2.545050144E0,7.853697392E0
2.795814132E0,-1.795950055E0,7.305000305E0,2.545050144E0,7.941394481E0
2.797776053E0,-1.834950089E0,7.342950344E0,2.583000183E0,7.997365287E0
2.799737899E0,-1.873050094E0,7.381950378E0,2.620950222E0,8.054246589E0
2.801699386E0,-1.873050094E0,7.420050144E0,2.698050022E0,8.114489184E0
2.803660978E0,-1.950000048E0,7.497000217E0,2.698050022E0,8.202864522E0
2.805623002E0,-2.103000164E0,7.573050499E0,2.698050022E0,8.309824154E0
2.807584899E0,-2.065050125E0,7.612050533E0,2.620950222E0,8.311264970E0
2.809546182E0,-2.103000164E0,7.726950169E0,2.620950222E0,8.426016180E0
2.811507655E0,-2.140950203E0,7.842000484E0,2.698050022E0,8.565051856E0
2.813469249E0,-2.140950203E0,7.918050289E0,2.773950100E0,8.658752064E0
2.815430807E0,-2.256000042E0,7.995000362E0,2.773950100E0,8.758102885E0
2.817392478E0,-2.140950203E0,8.110050201E0,2.698050022E0,8.811132502E0
2.819354115E0,-2.103000164E0,8.187000275E0,2.698050022E0,8.872939598E0
2.821315688E0,-2.065050125E0,8.263050079E0,2.698050022E0,8.934310413E0
2.823277276E0,-2.026050091E0,8.493000031E0,2.698050022E0,9.138676185E0
2.825238806E0,-2.026050091E0,8.569950104E0,2.583000183E0,9.177189858E0
2.827200353E0,-1.987950087E0,8.685000420E0,2.583000183E0,9.276479277E0
2.829162069E0,-1.987950087E0,8.838000298E0,2.659050226E0,9.441013871E0
2.831123735E0,-2.026050091E0,8.914950371E0,2.698050022E0,9.532087547E0
2.833085407E0,-1.911000133E0,8.953050613E0,2.583000183E0,9.512146274E0
2.835047064E0,-1.834950089E0,9.067950249E0,2.620950222E0,9.615827765E0
2.837008762E0,-1.758000135E0,9.106050491E0,2.545050144E0,9.617068174E0
2.838970447E0,-1.720050097E0,9.183000565E0,2.506050110E0,9.672970529E0
2.840932006E0,-1.681950092E0,9.259950638E0,2.353049994E0,9.701159013E0
2.842893602E0,-1.642950058E0,9.375000000E0,2.430000067E0,9.823177196E0
2.844855301E0,-1.681950092E0,9.451050758E0,2.391000032E0,9.892835676E0
2.846816976E0,-1.605000019E0,9.490050316E0,2.353049994E0,9.908275548E0
2.848778312E0,-1.567050099E0,9.528000832E0,2.314950228E0,9.929624385E0
2.850739747E0,-1.567050099E0,9.565950394E0,2.238000154E0,9.948452022E0
2.852701618E0,-1.452000022E0,9.565950394E0,2.085000038E0,9.897622753E0
2.854663361E0,-1.413000107E0,9.565950394E0,2.085000038E0,9.891976617E0
2.856625040E0,-1.413000107E0,9.643050194E0,2.046000004E0,9.958468876E0
2.858586742E0,-1.336950064E0,9.604950905E0,2.008050203E0,9.903271327E0
2.860548252E0,-1.413000107E0,9.604950905E0,1.930950046E0,9.898495808E0
2.862509819E0,-1.452000022E0,9.643050194E0,1.777950048E0,9.912508637E0
2.864471712E0,-1.413000107E0,9.643050194E0,1.701000094E0,9.893350679E0
2.866433510E0,-1.452000022E0,9.681000710E0,1.548000097E0,9.910922414E0
2.868395064E0,-1.567050099E0,9.643050194E0,1.510050058E0,9.885560896E0
2.870356679E0,-1.528050065E0,9.604950905E0,1.510050058E0,9.842269559E0
2.872318339E0,-1.605000019E0,9.604950905E0,1.471050024E0,9.848608791E0
2.874279985E0,-1.642950058E0,9.528000832E0,1.471050024E0,9.779881028E0
2.876241731E0,-1.758000135E0,9.490050316E0,1.432950020E0,9.757303174E0
2.878203447E0,-1.795950055E0,9.412950516E0,1.356000066E0,9.678213171E0
2.880165091E0,-1.873050094E0,9.375000000E0,1.279950023E0,9.645580009E0
2.882126756E0,-1.911000133E0,9.336000443E0,1.165050030E0,9.600529534E0
2.884088452E0,-1.911000133E0,9.298050880E0,1.050000072E0,9.550296950E0
2.886050139E0,-1.987950087E0,9.298050880E0,9.730500579E-1,9.557851335E0
2.888011878E0,-1.987950087E0,9.183000565E0,1.011000037E0,9.449950581E0
2.889973601E0,-2.026050091E0,9.183000565E0,9.730500579E-1,9.454057582E0
2.891935244E0,-2.065050125E0,9.183000565E0,1.011000037E0,9.466469905E0
2.893896910E0,-2.065050125E0,9.106050491E0,9.730500579E-1,9.387833296E0
2.895858786E0,-2.065050125E0,9.067950249E0,8.959500194E-1,9.343172918E0
2.897820601E0,-2.103000164E0,9.106050491E0,9.349500537E-1,9.392385046E0
2.899782093E0,-2.103000164E0,9.067950249E0,8.959500194E-1,9.351633966E0
2.901743680E0,-2.140950203E0,9.030000687E0,8.959500194E-1,9.323481464E0
2.903705205E0,-2.140950203E0,9.067950249E0,1.011000037E0,9.371953402E0
2.905666751E0,-2.140950203E0,9.067950249E0,9.730500579E-1,9.367935520E0
2.907628468E0,-2.179949999E0,9.030000687E0,1.087950110E0,9.352899542E0
2.909590134E0,-2.218050003E0,9.030000687E0,9.730500579E-1,9.349197005E0
2.911552191E0,-2.256000042E0,8.991000175E0,1.050000072E0,9.328993541E0
2.913514134E0,-2.332950115E0,8.877000809E0,1.050000072E0,9.238306108E0
2.915475790E0,-2.295000076E0,8.877000809E0,1.087950110E0,9.233190356E0
2.917437526E0,-2.295000076E0,8.877000809E0,1.126049995E0,9.237757157E0
2.919399390E0,-2.332950115E0,8.838000298E0,1.165050030E0,9.214675636E0
2.921361216E0,-2.332950115E0,8.761950493E0,1.240950108E0,9.151742449E0
2.923323111E0,-2.295000076E0,8.761950493E0,1.279950023E0,9.147517360E0
2.925284985E0,-2.332950115E0,8.685000420E0,1.240950108E0,9.078097031E0
2.927246814E0,-2.332950115E0,8.685000420E0,1.240950108E0,9.078097031E0
2.929208666E0,-2.371050119E0,8.647050858E0,1.395000100E0,9.074105602E0
2.931170466E0,-2.410050154E0,8.647050858E0,1.432950020E0,9.090279206E0
2.933132281E0,-2.371050119E0,8.608050346E0,1.471050024E0,9.048999813E0
2.935094131E0,-2.371050119E0,8.569950104E0,1.356000066E0,8.994701753E0
2.937055971E0,-2.410050154E0,8.493000031E0,1.356000066E0,8.931860245E0
2.939017629E0,-2.448000193E0,8.532000542E0,1.432950020E0,8.991166996E0
2.940979348E0,-2.485950232E0,8.493000031E0,1.432950020E0,8.964616212E0
2.942941215E0,-2.524950027E0,8.455050468E0,1.240950108E0,8.910847784E0
2.944903038E0,-2.601000071E0,8.455050468E0,1.318050027E0,8.943731641E0
2.946864754E0,-2.524950027E0,8.416950226E0,1.356000066E0,8.891521800E0
2.948826502E0,-2.563050032E0,8.455050468E0,1.240950108E0,8.921718504E0
2.950788518E0,-2.601000071E0,8.455050468E0,1.318050027E0,8.943731641E0
2.952750442E0,-2.563050032E0,8.455050468E0,1.279950023E0,8.927226666E0
2.954712321E0,-2.640000105E0,8.416950226E0,1.318050027E0,8.919187605E0
2.956674213E0,-2.640000105E0,8.416950226E0,1.318050027E0,8.919187605E0
2.958636051E0,-2.677950144E0,8.377950668E0,1.203000069E0,8.877425502E0
2.960597905E0,-2.716050148E0,8.377950668E0,1.279950023E0,8.899733584E0
2.962559889E0,-2.677950144E0,8.340000153E0,1.240950108E0,8.846862534E0
2.964521832E0,-2.677950144E0,8.302050591E0,1.165050030E0,8.800727388E0
2.966483662E0,-2.640000105E0,8.302050591E0,1.165050030E0,8.789254015E0
2.968445526E0,-2.601000071E0,8.263050079E0,1.203000069E0,8.745879438E0
2.970407413E0,-2.640000105E0,8.302050591E0,1.165050030E0,8.789254015E0
2.972369293E0,-2.485950232E0,8.224950790E0,1.165050030E0,8.671049857E0
2.974331639E0,-2.485950232E0,8.187000275E0,1.203000069E0,8.640262219E0
2.976293842E0,-2.485950232E0,8.187000275E0,1.165050030E0,8.635060140E0
2.978255808E0,-2.524950027E0,8.187000275E0,1.087950110E0,8.636317594E0
2.980217844E0,-2.563050032E0,8.110050201E0,1.087950110E0,8.574717207E0
2.982180017E0,-2.640000105E0,8.224950790E0,1.165050030E0,8.716464744E0
2.984142149E0,-2.640000105E0,8.224950790E0,1.050000072E0,8.701834072E0
2.986104307E0,-2.601000071E0,8.263050079E0,9.349500537E-1,8.713055123E0
2.988066457E0,-2.563050032E0,8.302050591E0,8.200500607E-1,8.727299214E0
2.990028297E0,-2.563050032E0,8.340000153E0,8.200500607E-1,8.763407449E0
2.991990228E0,-2.601000071E0,8.377950668E0,8.200500607E-1,8.810660638E0
2.993952194E0,-2.677950144E0,8.377950668E0,8.200500607E-1,8.833683064E0
2.995914149E0,-2.677950144E0,8.377950668E0,7.810500264E-1,8.830147990E0
2.997876220E0,-2.716050148E0,8.416950226E0,8.200500607E-1,8.882255435E0
2.999838244E0,-2.716050148E0,8.377950668E0,7.429500222E-1,8.838493115E0
3.001800375E0,-2.755050182E0,8.377950668E0,7.429500222E-1,8.850555556E0
3.003762475E0,-2.793000221E0,8.302050591E0,7.429500222E-1,8.790726306E0
3.005724144E0,-2.869950056E0,8.455050468E0,8.200500607E-1,8.966435961E0
3.007685939E0,-2.946000099E0,8.455050468E0,7.429500222E-1,8.984362512E0
3.009647938E0,-2.869950056E0,8.455050468E0,5.899500251E-1,8.948325697E0
3.011609870E0,-2.830950022E0,8.416950226E0,5.899500251E-1,8.899852255E0
3.013571882E0,-2.869950056E0,8.377950668E0,5.899500251E-1,8.875511915E0
3.015533870E0,-2.869950056E0,8.416950226E0,5.509500504E-1,8.909837843E0
3.017495738E0,-2.755050182E0,8.263050079E0,5.899500251E-1,8.730196971E0
3.019457641E0,-2.716050148E0,8.302050591E0,5.509500504E-1,8.752400720E0
3.021419657E0,-2.716050148E0,8.416950226E0,5.899500251E-1,8.863973180E0
3.023381639E0,-2.677950144E0,8.455050468E0,4.360500276E-1,8.879720436E0
3.025343598E0,-2.830950022E0,8.685000420E0,5.899500251E-1,9.153772520E0
3.027305564E0,-3.022950172E0,8.914950371E0,6.660000086E-1,9.437061188E0
3.029267389E0,-3.100050211E0,9.030000687E0,6.660000086E-1,9.570516168E0
3.031229256E0,-3.175950050E0,8.991000175E0,7.429500222E-1,9.564346168E0
3.033190607E0,-3.253050089E0,9.030000687E0,7.810500264E-1,9.629812377E0
3.035152106E0,-3.291000128E0,8.953050613E0,6.280500293E-1,9.559406047E0
3.037113966E0,-3.214950085E0,8.877000809E0,5.130000114E-1,9.455168767E0
3.039075720E0,-3.214950085E0,8.761950493E0,5.130000114E-1,9.347237533E0
3.041037448E0,-3.175950050E0,8.722949982E0,5.899500251E-1,9.301857671E0
3.042999183E0,-3.138000250E0,8.647050858E0,5.899500251E-1,9.217731561E0
3.044960873E0,-3.138000250E0,8.647050858E0,6.660000086E-1,9.222911152E0
3.046922573E0,-3.138000250E0,8.569950104E0,6.280500293E-1,9.147979951E0
3.048884219E0,-3.100050211E0,8.569950104E0,6.280500293E-1,9.135031633E0
3.050845881E0,-3.138000250E0,8.532000542E0,7.429500222E-1,9.121077433E0
3.052807803E0,-3.138000250E0,8.532000542E0,7.050000429E-1,9.118064700E0
3.054769648E0,-3.214950085E0,8.569950104E0,8.959500194E-1,9.196883998E0
3.056731494E0,-3.253050089E0,8.493000031E0,9.349500537E-1,9.142620850E0
3.058693340E0,-3.253050089E0,8.416950226E0,9.349500537E-1,9.072018386E0
3.060654962E0,-3.253050089E0,8.416950226E0,9.349500537E-1,9.072018386E0
3.062616650E0,-3.291000128E0,8.302050591E0,8.959500194E-1,8.975380342E0
3.064578387E0,-3.367950201E0,8.302050591E0,1.011000037E0,9.016055326E0
3.066540110E0,-3.406050205E0,8.302050591E0,9.730500579E-1,9.026186815E0
3.068501927E0,-3.406050205E0,8.263050079E0,8.959500194E-1,8.982310452E0
3.070463720E0,-3.367950201E0,8.302050591E0,8.959500194E-1,9.003880219E0
3.072425441E0,-3.367950201E0,8.302050591E0,9.730500579E-1,9.011878771E0
3.074387184E0,-3.330000162E0,8.263050079E0,8.959500194E-1,8.953749166E0
3.076349047E0,-3.330000162E0,8.302050591E0,8.959500194E-1,8.989753697E0
3.078310874E0,-3.367950201E0,8.263050079E0,9.349500537E-1,8.971912660E0
3.080272699E0,-3.445050240E0,8.302050591E0,9.730500579E-1,9.040975698E0
3.082234511E0,-3.520950079E0,8.377950668E0,9.349500537E-1,9.135714447E0
3.084196542E0,-3.520950079E0,8.416950226E0,8.580000401E-1,9.163967734E0
3.086158509E0,-3.483000278E0,8.493000031E0,7.810500264E-1,9.212620670E0
3.088120336E0,-3.445050240E0,8.532000542E0,7.810500264E-1,9.234362108E0
3.090082204E0,-3.445050240E0,8.569950104E0,7.429500222E-1,9.266304046E0
3.092044230E0,-3.520950079E0,8.569950104E0,8.580000401E-1,9.304692274E0
3.094006206E0,-3.520950079E0,8.647050858E0,8.580000401E-1,9.375752880E0
3.095968210E0,-3.483000278E0,8.722949982E0,8.200500607E-1,9.428341817E0
3.097930206E0,-3.406050205E0,8.685000420E0,8.959500194E-1,9.371933457E0
3.099892027E0,-3.367950201E0,8.761950493E0,8.200500607E-1,9.422703810E0
3.101853900E0,-3.291000128E0,8.877000809E0,9.730500579E-1,9.517281735E0
3.103815741E0,-3.175950050E0,8.877000809E0,1.087950110E0,9.490597322E0
3.105777592E0,-3.100050211E0,8.914950371E0,1.126049995E0,9.505505774E0
3.107739302E0,-3.061050177E0,8.991000175E0,1.126049995E0,9.564313929E0
3.109701054E0,-2.985000134E0,8.991000175E0,1.050000072E0,9.531569131E0
3.111662736E0,-2.908050060E0,8.991000175E0,1.087950110E0,9.512017386E0
3.113624438E0,-2.869950056E0,9.030000687E0,1.165050030E0,9.546458364E0
3.115586278E0,-2.755050182E0,9.067950249E0,1.165050030E0,9.548579203E0
3.117548067E0,-2.677950144E0,8.991000175E0,1.126049995E0,9.448676612E0
3.119509743E0,-2.601000071E0,8.991000175E0,1.050000072E0,9.418374896E0
3.121471453E0,-2.524950027E0,8.991000175E0,1.050000072E0,9.397656992E0
3.123433007E0,-2.524950027E0,8.991000175E0,1.087950110E0,9.401972784E0
3.125394607E0,-2.485950232E0,9.030000687E0,1.203000069E0,9.442884629E0
3.127355935E0,-2.332950115E0,9.030000687E0,1.203000069E0,9.403764023E0
3.129317357E0,-2.218050003E0,9.030000687E0,1.279950023E0,9.386103040E0
3.131279095E0,-2.140950203E0,9.067950249E0,1.356000066E0,9.415419569E0
3.133240740E0,-2.140950203E0,9.106050491E0,1.356000066E0,9.452119313E0
3.135202756E0,-2.103000164E0,9.106050491E0,1.356000066E0,9.443595789E0
3.137164663E0,-2.103000164E0,9.106050491E0,1.356000066E0,9.443595789E0
3.139126365E0,-2.103000164E0,9.145050049E0,1.279950023E0,9.470629448E0
3.141088127E0,-2.179949999E0,9.106050491E0,1.356000066E0,9.461029211E0
3.143049941E0,-2.256000042E0,9.106050491E0,1.356000066E0,9.478841064E0
3.145011740E0,-2.218050003E0,9.106050491E0,1.203000069E0,9.449185707E0
3.146973594E0,-2.256000042E0,9.067950249E0,1.318050027E0,9.436869914E0
3.148935432E0,-2.218050003E0,9.067950249E0,1.395000100E0,9.438934940E0
3.150897150E0,-2.065050125E0,9.106050491E0,1.356000066E0,9.435217207E0
3.152858900E0,-2.026050091E0,9.145050049E0,1.432950020E0,9.475767258E0
3.154820761E0,-2.026050091E0,9.145050049E0,1.356000066E0,9.464436356E0
3.156782590E0,-2.140950203E0,9.106050491E0,1.395000100E0,9.457793009E0
3.158744440E0,-2.140950203E0,9.145050049E0,1.395000100E0,9.495347990E0
3.160706283E0,-2.332950115E0,9.145050049E0,1.395000100E0,9.540472835E0
3.162667877E0,-2.410050154E0,9.145050049E0,1.432950020E0,9.565230154E0
3.164629564E0,-2.295000076E0,9.220950127E0,1.356000066E0,9.598525031E0
3.166591482E0,-2.295000076E0,9.145050049E0,1.279950023E0,9.515105770E0
3.168553332E0,-2.332950115E0,9.145050049E0,1.126049995E0,9.504871658E0
3.170515178E0,-2.371050119E0,9.298050880E0,1.356000066E0,9.690942422E0
3.172477026E0,-2.410050154E0,9.259950638E0,1.471050024E0,9.680858213E0
3.174438806E0,-2.485950232E0,9.298050880E0,1.471050024E0,9.736410370E0
3.176400621E0,-2.563050032E0,9.298050880E0,1.471050024E0,9.756380672E0
3.178362112E0,-2.563050032E0,9.298050880E0,1.432950020E0,9.750708764E0
3.180323698E0,-2.716050148E0,9.375000000E0,1.432950020E0,9.865135537E0
3.182285228E0,-2.755050182E0,9.336000443E0,1.356000066E0,9.828018211E0
3.184246775E0,-2.793000221E0,9.412950516E0,1.395000100E0,9.917182711E0
3.186208652E0,-2.830950022E0,9.375000000E0,1.395000100E0,9.891962814E0
3.188170446E0,-2.908050060E0,9.298050880E0,1.432950020E0,9.847022448E0
3.190132122E0,-3.061050177E0,9.412950516E0,1.395000100E0,9.995983737E0
3.192093833E0,-3.022950172E0,9.336000443E0,1.087950110E0,9.873336186E0
3.194055387E0,-2.946000099E0,9.490050316E0,1.279950023E0,1.001889433E1
3.196016987E0,-2.946000099E0,9.451050758E0,1.318050027E0,9.986918088E0
3.197978815E0,-2.946000099E0,9.565950394E0,1.240950108E0,1.008594471E1
3.199940586E0,-2.985000134E0,9.528000832E0,1.203000069E0,1.005685014E1
3.201902446E0,-3.100050211E0,9.604950905E0,1.165050030E0,1.015985899E1
3.203864279E0,-3.214950085E0,9.604950905E0,1.011000037E0,1.017905236E1
3.205825948E0,-3.330000162E0,9.604950905E0,8.959500194E-1,1.020522951E1
3.207787665E0,-3.406050205E0,9.604950905E0,6.660000086E-1,1.021272813E1
3.209749357E0,-3.520950079E0,9.643050194E0,6.280500293E-1,1.028493818E1
3.211711054E0,-3.559950113E0,9.643050194E0,5.899500251E-1,1.029610134E1
3.213672610E0,-3.675000191E0,9.643050194E0,4.360500276E-1,1.032880356E1
3.215634208E0,-3.790050268E0,9.604950905E0,4.750500321E-1,1.033659690E1
3.217596050E0,-3.828000069E0,9.565950394E0,3.979500234E-1,1.031112776E1
3.219557821E0,-3.943050146E0,9.490050316E0,3.600000143E-1,1.028291299E1
3.221520022E0,-4.018949986E0,9.336000443E0,2.070000172E-1,1.016640115E1
3.223482110E0,-4.018949986E0,9.375000000E0,2.830500007E-1,1.020405318E1
3.225444320E0,-4.134000301E0,9.336000443E0,3.600000143E-1,1.021667572E1
3.227406494E0,-4.173000336E0,9.220950127E0,2.830500007E-1,1.012521458E1
3.229368285E0,-4.441050053E0,9.067950249E0,2.449500114E-1,1.010003207E1
3.231330189E0,-4.363950253E0,9.106050491E0,-1.369500011E-1,1.009866192E1
3.233291800E0,-4.363950253E0,9.106050491E0,-9.900000691E-2,1.009821857E1
3.235253497E0,-4.402950287E0,9.030000687E0,-9.900000691E-2,1.004672507E1
3.237215008E0,-4.363950253E0,9.067950249E0,-2.205000073E-2,1.006341243E1
3.239176573E0,-4.326000214E0,9.030000687E0,-6.105000153E-2,1.001293750E1
3.241138151E0,-4.363950253E0,8.991000175E0,-6.105000153E-2,9.994292024E0
3.243099725E0,-4.402950287E0,9.030000687E0,-1.759500057E-1,1.004777796E1
3.245061618E0,-4.326000214E0,9.030000687E0,1.500000060E-2,1.001276262E1
3.247023418E0,-4.288050175E0,8.914950371E0,1.680000126E-1,9.894035497E0
3.248985047E0,-4.210950375E0,8.953050613E0,3.220500052E-1,9.899138071E0
3.250946727E0,-4.173000336E0,8.991000175E0,2.830500007E-1,9.916256010E0
3.252908421E0,-4.057950020E0,8.953050613E0,2.449500114E-1,9.832806016E0
3.254870110E0,-4.096050262E0,9.067950249E0,2.830500007E-1,9.954168311E0
3.256831128E0,-3.943050146E0,9.145050049E0,3.220500052E-1,9.964100615E0
3.258792343E0,-3.904950142E0,9.259950638E0,3.979500234E-1,1.005751886E1
3.260754116E0,-3.865950108E0,9.298050880E0,3.979500234E-1,1.007758327E1
3.262715725E0,-3.865950108E0,9.412950516E0,4.750500321E-1,1.018699564E1
3.264677612E0,-3.865950108E0,9.528000832E0,4.360500276E-1,1.029167186E1
3.266639418E0,-3.790050268E0,9.643050194E0,3.979500234E-1,1.036876378E1
3.268601027E0,-3.751050234E0,9.720000267E0,7.050000429E-1,1.044250009E1
3.270562708E0,-3.712950230E0,9.835050583E0,9.349500537E-1,1.055406798E1
3.272524762E0,-3.636000156E0,9.910950661E0,1.011000037E0,1.060516672E1
3.274486706E0,-3.675000191E0,1.002600002E1,1.011000037E0,1.072606283E1
3.276448041E0,-3.636000156E0,1.014105034E1,1.050000072E0,1.082422742E1
3.278409555E0,-3.636000156E0,1.021800041E1,1.050000072E0,1.089635396E1
3.280371033E0,-3.598050117E0,1.033305073E1,1.011000037E0,1.098817651E1
3.282332535E0,-3.598050117E0,1.044795036E1,1.165050030E0,1.111138934E1
3.284294259E0,-3.520950079E0,1.052505016E1,1.318050027E0,1.117636015E1
3.286255917E0,-3.559950113E0,1.056300068E1,1.471050024E0,1.124340768E1
3.288217481E0,-3.520950079E0,1.067805004E1,1.510050058E0,1.134451821E1
3.290179073E0,-3.520950079E0,1.071600056E1,1.624950051E0,1.139606160E1
3.292140961E0,-3.520950079E0,1.075500011E1,1.740000129E0,1.144966014E1
3.294102763E0,-3.406050205E0,1.079295063E1,1.930950046E0,1.148118153E1
3.296064032E0,-3.445050240E0,1.087005043E1,2.008050203E0,1.157836919E1
3.298025458E0,-3.445050240E0,1.094595051E1,2.122950077E0,1.167000946E1
3.299986880E0,-3.520950079E0,1.098495007E1,2.238000154E0,1.175052603E1
