"Time (s)","Acceleration x (m/s^2)","Acceleration y (m/s^2)","Acceleration z (m/s^2)","Absolute acceleration (m/s^2)"
2.996346500E-2,-3.022950172E0,1.079295063E1,-8.269500136E-1,1.123876583E1
3.192367600E-2,-2.985000134E0,1.087005043E1,-8.269500136E-1,1.130274606E1
3.388654200E-2,-2.908050060E0,1.098495007E1,-7.890000343E-1,1.139071570E1
3.584771700E-2,-2.869950056E0,1.102305031E1,-7.510500550E-1,1.141526730E1
3.780938800E-2,-2.677950144E0,1.106100082E1,-7.120500207E-1,1.140281419E1
3.977106800E-2,-2.640000105E0,1.110000038E1,-7.510500550E-1,1.143432050E1
4.173275600E-2,-2.448000193E0,1.110000038E1,-6.739500165E-1,1.138669935E1
4.369427000E-2,-2.295000076E0,1.106100082E1,-7.510500550E-1,1.132152113E1
4.565583500E-2,-2.140950203E0,1.106100082E1,-5.970000029E-1,1.128210158E1
4.761772800E-2,-2.065050125E0,1.110000038E1,-5.209500194E-1,1.130247006E1
4.957952500E-2,-1.950000048E0,1.110000038E1,-5.590500236E-1,1.128384002E1
5.154136500E-2,-1.834950089E0,1.106100082E1,-5.209500194E-1,1.122426701E1
5.350320300E-2,-1.642950058E0,1.102305031E1,-4.819500148E-1,1.115523190E1
5.546482700E-2,-1.528050065E0,1.106100082E1,-4.819500148E-1,1.117644631E1
5.742651300E-2,-1.489950061E0,1.106100082E1,-4.440000355E-1,1.116972813E1
5.938825100E-2,-1.413000107E0,1.102305031E1,-4.060500264E-1,1.112066023E1
6.134997300E-2,-1.297950029E0,1.102305031E1,-3.289500177E-1,1.110407675E1
6.331202000E-2,-1.144950032E0,1.098495007E1,-3.670500219E-1,1.105055493E1
6.527397200E-2,-1.068000078E0,1.094595051E1,-3.670500219E-1,1.100405300E1
6.723539600E-2,-1.030050039E0,1.090800095E1,-3.289500177E-1,1.096146413E1
6.919697400E-2,-8.770500422E-1,1.094595051E1,-3.289500177E-1,1.098595728E1
7.115873000E-2,-8.380500674E-1,1.090800095E1,-2.910000086E-1,1.094401634E1
7.312043300E-2,-8.380500674E-1,1.083105087E1,-2.910000086E-1,1.086732129E1
7.508240600E-2,-7.999500632E-1,1.083105087E1,-3.670500219E-1,1.086675245E1
7.704432300E-2,-7.230000496E-1,1.079295063E1,-2.910000086E-1,1.082105325E1
7.900597800E-2,-6.850500107E-1,1.083105087E1,-3.289500177E-1,1.085767768E1
8.096771000E-2,-7.230000496E-1,1.079295063E1,-2.910000086E-1,1.082105325E1
8.292926000E-2,-6.850500107E-1,1.079295063E1,-2.520000041E-1,1.081760513E1
8.489086400E-2,-6.469500065E-1,1.075500011E1,-1.759500057E-1,1.077587723E1
8.685274500E-2,-6.079500318E-1,1.079295063E1,-1.369500011E-1,1.081092697E1
8.881454900E-2,-6.079500318E-1,1.079295063E1,-9.900000691E-2,1.081051283E1
9.077635700E-2,-6.850500107E-1,1.079295063E1,1.500000060E-2,1.081467992E1
9.273816400E-2,-6.079500318E-1,1.087005043E1,-2.205000073E-2,1.088706048E1
9.469983800E-2,-7.999500632E-1,1.075500011E1,-6.739500165E-1,1.080574644E1
9.666155100E-2,-7.620000243E-1,1.083105087E1,-7.890000343E-1,1.088645158E1
9.862220700E-2,-5.320500135E-1,1.090800095E1,1.300500035E-1,1.092174322E1
1.005831700E-1,-6.469500065E-1,1.102305031E1,3.979500234E-1,1.104918760E1
1.025451670E-1,-6.850500107E-1,1.129095078E1,5.899500251E-1,1.132708718E1
1.045068610E-1,-5.320500135E-1,1.144395065E1,1.050000072E0,1.150432892E1
1.064686880E-1,-4.930500090E-1,1.163595009E1,1.011000037E0,1.169019050E1
1.084304760E-1,-5.700000525E-1,1.178895092E1,8.580000401E-1,1.183386783E1
1.103921840E-1,-4.930500090E-1,1.186605072E1,6.280500293E-1,1.189288463E1
1.123539260E-1,-4.170000255E-1,1.198095036E1,5.130000114E-1,1.199917620E1
1.143161040E-1,-3.780000210E-1,1.209600067E1,5.899500251E-1,1.211627654E1
1.162781550E-1,-4.170000255E-1,1.217295074E1,5.899500251E-1,1.219437001E1
1.182399670E-1,-2.629500031E-1,1.221105099E1,7.429500222E-1,1.223645715E1
1.202018490E-1,-2.250000089E-1,1.221105099E1,7.810500264E-1,1.223807298E1
1.221635480E-1,-1.870500147E-1,1.224900055E1,9.349500537E-1,1.228605444E1
1.241253050E-1,-1.480500102E-1,1.224900055E1,9.349500537E-1,1.228552257E1
1.260869860E-1,-3.299999982E-2,1.217295074E1,1.011000037E0,1.221490646E1
1.280486900E-1,8.100000024E-2,1.217295074E1,9.730500579E-1,1.221204804E1
1.300103350E-1,1.189500093E-1,1.201905060E1,1.087950110E0,1.206877632E1
1.319719980E-1,2.340000123E-1,1.190400028E1,1.011000037E0,1.194914640E1
1.339337050E-1,2.719500065E-1,1.175100040E1,1.050000072E0,1.180095197E1
1.358954230E-1,3.870000243E-1,1.163595009E1,1.087950110E0,1.169310647E1
1.378569320E-1,4.260000288E-1,1.148295021E1,1.126049995E0,1.154589148E1
1.398185020E-1,4.639500082E-1,1.121400070E1,1.087950110E0,1.127620046E1
1.417811150E-1,5.790000558E-1,1.098495007E1,1.126049995E0,1.105768319E1
1.437434230E-1,6.169500351E-1,1.075500011E1,1.126049995E0,1.083137311E1
1.457054270E-1,6.169500351E-1,1.048605061E1,1.126049995E0,1.056436809E1
1.476671940E-1,6.550500393E-1,1.029495049E1,1.126049995E0,1.037704605E1
1.496290980E-1,7.320000529E-1,1.002600002E1,1.126049995E0,1.011555679E1
1.515909610E-1,7.320000529E-1,9.835050583E0,1.126049995E0,9.926330270E0
1.535528060E-1,6.940500140E-1,9.565950394E0,1.126049995E0,9.656971624E0
1.555146560E-1,7.699500322E-1,9.298050880E0,1.165050030E0,9.402335603E0
1.574764920E-1,8.470500112E-1,9.145050049E0,1.165050030E0,9.257795401E0
1.594383390E-1,8.470500112E-1,8.953050613E0,1.087950110E0,9.058600579E0
1.614001850E-1,8.850000501E-1,8.761950493E0,1.165050030E0,8.883261963E0
1.633620310E-1,8.470500112E-1,8.569950104E0,1.165050030E0,8.690159957E0
1.653236520E-1,8.850000501E-1,8.377950668E0,1.126049995E0,8.499486519E0
1.672853390E-1,9.619500637E-1,8.263050079E0,1.050000072E0,8.384858060E0
1.692468530E-1,8.850000501E-1,8.148000717E0,1.011000037E0,8.258042253E0
1.712084490E-1,8.850000501E-1,7.995000362E0,9.349500537E-1,8.097986632E0
1.731702920E-1,8.850000501E-1,7.879950523E0,8.959500194E-1,7.979948106E0
1.751320620E-1,9.240000248E-1,7.803000450E0,8.200500607E-1,7.900194565E0
1.770937420E-1,9.240000248E-1,7.726950169E0,7.810500264E-1,7.821098011E0
1.790554490E-1,9.619500637E-1,7.612050533E0,7.810500264E-1,7.712243538E0
1.810170040E-1,9.240000248E-1,7.612050533E0,7.050000429E-1,7.700267166E0
1.829786030E-1,9.619500637E-1,7.573050499E0,7.429500222E-1,7.669968482E0
1.849402650E-1,9.619500637E-1,7.573050499E0,7.429500222E-1,7.669968482E0
1.869019080E-1,1.000050068E0,7.573050499E0,7.429500222E-1,7.674839981E0
1.888632940E-1,9.240000248E-1,7.573050499E0,7.810500264E-1,7.669087889E0
1.908247560E-1,8.850000501E-1,7.612050533E0,6.660000086E-1,7.692209983E0
1.927864280E-1,8.850000501E-1,7.612050533E0,6.660000086E-1,7.692209983E0
1.947480480E-1,8.850000501E-1,7.612050533E0,7.050000429E-1,7.695684730E0
1.967092580E-1,8.470500112E-1,7.650000572E0,6.660000086E-1,7.725513477E0
1.986705890E-1,8.089500666E-1,7.765050411E0,7.050000429E-1,7.838841315E0
2.006322970E-1,7.699500322E-1,7.803000450E0,7.429500222E-1,7.876015097E0
2.025938940E-1,7.699500322E-1,7.842000484E0,7.429500222E-1,7.914655355E0
2.045552980E-1,7.320000529E-1,7.957050323E0,7.810500264E-1,8.028730477E0
2.065167520E-1,6.550500393E-1,7.995000362E0,8.959500194E-1,8.071669455E0
2.084779000E-1,6.940500140E-1,8.110050201E0,9.730500579E-1,8.197648816E0
2.104391370E-1,6.940500140E-1,8.110050201E0,1.126049995E0,8.217214144E0
2.124007260E-1,6.940500140E-1,8.263050079E0,1.126049995E0,8.368254933E0
2.143622120E-1,6.169500351E-1,8.416950226E0,1.203000069E0,8.524839448E0
2.163236250E-1,6.169500351E-1,8.493000031E0,1.203000069E0,8.599935234E0
2.182850600E-1,5.790000558E-1,8.532000542E0,1.318050027E0,8.652602509E0
2.202457150E-1,5.790000558E-1,8.685000420E0,1.318050027E0,8.803506644E0
2.222065990E-1,5.790000558E-1,8.722949982E0,1.356000066E0,8.846684895E0
2.241682040E-1,5.790000558E-1,8.877000809E0,1.432950020E0,9.010534400E0
2.261295970E-1,5.020500422E-1,8.953050613E0,1.471050024E0,9.086977369E0
2.280912250E-1,5.790000558E-1,9.030000687E0,1.471050024E0,9.167341034E0
2.300527700E-1,5.790000558E-1,9.106050491E0,1.471050024E0,9.242260805E0
2.320148030E-1,5.790000558E-1,9.220950127E0,1.471050024E0,9.355487720E0
2.339766930E-1,6.169500351E-1,9.220950127E0,1.471050024E0,9.357913056E0
2.359373160E-1,5.410500169E-1,9.336000443E0,1.585950017E0,9.485192504E0
2.378983100E-1,5.790000558E-1,9.375000000E0,1.585950017E0,9.525812486E0
2.398606760E-1,6.550500393E-1,9.375000000E0,1.624950051E0,9.537304558E0
2.418226300E-1,6.550500393E-1,9.375000000E0,1.624950051E0,9.537304558E0
2.437840530E-1,6.940500140E-1,9.375000000E0,1.548000097E0,9.527257461E0
2.457456320E-1,6.550500393E-1,9.375000000E0,1.548000097E0,9.524495780E0
2.477070280E-1,6.550500393E-1,9.412950516E0,1.624950051E0,9.574611775E0
2.496684780E-1,6.169500351E-1,9.375000000E0,1.548000097E0,9.521951305E0
2.516299850E-1,5.410500169E-1,9.375000000E0,1.548000097E0,9.517334943E0
2.535914760E-1,5.790000558E-1,9.375000000E0,1.548000097E0,9.519567761E0
2.555525280E-1,5.410500169E-1,9.412950516E0,1.548000097E0,9.554720134E0
2.575137090E-1,5.410500169E-1,9.451050758E0,1.510050058E0,9.586206066E0
2.594751270E-1,5.410500169E-1,9.451050758E0,1.471050024E0,9.580140068E0
2.614364760E-1,5.020500422E-1,9.451050758E0,1.471050024E0,9.578016645E0
2.633975260E-1,5.020500422E-1,9.451050758E0,1.510050058E0,9.584083987E0
2.653586510E-1,4.260000288E-1,9.490050316E0,1.510050058E0,9.618876348E0
2.673198530E-1,3.870000243E-1,9.528000832E0,1.510050058E0,9.654678661E0
2.692810330E-1,4.260000288E-1,9.490050316E0,1.471050024E0,9.612830967E0
2.712421390E-1,4.260000288E-1,9.451050758E0,1.471050024E0,9.574331550E0
2.732032660E-1,4.260000288E-1,9.490050316E0,1.471050024E0,9.612830967E0
2.751644640E-1,4.260000288E-1,9.451050758E0,1.471050024E0,9.574331550E0
2.771256440E-1,4.260000288E-1,9.412950516E0,1.471050024E0,9.536723840E0
2.790868830E-1,4.639500082E-1,9.490050316E0,1.510050058E0,9.620631777E0
2.810481050E-1,5.020500422E-1,9.451050758E0,1.471050024E0,9.578016645E0
2.830095630E-1,5.020500422E-1,9.528000832E0,1.471050024E0,9.653954747E0
2.849709520E-1,4.639500082E-1,9.490050316E0,1.471050024E0,9.614587499E0
2.869326920E-1,4.639500082E-1,9.565950394E0,1.471050024E0,9.689512099E0
2.888943320E-1,5.410500169E-1,9.604950905E0,1.471050024E0,9.731999033E0
2.908559880E-1,4.639500082E-1,9.528000832E0,1.471050024E0,9.652048364E0
2.928176400E-1,2.340000123E-1,9.451050758E0,1.395000100E0,9.556314233E0
2.947790250E-1,3.490500152E-1,9.720000267E0,1.395000100E0,9.825795967E0
2.967404880E-1,4.639500082E-1,9.757950783E0,1.510050058E0,9.884993893E0
2.987027680E-1,6.169500351E-1,9.720000267E0,1.432950020E0,9.844408479E0
3.006648030E-1,6.550500393E-1,9.835050583E0,1.395000100E0,9.955065836E0
3.026263920E-1,7.320000529E-1,9.835050583E0,1.395000100E0,9.960425158E0
3.045881120E-1,6.940500140E-1,9.873000145E0,1.318050027E0,9.984743019E0
3.065494850E-1,7.320000529E-1,9.835050583E0,1.240950108E0,9.940020182E0
3.085109590E-1,7.320000529E-1,9.910950661E0,1.240950108E0,1.001512477E1
3.104728420E-1,6.940500140E-1,9.910950661E0,1.203000069E0,1.000778985E1
3.124345910E-1,7.320000529E-1,9.988050461E0,1.126049995E0,1.007794447E1
3.143961400E-1,6.940500140E-1,9.949950218E0,1.087950110E0,1.003328711E1
3.163577470E-1,6.940500140E-1,9.910950661E0,1.011000037E0,9.986529402E0
3.183194080E-1,7.320000529E-1,9.873000145E0,9.349500537E-1,9.944148407E0
3.202810530E-1,7.699500322E-1,9.873000145E0,9.349500537E-1,9.947013950E0
3.222426080E-1,7.699500322E-1,9.796050072E0,9.349500537E-1,9.870640894E0
3.242041650E-1,7.320000529E-1,9.796050072E0,8.580000401E-1,9.860759867E0
3.261658800E-1,6.550500393E-1,9.835050583E0,8.580000401E-1,9.894113128E0
3.281275480E-1,6.169500351E-1,9.796050072E0,8.200500607E-1,9.849655144E0
3.300883440E-1,5.790000558E-1,9.835050583E0,7.810500264E-1,9.882990447E0
3.320493960E-1,5.020500422E-1,9.796050072E0,7.050000429E-1,9.834209491E0
3.340110810E-1,5.020500422E-1,9.796050072E0,7.050000429E-1,9.834209491E0
3.359725670E-1,4.639500082E-1,9.796050072E0,7.810500264E-1,9.838083439E0
3.379341150E-1,5.020500422E-1,9.835050583E0,7.429500222E-1,9.875841683E0
3.398956440E-1,3.870000243E-1,9.757950783E0,7.810500264E-1,9.796806196E0
3.418573650E-1,3.870000243E-1,9.720000267E0,7.810500264E-1,9.759006781E0
3.438190290E-1,3.490500152E-1,9.720000267E0,7.429500222E-1,9.754599727E0
3.457805660E-1,3.490500152E-1,9.720000267E0,7.429500222E-1,9.754599727E0
3.477421270E-1,3.490500152E-1,9.643050194E0,7.810500264E-1,9.680924134E0
3.497040210E-1,3.490500152E-1,9.604950905E0,7.810500264E-1,9.642974486E0
3.516658170E-1,3.109500110E-1,9.528000832E0,7.810500264E-1,9.565015886E0
3.536276270E-1,3.109500110E-1,9.528000832E0,7.050000429E-1,9.559106382E0
3.555894320E-1,2.340000123E-1,9.528000832E0,8.580000401E-1,9.569415861E0
3.575511610E-1,2.340000123E-1,9.490050316E0,8.200500607E-1,9.528289096E0
3.595129060E-1,1.960500032E-1,9.490050316E0,8.959500194E-1,9.534265417E0
3.614744090E-1,1.960500032E-1,9.528000832E0,8.959500194E-1,9.572040633E0
3.634359830E-1,1.960500032E-1,9.451050758E0,8.959500194E-1,9.495447461E0
3.653978750E-1,1.960500032E-1,9.528000832E0,8.959500194E-1,9.572040633E0
3.673596730E-1,1.570500135E-1,9.528000832E0,8.959500194E-1,9.571321277E0
3.693213290E-1,8.100000024E-2,9.528000832E0,8.580000401E-1,9.566897351E0
3.712830410E-1,8.100000024E-2,9.451050758E0,8.959500194E-1,9.493768897E0
3.732448640E-1,1.189500093E-1,9.412950516E0,9.730500579E-1,9.463858248E0
3.752066540E-1,4.200000316E-2,9.298050880E0,9.349500537E-1,9.345033214E0
3.771685550E-1,4.200000316E-2,9.336000443E0,9.349500537E-1,9.382792754E0
3.791304230E-1,-7.200000435E-2,9.259950638E0,9.349500537E-1,9.307309032E0
3.810920900E-1,-3.400500119E-1,9.067950249E0,9.349500537E-1,9.122361938E0
3.830538140E-1,-3.780000210E-1,9.145050049E0,7.810500264E-1,9.186123424E0
3.850156350E-1,-1.870500147E-1,9.183000565E0,8.200500607E-1,9.221440732E0
3.869774270E-1,-7.200000435E-2,9.183000565E0,1.011000037E0,9.238766392E0
3.889398240E-1,-3.019500077E-1,9.145050049E0,5.509500504E-1,9.166605706E0
3.909020430E-1,-4.170000255E-1,8.991000175E0,-2.205000073E-2,9.000692161E0
3.928627610E-1,-1.099500060E-1,9.106050491E0,8.959500194E-1,9.150681450E0
3.948239390E-1,-1.480500102E-1,9.030000687E0,1.050000072E0,9.092047699E0
3.967854930E-1,-1.099500060E-1,9.106050491E0,1.395000100E0,9.212940347E0
3.987469370E-1,-1.099500060E-1,9.106050491E0,1.510050058E0,9.231061463E0
4.007087170E-1,-2.250000089E-1,9.220950127E0,1.471050024E0,9.340264151E0
4.026703980E-1,-2.250000089E-1,9.259950638E0,1.279950023E0,9.350699593E0
4.046319080E-1,-2.629500031E-1,9.220950127E0,1.011000037E0,9.279934537E0
4.065934720E-1,-3.019500077E-1,9.220950127E0,9.349500537E-1,9.273145456E0
4.085551400E-1,-3.400500119E-1,9.220950127E0,9.349500537E-1,9.274464235E0
4.105167780E-1,-3.400500119E-1,9.259950638E0,9.730500579E-1,9.317142601E0
4.124783460E-1,-3.400500119E-1,9.298050880E0,1.011000037E0,9.359033351E0
4.144399340E-1,-3.400500119E-1,9.298050880E0,1.050000072E0,9.363326564E0
4.164016430E-1,-3.400500119E-1,9.298050880E0,1.087950110E0,9.367658172E0
4.183633170E-1,-3.019500077E-1,9.375000000E0,1.087950110E0,9.442745059E0
4.203248330E-1,-3.400500119E-1,9.375000000E0,1.011000037E0,9.435485154E0
4.222863950E-1,-3.780000210E-1,9.451050758E0,1.050000072E0,9.516708706E0
4.242479290E-1,-2.629500031E-1,9.490050316E0,1.126049995E0,9.560239866E0
4.262094720E-1,-3.019500077E-1,9.451050758E0,1.165050030E0,9.527375075E0
4.281720900E-1,-4.930500090E-1,9.375000000E0,4.360500276E-1,9.398077619E0
4.301343930E-1,-4.170000255E-1,9.412950516E0,2.830500007E-1,9.426433246E0
4.320954410E-1,-1.099500060E-1,9.451050758E0,1.395000100E0,9.554081574E0
4.340568570E-1,-1.099500060E-1,9.451050758E0,1.510050058E0,9.571556855E0
4.360185960E-1,-1.099500060E-1,9.451050758E0,1.432950020E0,9.559696397E0
4.379802400E-1,-1.099500060E-1,9.451050758E0,1.279950023E0,9.537962125E0
4.399422420E-1,-1.099500060E-1,9.451050758E0,1.126049995E0,9.518531296E0
4.419041490E-1,-1.099500060E-1,9.490050316E0,9.349500537E-1,9.536628105E0
4.438658050E-1,-1.480500102E-1,9.490050316E0,8.959500194E-1,9.533399197E0
4.458275350E-1,-1.099500060E-1,9.451050758E0,7.810500264E-1,9.483906821E0
4.477889060E-1,-1.099500060E-1,9.451050758E0,7.429500222E-1,9.480845119E0
4.497503820E-1,-7.200000435E-2,9.412950516E0,7.429500222E-1,9.442499465E0
4.517122260E-1,-7.200000435E-2,9.412950516E0,7.050000429E-1,9.439589317E0
4.536739760E-1,-3.299999982E-2,9.375000000E0,7.810500264E-1,9.407537039E0
4.556353440E-1,-1.099500060E-1,9.375000000E0,7.810500264E-1,9.408121659E0
4.575968240E-1,-1.480500102E-1,9.451050758E0,7.429500222E-1,9.481363508E0
4.595583710E-1,-1.480500102E-1,9.412950516E0,7.429500222E-1,9.443385566E0
4.615198990E-1,-2.250000089E-1,9.412950516E0,5.899500251E-1,9.434103214E0
4.634814040E-1,-2.250000089E-1,9.412950516E0,7.050000429E-1,9.441995948E0
4.654429100E-1,-3.400500119E-1,9.412950516E0,6.660000086E-1,9.442607025E0
4.674044530E-1,-3.019500077E-1,9.336000443E0,5.130000114E-1,9.354958422E0
4.693659850E-1,-3.400500119E-1,9.220950127E0,4.750500321E-1,9.239438716E0
4.713273900E-1,-2.629500031E-1,9.106050491E0,4.750500321E-1,9.122224004E0
4.732888330E-1,-2.629500031E-1,9.030000687E0,5.130000114E-1,9.048382403E0
4.752503380E-1,-3.400500119E-1,8.953050613E0,5.509500504E-1,8.976429984E0
4.772118270E-1,-2.629500031E-1,9.030000687E0,5.509500504E-1,9.050613298E0
4.791733740E-1,-3.780000210E-1,9.183000565E0,5.899500251E-1,9.209691874E0
4.811349040E-1,-4.549500346E-1,9.259950638E0,5.130000114E-1,9.285302061E0
4.830960850E-1,-5.320500135E-1,9.375000000E0,4.360500276E-1,9.400204351E0
4.850573680E-1,-5.320500135E-1,9.490050316E0,3.979500234E-1,9.513280004E0
4.870188180E-1,-5.700000525E-1,9.490050316E0,4.360500276E-1,9.517147403E0
4.889802160E-1,-5.320500135E-1,9.490050316E0,4.360500276E-1,9.514949913E0
4.909417340E-1,-5.700000525E-1,9.490050316E0,4.360500276E-1,9.517147403E0
4.929032160E-1,-6.079500318E-1,9.375000000E0,4.360500276E-1,9.404805573E0
4.948649440E-1,-6.079500318E-1,9.298050880E0,4.750500321E-1,9.330006750E0
4.968266000E-1,-6.079500318E-1,9.183000565E0,3.979500234E-1,9.211702711E0
4.987881050E-1,-6.850500107E-1,9.106050491E0,4.750500321E-1,9.144130445E0
5.007496650E-1,-6.850500107E-1,9.030000687E0,4.750500321E-1,9.068399994E0
5.027108390E-1,-7.230000496E-1,8.953050613E0,4.750500321E-1,8.994749407E0
5.046721270E-1,-7.230000496E-1,8.953050613E0,4.360500276E-1,8.992773987E0
5.066340680E-1,-7.620000243E-1,8.953050613E0,4.360500276E-1,8.995993494E0
5.085958170E-1,-7.620000243E-1,9.030000687E0,4.360500276E-1,9.072579350E0
5.105575410E-1,-7.230000496E-1,9.030000687E0,4.750500321E-1,9.071345766E0
5.125192760E-1,-7.230000496E-1,9.106050491E0,4.360500276E-1,9.145109308E0
5.144809150E-1,-7.230000496E-1,9.220950127E0,3.979500234E-1,9.257808301E0
5.164425830E-1,-7.620000243E-1,9.183000565E0,3.979500234E-1,9.223150635E0
5.184042790E-1,-8.380500674E-1,9.298050880E0,5.130000114E-1,9.349826047E0
5.203659660E-1,-8.380500674E-1,9.259950638E0,5.130000114E-1,9.311937647E0
5.223277050E-1,-7.620000243E-1,9.298050880E0,3.979500234E-1,9.337706273E0
5.242894280E-1,-7.230000496E-1,9.336000443E0,3.600000143E-1,9.370871536E0
5.262507560E-1,-7.620000243E-1,9.375000000E0,3.979500234E-1,9.414331270E0
5.282121990E-1,-6.850500107E-1,9.336000443E0,4.360500276E-1,9.371250579E0
5.301737530E-1,-6.850500107E-1,9.375000000E0,4.750500321E-1,9.411991875E0
5.321352740E-1,-6.469500065E-1,9.451050758E0,5.509500504E-1,9.489175449E0
5.340969320E-1,-6.850500107E-1,9.451050758E0,5.899500251E-1,9.494192698E0
5.360585630E-1,-7.230000496E-1,9.412950516E0,5.899500251E-1,9.459091263E0
5.380204460E-1,-6.850500107E-1,9.490050316E0,6.280500293E-1,9.535449405E0
5.399822550E-1,-6.850500107E-1,9.451050758E0,5.899500251E-1,9.494192698E0
5.419437480E-1,-6.469500065E-1,9.412950516E0,5.509500504E-1,9.451228898E0
5.439053340E-1,-6.850500107E-1,9.412950516E0,5.899500251E-1,9.456266280E0
5.458666890E-1,-6.850500107E-1,9.451050758E0,5.899500251E-1,9.494192698E0
5.478281080E-1,-6.469500065E-1,9.412950516E0,5.899500251E-1,9.453582535E0
5.497902070E-1,-7.230000496E-1,9.375000000E0,6.280500293E-1,9.423789095E0
5.517521060E-1,-7.230000496E-1,9.375000000E0,5.899500251E-1,9.421326611E0
5.537139440E-1,-6.079500318E-1,9.412950516E0,5.130000114E-1,9.446502510E0
5.556758000E-1,-6.469500065E-1,9.412950516E0,5.509500504E-1,9.451228898E0
5.576374780E-1,-6.469500065E-1,9.412950516E0,5.899500251E-1,9.453582535E0
5.595991990E-1,-6.850500107E-1,9.412950516E0,5.899500251E-1,9.456266280E0
5.615612460E-1,-6.469500065E-1,9.375000000E0,5.130000114E-1,9.411287814E0
5.635231970E-1,-6.469500065E-1,9.375000000E0,5.130000114E-1,9.411287814E0
5.654848910E-1,-7.620000243E-1,9.375000000E0,4.750500321E-1,9.417905371E0
5.674466610E-1,-8.380500674E-1,9.375000000E0,5.130000114E-1,9.426352525E0
5.694085140E-1,-7.230000496E-1,9.336000443E0,5.509500504E-1,9.380148149E0
5.713703460E-1,-6.079500318E-1,9.298050880E0,4.360500276E-1,9.328102328E0
5.733321940E-1,-5.320500135E-1,9.336000443E0,3.600000143E-1,9.358075736E0
5.752940380E-1,-5.320500135E-1,9.336000443E0,3.600000143E-1,9.358075736E0
5.772560200E-1,-4.930500090E-1,9.336000443E0,3.979500234E-1,9.357476519E0
5.792179610E-1,-4.549500346E-1,9.336000443E0,3.979500234E-1,9.355546377E0
5.811801670E-1,-4.549500346E-1,9.375000000E0,3.979500234E-1,9.394464793E0
5.831422840E-1,-4.930500090E-1,9.336000443E0,4.750500321E-1,9.361072327E0
5.851041300E-1,-4.170000255E-1,9.336000443E0,4.360500276E-1,9.355476092E0
5.870660550E-1,-4.170000255E-1,9.336000443E0,4.360500276E-1,9.355476092E0
5.890275270E-1,-4.170000255E-1,9.375000000E0,5.130000114E-1,9.398280855E0
5.909891320E-1,-4.170000255E-1,9.412950516E0,5.509500504E-1,9.438276982E0
5.929509970E-1,-4.170000255E-1,9.412950516E0,5.130000114E-1,9.436137740E0
5.949128010E-1,-3.780000210E-1,9.375000000E0,5.899500251E-1,9.401146209E0
5.968751500E-1,-3.780000210E-1,9.375000000E0,5.899500251E-1,9.401146209E0
5.988373400E-1,-3.400500119E-1,9.375000000E0,5.509500504E-1,9.397329672E0
6.007989480E-1,-4.170000255E-1,9.375000000E0,6.660000086E-1,9.407872769E0
6.027607270E-1,-4.549500346E-1,9.412950516E0,7.050000429E-1,9.450272060E0
6.047223900E-1,-3.780000210E-1,9.375000000E0,6.660000086E-1,9.406224802E0
6.066840970E-1,-3.780000210E-1,9.412950516E0,6.660000086E-1,9.444049843E0
6.086457870E-1,-4.549500346E-1,9.490050316E0,7.050000429E-1,9.527069832E0
6.106074820E-1,-4.170000255E-1,9.490050316E0,7.050000429E-1,9.525333017E0
6.125693530E-1,-3.780000210E-1,9.490050316E0,7.429500222E-1,9.526589828E0
6.145311720E-1,-4.549500346E-1,9.490050316E0,7.429500222E-1,9.529953267E0
6.164927040E-1,-4.170000255E-1,9.565950394E0,7.429500222E-1,9.603815424E0
6.184543230E-1,-3.780000210E-1,9.604950905E0,7.810500264E-1,9.644065794E0
6.204162070E-1,-3.019500077E-1,9.643050194E0,7.810500264E-1,9.679340370E0
6.223780130E-1,-3.019500077E-1,9.720000267E0,7.810500264E-1,9.756004210E0
6.243398670E-1,-2.629500031E-1,9.720000267E0,9.349500537E-1,9.768402095E0
6.263017060E-1,-3.019500077E-1,9.757950783E0,8.959500194E-1,9.803647470E0
6.282635240E-1,-3.019500077E-1,9.796050072E0,9.349500537E-1,9.845196921E0
6.302253380E-1,-1.870500147E-1,9.910950661E0,9.730500579E-1,9.960359287E0
6.321868740E-1,-1.870500147E-1,9.949950218E0,1.050000072E0,1.000694745E1
6.341484920E-1,-1.099500060E-1,9.949950218E0,1.011000037E0,1.000178581E1
6.361097910E-1,-7.200000435E-2,9.988050461E0,1.011000037E0,1.003934545E1
6.380711840E-1,-7.200000435E-2,1.010295010E1,1.050000072E0,1.015762200E1
6.400327790E-1,-3.299999982E-2,1.010295010E1,1.126049995E0,1.016556335E1
6.419942920E-1,4.050000105E-3,1.018005085E1,1.165050030E0,1.024650151E1
6.439560150E-1,4.050000105E-3,1.021800041E1,1.203000069E0,1.028857415E1
6.459176770E-1,4.050000105E-3,1.025595093E1,1.279950023E0,1.033551246E1
6.478792410E-1,4.200000316E-2,1.029495049E1,1.279950023E0,1.037429716E1
6.498408330E-1,4.200000316E-2,1.033305073E1,1.240950108E0,1.040738481E1
6.518023030E-1,4.050000105E-3,1.037100029E1,1.318050027E0,1.045442104E1
6.537638190E-1,-3.299999982E-2,1.037100029E1,1.279950023E0,1.044973723E1
6.557252260E-1,-3.299999982E-2,1.041000080E1,1.356000066E0,1.049799704E1
6.576866650E-1,-3.299999982E-2,1.044795036E1,1.318050027E0,1.053081249E1
6.596483540E-1,-3.299999982E-2,1.044795036E1,1.356000066E0,1.053562964E1
6.616099700E-1,4.050000105E-3,1.048605061E1,1.356000066E0,1.057336323E1
6.635718510E-1,4.200000316E-2,1.048605061E1,1.356000066E0,1.057344587E1
6.655336580E-1,4.200000316E-2,1.052505016E1,1.356000066E0,1.061212425E1
6.674950160E-1,4.200000316E-2,1.048605061E1,1.395000100E0,1.057851817E1
6.694565060E-1,4.050000105E-3,1.052505016E1,1.356000066E0,1.061204191E1
6.714180520E-1,4.050000105E-3,1.052505016E1,1.395000100E0,1.061709577E1
6.733795810E-1,4.200000316E-2,1.052505016E1,1.356000066E0,1.061212425E1
6.753412670E-1,4.200000316E-2,1.052505016E1,1.356000066E0,1.061212425E1
6.773028990E-1,4.200000316E-2,1.056300068E1,1.318050027E0,1.064499898E1
6.792644670E-1,4.050000105E-3,1.052505016E1,1.240950108E0,1.059795520E1
6.812260540E-1,-1.870500147E-1,1.056300068E1,8.200500607E-1,1.059643587E1
6.831877640E-1,-1.099500060E-1,1.052505016E1,1.050000072E0,1.057786699E1
6.851494370E-1,-1.099500060E-1,1.056300068E1,1.318050027E0,1.064548394E1
6.871114930E-1,-1.099500060E-1,1.052505016E1,1.356000066E0,1.061261071E1
6.890734370E-1,-1.480500102E-1,1.056300068E1,1.356000066E0,1.065071070E1
6.910352220E-1,-1.870500147E-1,1.052505016E1,1.240950108E0,1.059960498E1
6.929970540E-1,-2.629500031E-1,1.056300068E1,1.126049995E0,1.062610534E1
6.949591270E-1,-3.400500119E-1,1.056300068E1,9.730500579E-1,1.061317312E1
6.969211290E-1,-4.549500346E-1,1.056300068E1,8.959500194E-1,1.061068750E1
6.988829540E-1,-5.700000525E-1,1.052505016E1,8.580000401E-1,1.057533664E1
7.008448280E-1,-6.469500065E-1,1.052505016E1,8.200500607E-1,1.057675316E1
7.028068030E-1,-7.230000496E-1,1.048605061E1,8.200500607E-1,1.054288710E1
7.047687490E-1,-8.770500422E-1,1.048605061E1,8.200500607E-1,1.055457039E1
7.067305790E-1,-9.150000215E-1,1.052505016E1,7.810500264E-1,1.059358037E1
7.086924430E-1,-1.068000078E0,1.052505016E1,8.200500607E-1,1.061083348E1
7.106542960E-1,-1.068000078E0,1.052505016E1,7.050000429E-1,1.060256243E1
7.126161450E-1,-1.183050036E0,1.056300068E1,7.050000429E-1,1.065239953E1
7.145779910E-1,-1.183050036E0,1.060095024E1,6.660000086E-1,1.068753056E1
7.165398380E-1,-1.183050036E0,1.060095024E1,6.660000086E-1,1.068753056E1
7.185015480E-1,-1.183050036E0,1.063995075E1,6.280500293E-1,1.072392681E1
7.204632990E-1,-1.297950029E0,1.067805004E1,5.509500504E-1,1.077074616E1
7.224244600E-1,-1.336950064E0,1.071600056E1,3.600000143E-1,1.080507767E1
7.243857800E-1,-1.222050071E0,1.079295063E1,5.130000114E-1,1.087402219E1
7.263473100E-1,-1.222050071E0,1.087005043E1,6.280500293E-1,1.095654369E1
7.283087780E-1,-1.144950032E0,1.090800095E1,5.899500251E-1,1.098378060E1
7.302703290E-1,-1.183050036E0,1.098495007E1,5.130000114E-1,1.106037542E1
7.322318550E-1,-1.106999993E0,1.102305031E1,5.130000114E-1,1.109036772E1
7.341934220E-1,-1.068000078E0,1.106100082E1,4.750500321E-1,1.112259124E1
7.361549900E-1,-1.068000078E0,1.110000038E1,4.360500276E-1,1.115978370E1
7.381166580E-1,-1.030050039E0,1.117605019E1,4.750500321E-1,1.123346667E1
7.400782970E-1,-1.030050039E0,1.113795090E1,4.750500321E-1,1.119556277E1
7.420396400E-1,-9.529500604E-1,1.117605019E1,5.509500504E-1,1.123012723E1
7.440010690E-1,-9.529500604E-1,1.117605019E1,5.509500504E-1,1.123012723E1
7.459622790E-1,-1.030050039E0,1.121400070E1,2.830500007E-1,1.126476507E1
7.479235440E-1,-9.150000215E-1,1.117605019E1,4.750500321E-1,1.122350192E1
7.498851730E-1,-8.380500674E-1,1.113795090E1,7.810500264E-1,1.119671011E1
7.518466960E-1,-8.380500674E-1,1.113795090E1,9.349500537E-1,1.120849721E1
7.538085980E-1,-8.380500674E-1,1.106100082E1,1.011000037E0,1.113867982E1
7.557703880E-1,-8.380500674E-1,1.106100082E1,1.011000037E0,1.113867982E1
7.577321800E-1,-8.770500422E-1,1.106100082E1,1.011000037E0,1.114168197E1
7.596939850E-1,-8.770500422E-1,1.098495007E1,1.011000037E0,1.106618569E1
7.616557040E-1,-9.529500604E-1,1.098495007E1,9.730500579E-1,1.106905905E1
7.636174480E-1,-8.770500422E-1,1.094595051E1,1.050000072E0,1.103111733E1
7.655790860E-1,-9.529500604E-1,1.094595051E1,1.050000072E0,1.103741122E1
7.675407560E-1,-9.919500351E-1,1.094595051E1,9.730500579E-1,1.103379462E1
7.695026860E-1,-9.919500351E-1,1.094595051E1,1.087950110E0,1.104452049E1
7.714645330E-1,-9.919500351E-1,1.087005043E1,1.011000037E0,1.096193789E1
7.734263800E-1,-1.030050039E0,1.083105087E1,9.730500579E-1,1.092334621E1
7.753882270E-1,-9.919500351E-1,1.083105087E1,9.730500579E-1,1.091981933E1
7.773498930E-1,-1.068000078E0,1.087005043E1,1.011000037E0,1.096908116E1
7.793116120E-1,-1.068000078E0,1.079295063E1,1.050000072E0,1.089637131E1
7.812733040E-1,-1.030050039E0,1.079295063E1,1.165050030E0,1.090440865E1
7.832350010E-1,-1.030050039E0,1.079295063E1,1.240950108E0,1.091277891E1
7.851966470E-1,-1.030050039E0,1.079295063E1,1.318050027E0,1.092181497E1
7.871583080E-1,-1.030050039E0,1.075500011E1,1.432950020E0,1.089882454E1
7.891198710E-1,-1.068000078E0,1.075500011E1,1.471050024E0,1.090754967E1
7.910814620E-1,-9.919500351E-1,1.075500011E1,1.510050058E0,1.090569775E1
7.930433020E-1,-9.919500351E-1,1.071600056E1,1.585950017E0,1.087804533E1
7.950050720E-1,-1.030050039E0,1.060095024E1,1.624950051E0,1.077411768E1
7.969667520E-1,-1.030050039E0,1.060095024E1,1.663050056E0,1.077992971E1
7.989284580E-1,-1.144950032E0,1.052505016E1,1.740000129E0,1.072917480E1
8.008900130E-1,-1.106999993E0,1.052505016E1,1.777950048E0,1.073141353E1
8.028516120E-1,-9.529500604E-1,1.052505016E1,2.008050203E0,1.075718645E1
8.048131440E-1,-8.380500674E-1,1.052505016E1,2.085000038E0,1.076225971E1
8.067746930E-1,-7.620000243E-1,1.048605061E1,2.314950228E0,1.076554206E1
8.087364090E-1,-6.469500065E-1,1.048605061E1,2.467950106E0,1.079196828E1
8.106980760E-1,-4.549500346E-1,1.041000080E1,2.620950222E0,1.074450912E1
8.126595480E-1,-4.930500090E-1,1.041000080E1,2.736000061E0,1.077482767E1
8.146210780E-1,-4.930500090E-1,1.044795036E1,2.812950134E0,1.083122586E1
8.165827830E-1,-3.019500077E-1,1.041000080E1,2.928000212E0,1.081815491E1
8.185444460E-1,-2.629500031E-1,1.033305073E1,3.004050255E0,1.076407906E1
8.205059640E-1,-1.480500102E-1,1.029495049E1,3.004050255E0,1.072530849E1
8.224675250E-1,-7.200000435E-2,1.029495049E1,3.196050167E0,1.077988526E1
8.244294190E-1,1.189500093E-1,1.014105034E1,3.234000206E0,1.064489589E1
8.263912160E-1,1.960500032E-1,1.010295010E1,3.273000240E0,1.062170263E1
8.283530920E-1,3.109500110E-1,9.988050461E0,3.388050079E0,1.055162193E1
8.303149610E-1,5.020500422E-1,9.910950661E0,3.463950157E0,1.051084906E1
8.322773440E-1,6.169500351E-1,9.796050072E0,3.502950191E0,1.042179852E1
8.342395760E-1,8.089500666E-1,9.681000710E0,3.579000235E0,1.035303905E1
8.362009510E-1,1.000050068E0,9.565950394E0,3.694050074E0,1.030308269E1
8.381625780E-1,1.153950095E0,9.451050758E0,3.694050074E0,1.021273554E1
8.401241150E-1,1.269000053E0,9.375000000E0,3.733050108E0,1.017038098E1
8.420856690E-1,1.345050097E0,9.259950638E0,3.733050108E0,1.007429941E1
8.440474290E-1,1.537050128E0,9.106050491E0,3.771000147E0,9.975125100E0
8.460091290E-1,1.690050125E0,8.991000175E0,3.808950186E0,9.909715188E0
8.479708210E-1,1.882050037E0,8.953050613E0,3.808950186E0,9.909961107E0
8.499325150E-1,2.111999989E0,8.800050735E0,3.733050108E0,9.789642486E0
8.518942010E-1,2.265000105E0,8.647050858E0,3.733050108E0,9.686969450E0
8.538558620E-1,2.494950056E0,8.532000542E0,3.694050074E0,9.626308481E0
8.558176040E-1,2.572050095E0,8.493000031E0,3.655950069E0,9.597523749E0
8.577793220E-1,2.802000046E0,8.416950226E0,3.655950069E0,9.594906267E0
8.597411900E-1,2.878050089E0,8.224950790E0,3.618000269E0,9.435195481E0
8.617030140E-1,3.108000040E0,7.995000362E0,3.426000118E0,9.236729500E0
8.636646440E-1,3.337950230E0,7.267050266E0,2.928000212E0,8.516167950E0
8.656263280E-1,3.337950230E0,7.497000217E0,2.965950251E0,8.726040619E0
8.675882460E-1,3.453000069E0,7.534950256E0,3.081000090E0,8.842581433E0
8.695500950E-1,3.492000103E0,7.458000183E0,3.043050051E0,8.779292970E0
8.715119420E-1,3.645000219E0,7.458000183E0,2.851050138E0,8.777031401E0
8.734737890E-1,3.837000132E0,7.458000183E0,2.698050022E0,8.810437598E0
8.754354700E-1,3.952050209E0,7.381950378E0,2.467950106E0,8.729414068E0
8.773971890E-1,4.027950287E0,7.342950344E0,2.122950077E0,8.640035897E0
8.793586510E-1,4.182000160E0,7.342950344E0,1.893000126E0,8.659762963E0
8.813201890E-1,4.297049999E0,7.342950344E0,1.701000094E0,8.676229583E0
8.832817720E-1,4.372950077E0,7.381950378E0,1.510050058E0,8.711838781E0
8.852433410E-1,4.450050354E0,7.342950344E0,1.471050024E0,8.711248824E0
8.872049900E-1,4.488000393E0,7.381950378E0,1.395000100E0,8.751077888E0
8.891666290E-1,4.564949989E0,7.420050144E0,1.356000066E0,8.816725510E0
8.911280170E-1,4.564949989E0,7.458000183E0,1.356000066E0,8.848687548E0
8.930894780E-1,4.488000393E0,7.534950256E0,1.395000100E0,8.880520715E0
8.950513890E-1,4.488000393E0,7.573050499E0,1.279950023E0,8.895589550E0
8.970131680E-1,4.450050354E0,7.687950134E0,1.203000069E0,8.964080242E0
8.989751460E-1,4.335000038E0,7.842000484E0,1.126049995E0,9.030901700E0
9.009370760E-1,4.182000160E0,7.918050289E0,1.050000072E0,9.015938435E0
9.028984130E-1,4.143000126E0,8.071949959E0,9.730500579E-1,9.125111100E0
9.048599240E-1,4.105050087E0,8.187000275E0,9.349500537E-1,9.206114344E0
9.068216470E-1,3.913050175E0,8.377950668E0,8.959500194E-1,9.290034742E0
9.087833070E-1,3.760050297E0,8.532000542E0,8.200500607E-1,9.359780637E0
9.107451850E-1,3.529950142E0,8.685000420E0,7.810500264E-1,9.407434264E0
9.127069990E-1,3.337950230E0,8.838000298E0,5.899500251E-1,9.465738324E0
9.146684910E-1,3.108000040E0,9.067950249E0,5.130000114E-1,9.599508059E0
9.166300780E-1,2.839950085E0,9.259950638E0,5.509500504E-1,9.701316831E0
9.185916080E-1,2.649000168E0,9.412950516E0,5.130000114E-1,9.792038006E0
9.205531550E-1,2.419050217E0,9.604950905E0,7.429500222E-1,9.932716676E0
9.225150060E-1,2.149950027E0,9.757950783E0,8.200500607E-1,1.002558580E1
9.244767680E-1,1.996950150E0,1.002600002E1,1.011000037E0,1.027280913E1
9.264384500E-1,1.729050040E0,1.025595093E1,1.087950110E0,1.045742697E1
9.284001550E-1,1.498950124E0,1.056300068E1,1.087950110E0,1.072415359E1
9.303613490E-1,1.306950092E0,1.067805004E1,1.087950110E0,1.081260869E1
9.323226930E-1,1.230000019E0,1.087005043E1,9.349500537E-1,1.097929998E1
9.342838910E-1,1.000050068E0,1.098495007E1,7.050000429E-1,1.105288438E1
9.362451410E-1,8.470500112E-1,1.110000038E1,6.660000086E-1,1.115217729E1
9.382066830E-1,7.320000529E-1,1.117605019E1,6.660000086E-1,1.121978065E1
9.401681390E-1,5.790000558E-1,1.125300026E1,7.429500222E-1,1.129235275E1
9.421291520E-1,3.490500152E-1,1.148295021E1,8.580000401E-1,1.152024937E1
9.440902950E-1,1.570500135E-1,1.152105045E1,9.349500537E-1,1.155999134E1
9.460519930E-1,-7.200000435E-2,1.167405033E1,1.011000037E0,1.171796724E1
9.480134950E-1,-2.629500031E-1,1.178895092E1,9.730500579E-1,1.183196234E1
9.499752200E-1,-4.549500346E-1,1.190400028E1,9.730500579E-1,1.195236498E1
9.519368790E-1,-6.469500065E-1,1.194300079E1,9.349500537E-1,1.199699729E1
9.538985770E-1,-8.380500674E-1,1.205805016E1,8.580000401E-1,1.211755196E1
9.558602640E-1,-1.030050039E0,1.205805016E1,8.200500607E-1,1.212971800E1
9.578221460E-1,-1.106999993E0,1.205805016E1,7.429500222E-1,1.213152906E1
9.597839650E-1,-1.183050036E0,1.213395023E1,7.050000429E-1,1.221185411E1
9.617456370E-1,-1.297950029E0,1.217295074E1,8.200500607E-1,1.226938818E1
9.637073520E-1,-1.489950061E0,1.228800011E1,8.200500607E-1,1.240513522E1
9.656689950E-1,-1.681950092E0,1.232595062E1,7.050000429E-1,1.246013804E1
9.676306600E-1,-1.834950089E0,1.228800011E1,5.130000114E-1,1.243483645E1
9.695922560E-1,-1.873050094E0,1.228800011E1,3.600000143E-1,1.243514629E1
9.715538480E-1,-1.873050094E0,1.232595062E1,3.979500234E-1,1.247380213E1
9.735156920E-1,-1.873050094E0,1.236405087E1,5.130000114E-1,1.251563979E1
9.754774620E-1,-1.873050094E0,1.240305042E1,5.509500504E-1,1.255577646E1
9.774393210E-1,-1.950000048E0,1.244100094E1,4.750500321E-1,1.260185213E1
9.794011540E-1,-1.950000048E0,1.244100094E1,4.360500276E-1,1.260044222E1
9.813635680E-1,-1.911000133E0,1.236405087E1,3.600000143E-1,1.251604072E1
9.833257940E-1,-1.911000133E0,1.236405087E1,2.070000172E-1,1.251257465E1
9.852875760E-1,-1.873050094E0,1.232595062E1,5.295000225E-2,1.246756508E1
9.872494880E-1,-1.834950089E0,1.228800011E1,-9.900000691E-2,1.242464444E1
9.892115470E-1,-1.720050097E0,1.217295074E1,-9.900000691E-2,1.229427115E1
9.911735630E-1,-1.642950058E0,1.201905060E1,-9.900000691E-2,1.213122678E1
9.931358750E-1,-1.567050099E0,1.194300079E1,-1.369500011E-1,1.204614749E1
9.950981010E-1,-1.567050099E0,1.178895092E1,-2.140500098E-1,1.189457133E1
9.970599280E-1,-1.489950061E0,1.178895092E1,-2.520000041E-1,1.188540361E1
9.990218720E-1,-1.375050068E0,1.175100040E1,-9.900000691E-2,1.183159221E1
1.000983836E0,-1.297950029E0,1.125300026E1,-5.209500194E-1,1.133958015E1
1.002945794E0,-1.030050039E0,1.113795090E1,-9.040500522E-1,1.122195436E1
1.004907306E0,-9.919500351E-1,1.129095078E1,5.295000225E-2,1.133456386E1
1.006868949E0,-1.260000110E0,1.144395065E1,2.830500007E-1,1.151658474E1
1.008831505E0,-1.260000110E0,1.148295021E1,9.195000678E-2,1.155223791E1
1.010793794E0,-1.106999993E0,1.136805058E1,-2.205000073E-2,1.142184351E1
1.012755610E0,-9.919500351E-1,1.125300026E1,-1.759500057E-1,1.129800594E1
1.014717565E0,-9.529500604E-1,1.117605019E1,-3.289500177E-1,1.122142681E1
1.016679536E0,-9.150000215E-1,1.113795090E1,-5.209500194E-1,1.118760762E1
1.018641495E0,-7.230000496E-1,1.048605061E1,-1.096050024E0,1.056793793E1
1.020602962E0,-6.079500318E-1,1.056300068E1,-1.171950102E0,1.064518922E1
1.022564574E0,-6.079500318E-1,1.048605061E1,-5.590500236E-1,1.051852639E1
1.024526639E0,-6.850500107E-1,1.048605061E1,-3.289500177E-1,1.051355120E1
1.026488572E0,-6.850500107E-1,1.056300068E1,-1.759500057E-1,1.058665364E1
1.028450070E0,-6.850500107E-1,1.056300068E1,-1.759500057E-1,1.058665364E1
1.030411709E0,-6.079500318E-1,1.048605061E1,-1.369500011E-1,1.050455215E1
1.032373409E0,-5.320500135E-1,1.037100029E1,-3.289500177E-1,1.038984756E1
1.034335091E0,-5.320500135E-1,1.018005085E1,-4.440000355E-1,1.020360958E1
1.036296966E0,-4.930500090E-1,9.988050461E0,-4.819500148E-1,1.001181932E1
1.038258784E0,-4.170000255E-1,9.873000145E0,-5.590500236E-1,9.897603640E0
1.040220567E0,-3.780000210E-1,9.720000267E0,-5.970000029E-1,9.745650220E0
1.042182377E0,-3.019500077E-1,9.528000832E0,-6.360000372E-1,9.553976643E0
1.044144049E0,-2.250000089E-1,9.375000000E0,-5.970000029E-1,9.396683405E0
1.046105762E0,-2.250000089E-1,9.259950638E0,-6.360000372E-1,9.284492817E0
1.048067810E0,-2.629500031E-1,9.145050049E0,-6.739500165E-1,9.173619336E0
1.050029760E0,-2.629500031E-1,8.991000175E0,-7.120500207E-1,9.022984101E0
1.051991425E0,-3.019500077E-1,8.877000809E0,-7.510500550E-1,8.913831575E0
1.053953194E0,-2.250000089E-1,8.800050735E0,-8.269500136E-1,8.841683339E0
1.055915008E0,-1.870500147E-1,8.647050858E0,-9.040500522E-1,8.696193578E0
1.057876808E0,-1.480500102E-1,8.569950104E0,-8.659500480E-1,8.614861175E0
1.059838707E0,-1.480500102E-1,8.455050468E0,-8.269500136E-1,8.496684268E0
1.061800577E0,-1.099500060E-1,8.416950226E0,-8.269500136E-1,8.458190494E0
1.063762181E0,-1.099500060E-1,8.187000275E0,-8.659500480E-1,8.233403427E0
1.065723873E0,-1.480500102E-1,8.071949959E0,-1.018950105E0,8.137355483E0
1.067685744E0,-1.480500102E-1,8.032950401E0,-9.420000315E-1,8.089349480E0
1.069647563E0,-1.099500060E-1,7.842000484E0,-9.420000315E-1,7.899140755E0
1.071609459E0,-1.870500147E-1,7.305000305E0,-1.632000089E0,7.487418878E0
1.073571332E0,4.200000316E-2,7.458000183E0,-1.249050021E0,7.561987615E0
1.075533309E0,-7.200000435E-2,7.573050499E0,-3.670500219E-1,7.582282214E0
1.077495255E0,-3.019500077E-1,7.687950134E0,-2.520000041E-1,7.698003318E0
1.079456950E0,-4.170000255E-1,7.842000484E0,-6.360000372E-1,7.878791574E0
1.081418719E0,-4.549500346E-1,7.803000450E0,-9.420000315E-1,7.872811418E0
1.083380532E0,-5.320500135E-1,7.803000450E0,-1.134000063E0,7.902901327E0
1.085342332E0,-5.700000525E-1,7.726950169E0,-1.287000060E0,7.854108996E0
1.087304011E0,-6.469500065E-1,7.687950134E0,-1.479000092E0,7.855607096E0
1.089265723E0,-6.079500318E-1,7.612050533E0,-1.441050053E0,7.771070828E0
1.091227411E0,-6.079500318E-1,7.573050499E0,-1.363950014E0,7.718876650E0
1.093189107E0,-5.700000525E-1,7.534950256E0,-1.402050018E0,7.685448567E0
1.095150663E0,-6.469500065E-1,7.497000217E0,-1.441050053E0,7.661604390E0
1.097112261E0,-6.850500107E-1,7.458000183E0,-1.441050053E0,7.626774253E0
1.099073775E0,-6.079500318E-1,7.381950378E0,-1.402050018E0,7.538470593E0
1.101035324E0,-6.850500107E-1,7.420050144E0,-1.326000094E0,7.568666587E0
1.102997040E0,-6.850500107E-1,7.420050144E0,-1.402050018E0,7.582359917E0
1.104958707E0,-6.850500107E-1,7.381950378E0,-1.441050053E0,7.552424125E0
1.106920584E0,-6.469500065E-1,7.381950378E0,-1.402050018E0,7.541715982E0
1.108882399E0,-7.620000243E-1,7.381950378E0,-1.326000094E0,7.538707560E0
1.110844091E0,-7.230000496E-1,7.420050144E0,-1.363950014E0,7.578933491E0
1.112805805E0,-7.620000243E-1,7.458000183E0,-1.326000094E0,7.613191645E0
1.114767448E0,-7.999500632E-1,7.420050144E0,-1.287000060E0,7.573204962E0
1.116729112E0,-7.999500632E-1,7.420050144E0,-1.287000060E0,7.573204962E0
1.118690853E0,-8.770500422E-1,7.420050144E0,-1.287000060E0,7.581736613E0
1.120652572E0,-8.380500674E-1,7.497000217E0,-1.326000094E0,7.659348303E0
1.122614390E0,-8.770500422E-1,7.420050144E0,-1.287000060E0,7.581736613E0
1.124576182E0,-9.150000215E-1,7.420050144E0,-1.326000094E0,7.592933915E0
1.126537723E0,-9.529500604E-1,7.420050144E0,-1.363950014E0,7.604315722E0
1.128499338E0,-8.770500422E-1,7.342950344E0,-1.249050021E0,7.499884165E0
1.130460998E0,-8.770500422E-1,7.420050144E0,-1.287000060E0,7.581736613E0
1.132422644E0,-8.770500422E-1,7.381950378E0,-1.287000060E0,7.544453414E0
1.134384103E0,-9.150000215E-1,7.381950378E0,-1.287000060E0,7.548959238E0
1.136345661E0,-8.770500422E-1,7.342950344E0,-1.287000060E0,7.506297735E0
1.138307375E0,-8.770500422E-1,7.381950378E0,-1.363950014E0,7.557960559E0
1.140269043E0,-8.380500674E-1,7.305000305E0,-1.402050018E0,7.485392550E0
1.142230965E0,-7.999500632E-1,7.342950344E0,-1.402050018E0,7.518283322E0
1.144192813E0,-7.620000243E-1,7.305000305E0,-1.555950046E0,7.507639712E0
1.146154596E0,-7.620000243E-1,7.305000305E0,-1.479000092E0,7.492070126E0
1.148116411E0,-7.620000243E-1,7.267050266E0,-1.441050053E0,7.447636462E0
1.150078082E0,-7.230000496E-1,7.189950466E0,-1.516950130E0,7.383715493E0
1.152039796E0,-7.230000496E-1,7.113000393E0,-1.516950130E0,7.308805741E0
1.154001484E0,-7.230000496E-1,7.113000393E0,-1.516950130E0,7.308805741E0
1.155963180E0,-6.079500318E-1,7.075050354E0,-1.479000092E0,7.253508256E0
1.157924721E0,-5.320500135E-1,7.113000393E0,-1.363950014E0,7.262107920E0
1.159886319E0,-4.549500346E-1,7.113000393E0,-1.363950014E0,7.256866663E0
1.161848027E0,-4.930500090E-1,7.189950466E0,-1.516950130E0,7.364755510E0
1.163809702E0,-4.549500346E-1,7.267050266E0,-1.402050018E0,7.415034953E0
1.165771532E0,-4.549500346E-1,7.267050266E0,-1.516950130E0,7.437616339E0
1.167733317E0,-3.780000210E-1,7.305000305E0,-1.555950046E0,7.478428580E0
1.169695021E0,-3.780000210E-1,7.305000305E0,-1.479000092E0,7.462798051E0
1.171656762E0,-3.780000210E-1,7.420050144E0,-1.441050053E0,7.568134077E0
1.173618760E0,-3.780000210E-1,7.458000183E0,-1.402050018E0,7.598052053E0
1.175580683E0,-4.170000255E-1,7.534950256E0,-1.479000092E0,7.690045881E0
1.177542562E0,-4.549500346E-1,7.612050533E0,-1.441050053E0,7.760600370E0
1.179504454E0,-5.320500135E-1,7.650000572E0,-1.402050018E0,7.795596849E0
1.181466292E0,-5.320500135E-1,7.687950134E0,-1.363950014E0,7.826111047E0
1.183428146E0,-5.700000525E-1,7.726950169E0,-1.287000060E0,7.854108996E0
1.185389811E0,-5.700000525E-1,7.765050411E0,-1.249050021E0,7.885495159E0
1.187351531E0,-6.469500065E-1,7.842000484E0,-1.287000060E0,7.973197920E0
1.189313038E0,-6.079500318E-1,7.879950523E0,-1.249050021E0,8.001459207E0
1.191274608E0,-6.079500318E-1,7.842000484E0,-1.210950017E0,7.958201730E0
1.193236315E0,-6.469500065E-1,7.842000484E0,-1.287000060E0,7.973197920E0
1.195197986E0,-7.230000496E-1,7.918050289E0,-1.249050021E0,8.048501439E0
1.197159682E0,-7.999500632E-1,7.918050289E0,-1.210950017E0,8.049959033E0
1.199121370E0,-7.620000243E-1,7.995000362E0,-1.287000060E0,8.133698051E0
1.201082884E0,-7.999500632E-1,7.957050323E0,-1.326000094E0,8.106346045E0
1.203044449E0,-7.999500632E-1,7.957050323E0,-1.287000060E0,8.100057969E0
1.205006298E0,-9.150000215E-1,8.032950401E0,-1.326000094E0,8.192911170E0
1.206968063E0,-9.150000215E-1,7.995000362E0,-1.363950014E0,8.161961497E0
1.208929608E0,-9.529500604E-1,8.032950401E0,-1.363950014E0,8.203460587E0
1.210891218E0,-9.919500351E-1,7.995000362E0,-1.363950014E0,8.170945803E0
1.212852878E0,-1.030050039E0,7.995000362E0,-1.441050053E0,8.188874107E0
1.214814524E0,-1.030050039E0,7.995000362E0,-1.516950130E0,8.202571035E0
1.216776289E0,-1.106999993E0,7.995000362E0,-1.594050050E0,8.227179063E0
1.218738005E0,-1.106999993E0,7.995000362E0,-1.632000089E0,8.234616207E0
1.220700054E0,-1.106999993E0,7.957050323E0,-1.708950043E0,8.213440758E0
1.222662005E0,-1.144950032E0,8.032950401E0,-1.786050081E0,8.308379964E0
1.224623968E0,-1.222050071E0,7.995000362E0,-1.708950043E0,8.266434988E0
1.226585928E0,-1.297950029E0,8.032950401E0,-1.708950043E0,8.314654333E0
1.228547405E0,-1.413000107E0,8.071949959E0,-1.747050047E0,8.378850118E0
1.230509017E0,-1.375050068E0,8.187000275E0,-1.786050081E0,8.491625938E0
1.232470722E0,-1.452000022E0,8.224950790E0,-1.786050081E0,8.540965663E0
1.234432399E0,-1.452000022E0,8.340000153E0,-1.786050081E0,8.651813769E0
1.236394094E0,-1.567050099E0,8.455050468E0,-1.786050081E0,8.782567923E0
1.238355784E0,-1.567050099E0,8.647050858E0,-1.824000120E0,8.975194203E0
1.240317536E0,-1.642950058E0,8.800050735E0,-1.747050047E0,9.120984690E0
1.242279260E0,-1.642950058E0,8.991000175E0,-1.708950043E0,9.298272920E0
1.244240587E0,-1.605000019E0,9.145050049E0,-1.671000123E0,9.433992096E0
1.246202031E0,-1.567050099E0,9.259950638E0,-1.516950130E0,9.513331148E0
1.248163764E0,-1.528050065E0,9.375000000E0,-1.402050018E0,9.601630396E0
1.250125413E0,-1.489950061E0,9.490050316E0,-1.363950014E0,9.702647362E0
1.252087268E0,-1.489950061E0,9.604950905E0,-1.287000060E0,9.804662270E0
1.254049049E0,-1.452000022E0,9.796050072E0,-1.287000060E0,9.986354201E0
1.256010727E0,-1.489950061E0,9.949950218E0,-1.210950017E0,1.013350189E1
1.257972435E0,-1.528050065E0,1.010295010E1,-1.287000060E0,1.029858761E1
1.259934125E0,-1.489950061E0,1.025595093E1,-1.249050021E0,1.043861133E1
1.261895820E0,-1.567050099E0,1.044795036E1,-1.210950017E0,1.063398856E1
1.263857556E0,-1.642950058E0,1.060095024E1,-1.287000060E0,1.080443428E1
1.265819280E0,-1.681950092E0,1.075500011E1,-1.326000094E0,1.096618711E1
1.267780607E0,-1.720050097E0,1.090800095E1,-1.326000094E0,1.112211011E1
1.269742051E0,-1.681950092E0,1.106100082E1,-1.326000094E0,1.126645337E1
1.271704100E0,-1.720050097E0,1.117605019E1,-1.326000094E0,1.138511951E1
1.273665972E0,-1.873050094E0,1.132905006E1,-1.326000094E0,1.155915085E1
1.275627498E0,-2.065050125E0,1.132905006E1,-2.169000149E0,1.171820673E1
1.277589127E0,-1.758000135E0,1.140600014E1,-1.555950046E0,1.164510129E1
1.279550829E0,-1.758000135E0,1.163595009E1,-7.890000343E-1,1.179442326E1
1.281512509E0,-1.873050094E0,1.175100040E1,-8.269500136E-1,1.192804148E1
1.283474160E0,-1.911000133E0,1.186605072E1,-1.057050109E0,1.206534028E1
1.285435819E0,-1.911000133E0,1.182795048E1,-1.249050021E0,1.204626332E1
1.287397397E0,-1.950000048E0,1.190400028E1,-1.479000092E0,1.215298993E1
1.289358988E0,-1.987950087E0,1.186605072E1,-1.632000089E0,1.214160325E1
1.291320652E0,-1.950000048E0,1.194300079E1,-1.671000123E0,1.221597354E1
1.293282294E0,-1.950000048E0,1.194300079E1,-1.671000123E0,1.221597354E1
1.295243995E0,-2.026050091E0,1.186605072E1,-1.708950043E0,1.215847642E1
1.297205678E0,-1.987950087E0,1.178895092E1,-1.786050081E0,1.208806371E1
1.299167042E0,-1.987950087E0,1.171305084E1,-1.824000120E0,1.201975383E1
1.301128511E0,-1.950000048E0,1.167405033E1,-1.900950074E0,1.198747523E1
1.303090241E0,-1.950000048E0,1.159800053E1,-2.092050076E0,1.194540874E1
1.305051894E0,-1.911000133E0,1.144395065E1,-2.092050076E0,1.178951236E1
1.307013414E0,-1.873050094E0,1.129095078E1,-2.130000114E0,1.164176905E1
1.308974973E0,-1.834950089E0,1.117605019E1,-2.245050192E0,1.154605517E1
1.310936647E0,-1.834950089E0,1.106100082E1,-2.284050226E0,1.144245020E1
1.312898284E0,-1.834950089E0,1.090800095E1,-2.398950100E0,1.131841367E1
1.314860031E0,-1.834950089E0,1.079295063E1,-2.437050104E0,1.121579415E1
1.316821745E0,-1.834950089E0,1.067805004E1,-2.475000143E0,1.111365917E1
1.318783569E0,-1.873050094E0,1.052505016E1,-2.551950216E0,1.099078921E1
1.320745361E0,-1.911000133E0,1.041000080E1,-2.551950216E0,1.088726265E1
1.322706916E0,-1.911000133E0,1.029495049E1,-2.551950216E0,1.077730843E1
1.324668530E0,-1.987950087E0,1.025595093E1,-2.590050220E0,1.076312386E1
1.326630010E0,-2.026050091E0,1.014105034E1,-2.629050016E0,1.067041166E1
1.328591530E0,-2.065050125E0,9.988050461E0,-2.590050220E0,1.052301973E1
1.330553251E0,-2.140950203E0,9.949950218E0,-2.514000177E0,1.048357639E1
1.332514913E0,-2.179949999E0,9.910950661E0,-2.514000177E0,1.045463160E1
1.334476463E0,-2.332950115E0,9.835050583E0,-2.514000177E0,1.041590481E1
1.336438055E0,-2.332950115E0,9.796050072E0,-2.437050104E0,1.036071747E1
1.338399764E0,-2.410050154E0,9.796050072E0,-2.322000027E0,1.035193812E1
1.340361438E0,-2.524950027E0,9.796050072E0,-2.245050192E0,1.036234626E1
1.342323314E0,-2.524950027E0,9.873000145E0,-2.206950188E0,1.042699063E1
1.344285130E0,-2.601000071E0,9.910950661E0,-2.053950071E0,1.045039977E1
1.346246757E0,-2.677950144E0,1.002600002E1,-1.824000120E0,1.053655873E1
1.348208440E0,-2.677950144E0,1.014105034E1,-1.977000117E0,1.067337100E1
1.350169998E0,-2.716050148E0,1.021800041E1,-1.939050078E0,1.074915699E1
1.352131593E0,-2.793000221E0,1.029495049E1,-1.824000120E0,1.082191444E1
1.354093256E0,-2.793000221E0,1.037100029E1,-1.786050081E0,1.088799670E1
1.356054899E0,-2.793000221E0,1.048605061E1,-1.747050047E0,1.099137350E1
1.358016471E0,-2.755050182E0,1.060095024E1,-1.708950043E0,1.108561941E1
1.359978060E0,-2.755050182E0,1.071600056E1,-1.824000120E0,1.121382833E1
1.361939769E0,-2.716050148E0,1.079295063E1,-1.786050081E0,1.127185373E1
1.363901443E0,-2.601000071E0,1.094595051E1,-1.708950043E0,1.137978665E1
1.365862959E0,-2.448000193E0,1.094595051E1,-1.824000120E0,1.136369279E1
1.367824522E0,-2.256000042E0,1.094595051E1,-1.708950043E0,1.130592230E1
1.369785831E0,-2.179949999E0,1.102305031E1,-1.671000123E0,1.136010834E1
1.371747214E0,-2.140950203E0,1.110000038E1,-1.594050050E0,1.141642115E1
1.373708778E0,-2.065050125E0,1.106100082E1,-1.555950046E0,1.135918799E1
1.375670289E0,-1.987950087E0,1.110000038E1,-1.441050053E0,1.136831471E1
1.377631832E0,-1.911000133E0,1.110000038E1,-1.363950014E0,1.134558459E1
1.379593366E0,-1.758000135E0,1.106100082E1,-1.326000094E0,1.127805745E1
1.381554731E0,-1.567050099E0,1.110000038E1,-1.249050021E0,1.127944061E1
1.383516142E0,-1.413000107E0,1.110000038E1,-1.171950102E0,1.125077974E1
1.385477522E0,-1.260000110E0,1.106100082E1,-1.057050109E0,1.118260678E1
1.387438911E0,-1.144950032E0,1.110000038E1,-9.040500522E-1,1.119545558E1
1.389400700E0,-1.030050039E0,1.117605019E1,-7.120500207E-1,1.124598222E1
1.391362371E0,-9.919500351E-1,1.121400070E1,-6.360000372E-1,1.127573823E1
1.393323842E0,-9.150000215E-1,1.125300026E1,-5.970000029E-1,1.130591212E1
1.395285372E0,-7.620000243E-1,1.125300026E1,-4.060500264E-1,1.128607706E1
1.397246911E0,-7.620000243E-1,1.132905006E1,-3.670500219E-1,1.136057856E1
1.399208447E0,-6.850500107E-1,1.136805058E1,-3.670500219E-1,1.139458613E1
1.401169986E0,-5.320500135E-1,1.136805058E1,-4.060500264E-1,1.138773585E1
1.403131524E0,-4.930500090E-1,1.140600014E1,-4.440000355E-1,1.142528221E1
1.405093063E0,-6.469500065E-1,1.094595051E1,-1.555950046E0,1.107489762E1
1.407054601E0,-7.200000435E-2,1.079295063E1,-1.555950046E0,1.090476721E1
1.409015599E0,1.189500093E-1,1.106100082E1,9.195000678E-2,1.106202256E1
1.410976756E0,-3.299999982E-2,1.121400070E1,8.959500194E-1,1.124978343E1
1.412939306E0,-7.200000435E-2,1.144395065E1,5.130000114E-1,1.145566932E1
1.414901447E0,4.200000316E-2,1.159800053E1,2.449500114E-1,1.160066294E1
1.416862838E0,1.189500093E-1,1.178895092E1,2.449500114E-1,1.179209538E1
1.418824449E0,1.189500093E-1,1.201905060E1,1.680000126E-1,1.202081322E1
1.420786020E0,1.570500135E-1,1.217295074E1,9.195000678E-2,1.217431104E1
1.422747603E0,1.960500032E-1,1.224900055E1,1.500000060E-2,1.225057856E1
1.424709313E0,3.490500152E-1,1.236405087E1,1.500000060E-2,1.236898600E1
1.426670985E0,4.260000288E-1,1.247895050E1,1.300500035E-1,1.248689692E1
1.428633144E0,5.790000558E-1,1.259400082E1,2.449500114E-1,1.260968271E1
1.430595183E0,7.320000529E-1,1.274805069E1,3.600000143E-1,1.277412308E1
1.432556682E0,8.850000501E-1,1.286295033E1,5.509500504E-1,1.290512542E1
1.434518339E0,1.153950095E0,1.293900108E1,6.280500293E-1,1.300552947E1
1.436479857E0,1.306950092E0,1.305405045E1,7.429500222E-1,1.314033205E1
1.438441416E0,1.345050097E0,1.309305096E1,8.580000401E-1,1.318989413E1
1.440402931E0,1.498950124E0,1.309305096E1,9.349500537E-1,1.321169809E1
1.442364473E0,1.614000082E0,1.313100052E1,1.050000072E0,1.327142310E1
1.444325966E0,1.804950118E0,1.316895103E1,1.087950110E0,1.333651948E1
1.446287473E0,1.996950150E0,1.313100052E1,1.240950108E0,1.333982540E1
1.448249061E0,2.188950062E0,1.301595020E1,1.395000100E0,1.327224500E1
1.450210625E0,2.341950178E0,1.290105057E1,1.471050024E0,1.319415873E1
1.452172359E0,2.533950090E0,1.270905018E1,1.548000097E0,1.305132805E1
1.454134029E0,2.686950207E0,1.247895050E1,1.701000094E0,1.287778352E1
1.456095546E0,2.725050211E0,1.221105099E1,1.777950048E0,1.263711879E1
1.458057108E0,2.839950085E0,1.194300079E1,1.930950046E0,1.242695266E1
1.460018957E0,2.992950201E0,1.163595009E1,2.085000038E0,1.219427368E1
1.461980722E0,3.108000040E0,1.129095078E1,2.200050116E0,1.191576494E1
1.463942267E0,3.108000040E0,1.098495007E1,2.238000154E0,1.163346195E1
1.465903877E0,3.070050240E0,1.067805004E1,2.275950193E0,1.134133636E1
1.467865898E0,2.802000046E0,1.033305073E1,2.238000154E0,1.093763166E1
1.469827799E0,2.917050123E0,1.006500053E1,2.314950228E0,1.073184102E1
1.471789456E0,2.878050089E0,9.796050072E0,2.467950106E0,1.050412048E1
1.473751185E0,2.725050211E0,9.490050316E0,2.506050110E0,1.018662068E1
1.475713030E0,2.533950090E0,9.220950127E0,2.430000067E0,9.866697757E0
1.477674855E0,2.419050217E0,8.877000809E0,2.275950193E0,9.478021766E0
1.479636345E0,2.227050066E0,8.569950104E0,2.200050116E0,9.123815939E0
1.481597934E0,2.188950062E0,8.302050591E0,2.046000004E0,8.826191840E0
1.483559824E0,2.074050188E0,8.071949959E0,1.930950046E0,8.554918375E0
1.485521625E0,1.996950150E0,7.803000450E0,1.893000126E0,8.273939533E0
1.487483539E0,1.882050037E0,7.573050499E0,1.740000129E0,7.995048884E0
1.489445409E0,1.843950033E0,7.381950378E0,1.663050056E0,7.788393840E0
1.491407431E0,1.690050125E0,7.267050266E0,1.585950017E0,7.627681591E0
1.493369409E0,1.614000082E0,7.152000427E0,1.585950017E0,7.501422787E0
1.495331188E0,1.498950124E0,7.036950111E0,1.510050058E0,7.351582790E0
1.497293026E0,1.459950089E0,6.960000515E0,1.471050024E0,7.262027927E0
1.499254868E0,1.345050097E0,6.883050442E0,1.471050024E0,7.165858729E0
1.501216712E0,1.306950092E0,6.883050442E0,1.432950020E0,7.151073184E0
1.503178424E0,1.269000053E0,6.844950199E0,1.395000100E0,7.099980961E0
1.505140175E0,1.230000019E0,6.807000160E0,1.279950023E0,7.034658719E0
1.507102352E0,1.153950095E0,6.807000160E0,1.356000066E0,7.036020763E0
1.509064404E0,1.039050102E0,6.844950199E0,1.240950108E0,7.033699277E0
1.511025915E0,9.240000248E-1,6.883050442E0,1.279950023E0,7.061758385E0
1.512987574E0,8.850000501E-1,6.922050476E0,1.395000100E0,7.116462124E0
1.514949271E0,8.089500666E-1,6.997950554E0,1.395000100E0,7.181346492E0
1.516910956E0,7.699500322E-1,6.997950554E0,1.395000100E0,7.177057913E0
1.518872606E0,6.550500393E-1,7.152000427E0,1.395000100E0,7.316161968E0
1.520834266E0,6.169500351E-1,7.228050232E0,1.471050024E0,7.401981199E0
1.522795128E0,5.020500422E-1,7.381950378E0,1.471050024E0,7.543820902E0
1.524756209E0,5.020500422E-1,7.497000217E0,1.471050024E0,7.656438773E0
1.526718005E0,4.260000288E-1,7.573050499E0,1.471050024E0,7.726354772E0
1.528679592E0,3.490500152E-1,7.726950169E0,1.471050024E0,7.873473375E0
1.530641483E0,3.109500110E-1,7.879950523E0,1.510050058E0,8.029356222E0
1.532603284E0,2.340000123E-1,7.995000362E0,1.471050024E0,8.132574929E0
1.534564954E0,1.960500032E-1,8.148000717E0,1.510050058E0,8.289065235E0
1.536526666E0,1.570500135E-1,8.340000153E0,1.510050058E0,8.477058360E0
1.538488354E0,1.570500135E-1,8.493000031E0,1.510050058E0,8.627628029E0
1.540450050E0,8.100000024E-2,8.685000420E0,1.548000097E0,8.822250143E0
1.542411697E0,4.200000316E-2,8.800050735E0,1.510050058E0,8.928768567E0
1.544373358E0,4.050000105E-3,9.030000687E0,1.510050058E0,9.155390761E0
1.546335069E0,-7.200000435E-2,9.183000565E0,1.510050058E0,9.306607037E0
1.548296755E0,-7.200000435E-2,9.259950638E0,1.471050024E0,9.376345663E0
1.550258493E0,-7.200000435E-2,9.451050758E0,1.471050024E0,9.565120627E0
1.552220216E0,-7.200000435E-2,9.565950394E0,1.471050024E0,9.678666184E0
1.554181724E0,-7.200000435E-2,9.720000267E0,1.471050024E0,9.830949973E0
1.556143295E0,-3.299999982E-2,9.835050583E0,1.510050058E0,9.950354775E0
1.558104764E0,-3.299999982E-2,9.910950661E0,1.471050024E0,1.001958184E1
1.560066276E0,8.100000024E-2,9.988050461E0,1.471050024E0,1.009612308E1
1.562027998E0,1.189500093E-1,1.006500053E1,1.471050024E0,1.017262862E1
1.563989659E0,1.189500093E-1,1.014105034E1,1.471050024E0,1.024787974E1
1.565951223E0,1.570500135E-1,1.014105034E1,1.471050024E0,1.024839279E1
1.567912815E0,3.109500110E-1,1.021800041E1,1.395000100E0,1.031747293E1
1.569874712E0,3.109500110E-1,1.018005085E1,1.395000100E0,1.027989059E1
1.571836514E0,5.020500422E-1,1.021800041E1,1.356000066E0,1.031980246E1
1.573798008E0,4.639500082E-1,1.002600002E1,1.279950023E0,1.011801355E1
1.575759593E0,4.260000288E-1,9.910950661E0,1.240950108E0,9.997418476E0
1.577722204E0,4.639500082E-1,1.002600002E1,1.318050027E0,1.012290383E1
1.579684514E0,6.940500140E-1,1.002600002E1,1.432950020E0,1.015163670E1
1.581646098E0,7.699500322E-1,9.873000145E0,1.240950108E0,9.980426448E0
1.583607897E0,9.240000248E-1,9.835050583E0,1.165050030E0,9.946825503E0
1.585569705E0,1.077000022E0,9.796050072E0,1.126049995E0,9.919199295E0
1.587531510E0,1.114950061E0,9.720000267E0,1.050000072E0,9.839919663E0
1.589493229E0,1.153950095E0,9.681000710E0,1.050000072E0,9.805910244E0
1.591454974E0,1.269000053E0,9.604950905E0,9.349500537E-1,9.733425637E0
1.593416790E0,1.269000053E0,9.565950394E0,9.349500537E-1,9.694941963E0
1.595378586E0,1.306950092E0,9.565950394E0,8.959500194E-1,9.696300940E0
1.597340307E0,1.306950092E0,9.490050316E0,9.349500537E-1,9.625139227E0
1.599302050E0,1.306950092E0,9.451050758E0,8.580000401E-1,9.579490751E0
1.601263913E0,1.306950092E0,9.451050758E0,8.580000401E-1,9.579490751E0
1.603225740E0,1.230000019E0,9.451050758E0,8.959500194E-1,9.572773210E0
1.605187560E0,1.230000019E0,9.451050758E0,8.200500607E-1,9.565967938E0
1.607149372E0,1.269000053E0,9.412950516E0,8.200500607E-1,9.533440127E0
1.609110909E0,1.269000053E0,9.490050316E0,9.349500537E-1,9.620059653E0
1.611072526E0,1.269000053E0,9.412950516E0,9.349500537E-1,9.544010171E0
1.613034546E0,1.192050099E0,9.412950516E0,8.959500194E-1,9.530338257E0
1.614996447E0,1.230000019E0,9.412950516E0,8.959500194E-1,9.535159353E0
1.616958118E0,1.192050099E0,9.412950516E0,8.959500194E-1,9.530338257E0
1.618919847E0,1.153950095E0,9.336000443E0,8.959500194E-1,9.449615417E0
1.620881577E0,1.039050102E0,9.336000443E0,8.580000401E-1,9.432745806E0
1.622843306E0,1.000050068E0,9.375000000E0,8.580000401E-1,9.467147892E0
1.624804948E0,9.619500637E-1,9.375000000E0,7.810500264E-1,9.456532772E0
1.626766616E0,9.619500637E-1,9.412950516E0,8.580000401E-1,9.500797304E0
1.628728478E0,9.240000248E-1,9.412950516E0,8.200500607E-1,9.493676609E0
1.630690293E0,8.850000501E-1,9.451050758E0,8.200500607E-1,9.527752496E0
1.632651966E0,8.089500666E-1,9.565950394E0,8.959500194E-1,9.641811738E0
1.634613680E0,6.940500140E-1,9.528000832E0,9.349500537E-1,9.598887273E0
1.636575593E0,6.550500393E-1,9.565950394E0,1.011000037E0,9.641504995E0
1.638537447E0,6.169500351E-1,9.643050194E0,9.730500579E-1,9.711635846E0
1.640498567E0,5.020500422E-1,9.643050194E0,1.011000037E0,9.708892437E0
1.642459906E0,4.260000288E-1,9.681000710E0,1.050000072E0,9.747089356E0
1.644421657E0,3.870000243E-1,9.720000267E0,1.050000072E0,9.784205351E0
1.646383288E0,3.490500152E-1,9.720000267E0,9.730500579E-1,9.774818030E0
1.648344991E0,2.340000123E-1,9.643050194E0,1.011000037E0,9.698726417E0
1.650306673E0,1.960500032E-1,9.681000710E0,1.011000037E0,9.735621779E0
1.652268323E0,1.570500135E-1,9.643050194E0,1.050000072E0,9.701318565E0
1.654229983E0,1.570500135E-1,9.643050194E0,1.087950110E0,9.705499327E0
1.656191546E0,1.189500093E-1,9.681000710E0,1.087950110E0,9.742666949E0
1.658153137E0,-3.299999982E-2,9.565950394E0,1.050000072E0,9.623460712E0
1.660115026E0,-1.480500102E-1,9.565950394E0,8.200500607E-1,9.602177245E0
1.662076827E0,-7.200000435E-2,9.643050194E0,1.050000072E0,9.700314489E0
1.664038825E0,8.100000024E-2,9.604950905E0,1.203000069E0,9.680333261E0
1.666000759E0,4.050000105E-3,9.604950905E0,1.203000069E0,9.679995220E0
1.667962411E0,-3.299999982E-2,9.528000832E0,1.087950110E0,9.589969984E0
1.669924146E0,-3.299999982E-2,9.528000832E0,9.730500579E-1,9.577615322E0
1.671885876E0,-7.200000435E-2,9.490050316E0,9.730500579E-1,9.540076803E0
1.673847607E0,-1.480500102E-1,9.490050316E0,9.349500537E-1,9.537143462E0
1.675810169E0,-3.780000210E-1,9.298050880E0,4.360500276E-1,9.315941918E0
1.677772504E0,-4.170000255E-1,8.953050613E0,-1.759500057E-1,8.964483405E0
1.679733141E0,-7.200000435E-2,9.030000687E0,6.280500293E-1,9.052101592E0
1.681694276E0,4.050000105E-3,9.067950249E0,1.471050024E0,9.186496954E0
1.683655882E0,-3.299999982E-2,9.220950127E0,1.701000094E0,9.376588482E0
1.685617350E0,-1.099500060E-1,9.336000443E0,1.624950051E0,9.476996145E0
1.687579062E0,-2.250000089E-1,9.375000000E0,1.432950020E0,9.486548148E0
1.689540716E0,-1.870500147E-1,9.412950516E0,1.165050030E0,9.486620404E0
1.691502415E0,-7.200000435E-2,9.375000000E0,8.580000401E-1,9.414455538E0
1.693464101E0,-1.099500060E-1,9.336000443E0,7.429500222E-1,9.366160793E0
1.695425615E0,-1.099500060E-1,9.336000443E0,7.429500222E-1,9.366160793E0
1.697387180E0,-1.480500102E-1,9.336000443E0,8.580000401E-1,9.376512525E0
1.699348879E0,-1.099500060E-1,9.220950127E0,9.349500537E-1,9.268880291E0
1.701310548E0,-3.299999982E-2,9.220950127E0,8.580000401E-1,9.260840907E0
1.703272245E0,-3.299999982E-2,9.106050491E0,8.200500607E-1,9.142960497E0
1.705233933E0,-3.299999982E-2,9.145050049E0,7.810500264E-1,9.178402287E0
1.707195447E0,-3.299999982E-2,9.106050491E0,7.429500222E-1,9.136367948E0
1.709157012E0,-3.299999982E-2,9.106050491E0,7.810500264E-1,9.139545049E0
1.711118760E0,4.050000105E-3,9.030000687E0,8.200500607E-1,9.067161127E0
1.713080461E0,4.050000105E-3,9.030000687E0,8.200500607E-1,9.067161127E0
1.715041928E0,4.050000105E-3,8.914950371E0,8.200500607E-1,8.952588375E0
1.717003463E0,-7.200000435E-2,8.914950371E0,7.429500222E-1,8.946144357E0
1.718964822E0,-3.299999982E-2,8.877000809E0,6.660000086E-1,8.902010355E0
1.720926233E0,-3.299999982E-2,8.838000298E0,6.660000086E-1,8.863119895E0
1.722887977E0,4.050000105E-3,8.877000809E0,6.660000086E-1,8.901950111E0
1.724849620E0,-7.200000435E-2,8.838000298E0,6.280500293E-1,8.860580122E0
1.726811321E0,4.050000105E-3,8.838000298E0,5.899500251E-1,8.857669371E0
1.728773005E0,4.200000316E-2,8.838000298E0,6.280500293E-1,8.860387130E0
1.730734384E0,-3.299999982E-2,8.838000298E0,6.280500293E-1,8.860349039E0
1.732695853E0,4.200000316E-2,8.877000809E0,6.280500293E-1,8.899289533E0
1.734657753E0,-7.200000435E-2,8.914950371E0,5.899500251E-1,8.934739232E0
1.736619533E0,-3.299999982E-2,8.914950371E0,5.509500504E-1,8.932019652E0
1.738581212E0,4.050000105E-3,8.877000809E0,5.509500504E-1,8.894082624E0
1.740542920E0,4.050000105E-3,8.914950371E0,4.750500321E-1,8.927599288E0
1.742504969E0,-3.299999982E-2,8.914950371E0,3.220500052E-1,8.920826493E0
1.744466918E0,4.050000105E-3,8.991000175E0,3.979500234E-1,8.999803597E0
1.746428402E0,8.100000024E-2,9.030000687E0,5.130000114E-1,9.044923571E0
1.748390012E0,4.050000105E-3,8.991000175E0,6.660000086E-1,9.015634008E0
1.750351718E0,4.050000105E-3,9.067950249E0,6.280500293E-1,9.089674634E0
1.752313395E0,-7.200000435E-2,9.067950249E0,5.130000114E-1,9.082734980E0
1.754275405E0,-3.299999982E-2,9.067950249E0,5.130000114E-1,9.082509550E0
1.756237318E0,-3.299999982E-2,9.145050049E0,3.979500234E-1,9.153763904E0
1.758199337E0,4.050000105E-3,9.145050049E0,2.830500007E-1,9.149430261E0
1.760161322E0,4.200000316E-2,9.145050049E0,3.600000143E-1,9.152229477E0
1.762123010E0,-3.299999982E-2,9.145050049E0,3.600000143E-1,9.152192601E0
1.764084785E0,-7.200000435E-2,9.183000565E0,4.360500276E-1,9.193629479E0
1.766046643E0,-1.099500060E-1,9.183000565E0,3.979500234E-1,9.192276791E0
1.768008476E0,-7.200000435E-2,9.259950638E0,3.979500234E-1,9.268777375E0
1.769970358E0,-7.200000435E-2,9.298050880E0,3.220500052E-1,9.303905115E0
1.771932202E0,-3.299999982E-2,9.298050880E0,3.220500052E-1,9.303685043E0
1.773894544E0,4.050000105E-3,9.298050880E0,2.830500007E-1,9.302359049E0
1.775856740E0,4.200000316E-2,9.259950638E0,2.830500007E-1,9.264370843E0
1.777818573E0,-3.299999982E-2,9.220950127E0,2.830500007E-1,9.225352435E0
1.779780512E0,-3.299999982E-2,9.183000565E0,2.449500114E-1,9.186326190E0
1.781742328E0,-3.299999982E-2,9.067950249E0,2.449500114E-1,9.071318053E0
1.783704190E0,-7.200000435E-2,9.067950249E0,2.830500007E-1,9.072652480E0
1.785666033E0,4.050000105E-3,9.106050491E0,2.830500007E-1,9.110449454E0
1.787627882E0,1.189500093E-1,9.106050491E0,2.070000172E-1,9.109179637E0
1.789589683E0,1.189500093E-1,9.106050491E0,2.449500114E-1,9.110121029E0
1.791551498E0,4.200000316E-2,9.145050049E0,2.070000172E-1,9.147488912E0
1.793513314E0,4.200000316E-2,9.220950127E0,2.449500114E-1,9.224298659E0
1.795475154E0,-3.299999982E-2,9.183000565E0,2.449500114E-1,9.186326190E0
1.797437046E0,-3.299999982E-2,9.183000565E0,2.070000172E-1,9.185392609E0
1.799398923E0,-3.299999982E-2,9.220950127E0,2.449500114E-1,9.224262071E0
1.801360944E0,4.050000105E-3,9.183000565E0,2.830500007E-1,9.187362683E0
1.803322923E0,-1.099500060E-1,9.106050491E0,2.070000172E-1,9.109066558E0
1.805284615E0,-2.629500031E-1,9.183000565E0,1.680000126E-1,9.188300500E0
1.807246358E0,-2.250000089E-1,9.106050491E0,2.070000172E-1,9.111181568E0
1.809207276E0,-1.870500147E-1,9.067950249E0,3.979500234E-1,9.078605270E0
1.811168435E0,-3.400500119E-1,9.067950249E0,4.360500276E-1,9.084794734E0
1.813130217E0,-3.400500119E-1,9.030000687E0,3.979500234E-1,9.045159514E0
1.815091817E0,-3.780000210E-1,9.030000687E0,3.220500052E-1,9.043644875E0
1.817053960E0,-5.320500135E-1,9.030000687E0,2.830500007E-1,9.050088780E0
1.819015923E0,-5.700000525E-1,9.067950249E0,2.830500007E-1,9.090255171E0
1.820977705E0,-6.079500318E-1,9.030000687E0,1.300500035E-1,9.051377168E0
1.822939541E0,-6.079500318E-1,9.030000687E0,1.300500035E-1,9.051377168E0
1.824900893E0,-6.079500318E-1,8.953050613E0,1.300500035E-1,8.974610383E0
1.826862387E0,-6.469500065E-1,8.991000175E0,5.295000225E-2,9.014401376E0
1.828823748E0,-6.469500065E-1,8.991000175E0,9.195000678E-2,9.014714819E0
1.830785151E0,-7.230000496E-1,8.991000175E0,1.300500035E-1,9.020960383E0
1.832747027E0,-7.230000496E-1,9.067950249E0,2.449500114E-1,9.100024796E0
1.834708764E0,-7.230000496E-1,9.030000687E0,1.680000126E-1,9.060456141E0
1.836670495E0,-7.620000243E-1,9.067950249E0,2.070000172E-1,9.102264265E0
1.838632228E0,-7.999500632E-1,9.106050491E0,1.680000126E-1,9.142663707E0
1.840594273E0,-8.380500674E-1,9.067950249E0,2.070000172E-1,9.108946077E0
1.842556226E0,-8.380500674E-1,9.067950249E0,2.070000172E-1,9.108946077E0
1.844517830E0,-8.770500422E-1,9.183000565E0,1.680000126E-1,9.226317800E0
1.846479536E0,-7.999500632E-1,9.145050049E0,1.680000126E-1,9.181507747E0
1.848441046E0,-8.770500422E-1,9.183000565E0,2.070000172E-1,9.227110336E0
1.850402613E0,-8.380500674E-1,9.220950127E0,2.449500114E-1,9.262194646E0
1.852364676E0,-8.380500674E-1,9.220950127E0,2.449500114E-1,9.262194646E0
1.854326601E0,-7.999500632E-1,9.220950127E0,2.449500114E-1,9.258825079E0
1.856287939E0,-7.620000243E-1,9.259950638E0,3.220500052E-1,9.296829893E0
1.858249449E0,-6.850500107E-1,9.220950127E0,2.830500007E-1,9.250693599E0
1.860210452E0,-7.230000496E-1,9.259950638E0,3.220500052E-1,9.293714601E0
1.862171603E0,-6.469500065E-1,9.298050880E0,3.220500052E-1,9.326093003E0
1.864133366E0,-5.320500135E-1,9.298050880E0,3.979500234E-1,9.321759041E0
1.866094932E0,-5.320500135E-1,9.298050880E0,4.750500321E-1,9.325368621E0
1.868056646E0,-5.700000525E-1,9.336000443E0,4.750500321E-1,9.365440559E0
1.870018317E0,-5.700000525E-1,9.336000443E0,6.660000086E-1,9.377065657E0
1.871980238E0,-4.170000255E-1,9.375000000E0,6.660000086E-1,9.407872769E0
1.873942086E0,-3.780000210E-1,9.412950516E0,7.050000429E-1,9.446880252E0
1.875904117E0,-3.019500077E-1,9.412950516E0,8.580000401E-1,9.456795191E0
1.877866091E0,-2.629500031E-1,9.412950516E0,8.580000401E-1,9.455630290E0
1.879827736E0,-2.629500031E-1,9.412950516E0,7.810500264E-1,9.448958634E0
1.881789478E0,-2.250000089E-1,9.451050758E0,7.050000429E-1,9.479979457E0
1.883751296E0,-1.870500147E-1,9.375000000E0,6.660000086E-1,9.400487685E0
1.885713091E0,-2.629500031E-1,9.375000000E0,5.899500251E-1,9.397223459E0
1.887674666E0,-2.250000089E-1,9.375000000E0,6.660000086E-1,9.401319376E0
1.889636281E0,-1.480500102E-1,9.298050880E0,6.280500293E-1,9.320413930E0
1.891598346E0,-1.099500060E-1,9.298050880E0,6.660000086E-1,9.322520860E0
1.893560279E0,-1.099500060E-1,9.259950638E0,6.660000086E-1,9.284521034E0
1.895522111E0,-1.480500102E-1,9.336000443E0,7.810500264E-1,9.369784534E0
1.897483973E0,-7.200000435E-2,9.298050880E0,7.050000429E-1,9.325017921E0
1.899445802E0,4.050000105E-3,9.298050880E0,7.429500222E-1,9.327686815E0
1.901407651E0,-7.200000435E-2,9.336000443E0,8.200500607E-1,9.372223342E0
1.903369451E0,-3.299999982E-2,9.412950516E0,7.429500222E-1,9.442282624E0
1.905331266E0,-3.299999982E-2,9.375000000E0,8.580000401E-1,9.414238050E0
1.907292757E0,-3.299999982E-2,9.451050758E0,8.580000401E-1,9.489974368E0
1.909254343E0,-3.299999982E-2,9.451050758E0,8.200500607E-1,9.486618551E0
1.911215858E0,4.050000105E-3,9.528000832E0,8.959500194E-1,9.570033578E0
1.913177405E0,-3.299999982E-2,9.565950394E0,8.200500607E-1,9.601092544E0
1.915138986E0,-7.200000435E-2,9.643050194E0,7.810500264E-1,9.674897425E0
1.917100557E0,-3.299999982E-2,9.681000710E0,8.200500607E-1,9.715726727E0
1.919062586E0,-7.200000435E-2,9.757950783E0,8.580000401E-1,9.795864002E0
1.921024480E0,-1.480500102E-1,9.796050072E0,8.959500194E-1,9.838050734E0
1.922986529E0,-1.480500102E-1,9.910950661E0,8.580000401E-1,9.949121864E0
1.924948543E0,-1.099500060E-1,1.002600002E1,8.580000401E-1,1.006324647E1
1.926910497E0,-2.629500031E-1,1.006500053E1,8.200500607E-1,1.010177512E1
1.928872468E0,-3.019500077E-1,1.014105034E1,7.050000429E-1,1.017000987E1
1.930834292E0,-3.780000210E-1,1.025595093E1,7.050000429E-1,1.028710059E1
1.932796160E0,-3.400500119E-1,1.029495049E1,6.660000086E-1,1.032207322E1
1.934758051E0,-3.780000210E-1,1.037100029E1,7.050000429E-1,1.040180542E1
1.936719932E0,-4.170000255E-1,1.048605061E1,6.280500293E-1,1.051311529E1
1.938681907E0,-5.320500135E-1,1.052505016E1,5.899500251E-1,1.055498930E1
1.940643855E0,-5.700000525E-1,1.060095024E1,6.280500293E-1,1.063482454E1
1.942605864E0,-6.469500065E-1,1.071600056E1,6.280500293E-1,1.075386717E1
1.944567855E0,-7.999500632E-1,1.075500011E1,5.899500251E-1,1.080083277E1
1.946529658E0,-7.620000243E-1,1.083105087E1,5.899500251E-1,1.087383778E1
1.948491530E0,-8.380500674E-1,1.087005043E1,6.280500293E-1,1.092038329E1
1.950453056E0,-9.529500604E-1,1.094595051E1,6.280500293E-1,1.100528933E1
1.952414684E0,-9.919500351E-1,1.102305031E1,6.280500293E-1,1.108539804E1
1.954376521E0,-1.030050039E0,1.102305031E1,5.899500251E-1,1.108677961E1
1.956338297E0,-1.144950032E0,1.106100082E1,5.130000114E-1,1.113192790E1
1.958300157E0,-1.144950032E0,1.110000038E1,5.130000114E-1,1.117067984E1
1.960262023E0,-1.222050071E0,1.113795090E1,5.130000114E-1,1.121652912E1
1.962223867E0,-1.297950029E0,1.121400070E1,5.509500504E-1,1.130230207E1
1.964185718E0,-1.183050036E0,1.125300026E1,4.360500276E-1,1.132341653E1
1.966148418E0,-1.183050036E0,1.129095078E1,3.220500052E-1,1.135732772E1
1.968110870E0,-1.222050071E0,1.125300026E1,2.070000172E-1,1.132105429E1
1.970072428E0,-1.297950029E0,1.125300026E1,1.680000126E-1,1.132885312E1
1.972034251E0,-1.297950029E0,1.132905006E1,2.449500114E-1,1.140579020E1
1.973995966E0,-1.260000110E0,1.132905006E1,2.449500114E-1,1.140153394E1
1.975957713E0,-1.183050036E0,1.136805058E1,2.830500007E-1,1.143294794E1
1.977919530E0,-1.183050036E0,1.132905006E1,2.449500114E-1,1.139328676E1
1.979881326E0,-1.106999993E0,1.132905006E1,1.300500035E-1,1.138374883E1
1.981842988E0,-1.068000078E0,1.132905006E1,1.300500035E-1,1.138002252E1
1.983804699E0,-1.068000078E0,1.125300026E1,1.680000126E-1,1.130481592E1
1.985766612E0,-1.030050039E0,1.121400070E1,1.680000126E-1,1.126246149E1
1.987728466E0,-9.529500604E-1,1.121400070E1,1.680000126E-1,1.125567188E1
1.989690312E0,-8.770500422E-1,1.113795090E1,2.449500114E-1,1.117511376E1
1.991652160E0,-8.770500422E-1,1.110000038E1,2.449500114E-1,1.113728987E1
1.993613932E0,-7.999500632E-1,1.102305031E1,1.680000126E-1,1.105331544E1
1.995575747E0,-7.230000496E-1,1.098495007E1,9.195000678E-2,1.100910132E1
1.997537463E0,-6.079500318E-1,1.094595051E1,1.300500035E-1,1.096359196E1
1.999499208E0,-5.700000525E-1,1.090800095E1,1.300500035E-1,1.092365771E1
2.001460891E0,-4.170000255E-1,1.087005043E1,1.680000126E-1,1.087934324E1
2.003422593E0,-3.780000210E-1,1.079295063E1,1.300500035E-1,1.080035094E1
2.005384274E0,-3.400500119E-1,1.071600056E1,1.680000126E-1,1.072271076E1
2.007345968E0,-2.250000089E-1,1.075500011E1,2.070000172E-1,1.075934484E1
2.009307660E0,-7.200000435E-2,1.067805004E1,2.070000172E-1,1.068029895E1
2.011269352E0,-3.299999982E-2,1.063995075E1,2.070000172E-1,1.064201532E1
2.013230864E0,8.100000024E-2,1.060095024E1,2.070000172E-1,1.060328044E1
2.015192429E0,8.100000024E-2,1.060095024E1,2.070000172E-1,1.060328044E1
2.017153954E0,1.960500032E-1,1.060095024E1,2.449500114E-1,1.060559202E1
2.019115497E0,2.340000123E-1,1.056300068E1,2.830500007E-1,1.056938298E1
2.021076314E0,2.719500065E-1,1.056300068E1,2.830500007E-1,1.057029127E1
2.023037343E0,3.109500110E-1,1.056300068E1,4.360500276E-1,1.057656905E1
2.024999103E0,3.109500110E-1,1.056300068E1,5.899500251E-1,1.058403110E1
2.026960649E0,3.109500110E-1,1.063995075E1,6.660000086E-1,1.066530815E1
2.028922182E0,1.960500032E-1,1.075500011E1,6.280500293E-1,1.077510603E1
2.030883723E0,1.960500032E-1,1.075500011E1,5.899500251E-1,1.077295243E1
2.032845801E0,1.960500032E-1,1.087005043E1,3.979500234E-1,1.087909905E1
2.034807721E0,1.570500135E-1,1.090800095E1,2.449500114E-1,1.091188113E1
2.036769240E0,1.189500093E-1,1.098495007E1,1.300500035E-1,1.098636382E1
2.038730877E0,8.100000024E-2,1.102305031E1,1.680000126E-1,1.102462803E1
2.040691877E0,1.189500093E-1,1.113795090E1,2.830500007E-1,1.114218186E1
2.042653050E0,4.200000316E-2,1.117605019E1,3.220500052E-1,1.118076822E1
2.044614785E0,4.050000105E-3,1.121400070E1,5.130000114E-1,1.122572925E1
2.046576355E0,-7.200000435E-2,1.125300026E1,4.360500276E-1,1.126167565E1
2.048537709E0,-1.099500060E-1,1.129095078E1,5.509500504E-1,1.130491948E1
2.050499127E0,-1.870500147E-1,1.132905006E1,6.280500293E-1,1.134798704E1
2.052460685E0,-2.629500031E-1,1.125300026E1,8.200500607E-1,1.128590447E1
2.054422201E0,-3.019500077E-1,1.121400070E1,1.011000037E0,1.126352994E1
2.056383384E0,-4.549500346E-1,1.125300026E1,1.165050030E0,1.132229376E1
2.058344665E0,-5.320500135E-1,1.132905006E1,1.318050027E0,1.141786795E1
2.060306472E0,-6.079500318E-1,1.140600014E1,1.471050024E0,1.151652858E1
2.062268125E0,-6.079500318E-1,1.140600014E1,1.471050024E0,1.151652858E1
2.064229479E0,-6.850500107E-1,1.140600014E1,1.510050058E0,1.152590056E1
2.066190910E0,-8.770500422E-1,1.144395065E1,1.510050058E0,1.157641890E1
2.068152601E0,-9.529500604E-1,1.148295021E1,1.548000097E0,1.162594356E1
2.070114215E0,-1.068000078E0,1.152105045E1,1.585950017E0,1.167863285E1
2.072075787E0,-1.375050068E0,1.140600014E1,1.740000129E0,1.161960422E1
2.074037371E0,-1.375050068E0,1.140600014E1,2.008050203E0,1.166275557E1
2.075999022E0,-1.297950029E0,1.136805058E1,2.238000154E0,1.165872604E1
2.077960663E0,-1.222050071E0,1.129095078E1,2.545050144E0,1.163856761E1
2.079922364E0,-1.106999993E0,1.117605019E1,2.698050022E0,1.155028228E1
2.081884048E0,-1.068000078E0,1.113795090E1,2.506050110E0,1.146624880E1
2.083845563E0,-1.068000078E0,1.113795090E1,2.275950193E0,1.141816639E1
2.085807127E0,-1.030050039E0,1.106100082E1,2.391000032E0,1.136325761E1
2.087768666E0,-8.770500422E-1,1.102305031E1,2.583000183E0,1.135556008E1
2.089730209E0,-7.999500632E-1,1.090800095E1,2.659050226E0,1.125588525E1
2.091691746E0,-7.230000496E-1,1.083105087E1,2.812950134E0,1.121370057E1
2.093653285E0,-6.850500107E-1,1.075500011E1,2.812950134E0,1.113786377E1
2.095615003E0,-5.320500135E-1,1.067805004E1,2.851050138E0,1.106491377E1
2.097576668E0,-4.930500090E-1,1.056300068E1,2.965950251E0,1.098257450E1
2.099538051E0,-3.400500119E-1,1.041000080E1,3.043050051E0,1.085098633E1
2.101499516E0,-2.629500031E-1,1.025595093E1,3.196050167E0,1.074562277E1
2.103461201E0,-3.019500077E-1,1.021800041E1,3.273000240E0,1.073364974E1
2.105422822E0,-1.870500147E-1,1.014105034E1,3.196050167E0,1.063440766E1
2.107384707E0,4.200000316E-2,9.949950218E0,3.196050167E0,1.045074208E1
2.109346514E0,2.340000123E-1,9.757950783E0,3.310950041E0,1.030702429E1
2.111308927E0,5.410500169E-1,9.643050194E0,3.463950157E0,1.026060928E1
2.113271149E0,7.320000529E-1,9.490050316E0,3.579000235E0,1.016888006E1
2.115232796E0,8.470500112E-1,9.336000443E0,3.618000269E0,1.004829955E1
2.117194612E0,9.619500637E-1,9.220950127E0,3.618000269E0,9.951944288E0
2.119156283E0,1.114950061E0,9.067950249E0,3.655950069E0,9.840569407E0
2.121117997E0,1.230000019E0,8.914950371E0,3.655950069E0,9.713661054E0
2.123079819E0,1.306950092E0,8.838000298E0,3.579000235E0,9.624323897E0
2.125041610E0,1.114950061E0,8.608050346E0,3.349050045E0,9.303643405E0
2.127003332E0,1.230000019E0,8.532000542E0,3.157950163E0,9.180445660E0
2.128965074E0,1.575000048E0,8.416950226E0,3.234000206E0,9.153383723E0
2.130927072E0,1.882050037E0,8.187000275E0,2.965950251E0,8.908756744E0
2.132888995E0,2.227050066E0,8.071949959E0,2.851050138E0,8.845598625E0
2.134850648E0,2.419050217E0,7.957050323E0,2.889000177E0,8.804134019E0
2.136812381E0,2.725050211E0,7.879950523E0,3.118950129E0,8.902099124E0
2.138774246E0,2.992950201E0,7.765050411E0,3.426000118E0,8.999513076E0
2.140736072E0,3.147000074E0,7.650000572E0,3.694050074E0,9.059366654E0
2.142697742E0,3.147000074E0,7.573050499E0,3.808950186E0,9.042278742E0
2.144659458E0,3.223050117E0,7.497000217E0,3.771000147E0,8.989633275E0
2.146621175E0,3.376950264E0,7.420050144E0,3.618000269E0,8.919129059E0
2.148582903E0,3.492000103E0,7.305000305E0,3.463950157E0,8.806590990E0
2.150544950E0,3.607050180E0,7.267050266E0,3.349050045E0,8.777070512E0
2.152506903E0,3.721950293E0,7.152000427E0,3.388050079E0,8.745450671E0
2.154468687E0,3.798000097E0,7.113000393E0,3.234000206E0,8.687826924E0
2.156430520E0,3.798000097E0,7.113000393E0,3.196050167E0,8.673771729E0
2.158392257E0,3.798000097E0,7.113000393E0,3.004050255E0,8.604876365E0
2.160354006E0,3.798000097E0,7.189950466E0,2.812950134E0,8.604236218E0
2.162316183E0,3.798000097E0,7.189950466E0,2.545050144E0,8.520415053E0
2.164278235E0,3.798000097E0,7.267050266E0,2.200050116E0,8.489702281E0
2.166240092E0,3.453000069E0,6.768000126E0,8.580000401E-1,7.646253936E0
2.168202006E0,3.721950293E0,7.036950111E0,8.580000401E-1,8.006731226E0
2.170163990E0,3.760050297E0,7.152000427E0,1.279950023E0,8.180914399E0
2.172125942E0,3.645000219E0,7.342950344E0,1.471050024E0,8.328801506E0
2.174087950E0,3.568050146E0,7.534950256E0,1.510050058E0,8.472703724E0
2.176049942E0,3.529950142E0,7.687950134E0,1.510050058E0,8.593333256E0
2.178011989E0,3.415050268E0,7.803000450E0,1.471050024E0,8.643689752E0
2.179974019E0,3.300000191E0,8.032950401E0,1.432950020E0,8.801797496E0
2.181936144E0,3.223050117E0,8.148000717E0,1.318050027E0,8.860881650E0
2.183898245E0,3.070050240E0,8.302050591E0,1.126049995E0,8.922849381E0
2.185860229E0,2.917050123E0,8.455050468E0,1.011000037E0,9.001065544E0
2.187822247E0,2.839950085E0,8.569950104E0,9.730500579E-1,9.080538953E0
2.189784109E0,2.725050211E0,8.685000420E0,9.349500537E-1,9.150369530E0
2.191746016E0,2.572050095E0,8.877000809E0,9.730500579E-1,9.293191673E0
2.193708026E0,2.419050217E0,9.030000687E0,8.959500194E-1,9.391242878E0
2.195670009E0,2.227050066E0,9.259950638E0,8.580000401E-1,9.562562516E0
2.197631968E0,1.959000111E0,9.490050316E0,8.580000401E-1,9.728047106E0
2.199593934E0,1.843950033E0,9.643050194E0,7.810500264E-1,9.848787129E0
2.201555759E0,1.575000048E0,9.910950661E0,7.810500264E-1,1.006566477E1
2.203517626E0,1.459950089E0,1.010295010E1,8.580000401E-1,1.024388691E1
2.205479532E0,1.306950092E0,1.029495049E1,7.810500264E-1,1.040692861E1
2.207441413E0,1.269000053E0,1.037100029E1,8.959500194E-1,1.048669322E1
2.209403388E0,1.114950061E0,1.052505016E1,8.959500194E-1,1.062179462E1
2.211365336E0,9.619500637E-1,1.071600056E1,8.200500607E-1,1.079029647E1
2.213327166E0,8.089500666E-1,1.083105087E1,9.349500537E-1,1.090138500E1
2.215289030E0,6.169500351E-1,1.102305031E1,1.011000037E0,1.108649568E1
2.217249781E0,4.260000288E-1,1.113795090E1,9.349500537E-1,1.118523839E1
2.219210866E0,2.719500065E-1,1.129095078E1,7.810500264E-1,1.132119982E1
2.221172481E0,2.340000123E-1,1.136805058E1,6.280500293E-1,1.138779069E1
2.223133941E0,4.050000105E-3,1.148295021E1,4.750500321E-1,1.149277314E1
2.225096574E0,-7.200000435E-2,1.155900097E1,3.220500052E-1,1.156371063E1
2.227058864E0,-1.870500147E-1,1.159800053E1,2.830500007E-1,1.160296174E1
2.229019746E0,-3.400500119E-1,1.167405033E1,3.220500052E-1,1.168344133E1
2.230981064E0,-4.930500090E-1,1.171305084E1,3.220500052E-1,1.172784612E1
2.232943000E0,-6.850500107E-1,1.178895092E1,3.220500052E-1,1.181322875E1
2.234904754E0,-7.999500632E-1,1.182795048E1,3.979500234E-1,1.186164815E1
2.236866932E0,-9.150000215E-1,1.182795048E1,3.979500234E-1,1.186996216E1
2.238828985E0,-9.919500351E-1,1.182795048E1,3.220500052E-1,1.187384073E1
2.240791022E0,-1.068000078E0,1.178895092E1,2.830500007E-1,1.184061254E1
2.242753064E0,-1.183050036E0,1.182795048E1,3.600000143E-1,1.189241859E1
2.244715551E0,-1.297950029E0,1.175100040E1,2.830500007E-1,1.182585312E1
2.246677908E0,-1.336950064E0,1.175100040E1,2.830500007E-1,1.183019709E1
2.248640028E0,-1.375050068E0,1.167405033E1,2.449500114E-1,1.175730472E1
2.250602218E0,-1.452000022E0,1.167405033E1,2.070000172E-1,1.176582357E1
2.252564194E0,-1.642950058E0,1.167405033E1,1.680000126E-1,1.179029092E1
2.254526227E0,-1.642950058E0,1.175100040E1,1.300500035E-1,1.186601064E1
2.256488041E0,-1.720050097E0,1.175100040E1,1.680000126E-1,1.187740741E1
2.258449919E0,-1.834950089E0,1.178895092E1,1.680000126E-1,1.193208404E1
2.260411984E0,-1.834950089E0,1.175100040E1,1.680000126E-1,1.189459021E1
2.262373994E0,-1.834950089E0,1.171305084E1,9.195000678E-2,1.185626656E1
2.264335754E0,-1.873050094E0,1.175100040E1,9.195000678E-2,1.189969672E1
2.266297598E0,-1.834950089E0,1.175100040E1,1.300500035E-1,1.189411474E1
2.268259804E0,-1.795950055E0,1.171305084E1,1.300500035E-1,1.185065018E1
2.270221903E0,-1.758000135E0,1.171305084E1,5.295000225E-2,1.184436272E1
2.272183887E0,-1.720050097E0,1.163595009E1,1.500000060E-2,1.176240332E1
2.274145905E0,-1.642950058E0,1.159800053E1,-2.520000041E-1,1.171650140E1
2.276107741E0,-1.567050099E0,1.152105045E1,-3.670500219E-1,1.163292634E1
2.278069617E0,-1.567050099E0,1.155900097E1,-2.520000041E-1,1.166746131E1
2.280031458E0,-1.489950061E0,1.152105045E1,-2.910000086E-1,1.162063835E1
2.281993309E0,-1.452000022E0,1.144395065E1,-4.060500264E-1,1.154284138E1
2.283955154E0,-1.413000107E0,1.136805058E1,-4.440000355E-1,1.146413011E1
2.285917001E0,-1.336950064E0,1.132905006E1,-4.440000355E-1,1.141630180E1
2.287879026E0,-1.260000110E0,1.125300026E1,-5.970000029E-1,1.133904864E1
2.289840999E0,-1.144950032E0,1.113795090E1,-6.360000372E-1,1.121469379E1
2.291802869E0,-1.106999993E0,1.106100082E1,-6.360000372E-1,1.113443686E1
2.293764770E0,-9.919500351E-1,1.090800095E1,-5.590500236E-1,1.096726887E1
2.295726921E0,-9.919500351E-1,1.087005043E1,-5.970000029E-1,1.093153101E1
2.297688999E0,-9.150000215E-1,1.075500011E1,-5.209500194E-1,1.080641668E1
2.299651328E0,-9.150000215E-1,1.063995075E1,-5.209500194E-1,1.069192059E1
2.301613596E0,-8.770500422E-1,1.052505016E1,-5.970000029E-1,1.057838866E1
2.303575551E0,-7.620000243E-1,1.037100029E1,-6.360000372E-1,1.041838697E1
2.305537598E0,-7.230000496E-1,1.025595093E1,-5.590500236E-1,1.029659145E1
2.307499769E0,-7.230000496E-1,1.018005085E1,-5.209500194E-1,1.021898005E1
2.309461903E0,-6.850500107E-1,1.006500053E1,-6.739500165E-1,1.011077336E1
2.311423921E0,-6.079500318E-1,1.002600002E1,-5.209500194E-1,1.005791572E1
2.313385977E0,-4.930500090E-1,9.949950218E0,-5.590500236E-1,9.977832660E0
2.315347742E0,-4.170000255E-1,9.835050583E0,-5.209500194E-1,9.857661889E0
2.317309593E0,-3.780000210E-1,9.757950783E0,-4.819500148E-1,9.777155175E0
2.319271303E0,-3.780000210E-1,9.604950905E0,-6.360000372E-1,9.633403446E0
2.321233054E0,-2.629500031E-1,9.528000832E0,-6.739500165E-1,9.555425222E0
2.323195051E0,-1.870500147E-1,9.375000000E0,-7.120500207E-1,9.403862395E0
2.325156975E0,-1.480500102E-1,9.259950638E0,-6.739500165E-1,9.285624009E0
2.327118629E0,-1.480500102E-1,9.145050049E0,-8.269500136E-1,9.183556257E0
2.329080362E0,-1.480500102E-1,9.030000687E0,-9.040500522E-1,9.076350462E0
2.331042452E0,-7.200000435E-2,8.991000175E0,-7.890000343E-1,9.025840083E0
2.333004437E0,-7.200000435E-2,8.953050613E0,-8.269500136E-1,8.991448471E0
2.334966464E0,-1.099500060E-1,8.877000809E0,-8.659500480E-1,8.919815124E0
2.336928461E0,-1.099500060E-1,8.914950371E0,-7.890000343E-1,8.950472064E0
2.338890597E0,-1.480500102E-1,8.800050735E0,-7.510500550E-1,8.833282965E0
2.340852692E0,-1.099500060E-1,8.685000420E0,-9.810000658E-1,8.740919999E0
2.342814677E0,-7.200000435E-2,8.685000420E0,-1.018950105E0,8.744865671E0
2.344776694E0,-7.200000435E-2,8.569950104E0,-1.096050024E0,8.640055233E0
2.346738730E0,-3.299999982E-2,8.569950104E0,-1.018950105E0,8.630376185E0
2.348700764E0,-3.299999982E-2,8.532000542E0,-9.420000315E-1,8.583908568E0
2.350662534E0,-7.200000435E-2,8.493000031E0,-9.040500522E-1,8.541284448E0
2.352624381E0,-7.200000435E-2,8.416950226E0,-1.018950105E0,8.478708299E0
2.354586406E0,-3.299999982E-2,8.377950668E0,-1.171950102E0,8.459587073E0
2.356548379E0,4.050000105E-3,8.263050079E0,-1.134000063E0,8.340501733E0
2.358510583E0,-3.299999982E-2,8.302050591E0,-1.171950102E0,8.384426042E0
2.360472706E0,-3.299999982E-2,8.302050591E0,-1.210950017E0,8.389966207E0
2.362434551E0,-3.299999982E-2,8.263050079E0,-1.249050021E0,8.356985794E0
2.364396477E0,-3.299999982E-2,8.224950790E0,-1.210950017E0,8.313681763E0
2.366358444E0,4.050000105E-3,8.187000275E0,-1.171950102E0,8.270456876E0
2.368320398E0,-7.200000435E-2,8.187000275E0,-1.210950017E0,8.276385530E0
2.370282272E0,-1.099500060E-1,8.187000275E0,-1.134000063E0,8.265894909E0
2.372244169E0,-1.099500060E-1,8.187000275E0,-1.134000063E0,8.265894909E0
2.374205962E0,-1.870500147E-1,8.148000717E0,-1.096050024E0,8.223516830E0
2.376167785E0,-1.870500147E-1,8.148000717E0,-1.018950105E0,8.213596211E0
2.378129454E0,-2.250000089E-1,8.148000717E0,-1.018950105E0,8.214548071E0
2.380091169E0,-1.480500102E-1,8.187000275E0,-1.018950105E0,8.251493902E0
2.382053407E0,-1.480500102E-1,8.187000275E0,-9.810000658E-1,8.246893563E0
2.384015485E0,-1.870500147E-1,8.224950790E0,-1.057050109E0,8.294706634E0
2.385977337E0,-1.870500147E-1,8.224950790E0,-1.096050024E0,8.299766796E0
2.387939256E0,-2.250000089E-1,8.187000275E0,-1.057050109E0,8.258023579E0
2.389901045E0,-1.870500147E-1,8.224950790E0,-1.096050024E0,8.299766796E0
2.391862872E0,-2.629500031E-1,8.187000275E0,-1.018950105E0,8.254354943E0
2.393824720E0,-3.019500077E-1,8.110050201E0,-1.134000063E0,8.194513056E0
2.395786562E0,-3.400500119E-1,8.110050201E0,-1.096050024E0,8.190840856E0
2.397748409E0,-3.780000210E-1,8.032950401E0,-1.134000063E0,8.121399652E0
2.399710254E0,-4.549500346E-1,7.995000362E0,-1.134000063E0,8.087828291E0
2.401671921E0,-5.320500135E-1,7.879950523E0,-1.134000063E0,7.978887993E0
2.403633641E0,-4.930500090E-1,7.803000450E0,-1.210950017E0,7.911783255E0
2.405595193E0,-4.930500090E-1,7.803000450E0,-1.171950102E0,7.905908005E0
2.407556795E0,-4.930500090E-1,7.726950169E0,-1.057050109E0,7.814487325E0
2.409518682E0,-5.320500135E-1,7.687950134E0,-1.096050024E0,7.783892351E0
2.411480485E0,-5.320500135E-1,7.726950169E0,-1.210950017E0,7.839339007E0
2.413442160E0,-6.079500318E-1,7.534950256E0,-1.363950014E0,7.681499739E0
2.415403872E0,-5.700000525E-1,7.497000217E0,-1.210950017E0,7.615530990E0
2.417365548E0,-5.320500135E-1,7.497000217E0,-1.057050109E0,7.589825058E0
2.419327212E0,-6.079500318E-1,7.458000183E0,-1.096050024E0,7.562585248E0
2.421289089E0,-6.079500318E-1,7.420050144E0,-1.096050024E0,7.525162659E0
2.423250903E0,-6.079500318E-1,7.420050144E0,-1.171950102E0,7.536591698E0
2.425212620E0,-6.469500065E-1,7.381950378E0,-1.171950102E0,7.502346482E0
2.427174366E0,-6.850500107E-1,7.420050144E0,-1.326000094E0,7.568666587E0
2.429136363E0,-6.469500065E-1,7.342950344E0,-1.249050021E0,7.476469088E0
2.431098287E0,-6.850500107E-1,7.381950378E0,-1.249050021E0,7.518152091E0
2.433059941E0,-6.469500065E-1,7.305000305E0,-1.210950017E0,7.432898070E0
2.435021674E0,-6.850500107E-1,7.305000305E0,-1.326000094E0,7.455910355E0
2.436983538E0,-6.469500065E-1,7.305000305E0,-1.249050021E0,7.439200207E0
2.438945364E0,-6.850500107E-1,7.267050266E0,-1.134000063E0,7.386830798E0
2.440907389E0,-6.850500107E-1,7.228050232E0,-1.210950017E0,7.360733905E0
2.442869359E0,-7.620000243E-1,7.228050232E0,-1.249050021E0,7.374651188E0
2.444831005E0,-7.620000243E-1,7.189950466E0,-1.210950017E0,7.330922976E0
2.446792746E0,-7.230000496E-1,7.152000427E0,-1.326000094E0,7.309727453E0
2.448754475E0,-7.620000243E-1,7.152000427E0,-1.249050021E0,7.300128773E0
2.450716207E0,-7.999500632E-1,7.152000427E0,-1.287000060E0,7.310772830E0
2.452678048E0,-7.620000243E-1,7.189950466E0,-1.287000060E0,7.343868252E0
2.454639874E0,-7.999500632E-1,7.152000427E0,-1.326000094E0,7.317739164E0
2.456601859E0,-7.620000243E-1,7.267050266E0,-1.326000094E0,7.426233221E0
2.458563797E0,-7.620000243E-1,7.342950344E0,-1.326000094E0,7.500522651E0
2.460525673E0,-7.230000496E-1,7.381950378E0,-1.363950014E0,7.541636434E0
2.462487568E0,-7.230000496E-1,7.497000217E0,-1.326000094E0,7.647615157E0
2.464449221E0,-7.230000496E-1,7.497000217E0,-1.363950014E0,7.654286444E0
2.466410948E0,-7.999500632E-1,7.612050533E0,-1.326000094E0,7.767979768E0
2.468372813E0,-8.380500674E-1,7.687950134E0,-1.326000094E0,7.846348286E0
2.470334638E0,-8.770500422E-1,7.687950134E0,-1.287000060E0,7.844116470E0
2.472296488E0,-8.770500422E-1,7.765050411E0,-1.249050021E0,7.913618049E0
2.474258330E0,-8.770500422E-1,7.803000450E0,-1.171950102E0,7.939112031E0
2.476219978E0,-8.770500422E-1,7.842000484E0,-1.134000063E0,7.971959892E0
2.478181665E0,-9.150000215E-1,7.879950523E0,-1.171950102E0,8.018996965E0
2.480143402E0,-9.529500604E-1,7.879950523E0,-1.134000063E0,8.017960477E0
2.482105125E0,-9.919500351E-1,7.918050289E0,-1.134000063E0,8.060114230E0
2.484066768E0,-9.150000215E-1,7.879950523E0,-1.018950105E0,7.998068805E0
2.486028434E0,-1.030050039E0,7.879950523E0,-1.134000063E0,8.027488990E0
2.487990310E0,-9.919500351E-1,7.918050289E0,-1.096050024E0,8.054862563E0
2.489952125E0,-1.030050039E0,7.957050323E0,-1.057050109E0,8.092775041E0
2.491913842E0,-1.030050039E0,7.879950523E0,-1.057050109E0,8.016980620E0
2.493875588E0,-1.068000078E0,7.879950523E0,-1.134000063E0,8.032446736E0
2.495837451E0,-1.068000078E0,7.879950523E0,-1.134000063E0,8.032446736E0
2.497799279E0,-1.068000078E0,7.842000484E0,-1.171950102E0,8.000691396E0
2.499761448E0,-1.030050039E0,7.879950523E0,-1.249050021E0,8.044547799E0
2.501723514E0,-1.106999993E0,7.842000484E0,-1.249050021E0,8.017639711E0
2.503685504E0,-1.144950032E0,7.803000450E0,-1.363950014E0,8.003629567E0
2.505647516E0,-1.106999993E0,7.803000450E0,-1.441050053E0,8.011796944E0
2.507609334E0,-1.144950032E0,7.842000484E0,-1.479000092E0,8.061967715E0
2.509571209E0,-1.106999993E0,7.842000484E0,-1.441050053E0,8.049785453E0
2.511533414E0,-1.144950032E0,7.803000450E0,-1.516950130E0,8.031118496E0
2.513495519E0,-1.106999993E0,7.842000484E0,-1.516950130E0,8.063718639E0
2.515457322E0,-1.144950032E0,7.879950523E0,-1.555950046E0,8.113292265E0
2.517419214E0,-1.144950032E0,7.879950523E0,-1.632000089E0,8.128219677E0
2.519381097E0,-1.106999993E0,7.842000484E0,-1.786050081E0,8.118644929E0
2.521342983E0,-1.106999993E0,7.842000484E0,-1.861950040E0,8.135679353E0
2.523304812E0,-1.068000078E0,7.879950523E0,-1.900950074E0,8.176053792E0
2.525266665E0,-1.068000078E0,7.879950523E0,-1.977000117E0,8.194069434E0
2.527228644E0,-9.150000215E-1,7.918050289E0,-1.977000117E0,8.212263688E0
2.529190586E0,-9.150000215E-1,7.918050289E0,-1.939050078E0,8.203210385E0
2.531152101E0,-9.529500604E-1,7.995000362E0,-1.939050078E0,8.281790858E0
2.533113742E0,-9.529500604E-1,8.032950401E0,-2.014950037E0,8.336451860E0
2.535075397E0,-9.919500351E-1,8.148000717E0,-2.014950037E0,8.451858033E0
2.537037048E0,-1.068000078E0,8.263050079E0,-2.053950071E0,8.581219708E0
2.538999108E0,-1.183050036E0,8.455050468E0,-2.092050076E0,8.790003375E0
2.540961048E0,-1.260000110E0,8.569950104E0,-2.130000114E0,8.920120265E0
2.542922699E0,-1.336950064E0,8.800050735E0,-2.245050192E0,9.179791870E0
2.544884434E0,-1.452000022E0,9.030000687E0,-2.206950188E0,9.408498583E0
2.546845970E0,-1.452000022E0,9.259950638E0,-2.206950188E0,9.629414261E0
2.548807574E0,-1.413000107E0,9.490050316E0,-2.245050192E0,9.853825382E0
2.550769281E0,-1.489950061E0,9.643050194E0,-2.245050192E0,1.001242321E1
2.552730957E0,-1.413000107E0,9.796050072E0,-2.092050076E0,1.011611782E1
2.554692473E0,-1.452000022E0,9.910950661E0,-2.053950071E0,1.022516298E1
2.556654036E0,-1.452000022E0,1.006500053E1,-2.014950037E0,1.036689749E1
2.558615695E0,-1.452000022E0,1.018005085E1,-1.824000120E0,1.044359688E1
2.560577332E0,-1.452000022E0,1.033305073E1,-1.708950043E0,1.057358745E1
2.562538855E0,-1.413000107E0,1.052505016E1,-1.555950046E0,1.073285753E1
2.564500411E0,-1.452000022E0,1.067805004E1,-1.402050018E0,1.086714318E1
2.566462125E0,-1.413000107E0,1.079295063E1,-1.363950014E0,1.097017376E1
2.568423793E0,-1.452000022E0,1.094595051E1,-1.326000094E0,1.112116958E1
2.570385310E0,-1.489950061E0,1.106100082E1,-1.287000060E0,1.123485913E1
2.572346872E0,-1.605000019E0,1.113795090E1,-1.287000060E0,1.132635618E1
2.574308226E0,-1.642950058E0,1.121400070E1,-1.326000094E0,1.141101980E1
2.576269641E0,-1.642950058E0,1.129095078E1,-1.287000060E0,1.148221335E1
2.578231200E0,-1.720050097E0,1.132905006E1,-1.287000060E0,1.153092871E1
2.580192716E0,-1.795950055E0,1.136805058E1,-1.210950017E0,1.157257147E1
2.582154605E0,-1.758000135E0,1.132905006E1,-1.171950102E0,1.152438314E1
2.584116395E0,-1.873050094E0,1.136805058E1,-1.134000063E0,1.157699644E1
2.586077936E0,-1.950000048E0,1.140600014E1,-1.057050109E0,1.161966842E1
2.588039550E0,-1.987950087E0,1.140600014E1,-1.057050109E0,1.162609735E1
2.590001390E0,-2.065050125E0,1.136805058E1,-1.057050109E0,1.160234290E1
2.591963164E0,-2.103000164E0,1.132905006E1,-1.096050024E0,1.157459765E1
2.593924737E0,-2.140950203E0,1.132905006E1,-1.096050024E0,1.158155295E1
2.595886349E0,-2.140950203E0,1.132905006E1,-1.171950102E0,1.158898227E1
2.597848369E0,-2.179949999E0,1.125300026E1,-1.171950102E0,1.152196441E1
2.599810270E0,-2.256000042E0,1.121400070E1,-1.287000060E0,1.151085214E1
2.601771792E0,-2.218050003E0,1.117605019E1,-1.363950014E0,1.147537377E1
2.603733426E0,-2.256000042E0,1.113795090E1,-1.402050018E0,1.145029391E1
2.605695443E0,-2.295000076E0,1.106100082E1,-1.402050018E0,1.138325563E1
2.607657347E0,-2.295000076E0,1.102305031E1,-1.363950014E0,1.134173810E1
2.609619049E0,-2.295000076E0,1.106100082E1,-1.326000094E0,1.137413912E1
2.611580810E0,-2.256000042E0,1.094595051E1,-1.402050018E0,1.126361900E1
2.613542625E0,-2.179949999E0,1.094595051E1,-1.402050018E0,1.124863364E1
2.615504424E0,-2.179949999E0,1.087005043E1,-1.363950014E0,1.117007332E1
2.617466094E0,-2.179949999E0,1.083105087E1,-1.441050053E0,1.114183424E1
2.619427805E0,-2.140950203E0,1.079295063E1,-1.441050053E0,1.109721029E1
2.621389494E0,-2.140950203E0,1.071600056E1,-1.479000092E0,1.102741026E1
2.623351190E0,-2.103000164E0,1.060095024E1,-1.479000092E0,1.090826278E1
2.625313106E0,-2.065050125E0,1.052505016E1,-1.479000092E0,1.082721359E1
2.627274957E0,-2.065050125E0,1.052505016E1,-1.441050053E0,1.082209491E1
2.629236923E0,-2.026050091E0,1.048605061E1,-1.479000092E0,1.078190974E1
2.631198865E0,-1.987950087E0,1.044795036E1,-1.402050018E0,1.072741146E1
2.633160696E0,-1.987950087E0,1.041000080E1,-1.326000094E0,1.068074616E1
2.635122560E0,-1.950000048E0,1.041000080E1,-1.287000060E0,1.066897305E1
2.637084447E0,-1.987950087E0,1.048605061E1,-1.249050021E0,1.074566558E1
2.639046327E0,-1.987950087E0,1.052505016E1,-1.210950017E0,1.077937969E1
2.641008356E0,-2.065050125E0,1.056300068E1,-1.171950102E0,1.082658221E1
2.642970303E0,-2.065050125E0,1.071600056E1,-1.134000063E0,1.097192126E1
2.644931952E0,-2.065050125E0,1.075500011E1,-1.096050024E0,1.100617032E1
2.646893689E0,-2.103000164E0,1.090800095E1,-1.096050024E0,1.116281416E1
2.648855598E0,-2.065050125E0,1.098495007E1,-1.134000063E0,1.123474593E1
2.650817457E0,-2.065050125E0,1.110000038E1,-1.134000063E0,1.134726384E1
2.652779321E0,-2.026050091E0,1.117605019E1,-1.096050024E0,1.141097289E1
2.654741170E0,-1.950000048E0,1.129095078E1,-1.018950105E0,1.150331817E1
2.656702970E0,-1.911000133E0,1.140600014E1,-1.057050109E0,1.161318714E1
2.658664785E0,-1.758000135E0,1.148295021E1,-1.057050109E0,1.166473596E1
2.660626456E0,-1.642950058E0,1.152105045E1,-1.057050109E0,1.168551425E1
2.662588170E0,-1.605000019E0,1.167405033E1,-1.018950105E0,1.182783731E1
2.664550248E0,-1.528050065E0,1.175100040E1,-9.810000658E-1,1.189047134E1
2.666512230E0,-1.413000107E0,1.182795048E1,-9.810000658E-1,1.195237813E1
2.668474189E0,-1.260000110E0,1.190400028E1,-9.040500522E-1,1.200458785E1
2.670436155E0,-1.144950032E0,1.201905060E1,-7.890000343E-1,1.209921522E1
2.672397846E0,-9.919500351E-1,1.209600067E1,-7.510500550E-1,1.215982209E1
2.674359617E0,-8.380500674E-1,1.217295074E1,-6.360000372E-1,1.221832860E1
2.676321314E0,-7.230000496E-1,1.224900055E1,-5.209500194E-1,1.228137339E1
2.678283020E0,-6.469500065E-1,1.228800011E1,-4.060500264E-1,1.231171668E1
2.680244710E0,-4.930500090E-1,1.232595062E1,-2.910000086E-1,1.233923977E1
2.682206405E0,-4.170000255E-1,1.244100094E1,-2.140500098E-1,1.244982774E1
2.684168276E0,-3.019500077E-1,1.247895050E1,-6.105000153E-2,1.248275236E1
2.686130095E0,-3.019500077E-1,1.255605030E1,-6.105000153E-2,1.255982882E1
2.688091912E0,-1.870500147E-1,1.255605030E1,9.195000678E-2,1.255778012E1
2.690053723E0,-1.480500102E-1,1.263300037E1,1.300500035E-1,1.263453720E1
2.692015259E0,-1.099500060E-1,1.274805069E1,1.680000126E-1,1.274963174E1
2.693976876E0,4.050000105E-3,1.270905018E1,1.680000126E-1,1.271016117E1
2.695938761E0,1.189500093E-1,1.282395077E1,2.449500114E-1,1.282684150E1
2.697900567E0,1.189500093E-1,1.286295033E1,2.449500114E-1,1.286583230E1
2.699861870E0,1.960500032E-1,1.290105057E1,3.220500052E-1,1.290655870E1
2.701823328E0,1.960500032E-1,1.297800064E1,3.220500052E-1,1.298347613E1
2.703785915E0,1.189500093E-1,1.278600025E1,-2.520000041E-1,1.278903654E1
2.705748172E0,4.639500082E-1,1.290105057E1,2.070000172E-1,1.291104970E1
2.707709453E0,4.639500082E-1,1.301595020E1,1.050000072E0,1.306647272E1
2.709671020E0,3.870000243E-1,1.309305096E1,1.126049995E0,1.314708108E1
2.711633964E0,5.020500422E-1,1.320795059E1,8.200500607E-1,1.324290358E1
2.713596494E0,4.639500082E-1,1.286295033E1,2.449500114E-1,1.287364522E1
2.715557368E0,6.940500140E-1,1.301595020E1,4.750500321E-1,1.304309540E1
2.717518727E0,4.260000288E-1,1.286295033E1,7.050000429E-1,1.288929758E1
2.719481556E0,5.790000558E-1,1.290105057E1,6.280500293E-1,1.292929981E1
2.721443955E0,8.850000501E-1,1.305405045E1,1.203000069E0,1.313920345E1
2.723405704E0,9.619500637E-1,1.313100052E1,1.318050027E0,1.323199828E1
2.725367646E0,9.619500637E-1,1.316895103E1,1.279950023E0,1.326592972E1
2.727329475E0,9.619500637E-1,1.316895103E1,1.126049995E0,1.325196619E1
2.729291338E0,1.039050102E0,1.309305096E1,1.203000069E0,1.318919321E1
2.731253136E0,1.192050099E0,1.301595020E1,1.203000069E0,1.312566769E1
2.733214953E0,1.269000053E0,1.282395077E1,1.318050027E0,1.295381528E1
2.735176812E0,1.230000019E0,1.267095089E1,1.395000100E0,1.280671393E1
2.737138653E0,1.269000053E0,1.247895050E1,1.432950020E0,1.262489257E1
2.739100500E0,1.306950092E0,1.221105099E1,1.510050058E0,1.237328315E1
2.741062345E0,1.384050012E0,1.194300079E1,1.510050058E0,1.211738889E1
2.743024058E0,1.459950089E0,1.163595009E1,1.624950051E0,1.183922512E1
2.744985809E0,1.537050128E0,1.132905006E1,1.740000129E0,1.156449302E1
2.746947665E0,1.498950124E0,1.102305031E1,1.893000126E0,1.128441133E1
2.748909494E0,1.690050125E0,1.083105087E1,1.930950046E0,1.113088049E1
2.750870984E0,1.729050040E0,1.041000080E1,1.893000126E0,1.072106246E1
2.752832573E0,1.614000082E0,1.010295010E1,2.008050203E0,1.042625832E1
2.754794417E0,1.843950033E0,9.949950218E0,2.008050203E0,1.031668196E1
2.756756186E0,2.035050154E0,9.643050194E0,2.008050203E0,1.005793775E1
2.758717903E0,2.111999989E0,9.375000000E0,2.046000004E0,9.825338924E0
2.760679641E0,2.074050188E0,9.145050049E0,1.969950080E0,9.581979331E0
2.762641459E0,1.996950150E0,8.877000809E0,1.930950046E0,9.301479524E0
2.764603254E0,1.959000111E0,8.685000420E0,1.855050087E0,9.094400725E0
2.766565109E0,1.920000076E0,8.493000031E0,1.816050053E0,8.894688730E0
2.768526947E0,1.804950118E0,8.263050079E0,1.663050056E0,8.619836253E0
2.770488849E0,1.882050037E0,7.995000362E0,1.510050058E0,8.351191191E0
2.772450725E0,1.920000076E0,7.765050411E0,1.471050024E0,8.133043487E0
2.774412567E0,1.882050037E0,7.573050499E0,1.432950020E0,7.933886309E0
2.776374419E0,1.843950033E0,7.420050144E0,1.318050027E0,7.758514790E0
2.778336624E0,1.729050040E0,7.189950466E0,1.279950023E0,7.504883331E0
2.780298725E0,1.804950118E0,7.036950111E0,1.203000069E0,7.363675778E0
2.782260481E0,1.690050125E0,6.922050476E0,1.203000069E0,7.226220408E0
2.784222372E0,1.651950121E0,6.730050087E0,1.165050030E0,7.027080115E0
2.786184166E0,1.575000048E0,6.654000282E0,1.279950023E0,6.956623963E0
2.788145988E0,1.498950124E0,6.577050209E0,1.240950108E0,6.858891900E0
2.790107882E0,1.498950124E0,6.499950409E0,1.279950023E0,6.792236661E0
2.792069755E0,1.422000051E0,6.462000370E0,1.240950108E0,6.731975200E0
2.794031597E0,1.345050097E0,6.462000370E0,1.203000069E0,6.709233765E0
2.795993449E0,1.306950092E0,6.462000370E0,1.279950023E0,6.715939204E0
2.797955473E0,1.306950092E0,6.462000370E0,1.240950108E0,6.708615691E0
2.799917447E0,1.269000053E0,6.538950443E0,1.279950023E0,6.782809602E0
2.801878912E0,1.306950092E0,6.615000248E0,1.203000069E0,6.849347121E0
2.803840526E0,1.269000053E0,6.654000282E0,1.203000069E0,6.879919335E0
2.805802546E0,1.192050099E0,6.730050087E0,1.240950108E0,6.946546968E0
2.807764447E0,9.619500637E-1,6.807000160E0,1.240950108E0,6.985739494E0
2.809726464E0,1.000050068E0,6.997950554E0,1.318050027E0,7.190873936E0
2.811688447E0,8.850000501E-1,7.342950344E0,1.240950108E0,7.499473449E0
2.813649910E0,8.850000501E-1,7.458000183E0,1.240950108E0,7.612157972E0
2.815611526E0,9.240000248E-1,7.534950256E0,1.240950108E0,7.692152402E0
2.817573304E0,8.470500112E-1,7.687950134E0,1.203000069E0,7.827469588E0
2.819535014E0,7.320000529E-1,7.879950523E0,1.126049995E0,7.993586987E0
2.821495938E0,6.169500351E-1,8.032950401E0,1.203000069E0,8.145927121E0
2.823457093E0,4.639500082E-1,8.224950790E0,1.240950108E0,8.330967668E0
2.825418921E0,3.109500110E-1,8.340000153E0,1.203000069E0,8.432052041E0
2.827380552E0,2.340000123E-1,8.532000542E0,1.279950023E0,8.630646633E0
2.829342182E0,2.340000123E-1,8.608050346E0,1.240950108E0,8.700186431E0
2.831303832E0,4.200000316E-2,8.569950104E0,1.203000069E0,8.654075222E0
2.833265757E0,-1.099500060E-1,8.877000809E0,1.203000069E0,8.958819204E0
2.835227601E0,-1.480500102E-1,9.030000687E0,1.203000069E0,9.110984599E0
2.837189223E0,-7.200000435E-2,9.145050049E0,1.203000069E0,9.224116953E0
2.839150911E0,-1.480500102E-1,9.220950127E0,1.240950108E0,9.305256429E0
2.841112749E0,-1.099500060E-1,9.298050880E0,1.203000069E0,9.376195835E0
2.843074567E0,-1.870500147E-1,9.412950516E0,1.240950108E0,9.496240429E0
2.845036284E0,-1.870500147E-1,9.490050316E0,1.203000069E0,9.567823779E0
2.846998031E0,-1.870500147E-1,9.565950394E0,1.165050030E0,9.638450924E0
2.848959893E0,-1.870500147E-1,9.604950905E0,1.279950023E0,9.691663513E0
2.850921721E0,-2.250000089E-1,9.757950783E0,1.279950023E0,9.844109942E0
2.852883351E0,-2.250000089E-1,9.757950783E0,1.279950023E0,9.844109942E0
2.854845036E0,-2.629500031E-1,9.873000145E0,1.240950108E0,9.954156506E0
2.856806954E0,-2.629500031E-1,9.910950661E0,1.318050027E0,1.000166694E1
2.858768803E0,-1.870500147E-1,1.002600002E1,1.165050030E0,1.009519716E1
2.860730469E0,-1.099500060E-1,1.002600002E1,1.165050030E0,1.009406296E1
2.862692189E0,-3.299999982E-2,1.006500053E1,1.318050027E0,1.015098915E1
2.864654177E0,8.100000024E-2,1.010295010E1,1.318050027E0,1.018888696E1
2.866616097E0,1.189500093E-1,1.010295010E1,1.318050027E0,1.018925933E1
2.868577931E0,1.570500135E-1,1.006500053E1,1.240950108E0,1.014242859E1
2.870539791E0,2.340000123E-1,1.006500053E1,1.165050030E0,1.013490668E1
2.872501635E0,3.109500110E-1,1.006500053E1,1.087950110E0,1.012840368E1
2.874463483E0,4.260000288E-1,1.002600002E1,1.087950110E0,1.009384901E1
2.876425153E0,5.020500422E-1,9.988050461E0,1.126049995E0,1.006385586E1
2.878386872E0,5.410500169E-1,9.988050461E0,1.126049995E0,1.006587680E1
2.880349324E0,6.169500351E-1,1.002600002E1,1.050000072E0,1.009969326E1
2.882311562E0,6.550500393E-1,1.006500053E1,1.011000037E0,1.013683616E1
2.884273477E0,7.320000529E-1,9.949950218E0,1.050000072E0,1.003194067E1
2.886235487E0,8.089500666E-1,9.949950218E0,1.011000037E0,1.003384426E1
2.888197000E0,9.240000248E-1,9.988050461E0,9.730500579E-1,1.007778520E1
2.890158651E0,9.619500637E-1,9.910950661E0,9.730500579E-1,1.000495464E1
2.892120529E0,1.077000022E0,9.835050583E0,1.011000037E0,9.945364251E0
2.894082341E0,1.114950061E0,9.796050072E0,1.011000037E0,9.910995496E0
2.896044194E0,1.153950095E0,9.796050072E0,1.011000037E0,9.915458583E0
2.898006034E0,1.230000019E0,9.757950783E0,1.050000072E0,9.891056752E0
2.899967827E0,1.230000019E0,9.720000267E0,1.087950110E0,9.857735069E0
2.901929641E0,1.192050099E0,9.681000710E0,1.087950110E0,9.814601042E0
2.903891358E0,1.269000053E0,9.643050194E0,1.011000037E0,9.778593930E0
2.905853103E0,1.269000053E0,9.643050194E0,9.730500579E-1,9.774743198E0
2.907814920E0,1.269000053E0,9.643050194E0,9.730500579E-1,9.774743198E0
2.909776716E0,1.269000053E0,9.604950905E0,9.349500537E-1,9.733425637E0
2.911738602E0,1.192050099E0,9.604950905E0,8.580000401E-1,9.716595566E0
2.913700471E0,1.192050099E0,9.604950905E0,8.200500607E-1,9.713318044E0
2.915662270E0,1.269000053E0,9.565950394E0,7.810500264E-1,9.681312267E0
2.917624089E0,1.230000019E0,9.528000832E0,7.810500264E-1,9.638762319E0
2.919586119E0,1.269000053E0,9.490050316E0,7.810500264E-1,9.606323713E0
2.921548087E0,1.230000019E0,9.375000000E0,7.429500222E-1,9.484487323E0
2.923510123E0,1.230000019E0,9.336000443E0,7.050000429E-1,9.443030730E0
2.925472149E0,1.192050099E0,9.259950638E0,7.429500222E-1,9.365876573E0
2.927433920E0,1.153950095E0,9.145050049E0,7.050000429E-1,9.244488427E0
2.929395766E0,1.192050099E0,9.106050491E0,7.810500264E-1,9.216896340E0
2.931357432E0,1.114950061E0,9.030000687E0,7.810500264E-1,9.132035106E0
2.933319151E0,1.077000022E0,9.030000687E0,7.810500264E-1,9.127479422E0
2.935280853E0,1.077000022E0,8.991000175E0,7.810500264E-1,9.088897202E0
2.937242550E0,1.039050102E0,8.877000809E0,8.200500607E-1,8.975146270E0
2.939204242E0,9.619500637E-1,8.877000809E0,7.810500264E-1,8.963064790E0
2.941165935E0,9.240000248E-1,8.838000298E0,7.810500264E-1,8.920429611E0
2.943127492E0,8.089500666E-1,8.761950493E0,8.200500607E-1,8.837344553E0
2.945089089E0,8.089500666E-1,8.761950493E0,8.580000401E-1,8.840946822E0
2.947050567E0,7.699500322E-1,8.761950493E0,8.580000401E-1,8.837463638E0
2.949012084E0,6.169500351E-1,8.685000420E0,8.200500607E-1,8.745418328E0
2.950973085E0,5.410500169E-1,8.722949982E0,9.349500537E-1,8.789580371E0
2.952934238E0,4.639500082E-1,8.608050346E0,8.200500607E-1,8.659460865E0
2.954896742E0,5.790000558E-1,8.800050735E0,9.349500537E-1,8.868498498E0
2.956858851E0,6.550500393E-1,8.761950493E0,1.011000037E0,8.844376070E0
2.958819591E0,6.550500393E-1,8.800050735E0,1.011000037E0,8.882122752E0
2.960780718E0,5.410500169E-1,8.800050735E0,9.730500579E-1,8.870200363E0
2.962743272E0,5.790000558E-1,8.838000298E0,1.050000072E0,8.918968016E0
2.964705408E0,5.790000558E-1,8.877000809E0,1.050000072E0,8.957616009E0
2.966666440E0,5.410500169E-1,8.914950371E0,9.349500537E-1,8.980156281E0
2.968627795E0,5.410500169E-1,8.877000809E0,9.730500579E-1,8.946547093E0
2.970589758E0,6.169500351E-1,8.877000809E0,1.165050030E0,8.974358600E0
2.972551519E0,5.410500169E-1,8.838000298E0,1.165050030E0,8.930863673E0
2.974513201E0,5.410500169E-1,8.800050735E0,1.240950108E0,8.903571488E0
2.976474906E0,5.020500422E-1,8.877000809E0,1.203000069E0,8.972201891E0
2.978437001E0,4.639500082E-1,8.877000809E0,1.240950108E0,8.975318943E0
2.980398981E0,4.260000288E-1,9.030000687E0,1.240950108E0,9.124820305E0
2.982361295E0,4.260000288E-1,9.106050491E0,1.279950023E0,9.205427944E0
2.984323514E0,3.870000243E-1,9.183000565E0,1.240950108E0,9.274547189E0
2.986285298E0,4.260000288E-1,9.259950638E0,1.165050030E0,9.342671107E0
2.988247209E0,4.260000288E-1,9.220950127E0,1.087950110E0,9.294677655E0
2.990209583E0,5.020500422E-1,9.259950638E0,1.126049995E0,9.341666267E0
2.992171822E0,5.790000558E-1,9.298050880E0,1.279950023E0,9.403577154E0
2.994133061E0,5.410500169E-1,9.375000000E0,1.395000100E0,9.493649741E0
2.996094593E0,5.020500422E-1,9.375000000E0,1.279950023E0,9.475281067E0
2.998056312E0,5.410500169E-1,9.451050758E0,1.240950108E0,9.547515526E0
3.000017976E0,4.639500082E-1,9.451050758E0,1.203000069E0,9.538596292E0
3.001979719E0,4.260000288E-1,9.490050316E0,1.203000069E0,9.575475977E0
3.003941438E0,4.639500082E-1,9.490050316E0,1.165050030E0,9.572546484E0
3.005903637E0,4.639500082E-1,9.528000832E0,1.126049995E0,9.605521227E0
3.007865716E0,3.870000243E-1,9.528000832E0,1.050000072E0,9.593490971E0
3.009827343E0,5.020500422E-1,9.565950394E0,1.087950110E0,9.640700007E0
3.011789103E0,4.639500082E-1,9.528000832E0,1.011000037E0,9.592714451E0
3.013751278E0,4.639500082E-1,9.565950394E0,9.730500579E-1,9.626498998E0
3.015713332E0,4.260000288E-1,9.643050194E0,9.349500537E-1,9.697629848E0
3.017675189E0,4.260000288E-1,9.643050194E0,8.959500194E-1,9.693947571E0
3.019637103E0,3.870000243E-1,9.604950905E0,8.580000401E-1,9.650959277E0
3.021598937E0,3.870000243E-1,9.565950394E0,8.200500607E-1,9.608832294E0
3.023560795E0,3.870000243E-1,9.604950905E0,7.429500222E-1,9.641412015E0
3.025522639E0,3.490500152E-1,9.528000832E0,7.429500222E-1,9.563294960E0
3.027484488E0,3.490500152E-1,9.528000832E0,6.660000086E-1,9.557624798E0
3.029446308E0,3.109500110E-1,9.490050316E0,5.899500251E-1,9.513452893E0
3.031408123E0,2.719500065E-1,9.451050758E0,5.899500251E-1,9.473349897E0
3.033369659E0,2.340000123E-1,9.451050758E0,6.280500293E-1,9.474785659E0
3.035331277E0,1.570500135E-1,9.451050758E0,5.130000114E-1,9.466266115E0
3.037292981E0,8.100000024E-2,9.375000000E0,5.130000114E-1,9.389374580E0
3.039254659E0,4.200000316E-2,9.375000000E0,4.750500321E-1,9.387122111E0
3.041216834E0,-3.299999982E-2,9.375000000E0,3.979500234E-1,9.383500318E0
3.043178874E0,4.050000105E-3,9.412950516E0,2.830500007E-1,9.417206121E0
3.045140553E0,-3.299999982E-2,9.375000000E0,2.070000172E-1,9.377343068E0
3.047102338E0,-7.200000435E-2,9.336000443E0,2.070000172E-1,9.338572550E0
3.049064014E0,-1.099500060E-1,9.298050880E0,2.070000172E-1,9.301004687E0
3.051025722E0,-3.299999982E-2,9.259950638E0,1.300500035E-1,9.260922622E0
3.052987541E0,-3.299999982E-2,9.183000565E0,9.195000678E-2,9.183520195E0
3.054949331E0,-1.099500060E-1,9.220950127E0,9.195000678E-2,9.222064034E0
3.056911187E0,-2.250000089E-1,9.259950638E0,9.195000678E-2,9.263140160E0
3.058873023E0,-3.019500077E-1,9.259950638E0,5.295000225E-2,9.265023655E0
3.060835096E0,-3.400500119E-1,9.298050880E0,-2.205000073E-2,9.304293116E0
3.062797100E0,-3.400500119E-1,9.259950638E0,-9.900000691E-2,9.266721148E0
3.064758721E0,-3.780000210E-1,9.259950638E0,-6.105000153E-2,9.267863666E0
3.066720468E0,-4.930500090E-1,9.220950127E0,-1.759500057E-1,9.235798718E0
3.068682330E0,-4.549500346E-1,9.183000565E0,-1.369500011E-1,9.195283259E0
3.070644158E0,-4.930500090E-1,9.145050049E0,-9.900000691E-2,9.158866726E0
3.072606142E0,-5.700000525E-1,9.106050491E0,-1.759500057E-1,9.125569243E0
3.074568081E0,-6.079500318E-1,9.030000687E0,-9.900000691E-2,9.050984291E0
3.076529952E0,-6.469500065E-1,8.991000175E0,-9.900000691E-2,9.014789485E0
3.078491847E0,-6.850500107E-1,8.953050613E0,-9.900000691E-2,8.979766690E0
3.080453864E0,-6.850500107E-1,8.914950371E0,-6.105000153E-2,8.941440641E0
3.082415845E0,-6.850500107E-1,8.914950371E0,-1.369500011E-1,8.942280969E0
3.084377309E0,-7.999500632E-1,8.877000809E0,-9.900000691E-2,8.913521440E0
3.086338924E0,-8.380500674E-1,8.877000809E0,-9.900000691E-2,8.917021491E0
3.088300589E0,-8.380500674E-1,8.800050735E0,-9.900000691E-2,8.840419779E0
3.090262235E0,-8.380500674E-1,8.877000809E0,-6.105000153E-2,8.916680906E0
3.092224296E0,-8.770500422E-1,8.838000298E0,-1.369500011E-1,8.882467075E0
3.094186235E0,-8.770500422E-1,8.877000809E0,-1.369500011E-1,8.921273196E0
3.096148111E0,-8.770500422E-1,8.877000809E0,-1.369500011E-1,8.921273196E0
3.098110006E0,-8.770500422E-1,8.877000809E0,-1.759500057E-1,8.921957103E0
3.100071858E0,-9.919500351E-1,8.877000809E0,-1.759500057E-1,8.933983805E0
3.102033712E0,-9.919500351E-1,8.877000809E0,-2.140500098E-1,8.934815367E0
3.103995871E0,-7.999500632E-1,8.914950371E0,-2.520000041E-1,8.954315396E0
3.105957941E0,-8.770500422E-1,8.991000175E0,-2.520000041E-1,9.037190102E0
3.107920109E0,-8.770500422E-1,8.991000175E0,-2.910000086E-1,9.038361684E0
3.109882249E0,-9.150000215E-1,8.953050613E0,-2.140500098E-1,9.002230709E0
3.111844106E0,-9.529500604E-1,8.953050613E0,-2.520000041E-1,9.007149000E0
3.113806035E0,-9.529500604E-1,8.991000175E0,-1.759500057E-1,9.043072286E0
3.115768181E0,-7.999500632E-1,9.067950249E0,-1.369500011E-1,9.104196676E0
3.117730264E0,-6.469500065E-1,8.991000175E0,-2.140500098E-1,9.016786893E0
3.119692116E0,-6.469500065E-1,9.067950249E0,-2.140500098E-1,9.093518760E0
3.121654035E0,-5.700000525E-1,9.067950249E0,-2.140500098E-1,9.088368345E0
3.123615883E0,-4.930500090E-1,9.106050491E0,-1.759500057E-1,9.121086134E0
3.125577742E0,-5.320500135E-1,9.106050491E0,-1.369500011E-1,9.122608622E0
3.127539765E0,-4.170000255E-1,9.145050049E0,-6.105000153E-2,9.154755951E0
3.129501740E0,-3.780000210E-1,9.145050049E0,-6.105000153E-2,9.153062412E0
3.131463700E0,-3.400500119E-1,9.145050049E0,5.295000225E-2,9.151523267E0
3.133425665E0,-3.019500077E-1,9.145050049E0,5.295000225E-2,9.150186769E0
3.135387355E0,-1.480500102E-1,9.145050049E0,1.300500035E-1,9.147172908E0
3.137349126E0,-2.629500031E-1,9.145050049E0,5.295000225E-2,9.148982829E0
3.139311119E0,-1.870500147E-1,9.145050049E0,9.195000678E-2,9.147424933E0
3.141273047E0,-7.200000435E-2,9.106050491E0,9.195000678E-2,9.106799347E0
3.143234700E0,-7.200000435E-2,9.106050491E0,2.070000172E-1,9.108687532E0
3.145196434E0,-7.200000435E-2,9.106050491E0,2.449500114E-1,9.109628975E0
3.147157770E0,-7.200000435E-2,9.106050491E0,2.830500007E-1,9.110733058E0
3.149119246E0,-7.200000435E-2,9.145050049E0,2.830500007E-1,9.149712657E0
3.151080390E0,-3.299999982E-2,9.067950249E0,3.979500234E-1,9.076738122E0
3.153041631E0,-7.200000435E-2,9.106050491E0,4.360500276E-1,9.116769119E0
3.155003219E0,-1.099500060E-1,9.106050491E0,5.509500504E-1,9.123365087E0
3.156964706E0,-1.099500060E-1,9.106050491E0,5.130000114E-1,9.121151987E0
3.158926640E0,-1.480500102E-1,9.030000687E0,5.509500504E-1,9.048004043E0
3.160888456E0,-1.099500060E-1,9.030000687E0,5.509500504E-1,9.047460824E0
3.162850443E0,-1.480500102E-1,9.067950249E0,6.280500293E-1,9.090879350E0
3.164812379E0,-1.480500102E-1,9.030000687E0,6.280500293E-1,9.053025905E0
3.166774211E0,-1.099500060E-1,9.067950249E0,6.280500293E-1,9.090338693E0
3.168736073E0,-1.870500147E-1,9.106050491E0,7.050000429E-1,9.135215833E0
3.170697800E0,-3.019500077E-1,9.183000565E0,7.429500222E-1,9.217952479E0
3.172659554E0,-2.629500031E-1,9.145050049E0,8.200500607E-1,9.185508435E0
3.174621415E0,-2.629500031E-1,9.220950127E0,8.959500194E-1,9.268106084E0
3.176583244E0,-3.400500119E-1,9.259950638E0,9.349500537E-1,9.313240651E0
3.178545093E0,-3.400500119E-1,9.298050880E0,1.011000037E0,9.359033351E0
3.180506936E0,-3.780000210E-1,9.375000000E0,1.011000037E0,9.436929060E0
3.182468968E0,-3.780000210E-1,9.412950516E0,1.126049995E0,9.487597695E0
3.184430941E0,-3.400500119E-1,9.490050316E0,1.087950110E0,9.558259489E0
3.186392946E0,-3.780000210E-1,9.565950394E0,1.126049995E0,9.639412821E0
3.188354941E0,-3.400500119E-1,9.643050194E0,1.240950108E0,9.728515211E0
3.190316942E0,-3.780000210E-1,9.681000710E0,1.203000069E0,9.762779723E0
3.192278941E0,-4.170000255E-1,9.796050072E0,1.240950108E0,9.883139339E0
3.194240941E0,-3.400500119E-1,9.796050072E0,1.240950108E0,9.880191708E0
3.196202941E0,-3.780000210E-1,9.873000145E0,1.318050027E0,9.967761622E0
3.198164762E0,-3.780000210E-1,9.949950218E0,1.279950023E0,1.003905700E1
3.200126636E0,-3.780000210E-1,9.988050461E0,1.240950108E0,1.007194089E1
3.202088657E0,-4.170000255E-1,1.014105034E1,1.240950108E0,1.022520162E1
3.204050634E0,-4.170000255E-1,1.014105034E1,1.356000066E0,1.023980113E1
3.206012648E0,-4.170000255E-1,1.021800041E1,1.318050027E0,1.031109486E1
3.207974644E0,-4.170000255E-1,1.025595093E1,1.356000066E0,1.035360588E1
3.209936825E0,-3.400500119E-1,1.029495049E1,1.318050027E0,1.038455080E1
3.211898952E0,-3.780000210E-1,1.037100029E1,1.318050027E0,1.046125169E1
3.213861066E0,-4.170000255E-1,1.041000080E1,1.318050027E0,1.050139332E1
3.215823184E0,-4.930500090E-1,1.048605061E1,1.203000069E0,1.056634113E1
3.217785149E0,-4.930500090E-1,1.056300068E1,1.203000069E0,1.064271069E1
3.219747169E0,-4.549500346E-1,1.056300068E1,1.050000072E0,1.062480414E1
3.221709031E0,-4.170000255E-1,1.060095024E1,1.087950110E0,1.066478647E1
3.223670939E0,-4.549500346E-1,1.067805004E1,9.730500579E-1,1.073194105E1
3.225632954E0,-4.930500090E-1,1.071600056E1,9.730500579E-1,1.077137840E1
3.227594937E0,-5.320500135E-1,1.079295063E1,9.349500537E-1,1.084642762E1
3.229557462E0,-5.320500135E-1,1.083105087E1,9.349500537E-1,1.088434067E1
3.231519841E0,-5.320500135E-1,1.090800095E1,8.959500194E-1,1.095765889E1
3.233481552E0,-5.320500135E-1,1.098495007E1,9.349500537E-1,1.103749685E1
3.235443458E0,-5.320500135E-1,1.106100082E1,9.349500537E-1,1.111318802E1
3.237405699E0,-5.320500135E-1,1.106100082E1,9.730500579E-1,1.111645820E1
3.239367841E0,-6.850500107E-1,1.113795090E1,8.959500194E-1,1.119490822E1
3.241330331E0,-6.850500107E-1,1.117605019E1,8.580000401E-1,1.122985108E1
3.243292706E0,-7.230000496E-1,1.121400070E1,7.050000429E-1,1.125937680E1
3.245254462E0,-7.620000243E-1,1.121400070E1,6.660000086E-1,1.125957423E1
3.247216400E0,-7.620000243E-1,1.129095078E1,6.660000086E-1,1.133621495E1
3.249178635E0,-7.999500632E-1,1.125300026E1,5.130000114E-1,1.129305556E1
3.251140783E0,-8.380500674E-1,1.121400070E1,4.360500276E-1,1.125372291E1
3.253103123E0,-8.770500422E-1,1.121400070E1,4.750500321E-1,1.125827256E1
3.255065403E0,-9.529500604E-1,1.121400070E1,3.600000143E-1,1.126017431E1
3.257028076E0,-1.030050039E0,1.121400070E1,2.449500114E-1,1.126387213E1
3.258990634E0,-1.030050039E0,1.117605019E1,2.449500114E-1,1.122609021E1
3.260952539E0,-9.919500351E-1,1.113795090E1,2.070000172E-1,1.118395118E1
3.262914636E0,-1.030050039E0,1.113795090E1,1.300500035E-1,1.118623557E1
3.264876818E0,-9.529500604E-1,1.110000038E1,9.195000678E-2,1.114121076E1
3.266838961E0,-9.919500351E-1,1.110000038E1,5.295000225E-2,1.114436077E1
3.268801116E0,-9.919500351E-1,1.102305031E1,5.295000225E-2,1.106771913E1
3.270763268E0,-8.770500422E-1,1.106100082E1,9.195000678E-2,1.109609890E1
3.272725243E0,-9.150000215E-1,1.106100082E1,5.295000225E-2,1.109890841E1
3.274687270E0,-8.770500422E-1,1.110000038E1,5.295000225E-2,1.113472177E1
