"Time (s)","Acceleration x (m/s^2)","Acceleration y (m/s^2)","Acceleration z (m/s^2)","Absolute acceleration (m/s^2)"
2.844696600E-2,-1.452000022E0,1.029495049E1,-7.120500207E-1,1.042119594E1
3.040670200E-2,-1.413000107E0,1.021800041E1,-7.120500207E-1,1.033978322E1
3.236919700E-2,-1.336950064E0,1.018005085E1,-5.970000029E-1,1.028480820E1
3.432998500E-2,-1.375050068E0,1.014105034E1,-5.209500194E-1,1.024709976E1
3.629127300E-2,-1.375050068E0,1.014105034E1,-4.060500264E-1,1.024190125E1
3.825251300E-2,-1.452000022E0,1.010295010E1,-3.289500177E-1,1.021205723E1
4.021375400E-2,-1.413000107E0,1.010295010E1,-3.670500219E-1,1.020788400E1
4.217520700E-2,-1.375050068E0,9.988050461E0,-3.670500219E-1,1.008893654E1
4.413659800E-2,-1.452000022E0,9.988050461E0,-4.060500264E-1,1.010120452E1
4.609798200E-2,-1.452000022E0,1.002600002E1,-3.670500219E-1,1.013724352E1
4.805936900E-2,-1.452000022E0,1.002600002E1,-5.209500194E-1,1.014398193E1
5.002071200E-2,-1.452000022E0,1.006500053E1,-5.590500236E-1,1.018455089E1
5.198206600E-2,-1.452000022E0,1.002600002E1,-6.360000372E-1,1.015054070E1
5.394332000E-2,-1.489950061E0,9.988050461E0,-6.739500165E-1,1.012103314E1
5.590460400E-2,-1.452000022E0,9.988050461E0,-6.739500165E-1,1.011551604E1
5.786596000E-2,-1.452000022E0,1.002600002E1,-6.739500165E-1,1.015298917E1
5.982729400E-2,-1.452000022E0,9.988050461E0,-6.739500165E-1,1.011551604E1
6.178834300E-2,-1.413000107E0,9.949950218E0,-7.510500550E-1,1.007780506E1
6.374946500E-2,-1.413000107E0,9.949950218E0,-8.269500136E-1,1.008374558E1
6.571071400E-2,-1.375050068E0,9.910950661E0,-6.739500165E-1,1.002855495E1
6.767192500E-2,-1.375050068E0,9.835050583E0,-7.510500550E-1,9.959069175E0
6.963333900E-2,-1.297950029E0,9.835050583E0,-7.120500207E-1,9.945848857E0
7.159469400E-2,-1.260000110E0,9.835050583E0,-7.510500550E-1,9.943837108E0
7.355609300E-2,-1.260000110E0,9.835050583E0,-7.510500550E-1,9.943837108E0
7.551747200E-2,-1.144950032E0,9.720000267E0,-7.120500207E-1,9.813069397E0
7.747867900E-2,-1.106999993E0,9.796050072E0,-7.120500207E-1,9.884081203E0
7.943993600E-2,-1.068000078E0,9.681000710E0,-6.739500165E-1,9.763022459E0
8.140134100E-2,-9.919500351E-1,9.643050194E0,-7.120500207E-1,9.720051293E0
8.336270300E-2,-9.919500351E-1,9.643050194E0,-7.120500207E-1,9.720051293E0
8.532379100E-2,-9.919500351E-1,9.681000710E0,-7.510500550E-1,9.760625789E0
8.728495000E-2,-9.150000215E-1,9.604950905E0,-7.120500207E-1,9.674674266E0
8.924583200E-2,-8.770500422E-1,9.565950394E0,-7.510500550E-1,9.635387895E0
9.120679600E-2,-8.380500674E-1,9.528000832E0,-7.510500550E-1,9.594227637E0
9.316784600E-2,-7.620000243E-1,9.528000832E0,-7.510500550E-1,9.587884025E0
9.512887100E-2,-7.230000496E-1,9.528000832E0,-7.510500550E-1,9.584863333E0
9.709017100E-2,-7.230000496E-1,9.528000832E0,-7.120500207E-1,9.581886252E0
9.905136700E-2,-6.079500318E-1,9.490050316E0,-7.890000343E-1,9.542178959E0
1.010124690E-1,-5.320500135E-1,9.528000832E0,-7.890000343E-1,9.575405898E0
1.029735990E-1,-4.930500090E-1,9.451050758E0,-7.890000343E-1,9.496735218E0
1.049350270E-1,-4.549500346E-1,9.451050758E0,-8.269500136E-1,9.498062239E0
1.068963670E-1,-3.780000210E-1,9.451050758E0,-8.269500136E-1,9.494687503E0
1.088574270E-1,-3.780000210E-1,9.412950516E0,-7.890000343E-1,9.453520111E0
1.108185500E-1,-2.629500031E-1,9.375000000E0,-8.269500136E-1,9.415073767E0
1.127801140E-1,-2.629500031E-1,9.298050880E0,-7.510500550E-1,9.332039920E0
1.147415480E-1,-2.250000089E-1,9.298050880E0,-7.890000343E-1,9.334178927E0
1.167029260E-1,-1.870500147E-1,9.298050880E0,-7.510500550E-1,9.330209755E0
1.186643200E-1,-1.099500060E-1,9.259950638E0,-7.510500550E-1,9.291009149E0
1.206258770E-1,-1.099500060E-1,9.220950127E0,-7.890000343E-1,9.255297472E0
1.225873900E-1,-3.299999982E-2,9.220950127E0,-8.659500480E-1,9.261580844E0
1.245486180E-1,-3.299999982E-2,9.145050049E0,-9.040500522E-1,9.189686387E0
1.265099300E-1,-3.299999982E-2,9.183000565E0,-9.040500522E-1,9.227453325E0
1.284713260E-1,4.200000316E-2,9.145050049E0,-8.659500480E-1,9.186053227E0
1.304326970E-1,4.200000316E-2,9.067950249E0,-8.269500136E-1,9.105675814E0
1.323942880E-1,4.200000316E-2,9.067950249E0,-8.659500480E-1,9.109300478E0
1.343557980E-1,8.100000024E-2,9.030000687E0,-9.040500522E-1,9.075504388E0
1.363169820E-1,8.100000024E-2,8.991000175E0,-9.420000315E-1,9.040575713E0
1.382782620E-1,1.570500135E-1,8.991000175E0,-8.659500480E-1,9.033970243E0
1.402394840E-1,1.189500093E-1,8.953050613E0,-9.040500522E-1,8.999365027E0
1.422007230E-1,8.100000024E-2,8.953050613E0,-8.659500480E-1,8.995195705E0
1.441621020E-1,1.189500093E-1,8.953050613E0,-9.810000658E-1,9.007420581E0
1.461234290E-1,1.189500093E-1,8.991000175E0,-9.420000315E-1,9.040995372E0
1.480848230E-1,8.100000024E-2,8.991000175E0,-9.810000658E-1,9.044722565E0
1.500461980E-1,4.050000105E-3,8.991000175E0,-1.018950105E0,9.048555679E0
1.520075840E-1,4.200000316E-2,8.991000175E0,-1.057050109E0,9.053021766E0
1.539689670E-1,4.200000316E-2,8.914950371E0,-1.096050024E0,8.982172887E0
1.559301920E-1,-3.299999982E-2,8.953050613E0,-1.171950102E0,9.029488985E0
1.578914500E-1,4.050000105E-3,8.914950371E0,-1.096050024E0,8.982075605E0
1.598528550E-1,4.200000316E-2,8.953050613E0,-1.096050024E0,9.019989187E0
1.618142170E-1,4.050000105E-3,8.953050613E0,-1.134000063E0,9.024582419E0
1.637752910E-1,-7.200000435E-2,8.953050613E0,-1.171950102E0,9.029715739E0
1.657364500E-1,4.050000105E-3,8.953050613E0,-1.096050024E0,9.019892313E0
1.676976920E-1,-3.299999982E-2,8.953050613E0,-1.096050024E0,9.019951770E0
1.696589090E-1,-1.099500060E-1,8.991000175E0,-1.171950102E0,9.067725194E0
1.716203230E-1,-1.099500060E-1,8.914950371E0,-1.249050021E0,9.002697100E0
1.735816790E-1,-1.480500102E-1,8.914950371E0,-1.249050021E0,9.003243020E0
1.755430240E-1,-1.870500147E-1,8.953050613E0,-1.249050021E0,9.041693920E0
1.775043730E-1,-2.629500031E-1,8.953050613E0,-1.249050021E0,9.043582473E0
1.794657820E-1,-2.250000089E-1,8.877000809E0,-1.287000060E0,8.972632697E0
1.814271590E-1,-1.870500147E-1,8.914950371E0,-1.171950102E0,8.993597437E0
1.833884110E-1,-1.870500147E-1,8.877000809E0,-1.210950017E0,8.961167949E0
1.853497000E-1,-3.019500077E-1,8.914950371E0,-1.249050021E0,9.007088313E0
1.873108750E-1,-2.629500031E-1,8.877000809E0,-1.249050021E0,8.968300397E0
1.892720840E-1,-2.250000089E-1,8.838000298E0,-1.326000094E0,8.939751144E0
1.912335080E-1,-2.629500031E-1,8.838000298E0,-1.287000060E0,8.935085960E0
1.931948610E-1,-3.019500077E-1,8.838000298E0,-1.402050018E0,8.953611971E0
1.951560720E-1,-3.400500119E-1,8.877000809E0,-1.326000094E0,8.981929282E0
1.971173250E-1,-3.400500119E-1,8.877000809E0,-1.326000094E0,8.981929282E0
1.990787760E-1,-3.400500119E-1,8.877000809E0,-1.210950017E0,8.965666585E0
2.010401690E-1,-3.400500119E-1,8.877000809E0,-1.287000060E0,8.976254593E0
2.030014980E-1,-4.170000255E-1,8.914950371E0,-1.326000094E0,9.022666202E0
2.049628530E-1,-3.780000210E-1,8.877000809E0,-1.363950014E0,8.989126043E0
2.069242420E-1,-3.780000210E-1,8.838000298E0,-1.363950014E0,8.950614108E0
2.088856210E-1,-4.930500090E-1,8.877000809E0,-1.402050018E0,9.000554756E0
2.108470520E-1,-4.170000255E-1,8.838000298E0,-1.326000094E0,8.946642640E0
2.128084670E-1,-4.549500346E-1,8.838000298E0,-1.326000094E0,8.948491775E0
2.147698470E-1,-5.320500135E-1,8.914950371E0,-1.363950014E0,9.034366440E0
2.167312380E-1,-6.469500065E-1,8.877000809E0,-1.402050018E0,9.010295884E0
2.186926210E-1,-6.079500318E-1,8.877000809E0,-1.479000092E0,9.019877376E0
2.206540070E-1,-6.079500318E-1,8.877000809E0,-1.479000092E0,9.019877376E0
2.226153470E-1,-6.850500107E-1,8.953050613E0,-1.441050053E0,9.094120851E0
2.245767000E-1,-7.230000496E-1,8.914950371E0,-1.479000092E0,9.065677606E0
2.265377740E-1,-7.999500632E-1,8.953050613E0,-1.555950046E0,9.122390911E0
2.284989300E-1,-7.620000243E-1,8.953050613E0,-1.555950046E0,9.119141400E0
2.304603530E-1,-8.770500422E-1,8.953050613E0,-1.555950046E0,9.129474936E0
2.324216980E-1,-8.770500422E-1,8.991000175E0,-1.594050050E0,9.173238059E0
2.343830440E-1,-8.380500674E-1,8.953050613E0,-1.516950130E0,9.119242342E0
2.363443900E-1,-8.770500422E-1,8.991000175E0,-1.555950046E0,9.166694141E0
2.383056020E-1,-9.529500604E-1,9.030000687E0,-1.555950046E0,9.212491887E0
2.402668540E-1,-9.150000215E-1,8.991000175E0,-1.479000092E0,9.157660753E0
2.422282600E-1,-9.150000215E-1,8.953050613E0,-1.479000092E0,9.120404684E0
2.441896210E-1,-9.919500351E-1,9.030000687E0,-1.555950046E0,9.216607717E0
2.461506950E-1,-1.068000078E0,9.030000687E0,-1.516950130E0,9.218604790E0
2.481118540E-1,-1.030050039E0,8.991000175E0,-1.441050053E0,9.163826302E0
2.500729010E-1,-1.068000078E0,9.067950249E0,-1.479000092E0,9.249637136E0
2.520339920E-1,-1.068000078E0,9.067950249E0,-1.402050018E0,9.237645270E0
2.539952460E-1,-1.030050039E0,9.067950249E0,-1.402050018E0,9.233334666E0
2.559564520E-1,-1.106999993E0,9.106050491E0,-1.363950014E0,9.273940057E0
2.579176430E-1,-1.106999993E0,9.067950249E0,-1.402050018E0,9.242235387E0
2.598788390E-1,-1.144950032E0,9.067950249E0,-1.402050018E0,9.246857658E0
2.618400890E-1,-1.106999993E0,9.067950249E0,-1.363950014E0,9.236532376E0
2.638013130E-1,-1.144950032E0,9.067950249E0,-1.441050053E0,9.252851320E0
2.657627250E-1,-1.222050071E0,9.106050491E0,-1.479000092E0,9.305966000E0
2.677240820E-1,-1.183050036E0,9.106050491E0,-1.479000092E0,9.300924912E0
2.696849320E-1,-1.183050036E0,9.067950249E0,-1.402050018E0,9.251652466E0
2.716459310E-1,-1.222050071E0,9.106050491E0,-1.441050053E0,9.300010063E0
2.736072590E-1,-1.183050036E0,9.067950249E0,-1.479000092E0,9.263626200E0
2.755684810E-1,-1.183050036E0,9.067950249E0,-1.516950130E0,9.269760882E0
2.775298480E-1,-1.183050036E0,9.067950249E0,-1.479000092E0,9.263626200E0
2.794911730E-1,-1.222050071E0,9.067950249E0,-1.479000092E0,9.268687575E0
2.814524340E-1,-1.260000110E0,9.067950249E0,-1.441050053E0,9.267790850E0
2.834137140E-1,-1.260000110E0,8.991000175E0,-1.479000092E0,9.198539324E0
2.853754350E-1,-1.260000110E0,9.030000687E0,-1.479000092E0,9.236663572E0
2.873370240E-1,-1.260000110E0,9.030000687E0,-1.441050053E0,9.230662919E0
2.892983750E-1,-1.183050036E0,9.030000687E0,-1.441050053E0,9.220474231E0
2.912597960E-1,-1.222050071E0,9.030000687E0,-1.441050053E0,9.225559280E0
2.932210390E-1,-1.222050071E0,9.030000687E0,-1.402050018E0,9.219547876E0
2.951823340E-1,-1.183050036E0,9.030000687E0,-1.402050018E0,9.214459509E0
2.971435540E-1,-1.222050071E0,9.067950249E0,-1.441050053E0,9.262707668E0
2.991047960E-1,-1.183050036E0,9.106050491E0,-1.402050018E0,9.288999257E0
3.010660240E-1,-1.144950032E0,9.183000565E0,-1.363950014E0,9.354077698E0
3.030272570E-1,-1.106999993E0,9.183000565E0,-1.402050018E0,9.355142576E0
3.049884420E-1,-1.068000078E0,9.183000565E0,-1.441050053E0,9.356535085E0
3.069496420E-1,-1.106999993E0,9.183000565E0,-1.402050018E0,9.355142576E0
3.089109310E-1,-1.106999993E0,9.220950127E0,-1.402050018E0,9.392396631E0
3.108721870E-1,-1.106999993E0,9.220950127E0,-1.363950014E0,9.386784852E0
3.128337740E-1,-1.183050036E0,9.259950638E0,-1.441050053E0,9.445788398E0
3.147952640E-1,-1.106999993E0,9.220950127E0,-1.441050053E0,9.398297478E0
3.167564520E-1,-1.106999993E0,9.259950638E0,-1.402050018E0,9.430688154E0
3.187177280E-1,-1.144950032E0,9.259950638E0,-1.441050053E0,9.441092185E0
3.206790850E-1,-1.144950032E0,9.259950638E0,-1.402050018E0,9.435218103E0
3.226404180E-1,-1.068000078E0,9.259950638E0,-1.441050053E0,9.432069510E0
3.246018570E-1,-1.106999993E0,9.259950638E0,-1.363950014E0,9.425099174E0
3.265632640E-1,-1.068000078E0,9.298050880E0,-1.402050018E0,9.463620797E0
3.285249600E-1,-1.030050039E0,9.259950638E0,-1.363950014E0,9.416371304E0
3.304865720E-1,-9.919500351E-1,9.220950127E0,-1.441050053E0,9.385441458E0
3.324481340E-1,-1.068000078E0,9.220950127E0,-1.441050053E0,9.393783618E0
3.344097180E-1,-9.919500351E-1,9.220950127E0,-1.441050053E0,9.385441458E0
3.363713830E-1,-9.919500351E-1,9.220950127E0,-1.479000092E0,9.391343215E0
3.383330240E-1,-1.030050039E0,9.259950638E0,-1.402050018E0,9.421965461E0
3.402942300E-1,-9.919500351E-1,9.259950638E0,-1.441050053E0,9.423761242E0
3.422555640E-1,-9.529500604E-1,9.259950638E0,-1.479000092E0,9.425616208E0
3.442167620E-1,-9.919500351E-1,9.336000443E0,-1.479000092E0,9.504331139E0
3.461780110E-1,-9.919500351E-1,9.375000000E0,-1.441050053E0,9.536834649E0
3.481395530E-1,-9.919500351E-1,9.336000443E0,-1.441050053E0,9.498499586E0
3.501010090E-1,-9.529500604E-1,9.375000000E0,-1.516950130E0,9.544625530E0
3.520623820E-1,-9.529500604E-1,9.375000000E0,-1.402050018E0,9.527039575E0
3.540237800E-1,-8.770500422E-1,9.412950516E0,-1.516950130E0,9.574653617E0
3.559851880E-1,-9.529500604E-1,9.412950516E0,-1.479000092E0,9.575969533E0
3.579466060E-1,-9.150000215E-1,9.451050758E0,-1.479000092E0,9.609736039E0
3.599078060E-1,-9.150000215E-1,9.451050758E0,-1.441050053E0,9.603968489E0
3.618690700E-1,-8.770500422E-1,9.490050316E0,-1.363950014E0,9.627597385E0
3.638304740E-1,-8.770500422E-1,9.412950516E0,-1.402050018E0,9.557122917E0
3.657918370E-1,-9.150000215E-1,9.490050316E0,-1.441050053E0,9.642349573E0
3.677533510E-1,-8.770500422E-1,9.490050316E0,-1.441050053E0,9.638822388E0
3.697148270E-1,-9.150000215E-1,9.490050316E0,-1.441050053E0,9.642349573E0
3.716760620E-1,-9.150000215E-1,9.451050758E0,-1.402050018E0,9.598194087E0
3.736373670E-1,-9.529500604E-1,9.451050758E0,-1.479000092E0,9.613423715E0
3.755988990E-1,-8.770500422E-1,9.528000832E0,-1.363950014E0,9.665007825E0
3.775603650E-1,-8.770500422E-1,9.528000832E0,-1.402050018E0,9.670458152E0
3.795213950E-1,-9.529500604E-1,9.528000832E0,-1.441050053E0,9.683364029E0
3.814825400E-1,-9.150000215E-1,9.565950394E0,-1.441050053E0,9.717060112E0
3.834441450E-1,-9.919500351E-1,9.604950905E0,-1.516950130E0,9.774465942E0
3.854056150E-1,-9.919500351E-1,9.604950905E0,-1.516950130E0,9.774465942E0
3.873671650E-1,-1.030050039E0,9.643050194E0,-1.516950130E0,9.815831998E0
3.893286920E-1,-1.068000078E0,9.681000710E0,-1.555950046E0,9.863233722E0
3.912901030E-1,-9.529500604E-1,9.604950905E0,-1.555950046E0,9.776716026E0
3.932515450E-1,-9.919500351E-1,9.604950905E0,-1.594050050E0,9.786727866E0
3.952130990E-1,-9.919500351E-1,9.604950905E0,-1.516950130E0,9.774465942E0
3.971746200E-1,-9.529500604E-1,9.565950394E0,-1.516950130E0,9.732248376E0
3.991361170E-1,-9.919500351E-1,9.604950905E0,-1.516950130E0,9.774465942E0
4.010976220E-1,-9.919500351E-1,9.604950905E0,-1.479000092E0,9.768648219E0
4.030591770E-1,-9.919500351E-1,9.565950394E0,-1.516950130E0,9.736144489E0
4.050207410E-1,-1.030050039E0,9.565950394E0,-1.516950130E0,9.740099985E0
4.069817360E-1,-9.529500604E-1,9.565950394E0,-1.516950130E0,9.732248376E0
4.089428970E-1,-1.030050039E0,9.565950394E0,-1.555950046E0,9.746250077E0
4.109040930E-1,-1.030050039E0,9.528000832E0,-1.516950130E0,9.702831578E0
4.128652790E-1,-9.919500351E-1,9.565950394E0,-1.555950046E0,9.742297078E0
4.148267430E-1,-1.030050039E0,9.604950905E0,-1.555950046E0,9.784531952E0
4.167881260E-1,-1.068000078E0,9.604950905E0,-1.594050050E0,9.794728256E0
4.187492860E-1,-1.030050039E0,9.565950394E0,-1.594050050E0,9.752405118E0
4.207105120E-1,-1.068000078E0,9.565950394E0,-1.594050050E0,9.756486389E0
4.226717430E-1,-1.030050039E0,9.565950394E0,-1.516950130E0,9.740099985E0
4.246329720E-1,-1.030050039E0,9.604950905E0,-1.555950046E0,9.784531952E0
4.265942030E-1,-1.068000078E0,9.643050194E0,-1.555950046E0,9.825987062E0
4.285554330E-1,-1.030050039E0,9.643050194E0,-1.594050050E0,9.828042312E0
4.305163050E-1,-1.106999993E0,9.643050194E0,-1.555950046E0,9.830302466E0
4.324772820E-1,-1.068000078E0,9.681000710E0,-1.594050050E0,9.869315805E0
4.344385550E-1,-1.030050039E0,9.643050194E0,-1.479000092E0,9.810038807E0
4.363997410E-1,-1.068000078E0,9.720000267E0,-1.516950130E0,9.895461943E0
4.383609850E-1,-1.106999993E0,9.757950783E0,-1.516950130E0,9.937011128E0
4.403222080E-1,-1.106999993E0,9.757950783E0,-1.516950130E0,9.937011128E0
4.422833060E-1,-1.106999993E0,9.757950783E0,-1.479000092E0,9.931288624E0
4.442444400E-1,-1.106999993E0,9.757950783E0,-1.555950046E0,9.943039425E0
4.462060470E-1,-1.144950032E0,9.835050583E0,-1.516950130E0,1.001699896E1
4.481675150E-1,-1.106999993E0,9.757950783E0,-1.479000092E0,9.931288624E0
4.501286360E-1,-1.106999993E0,9.835050583E0,-1.441050053E0,1.000151460E1
4.520898770E-1,-1.144950032E0,9.873000145E0,-1.479000092E0,1.004860606E1
4.540512850E-1,-1.106999993E0,9.949950218E0,-1.402050018E0,1.010904064E1
4.560126440E-1,-1.144950032E0,9.949950218E0,-1.402050018E0,1.011326674E1
4.579740780E-1,-1.106999993E0,9.988050461E0,-1.402050018E0,1.014654351E1
4.599354900E-1,-1.068000078E0,9.988050461E0,-1.326000094E0,1.013212971E1
4.618967980E-1,-1.106999993E0,1.002600002E1,-1.363950014E0,1.017872709E1
4.638581570E-1,-1.183050036E0,1.010295010E1,-1.402050018E0,1.026815233E1
4.658197250E-1,-1.144950032E0,1.010295010E1,-1.363950014E0,1.025869733E1
4.677812320E-1,-1.144950032E0,1.014105034E1,-1.402050018E0,1.030133762E1
4.697427760E-1,-1.183050036E0,1.014105034E1,-1.479000092E0,1.031639233E1
4.717043090E-1,-1.144950032E0,1.018005085E1,-1.479000092E0,1.035044865E1
4.736656350E-1,-1.144950032E0,1.018005085E1,-1.479000092E0,1.035044865E1
4.756270460E-1,-1.183050036E0,1.025595093E1,-1.479000092E0,1.042936135E1
4.775886050E-1,-1.260000110E0,1.021800041E1,-1.402050018E0,1.039042237E1
4.795501210E-1,-1.222050071E0,1.029495049E1,-1.441050053E0,1.046690198E1
4.815113490E-1,-1.260000110E0,1.033305073E1,-1.402050018E0,1.050358424E1
4.834726610E-1,-1.297950029E0,1.041000080E1,-1.441050053E0,1.058911782E1
4.854341730E-1,-1.260000110E0,1.044795036E1,-1.326000094E0,1.060686303E1
4.873956400E-1,-1.297950029E0,1.048605061E1,-1.402050018E0,1.065869016E1
4.893570570E-1,-1.336950064E0,1.052505016E1,-1.402050018E0,1.070186249E1
4.913184880E-1,-1.297950029E0,1.060095024E1,-1.441050053E0,1.077689406E1
4.932796390E-1,-1.297950029E0,1.056300068E1,-1.326000094E0,1.072473468E1
4.952408730E-1,-1.297950029E0,1.067805004E1,-1.287000060E0,1.083336495E1
4.972025080E-1,-1.336950064E0,1.071600056E1,-1.287000060E0,1.087549873E1
4.991640250E-1,-1.336950064E0,1.075500011E1,-1.210950017E0,1.090522182E1
5.011253880E-1,-1.336950064E0,1.075500011E1,-1.171950102E0,1.090096005E1
5.030867960E-1,-1.336950064E0,1.079295063E1,-1.287000060E0,1.095132814E1
5.050479970E-1,-1.375050068E0,1.071600056E1,-1.326000094E0,1.088493027E1
5.070092580E-1,-1.297950029E0,1.079295063E1,-1.287000060E0,1.094663541E1
5.089704730E-1,-1.336950064E0,1.075500011E1,-1.287000060E0,1.091392835E1
5.109317090E-1,-1.297950029E0,1.071600056E1,-1.287000060E0,1.087077326E1
5.128930730E-1,-1.297950029E0,1.075500011E1,-1.171950102E0,1.089624563E1
5.148543990E-1,-1.297950029E0,1.071600056E1,-1.287000060E0,1.087077326E1
5.168157940E-1,-1.183050036E0,1.063995075E1,-1.402050018E0,1.079693955E1
5.187771690E-1,-1.183050036E0,1.063995075E1,-1.441050053E0,1.080207316E1
5.207382300E-1,-1.260000110E0,1.060095024E1,-1.441050053E0,1.077238931E1
5.226993910E-1,-1.183050036E0,1.060095024E1,-1.479000092E0,1.076880656E1
5.246606320E-1,-1.144950032E0,1.056300068E1,-1.441050053E0,1.072215087E1
5.266218500E-1,-1.106999993E0,1.052505016E1,-1.402050018E0,1.067557372E1
5.285832630E-1,-1.106999993E0,1.044795036E1,-1.441050053E0,1.060479802E1
5.305446190E-1,-1.030050039E0,1.044795036E1,-1.555950046E0,1.061327708E1
5.325059470E-1,-9.919500351E-1,1.037100029E1,-1.555950046E0,1.053387832E1
5.344672960E-1,-1.030050039E0,1.037100029E1,-1.479000092E0,1.052644723E1
5.364287310E-1,-9.919500351E-1,1.037100029E1,-1.441050053E0,1.051752048E1
5.383901400E-1,-9.919500351E-1,1.033305073E1,-1.441050053E0,1.048010150E1
5.403513410E-1,-9.919500351E-1,1.037100029E1,-1.441050053E0,1.051752048E1
5.423126030E-1,-9.529500604E-1,1.033305073E1,-1.479000092E0,1.048176953E1
5.442736660E-1,-9.529500604E-1,1.033305073E1,-1.555950046E0,1.049290387E1
5.462347750E-1,-9.529500604E-1,1.033305073E1,-1.516950130E0,1.048719166E1
5.481963410E-1,-9.529500604E-1,1.033305073E1,-1.516950130E0,1.048719166E1
5.501577730E-1,-9.150000215E-1,1.029495049E1,-1.555950046E0,1.045199555E1
5.521188350E-1,-1.106999993E0,1.002600002E1,-2.475000143E0,1.038613264E1
5.540800060E-1,-7.999500632E-1,1.006500053E1,-2.437050104E0,1.038669192E1
5.560413770E-1,-7.620000243E-1,1.010295010E1,-1.134000063E0,1.019491054E1
5.580026920E-1,-8.770500422E-1,1.018005085E1,-8.269500136E-1,1.025117059E1
5.599640890E-1,-1.068000078E0,1.002600002E1,-1.402050018E0,1.017973697E1
5.619254620E-1,-9.529500604E-1,1.010295010E1,-1.632000089E0,1.027818752E1
5.638865340E-1,-8.770500422E-1,1.014105034E1,-1.134000063E0,1.024187848E1
5.658476940E-1,-9.919500351E-1,1.029495049E1,-8.269500136E-1,1.037563572E1
5.678092030E-1,-1.106999993E0,1.033305073E1,-9.040500522E-1,1.043142813E1
5.697706440E-1,-1.144950032E0,1.037100029E1,-1.134000063E0,1.049545205E1
5.717317050E-1,-1.183050036E0,1.041000080E1,-1.249050021E0,1.055120135E1
5.736928770E-1,-1.183050036E0,1.037100029E1,-1.363950014E0,1.052699454E1
5.756538930E-1,-1.183050036E0,1.041000080E1,-1.441050053E0,1.057564888E1
5.776149540E-1,-1.183050036E0,1.044795036E1,-1.516950130E0,1.062357811E1
5.795758890E-1,-1.183050036E0,1.041000080E1,-1.441050053E0,1.057564888E1
5.815368680E-1,-1.183050036E0,1.037100029E1,-1.402050018E0,1.053199880E1
5.834979610E-1,-1.222050071E0,1.041000080E1,-1.326000094E0,1.056502718E1
5.854590200E-1,-1.297950029E0,1.037100029E1,-1.171950102E0,1.051740407E1
5.874202350E-1,-1.297950029E0,1.037100029E1,-1.287000060E0,1.053084472E1
5.893814050E-1,-1.297950029E0,1.037100029E1,-1.287000060E0,1.053084472E1
5.913424950E-1,-1.375050068E0,1.037100029E1,-1.249050021E0,1.053605883E1
5.933035880E-1,-1.413000107E0,1.033305073E1,-1.249050021E0,1.050374374E1
5.952648420E-1,-1.375050068E0,1.033305073E1,-1.171950102E0,1.048981254E1
5.972260480E-1,-1.413000107E0,1.033305073E1,-1.096050024E0,1.048665019E1
5.991874630E-1,-1.452000022E0,1.033305073E1,-1.057050109E0,1.048797389E1
6.011488170E-1,-1.413000107E0,1.033305073E1,-8.659500480E-1,1.046510278E1
6.031098740E-1,-1.413000107E0,1.029495049E1,-8.659500480E-1,1.042748504E1
6.050710310E-1,-1.413000107E0,1.025595093E1,-9.810000658E-1,1.039920477E1
6.070324080E-1,-1.452000022E0,1.018005085E1,-9.040500522E-1,1.032274411E1
6.089937210E-1,-1.452000022E0,1.018005085E1,-9.040500522E-1,1.032274411E1
6.109547590E-1,-1.489950061E0,1.018005085E1,-9.420000315E-1,1.033154154E1
6.129158770E-1,-1.452000022E0,1.014105034E1,-9.810000658E-1,1.029133457E1
6.148769330E-1,-1.413000107E0,1.010295010E1,-9.040500522E-1,1.024126342E1
6.168380170E-1,-1.452000022E0,1.006500053E1,-9.040500522E-1,1.020930195E1
6.187991370E-1,-1.413000107E0,1.006500053E1,-9.040500522E-1,1.020382828E1
6.207602460E-1,-1.413000107E0,1.002600002E1,-9.040500522E-1,1.016536041E1
6.227212730E-1,-1.413000107E0,9.910950661E0,-9.810000658E-1,1.005911892E1
6.246823250E-1,-1.413000107E0,9.796050072E0,-1.018950105E0,9.949745003E0
6.266435750E-1,-1.375050068E0,9.757950783E0,-1.018950105E0,9.906897874E0
6.286047740E-1,-1.375050068E0,9.643050194E0,-9.040500522E-1,9.782458087E0
6.305658760E-1,-1.297950029E0,9.528000832E0,-9.040500522E-1,9.658404662E0
6.325270070E-1,-1.297950029E0,9.412950516E0,-8.659500480E-1,9.541393042E0
6.344880750E-1,-1.297950029E0,9.259950638E0,-7.890000343E-1,9.383702955E0
6.364491610E-1,-1.260000110E0,9.106050491E0,-6.360000372E-1,9.214784418E0
6.384104200E-1,-1.222050071E0,8.953050613E0,-5.209500194E-1,9.051072344E0
6.403716250E-1,-1.144950032E0,8.838000298E0,-4.060500264E-1,8.921100631E0
6.423324560E-1,-9.919500351E-1,8.722949982E0,-2.520000041E-1,8.782785734E0
6.442933970E-1,-9.529500604E-1,8.608050346E0,-2.140500098E-1,8.663282403E0
6.462543610E-1,-9.150000215E-1,8.532000542E0,-9.900000691E-2,8.581495166E0
6.482153180E-1,-8.770500422E-1,8.493000031E0,-9.900000691E-2,8.538739210E0
6.501763710E-1,-7.230000496E-1,8.377950668E0,-9.900000691E-2,8.409672257E0
6.521373950E-1,-6.850500107E-1,8.263050079E0,-1.369500011E-1,8.292529495E0
6.540983020E-1,-6.850500107E-1,8.224950790E0,-2.140500098E-1,8.256205329E0
6.560592430E-1,-7.999500632E-1,8.071949959E0,-2.140500098E-1,8.114315353E0
6.580202070E-1,-5.700000525E-1,8.071949959E0,-1.369500011E-1,8.093208974E0
6.599811640E-1,-4.549500346E-1,7.995000362E0,-1.759500057E-1,8.009866961E0
6.619426170E-1,-4.549500346E-1,7.995000362E0,-1.369500011E-1,8.009105170E0
6.639039280E-1,-3.400500119E-1,7.918050289E0,-9.900000691E-2,7.925967158E0
6.658652810E-1,-3.019500077E-1,7.957050323E0,-9.900000691E-2,7.963392786E0
6.678266210E-1,-3.019500077E-1,7.918050289E0,1.500000060E-2,7.923819735E0
6.697880130E-1,-2.629500031E-1,7.995000362E0,5.295000225E-2,7.999498559E0
6.717493900E-1,-1.870500147E-1,7.995000362E0,2.830500007E-1,8.002195687E0
6.737099200E-1,-1.480500102E-1,8.071949959E0,3.600000143E-1,8.081330024E0
6.756706990E-1,-1.099500060E-1,8.110050201E0,4.750500321E-1,8.124695429E0
6.776323220E-1,-3.299999982E-2,8.187000275E0,5.509500504E-1,8.205583980E0
6.795936980E-1,-3.299999982E-2,8.263050079E0,6.280500293E-1,8.286949526E0
6.815549500E-1,-7.200000435E-2,8.340000153E0,6.280500293E-1,8.363924521E0
6.835162380E-1,-7.200000435E-2,8.416950226E0,7.050000429E-1,8.446730738E0
6.854777730E-1,4.050000105E-3,8.532000542E0,7.050000429E-1,8.561079062E0
6.874392360E-1,4.200000316E-2,8.608050346E0,8.580000401E-1,8.650806831E0
6.894006080E-1,1.189500093E-1,8.685000420E0,9.349500537E-1,8.735989526E0
6.913620070E-1,1.570500135E-1,8.800050735E0,1.011000037E0,8.859327216E0
6.933228480E-1,1.960500032E-1,8.877000809E0,1.126049995E0,8.950283099E0
6.952838530E-1,1.960500032E-1,8.991000175E0,1.203000069E0,9.073242470E0
6.972453710E-1,2.719500065E-1,9.145050049E0,1.356000066E0,9.249034186E0
6.992067220E-1,2.719500065E-1,9.220950127E0,1.395000100E0,9.329839405E0
7.011681120E-1,3.490500152E-1,9.336000443E0,1.471050024E0,9.457628051E0
7.031294910E-1,4.260000288E-1,9.375000000E0,1.510050058E0,9.505385432E0
7.050908770E-1,4.260000288E-1,9.412950516E0,1.548000097E0,9.548896153E0
7.070522600E-1,4.639500082E-1,9.490050316E0,1.585950017E0,9.632836657E0
7.090132910E-1,4.639500082E-1,9.604950905E0,1.740000129E0,9.772304331E0
7.109744210E-1,4.639500082E-1,9.643050194E0,1.816050053E0,9.823528106E0
7.129359830E-1,4.260000288E-1,9.681000710E0,1.777950048E0,9.852124499E0
7.148974190E-1,4.260000288E-1,9.757950783E0,1.855050087E0,9.941845419E0
7.168587960E-1,5.020500422E-1,9.796050072E0,1.816050053E0,9.975604696E0
7.188201900E-1,5.410500169E-1,9.835050583E0,1.893000126E0,1.003017470E1
7.207815870E-1,4.639500082E-1,9.873000145E0,1.893000126E0,1.006353968E1
7.227429730E-1,5.020500422E-1,9.835050583E0,1.893000126E0,1.002814657E1
7.247040420E-1,4.639500082E-1,9.873000145E0,1.893000126E0,1.006353968E1
7.266652040E-1,5.020500422E-1,9.873000145E0,1.777950048E0,1.004436621E1
7.286269860E-1,5.790000558E-1,9.873000145E0,1.777950048E0,1.004850632E1
7.305885870E-1,5.790000558E-1,9.796050072E0,1.816050053E0,9.979773337E0
7.325491690E-1,5.410500169E-1,9.835050583E0,1.855050087E0,1.002308166E1
7.345100500E-1,5.410500169E-1,9.835050583E0,1.777950048E0,1.000909893E1
7.364710240E-1,5.410500169E-1,9.835050583E0,1.816050053E0,1.001593694E1
7.384319710E-1,5.020500422E-1,9.835050583E0,1.816050053E0,1.001390593E1
7.403936110E-1,5.410500169E-1,9.873000145E0,1.816050053E0,1.005320371E1
7.423550480E-1,5.790000558E-1,9.835050583E0,1.855050087E0,1.002520184E1
7.443164200E-1,5.790000558E-1,9.796050072E0,1.816050053E0,9.979773337E0
7.462778150E-1,6.550500393E-1,9.835050583E0,1.855050087E0,1.002988142E1
7.482391530E-1,6.169500351E-1,9.757950783E0,1.777950048E0,9.937773252E0
7.502005070E-1,6.550500393E-1,9.720000267E0,1.777950048E0,9.902959261E0
7.521618960E-1,6.550500393E-1,9.796050072E0,1.740000129E0,9.970922124E0
7.541232740E-1,6.940500140E-1,9.681000710E0,1.663050056E0,9.847294839E0
7.560845010E-1,6.940500140E-1,9.681000710E0,1.585950017E0,9.834567485E0
7.580457580E-1,6.169500351E-1,9.681000710E0,1.548000097E0,9.823375509E0
7.600070280E-1,6.169500351E-1,9.643050194E0,1.548000097E0,9.785977145E0
7.619682940E-1,5.790000558E-1,9.643050194E0,1.548000097E0,9.783657926E0
7.639291590E-1,5.790000558E-1,9.643050194E0,1.548000097E0,9.783657926E0
7.658901420E-1,4.639500082E-1,9.681000710E0,1.585950017E0,9.821011241E0
7.678517600E-1,4.260000288E-1,9.643050194E0,1.585950017E0,9.781877658E0
7.698132020E-1,4.260000288E-1,9.604950905E0,1.624950051E0,9.750744617E0
7.717745780E-1,3.870000243E-1,9.604950905E0,1.701000094E0,9.762082371E0
7.737359740E-1,3.490500152E-1,9.604950905E0,1.701000094E0,9.760651572E0
7.756974910E-1,2.719500065E-1,9.604950905E0,1.701000094E0,9.758198605E0
7.776589720E-1,1.960500032E-1,9.565950394E0,1.663050056E0,9.711414831E0
7.796205700E-1,1.570500135E-1,9.565950394E0,1.701000094E0,9.717277034E0
7.815821300E-1,8.100000024E-2,9.565950394E0,1.585950017E0,9.696865751E0
7.835432610E-1,8.100000024E-2,9.565950394E0,1.548000097E0,9.690731254E0
7.855045170E-1,-3.299999982E-2,9.643050194E0,1.548000097E0,9.766565944E0
7.874657870E-1,-7.200000435E-2,9.643050194E0,1.510050058E0,9.760832558E0
7.894270530E-1,-1.870500147E-1,9.643050194E0,1.548000097E0,9.768301237E0
7.913885980E-1,-1.870500147E-1,9.643050194E0,1.471050024E0,9.756402663E0
7.933500580E-1,-2.250000089E-1,9.604950905E0,1.471050024E0,9.719552205E0
7.953114310E-1,-2.629500031E-1,9.565950394E0,1.432950020E0,9.676254203E0
7.972728300E-1,-3.400500119E-1,9.565950394E0,1.432950020E0,9.678656245E0
7.992342120E-1,-4.170000255E-1,9.528000832E0,1.395000100E0,9.638605405E0
8.011955990E-1,-4.930500090E-1,9.565950394E0,1.356000066E0,9.674153267E0
8.031568030E-1,-5.700000525E-1,9.565950394E0,1.279950023E0,9.668018362E0
8.051180600E-1,-5.700000525E-1,9.528000832E0,1.318050027E0,9.635608739E0
8.070791060E-1,-6.079500318E-1,9.565950394E0,1.240950108E0,9.665245333E0
8.090402140E-1,-5.700000525E-1,9.528000832E0,1.165050030E0,9.615874452E0
8.110012860E-1,-6.079500318E-1,9.528000832E0,1.087950110E0,9.609164299E0
8.129623680E-1,-6.469500065E-1,9.565950394E0,1.050000072E0,9.645125784E0
8.149233140E-1,-7.230000496E-1,9.528000832E0,9.730500579E-1,9.604808969E0
8.168842960E-1,-7.230000496E-1,9.528000832E0,8.580000401E-1,9.593836198E0
8.188457490E-1,-7.620000243E-1,9.565950394E0,7.050000429E-1,9.622113907E0
8.208070640E-1,-8.380500674E-1,9.528000832E0,8.200500607E-1,9.599875513E0
8.227682360E-1,-7.620000243E-1,9.565950394E0,8.200500607E-1,9.631226977E0
8.247294500E-1,-7.620000243E-1,9.565950394E0,8.959500194E-1,9.637986170E0
8.266908290E-1,-7.999500632E-1,9.565950394E0,8.200500607E-1,9.634303770E0
8.286521830E-1,-7.620000243E-1,9.643050194E0,7.429500222E-1,9.701599652E0
8.306136190E-1,-8.380500674E-1,9.643050194E0,7.810500264E-1,9.710859081E0
8.325750300E-1,-9.150000215E-1,9.681000710E0,7.810500264E-1,9.755462004E0
8.345365450E-1,-9.529500604E-1,9.681000710E0,7.429500222E-1,9.756119274E0
8.364980300E-1,-9.150000215E-1,9.720000267E0,7.429500222E-1,9.791200384E0
8.384592770E-1,-9.529500604E-1,9.796050072E0,7.050000429E-1,9.867509102E0
8.404205840E-1,-9.919500351E-1,9.757950783E0,7.050000429E-1,9.833544296E0
8.423819360E-1,-9.529500604E-1,9.796050072E0,7.429500222E-1,9.870293084E0
8.443432740E-1,-9.919500351E-1,9.796050072E0,7.429500222E-1,9.874134727E0
8.463045330E-1,-9.529500604E-1,9.873000145E0,7.810500264E-1,9.949587169E0
8.482658150E-1,-9.529500604E-1,9.796050072E0,7.050000429E-1,9.867509102E0
8.502272210E-1,-9.529500604E-1,9.796050072E0,6.280500293E-1,9.862309956E0
8.521885870E-1,-9.150000215E-1,9.757950783E0,6.280500293E-1,9.820859197E0
8.541499310E-1,-8.380500674E-1,9.720000267E0,5.899500251E-1,9.773882245E0
8.561112810E-1,-8.380500674E-1,9.720000267E0,5.899500251E-1,9.773882245E0
8.580723110E-1,-8.380500674E-1,9.643050194E0,6.660000086E-1,9.702283286E0
8.600334350E-1,-9.150000215E-1,9.681000710E0,6.280500293E-1,9.744405914E0
8.619943740E-1,-9.919500351E-1,9.720000267E0,5.899500251E-1,9.788279271E0
8.639553630E-1,-8.770500422E-1,9.681000710E0,5.130000114E-1,9.734174876E0
8.659164090E-1,-8.770500422E-1,9.643050194E0,4.750500321E-1,9.694498767E0
8.678774380E-1,-8.380500674E-1,9.681000710E0,5.509500504E-1,9.732812986E0
8.698387490E-1,-6.850500107E-1,9.565950394E0,4.750500321E-1,9.602206673E0
8.717999770E-1,-6.469500065E-1,9.528000832E0,5.509500504E-1,9.565818842E0
8.737611640E-1,-6.469500065E-1,9.412950516E0,6.660000086E-1,9.458632974E0
8.757223630E-1,-6.850500107E-1,9.375000000E0,7.810500264E-1,9.432388757E0
8.776835980E-1,-7.230000496E-1,9.298050880E0,9.349500537E-1,9.372865669E0
8.796448230E-1,-6.469500065E-1,9.220950127E0,8.959500194E-1,9.286936631E0
8.816060550E-1,-6.469500065E-1,9.183000565E0,9.349500537E-1,9.253117058E0
8.835672840E-1,-6.469500065E-1,9.183000565E0,8.580000401E-1,9.245658860E0
8.855281860E-1,-6.469500065E-1,9.145050049E0,8.580000401E-1,9.207966593E0
8.874891950E-1,-6.469500065E-1,9.145050049E0,8.580000401E-1,9.207966593E0
8.894505980E-1,-6.850500107E-1,9.145050049E0,8.959500194E-1,9.214334504E0
8.914118850E-1,-6.469500065E-1,9.183000565E0,8.959500194E-1,9.249257814E0
8.933729720E-1,-6.469500065E-1,9.183000565E0,1.011000037E0,9.261110341E0
8.953341180E-1,-6.850500107E-1,9.259950638E0,1.011000037E0,9.340133854E0
8.972953420E-1,-6.469500065E-1,9.298050880E0,1.126049995E0,9.388305655E0
8.992565570E-1,-6.079500318E-1,9.298050880E0,1.203000069E0,9.395241486E0
9.012176110E-1,-5.320500135E-1,9.298050880E0,1.203000069E0,9.390635578E0
9.031787130E-1,-4.549500346E-1,9.259950638E0,1.279950023E0,9.359056438E0
9.051396050E-1,-4.170000255E-1,9.220950127E0,1.318050027E0,9.324004833E0
9.071005590E-1,-4.170000255E-1,9.183000565E0,1.318050027E0,9.286476418E0
9.090618360E-1,-4.170000255E-1,9.183000565E0,1.356000066E0,9.291938687E0
9.110230190E-1,-3.400500119E-1,9.145050049E0,1.356000066E0,9.251286969E0
9.129843930E-1,-1.870500147E-1,9.106050491E0,1.356000066E0,9.208359215E0
9.149457110E-1,-1.870500147E-1,9.106050491E0,1.432950020E0,9.220004827E0
9.169067930E-1,-1.870500147E-1,9.067950249E0,1.471050024E0,9.188400165E0
9.188679440E-1,-2.629500031E-1,9.220950127E0,1.471050024E0,9.341255382E0
9.208291570E-1,-2.250000089E-1,9.259950638E0,1.471050024E0,9.378768522E0
9.227903410E-1,-1.870500147E-1,9.375000000E0,1.395000100E0,9.480065294E0
9.247512210E-1,-1.099500060E-1,9.528000832E0,1.432950020E0,9.635778879E0
9.267121900E-1,4.050000105E-3,9.604950905E0,1.471050024E0,9.716948413E0
9.286733290E-1,4.200000316E-2,9.681000710E0,1.432950020E0,9.786566533E0
9.306344180E-1,1.189500093E-1,9.681000710E0,1.510050058E0,9.798784364E0
9.325953180E-1,8.100000024E-2,9.873000145E0,1.548000097E0,9.993948027E0
9.345562710E-1,4.200000316E-2,9.949950218E0,1.548000097E0,1.006973573E1
9.365173680E-1,8.100000024E-2,9.988050461E0,1.585950017E0,1.011350337E1
9.384784220E-1,8.100000024E-2,9.988050461E0,1.585950017E0,1.011350337E1
9.404393240E-1,4.200000316E-2,1.010295010E1,1.624950051E0,1.023287972E1
9.424002710E-1,1.189500093E-1,1.006500053E1,1.585950017E0,1.018987842E1
9.443611900E-1,8.100000024E-2,1.014105034E1,1.548000097E0,1.025883850E1
9.463221170E-1,1.189500093E-1,1.014105034E1,1.585950017E0,1.026500309E1
9.482828590E-1,4.200000316E-2,1.006500053E1,1.548000097E0,1.018343282E1
9.502436550E-1,-1.099500060E-1,9.988050461E0,1.701000094E0,1.013245490E1
9.522045540E-1,-1.480500102E-1,1.002600002E1,1.663050056E0,1.016407058E1
9.541654220E-1,-3.299999982E-2,9.988050461E0,1.548000097E0,1.010735105E1
9.561260350E-1,8.100000024E-2,1.002600002E1,1.471050024E0,1.013366793E1
9.580867270E-1,4.200000316E-2,9.988050461E0,1.471050024E0,1.009588551E1
9.600478240E-1,4.050000105E-3,9.949950218E0,1.471050024E0,1.005810688E1
9.620088020E-1,-7.200000435E-2,9.910950661E0,1.471050024E0,1.001978618E1
9.639701220E-1,-7.200000435E-2,9.949950218E0,1.471050024E0,1.005836376E1
9.659313410E-1,-1.099500060E-1,9.873000145E0,1.471050024E0,9.982595306E0
9.678923410E-1,-1.480500102E-1,9.835050583E0,1.432950020E0,9.939994192E0
9.698534110E-1,-2.250000089E-1,9.757950783E0,1.395000100E0,9.859728889E0
9.718144880E-1,-3.019500077E-1,9.681000710E0,1.356000066E0,9.780167929E0
9.737755620E-1,-3.780000210E-1,9.681000710E0,1.240950108E0,9.767528650E0
9.757366400E-1,-4.170000255E-1,9.604950905E0,1.165050030E0,9.684333352E0
9.776977160E-1,-4.549500346E-1,9.451050758E0,1.126049995E0,9.528763223E0
9.796586230E-1,-4.549500346E-1,9.375000000E0,1.050000072E0,9.444580705E0
9.816195730E-1,-4.930500090E-1,9.259950638E0,9.730500579E-1,9.323980402E0
9.835803570E-1,-5.700000525E-1,9.183000565E0,9.349500537E-1,9.248055527E0
9.855411890E-1,-6.469500065E-1,9.145050049E0,8.200500607E-1,9.204507961E0
9.875024420E-1,-7.230000496E-1,9.183000565E0,8.200500607E-1,9.247848968E0
9.894635710E-1,-7.999500632E-1,9.220950127E0,7.050000429E-1,9.282395510E0
9.914246350E-1,-8.380500674E-1,9.336000443E0,6.280500293E-1,9.394555818E0
9.933857220E-1,-8.770500422E-1,9.375000000E0,6.280500293E-1,9.436857984E0
9.953469770E-1,-9.919500351E-1,9.375000000E0,4.750500321E-1,9.439293533E0
9.973081820E-1,-1.030050039E0,9.336000443E0,4.750500321E-1,9.404657350E0
9.992694170E-1,-1.030050039E0,9.259950638E0,5.130000114E-1,9.331176663E0
1.001230643E0,-1.068000078E0,9.183000565E0,4.360500276E-1,9.255174940E0
1.003191875E0,-1.068000078E0,9.145050049E0,3.979500234E-1,9.215797783E0
1.005153105E0,-1.106999993E0,9.067950249E0,4.360500276E-1,9.145671672E0
1.007114157E0,-1.144950032E0,8.953050613E0,3.979500234E-1,9.034732430E0
1.009075261E0,-1.222050071E0,8.877000809E0,3.979500234E-1,8.969554836E0
1.011036738E0,-1.336950064E0,8.838000298E0,3.220500052E-1,8.944350224E0
1.012998105E0,-1.336950064E0,8.838000298E0,2.830500007E-1,8.943030920E0
1.014959122E0,-1.260000110E0,8.800050735E0,2.070000172E-1,8.892206826E0
1.016920218E0,-1.222050071E0,8.685000420E0,1.300500035E-1,8.771519348E0
1.018881156E0,-1.297950029E0,8.722949982E0,2.070000172E-1,8.821415967E0
1.020842141E0,-1.413000107E0,8.685000420E0,2.449500114E-1,8.802602007E0
1.022803053E0,-1.413000107E0,8.685000420E0,3.220500052E-1,8.805084769E0
1.024763987E0,-1.528050065E0,8.685000420E0,2.830500007E-1,8.822940927E0
1.026725228E0,-1.567050099E0,8.722949982E0,2.830500007E-1,8.867108869E0
1.028686375E0,-1.567050099E0,8.685000420E0,2.830500007E-1,8.829778910E0
1.030647261E0,-1.605000019E0,8.685000420E0,2.070000172E-1,8.834483933E0
1.032608223E0,-1.681950092E0,8.761950493E0,1.680000126E-1,8.923505844E0
1.034569184E0,-1.681950092E0,8.761950493E0,2.449500114E-1,8.925286161E0
1.036530146E0,-1.720050097E0,8.761950493E0,1.680000126E-1,8.930765520E0
1.038491251E0,-1.720050097E0,8.761950493E0,2.070000172E-1,8.931584282E0
1.040452307E0,-1.720050097E0,8.761950493E0,2.449500114E-1,8.932544390E0
1.042413522E0,-1.873050094E0,8.800050735E0,2.449500114E-1,9.000511658E0
1.044374691E0,-1.795950055E0,8.877000809E0,9.195000678E-2,9.057319403E0
1.046335798E0,-1.758000135E0,8.914950371E0,1.500000060E-2,9.086645673E0
1.048296924E0,-1.720050097E0,8.914950371E0,1.500000060E-2,9.079379794E0
1.050257947E0,-1.681950092E0,8.914950371E0,9.195000678E-2,9.072692601E0
1.052219001E0,-1.720050097E0,8.953050613E0,1.680000126E-1,9.118328335E0
1.054179722E0,-1.795950055E0,9.030000687E0,2.070000172E-1,9.209190953E0
1.056140540E0,-1.720050097E0,9.030000687E0,9.195000678E-2,9.192819999E0
1.058101480E0,-1.642950058E0,9.030000687E0,1.500000060E-2,9.178258130E0
1.060062384E0,-1.605000019E0,9.145050049E0,-2.205000073E-2,9.284850654E0
1.062023136E0,-1.567050099E0,9.145050049E0,5.295000225E-2,9.278490724E0
1.063983929E0,-1.528050065E0,9.145050049E0,5.295000225E-2,9.271983666E0
1.065944738E0,-1.528050065E0,9.145050049E0,5.295000225E-2,9.271983666E0
1.067905543E0,-1.452000022E0,9.183000565E0,9.195000678E-2,9.297540440E0
1.069866262E0,-1.452000022E0,9.220950127E0,9.195000678E-2,9.335024376E0
1.071827006E0,-1.375050068E0,9.220950127E0,9.195000678E-2,9.323365204E0
1.073787805E0,-1.297950029E0,9.183000565E0,9.195000678E-2,9.274730640E0
1.075748601E0,-1.297950029E0,9.145050049E0,9.195000678E-2,9.237157002E0
1.077709366E0,-1.260000110E0,9.145050049E0,9.195000678E-2,9.231900968E0
1.079670141E0,-1.222050071E0,9.067950249E0,1.300500035E-1,9.150849201E0
1.081630729E0,-1.375050068E0,8.991000175E0,1.680000126E-1,9.097091340E0
1.083591372E0,-1.260000110E0,9.030000687E0,2.070000172E-1,9.119833424E0
1.085552306E0,-1.144950032E0,8.991000175E0,1.300500035E-1,9.064541231E0
1.087513148E0,-1.030050039E0,8.953050613E0,5.295000225E-2,9.012265091E0
1.089473590E0,-9.919500351E-1,8.953050613E0,9.195000678E-2,9.008303667E0
1.091434150E0,-9.529500604E-1,8.914950371E0,9.195000678E-2,8.966209273E0
1.093394729E0,-9.150000215E-1,8.838000298E0,2.070000172E-1,8.887650044E0
1.095355302E0,-9.150000215E-1,8.800050735E0,2.830500007E-1,8.852018713E0
1.097315255E0,-8.380500674E-1,8.800050735E0,3.600000143E-1,8.847192824E0
1.099275386E0,-8.770500422E-1,8.722949982E0,4.360500276E-1,8.777768098E0
1.101236399E0,-8.770500422E-1,8.761950493E0,4.360500276E-1,8.816526121E0
1.103197153E0,-9.150000215E-1,8.722949982E0,5.130000114E-1,8.785798224E0
1.105157791E0,-9.150000215E-1,8.685000420E0,5.899500251E-1,8.752970831E0
1.107118463E0,-9.529500604E-1,8.685000420E0,7.810500264E-1,8.771965871E0
1.109079234E0,-9.919500351E-1,8.647050858E0,6.660000086E-1,8.729204398E0
1.111039985E0,-9.529500604E-1,8.722949982E0,5.509500504E-1,8.792128079E0
1.113000533E0,-9.150000215E-1,8.722949982E0,5.899500251E-1,8.790626966E0
1.114961141E0,-9.150000215E-1,8.722949982E0,6.280500293E-1,8.793266075E0
1.116922297E0,-9.529500604E-1,8.722949982E0,6.660000086E-1,8.800086716E0
1.118883293E0,-9.529500604E-1,8.761950493E0,8.200500607E-1,8.851687543E0
1.120844250E0,-1.030050039E0,8.838000298E0,8.200500607E-1,8.935532130E0
1.122805218E0,-1.068000078E0,8.838000298E0,8.959500194E-1,8.947267732E0
1.124766088E0,-1.106999993E0,8.838000298E0,9.730500579E-1,8.960051599E0
1.126726987E0,-1.183050036E0,8.953050613E0,1.050000072E0,9.091711765E0
1.128687779E0,-1.106999993E0,9.030000687E0,1.126049995E0,9.167025143E0
1.130648603E0,-1.183050036E0,9.067950249E0,1.050000072E0,9.204880730E0
1.132609556E0,-1.106999993E0,9.183000565E0,9.349500537E-1,9.296616587E0
1.134570461E0,-1.030050039E0,9.259950638E0,8.580000401E-1,9.356487213E0
1.136531387E0,-9.919500351E-1,9.336000443E0,7.810500264E-1,9.420982341E0
1.138492307E0,-9.919500351E-1,9.451050758E0,9.730500579E-1,9.552651555E0
1.140453007E0,-1.068000078E0,9.451050758E0,1.087950110E0,9.573224120E0
1.142413771E0,-1.183050036E0,9.604950905E0,1.240950108E0,9.756774387E0
1.144374245E0,-1.222050071E0,9.720000267E0,1.279950023E0,9.879781558E0
1.146334790E0,-1.106999993E0,9.835050583E0,1.165050030E0,9.965490983E0
1.148295732E0,-1.030050039E0,9.873000145E0,1.126049995E0,9.990251425E0
1.150256557E0,-1.106999993E0,1.002600002E1,1.165050030E0,1.015398774E1
1.152217363E0,-1.030050039E0,1.014105034E1,1.087950110E0,1.025112387E1
1.154178174E0,-9.150000215E-1,1.025595093E1,1.087950110E0,1.035400357E1
1.156139110E0,-9.150000215E-1,1.037100029E1,1.050000072E0,1.046409921E1
1.158100013E0,-9.150000215E-1,1.048605061E1,1.126049995E0,1.058595631E1
1.160060535E0,-9.150000215E-1,1.060095024E1,1.165050030E0,1.070395780E1
1.162021169E0,-9.150000215E-1,1.071600056E1,1.203000069E0,1.082206552E1
1.163982140E0,-9.150000215E-1,1.083105087E1,1.203000069E0,1.093600006E1
1.165943013E0,-8.770500422E-1,1.087005043E1,1.203000069E0,1.097152780E1
1.167903455E0,-7.620000243E-1,1.098495007E1,1.203000069E0,1.107686694E1
1.169864020E0,-7.999500632E-1,1.110000038E1,1.203000069E0,1.119362040E1
1.171824959E0,-7.230000496E-1,1.117605019E1,1.240950108E0,1.126795385E1
1.173785788E0,-7.230000496E-1,1.125300026E1,1.126049995E0,1.133228717E1
1.175746548E0,-7.620000243E-1,1.113795090E1,1.279950023E0,1.123712002E1
1.177707328E0,-9.529500604E-1,1.117605019E1,1.087950110E0,1.126924341E1
1.179667804E0,-8.380500674E-1,1.132905006E1,1.240950108E0,1.142758332E1
1.181628352E0,-7.620000243E-1,1.144395065E1,1.087950110E0,1.152077628E1
1.183589338E0,-6.469500065E-1,1.148295021E1,9.349500537E-1,1.153909968E1
1.185550196E0,-5.320500135E-1,1.155900097E1,7.810500264E-1,1.159756956E1
1.187511266E0,-4.549500346E-1,1.155900097E1,7.050000429E-1,1.158941362E1
1.189472273E0,-4.930500090E-1,1.155900097E1,7.810500264E-1,1.159584584E1
1.191433178E0,-5.320500135E-1,1.163595009E1,7.429500222E-1,1.167177735E1
1.193394116E0,-5.700000525E-1,1.163595009E1,7.050000429E-1,1.167121500E1
1.195355216E0,-5.700000525E-1,1.163595009E1,6.280500293E-1,1.166681968E1
1.197316268E0,-5.700000525E-1,1.159800053E1,5.509500504E-1,1.162506182E1
1.199277349E0,-6.079500318E-1,1.155900097E1,4.750500321E-1,1.158472180E1
1.201238422E0,-6.469500065E-1,1.148295021E1,5.509500504E-1,1.151434913E1
1.203199545E0,-7.620000243E-1,1.136805058E1,5.509500504E-1,1.140687354E1
1.205160653E0,-7.999500632E-1,1.136805058E1,5.130000114E-1,1.140770192E1
1.207122446E0,-7.230000496E-1,1.129095078E1,4.360500276E-1,1.132247491E1
1.209084038E0,-7.999500632E-1,1.121400070E1,2.449500114E-1,1.124516484E1
1.211045027E0,-8.380500674E-1,1.113795090E1,1.680000126E-1,1.117069837E1
1.213006193E0,-8.380500674E-1,1.102305031E1,1.500000060E-2,1.105487182E1
1.214967026E0,-9.150000215E-1,1.090800095E1,-9.900000691E-2,1.094675800E1
1.216927959E0,-1.068000078E0,1.102305031E1,5.295000225E-2,1.107479417E1
1.218889059E0,-1.030050039E0,1.102305031E1,9.195000678E-2,1.107145410E1
1.220850110E0,-1.030050039E0,1.094595051E1,-6.105000153E-2,1.099447874E1
1.222811058E0,-1.106999993E0,1.087005043E1,-1.759500057E-1,1.092768977E1
1.224772036E0,-1.183050036E0,1.087005043E1,-1.759500057E-1,1.093565554E1
1.226732904E0,-1.222050071E0,1.087005043E1,-1.759500057E-1,1.093994338E1
1.228693805E0,-1.222050071E0,1.083105087E1,-2.140500098E-1,1.090187538E1
1.230654596E0,-1.260000110E0,1.075500011E1,-2.910000086E-1,1.083246550E1
1.232615420E0,-1.260000110E0,1.071600056E1,-2.140500098E-1,1.079194540E1
1.234576675E0,-1.297950029E0,1.067805004E1,-2.140500098E-1,1.075877523E1
1.236537803E0,-1.297950029E0,1.063995075E1,-2.140500098E-1,1.072096282E1
1.238498717E0,-1.297950029E0,1.063995075E1,-2.520000041E-1,1.072178764E1
1.240459708E0,-1.413000107E0,1.063995075E1,-2.910000086E-1,1.073730890E1
1.242420619E0,-1.413000107E0,1.056300068E1,-3.289500177E-1,1.066216492E1
1.244381554E0,-1.489950061E0,1.060095024E1,-3.670500219E-1,1.071143421E1
1.246342609E0,-1.489950061E0,1.060095024E1,-2.910000086E-1,1.070909792E1
1.248303629E0,-1.413000107E0,1.063995075E1,-2.910000086E-1,1.073730890E1
1.250264692E0,-1.375050068E0,1.067805004E1,-1.369500011E-1,1.076709202E1
1.252225759E0,-1.413000107E0,1.067805004E1,-9.900000691E-2,1.077158869E1
1.254186838E0,-1.375050068E0,1.071600056E1,-9.900000691E-2,1.080431542E1
1.256147913E0,-1.375050068E0,1.071600056E1,-6.105000153E-2,1.080403433E1
1.258109036E0,-1.336950064E0,1.071600056E1,-6.105000153E-2,1.079925139E1
1.260070144E0,-1.336950064E0,1.075500011E1,-6.105000153E-2,1.083795138E1
1.262031235E0,-1.336950064E0,1.071600056E1,-6.105000153E-2,1.079925139E1
1.263992318E0,-1.260000110E0,1.075500011E1,1.500000060E-2,1.082856651E1
1.265953528E0,-1.297950029E0,1.079295063E1,9.195000678E-2,1.087110447E1
1.267914701E0,-1.297950029E0,1.079295063E1,1.300500035E-1,1.087149348E1
1.269874906E0,-1.222050071E0,1.075500011E1,2.830500007E-1,1.082790613E1
1.271835395E0,-1.144950032E0,1.098495007E1,4.360500276E-1,1.105306194E1
1.273796523E0,-1.144950032E0,1.110000038E1,5.130000114E-1,1.117067984E1
1.275757466E0,-1.106999993E0,1.106100082E1,5.509500504E-1,1.112990270E1
1.277718431E0,-1.106999993E0,1.106100082E1,7.429500222E-1,1.114105753E1
1.279679389E0,-1.030050039E0,1.106100082E1,8.580000401E-1,1.114194356E1
1.281640263E0,-9.919500351E-1,1.106100082E1,1.050000072E0,1.115491839E1
1.283601161E0,-1.030050039E0,1.102305031E1,1.087950110E0,1.112440006E1
1.285562297E0,-1.068000078E0,1.102305031E1,1.240950108E0,1.114397682E1
1.287523374E0,-1.068000078E0,1.098495007E1,1.356000066E0,1.111973418E1
1.289484632E0,-1.106999993E0,1.098495007E1,1.432950020E0,1.113319014E1
1.291445836E0,-1.144950032E0,1.094595051E1,1.432950020E0,1.109856247E1
1.293407028E0,-1.030050039E0,1.087005043E1,1.471050024E0,1.101739477E1
1.295368223E0,-1.068000078E0,1.083105087E1,1.510050058E0,1.098783593E1
1.297329310E0,-1.068000078E0,1.083105087E1,1.624950051E0,1.100421509E1
1.299290439E0,-1.030050039E0,1.079295063E1,1.777950048E0,1.098680539E1
1.301251462E0,-1.030050039E0,1.083105087E1,1.930950046E0,1.104994272E1
1.303212516E0,-1.030050039E0,1.079295063E1,2.085000038E0,1.104065268E1
1.305173641E0,-1.068000078E0,1.075500011E1,2.314950228E0,1.105303787E1
1.307134745E0,-1.106999993E0,1.071600056E1,2.467950106E0,1.105209911E1
1.309095754E0,-1.068000078E0,1.075500011E1,2.736000061E0,1.114882720E1
1.311056805E0,-9.919500351E-1,1.071600056E1,2.889000177E0,1.114284321E1
1.313017526E0,-9.529500604E-1,1.071600056E1,3.004050255E0,1.116982989E1
1.314978343E0,-9.919500351E-1,1.071600056E1,3.157950163E0,1.121558211E1
1.316939328E0,-9.919500351E-1,1.063995075E1,3.349050045E0,1.119860050E1
1.318900264E0,-9.919500351E-1,1.060095024E1,3.502950191E0,1.120869176E1
1.320861324E0,-9.919500351E-1,1.052505016E1,3.733050108E0,1.121143652E1
1.322822345E0,-9.919500351E-1,1.052505016E1,3.808950186E0,1.123693674E1
1.324783118E0,-9.150000215E-1,1.037100029E1,3.924000263E0,1.112621455E1
1.326743963E0,-9.150000215E-1,1.029495049E1,4.078050137E0,1.111097311E1
1.328704853E0,-8.380500674E-1,1.018005085E1,4.153950214E0,1.102683389E1
1.330665730E0,-7.620000243E-1,1.010295010E1,4.231050014E0,1.097961880E1
1.332626527E0,-6.850500107E-1,1.002600002E1,4.269000053E0,1.091853156E1
1.334587347E0,-5.700000525E-1,9.835050583E0,4.345950127E0,1.076756252E1
1.336548422E0,-4.170000255E-1,9.757950783E0,4.461000443E0,1.073741205E1
1.338509422E0,-3.780000210E-1,9.643050194E0,4.498950005E0,1.064762190E1
1.340470153E0,-2.629500031E-1,9.604950905E0,4.423050404E0,1.057769348E1
1.342430963E0,-1.099500060E-1,9.490050316E0,4.384050369E0,1.045433124E1
1.344391745E0,-7.200000435E-2,9.375000000E0,4.384050369E0,1.034967181E1
1.346352521E0,1.189500093E-1,9.298050880E0,4.461000443E0,1.031350688E1
1.348312974E0,2.719500065E-1,9.220950127E0,4.423050404E0,1.023050600E1
1.350273521E0,3.490500152E-1,9.145050049E0,4.423050404E0,1.016450447E1
1.352235409E0,5.020500422E-1,8.991000175E0,4.345950127E0,9.998870981E0
1.354196904E0,7.320000529E-1,9.030000687E0,4.269000053E0,1.001504358E1
1.356158055E0,8.470500112E-1,8.877000809E0,4.078050137E0,9.805566276E0
1.358119300E0,1.039050102E0,8.877000809E0,3.963000298E0,9.776816447E0
1.360080393E0,1.039050102E0,8.722949982E0,3.847950220E0,9.590422430E0
1.362041530E0,1.384050012E0,8.800050735E0,3.847950220E0,9.703772889E0
1.364002552E0,1.575000048E0,8.761950493E0,3.886050224E0,9.713587799E0
1.365963607E0,1.690050125E0,8.685000420E0,3.847950220E0,9.648431096E0
1.367924497E0,1.651950121E0,8.685000420E0,3.847950220E0,9.641830344E0
1.369885443E0,1.729050040E0,8.647050858E0,3.847950220E0,9.621217359E0
1.371846407E0,1.729050040E0,8.608050346E0,3.808950186E0,9.570592789E0
1.373807365E0,1.651950121E0,8.569950104E0,3.694050074E0,9.477288110E0
1.375768462E0,1.882050037E0,8.569950104E0,3.655950069E0,9.505373640E0
1.377729518E0,2.074050188E0,8.493000031E0,3.618000269E0,9.461641488E0
1.379690230E0,1.959000111E0,8.416950226E0,3.502950191E0,9.324880299E0
1.381651050E0,1.996950150E0,8.455050468E0,3.502950191E0,9.367302086E0
1.383611630E0,2.380050182E0,8.455050468E0,3.541050196E0,9.470562485E0
1.385572281E0,2.457000017E0,8.340000153E0,3.463950157E0,9.359027851E0
1.387533385E0,2.419050217E0,8.263050079E0,3.388050079E0,9.252496091E0
1.389494356E0,2.419050217E0,8.302050591E0,3.310950041E0,9.259494486E0
1.391455151E0,2.533950090E0,8.224950790E0,3.196050167E0,9.180711042E0
1.393415987E0,2.649000168E0,8.148000717E0,3.043050051E0,9.092154375E0
1.395376565E0,2.572050095E0,8.110050201E0,2.889000177E0,8.985247798E0
1.397337218E0,2.649000168E0,8.071949959E0,2.736000061E0,8.925204444E0
1.399297782E0,2.610000134E0,7.995000362E0,2.545050144E0,8.786888626E0
1.401258372E0,2.572050095E0,7.995000362E0,2.353049994E0,8.721944551E0
1.403219337E0,2.610000134E0,8.071949959E0,2.161050081E0,8.754348307E0
1.405180202E0,2.533950090E0,7.995000362E0,2.046000004E0,8.632905066E0
1.407140820E0,2.533950090E0,8.032950401E0,1.930950046E0,8.641629666E0
1.409101511E0,2.533950090E0,8.110050201E0,1.816050053E0,8.688604901E0
1.411062428E0,2.610000134E0,8.224950790E0,1.663050056E0,8.787926473E0
1.413023279E0,2.572050095E0,8.224950790E0,1.510050058E0,8.749028996E0
1.414983905E0,2.572050095E0,8.340000153E0,1.471050024E0,8.850708017E0
1.416944593E0,2.572050095E0,8.416950226E0,1.318050027E0,8.899311696E0
1.418905556E0,2.457000017E0,8.493000031E0,1.240950108E0,8.927925614E0
1.420866438E0,2.149950027E0,8.647050858E0,1.050000072E0,8.971971567E0
1.422827503E0,1.959000111E0,8.800050735E0,9.730500579E-1,9.067822274E0
1.424788515E0,1.920000076E0,8.953050613E0,1.126049995E0,9.225589638E0
1.426749588E0,1.843950033E0,9.145050049E0,1.240950108E0,9.411272459E0
1.428710653E0,1.651950121E0,9.375000000E0,1.279950023E0,9.605094287E0
1.430671553E0,1.422000051E0,9.528000832E0,1.318050027E0,9.723278247E0
1.432632502E0,1.306950092E0,9.720000267E0,1.240950108E0,9.885670483E0
1.434593285E0,1.192050099E0,9.910950661E0,1.203000069E0,1.005460768E1
1.436554117E0,1.039050102E0,1.006500053E1,1.087950110E0,1.017681170E1
1.438514890E0,8.850000501E-1,1.025595093E1,1.087950110E0,1.035139556E1
1.440475670E0,8.089500666E-1,1.037100029E1,1.050000072E0,1.045535974E1
1.442435852E0,5.790000558E-1,1.048605061E1,1.087950110E0,1.055822588E1
1.444396209E0,3.870000243E-1,1.060095024E1,1.011000037E0,1.065607977E1
1.446357228E0,2.719500065E-1,1.071600056E1,1.050000072E0,1.077075322E1
1.448318053E0,4.200000316E-2,1.079295063E1,8.959500194E-1,1.083015576E1
1.450279699E0,-3.299999982E-2,1.083105087E1,7.050000429E-1,1.085402124E1
1.452241115E0,1.960500032E-1,9.988050461E0,5.295000225E-2,9.990114680E0
1.454200918E0,-3.299999982E-2,1.033305073E1,-1.759500057E-1,1.033460133E1
1.456161194E0,-4.549500346E-1,1.063995075E1,4.750500321E-1,1.066026285E1
1.458122001E0,-8.380500674E-1,1.098495007E1,1.011000037E0,1.106316306E1
1.460082653E0,-9.919500351E-1,1.110000038E1,1.087950110E0,1.119721433E1
1.462043488E0,-1.106999993E0,1.121400070E1,1.011000037E0,1.131376957E1
1.464004269E0,-1.144950032E0,1.136805058E1,8.959500194E-1,1.146063746E1
1.465965037E0,-1.222050071E0,1.144395065E1,6.660000086E-1,1.152826825E1
1.467925809E0,-1.222050071E0,1.144395065E1,5.899500251E-1,1.152412487E1
1.469886892E0,-1.375050068E0,1.155900097E1,4.750500321E-1,1.165019050E1
1.471847884E0,-1.528050065E0,1.155900097E1,3.220500052E-1,1.166401117E1
1.473809331E0,-1.567050099E0,1.163595009E1,2.070000172E-1,1.174282034E1
1.475770648E0,-1.681950092E0,1.159800053E1,1.680000126E-1,1.172052884E1
1.477731370E0,-1.720050097E0,1.163595009E1,1.680000126E-1,1.176359345E1
1.479692266E0,-1.758000135E0,1.159800053E1,1.680000126E-1,1.173168380E1
1.481653013E0,-1.795950055E0,1.167405033E1,2.070000172E-1,1.181320180E1
1.483613804E0,-1.834950089E0,1.167405033E1,2.070000172E-1,1.181919380E1
1.485574759E0,-1.834950089E0,1.167405033E1,2.070000172E-1,1.181919380E1
1.487535659E0,-1.911000133E0,1.159800053E1,1.680000126E-1,1.175558428E1
1.489496362E0,-1.911000133E0,1.152105045E1,1.300500035E-1,1.167918824E1
1.491457122E0,-1.911000133E0,1.140600014E1,9.195000678E-2,1.156534545E1
1.493417892E0,-1.987950087E0,1.121400070E1,-2.205000073E-2,1.138886489E1
1.495378659E0,-1.642950058E0,1.018005085E1,-7.510500550E-1,1.033909069E1
1.497339687E0,-1.605000019E0,9.988050461E0,-1.363950014E0,1.020771947E1
1.499300615E0,-1.681950092E0,1.037100029E1,-2.205000073E-2,1.050652604E1
1.501260772E0,-2.218050003E0,1.079295063E1,6.660000086E-1,1.103861790E1
1.503221155E0,-2.524950027E0,1.102305031E1,6.280500293E-1,1.132596387E1
1.505183251E0,-2.448000193E0,1.121400070E1,4.360500276E-1,1.148636828E1
1.507144845E0,-2.371050119E0,1.129095078E1,1.680000126E-1,1.153844323E1
1.509105709E0,-2.332950115E0,1.129095078E1,-6.105000153E-2,1.152961199E1
1.511066780E0,-1.873050094E0,1.029495049E1,-9.810000658E-1,1.050983745E1
1.513027498E0,-1.681950092E0,1.052505016E1,-1.057050109E0,1.071088194E1
1.514988319E0,-1.911000133E0,1.071600056E1,-2.520000041E-1,1.088797931E1
1.516949439E0,-2.140950203E0,1.075500011E1,5.295000225E-2,1.096615242E1
1.518910471E0,-2.179949999E0,1.075500011E1,-2.205000073E-2,1.097372752E1
1.520871405E0,-2.065050125E0,1.075500011E1,1.500000060E-2,1.095146951E1
1.522832348E0,-1.987950087E0,1.071600056E1,9.195000678E-2,1.089922329E1
1.524793582E0,-1.911000133E0,1.067805004E1,-2.205000073E-2,1.084772605E1
1.526754731E0,-1.911000133E0,1.060095024E1,-1.759500057E-1,1.077325512E1
1.528715616E0,-1.987950087E0,1.060095024E1,-2.520000041E-1,1.078867905E1
1.530676579E0,-1.950000048E0,1.052505016E1,-4.060500264E-1,1.071186528E1
1.532637669E0,-1.911000133E0,1.044795036E1,-5.970000029E-1,1.063804481E1
1.534598726E0,-1.873050094E0,1.041000080E1,-1.134000063E0,1.063778123E1
1.536559806E0,-1.834950089E0,1.029495049E1,-9.810000658E-1,1.050311423E1
1.538520879E0,-1.795950055E0,1.014105034E1,-9.040500522E-1,1.033845468E1
1.540482002E0,-1.720050097E0,1.006500053E1,-7.890000343E-1,1.024135387E1
1.542443110E0,-1.642950058E0,9.873000145E0,-6.739500165E-1,1.003143187E1
1.544404322E0,-1.605000019E0,9.757950783E0,-7.120500207E-1,9.914668112E0
1.546365500E0,-1.567050099E0,9.604950905E0,-5.970000029E-1,9.750237787E0
1.548326425E0,-1.528050065E0,9.451050758E0,-5.590500236E-1,9.590090425E0
1.550287425E0,-1.489950061E0,9.451050758E0,-5.209500194E-1,9.581946595E0
1.552248290E0,-1.452000022E0,9.298050880E0,-4.819500148E-1,9.423074342E0
1.554209194E0,-1.413000107E0,9.183000565E0,-5.209500194E-1,9.305668036E0
1.556170300E0,-1.336950064E0,9.145050049E0,-5.970000029E-1,9.261521736E0
1.558131346E0,-1.260000110E0,9.106050491E0,-6.360000372E-1,9.214784418E0
1.560092294E0,-1.144950032E0,9.030000687E0,-7.120500207E-1,9.130106144E0
1.562053271E0,-1.106999993E0,8.953050613E0,-7.510500550E-1,9.052438371E0
1.564014185E0,-1.106999993E0,8.914950371E0,-7.510500550E-1,9.014758193E0
1.565975117E0,-9.919500351E-1,8.838000298E0,-7.890000343E-1,8.928422883E0
1.567936213E0,-9.150000215E-1,8.800050735E0,-7.120500207E-1,8.876098987E0
1.569897264E0,-9.150000215E-1,8.761950493E0,-8.269500136E-1,8.848324576E0
1.571858121E0,-9.150000215E-1,8.685000420E0,-7.890000343E-1,8.768636062E0
1.573819035E0,-8.380500674E-1,8.685000420E0,-6.360000372E-1,8.748488798E0
1.575780004E0,-9.150000215E-1,8.608050346E0,-6.739500165E-1,8.682739454E0
1.577740956E0,-7.999500632E-1,8.569950104E0,-6.360000372E-1,8.630669785E0
1.579701636E0,-8.380500674E-1,8.493000031E0,-7.890000343E-1,8.570641661E0
1.581662406E0,-7.999500632E-1,8.340000153E0,-9.420000315E-1,8.431066760E0
1.583623354E0,-7.230000496E-1,8.263050079E0,-9.420000315E-1,8.347939251E0
1.585584250E0,-6.469500065E-1,8.224950790E0,-7.120500207E-1,8.281025000E0
1.587544999E0,-6.469500065E-1,8.224950790E0,-5.209500194E-1,8.266785877E0
1.589505791E0,-7.230000496E-1,8.187000275E0,-5.209500194E-1,8.235356185E0
1.591466763E0,-6.850500107E-1,8.148000717E0,-5.970000029E-1,8.198513171E0
1.593427663E0,-7.230000496E-1,8.110050201E0,-6.739500165E-1,8.170058260E0
1.595388590E0,-6.469500065E-1,7.995000362E0,-8.269500136E-1,8.063648147E0
1.597349509E0,-6.079500318E-1,7.957050323E0,-7.890000343E-1,8.019150463E0
1.599310433E0,-6.469500065E-1,7.918050289E0,-7.510500550E-1,7.979858450E0
1.601271355E0,-6.079500318E-1,7.803000450E0,-7.890000343E-1,7.866316820E0
1.603232264E0,-6.850500107E-1,7.803000450E0,-8.659500480E-1,7.880734676E0
1.605193187E0,-7.230000496E-1,7.765050411E0,-8.269500136E-1,7.842358273E0
1.607153931E0,-7.230000496E-1,7.765050411E0,-8.269500136E-1,7.842358273E0
1.609114728E0,-6.850500107E-1,7.726950169E0,-7.890000343E-1,7.797279877E0
1.611075717E0,-7.620000243E-1,7.765050411E0,-7.890000343E-1,7.842140842E0
1.613036649E0,-7.999500632E-1,7.879950523E0,-8.269500136E-1,7.963503417E0
1.614997564E0,-7.620000243E-1,7.842000484E0,-8.269500136E-1,7.922213198E0
1.616958458E0,-7.230000496E-1,7.803000450E0,-8.659500480E-1,7.884124211E0
1.618919385E0,-7.620000243E-1,7.918050289E0,-8.659500480E-1,8.001626954E0
1.620880302E0,-7.230000496E-1,7.957050323E0,-9.040500522E-1,8.040813729E0
1.622841092E0,-6.850500107E-1,7.995000362E0,-9.420000315E-1,8.079399011E0
1.624801920E0,-7.620000243E-1,8.032950401E0,-9.420000315E-1,8.123810697E0
1.626762999E0,-7.620000243E-1,8.032950401E0,-9.040500522E-1,8.119497687E0
1.628724000E0,-7.230000496E-1,8.071949959E0,-1.057050109E0,8.172910139E0
1.630685090E0,-7.620000243E-1,7.612050533E0,-1.824000120E0,7.864536464E0
1.632646153E0,-4.549500346E-1,7.765050411E0,-1.516950130E0,7.924905370E0
1.634607054E0,-5.320500135E-1,7.995000362E0,-5.970000029E-1,8.034893715E0
1.636568002E0,-6.469500065E-1,8.224950790E0,-2.520000041E-1,8.254202797E0
1.638528769E0,-7.230000496E-1,8.187000275E0,-6.739500165E-1,8.246448399E0
1.640489569E0,-6.079500318E-1,8.302050591E0,-7.510500550E-1,8.358093289E0
1.642450377E0,-6.469500065E-1,8.416950226E0,-5.970000029E-1,8.462860298E0
1.644411182E0,-7.230000496E-1,8.532000542E0,-6.360000372E-1,8.586166686E0
1.646372126E0,-7.230000496E-1,8.608050346E0,-7.120500207E-1,8.667656838E0
1.648333029E0,-6.850500107E-1,8.647050858E0,-7.510500550E-1,8.706598546E0
1.650293986E0,-6.850500107E-1,8.608050346E0,-9.420000315E-1,8.686494595E0
1.652254905E0,-6.469500065E-1,8.532000542E0,-9.810000658E-1,8.612545424E0
1.654215604E0,-6.079500318E-1,8.532000542E0,-1.096050024E0,8.623570150E0
1.656176368E0,-5.700000525E-1,8.493000031E0,-1.096050024E0,8.582381676E0
1.658137498E0,-5.700000525E-1,8.455050468E0,-1.134000063E0,8.549779800E0
1.660098520E0,-4.930500090E-1,8.455050468E0,-1.018950105E0,8.530488617E0
1.662059626E0,-4.930500090E-1,8.455050468E0,-1.018950105E0,8.530488617E0
1.664020693E0,-4.930500090E-1,8.377950668E0,-1.057050109E0,8.458753492E0
1.665981952E0,-6.079500318E-1,8.302050591E0,-1.171950102E0,8.406373433E0
1.667943155E0,-4.930500090E-1,7.879950523E0,-1.786050081E0,8.094855987E0
1.669904256E0,-2.629500031E-1,7.879950523E0,-1.555950046E0,8.036401153E0
1.671865387E0,-3.019500077E-1,8.071949959E0,-4.819500148E-1,8.091960564E0
1.673826464E0,-5.320500135E-1,8.187000275E0,-2.205000073E-2,8.204299904E0
1.675787550E0,-6.850500107E-1,8.148000717E0,-4.060500264E-1,8.186823916E0
1.677748625E0,-6.850500107E-1,8.071949959E0,-1.249050021E0,8.196694188E0
1.679709704E0,-5.320500135E-1,8.263050079E0,-8.659500480E-1,8.325319412E0
1.681670915E0,-6.850500107E-1,8.493000031E0,-5.209500194E-1,8.536494126E0
1.683632087E0,-7.620000243E-1,8.532000542E0,-6.739500165E-1,8.592431897E0
1.685592954E0,-6.850500107E-1,8.455050468E0,-8.269500136E-1,8.522970038E0
1.687553921E0,-6.469500065E-1,8.377950668E0,-1.018950105E0,8.464446883E0
1.689514701E0,-6.850500107E-1,8.340000153E0,-1.096050024E0,8.439562887E0
1.691475536E0,-6.469500065E-1,8.263050079E0,-1.171950102E0,8.370782996E0
1.693436653E0,-6.079500318E-1,8.148000717E0,-1.096050024E0,8.243836763E0
1.695397688E0,-6.469500065E-1,8.148000717E0,-1.171950102E0,8.257234830E0
1.697358758E0,-6.079500318E-1,8.032950401E0,-1.134000063E0,8.135345815E0
1.699319828E0,-6.079500318E-1,8.071949959E0,-9.810000658E-1,8.154038294E0
1.701281042E0,-6.850500107E-1,8.032950401E0,-9.810000658E-1,8.121572926E0
1.703242213E0,-6.850500107E-1,8.032950401E0,-9.040500522E-1,8.112637806E0
1.705203274E0,-7.230000496E-1,7.995000362E0,-1.018950105E0,8.092034304E0
1.707164368E0,-7.230000496E-1,8.032950401E0,-1.018950105E0,8.129531385E0
1.709125437E0,-7.999500632E-1,8.032950401E0,-1.018950105E0,8.136735928E0
1.711086548E0,-7.620000243E-1,8.032950401E0,-9.420000315E-1,8.123810697E0
1.713047215E0,-8.380500674E-1,8.032950401E0,-1.018950105E0,8.140569967E0
1.715008012E0,-7.999500632E-1,7.995000362E0,-1.057050109E0,8.104153616E0
1.716968641E0,-8.380500674E-1,8.032950401E0,-1.096050024E0,8.150579471E0
1.718929320E0,-8.770500422E-1,7.995000362E0,-1.171950102E0,8.127897306E0
1.720890084E0,-8.770500422E-1,7.995000362E0,-1.096050024E0,8.117300858E0
1.722850837E0,-9.150000215E-1,7.995000362E0,-1.096050024E0,8.121488871E0
1.724811744E0,-9.529500604E-1,7.995000362E0,-1.096050024E0,8.125851972E0
1.726772606E0,-1.030050039E0,7.995000362E0,-1.134000063E0,8.140453920E0
1.728733406E0,-1.030050039E0,7.995000362E0,-1.134000063E0,8.140453920E0
1.730694224E0,-1.030050039E0,7.995000362E0,-1.096050024E0,8.135254116E0
1.732655119E0,-9.919500351E-1,7.957050323E0,-1.096050024E0,8.093203345E0
1.734615991E0,-1.068000078E0,7.995000362E0,-1.210950017E0,8.156411889E0
1.736576609E0,-1.106999993E0,8.032950401E0,-1.210950017E0,8.198789001E0
1.738537301E0,-1.106999993E0,8.071949959E0,-1.249050021E0,8.242690767E0
1.740498217E0,-1.106999993E0,8.110050201E0,-1.249050021E0,8.280005387E0
1.742459068E0,-1.106999993E0,8.148000717E0,-1.326000094E0,8.329084039E0
1.744419708E0,-1.183050036E0,8.187000275E0,-1.402050018E0,8.390013417E0
1.746380397E0,-1.144950032E0,8.187000275E0,-1.402050018E0,8.384725895E0
1.748341134E0,-1.106999993E0,8.187000275E0,-1.402050018E0,8.379628079E0
1.750301856E0,-1.106999993E0,8.224950790E0,-1.479000092E0,8.429869854E0
1.752262634E0,-1.144950032E0,8.224950790E0,-1.479000092E0,8.434937306E0
1.754223395E0,-1.106999993E0,8.263050079E0,-1.516950130E0,8.473758511E0
1.756184160E0,-1.068000078E0,8.340000153E0,-1.594050050E0,8.557874869E0
1.758144928E0,-1.106999993E0,8.302050591E0,-1.594050050E0,8.525871718E0
1.760105697E0,-1.183050036E0,8.377950668E0,-1.671000123E0,8.624494548E0
1.762066466E0,-1.222050071E0,8.416950226E0,-1.747050047E0,8.682778435E0
1.764027281E0,-1.260000110E0,8.532000542E0,-1.786050081E0,8.807531346E0
1.765988082E0,-1.260000110E0,8.608050346E0,-1.939050078E0,8.913251160E0
1.767948796E0,-1.375050068E0,8.647050858E0,-1.900950074E0,8.959679816E0
1.769909540E0,-1.413000107E0,8.685000420E0,-1.977000117E0,9.018554821E0
1.771870313E0,-1.452000022E0,8.761950493E0,-2.053950071E0,9.115853849E0
1.773831077E0,-1.452000022E0,8.914950371E0,-2.169000149E0,9.289198341E0
1.775792072E0,-1.528050065E0,8.877000809E0,-2.245050192E0,9.283120743E0
1.777753000E0,-1.567050099E0,8.953050613E0,-2.322000027E0,9.381068459E0
1.779714234E0,-1.567050099E0,9.030000687E0,-2.359950066E0,9.463927447E0
1.781675381E0,-1.642950058E0,9.067950249E0,-2.398950100E0,9.522708028E0
1.783636131E0,-1.720050097E0,9.067950249E0,-2.398950100E0,9.536312475E0
1.785596998E0,-1.681950092E0,9.106050491E0,-2.398950100E0,9.565776144E0
1.787558065E0,-1.758000135E0,9.106050491E0,-2.437050104E0,9.589052781E0
1.789519073E0,-1.758000135E0,9.145050049E0,-2.359950066E0,9.606865732E0
1.791480042E0,-1.758000135E0,9.106050491E0,-2.437050104E0,9.589052781E0
1.793441012E0,-1.873050094E0,9.106050491E0,-2.398950100E0,9.601220432E0
1.795402242E0,-1.911000133E0,9.145050049E0,-2.437050104E0,9.655209739E0
1.797363395E0,-1.950000048E0,9.145050049E0,-2.398950100E0,9.653465811E0
1.799324280E0,-2.026050091E0,9.145050049E0,-2.398950100E0,9.669114797E0
1.801285243E0,-2.103000164E0,9.220950127E0,-2.437050104E0,9.766664945E0
1.803245979E0,-2.179949999E0,9.259950638E0,-2.437050104E0,9.820289254E0
1.805206781E0,-2.295000076E0,9.220950127E0,-2.437050104E0,9.809799172E0
1.807167410E0,-2.410050154E0,9.220950127E0,-2.322000027E0,9.809482510E0
1.809128089E0,-2.485950232E0,9.336000443E0,-2.284050226E0,9.927625006E0
1.811089053E0,-2.524950027E0,9.336000443E0,-2.169000149E0,9.911651656E0
1.813049933E0,-2.601000071E0,9.298050880E0,-2.130000114E0,9.887155912E0
1.815010829E0,-2.677950144E0,9.336000443E0,-2.092050076E0,9.935240045E0
1.816971745E0,-2.793000221E0,9.259950638E0,-2.014950037E0,9.879653825E0
1.818932669E0,-2.869950056E0,9.183000565E0,-1.977000117E0,9.822048776E0
1.820893591E0,-2.946000099E0,9.183000565E0,-1.824000120E0,9.814957585E0
1.822854830E0,-3.022950172E0,9.106050491E0,-1.786050081E0,9.759526535E0
1.824815976E0,-3.100050211E0,9.106050491E0,-1.747050047E0,9.776638007E0
1.826777028E0,-3.175950050E0,9.106050491E0,-1.594050050E0,9.774856001E0
1.828738118E0,-3.291000128E0,9.067950249E0,-1.555950046E0,9.771355285E0
1.830699057E0,-3.291000128E0,8.991000175E0,-1.516950130E0,9.693807492E0
1.832660041E0,-3.406050205E0,8.991000175E0,-1.402050018E0,9.716223876E0
1.834621088E0,-3.483000278E0,9.030000687E0,-1.479000092E0,9.790793870E0
1.836582116E0,-3.520950079E0,8.991000175E0,-1.441050053E0,9.762776187E0
1.838543052E0,-3.598050117E0,9.030000687E0,-1.441050053E0,9.826673003E0
1.840504026E0,-3.675000191E0,9.030000687E0,-1.402050018E0,9.849481360E0
1.842465120E0,-3.675000191E0,9.030000687E0,-1.402050018E0,9.849481360E0
1.844426178E0,-3.751050234E0,9.067950249E0,-1.402050018E0,9.912812105E0
1.846387258E0,-3.790050268E0,9.030000687E0,-1.441050053E0,9.898586702E0
1.848348332E0,-3.790050268E0,9.067950249E0,-1.441050053E0,9.933218411E0
1.850309530E0,-3.790050268E0,9.145050049E0,-1.479000092E0,1.000918891E1
1.852270702E0,-3.828000069E0,9.145050049E0,-1.555950046E0,1.003526310E1
1.854231628E0,-3.865950108E0,9.220950127E0,-1.671000123E0,1.013724484E1
1.856192627E0,-3.828000069E0,9.259950638E0,-1.671000123E0,1.015837151E1
1.858153852E0,-3.828000069E0,9.298050880E0,-1.747050047E0,1.020585707E1
1.860115010E0,-3.828000069E0,9.336000443E0,-1.786050081E0,1.024716857E1
1.862075889E0,-3.828000069E0,9.412950516E0,-1.861950040E0,1.033073472E1
1.864036853E0,-3.828000069E0,9.412950516E0,-1.939050078E0,1.034490875E1
1.865997769E0,-3.790050268E0,9.412950516E0,-2.130000114E0,1.036846271E1
1.867958699E0,-3.751050234E0,9.490050316E0,-2.169000149E0,1.043244911E1
1.869919665E0,-3.751050234E0,9.528000832E0,-2.245050192E0,1.048300663E1
1.871880621E0,-3.675000191E0,9.528000832E0,-2.398950100E0,1.049015671E1
1.873841718E0,-3.675000191E0,9.528000832E0,-2.514000177E0,1.051706343E1
1.875802774E0,-3.559950113E0,9.528000832E0,-2.551950216E0,1.048658641E1
1.877763855E0,-3.559950113E0,9.528000832E0,-2.551950216E0,1.048658641E1
1.879724928E0,-3.445050240E0,9.528000832E0,-2.629050016E0,1.046723817E1
1.881686141E0,-3.367950201E0,9.604950905E0,-2.704950094E0,1.053161552E1
1.883647313E0,-3.330000162E0,9.565950394E0,-2.704950094E0,1.048394310E1
1.885608370E0,-3.214950085E0,9.565950394E0,-2.667000055E0,1.043820867E1
1.887569464E0,-3.175950050E0,9.643050194E0,-2.629050016E0,1.048746775E1
1.889530177E0,-3.138000250E0,9.643050194E0,-2.704950094E0,1.049534266E1
1.891491002E0,-3.138000250E0,9.757950783E0,-2.629050016E0,1.058189742E1
1.893451762E0,-3.022950172E0,9.757950783E0,-2.590050220E0,1.053869970E1
1.895412541E0,-2.985000134E0,9.757950783E0,-2.551950216E0,1.051856830E1
1.897373371E0,-2.946000099E0,9.835050583E0,-2.398950100E0,1.054334378E1
1.899334173E0,-2.946000099E0,9.910950661E0,-2.284050226E0,1.058880281E1
1.901295072E0,-2.869950056E0,1.006500053E1,-2.284050226E0,1.071250365E1
1.903255942E0,-2.793000221E0,1.014105034E1,-2.053950071E0,1.071729738E1
1.905216874E0,-2.793000221E0,1.025595093E1,-1.939050078E0,1.080487366E1
1.907177788E0,-2.755050182E0,1.041000080E1,-1.861950040E0,1.092818723E1
1.909138599E0,-2.755050182E0,1.048605061E1,-1.708950043E0,1.097579469E1
1.911099426E0,-2.755050182E0,1.063995075E1,-1.555950046E0,1.110044297E1
1.913060185E0,-2.677950144E0,1.071600056E1,-1.555950046E0,1.115459840E1
1.915020964E0,-2.640000105E0,1.083105087E1,-1.516950130E0,1.125088447E1
1.916981911E0,-2.563050032E0,1.094595051E1,-1.402050018E0,1.132911304E1
1.918942808E0,-2.524950027E0,1.098495007E1,-1.402050018E0,1.135826769E1
1.920903542E0,-2.448000193E0,1.110000038E1,-1.287000060E0,1.143936548E1
1.922864334E0,-2.371050119E0,1.117605019E1,-1.210950017E0,1.148879351E1
1.924825054E0,-2.332950115E0,1.132905006E1,-1.134000063E0,1.162221957E1
1.926785795E0,-2.295000076E0,1.148295021E1,-1.018950105E0,1.175429412E1
1.928746749E0,-2.295000076E0,1.152105045E1,-1.210950017E0,1.180965829E1
1.930707640E0,-2.140950203E0,1.144395065E1,-1.210950017E0,1.170530112E1
1.932668389E0,-1.950000048E0,1.132905006E1,-1.134000063E0,1.155144284E1
1.934629180E0,-1.834950089E0,1.129095078E1,-9.420000315E-1,1.147780359E1
1.936589765E0,-1.720050097E0,1.129095078E1,-6.739500165E-1,1.144108170E1
1.938550411E0,-1.642950058E0,1.121400070E1,-5.590500236E-1,1.134749459E1
1.940511245E0,-1.567050099E0,1.121400070E1,-4.819500148E-1,1.133321374E1
1.942472024E0,-1.528050065E0,1.121400070E1,-3.289500177E-1,1.132240950E1
1.944432753E0,-1.452000022E0,1.125300026E1,-2.910000086E-1,1.135002202E1
1.946393493E0,-1.413000107E0,1.129095078E1,-2.140500098E-1,1.138103493E1
1.948354087E0,-1.336950064E0,1.132905006E1,-1.369500011E-1,1.140848658E1
1.950314724E0,-1.297950029E0,1.136805058E1,-2.205000073E-2,1.144192879E1
1.952275335E0,-1.222050071E0,1.144395065E1,1.500000060E-2,1.150902420E1
1.954235954E0,-1.260000110E0,1.148295021E1,-1.369500011E-1,1.155268372E1
1.956196603E0,-1.222050071E0,1.136805058E1,-7.890000343E-1,1.146073738E1
1.958157250E0,-9.529500604E-1,1.155900097E1,5.295000225E-2,1.159833699E1
1.960117320E0,-9.529500604E-1,1.186605072E1,8.200500607E-1,1.193246645E1
1.962077560E0,-9.150000215E-1,1.198095036E1,9.349500537E-1,1.205215865E1
1.964038599E0,-8.770500422E-1,1.213395023E1,8.200500607E-1,1.219321316E1
1.965999404E0,-7.999500632E-1,1.224900055E1,6.660000086E-1,1.229314811E1
1.967960288E0,-7.230000496E-1,1.240305042E1,6.280500293E-1,1.243996928E1
1.969921159E0,-6.079500318E-1,1.259400082E1,6.280500293E-1,1.262429826E1
1.971882091E0,-5.700000525E-1,1.270905018E1,8.200500607E-1,1.274822884E1
1.973843005E0,-4.549500346E-1,1.286295033E1,9.730500579E-1,1.290772238E1
1.975804155E0,-3.400500119E-1,1.301595020E1,1.126049995E0,1.306899316E1
1.977765236E0,-2.629500031E-1,1.320795059E1,1.318050027E0,1.327615748E1
1.979726268E0,-1.099500060E-1,1.336095047E1,1.395000100E0,1.343402813E1
1.981687315E0,4.200000316E-2,1.355205059E1,1.510050058E0,1.363598513E1
1.983648217E0,1.960500032E-1,1.370595074E1,1.585950017E0,1.379879555E1
1.985609161E0,3.870000243E-1,1.382100105E1,1.624950051E0,1.392157684E1
1.987571026E0,6.940500140E-1,1.397400093E1,1.740000129E0,1.409900734E1
1.989532621E0,8.850000501E-1,1.412700081E1,1.816050053E0,1.427071879E1
1.991493560E0,1.114950061E0,1.420395088E1,1.855050087E0,1.436789982E1
1.993454695E0,1.269000053E0,1.431900024E1,1.930950046E0,1.450423032E1
1.995415446E0,1.384050012E0,1.431900024E1,1.930950046E0,1.451474872E1
1.997376310E0,1.575000048E0,1.431900024E1,2.008050203E0,1.454464365E1
1.999337063E0,1.767000079E0,1.420395088E1,2.085000038E0,1.446449913E1
2.001297849E0,1.920000076E0,1.412700081E1,2.122950077E0,1.441407192E1
2.003258599E0,2.035050154E0,1.401195049E1,2.161050081E0,1.432292998E1
2.005219339E0,2.149950027E0,1.378200054E1,2.275950193E0,1.413314450E1
2.007180473E0,2.265000105E0,1.359105110E1,2.314950228E0,1.397161015E1
2.009141491E0,2.341950178E0,1.336095047E1,2.430000067E0,1.378058883E1
2.011102444E0,2.380050182E0,1.301595020E1,2.545050144E0,1.347430439E1
2.013063416E0,2.419050217E0,1.274805069E1,2.583000183E0,1.323013569E1
2.015024431E0,2.457000017E0,1.232595062E1,2.620950222E0,1.283881957E1
2.016985457E0,2.494950056E0,1.198095036E1,2.698050022E0,1.253185625E1
2.018946588E0,2.457000017E0,1.155900097E1,2.773950100E0,1.213845755E1
2.020907688E0,2.419050217E0,1.117605019E1,2.812950134E0,1.177576283E1
2.022868537E0,2.380050182E0,1.079295063E1,2.851050138E0,1.141406628E1
2.024829459E0,2.227050066E0,1.041000080E1,2.773950100E0,1.100103031E1
2.026790232E0,2.111999989E0,1.006500053E1,2.736000061E0,1.064192069E1
2.028751059E0,2.035050154E0,9.720000267E0,2.620950222E0,1.027079424E1
2.030711953E0,1.959000111E0,9.336000443E0,2.545050144E0,9.872986677E0
2.032672827E0,1.882050037E0,8.953050613E0,2.430000067E0,9.465945698E0
2.034633758E0,1.767000079E0,8.608050346E0,2.275950193E0,9.077486950E0
2.036594673E0,1.651950121E0,8.263050079E0,2.161050081E0,8.699257053E0
2.038555264E0,1.651950121E0,7.957050323E0,2.046000004E0,8.380316526E0
2.040515964E0,1.575000048E0,7.687950134E0,1.930950046E0,8.081693541E0
2.042476699E0,1.459950089E0,7.420050144E0,1.777950048E0,7.768507243E0
2.044437423E0,1.384050012E0,7.189950466E0,1.740000129E0,7.525860920E0
2.046398380E0,1.384050012E0,6.922050476E0,1.548000097E0,7.226802995E0
2.048359269E0,1.384050012E0,6.654000282E0,1.471050024E0,6.953797694E0
2.050320193E0,1.422000051E0,6.538950443E0,1.395000100E0,6.835640593E0
2.052281110E0,1.345050097E0,6.385050297E0,1.203000069E0,6.635151560E0
2.054241720E0,1.306950092E0,6.270000458E0,1.011000037E0,6.484068581E0
2.056202420E0,1.269000053E0,6.193950176E0,8.959500194E-1,6.385773748E0
2.058163561E0,1.230000019E0,6.117000103E0,8.200500607E-1,6.293097203E0
2.060124572E0,1.153950095E0,6.079050064E0,7.050000429E-1,6.227638041E0
2.062085481E0,1.077000022E0,6.117000103E0,5.899500251E-1,6.239043223E0
2.064046420E0,1.000050068E0,6.154950142E0,5.899500251E-1,6.263509593E0
2.066007160E0,8.470500112E-1,6.270000458E0,5.899500251E-1,6.354403237E0
2.067967959E0,7.699500322E-1,6.424050331E0,5.899500251E-1,6.496867456E0
2.069928857E0,6.940500140E-1,6.462000370E0,5.509500504E-1,6.522476536E0
2.071889726E0,6.169500351E-1,6.577050209E0,5.130000114E-1,6.625812087E0
2.073849608E0,5.410500169E-1,6.691950321E0,5.509500504E-1,6.736355111E0
2.075809790E0,4.260000288E-1,6.844950199E0,5.130000114E-1,6.877353289E0
2.077770614E0,3.109500110E-1,6.960000515E0,5.509500504E-1,6.988693944E0
2.079731249E0,3.109500110E-1,7.113000393E0,6.280500293E-1,7.147440894E0
2.081692087E0,1.570500135E-1,7.305000305E0,6.660000086E-1,7.336978273E0
2.083652865E0,1.189500093E-1,7.573050499E0,7.429500222E-1,7.610336241E0
2.085613794E0,8.100000024E-2,7.687950134E0,7.810500264E-1,7.727947814E0
2.087574692E0,4.050000105E-3,7.879950523E0,8.200500607E-1,7.922507100E0
2.089535619E0,-3.299999982E-2,8.032950401E0,8.580000401E-1,8.078709378E0
2.091496538E0,-2.250000089E-1,8.263050079E0,8.959500194E-1,8.314526328E0
2.093457462E0,-3.019500077E-1,8.493000031E0,9.730500579E-1,8.553890912E0
2.095418384E0,-2.629500031E-1,8.647050858E0,1.011000037E0,8.709922635E0
2.097379474E0,-3.019500077E-1,8.877000809E0,9.730500579E-1,8.935275238E0
2.099340524E0,-2.250000089E-1,9.030000687E0,9.730500579E-1,9.085062676E0
2.101301381E0,-3.019500077E-1,9.259950638E0,1.126049995E0,9.333051388E0
2.103262295E0,-3.780000210E-1,9.490050316E0,1.087950110E0,9.559684851E0
2.105223264E0,-5.320500135E-1,9.681000710E0,1.165050030E0,9.765356805E0
2.107184216E0,-6.079500318E-1,9.796050072E0,1.203000069E0,9.888347153E0
2.109145296E0,-5.700000525E-1,9.949950218E0,1.203000069E0,1.003860641E1
2.111106351E0,-5.320500135E-1,1.006500053E1,1.165050030E0,1.014616452E1
2.113067432E0,-5.320500135E-1,1.018005085E1,1.203000069E0,1.026468322E1
2.115028505E0,-5.700000525E-1,1.021800041E1,1.279950023E0,1.031361743E1
2.116989403E0,-4.930500090E-1,1.025595093E1,1.279950023E0,1.034726533E1
2.118950353E0,-4.170000255E-1,1.033305073E1,1.356000066E0,1.042998382E1
2.120911251E0,-3.780000210E-1,1.041000080E1,1.395000100E0,1.050985376E1
2.122872179E0,-3.780000210E-1,1.037100029E1,1.395000100E0,1.047122516E1
2.124833596E0,-2.250000089E-1,1.037100029E1,1.471050024E0,1.047722579E1
2.126794870E0,-2.629500031E-1,1.041000080E1,1.471050024E0,1.051671277E1
2.128756094E0,-1.870500147E-1,1.033305073E1,1.471050024E0,1.043891341E1
2.130717333E0,-7.200000435E-2,1.025595093E1,1.432950020E0,1.035582248E1
2.132678397E0,4.050000105E-3,1.018005085E1,1.395000100E0,1.027518744E1
2.134639502E0,8.100000024E-2,1.010295010E1,1.356000066E0,1.019386570E1
2.136600618E0,1.189500093E-1,1.002600002E1,1.432950020E0,1.012858190E1
2.138561731E0,2.340000123E-1,9.949950218E0,1.395000100E0,1.004998958E1
2.140522758E0,2.719500065E-1,9.873000145E0,1.356000066E0,9.969394407E0
2.142483810E0,3.109500110E-1,9.720000267E0,1.432950020E0,9.829976646E0
2.144444701E0,3.870000243E-1,9.681000710E0,1.356000066E0,9.783163084E0
2.146405646E0,4.639500082E-1,9.681000710E0,1.356000066E0,9.786509108E0
2.148367691E0,5.790000558E-1,9.528000832E0,1.356000066E0,9.641409497E0
2.150329413E0,6.940500140E-1,9.490050316E0,1.356000066E0,9.611529358E0
2.152290380E0,6.940500140E-1,9.451050758E0,1.471050024E0,9.589997603E0
2.154251569E0,8.470500112E-1,9.412950516E0,1.432950020E0,9.558999785E0
2.156212599E0,8.470500112E-1,9.336000443E0,1.471050024E0,9.489066664E0
2.158173695E0,8.850000501E-1,9.298050880E0,1.432950020E0,9.449355588E0
2.160134769E0,9.619500637E-1,9.220950127E0,1.395000100E0,9.375355697E0
2.162095849E0,1.000050068E0,9.220950127E0,1.395000100E0,9.379341483E0
2.164056880E0,9.619500637E-1,9.183000565E0,1.318050027E0,9.326848512E0
2.166017926E0,1.000050068E0,9.183000565E0,1.240950108E0,9.320276642E0
2.167979007E0,1.000050068E0,9.106050491E0,1.240950108E0,9.244469312E0
2.169940078E0,9.240000248E-1,9.106050491E0,1.203000069E0,9.231529709E0
2.171901022E0,9.619500637E-1,9.106050491E0,1.240950108E0,9.240425350E0
2.173862003E0,8.850000501E-1,9.067950249E0,1.203000069E0,9.190111858E0
2.175823050E0,8.850000501E-1,9.067950249E0,1.165050030E0,9.185221194E0
2.177784078E0,8.850000501E-1,8.914950371E0,1.126049995E0,9.029260977E0
2.179744858E0,8.850000501E-1,8.914950371E0,1.087950110E0,9.024588669E0
2.181705704E0,7.699500322E-1,8.877000809E0,1.087950110E0,8.976502763E0
2.183666955E0,7.320000529E-1,8.914950371E0,1.126049995E0,9.015550609E0
2.185628087E0,6.940500140E-1,8.877000809E0,1.203000069E0,8.984990704E0
2.187589334E0,6.169500351E-1,8.914950371E0,1.203000069E0,9.016882866E0
2.189550548E0,5.790000558E-1,8.953050613E0,1.203000069E0,9.052047587E0
2.191510570E0,5.410500169E-1,8.953050613E0,1.240950108E0,9.054822338E0
2.193470939E0,3.870000243E-1,8.953050613E0,1.240950108E0,9.046924421E0
2.195432271E0,2.340000123E-1,9.030000687E0,1.126049995E0,9.102947709E0
2.197393321E0,1.960500032E-1,8.991000175E0,1.203000069E0,9.073242470E0
2.199354269E0,3.490500152E-1,9.067950249E0,1.165050030E0,9.149147457E0
2.201315247E0,4.260000288E-1,9.067950249E0,1.126049995E0,9.147523508E0
2.203276180E0,3.109500110E-1,9.106050491E0,1.165050030E0,9.185542283E0
2.205237113E0,1.960500032E-1,9.106050491E0,1.203000069E0,9.187262940E0
2.207197854E0,1.960500032E-1,9.145050049E0,1.279950023E0,9.236268081E0
2.209158651E0,8.100000024E-2,9.145050049E0,1.279950023E0,9.234542406E0
2.211119910E0,1.189500093E-1,9.183000565E0,1.318050027E0,9.277871757E0
2.213081034E0,1.570500135E-1,9.220950127E0,1.395000100E0,9.327197394E0
2.215041923E0,4.200000316E-2,9.259950638E0,1.432950020E0,9.370261233E0
2.217002881E0,4.200000316E-2,9.298050880E0,1.471050024E0,9.413793197E0
2.218963663E0,8.100000024E-2,9.298050880E0,1.471050024E0,9.414047979E0
2.220924496E0,8.100000024E-2,9.259950638E0,1.432950020E0,9.370517199E0
2.222885389E0,4.050000105E-3,9.259950638E0,1.471050024E0,9.376070093E0
2.224846264E0,4.050000105E-3,9.336000443E0,1.432950020E0,9.445330403E0
2.226806855E0,4.050000105E-3,9.375000000E0,1.432950020E0,9.483880385E0
2.228767516E0,-7.200000435E-2,9.412950516E0,1.395000100E0,9.516031037E0
2.230728663E0,-3.299999982E-2,9.451050758E0,1.432950020E0,9.559121047E0
2.232689668E0,-1.099500060E-1,9.528000832E0,1.471050024E0,9.641518398E0
2.234650263E0,-7.200000435E-2,9.528000832E0,1.471050024E0,9.641160305E0
2.236610978E0,-1.099500060E-1,9.565950394E0,1.471050024E0,9.679022890E0
2.238571740E0,-1.099500060E-1,9.604950905E0,1.471050024E0,9.717569607E0
2.240532499E0,-1.099500060E-1,9.604950905E0,1.471050024E0,9.717569607E0
2.242493406E0,-1.870500147E-1,9.565950394E0,1.471050024E0,9.680205722E0
2.244454269E0,-1.099500060E-1,9.643050194E0,1.471050024E0,9.755229070E0
2.246415068E0,-1.870500147E-1,9.643050194E0,1.471050024E0,9.756402663E0
2.248375886E0,-1.870500147E-1,9.643050194E0,1.432950020E0,9.750730768E0
2.250336992E0,-1.480500102E-1,9.643050194E0,1.471050024E0,9.755732880E0
2.252298024E0,-2.250000089E-1,9.565950394E0,1.471050024E0,9.681013382E0
2.254259064E0,-1.870500147E-1,9.565950394E0,1.432950020E0,9.674489155E0
2.256220101E0,-3.019500077E-1,9.528000832E0,1.395000100E0,9.634313620E0
2.258181006E0,-3.019500077E-1,9.451050758E0,1.432950020E0,9.563831868E0
2.260141949E0,-2.629500031E-1,9.451050758E0,1.395000100E0,9.557066936E0
2.262102937E0,-3.400500119E-1,9.451050758E0,1.240950108E0,9.538236295E0
2.264063894E0,-4.170000255E-1,9.336000443E0,1.240950108E0,9.427340582E0
2.266024632E0,-4.549500346E-1,9.375000000E0,1.279950023E0,9.472902227E0
2.267985435E0,-5.320500135E-1,9.375000000E0,1.203000069E0,9.466832172E0
2.269946512E0,-5.700000525E-1,9.336000443E0,1.165050030E0,9.425664215E0
2.271907509E0,-6.079500318E-1,9.375000000E0,1.050000072E0,9.453186150E0
2.273868605E0,-6.469500065E-1,9.375000000E0,1.050000072E0,9.455774398E0
2.275829668E0,-6.850500107E-1,9.451050758E0,9.730500579E-1,9.525674799E0
2.277790568E0,-7.230000496E-1,9.451050758E0,8.580000401E-1,9.517418430E0
2.279751516E0,-7.999500632E-1,9.412950516E0,8.580000401E-1,9.485764154E0
2.281712435E0,-7.999500632E-1,9.451050758E0,7.810500264E-1,9.516949074E0
2.283673363E0,-8.770500422E-1,9.412950516E0,7.810500264E-1,9.485931337E0
2.285634150E0,-9.529500604E-1,9.451050758E0,7.429500222E-1,9.527982420E0
2.287594978E0,-9.919500351E-1,9.490050316E0,5.899500251E-1,9.559971804E0
2.289556052E0,-9.919500351E-1,9.451050758E0,5.899500251E-1,9.521258653E0
2.291517053E0,-1.068000078E0,9.412950516E0,5.509500504E-1,9.489352324E0
2.293477828E0,-1.106999993E0,9.451050758E0,5.509500504E-1,9.531597735E0
2.295438670E0,-1.222050071E0,9.451050758E0,5.509500504E-1,9.545643654E0
2.297399401E0,-1.260000110E0,9.375000000E0,5.899500251E-1,9.477671988E0
2.299360151E0,-1.336950064E0,9.336000443E0,4.750500321E-1,9.443199260E0
2.301321148E0,-1.375050068E0,9.336000443E0,5.130000114E-1,9.450652674E0
2.303282072E0,-1.489950061E0,9.259950638E0,4.750500321E-1,9.391076058E0
2.305243356E0,-1.413000107E0,9.183000565E0,3.600000143E-1,9.298046498E0
2.307204534E0,-1.452000022E0,9.106050491E0,3.600000143E-1,9.228112463E0
2.309165404E0,-1.452000022E0,9.067950249E0,3.979500234E-1,9.192083006E0
2.311126372E0,-1.489950061E0,8.953050613E0,3.220500052E-1,9.081893122E0
2.313088683E0,-1.489950061E0,8.914950371E0,3.220500052E-1,9.044335658E0
2.315050600E0,-1.567050099E0,8.914950371E0,2.449500114E-1,9.054942663E0
2.317011579E0,-1.605000019E0,8.914950371E0,1.300500035E-1,9.059209578E0
2.318972833E0,-1.642950058E0,8.914950371E0,1.300500035E-1,9.066010038E0
2.320933885E0,-1.605000019E0,8.877000809E0,9.195000678E-2,9.021398075E0
2.322894992E0,-1.605000019E0,8.838000298E0,5.295000225E-2,8.982709949E0
2.324856198E0,-1.642950058E0,8.838000298E0,-2.205000073E-2,8.989439379E0
2.326817375E0,-1.681950092E0,8.761950493E0,-1.759500057E-1,8.923659057E0
2.328778436E0,-1.642950058E0,8.685000420E0,-1.369500011E-1,8.840094597E0
2.330739531E0,-1.720050097E0,8.532000542E0,-9.900000691E-2,8.704217747E0
2.332700628E0,-1.795950055E0,8.493000031E0,-9.900000691E-2,8.681375877E0
2.334661708E0,-1.567050099E0,8.493000031E0,-2.140500098E-1,8.639011109E0
2.336622829E0,-1.567050099E0,8.377950668E0,-2.910000086E-1,8.528211091E0
2.338583937E0,-1.452000022E0,8.416950226E0,-3.670500219E-1,8.549156735E0
2.340544784E0,-1.413000107E0,8.340000153E0,-4.060500264E-1,8.468591882E0
2.342505708E0,-1.489950061E0,8.302050591E0,-3.289500177E-1,8.441102020E0
2.344466515E0,-1.452000022E0,8.302050591E0,-2.520000041E-1,8.431835629E0
2.346427343E0,-1.375050068E0,8.263050079E0,-2.140500098E-1,8.379413864E0
2.348388596E0,-1.260000110E0,8.224950790E0,-2.910000086E-1,8.325989238E0
2.350349725E0,-1.260000110E0,8.187000275E0,-2.140500098E-1,8.286156599E0
2.352310794E0,-1.375050068E0,8.187000275E0,-2.520000041E-1,8.305494578E0
2.354271881E0,-1.336950064E0,8.187000275E0,-2.140500098E-1,8.298206214E0
2.356233176E0,-1.183050036E0,8.187000275E0,-2.520000041E-1,8.275873663E0
2.358194413E0,-1.144950032E0,8.148000717E0,-2.910000086E-1,8.233195447E0
2.360155283E0,-1.183050036E0,8.110050201E0,-2.910000086E-1,8.201048876E0
2.362116261E0,-1.222050071E0,8.071949959E0,-2.520000041E-1,8.167820181E0
2.364077354E0,-1.260000110E0,8.071949959E0,-2.140500098E-1,8.172502299E0
2.366038413E0,-1.260000110E0,8.110050201E0,-1.369500011E-1,8.208487671E0
2.367999285E0,-1.144950032E0,8.187000275E0,-1.369500011E-1,8.267807410E0
2.369960232E0,-1.106999993E0,8.187000275E0,-2.140500098E-1,8.264274916E0
2.371921151E0,-1.106999993E0,8.224950790E0,-2.140500098E-1,8.301872192E0
2.373882078E0,-1.183050036E0,8.224950790E0,-1.759500057E-1,8.311460840E0
2.375843000E0,-1.260000110E0,8.263050079E0,-1.369500011E-1,8.359686130E0
2.377803924E0,-1.375050068E0,8.302050591E0,-6.105000153E-2,8.415374846E0
2.379764667E0,-1.260000110E0,8.377950668E0,-2.205000073E-2,8.472198291E0
2.381725463E0,-1.144950032E0,8.493000031E0,-1.369500011E-1,8.570922669E0
2.383686227E0,-1.222050071E0,8.532000542E0,-2.520000041E-1,8.622757310E0
2.385647001E0,-1.222050071E0,8.608050346E0,-1.759500057E-1,8.696142567E0
2.387607770E0,-1.183050036E0,8.608050346E0,-1.759500057E-1,8.690747756E0
2.389568540E0,-1.222050071E0,8.685000420E0,-2.140500098E-1,8.773166821E0
2.391529424E0,-1.297950029E0,8.761950493E0,-2.205000073E-2,8.857592050E0
2.393490288E0,-1.297950029E0,8.838000298E0,-6.105000153E-2,8.933009047E0
2.395451402E0,-1.260000110E0,8.914950371E0,-6.105000153E-2,9.003758520E0
2.397412442E0,-1.297950029E0,8.953050613E0,-6.105000153E-2,9.046851202E0
2.399373391E0,-1.260000110E0,9.067950249E0,-2.205000073E-2,9.155097388E0
2.401334367E0,-1.260000110E0,9.183000565E0,9.195000678E-2,9.269495911E0
2.403295430E0,-1.260000110E0,9.220950127E0,2.449500114E-1,9.309861547E0
2.405256457E0,-1.297950029E0,9.298050880E0,2.449500114E-1,9.391401651E0
2.407216687E0,-1.260000110E0,9.451050758E0,3.600000143E-1,9.541465334E0
2.409177151E0,-1.222050071E0,9.451050758E0,3.220500052E-1,9.535170844E0
2.411138873E0,-1.222050071E0,9.565950394E0,2.449500114E-1,9.646803295E0
2.413100226E0,-1.260000110E0,9.565950394E0,2.449500114E-1,9.651684191E0
2.415060355E0,-1.222050071E0,9.643050194E0,3.220500052E-1,9.725509736E0
2.417020843E0,-1.260000110E0,9.720000267E0,4.360500276E-1,9.811021613E0
2.418981975E0,-1.222050071E0,9.720000267E0,5.130000114E-1,9.809942945E0
2.420942918E0,-1.260000110E0,9.720000267E0,5.509500504E-1,9.816799449E0
2.422903524E0,-1.222050071E0,9.757950783E0,5.899500251E-1,9.851855200E0
2.424864228E0,-1.030050039E0,9.835050583E0,6.280500293E-1,9.908767324E0
2.426825342E0,-9.919500351E-1,9.796050072E0,6.660000086E-1,9.868643164E0
2.428786322E0,-1.030050039E0,9.835050583E0,7.050000429E-1,9.913942108E0
2.430747056E0,-9.529500604E-1,9.873000145E0,7.810500264E-1,9.949587169E0
2.432707863E0,-9.529500604E-1,9.796050072E0,8.959500194E-1,9.882987264E0
2.434668670E0,-9.150000215E-1,9.873000145E0,9.349500537E-1,9.959291566E0
2.436629477E0,-8.380500674E-1,9.796050072E0,1.011000037E0,9.883675733E0
2.438590429E0,-7.999500632E-1,9.835050583E0,1.011000037E0,9.919186516E0
2.440551332E0,-7.999500632E-1,9.796050072E0,1.050000072E0,9.884584830E0
2.442512439E0,-8.380500674E-1,9.757950783E0,1.011000037E0,9.845915522E0
2.444473486E0,-8.770500422E-1,9.720000267E0,1.050000072E0,9.815809804E0
2.446434568E0,-7.620000243E-1,9.720000267E0,1.203000069E0,9.823759891E0
2.448395640E0,-7.230000496E-1,9.643050194E0,1.087950110E0,9.731124373E0
2.450356669E0,-5.320500135E-1,9.604950905E0,8.959500194E-1,9.661308687E0
2.452317714E0,-4.930500090E-1,9.604950905E0,8.959500194E-1,9.659239444E0
2.454278436E0,-4.549500346E-1,9.565950394E0,9.349500537E-1,9.622292766E0
2.456239252E0,-4.170000255E-1,9.490050316E0,8.959500194E-1,9.541366278E0
2.458200059E0,-3.780000210E-1,9.528000832E0,9.349500537E-1,9.581222024E0
2.460160868E0,-3.780000210E-1,9.528000832E0,1.011000037E0,9.588941805E0
2.462121779E0,-3.019500077E-1,9.528000832E0,1.050000072E0,9.590436580E0
2.464082650E0,-3.400500119E-1,9.604950905E0,1.050000072E0,9.668154738E0
2.466043448E0,-3.019500077E-1,9.643050194E0,1.050000072E0,9.704745798E0
2.468004267E0,-2.629500031E-1,9.643050194E0,1.050000072E0,9.703610663E0
2.469965207E0,-2.629500031E-1,9.681000710E0,1.050000072E0,9.741325248E0
2.471926111E0,-3.019500077E-1,9.757950783E0,1.050000072E0,9.818924454E0
2.473886808E0,-3.780000210E-1,9.835050583E0,1.087950110E0,9.902259309E0
2.475847570E0,-3.400500119E-1,9.873000145E0,1.165050030E0,9.947316595E0
2.477808520E0,-4.170000255E-1,9.988050461E0,1.203000069E0,1.006887532E1
2.479769414E0,-3.780000210E-1,1.010295010E1,1.279950023E0,1.019071915E1
2.481730028E0,-4.170000255E-1,1.014105034E1,1.279950023E0,1.023000797E1
2.483690724E0,-4.930500090E-1,1.021800041E1,1.165050030E0,1.029601730E1
2.485651504E0,-5.320500135E-1,1.025595093E1,1.203000069E0,1.033996208E1
2.487612260E0,-5.320500135E-1,1.033305073E1,1.165050030E0,1.041212544E1
2.489573032E0,-6.850500107E-1,1.041000080E1,1.126049995E0,1.049311197E1
2.491533799E0,-7.230000496E-1,1.048605061E1,1.126049995E0,1.057109147E1
2.493494884E0,-8.380500674E-1,1.052505016E1,1.165050030E0,1.062244560E1
2.495455876E0,-9.150000215E-1,1.056300068E1,1.050000072E0,1.065442202E1
2.497416487E0,-1.030050039E0,1.067805004E1,1.011000037E0,1.077515090E1
2.499377199E0,-1.068000078E0,1.071600056E1,9.730500579E-1,1.081296067E1
2.501337932E0,-1.183050036E0,1.075500011E1,8.580000401E-1,1.085383798E1
2.503298659E0,-1.260000110E0,1.079295063E1,7.810500264E-1,1.089428395E1
2.505259435E0,-1.375050068E0,1.083105087E1,7.429500222E-1,1.094323537E1
2.507220197E0,-1.452000022E0,1.087005043E1,7.050000429E-1,1.098923680E1
2.509180648E0,-1.528050065E0,1.090800095E1,5.130000114E-1,1.102644959E1
2.511141194E0,-1.605000019E0,1.094595051E1,4.360500276E-1,1.107158513E1
2.513103037E0,-1.642950058E0,1.094595051E1,3.600000143E-1,1.107441725E1
2.515064500E0,-1.681950092E0,1.098495007E1,2.830500007E-1,1.111657327E1
2.517025197E0,-1.720050097E0,1.090800095E1,2.449500114E-1,1.104549942E1
2.518986118E0,-1.681950092E0,1.098495007E1,1.300500035E-1,1.111373011E1
2.520947161E0,-1.720050097E0,1.094595051E1,5.295000225E-2,1.108039749E1
2.522908178E0,-1.795950055E0,1.094595051E1,1.500000060E-2,1.109231690E1
2.524868771E0,-1.758000135E0,1.102305031E1,-2.205000073E-2,1.116237828E1
2.526829488E0,-1.758000135E0,1.098495007E1,-9.900000691E-2,1.112517386E1
2.528790400E0,-1.758000135E0,1.098495007E1,-1.369500011E-1,1.112557629E1
2.530751255E0,-1.642950058E0,1.102305031E1,-6.105000153E-2,1.114498318E1
2.532712025E0,-1.567050099E0,1.106100082E1,-9.900000691E-2,1.117189269E1
2.534672810E0,-1.567050099E0,1.102305031E1,-6.105000153E-2,1.113404739E1
2.536633936E0,-1.452000022E0,1.102305031E1,-2.205000073E-2,1.111829251E1
2.538594962E0,-1.452000022E0,1.102305031E1,1.500000060E-2,1.111828076E1
2.540556228E0,-1.336950064E0,1.102305031E1,1.500000060E-2,1.110384161E1
2.542517423E0,-1.297950029E0,1.102305031E1,9.195000678E-2,1.109958410E1
2.544478467E0,-1.222050071E0,1.102305031E1,9.195000678E-2,1.109096476E1
2.546439565E0,-1.144950032E0,1.098495007E1,1.680000126E-1,1.104573504E1
2.548400323E0,-1.068000078E0,1.102305031E1,2.449500114E-1,1.107737617E1
2.550361181E0,-9.919500351E-1,1.102305031E1,2.449500114E-1,1.107030277E1
2.552322114E0,-9.919500351E-1,1.102305031E1,2.830500007E-1,1.107121133E1
2.554283025E0,-7.999500632E-1,1.098495007E1,2.830500007E-1,1.101767513E1
2.556243955E0,-7.620000243E-1,1.102305031E1,2.070000172E-1,1.105129545E1
2.558204876E0,-6.850500107E-1,1.098495007E1,2.449500114E-1,1.100901549E1
2.560165620E0,-6.079500318E-1,1.098495007E1,2.449500114E-1,1.100448689E1
2.562126416E0,-5.700000525E-1,1.098495007E1,2.449500114E-1,1.100245557E1
2.564087315E0,-4.549500346E-1,1.102305031E1,1.680000126E-1,1.103371386E1
2.566048184E0,-3.780000210E-1,1.098495007E1,2.070000172E-1,1.099340079E1
2.568008577E0,-3.400500119E-1,1.098495007E1,2.830500007E-1,1.099385643E1
2.569969109E0,-3.019500077E-1,1.098495007E1,3.220500052E-1,1.099381726E1
2.571930143E0,-3.019500077E-1,1.106100082E1,3.600000143E-1,1.107097616E1
2.573891030E0,-3.019500077E-1,1.106100082E1,3.979500234E-1,1.107227516E1
2.575852095E0,-2.629500031E-1,1.110000038E1,4.750500321E-1,1.111327241E1
2.577813107E0,-2.629500031E-1,1.113795090E1,5.899500251E-1,1.115666321E1
2.579774089E0,-2.629500031E-1,1.117605019E1,6.280500293E-1,1.119677129E1
2.581735060E0,-2.629500031E-1,1.125300026E1,7.050000429E-1,1.127812851E1
2.583695930E0,-2.629500031E-1,1.132905006E1,8.580000401E-1,1.136453616E1
2.585656829E0,-3.019500077E-1,1.144395065E1,9.730500579E-1,1.148921263E1
2.587617935E0,-3.019500077E-1,1.148295021E1,1.165050030E0,1.154585038E1
2.589578981E0,-3.780000210E-1,1.148295021E1,1.240950108E0,1.155599354E1
2.591540243E0,-4.549500346E-1,1.159800053E1,1.318050027E0,1.168151752E1
2.593501442E0,-4.930500090E-1,1.167405033E1,1.395000100E0,1.176743705E1
2.595462544E0,-5.320500135E-1,1.171305084E1,1.510050058E0,1.182196635E1
2.597423675E0,-5.320500135E-1,1.175100040E1,1.585950017E0,1.186947030E1
2.599384698E0,-5.700000525E-1,1.171305084E1,1.663050056E0,1.184424736E1
2.601345752E0,-6.469500065E-1,1.171305084E1,1.893000126E0,1.188265769E1
2.603306887E0,-6.850500107E-1,1.167405033E1,2.161050081E0,1.189213530E1
2.605267991E0,-8.380500674E-1,1.175100040E1,2.314950228E0,1.200613730E1
2.607229198E0,-8.770500422E-1,1.175100040E1,2.506050110E0,1.204722020E1
2.609190375E0,-8.770500422E-1,1.175100040E1,2.659050226E0,1.207997415E1
2.611151256E0,-9.150000215E-1,1.175100040E1,2.928000212E0,1.214481045E1
2.613112224E0,-9.919500351E-1,1.178895092E1,3.196050167E0,1.225471604E1
2.615073004E0,-1.030050039E0,1.175100040E1,3.310950041E0,1.225191429E1
2.617033839E0,-9.919500351E-1,1.167405033E1,3.426000118E0,1.220675603E1
2.618995092E0,-9.150000215E-1,1.171305084E1,3.579000235E0,1.228177625E1
2.620956222E0,-8.770500422E-1,1.167405033E1,3.618000269E0,1.225326870E1
2.622917291E0,-8.770500422E-1,1.155900097E1,3.694050074E0,1.216658235E1
2.624878378E0,-7.620000243E-1,1.148295021E1,3.771000147E0,1.211029445E1
2.626839458E0,-6.850500107E-1,1.144395065E1,3.847950220E0,1.209297403E1
2.628800536E0,-5.700000525E-1,1.136805058E1,3.886050224E0,1.202742118E1
2.630761657E0,-4.170000255E-1,1.125300026E1,3.886050224E0,1.191240069E1
2.632722765E0,-3.400500119E-1,1.113795090E1,3.963000298E0,1.182687429E1
2.634684017E0,-1.870500147E-1,1.094595051E1,3.924000263E0,1.162955710E1
2.636645227E0,-1.099500060E-1,1.075500011E1,3.963000298E0,1.146243813E1
2.638606217E0,-7.200000435E-2,1.056300068E1,4.153950214E0,1.135065944E1
2.640567286E0,4.050000105E-3,1.041000080E1,4.231050014E0,1.123698880E1
2.642528363E0,8.100000024E-2,1.021800041E1,4.384050369E0,1.111908229E1
2.644489437E0,1.960500032E-1,1.002600002E1,4.498950005E0,1.099089001E1
2.646450560E0,2.719500065E-1,9.873000145E0,4.537950039E0,1.086936425E1
2.648411668E0,4.260000288E-1,9.681000710E0,4.461000443E0,1.066788525E1
2.650373437E0,6.940500140E-1,9.490050316E0,4.384050369E0,1.047676754E1
2.652335029E0,8.470500112E-1,9.336000443E0,4.423050404E0,1.036541233E1
2.654295298E0,8.850000501E-1,9.145050049E0,4.345950127E0,1.016378119E1
2.656255954E0,4.260000288E-1,8.877000809E0,4.192950249E0,9.826670401E0
2.658217823E0,6.940500140E-1,8.800050735E0,4.192950249E0,9.772585643E0
2.660179337E0,1.230000019E0,8.569950104E0,4.269000053E0,9.653046477E0
2.662140180E0,1.422000051E0,8.416950226E0,4.231050014E0,9.527272405E0
2.664101205E0,1.690050125E0,8.302050591E0,4.231050014E0,9.470063234E0
2.666062290E0,1.996950150E0,8.110050201E0,4.153950214E0,9.328238127E0
2.668023357E0,1.882050037E0,7.918050289E0,4.153950214E0,9.137446859E0
2.669984211E0,1.959000111E0,7.765050411E0,4.153950214E0,9.021584767E0
2.671945128E0,2.265000105E0,7.573050499E0,4.116000175E0,8.911945735E0
2.673906110E0,2.419050217E0,7.458000183E0,4.078050137E0,8.837650344E0
2.675867063E0,2.380050182E0,7.342950344E0,4.000950336E0,8.694317812E0
2.677828297E0,2.494950056E0,7.228050232E0,3.886050224E0,8.577346459E0
2.679789448E0,2.341950178E0,7.113000393E0,3.655950069E0,8.333395235E0
2.681750513E0,2.494950056E0,7.036950111E0,3.541050196E0,8.263321314E0
2.683711603E0,2.802000046E0,6.960000515E0,3.463950157E0,8.263882993E0
2.685672707E0,2.955000162E0,6.922050476E0,3.388050079E0,8.253828935E0
2.687633817E0,3.070050240E0,6.883050442E0,3.234000206E0,8.201240710E0
2.689595204E0,3.108000040E0,6.844950199E0,3.234000206E0,8.183627851E0
2.691556510E0,3.147000074E0,6.960000515E0,3.118950129E0,8.250640372E0
2.693517548E0,3.300000191E0,6.960000515E0,2.965950251E0,8.253997172E0
2.695478665E0,3.453000069E0,6.960000515E0,2.773950100E0,8.249825198E0
2.697439591E0,3.568050146E0,6.922050476E0,2.659050226E0,8.228992207E0
2.699400579E0,3.760050297E0,6.730050087E0,2.698050022E0,8.167681821E0
2.701361670E0,3.568050146E0,6.997950554E0,2.200050116E0,8.157359518E0
2.703322731E0,3.492000103E0,7.152000427E0,1.740000129E0,8.146948832E0
2.705283946E0,3.453000069E0,7.267050266E0,1.471050024E0,8.179071905E0
2.707245116E0,3.376950264E0,7.573050499E0,1.240950108E0,8.384202056E0
2.709206178E0,3.262050152E0,7.726950169E0,1.011000037E0,8.448008711E0
2.711167272E0,3.223050117E0,8.032950401E0,6.660000086E-1,8.681008019E0
2.713128390E0,3.184950113E0,8.340000153E0,4.750500321E-1,8.940088495E0
2.715089501E0,3.108000040E0,8.608050346E0,5.130000114E-1,9.166316819E0
2.717050707E0,2.917050123E0,8.914950371E0,5.509500504E-1,9.396226237E0
2.719011885E0,2.802000046E0,9.145050049E0,5.899500251E-1,9.582858951E0
2.720972810E0,2.649000168E0,9.412950516E0,6.660000086E-1,9.801244580E0
2.722933810E0,2.419050217E0,9.643050194E0,8.200500607E-1,9.975605400E0
2.724894899E0,2.149950027E0,9.873000145E0,9.349500537E-1,1.014753904E1
2.726855962E0,2.035050154E0,1.010295010E1,1.011000037E0,1.035534407E1
2.728816682E0,1.843950033E0,1.041000080E1,1.165050030E0,1.063605237E1
2.730777503E0,1.651950121E0,1.060095024E1,1.279950023E0,1.080496910E1
2.732738627E0,1.498950124E0,1.079295063E1,1.279950023E0,1.097145874E1
2.734699659E0,1.345050097E0,1.102305031E1,1.395000100E0,1.119208752E1
2.736660520E0,1.269000053E0,1.117605019E1,1.395000100E0,1.133404095E1
2.738621431E0,1.114950061E0,1.140600014E1,1.356000066E0,1.154030714E1
2.740582355E0,9.240000248E-1,1.163595009E1,1.471050024E0,1.176490963E1
2.742543275E0,6.550500393E-1,1.178895092E1,1.432950020E0,1.189377148E1
2.744503327E0,4.260000288E-1,1.182795048E1,1.471050024E0,1.192668758E1
2.746463613E0,1.960500032E-1,1.194300079E1,1.395000100E0,1.202579431E1
2.748424644E0,4.050000105E-3,1.201905060E1,1.318050027E0,1.209110622E1
2.750385457E0,-1.870500147E-1,1.205805016E1,1.395000100E0,1.213991707E1
2.752346399E0,-3.400500119E-1,1.209600067E1,1.240950108E0,1.216424364E1
2.754307303E0,-4.930500090E-1,1.213395023E1,1.087950110E0,1.219259948E1
2.756268576E0,-6.850500107E-1,1.224900055E1,8.959500194E-1,1.230081438E1
2.758229750E0,-8.380500674E-1,1.224900055E1,5.899500251E-1,1.229180147E1
2.760191712E0,-9.919500351E-1,1.232595062E1,3.600000143E-1,1.237103972E1
2.762153443E0,-1.106999993E0,1.232595062E1,2.070000172E-1,1.237729198E1
2.764114274E0,-1.260000110E0,1.232595062E1,1.680000126E-1,1.239132289E1
2.766075368E0,-1.336950064E0,1.228800011E1,2.449500114E-1,1.236294393E1
2.768035731E0,-1.489950061E0,1.224900055E1,3.600000143E-1,1.234453586E1
2.769996301E0,-1.642950058E0,1.217295074E1,5.130000114E-1,1.229403041E1
2.771957644E0,-1.720050097E0,1.213395023E1,7.810500264E-1,1.228012051E1
2.773918761E0,-1.911000133E0,1.201905060E1,6.660000086E-1,1.218823428E1
2.775880191E0,-2.026050091E0,1.190400028E1,4.360500276E-1,1.208305596E1
2.777841530E0,-2.065050125E0,1.182795048E1,3.979500234E-1,1.201345948E1
2.779803233E0,-2.179949999E0,1.167405033E1,3.600000143E-1,1.188129762E1
2.781764832E0,-2.371050119E0,1.159800053E1,2.449500114E-1,1.184041787E1
2.783725821E0,-2.410050154E0,1.140600014E1,2.070000172E-1,1.165967538E1
2.785686988E0,-2.524950027E0,1.136805058E1,1.680000126E-1,1.164629428E1
2.787647554E0,-2.601000071E0,1.129095078E1,1.300500035E-1,1.158739331E1
2.789608296E0,-2.716050148E0,1.129095078E1,2.070000172E-1,1.161487610E1
2.791569369E0,-2.716050148E0,1.121400070E1,2.070000172E-1,1.154008618E1
2.793530356E0,-2.716050148E0,1.125300026E1,2.070000172E-1,1.157798740E1
2.795491089E0,-2.677950144E0,1.117605019E1,2.070000172E-1,1.149427526E1
2.797451896E0,-2.677950144E0,1.110000038E1,2.070000172E-1,1.142034476E1
2.799412703E0,-2.677950144E0,1.110000038E1,1.680000126E-1,1.141970444E1
2.801373510E0,-2.640000105E0,1.098495007E1,5.295000225E-2,1.129785520E1
2.803334394E0,-2.640000105E0,1.094595051E1,-2.205000073E-2,1.125983656E1
2.805295265E0,-2.563050032E0,1.090800095E1,-2.205000073E-2,1.120509689E1
2.807256063E0,-2.485950232E0,1.083105087E1,5.295000225E-2,1.111280411E1
2.809216882E0,-2.371050119E0,1.075500011E1,9.195000678E-2,1.101364431E1
2.811177643E0,-2.295000076E0,1.063995075E1,1.300500035E-1,1.088542559E1
2.813138421E0,-2.218050003E0,1.052505016E1,5.295000225E-2,1.075635768E1
2.815099299E0,-2.140950203E0,1.044795036E1,-2.205000073E-2,1.066507481E1
2.817060164E0,-2.026050091E0,1.029495049E1,-2.205000073E-2,1.049244350E1
2.819020918E0,-1.987950087E0,1.021800041E1,-9.900000691E-2,1.041005663E1
2.820981705E0,-1.911000133E0,1.006500053E1,-9.900000691E-2,1.024528956E1
2.822942515E0,-1.720050097E0,9.949950218E0,1.500000060E-2,1.009753963E1
2.824903318E0,-1.605000019E0,9.873000145E0,-2.205000073E-2,1.000263181E1
2.826863921E0,-1.489950061E0,9.720000267E0,-1.759500057E-1,9.835106241E0
2.828824570E0,-1.336950064E0,9.565950394E0,-2.140500098E-1,9.661297005E0
2.830785359E0,-1.222050071E0,9.451050758E0,-2.520000041E-1,9.533061985E0
2.832746106E0,-1.106999993E0,9.336000443E0,-3.289500177E-1,9.407154796E0
2.834707014E0,-1.030050039E0,9.298050880E0,-2.520000041E-1,9.358325559E0
2.836667875E0,-9.150000215E-1,9.220950127E0,-4.060500264E-1,9.275129266E0
2.838628704E0,-8.380500674E-1,9.183000565E0,-4.819500148E-1,9.233748053E0
2.840589522E0,-6.850500107E-1,9.106050491E0,-4.440000355E-1,9.142569940E0
2.842549922E0,-6.850500107E-1,9.067950249E0,-3.289500177E-1,9.099737543E0
2.844510445E0,-6.079500318E-1,9.030000687E0,-2.910000086E-1,9.055119913E0
2.846471390E0,-5.320500135E-1,8.914950371E0,-2.520000041E-1,8.934367428E0
2.848432212E0,-4.930500090E-1,8.877000809E0,-4.060500264E-1,8.899950466E0
2.850392950E0,-5.700000525E-1,8.914950371E0,-5.209500194E-1,8.948331079E0
2.852353729E0,-4.549500346E-1,8.877000809E0,-4.819500148E-1,8.901707629E0
2.854314496E0,-4.170000255E-1,8.838000298E0,-4.440000355E-1,8.858965759E0
2.856275267E0,-3.780000210E-1,8.800050735E0,-5.590500236E-1,8.825888844E0
2.858236215E0,-3.019500077E-1,8.761950493E0,-6.739500165E-1,8.793017620E0
2.860197111E0,-1.870500147E-1,8.838000298E0,-4.819500148E-1,8.853107521E0
2.862157826E0,-3.019500077E-1,8.838000298E0,-3.670500219E-1,8.850771084E0
2.864118618E0,-2.629500031E-1,8.761950493E0,-6.360000372E-1,8.788937091E0
2.866079607E0,-1.099500060E-1,8.761950493E0,-5.590500236E-1,8.780455704E0
2.868040539E0,-7.200000435E-2,8.761950493E0,-4.440000355E-1,8.773488273E0
2.870001236E0,-7.200000435E-2,8.838000298E0,-3.289500177E-1,8.844413003E0
2.871962002E0,-7.200000435E-2,8.838000298E0,-3.289500177E-1,8.844413003E0
2.873923026E0,-1.099500060E-1,8.761950493E0,-3.289500177E-1,8.768812551E0
2.875883953E0,-3.299999982E-2,8.722949982E0,-4.819500148E-1,8.736316226E0
2.877845010E0,4.050000105E-3,8.722949982E0,-5.209500194E-1,8.738493103E0
2.879806029E0,-1.099500060E-1,8.647050858E0,-6.739500165E-1,8.673971764E0
2.881766982E0,-1.099500060E-1,8.608050346E0,-7.510500550E-1,8.641452190E0
2.883727955E0,-1.099500060E-1,8.569950104E0,-6.739500165E-1,8.597112446E0
2.885689003E0,-1.870500147E-1,8.569950104E0,-6.739500165E-1,8.598444110E0
2.887650029E0,-1.099500060E-1,8.532000542E0,-5.590500236E-1,8.551003402E0
2.889610801E0,-1.099500060E-1,8.532000542E0,-5.970000029E-1,8.553568334E0
2.891571647E0,-2.250000089E-1,8.493000031E0,-4.819500148E-1,8.509638673E0
2.893532582E0,-1.870500147E-1,8.455050468E0,-5.970000029E-1,8.478164609E0
2.895493491E0,-2.629500031E-1,8.493000031E0,-5.209500194E-1,8.513024207E0
2.897454581E0,-3.400500119E-1,8.455050468E0,-5.590500236E-1,8.480333093E0
2.899415597E0,-3.780000210E-1,8.493000031E0,-4.819500148E-1,8.515057801E0
2.901376325E0,-4.170000255E-1,8.532000542E0,-4.819500148E-1,8.555769871E0
2.903337137E0,-4.930500090E-1,8.493000031E0,-4.819500148E-1,8.520940303E0
2.905298258E0,-5.320500135E-1,8.455050468E0,-5.209500194E-1,8.487776185E0
2.907259289E0,-6.079500318E-1,8.493000031E0,-4.060500264E-1,8.524407861E0
2.909220074E0,-6.850500107E-1,8.493000031E0,-5.590500236E-1,8.538903909E0
2.911180921E0,-6.850500107E-1,8.493000031E0,-4.819500148E-1,8.534202883E0
2.913141856E0,-7.230000496E-1,8.493000031E0,-4.060500264E-1,8.533384745E0
2.915102765E0,-7.999500632E-1,8.455050468E0,-4.440000355E-1,8.504406773E0
2.917063646E0,-7.999500632E-1,8.532000542E0,-4.060500264E-1,8.579034326E0
2.919024536E0,-9.150000215E-1,8.608050346E0,-5.590500236E-1,8.674577381E0
2.920985663E0,-8.770500422E-1,8.532000542E0,-5.970000029E-1,8.597712430E0
2.922946707E0,-9.150000215E-1,8.455050468E0,-4.819500148E-1,8.518061944E0
2.924907475E0,-9.529500604E-1,8.532000542E0,-4.819500148E-1,8.598570979E0
2.926868324E0,-9.919500351E-1,8.532000542E0,-5.209500194E-1,8.605253456E0
2.928829259E0,-1.068000078E0,8.532000542E0,-5.209500194E-1,8.614351185E0
2.930790168E0,-1.068000078E0,8.532000542E0,-5.590500236E-1,8.616739194E0
2.932751215E0,-1.106999993E0,8.416950226E0,-5.209500194E-1,8.505403518E0
2.934712231E0,-1.260000110E0,8.416950226E0,-6.360000372E-1,8.534468198E0
2.936673140E0,-1.297950029E0,8.302050591E0,-7.890000343E-1,8.439860149E0
2.938634080E0,-1.375050068E0,8.224950790E0,-9.040500522E-1,8.387960699E0
2.940595179E0,-1.336950064E0,8.187000275E0,-6.739500165E-1,8.322777036E0
2.942556231E0,-1.375050068E0,8.224950790E0,-5.970000029E-1,8.360441806E0
2.944517007E0,-1.452000022E0,8.187000275E0,-6.360000372E-1,8.339051122E0
2.946477858E0,-1.528050065E0,8.071949959E0,-7.510500550E-1,8.249569039E0
2.948439153E0,-1.528050065E0,7.957050323E0,-7.510500550E-1,8.137177830E0
2.950400317E0,-1.605000019E0,7.842000484E0,-8.659500480E-1,8.051264879E0
2.952361380E0,-1.642950058E0,7.803000450E0,-9.040500522E-1,8.025173357E0
2.954322473E0,-1.642950058E0,7.765050411E0,-9.040500522E-1,7.988278868E0
2.956283149E0,-1.605000019E0,7.650000572E0,-9.420000315E-1,7.873112337E0
2.958243974E0,-1.567050099E0,7.612050533E0,-9.810000658E-1,7.833346696E0
2.960204868E0,-1.567050099E0,7.534950256E0,-9.420000315E-1,7.753611122E0
2.962165741E0,-1.567050099E0,7.497000217E0,-9.420000315E-1,7.716736508E0
2.964126493E0,-1.605000019E0,7.458000183E0,-1.018950105E0,7.696496028E0
2.966087281E0,-1.567050099E0,7.342950344E0,-1.057050109E0,7.582342692E0
2.968048232E0,-1.605000019E0,7.305000305E0,-1.057050109E0,7.553569319E0
2.970009131E0,-1.605000019E0,7.305000305E0,-1.171950102E0,7.570503389E0
2.971970103E0,-1.605000019E0,7.189950466E0,-1.171950102E0,7.459549571E0
2.973931054E0,-1.605000019E0,7.113000393E0,-1.171950102E0,7.385409040E0
2.975891928E0,-1.681950092E0,7.036950111E0,-1.134000063E0,7.323495008E0
2.977852825E0,-1.605000019E0,6.997950554E0,-1.096050024E0,7.262827457E0
2.979813951E0,-1.528050065E0,7.036950111E0,-1.134000063E0,7.289688609E0
2.981774996E0,-1.567050099E0,6.997950554E0,-1.171950102E0,7.266390095E0
2.983735583E0,-1.489950061E0,6.997950554E0,-1.096050024E0,7.238272501E0
2.985696305E0,-1.375050068E0,6.997950554E0,-1.134000063E0,7.221359345E0
2.987657217E0,-1.297950029E0,7.075050354E0,-1.249050021E0,7.300762819E0
2.989618073E0,-1.222050071E0,7.189950466E0,-1.210950017E0,7.392915124E0
2.991578998E0,-1.183050036E0,7.342950344E0,-1.171950102E0,7.529408621E0
2.993539909E0,-1.260000110E0,7.458000183E0,-1.210950017E0,7.660010898E0
2.995500879E0,-1.260000110E0,7.497000217E0,-1.210950017E0,7.697987560E0
2.997461832E0,-1.297950029E0,7.573050499E0,-1.249050021E0,7.784336458E0
2.999422751E0,-1.336950064E0,7.650000572E0,-1.171950102E0,7.853878740E0
3.001383680E0,-1.375050068E0,7.687950134E0,-1.210950017E0,7.903273999E0
3.003344765E0,-1.336950064E0,7.687950134E0,-1.171950102E0,7.890847849E0
3.005305784E0,-1.375050068E0,7.726950169E0,-1.210950017E0,7.941216629E0
3.007266512E0,-1.336950064E0,7.726950169E0,-1.171950102E0,7.928849943E0
3.009227325E0,-1.336950064E0,7.726950169E0,-1.249050021E0,7.940612088E0
3.011188131E0,-1.297950029E0,7.650000572E0,-1.249050021E0,7.859218090E0
3.013148940E0,-1.336950064E0,7.650000572E0,-1.249050021E0,7.865752995E0
3.015109337E0,-1.413000107E0,7.726950169E0,-1.287000060E0,7.959817672E0
3.017069858E0,-1.413000107E0,7.803000450E0,-1.249050021E0,8.027671598E0
3.019030849E0,-1.452000022E0,7.842000484E0,-1.287000060E0,8.078467975E0
3.020991702E0,-1.452000022E0,7.803000450E0,-1.326000094E0,8.046949505E0
3.022952637E0,-1.489950061E0,7.842000484E0,-1.326000094E0,8.091674674E0
3.024913548E0,-1.528050065E0,7.842000484E0,-1.402050018E0,8.111575239E0
3.026874289E0,-1.567050099E0,7.842000484E0,-1.402050018E0,8.119012370E0
3.028835084E0,-1.489950061E0,7.879950523E0,-1.479000092E0,8.154815308E0
3.030795803E0,-1.528050065E0,7.842000484E0,-1.516950130E0,8.132222716E0
3.032756545E0,-1.642950058E0,7.879950523E0,-1.479000092E0,8.184152150E0
3.034717363E0,-1.567050099E0,7.879950523E0,-1.555950046E0,8.183535105E0
3.036678159E0,-1.605000019E0,7.803000450E0,-1.594050050E0,8.124274531E0
3.038639083E0,-1.605000019E0,7.842000484E0,-1.594050050E0,8.161739534E0
3.040599952E0,-1.605000019E0,7.842000484E0,-1.632000089E0,8.169236252E0
3.042560884E0,-1.720050097E0,7.765050411E0,-1.632000089E0,8.118990363E0
3.044521798E0,-1.720050097E0,7.803000450E0,-1.747050047E0,8.179093607E0
3.046482544E0,-1.720050097E0,7.765050411E0,-1.671000123E0,8.126919566E0
3.048443339E0,-1.681950092E0,7.765050411E0,-1.632000089E0,8.111004148E0
3.050404303E0,-1.720050097E0,7.726950169E0,-1.594050050E0,8.074981536E0
3.052365203E0,-1.720050097E0,7.765050411E0,-1.594050050E0,8.111447207E0
3.054326175E0,-1.758000135E0,7.842000484E0,-1.632000089E0,8.200668288E0
3.056287126E0,-1.795950055E0,7.842000484E0,-1.555950046E0,8.194106952E0
3.058248045E0,-1.795950055E0,7.879950523E0,-1.555950046E0,8.230433609E0
3.060208974E0,-1.834950089E0,7.995000362E0,-1.594050050E0,8.356319057E0
3.062170206E0,-1.873050094E0,8.071949959E0,-1.555950046E0,8.431232018E0
3.064131352E0,-1.950000048E0,8.148000717E0,-1.555950046E0,8.521349448E0
3.066091877E0,-1.950000048E0,8.302050591E0,-1.632000089E0,8.682739688E0
3.068052584E0,-2.026050091E0,8.340000153E0,-1.632000089E0,8.736355407E0
3.070013723E0,-2.026050091E0,8.532000542E0,-1.708950043E0,8.934227581E0
3.071974736E0,-2.103000164E0,8.685000420E0,-1.747050047E0,9.105164790E0
3.073936064E0,-2.103000164E0,8.877000809E0,-1.861950040E0,9.310779291E0
3.075897289E0,-2.218050003E0,8.991000175E0,-1.900950074E0,9.453646976E0
3.077858342E0,-2.256000042E0,9.183000565E0,-1.900950074E0,9.645239590E0
3.079819445E0,-2.332950115E0,9.336000443E0,-2.014950037E0,9.831764041E0
3.081780157E0,-2.332950115E0,9.490050316E0,-1.977000117E0,9.970568725E0
3.083740983E0,-2.410050154E0,9.604950905E0,-1.939050078E0,1.009075512E1
3.085702014E0,-2.371050119E0,9.720000267E0,-1.939050078E0,1.019118242E1
3.087663015E0,-2.410050154E0,9.873000145E0,-1.861950040E0,1.033205360E1
3.089623745E0,-2.371050119E0,9.988050461E0,-1.900950074E0,1.044014568E1
3.091584555E0,-2.371050119E0,1.014105034E1,-1.900950074E0,1.058661380E1
3.093545317E0,-2.295000076E0,1.018005085E1,-1.824000120E0,1.059374519E1
3.095506094E0,-2.295000076E0,1.029495049E1,-1.824000120E0,1.070420512E1
3.097466877E0,-2.256000042E0,1.037100029E1,-1.786050081E0,1.076276721E1
3.099427678E0,-2.256000042E0,1.041000080E1,-1.786050081E0,1.080035313E1
3.101388623E0,-2.218050003E0,1.048605061E1,-1.824000120E0,1.087216536E1
3.103349525E0,-2.218050003E0,1.060095024E1,-1.824000120E0,1.098302637E1
3.105310408E0,-2.218050003E0,1.060095024E1,-1.861950040E0,1.098939260E1
3.107271296E0,-2.179949999E0,1.063995075E1,-1.824000120E0,1.101306998E1
3.109232085E0,-2.140950203E0,1.063995075E1,-1.786050081E0,1.099919064E1
3.111192906E0,-2.179949999E0,1.063995075E1,-1.671000123E0,1.098876587E1
3.113153981E0,-2.179949999E0,1.071600056E1,-1.632000089E0,1.105659415E1
3.115114981E0,-2.179949999E0,1.063995075E1,-1.594050050E0,1.097732798E1
3.117075937E0,-2.295000076E0,1.067805004E1,-1.594050050E0,1.103760724E1
3.119036906E0,-2.295000076E0,1.060095024E1,-1.441050053E0,1.094183699E1
3.120997955E0,-2.332950115E0,1.063995075E1,-1.441050053E0,1.098762183E1
3.122958981E0,-2.371050119E0,1.056300068E1,-1.479000092E0,1.092640395E1
3.124919708E0,-2.448000193E0,1.056300068E1,-1.441050053E0,1.093829573E1
3.126880522E0,-2.448000193E0,1.052505016E1,-1.441050053E0,1.090165176E1
3.128841463E0,-2.485950232E0,1.048605061E1,-1.479000092E0,1.087771332E1
3.130802366E0,-2.448000193E0,1.044795036E1,-1.516950130E0,1.083759703E1
3.132763177E0,-2.448000193E0,1.044795036E1,-1.594050050E0,1.084865740E1
3.134724002E0,-2.448000193E0,1.041000080E1,-1.594050050E0,1.081211437E1
3.136684762E0,-2.485950232E0,1.037100029E1,-1.708950043E0,1.080083820E1
3.138645541E0,-2.448000193E0,1.033305073E1,-1.708950043E0,1.075570326E1
3.140606443E0,-2.485950232E0,1.037100029E1,-1.786050081E0,1.081330525E1
3.142567308E0,-2.485950232E0,1.033305073E1,-1.786050081E0,1.077691332E1
3.144528222E0,-2.448000193E0,1.033305073E1,-1.747050047E0,1.076182262E1
3.146489135E0,-2.485950232E0,1.029495049E1,-1.900950074E0,1.076009132E1
3.148450105E0,-2.485950232E0,1.037100029E1,-2.014950037E0,1.085346116E1
3.150411058E0,-2.448000193E0,1.041000080E1,-2.092050076E0,1.089667358E1
3.152371932E0,-2.448000193E0,1.044795036E1,-2.245050192E0,1.096323958E1
3.154332829E0,-2.485950232E0,1.048605061E1,-2.322000027E0,1.102401424E1
3.156293381E0,-2.524950027E0,1.052505016E1,-2.359950066E0,1.107796994E1
3.158254045E0,-2.485950232E0,1.052505016E1,-2.475000143E0,1.109424424E1
3.160214877E0,-2.485950232E0,1.063995075E1,-2.551950216E0,1.122055928E1
3.162175659E0,-2.448000193E0,1.067805004E1,-2.629050016E0,1.126611564E1
3.164136561E0,-2.448000193E0,1.071600056E1,-2.590050220E0,1.129308342E1
3.166097428E0,-2.410050154E0,1.079295063E1,-2.551950216E0,1.134938655E1
3.168058361E0,-2.448000193E0,1.090800095E1,-2.514000177E0,1.145850717E1
3.170019274E0,-2.524950027E0,1.094595051E1,-2.437050104E0,1.149471263E1
3.171980199E0,-2.524950027E0,1.102305031E1,-2.284050226E0,1.153689283E1
3.173941120E0,-2.485950232E0,1.110000038E1,-2.206950188E0,1.158708704E1
3.175901909E0,-2.485950232E0,1.121400070E1,-2.092050076E0,1.167520594E1
3.177862737E0,-2.485950232E0,1.129095078E1,-1.939050078E0,1.172285943E1
3.179823650E0,-2.563050032E0,1.136805058E1,-1.786050081E0,1.178947727E1
3.181784524E0,-2.563050032E0,1.140600014E1,-1.786050081E0,1.182607456E1
3.183745455E0,-2.563050032E0,1.155900097E1,-1.671000123E0,1.195708870E1
3.185706370E0,-2.601000071E0,1.163595009E1,-1.555950046E0,1.202420544E1
3.187667475E0,-2.601000071E0,1.171305084E1,-1.479000092E0,1.208917709E1
3.189628524E0,-2.485950232E0,1.175100040E1,-1.479000092E0,1.210179327E1
3.191589477E0,-2.485950232E0,1.178895092E1,-1.479000092E0,1.213864711E1
3.193550454E0,-2.410050154E0,1.182795048E1,-1.441050053E0,1.215670101E1
3.195511502E0,-2.295000076E0,1.190400028E1,-1.402050018E0,1.220401542E1
3.197472529E0,-2.256000042E0,1.190400028E1,-1.287000060E0,1.218405220E1
3.199433795E0,-2.179949999E0,1.190400028E1,-1.171950102E0,1.215857195E1
3.201394990E0,-2.103000164E0,1.190400028E1,-1.096050024E0,1.213792231E1
3.203356067E0,-2.140950203E0,1.190400028E1,-1.057050109E0,1.214109737E1
3.205317165E0,-2.026050091E0,1.190400028E1,-9.420000315E-1,1.211187292E1
3.207278282E0,-1.987950087E0,1.190400028E1,-8.659500480E-1,1.209987759E1
3.209239394E0,-1.911000133E0,1.186605072E1,-7.510500550E-1,1.204239002E1
3.211200466E0,-1.873050094E0,1.186605072E1,-5.590500236E-1,1.202597245E1
3.213161550E0,-1.834950089E0,1.186605072E1,-4.440000355E-1,1.201529598E1
3.215122366E0,-1.795950055E0,1.186605072E1,-4.440000355E-1,1.200940183E1
3.217083285E0,-1.681950092E0,1.190400028E1,-3.289500177E-1,1.202673634E1
3.219044208E0,-1.642950058E0,1.190400028E1,-2.140500098E-1,1.201874890E1
3.221005129E0,-1.605000019E0,1.198095036E1,-9.900000691E-2,1.208838275E1
3.222966098E0,-1.567050099E0,1.198095036E1,-2.140500098E-1,1.208489284E1
3.224927052E0,-1.528050065E0,1.205805016E1,-1.369500011E-1,1.215525672E1
3.226887957E0,-1.489950061E0,1.209600067E1,-6.105000153E-2,1.218757197E1
3.228848886E0,-1.452000022E0,1.213395023E1,5.295000225E-2,1.222063239E1
3.230809763E0,-1.413000107E0,1.213395023E1,1.500000060E-2,1.221595443E1
3.232770656E0,-1.375050068E0,1.221105099E1,5.295000225E-2,1.228834133E1
3.234731628E0,-1.336950064E0,1.221105099E1,1.680000126E-1,1.228517097E1
3.236692577E0,-1.297950029E0,1.224900055E1,1.300500035E-1,1.231826294E1
3.238653482E0,-1.297950029E0,1.228800011E1,2.449500114E-1,1.235878721E1
3.240614410E0,-1.260000110E0,1.236405087E1,2.449500114E-1,1.243050098E1
3.242574566E0,-1.144950032E0,1.244100094E1,2.449500114E-1,1.249597597E1
3.244534948E0,-1.068000078E0,1.240305042E1,3.600000143E-1,1.245415127E1
3.246495963E0,-8.770500422E-1,1.240305042E1,3.979500234E-1,1.244038749E1
3.248456793E0,-7.999500632E-1,1.240305042E1,5.509500504E-1,1.244102592E1
3.250417539E0,-7.230000496E-1,1.236405087E1,5.899500251E-1,1.239921465E1
3.252378319E0,-6.079500318E-1,1.232595062E1,5.899500251E-1,1.235502744E1
3.254338951E0,-4.549500346E-1,1.236405087E1,6.660000086E-1,1.239033048E1
3.256299627E0,-3.019500077E-1,1.232595062E1,7.810500264E-1,1.235436246E1
3.258260727E0,-1.099500060E-1,1.228800011E1,8.200500607E-1,1.231582388E1
3.260221702E0,4.050000105E-3,1.224900055E1,8.200500607E-1,1.227642102E1
3.262182652E0,1.960500032E-1,1.217295074E1,9.349500537E-1,1.221037661E1
3.264143617E0,3.490500152E-1,1.201905060E1,9.730500579E-1,1.206342570E1
3.266105568E0,5.020500422E-1,1.198095036E1,1.011000037E0,1.203400793E1
3.268067230E0,6.940500140E-1,1.182795048E1,9.730500579E-1,1.188818507E1
