"Time (s)","Acceleration x (m/s^2)","Acceleration y (m/s^2)","Acceleration z (m/s^2)","Absolute acceleration (m/s^2)"
3.611934900E-2,-9.150000215E-1,1.002600002E1,1.432950020E0,1.016913208E1
3.807956000E-2,-7.999500632E-1,9.988050461E0,1.432950020E0,1.012197697E1
4.004242600E-2,-6.469500065E-1,9.910950661E0,1.395000100E0,1.002953202E1
4.200373700E-2,-4.930500090E-1,9.796050072E0,1.432950020E0,9.912569852E0
4.396550300E-2,-4.170000255E-1,9.643050194E0,1.471050024E0,9.763518538E0
4.592687200E-2,-3.019500077E-1,9.604950905E0,1.395000100E0,9.710421256E0
4.788835400E-2,-1.870500147E-1,9.451050758E0,1.471050024E0,9.566678437E0
4.984985600E-2,-7.200000435E-2,9.375000000E0,1.432950020E0,9.484152822E0
5.181135200E-2,4.050000105E-3,9.298050880E0,1.510050058E0,9.419873553E0
5.377294300E-2,8.100000024E-2,9.183000565E0,1.471050024E0,9.300432707E0
5.573450600E-2,1.570500135E-1,9.030000687E0,1.471050024E0,9.150386073E0
5.769599600E-2,2.719500065E-1,8.914950371E0,1.471050024E0,9.039595405E0
5.965750800E-2,3.490500152E-1,8.761950493E0,1.432950020E0,8.885210077E0
6.161891600E-2,2.719500065E-1,8.569950104E0,1.432950020E0,8.693178207E0
6.358035400E-2,3.870000243E-1,8.493000031E0,1.356000066E0,8.609271439E0
6.554244900E-2,4.260000288E-1,8.377950668E0,1.395000100E0,8.503973113E0
6.750435200E-2,5.790000558E-1,8.187000275E0,1.356000066E0,8.318710882E0
6.946598900E-2,6.940500140E-1,8.148000717E0,1.432950020E0,8.302106171E0
7.142771900E-2,6.940500140E-1,7.995000362E0,1.510050058E0,8.165903955E0
7.338922400E-2,8.089500666E-1,7.918050289E0,1.510050058E0,8.101245075E0
7.535079500E-2,7.699500322E-1,7.879950523E0,1.624950051E0,8.082506169E0
7.731228300E-2,7.699500322E-1,7.842000484E0,1.548000097E0,8.030323714E0
7.927379600E-2,7.320000529E-1,7.842000484E0,1.624950051E0,8.041968562E0
8.123461300E-2,7.320000529E-1,7.803000450E0,1.624950051E0,8.003942952E0
8.319563700E-2,5.410500169E-1,7.803000450E0,1.663050056E0,7.996579683E0
8.515726300E-2,4.639500082E-1,7.803000450E0,1.740000129E0,8.008100030E0
8.711871200E-2,3.490500152E-1,7.842000484E0,1.816050053E0,8.057099063E0
8.908013200E-2,3.109500110E-1,7.842000484E0,1.777950048E0,8.047034726E0
9.104156000E-2,2.340000123E-1,7.842000484E0,1.777950048E0,8.044428754E0
9.300307100E-2,1.960500032E-1,7.803000450E0,1.777950048E0,8.005395556E0
9.496455800E-2,1.570500135E-1,7.803000450E0,1.663050056E0,7.979800512E0
9.692610500E-2,1.570500135E-1,7.765050411E0,1.701000094E0,7.950727886E0
9.888763500E-2,-7.200000435E-2,7.842000484E0,1.663050056E0,8.016725709E0
1.008491750E-1,-1.099500060E-1,7.842000484E0,1.701000094E0,8.025114449E0
1.028107120E-1,-3.299999982E-2,7.842000484E0,1.624950051E0,8.008653025E0
1.047720740E-1,-3.299999982E-2,7.918050289E0,1.624950051E0,8.083135039E0
1.067335170E-1,-7.200000435E-2,7.918050289E0,1.701000094E0,8.099018811E0
1.086952060E-1,-1.099500060E-1,8.032950401E0,1.740000129E0,8.219974550E0
1.106568230E-1,-2.250000089E-1,8.032950401E0,1.893000126E0,8.256050305E0
1.126182140E-1,-2.629500031E-1,8.187000275E0,1.930950046E0,8.415740269E0
1.145796710E-1,-3.019500077E-1,8.224950790E0,2.008050203E0,8.471909757E0
1.165410140E-1,-3.780000210E-1,8.377950668E0,2.008050203E0,8.623526369E0
1.185024110E-1,-4.549500346E-1,8.455050468E0,2.008050203E0,8.702133277E0
1.204642880E-1,-4.549500346E-1,8.532000542E0,2.046000004E0,8.785677481E0
1.224260240E-1,-5.320500135E-1,8.608050346E0,2.085000038E0,8.872926977E0
1.243875750E-1,-6.469500065E-1,8.761950493E0,2.046000004E0,9.020888912E0
1.263491800E-1,-6.469500065E-1,8.877000809E0,2.085000038E0,9.141494015E0
1.283108860E-1,-6.850500107E-1,8.953050613E0,2.046000004E0,9.209371576E0
1.302725630E-1,-7.620000243E-1,9.067950249E0,2.046000004E0,9.327083240E0
1.322342580E-1,-7.620000243E-1,9.183000565E0,2.046000004E0,9.438975549E0
1.341959470E-1,-7.620000243E-1,9.259950638E0,2.085000038E0,9.522318783E0
1.361578210E-1,-7.999500632E-1,9.336000443E0,2.200050116E0,9.625021812E0
1.381196400E-1,-8.380500674E-1,9.451050758E0,2.085000038E0,9.714520756E0
1.400810370E-1,-8.380500674E-1,9.528000832E0,2.008050203E0,9.773300025E0
1.420425930E-1,-9.150000215E-1,9.604950905E0,2.085000038E0,9.871146442E0
1.440041730E-1,-8.770500422E-1,9.720000267E0,2.122950077E0,9.987719409E0
1.459657450E-1,-9.150000215E-1,9.720000267E0,2.085000038E0,9.983128537E0
1.479274130E-1,-1.030050039E0,9.412950516E0,5.899500251E-1,9.487501332E0
1.498890520E-1,-9.150000215E-1,9.835050583E0,9.730500579E-1,9.925334827E0
1.518504540E-1,-8.770500422E-1,9.873000145E0,2.200050116E0,1.015310638E1
1.538119150E-1,-9.529500604E-1,9.796050072E0,2.008050203E0,1.004504736E1
1.557734660E-1,-9.150000215E-1,9.988050461E0,2.430000067E0,1.032004251E1
1.577349900E-1,-8.770500422E-1,1.002600002E1,3.004050255E0,1.050305723E1
1.596964870E-1,-8.770500422E-1,9.988050461E0,3.043050051E0,1.047809727E1
1.616579920E-1,-9.150000215E-1,9.988050461E0,2.851050138E0,1.042721746E1
1.636195800E-1,-8.770500422E-1,9.988050461E0,2.659050226E0,1.037308618E1
1.655811440E-1,-8.770500422E-1,1.002600002E1,2.391000032E0,1.034440788E1
1.675426340E-1,-8.770500422E-1,1.002600002E1,2.275950193E0,1.031842248E1
1.695041460E-1,-8.770500422E-1,1.010295010E1,2.122950077E0,1.036077866E1
1.714660490E-1,-8.380500674E-1,1.006500053E1,2.085000038E0,1.031279733E1
1.734278370E-1,-7.999500632E-1,1.010295010E1,2.008050203E0,1.033159167E1
1.753895140E-1,-8.770500422E-1,1.018005085E1,1.969950080E0,1.040592886E1
1.773512230E-1,-8.770500422E-1,1.014105034E1,2.008050203E0,1.037508479E1
1.793125520E-1,-8.380500674E-1,1.010295010E1,1.930950046E0,1.031990778E1
1.812739920E-1,-8.380500674E-1,1.010295010E1,1.893000126E0,1.031287438E1
1.832360870E-1,-7.999500632E-1,1.006500053E1,1.740000129E0,1.024557252E1
1.851979900E-1,-8.770500422E-1,9.720000267E0,2.830500007E-1,9.763592539E0
1.871586010E-1,-7.230000496E-1,9.949950218E0,1.050000072E0,1.003128798E1
1.891195980E-1,-7.230000496E-1,9.988050461E0,1.893000126E0,1.019153230E1
1.910814080E-1,-7.999500632E-1,9.949950218E0,2.238000154E0,1.022986188E1
1.930429800E-1,-7.620000243E-1,9.835050583E0,2.200050116E0,1.010688303E1
1.950044690E-1,-7.620000243E-1,9.835050583E0,1.930950046E0,1.005173776E1
1.969659820E-1,-7.230000496E-1,9.720000267E0,1.663050056E0,9.887713070E0
1.989277820E-1,-7.230000496E-1,9.604950905E0,1.471050024E0,9.743808246E0
2.008894750E-1,-6.469500065E-1,9.528000832E0,1.432950020E0,9.656846790E0
2.028507630E-1,-7.230000496E-1,9.490050316E0,1.471050024E0,9.630564482E0
2.048121690E-1,-7.230000496E-1,9.451050758E0,1.471050024E0,9.592136242E0
2.067735940E-1,-7.620000243E-1,9.336000443E0,1.510050058E0,9.487981844E0
2.087350140E-1,-7.230000496E-1,9.375000000E0,1.548000097E0,9.529410180E0
2.106965530E-1,-7.620000243E-1,9.259950638E0,1.548000097E0,9.419322383E0
2.126580390E-1,-7.620000243E-1,9.220950127E0,1.510050058E0,9.374796875E0
2.146199470E-1,-7.620000243E-1,9.106050491E0,1.510050058E0,9.261806021E0
2.165817310E-1,-7.999500632E-1,9.106050491E0,1.510050058E0,9.265005496E0
2.185434080E-1,-7.999500632E-1,8.991000175E0,1.471050024E0,9.145599621E0
2.205051170E-1,-8.380500674E-1,9.030000687E0,1.471050024E0,9.187340665E0
2.224664910E-1,-9.529500604E-1,9.030000687E0,1.471050024E0,9.198533274E0
2.244279640E-1,-1.030050039E0,8.991000175E0,1.395000100E0,9.156697686E0
2.263891530E-1,-1.183050036E0,9.030000687E0,1.471050024E0,9.225210456E0
2.283504250E-1,-1.297950029E0,9.067950249E0,1.471050024E0,9.277735940E0
2.303116490E-1,-1.336950064E0,9.030000687E0,1.432950020E0,9.240221514E0
2.322728870E-1,-1.375050068E0,9.067950249E0,1.395000100E0,9.277095972E0
2.342342310E-1,-1.413000107E0,9.106050491E0,1.356000066E0,9.314261164E0
2.361955580E-1,-1.489950061E0,9.067950249E0,1.356000066E0,9.289047802E0
2.381566380E-1,-1.605000019E0,9.106050491E0,1.356000066E0,9.345315232E0
2.401177910E-1,-1.681950092E0,9.145050049E0,1.318050027E0,9.391387138E0
2.420789890E-1,-1.681950092E0,9.106050491E0,1.279950023E0,9.348121936E0
2.440401730E-1,-1.642950058E0,9.183000565E0,1.240950108E0,9.410990460E0
2.460013070E-1,-1.720050097E0,9.106050491E0,1.203000069E0,9.344834779E0
2.479624350E-1,-1.720050097E0,9.145050049E0,1.279950023E0,9.393017875E0
2.499236830E-1,-1.834950089E0,9.183000565E0,1.240950108E0,9.446401345E0
2.518848950E-1,-1.873050094E0,9.183000565E0,1.240950108E0,9.453876094E0
2.538460850E-1,-1.950000048E0,9.145050049E0,1.203000069E0,9.427706495E0
2.558072810E-1,-1.987950087E0,9.183000565E0,1.126049995E0,9.462950571E0
2.577684170E-1,-1.911000133E0,9.106050491E0,1.165050030E0,9.377068765E0
2.597295460E-1,-1.987950087E0,9.145050049E0,1.165050030E0,9.430865682E0
2.616909280E-1,-2.026050091E0,9.106050491E0,1.087950110E0,9.391947081E0
2.636522360E-1,-1.987950087E0,9.067950249E0,1.050000072E0,9.342492569E0
2.656134550E-1,-2.065050125E0,9.030000687E0,1.050000072E0,9.322437695E0
2.675747000E-1,-2.103000164E0,8.991000175E0,1.050000072E0,9.293179972E0
2.695359480E-1,-2.140950203E0,9.030000687E0,1.011000037E0,9.335239753E0
2.714971810E-1,-2.179949999E0,8.953050613E0,9.730500579E-1,9.265857958E0
2.734582760E-1,-2.256000042E0,8.953050613E0,1.050000072E0,9.292424421E0
2.754194110E-1,-2.332950115E0,8.991000175E0,1.011000037E0,9.343600027E0
2.773808380E-1,-2.371050119E0,9.067950249E0,1.050000072E0,9.431442124E0
2.793421790E-1,-2.332950115E0,9.030000687E0,9.349500537E-1,9.373243849E0
2.813037550E-1,-2.410050154E0,8.953050613E0,9.730500579E-1,9.322675766E0
2.832652600E-1,-2.448000193E0,8.914950371E0,9.349500537E-1,9.292102919E0
2.852268040E-1,-2.448000193E0,8.914950371E0,9.730500579E-1,9.296013741E0
2.871883360E-1,-2.485950232E0,8.953050613E0,1.050000072E0,9.350912468E0
2.891496520E-1,-2.524950027E0,8.914950371E0,1.087950110E0,9.329273723E0
2.911110310E-1,-2.485950232E0,8.838000298E0,1.126049995E0,9.249766830E0
2.930726400E-1,-2.563050032E0,8.838000298E0,1.203000069E0,9.280446320E0
2.950341500E-1,-2.601000071E0,8.838000298E0,1.126049995E0,9.281348998E0
2.969953790E-1,-2.677950144E0,8.761950493E0,1.126049995E0,9.230990305E0
2.989566900E-1,-2.677950144E0,8.685000420E0,1.165050030E0,9.162859315E0
3.009177270E-1,-2.677950144E0,8.722949982E0,1.240950108E0,9.208758360E0
3.028788440E-1,-2.677950144E0,8.722949982E0,1.279950023E0,9.214094932E0
3.048400560E-1,-2.716050148E0,8.647050858E0,1.279950023E0,9.153506924E0
3.068012350E-1,-2.677950144E0,8.647050858E0,1.240950108E0,9.136895680E0
3.087624740E-1,-2.755050182E0,8.647050858E0,1.318050027E0,9.170553196E0
3.107236960E-1,-2.793000221E0,8.569950104E0,1.356000066E0,9.115022282E0
3.126858300E-1,-2.869950056E0,8.416950226E0,9.349500537E-1,8.941800492E0
3.146476960E-1,-2.869950056E0,8.455050468E0,-5.590500236E-1,8.946341637E0
3.166082880E-1,-2.793000221E0,8.647050858E0,1.318050027E0,9.182025628E0
3.185692470E-1,-2.793000221E0,8.569950104E0,1.777950048E0,9.187273882E0
3.205310640E-1,-2.830950022E0,8.493000031E0,1.740000129E0,9.119919297E0
3.224926290E-1,-2.830950022E0,8.493000031E0,1.624950051E0,9.098669695E0
3.244541640E-1,-2.869950056E0,8.455050468E0,1.471050024E0,9.049225377E0
3.264157080E-1,-2.869950056E0,8.493000031E0,1.318050027E0,9.061176453E0
3.283771050E-1,-2.908050060E0,8.455050468E0,1.165050030E0,9.016760790E0
3.303385490E-1,-2.908050060E0,8.455050468E0,1.087950110E0,9.007123238E0
3.322998790E-1,-2.869950056E0,8.493000031E0,1.087950110E0,9.030575745E0
3.342612420E-1,-2.908050060E0,8.532000542E0,1.165050030E0,9.088956484E0
3.362226740E-1,-2.908050060E0,8.493000031E0,1.050000072E0,9.038268906E0
3.381840860E-1,-2.830950022E0,8.455050468E0,1.087950110E0,8.982527033E0
3.401454670E-1,-2.830950022E0,8.455050468E0,1.087950110E0,8.982527033E0
3.421068570E-1,-2.793000221E0,8.493000031E0,1.165050030E0,9.016054643E0
3.440684200E-1,-2.830950022E0,8.493000031E0,1.050000072E0,9.013757690E0
3.460299320E-1,-2.755050182E0,8.532000542E0,9.349500537E-1,9.014403272E0
3.479912960E-1,-2.755050182E0,8.569950104E0,1.011000037E0,9.058502490E0
3.499527030E-1,-2.793000221E0,8.608050346E0,8.959500194E-1,9.094069905E0
3.519138410E-1,-2.793000221E0,8.608050346E0,8.580000401E-1,9.090409511E0
3.538750700E-1,-2.755050182E0,8.608050346E0,8.200500607E-1,9.075313459E0
3.558368410E-1,-2.793000221E0,8.685000420E0,7.429500222E-1,9.153253917E0
3.577984530E-1,-2.793000221E0,8.722949982E0,7.810500264E-1,9.192428719E0
3.597600240E-1,-2.755050182E0,8.722949982E0,7.050000429E-1,9.174812420E0
3.617216080E-1,-2.793000221E0,8.761950493E0,7.810500264E-1,9.229445586E0
3.636831390E-1,-2.793000221E0,8.722949982E0,7.429500222E-1,9.189269903E0
3.656446850E-1,-2.755050182E0,8.722949982E0,7.050000429E-1,9.174812420E0
3.676063560E-1,-2.755050182E0,8.647050858E0,7.429500222E-1,9.105699576E0
3.695679910E-1,-2.755050182E0,8.685000420E0,7.050000429E-1,9.138739457E0
3.715291990E-1,-2.755050182E0,8.647050858E0,7.050000429E-1,9.102681753E0
3.734905320E-1,-2.755050182E0,8.569950104E0,7.429500222E-1,9.032514657E0
3.754520500E-1,-2.716050148E0,8.608050346E0,7.810500264E-1,9.060104763E0
3.774135200E-1,-2.677950144E0,8.569950104E0,7.810500264E-1,9.012519121E0
3.793750700E-1,-2.677950144E0,8.569950104E0,8.200500607E-1,9.015982689E0
3.813365960E-1,-2.677950144E0,8.569950104E0,8.200500607E-1,9.015982689E0
3.832983620E-1,-2.677950144E0,8.608050346E0,8.580000401E-1,9.055722600E0
3.852600580E-1,-2.677950144E0,8.608050346E0,8.200500607E-1,9.052205800E0
3.872216870E-1,-2.716050148E0,8.647050858E0,8.580000401E-1,9.104096935E0
3.891833490E-1,-2.716050148E0,8.722949982E0,8.200500607E-1,9.172745875E0
3.911447310E-1,-2.755050182E0,8.761950493E0,8.200500607E-1,9.221418549E0
3.931061950E-1,-2.716050148E0,8.838000298E0,8.580000401E-1,9.285652467E0
3.950675660E-1,-2.716050148E0,8.877000809E0,8.580000401E-1,9.322780478E0
3.970289640E-1,-2.755050182E0,8.953050613E0,8.580000401E-1,9.406571153E0
3.989908660E-1,-2.677950144E0,8.991000175E0,8.580000401E-1,9.420491770E0
4.009526340E-1,-2.640000105E0,8.953050613E0,8.959500194E-1,9.377070026E0
4.029142700E-1,-2.640000105E0,8.991000175E0,9.730500579E-1,9.420961263E0
4.048759440E-1,-2.601000071E0,9.030000687E0,1.087950110E0,9.459902178E0
4.068374590E-1,-2.563050032E0,9.030000687E0,1.203000069E0,9.463474364E0
4.087990210E-1,-2.524950027E0,9.067950249E0,1.203000069E0,9.489483838E0
4.107605550E-1,-2.410050154E0,9.030000687E0,1.240950108E0,9.428107515E0
4.127220980E-1,-2.410050154E0,9.030000687E0,1.279950023E0,9.433319999E0
4.146838150E-1,-2.332950115E0,9.067950249E0,1.279950023E0,9.450325392E0
4.166454810E-1,-2.295000076E0,9.067950249E0,1.279950023E0,9.441028499E0
4.186070430E-1,-2.256000042E0,9.067950249E0,1.356000066E0,9.442245182E0
4.205686360E-1,-2.218050003E0,8.991000175E0,1.318050027E0,9.353880791E0
4.225303030E-1,-2.179949999E0,9.030000687E0,1.318050027E0,9.382449055E0
4.244919460E-1,-2.140950203E0,9.030000687E0,1.279950023E0,9.368182974E0
4.264536470E-1,-2.140950203E0,9.067950249E0,1.279950023E0,9.404768022E0
4.284153310E-1,-2.065050125E0,9.067950249E0,1.240950108E0,9.382542880E0
4.303768460E-1,-2.026050091E0,9.030000687E0,1.279950023E0,9.342594042E0
4.323384100E-1,-2.026050091E0,9.030000687E0,1.395000100E0,9.359049987E0
4.342999400E-1,-2.026050091E0,9.067950249E0,1.356000066E0,9.389959364E0
4.362615140E-1,-2.026050091E0,8.991000175E0,1.356000066E0,9.315669557E0
4.382230020E-1,-2.026050091E0,8.991000175E0,1.356000066E0,9.315669557E0
4.401845160E-1,-1.987950087E0,9.030000687E0,1.318050027E0,9.339706303E0
4.421459230E-1,-1.987950087E0,9.030000687E0,1.240950108E0,9.329137962E0
4.441073620E-1,-1.873050094E0,8.991000175E0,1.279950023E0,9.272792075E0
4.460690420E-1,-1.873050094E0,8.953050613E0,1.318050027E0,9.241357466E0
4.480306580E-1,-1.950000048E0,8.953050613E0,1.165050030E0,9.236717872E0
4.499922290E-1,-1.950000048E0,8.914950371E0,1.126049995E0,9.194934959E0
4.519538140E-1,-1.950000048E0,8.953050613E0,1.165050030E0,9.236717872E0
4.539156590E-1,-1.911000133E0,8.953050613E0,1.165050030E0,9.228563180E0
4.558774280E-1,-1.950000048E0,8.991000175E0,1.126049995E0,9.268687768E0
4.578389530E-1,-1.911000133E0,8.914950371E0,1.050000072E0,9.177731842E0
4.598005640E-1,-1.950000048E0,8.914950371E0,1.087950110E0,9.190346878E0
4.617624040E-1,-1.911000133E0,8.953050613E0,1.050000072E0,9.214745626E0
4.637241770E-1,-1.987950087E0,8.953050613E0,1.011000037E0,9.226656052E0
4.656857210E-1,-1.911000133E0,8.953050613E0,1.011000037E0,9.210383155E0
4.676473330E-1,-1.911000133E0,8.914950371E0,1.011000037E0,9.173351770E0
4.696090340E-1,-1.950000048E0,8.953050613E0,9.349500537E-1,9.210523713E0
4.715707110E-1,-1.873050094E0,8.953050613E0,1.126049995E0,9.215932971E0
4.735321820E-1,-1.834950089E0,8.953050613E0,1.126049995E0,9.208265076E0
4.754937130E-1,-1.795950055E0,8.991000175E0,1.126049995E0,9.237505580E0
4.774554770E-1,-1.834950089E0,9.030000687E0,1.087950110E0,9.278555366E0
4.794171730E-1,-1.834950089E0,9.030000687E0,1.126049995E0,9.283099850E0
4.813786570E-1,-1.795950055E0,9.030000687E0,1.087950110E0,9.270921445E0
4.833402230E-1,-1.795950055E0,9.030000687E0,1.087950110E0,9.270921445E0
4.853019360E-1,-1.758000135E0,8.991000175E0,1.203000069E0,9.239905724E0
4.872636060E-1,-1.795950055E0,8.991000175E0,1.240950108E0,9.252214758E0
4.892249430E-1,-1.795950055E0,8.991000175E0,1.165050030E0,9.242340739E0
4.911863770E-1,-1.795950055E0,8.991000175E0,1.279950023E0,9.257526280E0
4.931480710E-1,-1.795950055E0,9.030000687E0,1.279950023E0,9.295408601E0
4.951096860E-1,-1.795950055E0,8.991000175E0,1.395000100E0,9.274133169E0
4.970712580E-1,-1.758000135E0,8.953050613E0,1.356000066E0,9.224229829E0
4.990328420E-1,-1.795950055E0,8.953050613E0,1.432950020E0,9.243154096E0
5.009941930E-1,-1.834950089E0,8.914950371E0,1.471050024E0,9.219944149E0
5.029556120E-1,-1.873050094E0,8.877000809E0,1.471050024E0,9.190943814E0
5.049169860E-1,-1.873050094E0,8.914950371E0,1.510050058E0,9.233899932E0
5.068783770E-1,-1.911000133E0,8.914950371E0,1.548000097E0,9.247949282E0
5.088399400E-1,-1.950000048E0,8.877000809E0,1.548000097E0,9.219541629E0
5.108014520E-1,-1.987950087E0,8.838000298E0,1.663050056E0,9.210207940E0
5.127629510E-1,-1.987950087E0,8.877000809E0,1.624950051E0,9.240863140E0
5.147244540E-1,-2.065050125E0,8.838000298E0,1.624950051E0,9.220365717E0
5.166860310E-1,-2.065050125E0,8.914950371E0,1.777950048E0,9.322117705E0
5.186475620E-1,-2.140950203E0,8.953050613E0,1.777950048E0,9.375600750E0
5.206086070E-1,-2.140950203E0,8.991000175E0,1.663050056E0,9.390819315E0
5.225697940E-1,-2.179949999E0,9.067950249E0,1.624950051E0,9.466803388E0
5.245313920E-1,-2.179949999E0,9.145050049E0,1.624950051E0,9.540680535E0
5.264928690E-1,-2.218050003E0,9.183000565E0,1.548000097E0,9.573063746E0
5.284545680E-1,-2.218050003E0,9.220950127E0,1.585950017E0,9.615659338E0
5.304161920E-1,-2.179949999E0,9.375000000E0,1.548000097E0,9.748800506E0
5.323775360E-1,-2.179949999E0,9.412950516E0,1.663050056E0,9.804160081E0
5.343389630E-1,-2.256000042E0,9.451050758E0,1.510050058E0,9.833216554E0
5.363002050E-1,-2.218050003E0,9.490050316E0,1.471050024E0,9.856205608E0
5.382615020E-1,-2.256000042E0,9.604950905E0,1.471050024E0,9.975400054E0
5.402231050E-1,-2.218050003E0,9.681000710E0,1.510050058E0,1.004598287E1
5.421846010E-1,-2.256000042E0,9.757950783E0,1.471050024E0,1.012280237E1
5.441461020E-1,-2.218050003E0,9.796050072E0,1.510050058E0,1.015689884E1
5.461076010E-1,-2.256000042E0,9.873000145E0,1.510050058E0,1.023942963E1
5.480688320E-1,-2.295000076E0,9.873000145E0,1.510050058E0,1.024809291E1
5.500301410E-1,-2.295000076E0,9.988050461E0,1.471050024E0,1.035336494E1
5.519916870E-1,-2.295000076E0,1.002600002E1,1.432950020E0,1.038465443E1
5.539531530E-1,-2.295000076E0,1.010295010E1,1.395000100E0,1.045383429E1
5.559145250E-1,-2.256000042E0,1.014105034E1,1.471050024E0,1.049258911E1
5.578759240E-1,-2.295000076E0,1.018005085E1,1.471050024E0,1.053871192E1
5.598373070E-1,-2.295000076E0,1.025595093E1,1.432950020E0,1.060683273E1
5.617986940E-1,-2.295000076E0,1.025595093E1,1.471050024E0,1.061204707E1
5.637602480E-1,-2.295000076E0,1.033305073E1,1.471050024E0,1.068657807E1
5.657217600E-1,-2.332950115E0,1.037100029E1,1.432950020E0,1.072630640E1
5.676831240E-1,-2.371050119E0,1.037100029E1,1.432950020E0,1.073465749E1
5.696445310E-1,-2.332950115E0,1.037100029E1,1.395000100E0,1.072130256E1
5.716059120E-1,-2.371050119E0,1.041000080E1,1.356000066E0,1.076237574E1
5.735673000E-1,-2.371050119E0,1.037100029E1,1.356000066E0,1.072465672E1
5.755290530E-1,-2.410050154E0,1.037100029E1,1.356000066E0,1.073334640E1
5.774906920E-1,-2.448000193E0,1.033305073E1,1.356000066E0,1.070529675E1
5.794522140E-1,-2.448000193E0,1.029495049E1,1.356000066E0,1.066852598E1
5.814137710E-1,-2.485950232E0,1.029495049E1,1.279950023E0,1.066790636E1
5.833753500E-1,-2.524950027E0,1.021800041E1,1.240950108E0,1.059824807E1
5.853369230E-1,-2.601000071E0,1.021800041E1,1.165050030E0,1.060801939E1
5.872983060E-1,-2.677950144E0,1.014105034E1,1.165050030E0,1.055318248E1
5.892597240E-1,-2.716050148E0,1.014105034E1,1.279950023E0,1.057620454E1
5.912210580E-1,-2.755050182E0,1.010295010E1,1.087950110E0,1.052822576E1
5.931824160E-1,-2.793000221E0,1.006500053E1,9.349500537E-1,1.048709767E1
5.951438490E-1,-2.869950056E0,1.002600002E1,8.200500607E-1,1.046086860E1
5.971052600E-1,-2.869950056E0,1.002600002E1,7.810500264E-1,1.045788358E1
5.990665970E-1,-2.946000099E0,1.002600002E1,7.810500264E-1,1.047900912E1
6.010279550E-1,-2.985000134E0,9.949950218E0,7.050000429E-1,1.041195276E1
6.029890280E-1,-3.022950172E0,9.949950218E0,6.660000086E-1,1.042033076E1
6.049501850E-1,-3.061050177E0,9.910950661E0,6.280500293E-1,1.039189194E1
6.069121040E-1,-3.022950172E0,9.873000145E0,5.899500251E-1,1.034226284E1
6.088737990E-1,-3.061050177E0,9.910950661E0,4.750500321E-1,1.038376828E1
6.108353470E-1,-3.100050211E0,9.873000145E0,5.509500504E-1,1.036291412E1
6.127969450E-1,-3.100050211E0,9.873000145E0,4.360500276E-1,1.035744094E1
6.147593730E-1,-3.100050211E0,9.835050583E0,3.220500052E-1,1.031708522E1
6.167215580E-1,-3.061050177E0,9.835050583E0,2.830500007E-1,1.030428869E1
6.186831670E-1,-3.100050211E0,9.835050583E0,2.449500114E-1,1.031496640E1
6.206449450E-1,-3.061050177E0,9.910950661E0,2.070000172E-1,1.037496121E1
6.226061200E-1,-2.946000099E0,9.910950661E0,2.449500114E-1,1.034243009E1
6.245674450E-1,-2.908050060E0,9.988050461E0,3.220500052E-1,1.040776745E1
6.265287940E-1,-2.908050060E0,1.002600002E1,3.220500052E-1,1.044419206E1
6.284901360E-1,-2.946000099E0,1.014105034E1,3.600000143E-1,1.056642885E1
6.304513480E-1,-2.869950056E0,1.014105034E1,3.979500234E-1,1.054684216E1
6.324125990E-1,-2.869950056E0,1.018005085E1,3.979500234E-1,1.058434754E1
6.343738210E-1,-2.869950056E0,1.025595093E1,4.360500276E-1,1.065885934E1
6.363350560E-1,-2.830950022E0,1.029495049E1,4.750500321E-1,1.068765438E1
6.382966450E-1,-2.793000221E0,1.029495049E1,5.509500504E-1,1.068131086E1
6.402581310E-1,-2.755050182E0,1.033305073E1,5.899500251E-1,1.071028851E1
6.422194990E-1,-2.755050182E0,1.033305073E1,7.810500264E-1,1.072251267E1
6.441809020E-1,-2.830950022E0,1.025595093E1,1.011000037E0,1.068741917E1
6.461424820E-1,-2.793000221E0,1.033305073E1,9.730500579E-1,1.074800512E1
6.481039960E-1,-2.640000105E0,1.037100029E1,7.050000429E-1,1.072493695E1
6.500657640E-1,-2.563050032E0,1.037100029E1,6.660000086E-1,1.070375768E1
6.520274570E-1,-2.601000071E0,1.037100029E1,8.959500194E-1,1.072965865E1
6.539887900E-1,-2.485950232E0,1.041000080E1,1.165050030E0,1.076593734E1
6.559502280E-1,-2.448000193E0,1.044795036E1,1.395000100E0,1.082120127E1
6.579115400E-1,-2.485950232E0,1.044795036E1,1.510050058E0,1.084526932E1
6.598729020E-1,-2.485950232E0,1.048605061E1,1.548000097E0,1.088730959E1
6.618341550E-1,-2.485950232E0,1.044795036E1,1.624950051E0,1.086186347E1
6.637954400E-1,-2.524950027E0,1.044795036E1,1.624950051E0,1.087085563E1
6.657568410E-1,-2.563050032E0,1.041000080E1,1.663050056E0,1.084910492E1
6.677182080E-1,-2.601000071E0,1.041000080E1,1.701000094E0,1.086401028E1
6.696795650E-1,-2.716050148E0,1.033305073E1,1.777950048E0,1.083097282E1
6.716409160E-1,-2.830950022E0,1.029495049E1,1.969950080E0,1.085730108E1
6.736023500E-1,-2.830950022E0,1.037100029E1,1.510050058E0,1.085597422E1
6.755637600E-1,-2.869950056E0,1.037100029E1,1.395000100E0,1.085081958E1
6.775251410E-1,-2.946000099E0,1.033305073E1,1.471050024E0,1.084503767E1
6.794865310E-1,-3.022950172E0,1.033305073E1,1.777950048E0,1.091197835E1
6.814480390E-1,-3.100050211E0,1.029495049E1,2.046000004E0,1.094451611E1
6.834095190E-1,-3.175950050E0,1.021800041E1,2.275950193E0,1.093956765E1
6.853707530E-1,-3.214950085E0,1.014105034E1,2.467950106E0,1.092096991E1
6.873320600E-1,-3.253050089E0,1.006500053E1,2.620950222E0,1.089752039E1
6.892932320E-1,-3.253050089E0,9.949950218E0,2.620950222E0,1.079134951E1
6.912544440E-1,-3.214950085E0,9.873000145E0,2.659050226E0,1.071832935E1
6.932155670E-1,-3.214950085E0,9.720000267E0,2.698050022E0,1.058743515E1
6.951766990E-1,-3.100050211E0,9.490050316E0,2.928000212E0,1.040406418E1
6.971380810E-1,-3.100050211E0,9.375000000E0,3.004050255E0,1.032110722E1
6.990993890E-1,-2.985000134E0,9.412950516E0,2.620950222E0,1.021681180E1
7.010608320E-1,-2.908050060E0,9.259950638E0,2.506050110E0,1.002415723E1
7.030222360E-1,-2.830950022E0,9.183000565E0,2.812950134E0,1.001271521E1
7.049837440E-1,-2.793000221E0,9.067950249E0,3.081000090E0,9.976027942E0
7.069452270E-1,-2.716050148E0,8.914950371E0,3.310950041E0,9.890179912E0
7.089067750E-1,-2.563050032E0,8.838000298E0,3.426000118E0,9.819213387E0
7.108683040E-1,-2.563050032E0,8.761950493E0,3.388050079E0,9.737550269E0
7.128295290E-1,-2.371050119E0,8.608050346E0,3.388050079E0,9.549832081E0
7.147908440E-1,-2.256000042E0,8.532000542E0,3.388050079E0,9.453224464E0
7.167520050E-1,-2.179949999E0,8.340000153E0,3.310950041E0,9.234185114E0
7.187132190E-1,-2.065050125E0,8.224950790E0,3.273000240E0,9.089927288E0
7.206744510E-1,-1.950000048E0,8.148000717E0,3.273000240E0,8.994717697E0
7.226356780E-1,-1.834950089E0,8.110050201E0,3.196050167E0,8.908125099E0
7.245971350E-1,-1.720050097E0,7.995000362E0,3.273000240E0,8.808582957E0
7.265585240E-1,-1.605000019E0,8.032950401E0,3.273000240E0,8.821385820E0
7.285200880E-1,-1.452000022E0,7.957050323E0,3.196050167E0,8.696993192E0
7.304816010E-1,-1.375050068E0,7.957050323E0,3.157950163E0,8.670528344E0
7.324429200E-1,-1.260000110E0,7.918050289E0,3.273000240E0,8.660002958E0
7.344042960E-1,-1.222050071E0,7.803000450E0,3.196050167E0,8.520267547E0
7.363658610E-1,-1.222050071E0,7.765050411E0,3.196050167E0,8.485525967E0
7.383273710E-1,-1.413000107E0,7.687950134E0,3.118950129E0,8.415996463E0
7.402885450E-1,-1.297950029E0,7.842000484E0,3.273000240E0,8.596172198E0
7.422498240E-1,-1.106999993E0,7.879950523E0,3.234000206E0,8.589401991E0
7.442109110E-1,-9.529500604E-1,7.879950523E0,3.310950041E0,8.600239778E0
7.461720550E-1,-8.770500422E-1,7.879950523E0,3.349050045E0,8.606914269E0
7.481336150E-1,-7.230000496E-1,7.918050289E0,3.349050045E0,8.627536477E0
7.500950530E-1,-5.700000525E-1,7.957050323E0,3.388050079E0,8.667089087E0
7.520562900E-1,-4.930500090E-1,8.110050201E0,3.541050196E0,8.863128628E0
7.540175890E-1,-3.400500119E-1,8.148000717E0,3.463950157E0,8.860276541E0
7.559788080E-1,-3.400500119E-1,8.302050591E0,3.502950191E0,9.017224521E0
7.579400510E-1,-4.549500346E-1,8.148000717E0,2.583000183E0,8.559718755E0
7.599015940E-1,-4.549500346E-1,8.377950668E0,2.467950106E0,8.745731225E0
7.618630490E-1,-3.019500077E-1,8.455050468E0,2.659050226E0,8.868460990E0
7.638242180E-1,-1.870500147E-1,8.493000031E0,2.965950251E0,8.997938548E0
7.657854880E-1,-1.480500102E-1,8.532000542E0,3.196050167E0,9.112172558E0
7.677465770E-1,-7.200000435E-2,8.569950104E0,3.349050045E0,9.201378429E0
7.697077190E-1,4.200000316E-2,8.569950104E0,3.463950157E0,9.243633456E0
7.716689640E-1,1.189500093E-1,8.569950104E0,3.502950191E0,9.258987738E0
7.736301790E-1,1.570500135E-1,8.608050346E0,3.502950191E0,9.294829504E0
7.755915320E-1,1.189500093E-1,8.647050858E0,3.388050079E0,9.287869561E0
7.775528550E-1,1.570500135E-1,8.685000420E0,3.310950041E0,9.296036100E0
7.795140710E-1,1.960500032E-1,8.800050735E0,3.234000206E0,9.377530905E0
7.814753190E-1,1.570500135E-1,8.838000298E0,3.004050255E0,9.335910877E0
7.834367260E-1,2.719500065E-1,8.953050613E0,2.851050138E0,9.399976542E0
7.853980860E-1,2.340000123E-1,9.030000687E0,2.545050144E0,9.384718890E0
7.873591110E-1,3.109500110E-1,9.106050491E0,2.391000032E0,9.419858100E0
7.893202370E-1,3.490500152E-1,9.183000565E0,2.122950077E0,9.431662224E0
7.912815290E-1,3.870000243E-1,9.336000443E0,1.893000126E0,9.533840924E0
7.932427730E-1,3.870000243E-1,9.451050758E0,1.701000094E0,9.610698766E0
7.952038220E-1,3.870000243E-1,9.528000832E0,1.585950017E0,9.666840555E0
7.971649290E-1,4.260000288E-1,9.604950905E0,1.510050058E0,9.732256115E0
7.991262000E-1,5.020500422E-1,9.681000710E0,1.432950020E0,9.799345628E0
8.010874090E-1,4.639500082E-1,9.720000267E0,1.356000066E0,9.825089871E0
8.030484640E-1,5.020500422E-1,9.835050583E0,1.356000066E0,9.940775140E0
8.050095640E-1,4.639500082E-1,9.873000145E0,1.240950108E0,9.961492792E0
8.069709970E-1,5.020500422E-1,9.988050461E0,1.279950023E0,1.008223578E1
8.089323320E-1,4.639500082E-1,1.006500053E1,1.432950020E0,1.017707380E1
8.108945480E-1,4.639500082E-1,1.006500053E1,1.318050027E0,1.016153243E1
8.128565290E-1,5.790000558E-1,1.014105034E1,1.356000066E0,1.024767677E1
8.148167760E-1,4.260000288E-1,1.041000080E1,1.471050024E0,1.052205212E1
8.167775310E-1,3.870000243E-1,1.063995075E1,1.471050024E0,1.074813050E1
8.187387970E-1,3.490500152E-1,1.079295063E1,1.471050024E0,1.089833049E1
8.206999140E-1,2.719500065E-1,1.106100082E1,1.510050058E0,1.116691306E1
8.226610150E-1,1.960500032E-1,1.106100082E1,1.432950020E0,1.115515668E1
8.246221320E-1,1.570500135E-1,1.113795090E1,1.318050027E0,1.121676739E1
8.265833810E-1,1.570500135E-1,1.113795090E1,9.730500579E-1,1.118147760E1
8.285445910E-1,4.200000316E-2,1.132905006E1,1.087950110E0,1.138124663E1
8.305061410E-1,-3.299999982E-2,1.148295021E1,1.356000066E0,1.156278387E1
8.324675910E-1,-1.099500060E-1,1.148295021E1,1.126049995E0,1.153855377E1
8.344289920E-1,-1.870500147E-1,1.152105045E1,1.087950110E0,1.157381643E1
8.363904210E-1,-3.780000210E-1,1.159800053E1,1.087950110E0,1.165504765E1
8.383519320E-1,-3.780000210E-1,1.148295021E1,1.087950110E0,1.154056606E1
8.403134190E-1,-4.930500090E-1,1.136805058E1,8.959500194E-1,1.141395631E1
8.422746070E-1,-6.079500318E-1,1.136805058E1,9.349500537E-1,1.142262267E1
8.442358820E-1,-7.999500632E-1,1.152105045E1,1.050000072E0,1.159642289E1
8.461970090E-1,-9.529500604E-1,1.152105045E1,9.730500579E-1,1.160127337E1
8.481581520E-1,-1.106999993E0,1.155900097E1,7.429500222E-1,1.163563179E1
8.501202980E-1,-1.260000110E0,1.155900097E1,5.130000114E-1,1.163878313E1
8.520821500E-1,-1.452000022E0,1.155900097E1,2.830500007E-1,1.165327957E1
8.540432300E-1,-1.681950092E0,1.159800053E1,2.070000172E-1,1.172115273E1
8.560045370E-1,-1.873050094E0,1.167405033E1,1.500000060E-2,1.182336639E1
8.579659290E-1,-2.103000164E0,1.175100040E1,-2.205000073E-2,1.193771781E1
8.599272990E-1,-2.410050154E0,1.190400028E1,1.500000060E-2,1.214552549E1
8.618885070E-1,-2.485950232E0,1.182795048E1,-6.105000153E-2,1.208652507E1
8.638497620E-1,-2.755050182E0,1.194300079E1,-2.140500098E-1,1.225852303E1
8.658109890E-1,-3.022950172E0,1.201905060E1,-4.440000355E-1,1.240132820E1
8.677722240E-1,-3.330000162E0,1.213395023E1,-3.670500219E-1,1.258794563E1
8.697334630E-1,-3.445050240E0,1.205805016E1,-4.440000355E-1,1.254838957E1
8.716946940E-1,-3.636000156E0,1.209600067E1,-6.360000372E-1,1.264666855E1
8.736559690E-1,-3.828000069E0,1.213395023E1,-6.360000372E-1,1.273934177E1
8.756172310E-1,-4.096050262E0,1.224900055E1,-2.910000086E-1,1.291899080E1
8.775785910E-1,-4.326000214E0,1.213395023E1,-2.205000073E-2,1.288206165E1
8.795399230E-1,-4.441050053E0,1.209600067E1,1.500000060E-2,1.288551058E1
8.815014830E-1,-4.555950165E0,1.190400028E1,-9.900000691E-2,1.274643894E1
8.834629860E-1,-4.633050442E0,1.171305084E1,-2.140500098E-1,1.259787815E1
8.854242170E-1,-4.479000092E0,1.144395065E1,-3.289500177E-1,1.229364293E1
8.873855270E-1,-4.210950375E0,1.110000038E1,-4.060500264E-1,1.187884625E1
8.893472830E-1,-3.981000185E0,1.075500011E1,-4.440000355E-1,1.147673847E1
8.913089090E-1,-3.598050117E0,1.044795036E1,-3.670500219E-1,1.105623612E1
8.932702540E-1,-3.253050089E0,1.006500053E1,-2.140500098E-1,1.057981040E1
8.952316810E-1,-2.869950056E0,9.835050583E0,-6.105000153E-2,1.024541656E1
8.971931920E-1,-2.640000105E0,9.490050316E0,5.295000225E-2,9.850556292E0
8.991546790E-1,-2.410050154E0,9.145050049E0,1.680000126E-1,9.458779316E0
9.011151910E-1,-2.256000042E0,8.877000809E0,2.830500007E-1,9.163558089E0
9.030759880E-1,-2.140950203E0,8.647050858E0,4.360500276E-1,8.918816958E0
9.050374230E-1,-2.026050091E0,8.532000542E0,4.750500321E-1,8.782117327E0
9.069986740E-1,-1.987950087E0,8.340000153E0,5.509500504E-1,8.591338315E0
9.089600810E-1,-1.911000133E0,8.263050079E0,4.750500321E-1,8.494444694E0
9.109214430E-1,-1.873050094E0,8.148000717E0,4.360500276E-1,8.371879835E0
9.128839130E-1,-1.720050097E0,8.110050201E0,3.600000143E-1,8.298258047E0
9.148460580E-1,-1.681950092E0,8.032950401E0,2.449500114E-1,8.210800739E0
9.168069630E-1,-1.642950058E0,7.995000362E0,1.680000126E-1,8.163794442E0
9.187682240E-1,-1.567050099E0,7.957050323E0,5.295000225E-2,8.110061625E0
9.207296290E-1,-1.489950061E0,7.995000362E0,-2.205000073E-2,8.132679029E0
9.226909910E-1,-1.528050065E0,8.032950401E0,-1.759500057E-1,8.178886694E0
9.246520650E-1,-1.489950061E0,8.032950401E0,-2.520000041E-1,8.173845321E0
9.266132240E-1,-1.452000022E0,8.032950401E0,-4.060500264E-1,8.173216799E0
9.285746010E-1,-1.452000022E0,8.110050201E0,-4.440000355E-1,8.250960815E0
9.305359140E-1,-1.489950061E0,8.071949959E0,-6.360000372E-1,8.232910990E0
9.324973110E-1,-1.375050068E0,8.071949959E0,-7.120500207E-1,8.219133413E0
9.344586840E-1,-1.336950064E0,8.110050201E0,-8.269500136E-1,8.261004543E0
9.364204310E-1,-1.413000107E0,8.148000717E0,-7.890000343E-1,8.307165945E0
9.383820680E-1,-1.336950064E0,8.187000275E0,-8.269500136E-1,8.336561359E0
9.403434330E-1,-1.375050068E0,8.224950790E0,-8.659500480E-1,8.383939866E0
9.423048620E-1,-1.297950029E0,8.187000275E0,-9.040500522E-1,8.338402381E0
9.442662840E-1,-9.919500351E-1,7.765050411E0,-9.420000315E-1,7.884626613E0
9.462277090E-1,-7.620000243E-1,7.573050499E0,-1.249050021E0,7.713096904E0
9.481889060E-1,-8.380500674E-1,7.995000362E0,-7.510500550E-1,8.073811671E0
9.501501700E-1,-1.183050036E0,8.224950790E0,-3.289500177E-1,8.316106722E0
9.521115490E-1,-1.413000107E0,8.377950668E0,-2.520000041E-1,8.500007689E0
9.540728800E-1,-1.452000022E0,8.493000031E0,-4.060500264E-1,8.625788672E0
9.560340940E-1,-1.489950061E0,8.532000542E0,-5.970000029E-1,8.681669968E0
9.579953430E-1,-1.489950061E0,8.493000031E0,-5.590500236E-1,8.640806538E0
9.599566150E-1,-1.452000022E0,8.569950104E0,-7.120500207E-1,8.721201986E0
9.619178800E-1,-1.413000107E0,8.569950104E0,-6.739500165E-1,8.711763467E0
9.638793050E-1,-1.375050068E0,8.569950104E0,-6.360000372E-1,8.702833074E0
9.658406690E-1,-1.336950064E0,8.532000542E0,-5.970000029E-1,8.656724422E0
9.678021920E-1,-1.336950064E0,8.569950104E0,-5.970000029E-1,8.694129586E0
9.697636690E-1,-1.260000110E0,8.608050346E0,-4.819500148E-1,8.713116943E0
9.717247240E-1,-1.222050071E0,8.569950104E0,-4.440000355E-1,8.668020950E0
9.736859020E-1,-1.183050036E0,8.532000542E0,-4.440000355E-1,8.625066763E0
9.756471640E-1,-1.183050036E0,8.532000542E0,-4.060500264E-1,8.623196464E0
9.776083850E-1,-1.222050071E0,8.569950104E0,-3.670500219E-1,8.664420170E0
9.795699330E-1,-1.297950029E0,8.608050346E0,-3.670500219E-1,8.713089622E0
9.815313850E-1,-1.260000110E0,8.647050858E0,-3.289500177E-1,8.744558132E0
9.834928040E-1,-1.297950029E0,8.647050858E0,-2.910000086E-1,8.748762416E0
9.854542330E-1,-1.260000110E0,8.685000420E0,-2.910000086E-1,8.780746755E0
9.874155510E-1,-1.297950029E0,8.722949982E0,-2.520000041E-1,8.822586620E0
9.893769120E-1,-1.260000110E0,8.722949982E0,-2.910000086E-1,8.818284281E0
9.913383450E-1,-1.297950029E0,8.761950493E0,-2.910000086E-1,8.862343467E0
9.932997560E-1,-1.297950029E0,8.838000298E0,-3.289500177E-1,8.938855165E0
9.952611370E-1,-1.297950029E0,8.838000298E0,-4.060500264E-1,8.942024388E0
9.972225270E-1,-1.375050068E0,8.914950371E0,-3.670500219E-1,9.027836315E0
9.991842490E-1,-1.413000107E0,8.953050613E0,-4.819500148E-1,9.076671218E0
1.001145857E0,-1.452000022E0,8.991000175E0,-5.209500194E-1,9.122377823E0
1.003107249E0,-1.452000022E0,9.030000687E0,-5.590500236E-1,9.163064629E0
1.005068705E0,-1.452000022E0,9.067950249E0,-6.739500165E-1,9.208161293E0
1.007030077E0,-1.452000022E0,9.030000687E0,-7.890000343E-1,9.179963917E0
1.008991474E0,-1.452000022E0,9.030000687E0,-7.890000343E-1,9.179963917E0
1.010953050E0,-1.413000107E0,8.953050613E0,-8.659500480E-1,9.105138883E0
1.012914563E0,-1.452000022E0,8.991000175E0,-8.269500136E-1,9.144956782E0
1.014875881E0,-1.489950061E0,9.030000687E0,-8.659500480E-1,9.192971939E0
1.016837257E0,-1.452000022E0,9.067950249E0,-9.420000315E-1,9.231651523E0
1.018798642E0,-1.413000107E0,8.991000175E0,-9.420000315E-1,9.149973635E0
1.020760025E0,-1.489950061E0,8.953050613E0,-1.018950105E0,9.133199099E0
1.022721114E0,-1.489950061E0,8.914950371E0,-1.057050109E0,9.100200340E0
1.024682276E0,-1.452000022E0,8.877000809E0,-1.096050024E0,9.061499494E0
1.026643833E0,-1.413000107E0,8.838000298E0,-1.057050109E0,9.012445478E0
1.028605274E0,-1.452000022E0,8.722949982E0,-1.096050024E0,8.910638928E0
1.030566335E0,-1.452000022E0,8.608050346E0,-1.134000063E0,8.802998976E0
1.032527507E0,-1.452000022E0,8.493000031E0,-1.134000063E0,8.690529887E0
1.034488742E0,-1.452000022E0,8.455050468E0,-1.210950017E0,8.663866483E0
1.036449962E0,-1.452000022E0,8.340000153E0,-1.249050021E0,8.557104216E0
1.038411690E0,-1.452000022E0,8.263050079E0,-1.363950014E0,8.499803546E0
1.040373269E0,-1.452000022E0,8.187000275E0,-1.402050018E0,8.432142184E0
1.042334667E0,-1.452000022E0,8.110050201E0,-1.441050053E0,8.364080558E0
1.044296118E0,-1.452000022E0,7.995000362E0,-1.402050018E0,8.245852237E0
1.046257466E0,-1.489950061E0,7.957050323E0,-1.441050053E0,8.222604593E0
1.048218830E0,-1.489950061E0,7.879950523E0,-1.441050053E0,8.148017961E0
1.050180217E0,-1.528050065E0,7.803000450E0,-1.441050053E0,8.080741196E0
1.052141597E0,-1.489950061E0,7.687950134E0,-1.516950130E0,7.976569824E0
1.054102982E0,-1.528050065E0,7.650000572E0,-1.479000092E0,7.940081047E0
1.056064366E0,-1.528050065E0,7.612050533E0,-1.479000092E0,7.903523998E0
1.058025395E0,-1.528050065E0,7.534950256E0,-1.555950046E0,7.844194854E0
1.059986526E0,-1.489950061E0,7.534950256E0,-1.594050050E0,7.844515416E0
1.061947773E0,-1.452000022E0,7.497000217E0,-1.594050050E0,7.800917375E0
1.063908986E0,-1.489950061E0,7.534950256E0,-1.516950130E0,7.829212237E0
1.065870220E0,-1.528050065E0,7.534950256E0,-1.516950130E0,7.836552180E0
1.067831447E0,-1.605000019E0,7.534950256E0,-1.516950130E0,7.851919391E0
1.069792895E0,-1.567050099E0,7.497000217E0,-1.516950130E0,7.807803531E0
1.071754284E0,-1.605000019E0,7.458000183E0,-1.479000092E0,7.770793593E0
1.073715624E0,-1.605000019E0,7.497000217E0,-1.479000092E0,7.808231464E0
1.075676979E0,-1.605000019E0,7.534950256E0,-1.363950014E0,7.823800871E0
1.077638773E0,-1.605000019E0,7.497000217E0,-1.326000094E0,7.780701355E0
1.079600438E0,-1.642950058E0,7.497000217E0,-1.287000060E0,7.782073394E0
1.081562271E0,-1.642950058E0,7.458000183E0,-1.287000060E0,7.744509073E0
1.083524054E0,-1.642950058E0,7.458000183E0,-1.210950017E0,7.732234578E0
1.085485552E0,-1.605000019E0,7.420050144E0,-1.134000063E0,7.675879451E0
1.087447133E0,-1.605000019E0,7.420050144E0,-1.096050024E0,7.670364715E0
1.089408709E0,-1.642950058E0,7.420050144E0,-9.420000315E-1,7.657923550E0
1.091370287E0,-1.605000019E0,7.305000305E0,-9.420000315E-1,7.538329960E0
1.093332133E0,-1.567050099E0,7.420050144E0,-7.510500550E-1,7.620817958E0
1.095293900E0,-1.567050099E0,7.381950378E0,-7.510500550E-1,7.583726893E0
1.097255760E0,-1.567050099E0,7.381950378E0,-7.890000343E-1,7.587579222E0
1.099217592E0,-1.567050099E0,7.381950378E0,-8.269500136E-1,7.591619309E0
1.101178946E0,-1.567050099E0,7.381950378E0,-7.510500550E-1,7.583726893E0
1.103140440E0,-1.489950061E0,7.305000305E0,-7.120500207E-1,7.489325462E0
1.105101965E0,-1.489950061E0,7.342950344E0,-7.510500550E-1,7.530135930E0
1.107063495E0,-1.489950061E0,7.305000305E0,-8.269500136E-1,7.501121714E0
1.109024856E0,-1.452000022E0,7.305000305E0,-8.269500136E-1,7.493675990E0
1.110986267E0,-1.375050068E0,7.267050266E0,-9.420000315E-1,7.455745859E0
1.112947961E0,-1.375050068E0,7.305000305E0,-9.810000658E-1,7.497743212E0
1.114909572E0,-1.297950029E0,7.305000305E0,-9.810000658E-1,7.483987231E0
1.116870943E0,-1.260000110E0,7.381950378E0,-1.018950105E0,7.557714667E0
1.118832368E0,-1.260000110E0,7.420050144E0,-1.057050109E0,7.600138114E0
1.120793791E0,-1.297950029E0,7.497000217E0,-1.018950105E0,7.676453990E0
1.122755214E0,-1.260000110E0,7.573050499E0,-1.134000063E0,7.760454257E0
1.124716906E0,-1.222050071E0,7.687950134E0,-1.057050109E0,7.855911060E0
1.126678519E0,-1.222050071E0,7.765050411E0,-1.171950102E0,7.947507868E0
1.128640106E0,-1.183050036E0,7.879950523E0,-1.171950102E0,8.053986260E0
1.130601690E0,-1.183050036E0,8.032950401E0,-1.096050024E0,8.193242654E0
1.132563355E0,-1.183050036E0,8.187000275E0,-1.096050024E0,8.344333799E0
1.134524996E0,-1.222050071E0,8.340000153E0,-1.057050109E0,8.495078802E0
1.136486518E0,-1.183050036E0,8.493000031E0,-1.018950105E0,8.635329538E0
1.138448075E0,-1.183050036E0,8.685000420E0,-9.810000658E-1,8.819932018E0
1.140409475E0,-1.222050071E0,8.914950371E0,-9.420000315E-1,9.047491948E0
1.142370921E0,-1.260000110E0,9.106050491E0,-9.040500522E-1,9.237156615E0
1.144332970E0,-1.260000110E0,9.298050880E0,-8.269500136E-1,9.419405330E0
1.146294842E0,-1.260000110E0,9.451050758E0,-7.510500550E-1,9.564206026E0
1.148256324E0,-1.336950064E0,9.643050194E0,-7.120500207E-1,9.761294368E0
1.150217921E0,-1.375050068E0,9.835050583E0,-7.510500550E-1,9.959069175E0
1.152179478E0,-1.375050068E0,9.988050461E0,-7.120500207E-1,1.010737008E1
1.154141059E0,-1.413000107E0,1.010295010E1,-6.360000372E-1,1.022108928E1
1.156102770E0,-1.413000107E0,1.025595093E1,-6.360000372E-1,1.037234760E1
1.158064442E0,-1.452000022E0,1.033305073E1,-5.590500236E-1,1.044953484E1
1.160025733E0,-1.528050065E0,1.041000080E1,-5.209500194E-1,1.053444078E1
1.161987136E0,-1.605000019E0,1.044795036E1,-4.819500148E-1,1.058149175E1
1.163948872E0,-1.605000019E0,1.048605061E1,-4.060500264E-1,1.061593891E1
1.165910514E0,-1.642950058E0,1.052505016E1,-4.440000355E-1,1.066175885E1
1.167871901E0,-1.681950092E0,1.052505016E1,-4.060500264E-1,1.066632616E1
1.169833363E0,-1.720050097E0,1.052505016E1,-4.440000355E-1,1.067391162E1
1.171794734E0,-1.795950055E0,1.056300068E1,-4.440000355E-1,1.072378459E1
1.173756132E0,-1.873050094E0,1.052505016E1,-4.440000355E-1,1.069963241E1
1.175717662E0,-1.911000133E0,1.048605061E1,-5.209500194E-1,1.067148386E1
1.177679144E0,-2.026050091E0,1.048605061E1,-5.209500194E-1,1.069268559E1
1.179640198E0,-2.103000164E0,1.048605061E1,-4.819500148E-1,1.070570609E1
1.181601377E0,-2.103000164E0,1.052505016E1,-4.819500148E-1,1.074390834E1
1.183562976E0,-2.218050003E0,1.052505016E1,-5.590500236E-1,1.077074573E1
1.185524452E0,-2.332950115E0,1.052505016E1,-4.440000355E-1,1.078964657E1
1.187486186E0,-2.448000193E0,1.052505016E1,-5.590500236E-1,1.082044005E1
1.189447841E0,-2.485950232E0,1.048605061E1,-5.970000029E-1,1.079322078E1
1.191409315E0,-2.524950027E0,1.048605061E1,-6.739500165E-1,1.080679594E1
1.193370843E0,-2.640000105E0,1.048605061E1,-7.510500550E-1,1.083932350E1
1.195332203E0,-2.677950144E0,1.044795036E1,-7.890000343E-1,1.081450900E1
1.197293612E0,-2.755050182E0,1.041000080E1,-8.269500136E-1,1.080010484E1
1.199255056E0,-2.755050182E0,1.044795036E1,-8.269500136E-1,1.083668836E1
1.201216476E0,-2.793000221E0,1.048605061E1,-8.659500480E-1,1.088613692E1
1.203177990E0,-2.830950022E0,1.041000080E1,-7.890000343E-1,1.081688106E1
1.205139476E0,-2.869950056E0,1.041000080E1,-7.120500207E-1,1.082181802E1
1.207101024E0,-2.830950022E0,1.044795036E1,-7.120500207E-1,1.084808555E1
1.209062553E0,-2.869950056E0,1.044795036E1,-7.510500550E-1,1.086095559E1
1.211024128E0,-2.908050060E0,1.048605061E1,-8.269500136E-1,1.091319654E1
1.212985696E0,-2.946000099E0,1.048605061E1,-8.659500480E-1,1.092639206E1
1.214947231E0,-2.985000134E0,1.048605061E1,-9.040500522E-1,1.094005437E1
1.216908775E0,-3.061050177E0,1.056300068E1,-1.096050024E0,1.105207389E1
1.218870447E0,-3.100050211E0,1.052505016E1,-1.096050024E0,1.102670930E1
1.220832081E0,-3.100050211E0,1.060095024E1,-1.249050021E0,1.111533100E1
1.222793410E0,-3.100050211E0,1.063995075E1,-1.402050018E0,1.117070309E1
1.224754838E0,-3.138000250E0,1.063995075E1,-1.479000092E0,1.119120364E1
1.226716260E0,-3.138000250E0,1.067805004E1,-1.555950046E0,1.123782803E1
1.228677684E0,-3.100050211E0,1.067805004E1,-1.671000123E0,1.124381187E1
1.230638837E0,-3.214950085E0,1.071600056E1,-1.747050047E0,1.132346042E1
1.232600069E0,-3.138000250E0,1.075500011E1,-1.824000120E0,1.135094928E1
1.234561285E0,-3.138000250E0,1.075500011E1,-1.861950040E0,1.135710927E1
1.236522516E0,-3.138000250E0,1.079295063E1,-1.900950074E0,1.139949297E1
1.238483790E0,-3.100050211E0,1.079295063E1,-1.900950074E0,1.138910470E1
1.240445052E0,-3.100050211E0,1.083105087E1,-1.977000117E0,1.143811627E1
1.242406412E0,-3.138000250E0,1.083105087E1,-1.900950074E0,1.143557256E1
1.244367744E0,-3.100050211E0,1.083105087E1,-1.900950074E0,1.142521709E1
1.246328999E0,-3.138000250E0,1.090800095E1,-1.900950074E0,1.150848128E1
1.248290280E0,-3.175950050E0,1.087005043E1,-1.939050078E0,1.148932419E1
1.250251681E0,-3.175950050E0,1.090800095E1,-1.939050078E0,1.152523573E1
1.252213047E0,-3.175950050E0,1.090800095E1,-1.861950040E0,1.151251499E1
1.254173895E0,-3.214950085E0,1.098495007E1,-1.900950074E0,1.160252745E1
1.256134895E0,-3.291000128E0,1.102305031E1,-1.861950040E0,1.165354787E1
1.258096355E0,-3.253050089E0,1.110000038E1,-1.786050081E0,1.170394456E1
1.260057673E0,-3.291000128E0,1.113795090E1,-1.747050047E0,1.174465052E1
1.262019204E0,-3.367950201E0,1.121400070E1,-1.747050047E0,1.183845785E1
1.263980673E0,-3.330000162E0,1.121400070E1,-1.632000089E0,1.181127161E1
1.265941864E0,-3.330000162E0,1.129095078E1,-1.555950046E0,1.187415054E1
1.267903136E0,-3.406050205E0,1.140600014E1,-1.441050053E0,1.199060642E1
1.269864225E0,-3.483000278E0,1.152105045E1,-1.402050018E0,1.211741056E1
1.271825367E0,-3.483000278E0,1.159800053E1,-1.287000060E0,1.217790115E1
1.273786927E0,-3.559950113E0,1.163595009E1,-1.249050021E0,1.223228128E1
1.275748365E0,-3.520950079E0,1.171305084E1,-1.249050021E0,1.229442050E1
1.277709606E0,-3.483000278E0,1.175100040E1,-1.171950102E0,1.231222029E1
1.279670905E0,-3.483000278E0,1.175100040E1,-1.096050024E0,1.230522763E1
1.281632288E0,-3.445050240E0,1.178895092E1,-1.018950105E0,1.232420360E1
1.283593625E0,-3.367950201E0,1.182795048E1,-9.040500522E-1,1.233129383E1
1.285555063E0,-3.291000128E0,1.178895092E1,-8.659500480E-1,1.227028586E1
1.287516471E0,-3.214950085E0,1.178895092E1,-8.659500480E-1,1.225010765E1
1.289477853E0,-3.138000250E0,1.171305084E1,-9.040500522E-1,1.215976612E1
1.291439242E0,-3.061050177E0,1.171305084E1,-9.040500522E-1,1.214013570E1
1.293400824E0,-2.985000134E0,1.171305084E1,-7.890000343E-1,1.211314604E1
1.295362336E0,-2.869950056E0,1.163595009E1,-6.739500165E-1,1.200358931E1
1.297324194E0,-2.793000221E0,1.159800053E1,-5.209500194E-1,1.194093193E1
1.299285951E0,-2.677950144E0,1.155900097E1,-5.970000029E-1,1.188016538E1
1.301247138E0,-2.524950027E0,1.152105045E1,-4.819500148E-1,1.180433192E1
1.303208492E0,-2.410050154E0,1.148295021E1,-3.289500177E-1,1.173774661E1
1.305170002E0,-2.256000042E0,1.144395065E1,-9.900000691E-2,1.166461931E1
1.307131476E0,-2.140950203E0,1.140600014E1,5.295000225E-2,1.160531390E1
1.309092125E0,-2.026050091E0,1.132905006E1,2.070000172E-1,1.151065173E1
1.311053016E0,-1.950000048E0,1.132905006E1,3.600000143E-1,1.150128147E1
1.313014349E0,-1.834950089E0,1.125300026E1,3.979500234E-1,1.140856787E1
1.314975553E0,-1.795950055E0,1.125300026E1,5.130000114E-1,1.140695492E1
1.316936903E0,-1.681950092E0,1.121400070E1,5.899500251E-1,1.135477031E1
1.318898225E0,-1.642950058E0,1.121400070E1,5.130000114E-1,1.134531911E1
1.320859801E0,-1.567050099E0,1.117605019E1,5.130000114E-1,1.129703115E1
1.322821302E0,-1.489950061E0,1.117605019E1,4.750500321E-1,1.128493338E1
1.324782847E0,-1.452000022E0,1.121400070E1,5.130000114E-1,1.131924400E1
1.326744379E0,-1.375050068E0,1.117605019E1,4.360500276E-1,1.126876214E1
1.328706636E0,-1.297950029E0,1.121400070E1,3.220500052E-1,1.129345838E1
1.330668683E0,-1.260000110E0,1.113795090E1,2.070000172E-1,1.121090538E1
1.332629955E0,-1.144950032E0,1.102305031E1,5.295000225E-2,1.108247952E1
1.334591454E0,-8.380500674E-1,1.079295063E1,-7.510500550E-1,1.085146015E1
1.336552098E0,-7.230000496E-1,1.106100082E1,6.280500293E-1,1.110238331E1
1.338512992E0,-7.999500632E-1,1.125300026E1,1.395000100E0,1.136731983E1
1.340474290E0,-8.770500422E-1,1.136805058E1,1.510050058E0,1.150139304E1
1.342435462E0,-8.770500422E-1,1.140600014E1,1.395000100E0,1.152441240E1
1.344396928E0,-7.999500632E-1,1.136805058E1,1.240950108E0,1.146352699E1
1.346358308E0,-7.230000496E-1,1.136805058E1,1.126049995E0,1.144654059E1
1.348319515E0,-5.700000525E-1,1.140600014E1,1.126049995E0,1.147561448E1
1.350280772E0,-4.930500090E-1,1.140600014E1,1.203000069E0,1.147985830E1
1.352241944E0,-3.780000210E-1,1.140600014E1,1.318050027E0,1.148812339E1
1.354203147E0,-3.019500077E-1,1.140600014E1,1.471050024E0,1.150443398E1
1.356164202E0,-1.480500102E-1,1.148295021E1,1.548000097E0,1.158776806E1
1.358125301E0,-7.200000435E-2,1.148295021E1,1.585950017E0,1.159217697E1
1.360086599E0,4.050000105E-3,1.140600014E1,1.701000094E0,1.153214017E1
1.362047838E0,1.570500135E-1,1.136805058E1,1.777950048E0,1.150731702E1
1.364009534E0,3.109500110E-1,1.132905006E1,1.816050053E0,1.147789628E1
1.365971116E0,3.870000243E-1,1.125300026E1,1.855050087E0,1.141144139E1
1.367933053E0,6.169500351E-1,1.113795090E1,2.008050203E0,1.133432147E1
1.369894886E0,7.699500322E-1,1.110000038E1,2.122950077E0,1.132738931E1
1.371855969E0,9.240000248E-1,1.098495007E1,2.314950228E0,1.126418655E1
1.373817272E0,1.114950061E0,1.083105087E1,2.430000067E0,1.115614974E1
1.375778476E0,1.192050099E0,1.067805004E1,2.506050110E0,1.103277043E1
1.377739719E0,1.269000053E0,1.048605061E1,2.545050144E0,1.086484692E1
1.379701127E0,1.384050012E0,1.037100029E1,2.620950222E0,1.078622369E1
1.381662486E0,1.422000051E0,1.006500053E1,2.736000061E0,1.052672866E1
1.383624100E0,1.306950092E0,9.796050072E0,2.583000183E0,1.021482283E1
1.385585640E0,1.345050097E0,9.681000710E0,2.659050226E0,1.012923899E1
1.387547120E0,1.459950089E0,9.490050316E0,2.851050138E0,1.001603695E1
1.389508628E0,1.459950089E0,9.259950638E0,2.889000177E0,9.809406817E0
1.391469856E0,1.537050128E0,9.067950249E0,3.043050051E0,9.687641530E0
1.393431166E0,1.614000082E0,8.761950493E0,3.043050051E0,9.414718600E0
1.395392383E0,1.651950121E0,8.569950104E0,2.965950251E0,9.217908921E0
1.397353628E0,1.690050125E0,8.302050591E0,2.928000212E0,8.964011305E0
1.399315059E0,1.729050040E0,8.032950401E0,2.812950134E0,8.685078851E0
1.401276419E0,1.651950121E0,7.765050411E0,2.736000061E0,8.397061595E0
1.403237629E0,1.575000048E0,7.573050499E0,2.620950222E0,8.167074083E0
1.405198883E0,1.459950089E0,7.305000305E0,2.467950106E0,7.847627759E0
1.407160064E0,1.384050012E0,7.075050354E0,2.391000032E0,7.595315208E0
1.409121267E0,1.306950092E0,6.883050442E0,2.161050081E0,7.331755546E0
1.411082566E0,1.230000019E0,6.691950321E0,2.161050081E0,7.138994089E0
1.413043823E0,1.077000022E0,6.577050209E0,2.008050203E0,6.960587915E0
1.415005005E0,8.850000501E-1,6.462000370E0,1.777950048E0,6.760309183E0
1.416966209E0,8.089500666E-1,6.346950531E0,1.663050056E0,6.610893793E0
1.418926588E0,6.550500393E-1,6.270000458E0,1.471050024E0,6.473483179E0
1.420887209E0,5.410500169E-1,6.232050419E0,1.432950020E0,6.417517690E0
1.422848693E0,3.870000243E-1,6.193950176E0,1.318050027E0,6.344449833E0
1.424809914E0,2.340000123E-1,6.154950142E0,1.240950108E0,6.283161977E0
1.426771012E0,4.200000316E-2,6.232050419E0,1.165050030E0,6.340154414E0
1.428732146E0,-1.099500060E-1,6.270000458E0,1.126049995E0,6.371262303E0
1.430693528E0,-2.250000089E-1,6.309000492E0,1.050000072E0,6.399735335E0
1.432654837E0,-4.170000255E-1,6.424050331E0,1.087950110E0,6.528854962E0
1.434615925E0,-5.700000525E-1,6.499950409E0,1.050000072E0,6.608839197E0
1.436577075E0,-6.850500107E-1,6.577050209E0,1.203000069E0,6.721167468E0
1.438538454E0,-8.770500422E-1,6.768000126E0,1.240950108E0,6.936497650E0
1.440499765E0,-9.529500604E-1,6.960000515E0,1.356000066E0,7.154610902E0
1.442460848E0,-1.106999993E0,7.152000427E0,1.356000066E0,7.363103644E0
1.444421998E0,-1.222050071E0,7.305000305E0,1.471050024E0,7.551186927E0
1.446383227E0,-1.375050068E0,7.534950256E0,1.471050024E0,7.799373451E0
1.448344443E0,-1.413000107E0,7.726950169E0,1.510050058E0,7.998911138E0
1.450305633E0,-1.605000019E0,7.957050323E0,1.510050058E0,8.256568663E0
1.452266830E0,-1.720050097E0,8.148000717E0,1.624950051E0,8.484630262E0
1.454227886E0,-1.911000133E0,8.416950226E0,1.663050056E0,8.789920824E0
1.456188984E0,-1.987950087E0,8.685000420E0,1.816050053E0,9.092811206E0
1.458150281E0,-2.026050091E0,8.953050613E0,1.893000126E0,9.372590023E0
1.460111520E0,-2.065050125E0,9.145050049E0,1.893000126E0,9.564508450E0
1.462072751E0,-2.103000164E0,9.412950516E0,2.085000038E0,9.867799768E0
1.464033984E0,-2.103000164E0,9.643050194E0,2.161050081E0,1.010352237E1
1.465995393E0,-2.179949999E0,9.873000145E0,2.238000154E0,1.035552792E1
1.467956751E0,-2.218050003E0,1.006500053E1,2.314950228E0,1.056328434E1
1.469917762E0,-2.256000042E0,1.029495049E1,2.391000032E0,1.080705431E1
1.471878888E0,-2.218050003E0,1.048605061E1,2.506050110E0,1.100714724E1
1.473840090E0,-2.179949999E0,1.063995075E1,2.506050110E0,1.114634564E1
1.475801270E0,-2.103000164E0,1.083105087E1,2.583000183E0,1.133164430E1
1.477762555E0,-2.065050125E0,1.090800095E1,2.659050226E0,1.141575511E1
1.479723809E0,-2.026050091E0,1.102305031E1,2.620950222E0,1.151007807E1
1.481685350E0,-1.950000048E0,1.113795090E1,2.659050226E0,1.161580813E1
1.483646808E0,-1.758000135E0,1.113795090E1,2.545050144E0,1.155948939E1
1.485608001E0,-1.681950092E0,1.117605019E1,2.353049994E0,1.154425823E1
1.487569271E0,-1.452000022E0,1.113795090E1,2.161050081E0,1.143819880E1
1.489530495E0,-1.297950029E0,1.110000038E1,2.085000038E0,1.136846111E1
1.491491733E0,-1.183050036E0,1.102305031E1,2.085000038E0,1.128071233E1
1.493452787E0,-1.106999993E0,1.102305031E1,1.855050087E0,1.123273332E1
1.495413892E0,-8.770500422E-1,1.094595051E1,1.663050056E0,1.110624981E1
1.497375008E0,-6.469500065E-1,1.079295063E1,1.548000097E0,1.092257442E1
1.499336121E0,-4.549500346E-1,1.067805004E1,1.471050024E0,1.078849945E1
1.501297012E0,-2.629500031E-1,1.052505016E1,1.432950020E0,1.062540208E1
1.503257969E0,-1.870500147E-1,1.041000080E1,1.318050027E0,1.049477776E1
1.505219771E0,-7.200000435E-2,1.033305073E1,1.126049995E0,1.039447497E1
1.507181304E0,4.050000105E-3,1.014105034E1,1.126049995E0,1.020337723E1
1.509142529E0,8.100000024E-2,1.002600002E1,1.087950110E0,1.008518086E1
1.511103844E0,2.340000123E-1,9.873000145E0,1.087950110E0,9.935518271E0
1.513065375E0,3.109500110E-1,9.720000267E0,8.959500194E-1,9.766156948E0
1.515026842E0,4.639500082E-1,9.565950394E0,7.810500264E-1,9.608990357E0
1.516988994E0,6.169500351E-1,9.412950516E0,7.429500222E-1,9.462359087E0
1.518950934E0,7.320000529E-1,9.220950127E0,7.050000429E-1,9.276786641E0
1.520912360E0,8.089500666E-1,9.106050491E0,7.429500222E-1,9.172051597E0
1.522873936E0,7.699500322E-1,8.953050613E0,8.200500607E-1,9.023437285E0
1.524835152E0,8.470500112E-1,8.877000809E0,9.730500579E-1,8.970254372E0
1.526796474E0,9.240000248E-1,8.800050735E0,1.050000072E0,8.910508916E0
1.528757829E0,9.240000248E-1,8.761950493E0,1.165050030E0,8.887232081E0
1.530719202E0,9.619500637E-1,8.685000420E0,1.165050030E0,8.815436562E0
1.532680544E0,1.000050068E0,8.608050346E0,1.240950108E0,8.754346810E0
1.534641896E0,1.039050102E0,8.569950104E0,1.318050027E0,8.732750184E0
1.536603285E0,1.039050102E0,8.532000542E0,1.279950023E0,8.689817629E0
1.538564663E0,1.000050068E0,8.493000031E0,1.318050027E0,8.652653092E0
1.540525689E0,8.089500666E-1,8.455050468E0,1.318050027E0,8.595320501E0
1.542486819E0,8.470500112E-1,8.493000031E0,1.240950108E0,8.624876834E0
1.544447932E0,7.320000529E-1,8.455050468E0,1.240950108E0,8.576926004E0
1.546409050E0,6.169500351E-1,8.532000542E0,1.203000069E0,8.638452972E0
1.548369579E0,5.020500422E-1,8.493000031E0,1.240950108E0,8.597852112E0
1.550330281E0,5.410500169E-1,8.532000542E0,1.203000069E0,8.633364207E0
1.552291620E0,4.260000288E-1,8.532000542E0,1.126049995E0,8.616524697E0
1.554252759E0,3.870000243E-1,8.569950104E0,1.203000069E0,8.662622176E0
1.556214321E0,3.109500110E-1,8.532000542E0,1.165050030E0,8.616789699E0
1.558175759E0,1.960500032E-1,8.569950104E0,1.240950108E0,8.661549374E0
1.560137135E0,1.570500135E-1,8.532000542E0,1.240950108E0,8.623204458E0
1.562098530E0,8.100000024E-2,8.493000031E0,1.203000069E0,8.578159458E0
1.564059583E0,4.200000316E-2,8.455050468E0,1.203000069E0,8.540307465E0
1.566020747E0,-3.299999982E-2,8.493000031E0,1.318050027E0,8.594730618E0
1.567981764E0,-7.200000435E-2,8.455050468E0,1.318050027E0,8.557471490E0
1.569942824E0,-1.480500102E-1,8.493000031E0,1.279950023E0,8.590182791E0
1.571904083E0,-1.870500147E-1,8.416950226E0,1.240950108E0,8.509993888E0
1.573865284E0,-3.019500077E-1,8.377950668E0,1.240950108E0,8.474738248E0
1.575826331E0,-3.780000210E-1,8.455050468E0,1.318050027E0,8.565513313E0
1.577787430E0,-5.320500135E-1,8.532000542E0,1.356000066E0,8.655451845E0
1.579748908E0,-6.850500107E-1,8.569950104E0,1.395000100E0,8.709728100E0
1.581710274E0,-7.230000496E-1,8.569950104E0,1.395000100E0,8.712795139E0
1.583671482E0,-7.999500632E-1,8.608050346E0,1.432950020E0,8.763092869E0
1.585632737E0,-8.380500674E-1,8.647050858E0,1.471050024E0,8.811231731E0
1.587594088E0,-8.770500422E-1,8.685000420E0,1.471050024E0,8.852256054E0
1.589555418E0,-9.529500604E-1,8.647050858E0,1.395000100E0,8.810540712E0
1.591516678E0,-9.529500604E-1,8.685000420E0,1.471050024E0,8.860097871E0
1.593477958E0,-1.030050039E0,8.685000420E0,1.510050058E0,8.875273886E0
1.595439359E0,-1.106999993E0,8.722949982E0,1.510050058E0,8.921634186E0
1.597400725E0,-1.106999993E0,8.761950493E0,1.471050024E0,8.953279488E0
1.599362234E0,-1.144950032E0,8.838000298E0,1.510050058E0,9.038883284E0
1.601323711E0,-1.183050036E0,8.838000298E0,1.510050058E0,9.043788356E0
1.603284901E0,-1.222050071E0,8.800050735E0,1.471050024E0,9.005458761E0
1.605246175E0,-1.260000110E0,8.761950493E0,1.471050024E0,8.973481202E0
1.607207803E0,-1.297950029E0,8.877000809E0,1.471050024E0,9.091193861E0
1.609169327E0,-1.336950064E0,8.877000809E0,1.471050024E0,9.096843794E0
1.611130630E0,-1.336950064E0,8.914950371E0,1.471050024E0,9.133879995E0
1.613092007E0,-1.336950064E0,8.877000809E0,1.395000100E0,9.084855756E0
1.615053572E0,-1.375050068E0,8.914950371E0,1.395000100E0,9.127602537E0
1.617015082E0,-1.413000107E0,8.877000809E0,1.395000100E0,9.096358499E0
1.618976491E0,-1.452000022E0,8.914950371E0,1.318050027E0,9.128083044E0
1.620937930E0,-1.413000107E0,8.953050613E0,1.240950108E0,9.148422911E0
1.622899615E0,-1.413000107E0,8.914950371E0,1.279950023E0,9.116533413E0
1.624861231E0,-1.375050068E0,8.914950371E0,1.279950023E0,9.110728558E0
1.626822622E0,-1.336950064E0,8.877000809E0,1.203000069E0,9.057360984E0
1.628784079E0,-1.375050068E0,8.877000809E0,1.165050030E0,9.058103975E0
1.630745406E0,-1.375050068E0,8.914950371E0,1.050000072E0,9.081277606E0
1.632706771E0,-1.375050068E0,8.838000298E0,1.087950110E0,9.010252349E0
1.634668009E0,-1.336950064E0,8.877000809E0,1.050000072E0,9.038311733E0
1.636629295E0,-1.413000107E0,8.685000420E0,5.509500504E-1,8.816424873E0
1.638590695E0,-1.297950029E0,8.800050735E0,1.500000060E-2,8.895267968E0
1.640552062E0,-1.336950064E0,8.877000809E0,9.730500579E-1,9.029695745E0
1.642513271E0,-1.528050065E0,8.877000809E0,1.395000100E0,9.114938598E0
1.644474526E0,-1.720050097E0,8.877000809E0,1.279950023E0,9.132249874E0
1.646435757E0,-1.873050094E0,8.761950493E0,1.165050030E0,9.035343638E0
1.648396992E0,-1.987950087E0,8.685000420E0,8.959500194E-1,8.954546570E0
1.650358222E0,-1.987950087E0,8.608050346E0,6.280500293E-1,8.856913862E0
1.652319454E0,-1.987950087E0,8.608050346E0,4.750500321E-1,8.847380903E0
1.654280459E0,-1.950000048E0,8.608050346E0,3.979500234E-1,8.835122816E0
1.656241531E0,-1.950000048E0,8.532000542E0,3.600000143E-1,8.759402573E0
1.658202258E0,-2.026050091E0,8.608050346E0,3.979500234E-1,8.852218590E0
1.660163079E0,-2.026050091E0,8.569950104E0,3.979500234E-1,8.815173735E0
1.662124244E0,-2.065050125E0,8.647050858E0,4.360500276E-1,8.900902212E0
1.664085308E0,-2.140950203E0,8.647050858E0,3.979500234E-1,8.917035411E0
1.666046522E0,-2.371050119E0,8.532000542E0,5.899500251E-1,8.874962138E0
1.668007692E0,-2.563050032E0,8.761950493E0,7.050000429E-1,9.156310773E0
1.669968784E0,-2.410050154E0,8.761950493E0,3.979500234E-1,9.096069613E0
1.671929910E0,-2.371050119E0,8.838000298E0,3.220500052E-1,9.156191574E0
1.673891518E0,-2.295000076E0,8.953050613E0,3.220500052E-1,9.248127207E0
1.675852985E0,-2.179949999E0,8.991000175E0,3.600000143E-1,9.258502372E0
1.677814491E0,-2.065050125E0,9.030000687E0,3.220500052E-1,9.268714076E0
1.679775985E0,-2.065050125E0,9.106050491E0,3.979500234E-1,9.345745117E0
1.681737338E0,-1.987950087E0,9.145050049E0,3.220500052E-1,9.364165854E0
1.683698742E0,-2.026050091E0,9.259950638E0,3.220500052E-1,9.484475789E0
1.685660888E0,-1.987950087E0,9.259950638E0,2.449500114E-1,9.474103222E0
1.687622817E0,-1.987950087E0,9.375000000E0,1.680000126E-1,9.584925381E0
1.689584065E0,-1.950000048E0,9.412950516E0,1.680000126E-1,9.614279047E0
1.691545512E0,-1.873050094E0,9.451050758E0,9.195000678E-2,9.635306528E0
1.693506721E0,-1.834950089E0,9.490050316E0,5.295000225E-2,9.665966094E0
1.695468021E0,-1.834950089E0,9.412950516E0,9.195000678E-2,9.590575272E0
1.697429195E0,-1.834950089E0,9.336000443E0,9.195000678E-2,9.515061792E0
1.699390406E0,-1.873050094E0,9.412950516E0,9.195000678E-2,9.597937740E0
1.701351639E0,-1.758000135E0,9.336000443E0,-2.205000073E-2,9.500102891E0
1.703312865E0,-1.642950058E0,9.298050880E0,-6.105000153E-2,9.442285855E0
1.705274277E0,-1.681950092E0,9.220950127E0,5.295000225E-2,9.373242825E0
1.707235635E0,-1.605000019E0,9.145050049E0,1.680000126E-1,9.286344246E0
1.709196124E0,-1.681950092E0,9.106050491E0,2.449500114E-1,9.263320796E0
1.711156867E0,-1.720050097E0,9.106050491E0,3.979500234E-1,9.275618152E0
1.713118181E0,-1.681950092E0,9.030000687E0,4.750500321E-1,9.197583435E0
1.715079327E0,-1.720050097E0,8.991000175E0,5.130000114E-1,9.168414558E0
1.717040641E0,-1.720050097E0,8.991000175E0,4.750500321E-1,9.166369457E0
1.719001889E0,-1.720050097E0,8.953050613E0,5.509500504E-1,9.133413030E0
1.720963252E0,-1.758000135E0,8.877000809E0,5.509500504E-1,9.066159815E0
1.722924582E0,-1.758000135E0,8.914950371E0,5.509500504E-1,9.103320853E0
1.724885617E0,-1.795950055E0,8.914950371E0,5.899500251E-1,9.113167273E0
1.726846738E0,-1.834950089E0,8.877000809E0,5.899500251E-1,9.083844242E0
1.728807802E0,-1.834950089E0,8.877000809E0,5.899500251E-1,9.083844242E0
1.730768886E0,-1.834950089E0,8.877000809E0,5.509500504E-1,9.081394780E0
1.732730141E0,-1.873050094E0,8.838000298E0,5.509500504E-1,9.051083464E0
1.734691346E0,-1.911000133E0,8.800050735E0,4.750500321E-1,9.017676363E0
1.736652402E0,-1.873050094E0,8.877000809E0,4.750500321E-1,9.084884839E0
1.738613502E0,-1.950000048E0,8.838000298E0,5.509500504E-1,9.067320189E0
1.740574794E0,-1.987950087E0,8.838000298E0,4.360500276E-1,9.069307274E0
1.742536033E0,-2.026050091E0,8.877000809E0,5.130000114E-1,9.119714433E0
1.744497578E0,-1.987950087E0,8.914950371E0,5.509500504E-1,9.150509910E0
1.746459033E0,-1.950000048E0,8.877000809E0,4.360500276E-1,9.099108922E0
1.748420272E0,-1.950000048E0,8.877000809E0,4.360500276E-1,9.099108922E0
1.750381574E0,-1.950000048E0,8.914950371E0,4.750500321E-1,9.138080369E0
1.752343346E0,-1.950000048E0,8.914950371E0,4.750500321E-1,9.138080369E0
1.754304970E0,-1.873050094E0,8.877000809E0,3.979500234E-1,9.081179672E0
1.756266450E0,-1.911000133E0,8.914950371E0,5.509500504E-1,9.134101356E0
1.758227972E0,-1.950000048E0,8.914950371E0,6.280500293E-1,9.147310377E0
1.760189379E0,-1.950000048E0,8.877000809E0,7.050000429E-1,9.115956812E0
1.762150819E0,-1.950000048E0,8.914950371E0,7.810500264E-1,9.159087260E0
1.764112185E0,-1.987950087E0,8.877000809E0,7.810500264E-1,9.130341070E0
1.766073579E0,-1.950000048E0,8.914950371E0,8.959500194E-1,9.169600141E0
1.768035276E0,-1.911000133E0,8.877000809E0,1.050000072E0,9.140873318E0
1.769996884E0,-1.950000048E0,8.877000809E0,1.126049995E0,9.158145671E0
1.771958457E0,-1.987950087E0,8.877000809E0,1.240950108E0,9.181124445E0
1.773920040E0,-2.026050091E0,8.800050735E0,1.356000066E0,9.131511819E0
1.775881506E0,-2.295000076E0,8.761950493E0,1.471050024E0,9.176207820E0
1.777843020E0,-2.332950115E0,8.877000809E0,1.510050058E0,9.301830507E0
1.779804427E0,-2.065050125E0,8.914950371E0,1.356000066E0,9.250919322E0
1.781765866E0,-2.026050091E0,8.800050735E0,1.432950020E0,9.143255311E0
1.783727420E0,-1.987950087E0,8.953050613E0,1.510050058E0,9.294585091E0
1.785688941E0,-1.834950089E0,8.991000175E0,1.471050024E0,9.293498489E0
1.787650483E0,-1.758000135E0,8.991000175E0,1.510050058E0,9.284874787E0
1.789612018E0,-1.795950055E0,9.030000687E0,1.510050058E0,9.329876751E0
1.791573557E0,-1.873050094E0,9.067950249E0,1.471050024E0,9.375501402E0
1.793535095E0,-1.911000133E0,9.145050049E0,1.471050024E0,9.457687353E0
1.795496634E0,-1.950000048E0,9.183000565E0,1.471050024E0,9.502314862E0
1.797458172E0,-1.950000048E0,9.259950638E0,1.471050024E0,9.576699545E0
1.799419667E0,-2.026050091E0,9.336000443E0,1.432950020E0,9.660182658E0
1.801381174E0,-2.065050125E0,9.451050758E0,1.395000100E0,9.774089100E0
1.803342897E0,-2.065050125E0,9.490050316E0,1.356000066E0,9.806335870E0
1.805304557E0,-2.065050125E0,9.565950394E0,1.432950020E0,9.890661490E0
1.807266076E0,-2.026050091E0,9.681000710E0,1.471050024E0,9.999532083E0
1.809227636E0,-2.103000164E0,9.720000267E0,1.432950020E0,1.004760472E1
1.811189370E0,-2.103000164E0,9.796050072E0,1.432950020E0,1.012119323E1
1.813151038E0,-2.103000164E0,9.873000145E0,1.395000100E0,1.019042525E1
1.815112421E0,-2.332950115E0,9.796050072E0,1.471050024E0,1.017689744E1
1.817073887E0,-2.371050119E0,1.002600002E1,1.471050024E0,1.040704297E1
1.819035617E0,-2.179949999E0,1.018005085E1,1.356000066E0,1.049877867E1
1.820997269E0,-2.026050091E0,1.021800041E1,1.203000069E0,1.048616329E1
1.822958803E0,-1.873050094E0,1.029495049E1,1.240950108E0,1.053728045E1
1.824920362E0,-1.834950089E0,1.033305073E1,1.356000066E0,1.058195234E1
1.826881852E0,-1.950000048E0,1.033305073E1,1.471050024E0,1.061783526E1
1.828843362E0,-2.140950203E0,1.044795036E1,1.510050058E0,1.077142450E1
1.830805130E0,-2.103000164E0,1.056300068E1,1.395000100E0,1.086027708E1
1.832766822E0,-1.987950087E0,1.063995075E1,1.240950108E0,1.089497383E1
1.834728285E0,-1.987950087E0,1.067805004E1,1.203000069E0,1.092794159E1
1.836689819E0,-1.987950087E0,1.067805004E1,1.318050027E0,1.094120442E1
1.838651357E0,-1.987950087E0,1.075500011E1,1.318050027E0,1.101631648E1
1.840612894E0,-2.026050091E0,1.075500011E1,1.395000100E0,1.103272096E1
1.842574477E0,-2.026050091E0,1.075500011E1,1.395000100E0,1.103272096E1
1.844536047E0,-2.026050091E0,1.083105087E1,1.318050027E0,1.109746808E1
1.846497351E0,-2.026050091E0,1.075500011E1,1.279950023E0,1.101876484E1
1.848458737E0,-1.987950087E0,1.079295063E1,1.203000069E0,1.104024176E1
1.850419986E0,-2.026050091E0,1.083105087E1,1.126049995E0,1.107630492E1
1.852381275E0,-1.987950087E0,1.079295063E1,9.730500579E-1,1.101755668E1
1.854342855E0,-1.950000048E0,1.079295063E1,9.349500537E-1,1.100747088E1
1.856304350E0,-2.026050091E0,1.079295063E1,1.011000037E0,1.102790929E1
1.858265851E0,-2.026050091E0,1.079295063E1,9.730500579E-1,1.102449494E1
1.860227350E0,-2.065050125E0,1.083105087E1,9.349500537E-1,1.106572305E1
1.862188536E0,-2.065050125E0,1.079295063E1,9.730500579E-1,1.103172886E1
1.864149814E0,-2.179949999E0,1.060095024E1,9.349500537E-1,1.086307781E1
1.866111081E0,-2.332950115E0,1.075500011E1,8.580000401E-1,1.103851656E1
1.868072352E0,-2.295000076E0,1.075500011E1,5.509500504E-1,1.101093088E1
1.870033720E0,-2.218050003E0,1.067805004E1,5.130000114E-1,1.091804321E1
1.871995053E0,-2.065050125E0,1.063995075E1,3.220500052E-1,1.084327904E1
1.873956132E0,-2.026050091E0,1.052505016E1,4.750500321E-1,1.072880387E1
1.875917285E0,-2.065050125E0,1.060095024E1,5.130000114E-1,1.081238859E1
1.877878349E0,-2.065050125E0,1.052505016E1,5.509500504E-1,1.073986308E1
1.879839439E0,-2.140950203E0,1.052505016E1,5.130000114E-1,1.075283766E1
1.881800678E0,-2.103000164E0,1.056300068E1,4.360500276E-1,1.077913413E1
1.883761884E0,-2.103000164E0,1.052505016E1,3.600000143E-1,1.073912895E1
1.885723659E0,-2.103000164E0,1.048605061E1,2.070000172E-1,1.069685543E1
1.887685268E0,-2.103000164E0,1.048605061E1,1.300500035E-1,1.069564304E1
1.889646390E0,-2.103000164E0,1.048605061E1,1.300500035E-1,1.069564304E1
1.891607655E0,-2.065050125E0,1.044795036E1,1.300500035E-1,1.065086906E1
1.893568871E0,-2.065050125E0,1.044795036E1,1.500000060E-2,1.065008562E1
1.895530108E0,-2.065050125E0,1.044795036E1,1.500000060E-2,1.065008562E1
1.897491381E0,-2.026050091E0,1.044795036E1,1.500000060E-2,1.064259230E1
1.899452644E0,-1.911000133E0,1.048605061E1,5.295000225E-2,1.065889218E1
1.901414185E0,-1.873050094E0,1.048605061E1,1.500000060E-2,1.065203262E1
1.903375644E0,-1.834950089E0,1.044795036E1,5.295000225E-2,1.060799285E1
1.905336881E0,-1.758000135E0,1.048605061E1,9.195000678E-2,1.063279251E1
1.907298184E0,-1.681950092E0,1.048605061E1,9.195000678E-2,1.062048343E1
1.909259403E0,-1.528050065E0,1.052505016E1,9.195000678E-2,1.063579206E1
1.911220646E0,-1.489950061E0,1.056300068E1,1.300500035E-1,1.066835730E1
1.913181694E0,-1.413000107E0,1.060095024E1,1.300500035E-1,1.069549570E1
1.915142800E0,-1.297950029E0,1.056300068E1,1.300500035E-1,1.064324061E1
1.917103646E0,-1.297950029E0,1.060095024E1,2.449500114E-1,1.068292192E1
1.919064569E0,-1.183050036E0,1.067805004E1,2.830500007E-1,1.074711484E1
1.921025177E0,-1.183050036E0,1.067805004E1,2.830500007E-1,1.074711484E1
1.922985877E0,-1.106999993E0,1.071600056E1,3.600000143E-1,1.077904063E1
1.924947378E0,-1.030050039E0,1.071600056E1,4.750500321E-1,1.077586858E1
1.926908644E0,-1.030050039E0,1.071600056E1,4.750500321E-1,1.077586858E1
1.928870018E0,-1.068000078E0,1.075500011E1,5.899500251E-1,1.082398691E1
1.930831350E0,-1.106999993E0,1.083105087E1,7.429500222E-1,1.091279463E1
1.932793150E0,-1.144950032E0,1.090800095E1,7.810500264E-1,1.099570072E1
1.934754812E0,-1.222050071E0,1.090800095E1,8.580000401E-1,1.100972548E1
1.936716150E0,-1.297950029E0,1.094595051E1,1.011000037E0,1.106890364E1
1.938677583E0,-1.413000107E0,1.102305031E1,1.087950110E0,1.116637107E1
1.940639144E0,-1.489950061E0,1.098495007E1,1.126049995E0,1.114257904E1
1.942600663E0,-1.567050099E0,1.106100082E1,1.318050027E0,1.124893956E1
1.944561846E0,-1.605000019E0,1.106100082E1,1.432950020E0,1.126832330E1
1.946523127E0,-1.681950092E0,1.102305031E1,1.510050058E0,1.125241509E1
1.948484709E0,-1.795950055E0,1.102305031E1,1.624950051E0,1.128598854E1
1.950446202E0,-1.911000133E0,1.102305031E1,1.701000094E0,1.131604882E1
1.952408123E0,-1.950000048E0,1.106100082E1,1.930950046E0,1.139635062E1
1.954369908E0,-2.065050125E0,1.106100082E1,2.161050081E0,1.145776194E1
1.956331541E0,-2.103000164E0,1.102305031E1,2.314950228E0,1.145815179E1
1.958293218E0,-2.179949999E0,1.098495007E1,2.545050144E0,1.148471115E1
1.960254733E0,-2.295000076E0,1.094595051E1,2.659050226E0,1.149571250E1
1.962216295E0,-2.332950115E0,1.090800095E1,2.812950134E0,1.150390496E1
1.964177829E0,-2.448000193E0,1.079295063E1,2.928000212E0,1.144786764E1
1.966139371E0,-2.524950027E0,1.075500011E1,3.081000090E0,1.146900003E1
1.968100729E0,-2.563050032E0,1.063995075E1,3.157950163E0,1.139080448E1
1.970062141E0,-2.601000071E0,1.056300068E1,3.234000206E0,1.134905027E1
1.972023340E0,-2.601000071E0,1.048605061E1,3.426000118E0,1.133401674E1
1.973984602E0,-2.524950027E0,1.033305073E1,3.618000269E0,1.123553452E1
1.975946362E0,-2.524950027E0,1.018005085E1,3.733050108E0,1.113303512E1
1.977907980E0,-2.485950232E0,1.006500053E1,3.924000263E0,1.108521368E1
1.979869910E0,-2.371050119E0,9.988050461E0,3.963000298E0,1.100401754E1
1.981831749E0,-2.218050003E0,9.835050583E0,4.039050102E0,1.086102626E1
1.983793417E0,-2.140950203E0,9.720000267E0,4.192950249E0,1.080013448E1
1.985755136E0,-2.026050091E0,9.565950394E0,4.153950214E0,1.062391586E1
1.987716778E0,-1.873050094E0,9.451050758E0,4.078050137E0,1.046236923E1
1.989678443E0,-1.681950092E0,9.375000000E0,4.192950249E0,1.040674843E1
1.991640005E0,-1.567050099E0,9.259950638E0,4.192950249E0,1.028509424E1
1.993601597E0,-1.413000107E0,9.145050049E0,4.192950249E0,1.015919984E1
1.995563306E0,-1.260000110E0,9.030000687E0,4.192950249E0,1.003540455E1
1.997524980E0,-1.183050036E0,8.991000175E0,4.153950214E0,9.974617483E0
1.999486482E0,-1.106999993E0,8.953050613E0,4.116000175E0,9.915846999E0
2.001448045E0,-9.919500351E-1,8.877000809E0,3.963000298E0,9.771923024E0
2.003409534E0,-1.106999993E0,8.685000420E0,3.924000263E0,9.594397289E0
2.005371045E0,-1.144950032E0,8.838000298E0,3.847950220E0,9.707104652E0
2.007332767E0,-7.999500632E-1,8.838000298E0,4.039050102E0,9.750081799E0
2.009294427E0,-4.549500346E-1,8.722949982E0,4.078050137E0,9.639882200E0
2.011255811E0,-1.870500147E-1,8.685000420E0,4.231050014E0,9.662608562E0
2.013217276E0,4.050000105E-3,8.608050346E0,4.345950127E0,9.642916036E0
2.015179547E0,2.719500065E-1,8.532000542E0,4.423050404E0,9.614175208E0
2.017141581E0,5.410500169E-1,8.493000031E0,4.576050282E0,9.662505928E0
2.019103351E0,8.089500666E-1,8.493000031E0,4.576050282E0,9.681202710E0
2.021065199E0,9.619500637E-1,8.416950226E0,4.653000355E0,9.665444187E0
2.023026713E0,1.192050099E0,8.377950668E0,4.653000355E0,9.657196961E0
2.024988305E0,1.306950092E0,8.302050591E0,4.729050159E0,9.643447411E0
2.026949699E0,1.422000051E0,8.224950790E0,4.690950394E0,9.574806277E0
2.028911151E0,1.651950121E0,8.148000717E0,4.614000320E0,9.508304467E0
2.030872839E0,1.920000076E0,8.071949959E0,4.576050282E0,9.475389839E0
2.032834457E0,2.111999989E0,8.032950401E0,4.461000443E0,9.428115456E0
2.034795833E0,2.341950178E0,8.032950401E0,4.384050369E0,9.446317824E0
2.036757290E0,2.494950056E0,8.032950401E0,4.269000053E0,9.432784816E0
2.038718976E0,2.649000168E0,7.957050323E0,4.116000175E0,9.342018475E0
2.040680595E0,2.839950085E0,7.879950523E0,3.886050224E0,9.233651666E0
2.042642300E0,3.031950235E0,7.765050411E0,3.694050074E0,9.117825183E0
2.044603980E0,3.184950113E0,7.879950523E0,3.426000118E0,9.163787660E0
2.046565315E0,3.300000191E0,7.842000484E0,3.157950163E0,9.075220223E0
2.048526751E0,3.415050268E0,7.918050289E0,2.928000212E0,9.106660966E0
2.050488351E0,3.492000103E0,7.918050289E0,2.698050022E0,9.064715055E0
2.052449903E0,3.607050180E0,7.957050323E0,2.353049994E0,9.047779016E0
2.054411800E0,3.645000219E0,8.032950401E0,2.161050081E0,9.082095364E0
2.056373595E0,3.568050146E0,8.071949959E0,1.893000126E0,9.026118073E0
2.058335262E0,3.568050146E0,7.879950523E0,1.356000066E0,8.755760291E0
2.060296973E0,3.262050152E0,7.995000362E0,8.959500194E-1,8.681228509E0
2.062258617E0,3.184950113E0,8.224950790E0,1.011000037E0,8.877828778E0
2.064220281E0,3.031950235E0,8.263050079E0,8.959500194E-1,8.847228113E0
2.066182022E0,2.802000046E0,8.608050346E0,9.730500579E-1,9.104754881E0
2.068143740E0,2.610000134E0,8.608050346E0,1.050000072E0,9.056110181E0
2.070105403E0,2.457000017E0,8.800050735E0,1.011000037E0,9.192380709E0
2.072067069E0,2.188950062E0,9.067950249E0,1.126049995E0,9.396127536E0
2.074028631E0,2.074050188E0,9.106050491E0,1.050000072E0,9.398102994E0
2.075990223E0,1.767000079E0,9.298050880E0,1.011000037E0,9.518306600E0
2.077951887E0,1.651950121E0,9.451050758E0,1.050000072E0,9.651621614E0
2.079913529E0,1.537050128E0,9.451050758E0,1.011000037E0,9.628447674E0
2.081875405E0,1.345050097E0,9.604950905E0,9.349500537E-1,9.743632446E0
2.083837216E0,1.269000053E0,9.796050072E0,1.126049995E0,9.941878431E0
2.085798754E0,1.153950095E0,9.910950661E0,1.279950023E0,1.005966281E1
2.087760372E0,1.000050068E0,1.010295010E1,1.395000100E0,1.024771809E1
2.089721897E0,7.699500322E-1,1.029495049E1,1.510050058E0,1.043355547E1
2.091683449E0,6.169500351E-1,1.037100029E1,1.585950017E0,1.050968657E1
2.093644090E0,5.020500422E-1,1.056300068E1,1.701000094E0,1.071085612E1
2.095604993E0,2.719500065E-1,1.067805004E1,1.740000129E0,1.082230613E1
2.097566775E0,1.570500135E-1,1.083105087E1,1.969950080E0,1.100986063E1
2.099528299E0,1.189500093E-1,1.102305031E1,2.238000154E0,1.124857466E1
2.101489840E0,4.050000105E-3,1.106100082E1,2.200050116E0,1.127767601E1
2.103451376E0,-1.099500060E-1,1.113795090E1,1.930950046E0,1.130462769E1
2.105413293E0,-2.250000089E-1,1.129095078E1,1.855050087E0,1.144453604E1
2.107375086E0,-3.780000210E-1,1.144395065E1,1.701000094E0,1.157584951E1
2.109336762E0,-5.700000525E-1,1.159800053E1,1.624950051E0,1.172514302E1
2.111298473E0,-7.230000496E-1,1.171305084E1,1.548000097E0,1.183700103E1
2.113260341E0,-7.999500632E-1,1.182795048E1,1.471050024E0,1.194589138E1
2.115222163E0,-1.030050039E0,1.190400028E1,1.432950020E0,1.203410036E1
2.117183645E0,-1.144950032E0,1.201905060E1,1.318050027E0,1.214519426E1
2.119145233E0,-1.260000110E0,1.213395023E1,1.165050030E0,1.225470074E1
2.121106942E0,-1.336950064E0,1.221105099E1,1.126049995E0,1.233552554E1
2.123068616E0,-1.452000022E0,1.221105099E1,1.050000072E0,1.234182201E1
2.125030132E0,-1.720050097E0,1.236405087E1,1.011000037E0,1.252399486E1
2.126991695E0,-1.911000133E0,1.236405087E1,7.429500222E-1,1.253290270E1
2.128953058E0,-2.065050125E0,1.240305042E1,5.899500251E-1,1.258761824E1
2.130914473E0,-2.295000076E0,1.244100094E1,5.509500504E-1,1.266290155E1
2.132876211E0,-2.563050032E0,1.267095089E1,8.200500607E-1,1.295355951E1
2.134837855E0,-2.830950022E0,1.267095089E1,7.810500264E-1,1.300681797E1
2.136799242E0,-3.100050211E0,1.274805069E1,7.429500222E-1,1.314058912E1
2.138760704E0,-3.367950201E0,1.270905018E1,6.660000086E-1,1.316459650E1
2.140722389E0,-3.598050117E0,1.267095089E1,4.360500276E-1,1.317911608E1
2.142684009E0,-3.675000191E0,1.255605030E1,3.220500052E-1,1.308677736E1
2.144646255E0,-3.712950230E0,1.236405087E1,2.449500114E-1,1.291184548E1
2.146608317E0,-3.636000156E0,1.221105099E1,1.300500035E-1,1.274155314E1
2.148569767E0,-3.559950113E0,1.194300079E1,-6.105000153E-2,1.246243314E1
2.150531396E0,-3.330000162E0,1.155900097E1,-2.140500098E-1,1.203101084E1
2.152492969E0,-3.138000250E0,1.125300026E1,-2.140500098E-1,1.168430048E1
2.154454555E0,-2.985000134E0,1.102305031E1,-9.900000691E-2,1.142049320E1
2.156416085E0,-2.908050060E0,1.071600056E1,-6.105000153E-2,1.110374487E1
2.158377632E0,-2.793000221E0,1.044795036E1,5.295000225E-2,1.081495819E1
2.160339483E0,-2.640000105E0,1.025595093E1,1.680000126E-1,1.059161716E1
2.162301245E0,-2.601000071E0,1.010295010E1,2.449500114E-1,1.043526725E1
2.164263286E0,-2.448000193E0,9.949950218E0,2.070000172E-1,1.024875911E1
2.166225245E0,-2.295000076E0,9.681000710E0,5.295000225E-2,9.949452437E0
2.168186938E0,-2.179949999E0,9.604950905E0,5.295000225E-2,9.849368893E0
2.170148709E0,-2.065050125E0,9.528000832E0,1.500000060E-2,9.749228527E0
2.172110342E0,-1.911000133E0,9.145050049E0,-9.900000691E-2,9.343107775E0
2.174072016E0,-1.452000022E0,8.224950790E0,-1.057050109E0,8.418757301E0
2.176033180E0,-1.144950032E0,8.722949982E0,-4.440000355E-1,8.808967192E0
2.177994487E0,-1.452000022E0,8.953050613E0,3.220500052E-1,9.075744353E0
2.179955929E0,-1.873050094E0,9.183000565E0,9.730500579E-1,9.422454162E0
2.181917331E0,-1.950000048E0,9.336000443E0,7.429500222E-1,9.566367084E0
2.183879929E0,-1.873050094E0,9.336000443E0,4.750500321E-1,9.533881342E0
2.185842177E0,-1.720050097E0,9.336000443E0,1.680000126E-1,9.494614294E0
2.187803820E0,-1.758000135E0,9.259950638E0,-2.205000073E-2,9.425377260E0
2.189765641E0,-1.642950058E0,9.259950638E0,-2.140500098E-1,9.407007394E0
2.191727311E0,-1.489950061E0,9.183000565E0,-2.910000086E-1,9.307638345E0
2.193689025E0,-1.413000107E0,9.145050049E0,-2.910000086E-1,9.258141860E0
2.195650848E0,-1.413000107E0,9.145050049E0,-3.670500219E-1,9.260844206E0
2.197612639E0,-1.297950029E0,9.030000687E0,-4.060500264E-1,9.131837893E0
2.199574195E0,-8.770500422E-1,8.224950790E0,-8.269500136E-1,8.312814121E0
2.201535810E0,-7.230000496E-1,8.377950668E0,-1.171950102E0,8.490362390E0
2.203497514E0,-8.380500674E-1,8.722949982E0,-2.910000086E-1,8.767945330E0
2.205459192E0,-1.144950032E0,8.914950371E0,2.449500114E-1,8.991509951E0
2.207421067E0,-1.336950064E0,9.067950249E0,3.600000143E-1,9.173045143E0
2.209382885E0,-1.336950064E0,9.183000565E0,1.680000126E-1,9.281333894E0
2.211344487E0,-1.297950029E0,9.145050049E0,1.300500035E-1,9.237614826E0
2.213306170E0,-1.297950029E0,9.106050491E0,-1.369500011E-1,9.199107844E0
2.215267684E0,-1.260000110E0,9.067950249E0,-2.910000086E-1,9.159694482E0
2.217229247E0,-1.222050071E0,8.953050613E0,-4.440000355E-1,9.046969531E0
2.219190781E0,-1.222050071E0,8.953050613E0,-4.060500264E-1,9.045186470E0
2.221152324E0,-1.106999993E0,8.838000298E0,-4.060500264E-1,8.916309487E0
2.223114055E0,-1.068000078E0,8.761950493E0,-3.670500219E-1,8.834428466E0
2.225075721E0,-1.030050039E0,8.722949982E0,-3.289500177E-1,8.789713737E0
2.227037284E0,-9.919500351E-1,8.685000420E0,-2.910000086E-1,8.746306544E0
2.228998877E0,-1.030050039E0,8.608050346E0,-2.140500098E-1,8.672101894E0
2.230960720E0,-1.030050039E0,8.608050346E0,-9.900000691E-2,8.670025078E0
2.232922490E0,-9.919500351E-1,8.608050346E0,1.500000060E-2,8.665028600E0
2.234884175E0,-1.030050039E0,8.569950104E0,-9.900000691E-2,8.632198380E0
2.236845882E0,-1.068000078E0,8.493000031E0,-6.105000153E-2,8.560105186E0
2.238807571E0,-1.068000078E0,8.532000542E0,-1.759500057E-1,8.600384632E0
2.240769266E0,-1.030050039E0,8.532000542E0,-2.205000073E-2,8.593981762E0
2.242730823E0,-1.106999993E0,8.493000031E0,-2.205000073E-2,8.564869217E0
2.244692420E0,-1.106999993E0,8.532000542E0,-9.900000691E-2,8.604085264E0
2.246654128E0,-1.106999993E0,8.493000031E0,-1.759500057E-1,8.566647939E0
2.248615803E0,-1.106999993E0,8.532000542E0,-2.140500098E-1,8.606177992E0
2.250577498E0,-1.068000078E0,8.532000542E0,-9.900000691E-2,8.599154517E0
2.252539187E0,-1.144950032E0,8.532000542E0,-9.900000691E-2,8.609050170E0
2.254501016E0,-1.068000078E0,8.569950104E0,1.300500035E-1,8.637220731E0
2.256462803E0,-1.106999993E0,8.569950104E0,-6.105000153E-2,8.641366840E0
2.258424309E0,-1.030050039E0,8.493000031E0,-1.759500057E-1,8.557044525E0
2.260385891E0,-1.030050039E0,8.455050468E0,-2.140500098E-1,8.520252280E0
2.262347601E0,-1.068000078E0,8.532000542E0,-2.140500098E-1,8.601248445E0
2.264309273E0,-9.919500351E-1,8.532000542E0,-3.670500219E-1,8.597309104E0
2.266271150E0,-1.030050039E0,8.532000542E0,-2.910000086E-1,8.598878842E0
2.268232966E0,-1.068000078E0,8.493000031E0,-2.520000041E-1,8.563596072E0
2.270194832E0,-1.106999993E0,8.532000542E0,-2.910000086E-1,8.608435586E0
2.272156673E0,-1.144950032E0,8.493000031E0,-2.520000041E-1,8.573532766E0
2.274118565E0,-1.068000078E0,8.455050468E0,-2.910000086E-1,8.527202566E0
2.276080442E0,-1.106999993E0,8.493000031E0,-2.520000041E-1,8.568547281E0
2.278042284E0,-1.106999993E0,8.455050468E0,-1.759500057E-1,8.529026077E0
2.280004137E0,-1.068000078E0,8.377950668E0,-2.140500098E-1,8.448461338E0
2.281966161E0,-1.030050039E0,8.302050591E0,-3.289500177E-1,8.372171475E0
2.283928135E0,-1.030050039E0,8.263050079E0,-2.910000086E-1,8.332087416E0
2.285889960E0,-9.529500604E-1,8.302050591E0,-3.670500219E-1,8.364620944E0
2.287851829E0,-9.919500351E-1,8.224950790E0,-2.140500098E-1,8.287315475E0
2.289813805E0,-9.529500604E-1,8.263050079E0,-2.140500098E-1,8.320572567E0
2.291775750E0,-1.030050039E0,8.148000717E0,-1.759500057E-1,8.214735369E0
2.293737395E0,-9.919500351E-1,8.224950790E0,-1.759500057E-1,8.286418936E0
2.295699132E0,-1.068000078E0,8.187000275E0,-6.105000153E-2,8.256592806E0
2.297660996E0,-1.068000078E0,8.071949959E0,-2.520000041E-1,8.146195695E0
2.299622822E0,-1.068000078E0,7.995000362E0,-4.060500264E-1,8.076232512E0
2.301584493E0,-1.030050039E0,7.995000362E0,-4.440000355E-1,8.073299815E0
2.303546209E0,-1.106999993E0,7.918050289E0,-3.289500177E-1,8.001823385E0
2.305507950E0,-1.144950032E0,7.842000484E0,-3.670500219E-1,7.933637747E0
2.307469677E0,-1.106999993E0,7.765050411E0,-3.289500177E-1,7.850456355E0
2.309431498E0,-1.106999993E0,7.765050411E0,-3.289500177E-1,7.850456355E0
2.311393292E0,-1.106999993E0,7.687950134E0,-3.670500219E-1,7.775908434E0
2.313355148E0,-1.144950032E0,7.612050533E0,-4.060500264E-1,7.708378592E0
2.315316985E0,-1.144950032E0,7.534950256E0,-4.819500148E-1,7.636665618E0
2.317278819E0,-1.222050071E0,7.497000217E0,-4.440000355E-1,7.608912844E0
2.319240663E0,-1.183050036E0,7.497000217E0,-3.289500177E-1,7.596895929E0
2.321202331E0,-1.297950029E0,7.420050144E0,-3.670500219E-1,7.541653939E0
2.323164050E0,-1.297950029E0,7.342950344E0,-4.440000355E-1,7.469988626E0
2.325125737E0,-1.375050068E0,7.342950344E0,-5.209500194E-1,7.488729623E0
2.327087434E0,-1.375050068E0,7.342950344E0,-4.440000355E-1,7.483770338E0
2.329048940E0,-1.452000022E0,7.420050144E0,-3.670500219E-1,7.569687835E0
2.331010506E0,-1.489950061E0,7.342950344E0,-4.060500264E-1,7.503582315E0
2.332972040E0,-1.489950061E0,7.381950378E0,-4.440000355E-1,7.543890151E0
2.334933583E0,-1.567050099E0,7.305000305E0,-4.819500148E-1,7.486718326E0
2.336895300E0,-1.605000019E0,7.342950344E0,-4.819500148E-1,7.531747515E0
2.338856966E0,-1.567050099E0,7.381950378E0,-4.819500148E-1,7.561819438E0
2.340818663E0,-1.605000019E0,7.420050144E0,-5.590500236E-1,7.612207704E0
2.342780350E0,-1.567050099E0,7.458000183E0,-5.970000029E-1,7.644201839E0
2.344742269E0,-1.528050065E0,7.534950256E0,-6.360000372E-1,7.714590619E0
2.346704120E0,-1.452000022E0,7.612050533E0,-6.739500165E-1,7.778549094E0
2.348665921E0,-1.489950061E0,7.687950134E0,-6.360000372E-1,7.856782070E0
2.350627737E0,-1.489950061E0,7.803000450E0,-6.739500165E-1,7.972513771E0
2.352589602E0,-1.489950061E0,7.842000484E0,-7.120500207E-1,8.013983904E0
2.354551442E0,-1.489950061E0,7.879950523E0,-7.510500550E-1,8.054666202E0
2.356513110E0,-1.528050065E0,7.918050289E0,-7.120500207E-1,8.095521763E0
2.358474829E0,-1.528050065E0,7.957050323E0,-7.120500207E-1,8.133670886E0
2.360436517E0,-1.528050065E0,7.918050289E0,-7.890000343E-1,8.102652556E0
2.362398214E0,-1.452000022E0,7.879950523E0,-7.890000343E-1,8.051362951E0
2.364359895E0,-1.413000107E0,7.879950523E0,-7.890000343E-1,8.044421086E0
2.366321588E0,-1.375050068E0,7.918050289E0,-7.890000343E-1,8.075196847E0
2.368283100E0,-1.375050068E0,7.918050289E0,-8.659500480E-1,8.083078161E0
2.370244665E0,-1.336950064E0,7.957050323E0,-9.040500522E-1,8.119075798E0
2.372206378E0,-1.375050068E0,7.957050323E0,-9.810000658E-1,8.134357606E0
2.374168048E0,-1.375050068E0,7.995000362E0,-1.057050109E0,8.180962561E0
2.376129739E0,-1.413000107E0,7.995000362E0,-1.096050024E0,8.192553067E0
2.378091427E0,-1.413000107E0,7.995000362E0,-1.171950102E0,8.203052306E0
2.380052806E0,-1.375050068E0,8.071949959E0,-1.171950102E0,8.271674913E0
2.382014276E0,-1.297950029E0,7.995000362E0,-1.249050021E0,8.195415244E0
2.383975465E0,-1.260000110E0,7.995000362E0,-1.249050021E0,8.189490645E0
2.385936737E0,-1.222050071E0,7.957050323E0,-1.210950017E0,8.140912490E0
2.387898261E0,-1.222050071E0,7.957050323E0,-1.249050021E0,8.146666937E0
2.389859721E0,-1.222050071E0,7.918050289E0,-1.287000060E0,8.114511440E0
2.391821139E0,-1.297950029E0,7.879950523E0,-1.287000060E0,8.089169530E0
2.393782569E0,-1.222050071E0,7.957050323E0,-1.363950014E0,8.165072925E0
2.395744080E0,-1.222050071E0,7.918050289E0,-1.363950014E0,8.127071207E0
2.397705567E0,-1.297950029E0,7.918050289E0,-1.402050018E0,8.145301647E0
2.399666931E0,-1.413000107E0,8.032950401E0,-1.402050018E0,8.275905129E0
2.401628334E0,-1.567050099E0,8.110050201E0,-1.441050053E0,8.384818754E0
2.403589895E0,-1.642950058E0,8.187000275E0,-1.441050053E0,8.473658221E0
2.405551409E0,-1.795950055E0,8.302050591E0,-1.479000092E0,8.621886214E0
2.407513177E0,-1.795950055E0,8.377950668E0,-1.516950130E0,8.701530423E0
2.409474870E0,-1.834950089E0,8.493000031E0,-1.441050053E0,8.807651026E0
2.411436535E0,-1.834950089E0,8.608050346E0,-1.363950014E0,8.906510666E0
2.413398228E0,-1.987950087E0,8.647050858E0,-1.402050018E0,8.982715532E0
2.415359920E0,-2.026050091E0,8.800050735E0,-1.479000092E0,9.150585401E0
2.417321613E0,-2.065050125E0,8.800050735E0,-1.402050018E0,9.147189143E0
2.419283440E0,-2.103000164E0,8.877000809E0,-1.516950130E0,9.247966844E0
2.421245227E0,-2.140950203E0,8.914950371E0,-1.555950046E0,9.299515494E0
2.423206612E0,-2.218050003E0,8.953050613E0,-1.594050050E0,9.360441051E0
2.425168098E0,-2.295000076E0,9.030000687E0,-1.632000089E0,9.458930280E0
2.427129780E0,-2.371050119E0,9.106050491E0,-1.632000089E0,9.550154894E0
2.429091404E0,-2.485950232E0,9.259950638E0,-1.479000092E0,9.701240933E0
2.431052929E0,-2.601000071E0,9.336000443E0,-1.287000060E0,9.776629009E0
2.433014483E0,-2.640000105E0,9.451050758E0,-1.210950017E0,9.887282788E0
2.434976013E0,-2.716050148E0,9.565950394E0,-1.171950102E0,1.001288182E1
2.436937554E0,-2.869950056E0,9.643050194E0,-1.134000063E0,1.012477094E1
2.438899136E0,-2.830950022E0,9.757950783E0,-1.134000063E0,1.022339658E1
2.440860706E0,-2.869950056E0,9.835050583E0,-1.096050024E0,1.030369637E1
2.442822060E0,-2.908050060E0,9.949950218E0,-1.096050024E0,1.042399109E1
2.444783478E0,-2.908050060E0,1.006500053E1,-9.810000658E-1,1.052251643E1
2.446745158E0,-2.985000134E0,1.014105034E1,-9.040500522E-1,1.060982725E1
2.448706770E0,-2.985000134E0,1.025595093E1,-8.659500480E-1,1.071655844E1
2.450668162E0,-2.985000134E0,1.033305073E1,-7.890000343E-1,1.078446495E1
2.452629618E0,-3.100050211E0,1.041000080E1,-7.120500207E-1,1.088510189E1
2.454591170E0,-3.138000250E0,1.048605061E1,-6.360000372E-1,1.096397733E1
2.456552693E0,-3.138000250E0,1.060095024E1,-5.209500194E-1,1.106790768E1
2.458514341E0,-3.175950050E0,1.067805004E1,-4.440000355E-1,1.114919492E1
2.460475972E0,-3.291000128E0,1.075500011E1,-3.670500219E-1,1.125324109E1
2.462437315E0,-3.330000162E0,1.079295063E1,-2.910000086E-1,1.129873291E1
2.464398743E0,-3.367950201E0,1.083105087E1,-2.910000086E-1,1.134634005E1
2.466360165E0,-3.367950201E0,1.087005043E1,-2.140500098E-1,1.138186726E1
2.468321589E0,-3.445050240E0,1.087005043E1,-1.369500011E-1,1.140373285E1
2.470283135E0,-3.445050240E0,1.083105087E1,-1.759500057E-1,1.136710133E1
2.472244653E0,-3.406050205E0,1.083105087E1,-2.140500098E-1,1.135599658E1
2.474206195E0,-3.367950201E0,1.083105087E1,-1.759500057E-1,1.134397241E1
2.476167730E0,-3.367950201E0,1.071600056E1,-2.520000041E-1,1.123562462E1
2.478129269E0,-3.330000162E0,1.067805004E1,-2.910000086E-1,1.118902743E1
2.480090807E0,-3.253050089E0,1.060095024E1,-4.060500264E-1,1.109627674E1
2.482052273E0,-3.291000128E0,1.048605061E1,-4.060500264E-1,1.099785505E1
2.484013780E0,-3.214950085E0,1.037100029E1,-5.209500194E-1,1.087036982E1
2.485975143E0,-3.175950050E0,1.033305073E1,-6.360000372E-1,1.082880843E1
2.487936549E0,-3.138000250E0,1.021800041E1,-8.269500136E-1,1.072093393E1
2.489897795E0,-3.138000250E0,1.014105034E1,-9.420000315E-1,1.065717184E1
2.491859088E0,-3.100050211E0,1.006500053E1,-1.018950105E0,1.058077532E1
2.493820644E0,-3.061050177E0,9.988050461E0,-1.171950102E0,1.051211906E1
2.495782139E0,-3.022950172E0,9.988050461E0,-1.249050021E0,1.050997173E1
2.497743461E0,-3.022950172E0,9.949950218E0,-1.326000094E0,1.048322533E1
2.499704833E0,-2.946000099E0,9.949950218E0,-1.363950014E0,1.046617340E1
2.501666399E0,-2.946000099E0,9.949950218E0,-1.363950014E0,1.046617340E1
2.503627908E0,-2.985000134E0,9.988050461E0,-1.441050053E0,1.052368771E1
2.505589618E0,-2.946000099E0,9.949950218E0,-1.402050018E0,1.047120672E1
2.507551279E0,-2.985000134E0,9.949950218E0,-1.402050018E0,1.048224591E1
2.509512798E0,-2.908050060E0,9.988050461E0,-1.326000094E0,1.048695301E1
2.511474358E0,-2.985000134E0,1.006500053E1,-1.326000094E0,1.058171715E1
2.513435937E0,-2.946000099E0,1.014105034E1,-1.326000094E0,1.064321825E1
2.515397510E0,-2.985000134E0,1.021800041E1,-1.287000060E0,1.072259891E1
2.517359043E0,-2.946000099E0,1.029495049E1,-1.171950102E0,1.077211164E1
2.519320588E0,-2.946000099E0,1.041000080E1,-1.096050024E0,1.087420613E1
2.521282260E0,-2.908050060E0,1.052505016E1,-9.810000658E-1,1.096338439E1
2.523243894E0,-2.985000134E0,1.063995075E1,-9.040500522E-1,1.108765459E1
2.525205282E0,-2.985000134E0,1.079295063E1,-7.120500207E-1,1.122074081E1
2.527166742E0,-2.985000134E0,1.087005043E1,-5.590500236E-1,1.128630848E1
2.529128297E0,-2.985000134E0,1.098495007E1,-4.440000355E-1,1.139194846E1
2.531089821E0,-2.985000134E0,1.113795090E1,-3.289500177E-1,1.153570042E1
2.533051678E0,-2.985000134E0,1.129095078E1,-2.140500098E-1,1.168082243E1
2.535013437E0,-2.985000134E0,1.136805058E1,-1.369500011E-1,1.175421435E1
2.536975164E0,-2.946000099E0,1.152105045E1,-2.205000073E-2,1.189176212E1
2.538936900E0,-2.946000099E0,1.159800053E1,-2.205000073E-2,1.196632855E1
2.540898152E0,-2.908050060E0,1.171305084E1,5.295000225E-2,1.206876625E1
2.542859565E0,-2.830950022E0,1.186605072E1,5.295000225E-2,1.219919020E1
2.544821304E0,-2.830950022E0,1.198095036E1,5.295000225E-2,1.231098100E1
2.546782947E0,-2.755050182E0,1.209600067E1,9.195000678E-2,1.240612706E1
2.548744469E0,-2.677950144E0,1.221105099E1,9.195000678E-2,1.250158542E1
2.550706026E0,-2.563050032E0,1.224900055E1,1.300500035E-1,1.251495717E1
2.552667051E0,-2.524950027E0,1.244100094E1,2.449500114E-1,1.269700270E1
2.554628242E0,-2.371050119E0,1.244100094E1,4.360500276E-1,1.267243160E1
2.556589839E0,-2.218050003E0,1.263300037E1,5.509500504E-1,1.283806801E1
2.558551317E0,-2.103000164E0,1.267095089E1,7.050000429E-1,1.286361657E1
2.560512866E0,-2.065050125E0,1.274805069E1,9.730500579E-1,1.295083221E1
2.562474394E0,-1.911000133E0,1.286295033E1,1.087950110E0,1.304956122E1
2.564436114E0,-1.758000135E0,1.290105057E1,1.279950023E0,1.308304025E1
2.566397778E0,-1.681950092E0,1.293900108E1,1.432950020E0,1.312631140E1
2.568359475E0,-1.528050065E0,1.297800064E1,1.471050024E0,1.315018729E1
2.570321163E0,-1.375050068E0,1.301595020E1,1.510050058E0,1.317520298E1
2.572283577E0,-1.222050071E0,1.236405087E1,8.200500607E-1,1.245133094E1
2.574245778E0,-8.380500674E-1,1.182795048E1,-6.739500165E-1,1.187673983E1
2.576206448E0,-5.700000525E-1,1.244100094E1,1.279950023E0,1.251965161E1
2.578167560E0,-8.770500422E-1,1.278600025E1,2.698050022E0,1.309696504E1
2.580128855E0,-1.106999993E0,1.320795059E1,2.851050138E0,1.355742950E1
2.582090096E0,-1.260000110E0,1.328400040E1,2.275950193E0,1.353632949E1
2.584051686E0,-1.260000110E0,1.339905071E1,1.510050058E0,1.354261465E1
2.586013173E0,-1.222050071E0,1.316895103E1,8.580000401E-1,1.325333323E1
2.587974705E0,-8.770500422E-1,1.274805069E1,-4.819500148E-1,1.278727058E1
2.589936235E0,-7.620000243E-1,1.316895103E1,6.660000086E-1,1.320778071E1
2.591897775E0,-9.150000215E-1,1.328400040E1,1.318050027E0,1.338055109E1
2.593859312E0,-9.919500351E-1,1.336095047E1,1.471050024E0,1.347823989E1
2.595821166E0,-9.150000215E-1,1.336095047E1,1.432950020E0,1.346868844E1
2.597782927E0,-7.999500632E-1,1.324605083E1,1.318050027E0,1.333548044E1
2.599744244E0,-6.850500107E-1,1.309305096E1,1.318050027E0,1.317704568E1
2.601705694E0,-5.700000525E-1,1.290105057E1,1.318050027E0,1.298072655E1
2.603667067E0,-4.170000255E-1,1.270905018E1,1.395000100E0,1.279218006E1
2.605628463E0,-2.629500031E-1,1.247895050E1,1.432950020E0,1.256370543E1
2.607589845E0,-7.200000435E-2,1.224900055E1,1.471050024E0,1.233722767E1
2.609551232E0,4.200000316E-2,1.205805016E1,1.585950017E0,1.216197250E1
2.611512809E0,1.189500093E-1,1.190400028E1,1.663050056E0,1.202019581E1
2.613474352E0,2.340000123E-1,1.167405033E1,1.740000129E0,1.180532963E1
2.615435846E0,3.109500110E-1,1.155900097E1,1.816050053E0,1.170492337E1
2.617397354E0,3.490500152E-1,1.140600014E1,1.855050087E0,1.156113688E1
2.619359257E0,4.639500082E-1,1.125300026E1,1.930950046E0,1.142689076E1
2.621321044E0,5.020500422E-1,1.113795090E1,2.008050203E0,1.132864820E1
2.623283241E0,5.020500422E-1,1.098495007E1,2.046000004E0,1.118513738E1
2.625245332E0,6.550500393E-1,1.087005043E1,1.969950080E0,1.106651663E1
2.627207002E0,6.169500351E-1,1.075500011E1,1.969950080E0,1.095131764E1
2.629168795E0,7.320000529E-1,1.063995075E1,2.008050203E0,1.085249472E1
2.631130245E0,8.089500666E-1,1.044795036E1,2.122950077E0,1.069209914E1
2.633091795E0,8.089500666E-1,1.029495049E1,2.238000154E0,1.056641142E1
2.635053143E0,9.240000248E-1,1.002600002E1,2.275950193E0,1.032251916E1
2.637014556E0,9.240000248E-1,9.835050583E0,2.353049994E0,1.015474472E1
2.638976295E0,1.000050068E0,9.565950394E0,2.391000032E0,9.910821774E0
2.640937938E0,1.077000022E0,9.336000443E0,2.391000032E0,9.697304495E0
2.642899505E0,1.077000022E0,9.145050049E0,2.391000032E0,9.513608705E0
2.644861094E0,1.153950095E0,8.838000298E0,2.430000067E0,9.238330499E0
2.646822957E0,1.153950095E0,8.647050858E0,2.391000032E0,9.045439210E0
2.648784727E0,1.114950061E0,8.377950668E0,2.314950228E0,8.763113921E0
2.650746452E0,1.153950095E0,8.110050201E0,2.238000154E0,8.491946761E0
2.652708190E0,1.114950061E0,7.842000484E0,2.122950077E0,8.200426956E0
2.654670008E0,1.114950061E0,7.573050499E0,2.085000038E0,7.933563680E0
2.656631803E0,1.039050102E0,7.420050144E0,1.969950080E0,7.747094460E0
2.658593524E0,1.000050068E0,7.113000393E0,1.930950046E0,7.437973031E0
2.660555267E0,9.619500637E-1,6.922050476E0,1.777950048E0,7.211188327E0
2.662517265E0,8.470500112E-1,6.691950321E0,1.740000129E0,6.966153406E0
2.664479188E0,7.699500322E-1,6.499950409E0,1.585950017E0,6.734791446E0
2.666439986E0,6.550500393E-1,6.346950531E0,1.471050024E0,6.548042438E0
2.668401113E0,5.410500169E-1,6.193950176E0,1.471050024E0,6.389189470E0
2.670362901E0,5.020500422E-1,6.040050507E0,1.279950023E0,6.194557000E0
2.672324496E0,4.260000288E-1,5.887050152E0,1.126049995E0,6.008895415E0
2.674286205E0,3.870000243E-1,5.734050274E0,9.730500579E-1,5.828887370E0
2.676247880E0,3.109500110E-1,5.695050240E0,8.200500607E-1,5.762184416E0
2.678209711E0,2.719500065E-1,5.656950474E0,6.660000086E-1,5.702508350E0
2.680171496E0,2.719500065E-1,5.580000401E0,4.750500321E-1,5.606784623E0
2.682133403E0,2.340000123E-1,5.619000435E0,4.750500321E-1,5.643898867E0
2.684095270E0,2.340000123E-1,5.695050240E0,3.979500234E-1,5.713730608E0
2.686057113E0,1.189500093E-1,5.809950352E0,4.360500276E-1,5.827504768E0
2.688018964E0,4.050000105E-3,5.925000191E0,5.130000114E-1,5.947168459E0
2.689980765E0,-1.099500060E-1,6.040050507E0,5.509500504E-1,6.066122739E0
2.691942580E0,-3.019500077E-1,6.193950176E0,5.130000114E-1,6.222488377E0
2.693904227E0,-3.780000210E-1,6.385050297E0,5.899500251E-1,6.423378577E0
2.695865940E0,-5.700000525E-1,6.577050209E0,7.050000429E-1,6.639240512E0
2.697827853E0,-5.700000525E-1,6.807000160E0,7.429500222E-1,6.871108060E0
2.699789708E0,-7.230000496E-1,6.960000515E0,8.580000401E-1,7.049858177E0
2.701751193E0,-7.620000243E-1,7.189950466E0,1.087950110E0,7.311611805E0
2.703712787E0,-8.380500674E-1,7.420050144E0,1.240950108E0,7.569638646E0
2.705674615E0,-9.150000215E-1,7.612050533E0,1.395000100E0,7.792725046E0
2.707636385E0,-9.919500351E-1,7.842000484E0,1.432950020E0,8.033323237E0
2.709597930E0,-1.030050039E0,8.071949959E0,1.395000100E0,8.256113159E0
2.711559541E0,-1.144950032E0,8.377950668E0,1.395000100E0,8.570122126E0
2.713521246E0,-1.222050071E0,8.685000420E0,1.471050024E0,8.893066222E0
2.715482923E0,-1.336950064E0,8.914950371E0,1.471050024E0,9.133879995E0
2.717444730E0,-1.413000107E0,9.183000565E0,1.471050024E0,9.406809068E0
2.719406515E0,-1.528050065E0,9.490050316E0,1.510050058E0,9.730171796E0
2.721368012E0,-1.605000019E0,9.720000267E0,1.510050058E0,9.966678556E0
2.723329594E0,-1.681950092E0,9.910950661E0,1.548000097E0,1.017114563E1
2.725291170E0,-1.642950058E0,1.018005085E1,1.548000097E0,1.042732106E1
2.727252748E0,-1.758000135E0,1.044795036E1,1.740000129E0,1.073675145E1
2.729214472E0,-1.834950089E0,1.067805004E1,1.816050053E0,1.098571037E1
2.731176144E0,-1.873050094E0,1.090800095E1,1.855050087E0,1.122203244E1
2.733137975E0,-1.873050094E0,1.106100082E1,1.855050087E0,1.137080765E1
2.735099760E0,-1.950000048E0,1.121400070E1,1.855050087E0,1.153245519E1
2.737061302E0,-1.873050094E0,1.140600014E1,1.855050087E0,1.170668043E1
2.739022916E0,-1.873050094E0,1.144395065E1,1.893000126E0,1.174971373E1
2.740984411E0,-1.834950089E0,1.155900097E1,1.855050087E0,1.184984203E1
2.742945931E0,-1.795950055E0,1.163595009E1,1.701000094E0,1.189597295E1
2.744907651E0,-1.720050097E0,1.167405033E1,1.701000094E0,1.192205623E1
2.746869313E0,-1.528050065E0,1.163595009E1,1.624950051E0,1.184781558E1
2.748830831E0,-1.452000022E0,1.155900097E1,1.548000097E0,1.175223859E1
2.750792392E0,-1.260000110E0,1.144395065E1,1.510050058E0,1.161171210E1
2.752754101E0,-1.106999993E0,1.136805058E1,1.471050024E0,1.151616303E1
2.754715770E0,-9.150000215E-1,1.121400070E1,1.432950020E0,1.134215070E1
2.756676971E0,-7.230000496E-1,1.106100082E1,1.432950020E0,1.117684276E1
2.758638310E0,-5.320500135E-1,1.083105087E1,1.432950020E0,1.093837675E1
2.760599837E0,-5.320500135E-1,1.052505016E1,1.432950020E0,1.063546444E1
2.762561308E0,-4.930500090E-1,1.056300068E1,1.318050027E0,1.065632852E1
2.764522893E0,-2.629500031E-1,1.033305073E1,1.165050030E0,1.040184703E1
2.766484452E0,-3.299999982E-2,1.014105034E1,1.011000037E0,1.019137439E1
2.768446122E0,8.100000024E-2,9.988050461E0,9.349500537E-1,1.003204090E1
2.770407760E0,1.960500032E-1,9.873000145E0,1.050000072E0,9.930612651E0
2.772369461E0,3.109500110E-1,9.796050072E0,1.050000072E0,9.857067874E0
2.774331144E0,4.639500082E-1,9.643050194E0,1.050000072E0,9.711136226E0
2.776293394E0,6.169500351E-1,9.565950394E0,1.087950110E0,9.647365947E0
2.778255467E0,6.550500393E-1,9.451050758E0,1.087950110E0,9.535989012E0
2.780217095E0,6.940500140E-1,9.336000443E0,1.087950110E0,9.424767643E0
2.782178854E0,6.550500393E-1,9.298050880E0,1.126049995E0,9.388867308E0
2.784140400E0,6.550500393E-1,9.183000565E0,1.126049995E0,9.274943586E0
2.786102008E0,6.169500351E-1,9.067950249E0,1.126049995E0,9.158402571E0
2.788063677E0,7.320000529E-1,8.953050613E0,1.126049995E0,9.053227488E0
2.790025322E0,7.320000529E-1,8.953050613E0,1.126049995E0,9.053227488E0
2.791987068E0,7.699500322E-1,8.877000809E0,1.126049995E0,8.981200087E0
2.793948784E0,8.089500666E-1,8.838000298E0,1.126049995E0,8.946096247E0
2.795910428E0,8.850000501E-1,8.838000298E0,1.203000069E0,8.963296465E0
2.797872094E0,8.470500112E-1,8.838000298E0,1.240950108E0,8.964803408E0
2.799833295E0,8.089500666E-1,8.722949982E0,1.203000069E0,8.842593837E0
2.801794632E0,8.470500112E-1,8.685000420E0,1.203000069E0,8.808741975E0
2.803756339E0,7.699500322E-1,8.647050858E0,1.165050030E0,8.759089745E0
2.805717938E0,7.320000529E-1,8.569950104E0,1.165050030E0,8.679701057E0
2.807679467E0,7.699500322E-1,8.532000542E0,1.165050030E0,8.645530514E0
2.809641017E0,7.699500322E-1,8.455050468E0,1.203000069E0,8.574841727E0
2.811602752E0,8.470500112E-1,8.377950668E0,1.165050030E0,8.500875996E0
2.813564419E0,9.240000248E-1,8.302050591E0,1.087950110E0,8.423862267E0
2.815526161E0,9.240000248E-1,8.224950790E0,1.203000069E0,8.363659529E0
2.817487881E0,1.000050068E0,8.148000717E0,1.279950023E0,8.308326419E0
2.819449704E0,1.000050068E0,8.071949959E0,1.356000066E0,8.245920959E0
2.821411496E0,9.240000248E-1,7.957050323E0,1.279950023E0,8.112132763E0
2.823373182E0,8.089500666E-1,7.957050323E0,1.240950108E0,8.093763478E0
2.825334892E0,8.470500112E-1,7.957050323E0,1.050000072E0,8.070603678E0
2.827296266E0,5.410500169E-1,7.726950169E0,9.730500579E-1,7.806748391E0
2.829257738E0,5.790000558E-1,7.995000362E0,7.810500264E-1,8.053900360E0
2.831219467E0,7.320000529E-1,8.148000717E0,1.240950108E0,8.274400095E0
2.833181121E0,6.550500393E-1,8.187000275E0,1.279950023E0,8.312300290E0
2.835141896E0,5.020500422E-1,8.187000275E0,1.165050030E0,8.284706954E0
2.837102945E0,5.410500169E-1,8.340000153E0,1.356000066E0,8.466821945E0
2.839064746E0,5.410500169E-1,8.340000153E0,1.432950020E0,8.479486035E0
2.841026327E0,5.020500422E-1,8.493000031E0,1.471050024E0,8.634065782E0
2.842988174E0,5.410500169E-1,8.608050346E0,1.548000097E0,8.762851715E0
2.844949943E0,4.639500082E-1,8.685000420E0,1.585950017E0,8.840798570E0
2.846911467E0,4.260000288E-1,8.761950493E0,1.701000094E0,8.935695484E0
2.848873046E0,5.020500422E-1,8.838000298E0,1.740000129E0,9.021635326E0
2.850834577E0,4.260000288E-1,8.877000809E0,1.777950048E0,9.063317591E0
2.852796123E0,4.639500082E-1,8.877000809E0,1.930950046E0,9.096425729E0
2.854757525E0,4.639500082E-1,8.953050613E0,1.930950046E0,9.170656082E0
2.856718969E0,4.639500082E-1,8.953050613E0,1.930950046E0,9.170656082E0
2.858680478E0,4.639500082E-1,8.991000175E0,1.893000126E0,9.199825175E0
2.860641967E0,5.020500422E-1,9.030000687E0,1.930950046E0,9.247785396E0
2.862603514E0,5.020500422E-1,9.106050491E0,2.008050203E0,9.338333653E0
2.864565044E0,5.410500169E-1,9.183000565E0,2.046000004E0,9.423712140E0
2.866526450E0,5.410500169E-1,9.183000565E0,2.046000004E0,9.423712140E0
2.868487892E0,5.410500169E-1,9.183000565E0,2.046000004E0,9.423712140E0
2.870450352E0,5.410500169E-1,9.145050049E0,2.046000004E0,9.386734871E0
2.872412510E0,5.790000558E-1,9.145050049E0,1.969950080E0,9.372720244E0
2.874373583E0,4.639500082E-1,9.183000565E0,1.855050087E0,9.379976535E0
2.876334974E0,3.109500110E-1,9.145050049E0,1.816050053E0,9.328808504E0
2.878296852E0,2.340000123E-1,9.183000565E0,1.663050056E0,9.335308825E0
2.880258587E0,2.340000123E-1,9.298050880E0,1.624950051E0,9.441873164E0
2.882220186E0,2.340000123E-1,9.412950516E0,1.548000097E0,9.542258523E0
2.884181791E0,1.189500093E-1,9.451050758E0,1.624950051E0,9.590462565E0
2.886143318E0,8.100000024E-2,9.451050758E0,1.548000097E0,9.577328737E0
2.888104868E0,-3.299999982E-2,9.490050316E0,1.548000097E0,9.615531618E0
2.890066719E0,-3.299999982E-2,9.490050316E0,1.548000097E0,9.615531618E0
2.892028481E0,-3.299999982E-2,9.528000832E0,1.471050024E0,9.640947932E0
2.893990032E0,-1.099500060E-1,9.490050316E0,1.471050024E0,9.604016461E0
2.895951642E0,-1.480500102E-1,9.528000832E0,1.432950020E0,9.636288934E0
2.897913483E0,-2.629500031E-1,9.604950905E0,1.432950020E0,9.714811905E0
2.899875256E0,-3.780000210E-1,9.604950905E0,1.432950020E0,9.718606467E0
2.901836800E0,-4.549500346E-1,9.643050194E0,1.395000100E0,9.754046435E0
2.903798412E0,-5.320500135E-1,9.681000710E0,1.318050027E0,9.784789616E0
2.905759946E0,-5.700000525E-1,9.565950394E0,1.318050027E0,9.673136144E0
2.907721497E0,-6.469500065E-1,9.490050316E0,1.203000069E0,9.587846915E0
2.909682853E0,-7.230000496E-1,9.336000443E0,1.165050030E0,9.436152548E0
2.911644267E0,-7.620000243E-1,9.259950638E0,1.050000072E0,9.350391971E0
2.913605781E0,-8.380500674E-1,9.183000565E0,9.349500537E-1,9.268438859E0
2.915567265E0,-9.529500604E-1,9.145050049E0,9.730500579E-1,9.245911563E0
2.917528799E0,-1.030050039E0,9.030000687E0,1.011000037E0,9.144617901E0
2.919490328E0,-1.144950032E0,9.030000687E0,9.730500579E-1,9.154160223E0
2.921451734E0,-1.222050071E0,8.991000175E0,8.580000401E-1,9.114145851E0
2.923413176E0,-1.297950029E0,8.953050613E0,7.810500264E-1,9.080298933E0
2.925374730E0,-1.452000022E0,8.991000175E0,7.050000429E-1,9.134736629E0
2.927336251E0,-1.489950061E0,8.991000175E0,7.050000429E-1,9.140845716E0
2.929297748E0,-1.567050099E0,8.991000175E0,7.050000429E-1,9.153729034E0
2.931259253E0,-1.642950058E0,8.991000175E0,6.660000086E-1,9.164110708E0
2.933220841E0,-1.681950092E0,8.991000175E0,5.509500504E-1,9.163546597E0
2.935182405E0,-1.758000135E0,8.953050613E0,5.899500251E-1,9.143069550E0
2.937144254E0,-1.834950089E0,8.953050613E0,5.130000114E-1,9.153541726E0
2.939106020E0,-1.873050094E0,9.030000687E0,4.750500321E-1,9.234441054E0
2.941067390E0,-1.950000048E0,8.991000175E0,4.360500276E-1,9.210359600E0
2.943028873E0,-1.950000048E0,8.953050613E0,3.600000143E-1,9.170017202E0
2.944991321E0,-1.950000048E0,8.991000175E0,3.600000143E-1,9.207072518E0
2.946953487E0,-2.065050125E0,8.914950371E0,2.449500114E-1,9.154276194E0
2.948914738E0,-2.103000164E0,8.914950371E0,1.680000126E-1,9.161177534E0
2.950876258E0,-2.179949999E0,8.800050735E0,2.449500114E-1,9.069348127E0
2.952837987E0,-2.179949999E0,8.877000809E0,1.300500035E-1,9.141675905E0
2.954799649E0,-2.256000042E0,8.800050735E0,1.680000126E-1,9.086179238E0
2.956761167E0,-2.295000076E0,8.800050735E0,1.300500035E-1,9.095319197E0
2.958722728E0,-2.295000076E0,8.800050735E0,1.300500035E-1,9.095319197E0
2.960684577E0,-2.295000076E0,8.761950493E0,5.295000225E-2,9.057682126E0
2.962646342E0,-2.371050119E0,8.761950493E0,5.295000225E-2,9.077249518E0
2.964607648E0,-2.256000042E0,8.722949982E0,1.500000060E-2,9.009973228E0
2.966569099E0,-2.371050119E0,8.685000420E0,5.295000225E-2,9.002994761E0
2.968530651E0,-2.410050154E0,8.761950493E0,1.500000060E-2,9.087372733E0
2.970492174E0,-2.448000193E0,8.761950493E0,9.195000678E-2,9.097963299E0
2.972453715E0,-2.410050154E0,8.761950493E0,5.295000225E-2,9.087514615E0
2.974415251E0,-2.410050154E0,8.722949982E0,1.300500035E-1,9.050696721E0
2.976376840E0,-2.410050154E0,8.685000420E0,1.300500035E-1,9.014127081E0
2.978338410E0,-2.410050154E0,8.722949982E0,2.070000172E-1,9.052129425E0
2.980300078E0,-2.371050119E0,8.685000420E0,1.680000126E-1,9.004406419E0
2.982261717E0,-2.410050154E0,8.722949982E0,1.680000126E-1,9.051321568E0
2.984222924E0,-2.371050119E0,8.761950493E0,1.680000126E-1,9.078649630E0
2.986184258E0,-2.332950115E0,8.800050735E0,2.449500114E-1,9.107334939E0
2.988145956E0,-2.295000076E0,8.761950493E0,2.070000172E-1,9.059892427E0
2.990107554E0,-2.371050119E0,8.838000298E0,2.070000172E-1,9.152867143E0
2.992069128E0,-2.295000076E0,8.877000809E0,1.680000126E-1,9.170408536E0
2.994030709E0,-2.256000042E0,8.877000809E0,2.070000172E-1,9.161524358E0
2.995992374E0,-2.218050003E0,8.877000809E0,2.070000172E-1,9.152253175E0
2.997954015E0,-2.179949999E0,8.953050613E0,1.680000126E-1,9.216155451E0
2.999915582E0,-2.103000164E0,8.953050613E0,2.070000172E-1,9.199052885E0
3.001877171E0,-2.065050125E0,8.953050613E0,2.070000172E-1,9.190451366E0
3.003838475E0,-1.987950087E0,8.914950371E0,1.300500035E-1,9.134834353E0
3.005799863E0,-1.987950087E0,8.914950371E0,1.680000126E-1,9.135453446E0
3.007760391E0,-2.026050091E0,8.914950371E0,1.680000126E-1,9.143819940E0
3.009721171E0,-2.179949999E0,8.800050735E0,3.600000143E-1,9.073184389E0
3.011683510E0,-2.103000164E0,8.914950371E0,3.979500234E-1,9.168277593E0
3.013645395E0,-1.873050094E0,8.953050613E0,2.449500114E-1,9.150160242E0
3.015606875E0,-1.642950058E0,8.877000809E0,1.680000126E-1,9.029321805E0
3.017568474E0,-1.605000019E0,8.800050735E0,2.070000172E-1,8.947612364E0
3.019529461E0,-1.642950058E0,8.761950493E0,3.979500234E-1,8.923532123E0
3.021490628E0,-1.605000019E0,8.877000809E0,5.130000114E-1,9.035504271E0
3.023452234E0,-1.528050065E0,8.914950371E0,5.130000114E-1,9.059494805E0
3.025413708E0,-1.413000107E0,8.800050735E0,5.130000114E-1,8.927521003E0
3.027375483E0,-1.375050068E0,8.877000809E0,5.509500504E-1,8.999747330E0
3.029337169E0,-1.297950029E0,8.838000298E0,5.509500504E-1,8.949774829E0
3.031298683E0,-1.452000022E0,8.722949982E0,6.660000086E-1,8.868016490E0
3.033260248E0,-1.452000022E0,8.800050735E0,8.200500607E-1,8.956655576E0
3.035221942E0,-1.413000107E0,8.877000809E0,8.580000401E-1,9.029611106E0
3.037183612E0,-1.260000110E0,8.838000298E0,8.200500607E-1,8.964950175E0
3.039145308E0,-1.297950029E0,8.877000809E0,8.580000401E-1,9.012323879E0
3.041106996E0,-1.336950064E0,8.800050735E0,1.050000072E0,8.962746709E0
3.043068330E0,-1.489950061E0,8.877000809E0,1.165050030E0,9.076256724E0
3.045029768E0,-1.375050068E0,8.953050613E0,1.279950023E0,9.148013448E0
3.046991637E0,-1.336950064E0,8.953050613E0,1.203000069E0,9.131908887E0
3.048953380E0,-1.336950064E0,8.914950371E0,1.279950023E0,9.105056158E0
3.050914930E0,-1.413000107E0,9.030000687E0,1.356000066E0,9.239925210E0
3.052876536E0,-1.413000107E0,9.067950249E0,1.356000066E0,9.277016072E0
3.054838063E0,-1.336950064E0,9.106050491E0,1.356000066E0,9.303027851E0
3.056799613E0,-1.336950064E0,9.145050049E0,1.432950020E0,9.352685263E0
3.058761464E0,-1.452000022E0,9.145050049E0,1.432950020E0,9.369823382E0
3.060723226E0,-1.413000107E0,9.220950127E0,1.471050024E0,9.443859312E0
3.062684547E0,-1.413000107E0,9.298050880E0,1.471050024E0,9.519154776E0
3.064645997E0,-1.375050068E0,9.336000443E0,1.471050024E0,9.550688725E0
3.066607775E0,-1.452000022E0,9.336000443E0,1.471050024E0,9.562070722E0
3.068569457E0,-1.528050065E0,9.412950516E0,1.510050058E0,9.654989673E0
3.070531322E0,-1.528050065E0,9.490050316E0,1.471050024E0,9.724195605E0
3.072493140E0,-1.452000022E0,9.528000832E0,1.471050024E0,9.749620099E0
3.074454812E0,-1.452000022E0,9.604950905E0,1.432950020E0,9.819202193E0
3.076416527E0,-1.528050065E0,9.681000710E0,1.432950020E0,9.905052120E0
3.078378215E0,-1.642950058E0,9.643050194E0,1.356000066E0,9.875547484E0
3.080339911E0,-1.720050097E0,9.796050072E0,1.395000100E0,1.004326613E1
3.082301894E0,-1.605000019E0,9.910950661E0,1.356000066E0,1.013122422E1
3.084263809E0,-1.528050065E0,1.002600002E1,1.471050024E0,1.024790718E1
3.086225464E0,-1.528050065E0,1.018005085E1,1.432950020E0,1.039334970E1
3.088187195E0,-1.452000022E0,1.033305073E1,1.471050024E0,1.053775259E1
3.090148745E0,-1.336950064E0,1.037100029E1,1.356000066E0,1.054437379E1
3.092110349E0,-1.297950029E0,1.044795036E1,1.356000066E0,1.061522855E1
3.094072029E0,-1.297950029E0,1.056300068E1,1.240950108E0,1.071455154E1
3.096033674E0,-1.375050068E0,1.060095024E1,1.165050030E0,1.075305772E1
3.097995240E0,-1.375050068E0,1.067805004E1,1.126049995E0,1.082494822E1
3.099956830E0,-1.452000022E0,1.075500011E1,1.126049995E0,1.091083499E1
3.101918538E0,-1.528050065E0,1.079295063E1,1.240950108E0,1.097099255E1
3.103880212E0,-1.642950058E0,1.083105087E1,1.279950023E0,1.102947052E1
3.105841692E0,-1.642950058E0,1.094595051E1,1.318050027E0,1.114676515E1
3.107803223E0,-1.567050099E0,1.094595051E1,1.240950108E0,1.112696885E1
3.109764942E0,-1.489950061E0,1.094595051E1,1.126049995E0,1.110413312E1
3.111726606E0,-1.452000022E0,1.094595051E1,1.203000069E0,1.110717542E1
3.113688528E0,-1.452000022E0,1.090800095E1,1.240950108E0,1.107396703E1
3.115650375E0,-1.567050099E0,1.087005043E1,1.318050027E0,1.106123403E1
3.117612208E0,-1.567050099E0,1.090800095E1,1.279950023E0,1.109407061E1
3.119574055E0,-1.567050099E0,1.083105087E1,1.279950023E0,1.101842008E1
3.121535901E0,-1.720050097E0,1.079295063E1,1.240950108E0,1.099937784E1
3.123497748E0,-1.720050097E0,1.079295063E1,1.165050030E0,1.099107352E1
3.125459413E0,-1.795950055E0,1.071600056E1,1.087950110E0,1.091978663E1
3.127421132E0,-1.911000133E0,1.067805004E1,1.050000072E0,1.089840238E1
3.129382801E0,-2.065050125E0,1.052505016E1,1.050000072E0,1.077699462E1
3.131344498E0,-2.103000164E0,1.052505016E1,9.349500537E-1,1.077373762E1
3.133306009E0,-2.026050091E0,1.048605061E1,6.280500293E-1,1.069843835E1
3.135267575E0,-2.026050091E0,1.044795036E1,5.130000114E-1,1.065493852E1
3.137229603E0,-2.026050091E0,1.048605061E1,4.750500321E-1,1.069054764E1
3.139191496E0,-1.987950087E0,1.037100029E1,3.979500234E-1,1.056730603E1
3.141153499E0,-2.026050091E0,1.037100029E1,4.360500276E-1,1.057604206E1
3.143115481E0,-2.065050125E0,1.033305073E1,4.360500276E-1,1.054639792E1
3.145077170E0,-2.140950203E0,1.041000080E1,4.360500276E-1,1.063681927E1
3.147038945E0,-2.103000164E0,1.041000080E1,3.600000143E-1,1.062639762E1
3.149000937E0,-2.065050125E0,1.041000080E1,3.600000143E-1,1.061895234E1
3.150962866E0,-2.065050125E0,1.044795036E1,3.220500052E-1,1.065494322E1
3.152924714E0,-2.026050091E0,1.048605061E1,3.979500234E-1,1.068739915E1
3.154886575E0,-1.987950087E0,1.052505016E1,3.600000143E-1,1.071719303E1
3.156849138E0,-1.950000048E0,1.056300068E1,4.360500276E-1,1.075033130E1
3.158811496E0,-1.873050094E0,1.048605061E1,2.830500007E-1,1.065578206E1
3.160772579E0,-1.873050094E0,1.060095024E1,4.360500276E-1,1.077397802E1
3.162734036E0,-1.758000135E0,1.060095024E1,4.360500276E-1,1.075457345E1
3.164695708E0,-1.681950092E0,1.063995075E1,5.509500504E-1,1.078615103E1
3.166657327E0,-1.681950092E0,1.075500011E1,5.509500504E-1,1.089965731E1
3.168618898E0,-1.528050065E0,1.075500011E1,5.899500251E-1,1.087901675E1
3.170580483E0,-1.489950061E0,1.079295063E1,5.899500251E-1,1.091126828E1
3.172542508E0,-1.413000107E0,1.087005043E1,6.280500293E-1,1.097948143E1
3.174504404E0,-1.375050068E0,1.087005043E1,6.280500293E-1,1.097466199E1
3.176466137E0,-1.260000110E0,1.090800095E1,6.660000086E-1,1.100071093E1
3.178427897E0,-1.183050036E0,1.090800095E1,7.050000429E-1,1.099459490E1
3.180389712E0,-1.144950032E0,1.094595051E1,7.810500264E-1,1.103334864E1
3.182351510E0,-1.030050039E0,1.094595051E1,8.580000401E-1,1.102773774E1
3.184313050E0,-1.030050039E0,1.098495007E1,8.580000401E-1,1.106644907E1
3.186274666E0,-9.919500351E-1,1.098495007E1,9.349500537E-1,1.106920162E1
3.188236667E0,-9.529500604E-1,1.098495007E1,8.959500194E-1,1.106254800E1
3.190198568E0,-9.150000215E-1,1.094595051E1,1.011000037E0,1.103055659E1
3.192159910E0,-9.150000215E-1,1.102305031E1,9.730500579E-1,1.110367910E1
3.194121416E0,-8.770500422E-1,1.102305031E1,1.011000037E0,1.110400720E1
3.196083275E0,-8.770500422E-1,1.102305031E1,1.087950110E0,1.111127762E1
3.198045030E0,-9.529500604E-1,1.098495007E1,1.126049995E0,1.108355676E1
3.200006562E0,-1.030050039E0,1.098495007E1,1.165050030E0,1.109447937E1
3.201968170E0,-1.106999993E0,1.094595051E1,1.203000069E0,1.106736150E1
3.203930056E0,-1.144950032E0,1.094595051E1,1.240950108E0,1.107540971E1
3.205891861E0,-1.222050071E0,1.094595051E1,1.318050027E0,1.109254230E1
3.207853490E0,-1.260000110E0,1.094595051E1,1.356000066E0,1.110135888E1
3.209815170E0,-1.336950064E0,1.090800095E1,1.432950020E0,1.108265608E1
3.211776675E0,-1.413000107E0,1.087005043E1,1.510050058E0,1.106502674E1
3.213738238E0,-1.528050065E0,1.094595051E1,1.624950051E0,1.117091009E1
3.215699772E0,-1.642950058E0,1.094595051E1,1.777950048E0,1.121045154E1
3.217661315E0,-1.720050097E0,1.094595051E1,1.930950046E0,1.124726513E1
3.219622897E0,-1.873050094E0,1.094595051E1,2.161050081E0,1.131336761E1
3.221584467E0,-2.103000164E0,1.098495007E1,2.353049994E0,1.142928615E1
3.223546130E0,-2.179949999E0,1.098495007E1,2.545050144E0,1.148471115E1
3.225507770E0,-2.256000042E0,1.090800095E1,2.698050022E0,1.146095523E1
3.227468976E0,-2.332950115E0,1.083105087E1,2.851050138E0,1.144040236E1
3.229430310E0,-2.410050154E0,1.075500011E1,2.965950251E0,1.141381751E1
3.231391658E0,-2.410050154E0,1.067805004E1,3.004050255E0,1.135136170E1
3.233353001E0,-2.371050119E0,1.063995075E1,3.043050051E0,1.131771109E1
3.235314763E0,-2.448000193E0,1.060095024E1,3.043050051E0,1.129747780E1
3.237276395E0,-2.485950232E0,1.041000080E1,3.196050167E0,1.116972703E1
3.239237919E0,-2.410050154E0,1.048605061E1,3.388050079E0,1.128026961E1
3.241199474E0,-2.295000076E0,1.041000080E1,3.502950191E0,1.122077547E1
3.243161054E0,-2.256000042E0,1.041000080E1,3.541050196E0,1.122482469E1
3.245122626E0,-2.140950203E0,1.033305073E1,3.771000147E0,1.120607189E1
3.247084115E0,-2.103000164E0,1.029495049E1,3.847950220E0,1.118996587E1
3.249045628E0,-1.950000048E0,1.018005085E1,3.963000298E0,1.109690528E1
3.251007395E0,-1.911000133E0,1.018005085E1,4.039050102E0,1.111752142E1
3.252969088E0,-1.795950055E0,1.018005085E1,4.078050137E0,1.111257688E1
3.254930781E0,-1.681950092E0,1.010295010E1,4.153950214E0,1.105232370E1
3.256892474E0,-1.567050099E0,1.002600002E1,4.231050014E0,1.099445800E1
3.258853971E0,-1.413000107E0,9.949950218E0,4.308000088E0,1.093420977E1
3.260815536E0,-1.260000110E0,9.873000145E0,4.384050369E0,1.087582777E1
3.262777025E0,-1.106999993E0,9.873000145E0,4.345950127E0,1.084383988E1
3.264738536E0,-8.770500422E-1,9.757950783E0,4.423050404E0,1.074942767E1
3.266699944E0,-6.850500107E-1,9.720000267E0,4.423050404E0,1.070098470E1
3.268661382E0,-5.320500135E-1,9.681000710E0,4.498950005E0,1.068856413E1
3.270623141E0,-2.629500031E-1,9.643050194E0,4.537950039E0,1.066070121E1
3.272584789E0,-7.200000435E-2,9.528000832E0,4.576050282E0,1.057015705E1
3.274546489E0,1.189500093E-1,9.451050758E0,4.653000355E0,1.053503307E1
3.276508174E0,2.719500065E-1,9.451050758E0,4.729050159E0,1.057167123E1
3.278470949E0,5.410500169E-1,9.375000000E0,4.729050159E0,1.051414645E1
3.280433404E0,7.699500322E-1,9.298050880E0,4.768050194E0,1.047763694E1
3.282394573E0,1.000050068E0,9.220950127E0,4.768050194E0,1.042882179E1
3.284356142E0,1.153950095E0,9.183000565E0,4.843950272E0,1.044619330E1
3.286317854E0,1.306950092E0,9.106050491E0,4.843950272E0,1.039673643E1
3.288279524E0,1.459950089E0,8.953050613E0,4.882050037E0,1.030160095E1
3.290241356E0,1.651950121E0,8.877000809E0,4.921050072E0,1.028332711E1
3.292203140E0,1.843950033E0,8.800050735E0,4.843950272E0,1.021297699E1
3.294164642E0,2.074050188E0,8.685000420E0,4.768050194E0,1.012251051E1
3.296126224E0,2.188950062E0,8.569950104E0,4.614000320E0,9.976198981E0
3.298087754E0,2.341950178E0,8.569950104E0,4.461000443E0,9.941292691E0
