"Time (s)","Acceleration x (m/s^2)","Acceleration y (m/s^2)","Acceleration z (m/s^2)","Absolute acceleration (m/s^2)"
3.315401200E-2,-1.260000110E0,9.681000710E0,1.240950108E0,9.841205830E0
3.511471900E-2,-1.222050071E0,9.604950905E0,1.165050030E0,9.752221790E0
3.707808900E-2,-1.297950029E0,9.604950905E0,1.126049995E0,9.757445606E0
3.904003400E-2,-1.297950029E0,9.604950905E0,1.165050030E0,9.762023240E0
4.100239600E-2,-1.297950029E0,9.643050194E0,1.203000069E0,9.804096107E0
4.296425100E-2,-1.297950029E0,9.604950905E0,1.165050030E0,9.762023240E0
4.492628100E-2,-1.336950064E0,9.643050194E0,1.126049995E0,9.800195973E0
4.688814100E-2,-1.375050068E0,9.643050194E0,1.126049995E0,9.805466247E0
4.885005100E-2,-1.375050068E0,9.565950394E0,1.203000069E0,9.738859214E0
5.081166000E-2,-1.375050068E0,9.528000832E0,1.165050030E0,9.696953342E0
5.277335800E-2,-1.375050068E0,9.528000832E0,1.240950108E0,9.706364907E0
5.473490400E-2,-1.413000107E0,9.528000832E0,1.240950108E0,9.711813750E0
5.669650200E-2,-1.489950061E0,9.451050758E0,1.203000069E0,9.643107424E0
5.865839000E-2,-1.489950061E0,9.451050758E0,1.279950023E0,9.653009048E0
6.062019300E-2,-1.452000022E0,9.451050758E0,1.240950108E0,9.642127445E0
6.258218200E-2,-1.489950061E0,9.375000000E0,1.203000069E0,9.568583247E0
6.454411600E-2,-1.489950061E0,9.375000000E0,1.165050030E0,9.563886122E0
6.650612200E-2,-1.567050099E0,9.336000443E0,1.203000069E0,9.542733332E0
6.846811100E-2,-1.528050065E0,9.298050880E0,1.165050030E0,9.494526252E0
7.042993400E-2,-1.567050099E0,9.259950638E0,1.165050030E0,9.463597276E0
7.239180500E-2,-1.605000019E0,9.298050880E0,1.165050030E0,9.507213935E0
7.435364700E-2,-1.605000019E0,9.259950638E0,1.165050030E0,9.469955251E0
7.631549700E-2,-1.642950058E0,9.220950127E0,1.165050030E0,9.438355138E0
7.827718800E-2,-1.681950092E0,9.183000565E0,1.126049995E0,9.403427251E0
8.023894000E-2,-1.642950058E0,9.183000565E0,1.203000069E0,9.406061526E0
8.220098100E-2,-1.642950058E0,9.183000565E0,1.203000069E0,9.406061526E0
8.416293800E-2,-1.605000019E0,9.106050491E0,1.165050030E0,9.319523710E0
8.612494500E-2,-1.681950092E0,9.145050049E0,1.165050030E0,9.371138569E0
8.808693800E-2,-1.642950058E0,9.145050049E0,1.203000069E0,9.369014594E0
9.004893400E-2,-1.720050097E0,9.106050491E0,1.203000069E0,9.344834779E0
9.201093300E-2,-1.720050097E0,9.067950249E0,1.203000069E0,9.307712029E0
9.397288900E-2,-1.758000135E0,9.145050049E0,1.165050030E0,9.385086384E0
9.593485800E-2,-1.720050097E0,9.106050491E0,1.165050030E0,9.340025131E0
9.789654800E-2,-1.758000135E0,9.145050049E0,1.165050030E0,9.385086384E0
9.985832000E-2,-1.795950055E0,9.106050491E0,1.165050030E0,9.354300280E0
1.018201820E-1,-1.720050097E0,9.183000565E0,1.203000069E0,9.419834440E0
1.037820140E-1,-1.642950058E0,9.183000565E0,1.203000069E0,9.406061526E0
1.057444030E-1,-1.605000019E0,9.183000565E0,1.240950108E0,9.404439462E0
1.077066290E-1,-1.642950058E0,9.259950638E0,1.318050027E0,9.496484959E0
1.096685460E-1,-1.642950058E0,9.259950638E0,1.356000066E0,9.501826503E0
1.116305540E-1,-1.720050097E0,9.336000443E0,1.432950020E0,9.600667808E0
1.135922320E-1,-1.681950092E0,9.298050880E0,1.356000066E0,9.545755207E0
1.155540110E-1,-1.720050097E0,9.336000443E0,1.395000100E0,9.595076960E0
1.175160480E-1,-1.720050097E0,9.375000000E0,1.356000066E0,9.627457271E0
1.194780090E-1,-1.720050097E0,9.412950516E0,1.395000100E0,9.669965617E0
1.214398360E-1,-1.642950058E0,9.412950516E0,1.471050024E0,9.667828633E0
1.234017030E-1,-1.681950092E0,9.490050316E0,1.395000100E0,9.738379557E0
1.253635610E-1,-1.681950092E0,9.565950394E0,1.395000100E0,9.812358958E0
1.273254110E-1,-1.758000135E0,9.604950905E0,1.510050058E0,9.880581842E0
1.292873910E-1,-1.834950089E0,9.643050194E0,1.471050024E0,9.925696300E0
1.312493320E-1,-1.758000135E0,9.720000267E0,1.510050058E0,9.992458198E0
1.332113870E-1,-1.720050097E0,9.796050072E0,1.510050058E0,1.005989168E1
1.351734090E-1,-1.758000135E0,9.835050583E0,1.510050058E0,1.010440674E1
1.371352110E-1,-1.720050097E0,9.910950661E0,1.510050058E0,1.017181235E1
1.390970880E-1,-1.758000135E0,9.988050461E0,1.510050058E0,1.025338811E1
1.410588830E-1,-1.795950055E0,9.988050461E0,1.548000097E0,1.026561703E1
1.430207030E-1,-1.758000135E0,1.006500053E1,1.548000097E0,1.033397816E1
1.449827780E-1,-1.758000135E0,1.014105034E1,1.548000097E0,1.040806278E1
1.469447780E-1,-1.720050097E0,1.018005085E1,1.510050058E0,1.043418702E1
1.489067730E-1,-1.758000135E0,1.025595093E1,1.585950017E0,1.052569862E1
1.508687730E-1,-1.795950055E0,1.033305073E1,1.624950051E0,1.061309741E1
1.528305940E-1,-1.834950089E0,1.041000080E1,1.585950017E0,1.068879769E1
1.547924680E-1,-1.795950055E0,1.048605061E1,1.548000097E0,1.075076733E1
1.567542640E-1,-1.720050097E0,1.052505016E1,1.548000097E0,1.077643529E1
1.587160830E-1,-1.795950055E0,1.060095024E1,1.585950017E0,1.086834026E1
1.606781580E-1,-1.795950055E0,1.060095024E1,1.548000097E0,1.086286734E1
1.626401580E-1,-1.758000135E0,1.071600056E1,1.585950017E0,1.097444622E1
1.646019790E-1,-1.758000135E0,1.071600056E1,1.585950017E0,1.097444622E1
1.665638520E-1,-1.795950055E0,1.075500011E1,1.585950017E0,1.101865244E1
1.685258280E-1,-1.758000135E0,1.079295063E1,1.663050056E0,1.106092597E1
1.704877730E-1,-1.720050097E0,1.087005043E1,1.624950051E0,1.112461376E1
1.724492790E-1,-1.681950092E0,1.087005043E1,1.663050056E0,1.112441854E1
1.744109200E-1,-1.681950092E0,1.090800095E1,1.624950051E0,1.115589097E1
1.763727550E-1,-1.642950058E0,1.090800095E1,1.663050056E0,1.115569384E1
1.783345330E-1,-1.642950058E0,1.094595051E1,1.663050056E0,1.119280362E1
1.802962570E-1,-1.605000019E0,1.098495007E1,1.663050056E0,1.122545716E1
1.822579970E-1,-1.528050065E0,1.098495007E1,1.624950051E0,1.120912698E1
1.842198640E-1,-1.528050065E0,1.102305031E1,1.663050056E0,1.125203584E1
1.861816910E-1,-1.528050065E0,1.102305031E1,1.548000097E0,1.123560766E1
1.881436760E-1,-1.489950061E0,1.102305031E1,1.585950017E0,1.123578332E1
1.901056140E-1,-1.489950061E0,1.106100082E1,1.548000097E0,1.126774133E1
1.920673110E-1,-1.452000022E0,1.110000038E1,1.510050058E0,1.129595342E1
1.940290780E-1,-1.452000022E0,1.110000038E1,1.548000097E0,1.130108919E1
1.959910580E-1,-1.452000022E0,1.110000038E1,1.471050024E0,1.129080603E1
1.979529850E-1,-1.375050068E0,1.106100082E1,1.510050058E0,1.124796662E1
1.999145030E-1,-1.489950061E0,1.110000038E1,1.510050058E0,1.130089425E1
2.018761410E-1,-1.489950061E0,1.113795090E1,1.471050024E0,1.133304414E1
2.038378420E-1,-1.489950061E0,1.113795090E1,1.471050024E0,1.133304414E1
2.057995240E-1,-1.528050065E0,1.113795090E1,1.510050058E0,1.134324197E1
2.077611640E-1,-1.528050065E0,1.113795090E1,1.471050024E0,1.133811604E1
2.097228230E-1,-1.605000019E0,1.110000038E1,1.510050058E0,1.131663752E1
2.116845200E-1,-1.605000019E0,1.106100082E1,1.510050058E0,1.127838710E1
2.136462060E-1,-1.605000019E0,1.102305031E1,1.510050058E0,1.124117051E1
2.156079440E-1,-1.642950058E0,1.102305031E1,1.510050058E0,1.124665169E1
2.175696670E-1,-1.681950092E0,1.102305031E1,1.548000097E0,1.125757072E1
2.195315210E-1,-1.720050097E0,1.102305031E1,1.548000097E0,1.126332610E1
2.214933460E-1,-1.758000135E0,1.094595051E1,1.548000097E0,1.119377958E1
2.234551960E-1,-1.758000135E0,1.090800095E1,1.585950017E0,1.116200191E1
2.254170380E-1,-1.795950055E0,1.094595051E1,1.585950017E0,1.120511073E1
2.273792010E-1,-1.834950089E0,1.090800095E1,1.663050056E0,1.118558277E1
2.293412690E-1,-1.873050094E0,1.083105087E1,1.701000094E0,1.112265171E1
2.313032920E-1,-1.911000133E0,1.075500011E1,1.624950051E0,1.104365934E1
2.332653050E-1,-1.911000133E0,1.079295063E1,1.663050056E0,1.108627261E1
2.352273470E-1,-1.950000048E0,1.067805004E1,1.740000129E0,1.099321851E1
2.371893800E-1,-2.026050091E0,1.071600056E1,1.701000094E0,1.103770575E1
2.391516900E-1,-2.065050125E0,1.063995075E1,1.777950048E0,1.098335515E1
2.411139180E-1,-2.140950203E0,1.056300068E1,1.816050053E0,1.092971587E1
2.430761140E-1,-2.103000164E0,1.052505016E1,1.816050053E0,1.088564782E1
2.450383140E-1,-2.103000164E0,1.048605061E1,1.816050053E0,1.084794473E1
2.470004600E-1,-2.179949999E0,1.044795036E1,1.816050053E0,1.082635149E1
2.489626220E-1,-2.179949999E0,1.041000080E1,1.740000129E0,1.077719347E1
2.509245490E-1,-2.140950203E0,1.037100029E1,1.740000129E0,1.073167812E1
2.528865450E-1,-2.140950203E0,1.037100029E1,1.816050053E0,1.074427069E1
2.548485710E-1,-2.103000164E0,1.033305073E1,1.777950048E0,1.069372028E1
2.568106010E-1,-2.065050125E0,1.029495049E1,1.816050053E0,1.065591269E1
2.587727310E-1,-2.026050091E0,1.029495049E1,1.816050053E0,1.064842346E1
2.607348310E-1,-2.026050091E0,1.025595093E1,1.740000129E0,1.059797192E1
2.626968600E-1,-1.987950087E0,1.021800041E1,1.701000094E0,1.054764805E1
2.646589100E-1,-1.950000048E0,1.021800041E1,1.663050056E0,1.053450369E1
2.666208800E-1,-1.911000133E0,1.018005085E1,1.624950051E0,1.048455147E1
2.685828570E-1,-1.834950089E0,1.010295010E1,1.624950051E0,1.039601391E1
2.705450850E-1,-1.795950055E0,1.010295010E1,1.585950017E0,1.038317267E1
2.725072400E-1,-1.681950092E0,1.010295010E1,1.624950051E0,1.037010219E1
2.744690340E-1,-1.681950092E0,1.002600002E1,1.663050056E0,1.030123139E1
2.764309340E-1,-1.605000019E0,1.002600002E1,1.585950017E0,1.027676695E1
2.783929300E-1,-1.528050065E0,9.988050461E0,1.624950051E0,1.023408773E1
2.803548800E-1,-1.489950061E0,9.910950661E0,1.624950051E0,1.015319442E1
2.823167100E-1,-1.413000107E0,9.910950661E0,1.663050056E0,1.014836183E1
2.842785750E-1,-1.297950029E0,9.796050072E0,1.663050056E0,1.002062906E1
2.862404620E-1,-1.183050036E0,9.796050072E0,1.740000129E0,1.001947129E1
2.882023420E-1,-1.068000078E0,9.720000267E0,1.740000129E0,9.932100976E0
2.901639480E-1,-9.919500351E-1,9.604950905E0,1.740000129E0,9.811556819E0
2.921256420E-1,-8.770500422E-1,9.565950394E0,1.777950048E0,9.769223617E0
2.940875130E-1,-7.620000243E-1,9.528000832E0,1.816050053E0,9.729413224E0
2.960493320E-1,-6.469500065E-1,9.451050758E0,1.855050087E0,9.653088396E0
2.980111830E-1,-6.079500318E-1,9.375000000E0,1.816050053E0,9.568608365E0
2.999730240E-1,-4.930500090E-1,9.298050880E0,1.855050087E0,9.494106557E0
3.019346880E-1,-4.170000255E-1,9.145050049E0,1.855050087E0,9.340612413E0
3.038964070E-1,-3.400500119E-1,9.106050491E0,1.893000126E0,9.306945742E0
3.058581380E-1,-1.480500102E-1,9.030000687E0,1.855050087E0,9.219763665E0
3.078198660E-1,-1.099500060E-1,8.914950371E0,1.969950080E0,9.130669879E0
3.097817330E-1,4.200000316E-2,8.838000298E0,1.930950046E0,9.046578433E0
3.117435590E-1,1.570500135E-1,8.800050735E0,1.969950080E0,9.019216206E0
3.137053630E-1,2.340000123E-1,8.761950493E0,2.008050203E0,8.992152026E0
3.156671750E-1,3.490500152E-1,8.685000420E0,1.969950080E0,8.912450366E0
3.176292060E-1,4.639500082E-1,8.608050346E0,2.008050203E0,8.851330182E0
3.195911730E-1,4.639500082E-1,8.569950104E0,2.008050203E0,8.814281594E0
3.215531790E-1,3.490500152E-1,8.569950104E0,1.969950080E0,8.800374084E0
3.235151730E-1,5.790000558E-1,8.455050468E0,2.122950077E0,8.736706274E0
3.254775350E-1,1.039050102E0,8.302050591E0,2.161050081E0,8.641400730E0
3.274397890E-1,1.039050102E0,8.263050079E0,2.238000154E0,8.623587793E0
3.294010250E-1,1.000050068E0,8.263050079E0,2.391000032E0,8.659964082E0
3.313625600E-1,1.000050068E0,8.187000275E0,2.353049994E0,8.576941058E0
3.333246390E-1,1.039050102E0,8.148000717E0,2.430000067E0,8.565888228E0
3.352865580E-1,1.153950095E0,8.071949959E0,2.353049994E0,8.486743853E0
3.372484130E-1,1.077000022E0,8.071949959E0,2.314950228E0,8.466126608E0
3.392102720E-1,1.153950095E0,8.032950401E0,2.391000032E0,8.460305794E0
3.411718010E-1,1.384050012E0,7.842000484E0,2.430000067E0,8.325711162E0
3.431334260E-1,1.345050097E0,7.879950523E0,2.467950106E0,8.366215258E0
3.450953090E-1,1.306950092E0,7.918050289E0,2.545050144E0,8.419080660E0
3.470571160E-1,1.422000051E0,7.879950523E0,2.583000183E0,8.413536375E0
3.490190990E-1,1.498950124E0,7.765050411E0,2.583000183E0,8.319540210E0
3.509810340E-1,1.498950124E0,7.765050411E0,2.545050144E0,8.307836036E0
3.529426860E-1,1.498950124E0,7.765050411E0,2.620950222E0,8.331400808E0
3.549044210E-1,1.498950124E0,7.803000450E0,2.620950222E0,8.366782390E0
3.568661510E-1,1.690050125E0,7.726950169E0,2.545050144E0,8.308989624E0
3.588278830E-1,1.767000079E0,7.765050411E0,2.620950222E0,8.383774641E0
3.607895820E-1,1.422000051E0,7.765050411E0,2.545050144E0,8.294297575E0
3.627512810E-1,1.345050097E0,7.458000183E0,1.663050056E0,7.758650784E0
3.647129720E-1,1.767000079E0,7.573050499E0,1.701000094E0,7.960325650E0
3.666746660E-1,2.035050154E0,7.650000572E0,2.200050116E0,8.216091430E0
3.686365370E-1,1.959000111E0,7.765050411E0,2.545050144E0,8.403033355E0
3.705983560E-1,1.843950033E0,7.842000484E0,2.736000061E0,8.507809334E0
3.725601780E-1,1.843950033E0,7.879950523E0,2.736000061E0,8.542802135E0
3.745219890E-1,1.767000079E0,7.995000362E0,2.773950100E0,8.645063287E0
3.764837060E-1,1.690050125E0,8.032950401E0,2.773950100E0,8.664834720E0
3.784454500E-1,1.729050040E0,8.071949959E0,2.620950222E0,8.661141394E0
3.804071340E-1,1.651950121E0,8.110050201E0,2.506050110E0,8.647666773E0
3.823688350E-1,1.651950121E0,8.187000275E0,2.314950228E0,8.666885672E0
3.843306740E-1,1.729050040E0,8.224950790E0,2.161050081E0,8.678108492E0
3.862924620E-1,1.614000082E0,8.302050591E0,1.969950080E0,8.683878373E0
3.882541390E-1,1.614000082E0,8.302050591E0,1.893000126E0,8.666746203E0
3.902158490E-1,1.537050128E0,8.455050468E0,1.701000094E0,8.760354036E0
3.921778980E-1,1.459950089E0,8.532000542E0,1.663050056E0,8.814319202E0
3.941398470E-1,1.345050097E0,8.647050858E0,1.624950051E0,8.900624190E0
3.961015840E-1,1.306950092E0,8.800050735E0,1.510050058E0,9.023816414E0
3.980633530E-1,1.306950092E0,8.838000298E0,1.471050024E0,9.054410858E0
4.000251670E-1,1.230000019E0,8.914950371E0,1.432950020E0,9.112770485E0
4.019869670E-1,1.192050099E0,9.030000687E0,1.279950023E0,9.197834957E0
4.039484620E-1,1.077000022E0,9.145050049E0,1.165050030E0,9.281659928E0
4.059100460E-1,9.619500637E-1,9.259950638E0,1.165050030E0,9.382397098E0
4.078719270E-1,9.240000248E-1,9.336000443E0,1.240950108E0,9.463331204E0
4.098337270E-1,8.470500112E-1,9.412950516E0,1.318050027E0,9.542451834E0
4.117954020E-1,7.699500322E-1,9.528000832E0,1.395000100E0,9.660313048E0
4.137571140E-1,6.940500140E-1,9.604950905E0,1.471050024E0,9.741702905E0
4.157179020E-1,6.169500351E-1,9.757950783E0,1.471050024E0,9.887477889E0
4.176789600E-1,5.020500422E-1,9.757950783E0,1.471050024E0,9.880973935E0
4.196404300E-1,4.260000288E-1,9.910950661E0,1.510050058E0,1.003437443E1
4.216017890E-1,3.109500110E-1,9.988050461E0,1.510050058E0,1.010633925E1
4.235631780E-1,2.719500065E-1,1.014105034E1,1.510050058E0,1.025646674E1
4.255245580E-1,1.189500093E-1,1.018005085E1,1.471050024E0,1.028647523E1
4.274861240E-1,1.570500135E-1,1.025595093E1,1.432950020E0,1.035676300E1
4.294476350E-1,4.200000316E-2,1.033305073E1,1.471050024E0,1.043732195E1
4.314092810E-1,4.050000105E-3,1.037100029E1,1.471050024E0,1.047481034E1
4.333709100E-1,-7.200000435E-2,1.041000080E1,1.395000100E0,1.050330072E1
4.353324340E-1,-2.629500031E-1,1.044795036E1,1.432950020E0,1.054903575E1
4.372939890E-1,-3.019500077E-1,1.052505016E1,1.356000066E0,1.061633604E1
4.392555250E-1,-4.170000255E-1,1.060095024E1,1.279950023E0,1.068608006E1
4.412170660E-1,-3.780000210E-1,1.060095024E1,1.203000069E0,1.067568448E1
4.431786040E-1,-4.549500346E-1,1.067805004E1,1.165050030E0,1.075104989E1
4.451401430E-1,-4.930500090E-1,1.075500011E1,1.087950110E0,1.082112569E1
4.471015460E-1,-5.320500135E-1,1.083105087E1,9.349500537E-1,1.088434067E1
4.490629890E-1,-5.700000525E-1,1.090800095E1,8.200500607E-1,1.095362346E1
4.510246780E-1,-6.469500065E-1,1.094595051E1,7.810500264E-1,1.099283476E1
4.529862940E-1,-6.850500107E-1,1.098495007E1,6.660000086E-1,1.102642179E1
4.549476570E-1,-7.230000496E-1,1.106100082E1,5.899500251E-1,1.110029321E1
4.569091140E-1,-7.230000496E-1,1.106100082E1,5.509500504E-1,1.109828880E1
4.588708450E-1,-7.230000496E-1,1.113795090E1,4.360500276E-1,1.116990684E1
4.608324960E-1,-7.999500632E-1,1.113795090E1,3.600000143E-1,1.117244245E1
4.627950520E-1,-8.380500674E-1,1.117605019E1,3.600000143E-1,1.121320764E1
4.647573420E-1,-8.770500422E-1,1.117605019E1,2.830500007E-1,1.121398376E1
4.667187480E-1,-8.770500422E-1,1.117605019E1,9.195000678E-2,1.121078808E1
4.686804160E-1,-8.770500422E-1,1.121400070E1,5.295000225E-2,1.124837020E1
4.706417970E-1,-8.770500422E-1,1.117605019E1,1.500000060E-2,1.121042102E1
4.726032620E-1,-9.919500351E-1,1.121400070E1,5.295000225E-2,1.125791190E1
4.745646330E-1,-1.106999993E0,1.117605019E1,-2.205000073E-2,1.123076279E1
4.765260320E-1,-1.183050036E0,1.113795090E1,-2.205000073E-2,1.120062694E1
4.784881130E-1,-1.144950032E0,1.110000038E1,-1.369500011E-1,1.115973451E1
4.804499770E-1,-1.222050071E0,1.106100082E1,-6.105000153E-2,1.112847127E1
4.824118210E-1,-1.183050036E0,1.106100082E1,-6.105000153E-2,1.112425610E1
4.843736710E-1,-1.260000110E0,1.106100082E1,-9.900000691E-2,1.113297537E1
4.863353810E-1,-1.336950064E0,1.102305031E1,1.500000060E-2,1.110384161E1
4.882971330E-1,-1.375050068E0,1.106100082E1,5.295000225E-2,1.114626869E1
4.902592990E-1,-1.452000022E0,1.098495007E1,5.295000225E-2,1.108062434E1
4.922213510E-1,-1.452000022E0,1.102305031E1,5.295000225E-2,1.111839673E1
4.941833880E-1,-1.489950061E0,1.102305031E1,5.295000225E-2,1.112341643E1
4.961454300E-1,-1.413000107E0,1.098495007E1,1.500000060E-2,1.107546488E1
4.981072430E-1,-1.452000022E0,1.098495007E1,9.195000678E-2,1.108087933E1
5.000691230E-1,-1.489950061E0,1.102305031E1,9.195000678E-2,1.112367044E1
5.020309630E-1,-1.642950058E0,1.102305031E1,1.300500035E-1,1.114557473E1
5.039928150E-1,-1.681950092E0,1.106100082E1,9.195000678E-2,1.118852761E1
5.059546150E-1,-1.720050097E0,1.113795090E1,5.295000225E-2,1.127010764E1
5.079164300E-1,-1.758000135E0,1.121400070E1,1.300500035E-1,1.135170865E1
5.098781010E-1,-1.758000135E0,1.113795090E1,1.500000060E-2,1.127584763E1
5.118398150E-1,-1.758000135E0,1.113795090E1,-2.205000073E-2,1.127585921E1
5.138017280E-1,-1.758000135E0,1.117605019E1,5.295000225E-2,1.131359651E1
5.157635820E-1,-1.873050094E0,1.121400070E1,5.295000225E-2,1.136947369E1
5.177257420E-1,-1.911000133E0,1.113795090E1,-6.105000153E-2,1.130086717E1
5.196878130E-1,-1.911000133E0,1.113795090E1,-1.759500057E-1,1.130207194E1
5.216494870E-1,-1.911000133E0,1.117605019E1,-9.900000691E-2,1.133868688E1
5.236112770E-1,-1.911000133E0,1.110000038E1,-1.759500057E-1,1.126467436E1
5.255729330E-1,-1.987950087E0,1.110000038E1,-3.289500177E-1,1.128140781E1
5.275346420E-1,-1.987950087E0,1.106100082E1,-2.910000086E-1,1.124199118E1
5.294966460E-1,-2.065050125E0,1.102305031E1,-3.289500177E-1,1.121963806E1
5.314585630E-1,-2.065050125E0,1.102305031E1,-3.289500177E-1,1.121963806E1
5.334204440E-1,-2.065050125E0,1.090800095E1,-2.910000086E-1,1.110556607E1
5.353823350E-1,-2.140950203E0,1.087005043E1,-6.105000153E-2,1.107905191E1
5.373441280E-1,-2.103000164E0,1.067805004E1,-3.289500177E-1,1.088813898E1
5.393059500E-1,-2.065050125E0,1.063995075E1,-4.060500264E-1,1.084609887E1
5.412674850E-1,-2.103000164E0,1.056300068E1,-2.910000086E-1,1.077424123E1
5.432291040E-1,-2.103000164E0,1.048605061E1,-2.520000041E-1,1.069782085E1
5.451907630E-1,-2.026050091E0,1.041000080E1,-3.670500219E-1,1.061167854E1
5.471524100E-1,-1.987950087E0,1.029495049E1,-2.910000086E-1,1.048916737E1
5.491139600E-1,-1.987950087E0,1.014105034E1,-2.910000086E-1,1.033815886E1
5.510755500E-1,-1.950000048E0,1.006500053E1,-4.060500264E-1,1.026019554E1
5.530373940E-1,-1.911000133E0,9.949950218E0,-4.060500264E-1,1.013993627E1
5.549991640E-1,-1.834950089E0,9.835050583E0,-4.819500148E-1,1.001636349E1
5.569608440E-1,-1.758000135E0,9.643050194E0,-4.819500148E-1,9.813829901E0
5.589225500E-1,-1.642950058E0,9.490050316E0,-5.970000029E-1,9.649702011E0
5.608842310E-1,-1.720050097E0,9.375000000E0,-6.739500165E-1,9.555281574E0
5.628459260E-1,-1.642950058E0,9.259950638E0,-7.890000343E-1,9.437610490E0
5.648074830E-1,-1.567050099E0,9.145050049E0,-7.510500550E-1,9.308687480E0
5.667690800E-1,-1.528050065E0,9.067950249E0,-7.890000343E-1,9.229581776E0
5.687307870E-1,-1.489950061E0,8.991000175E0,-9.810000658E-1,9.166264041E0
5.706924620E-1,-1.489950061E0,8.953050613E0,-9.810000658E-1,9.129043082E0
5.726543070E-1,-1.452000022E0,8.914950371E0,-1.057050109E0,9.094063949E0
5.746160920E-1,-1.413000107E0,8.877000809E0,-1.018950105E0,9.046323672E0
5.765781290E-1,-1.336950064E0,8.838000298E0,-1.018950105E0,8.996440632E0
5.785400920E-1,-1.222050071E0,8.838000298E0,-1.057050109E0,8.984487218E0
5.805019190E-1,-1.144950032E0,8.761950493E0,-1.057050109E0,8.899440541E0
5.824637860E-1,-1.068000078E0,8.722949982E0,-1.057050109E0,8.851431267E0
5.844254750E-1,-1.144950032E0,8.722949982E0,-1.018950105E0,8.856580959E0
5.863872290E-1,-1.068000078E0,8.685000420E0,-1.057050109E0,8.814034910E0
5.883492250E-1,-1.106999993E0,8.722949982E0,-9.810000658E-1,8.847466671E0
5.903111500E-1,-1.068000078E0,8.685000420E0,-1.057050109E0,8.814034910E0
5.922726680E-1,-1.068000078E0,8.647050858E0,-9.810000658E-1,8.767808953E0
5.942343060E-1,-1.068000078E0,8.685000420E0,-1.018950105E0,8.809546854E0
5.961959850E-1,-9.919500351E-1,8.685000420E0,-9.420000315E-1,8.792073772E0
5.981576350E-1,-1.030050039E0,8.685000420E0,-9.420000315E-1,8.796453799E0
6.001193800E-1,-1.030050039E0,8.722949982E0,-9.810000658E-1,8.838168396E0
6.020810970E-1,-1.030050039E0,8.722949982E0,-9.420000315E-1,8.833924582E0
6.040432810E-1,-9.919500351E-1,8.761950493E0,-8.269500136E-1,8.856612650E0
6.060053280E-1,-9.919500351E-1,8.761950493E0,-9.040500522E-1,8.864143941E0
6.079672000E-1,-9.919500351E-1,8.800050735E0,-1.018950105E0,8.914208722E0
6.099291130E-1,-9.919500351E-1,8.800050735E0,-9.810000658E-1,8.909950558E0
6.118913070E-1,-1.030050039E0,8.722949982E0,-1.096050024E0,8.851676967E0
6.138534190E-1,-1.030050039E0,8.722949982E0,-1.057050109E0,8.846932485E0
6.158155350E-1,-1.068000078E0,8.800050735E0,-1.096050024E0,8.932124203E0
6.177776490E-1,-1.030050039E0,8.722949982E0,-1.134000063E0,8.856456154E0
6.197397100E-1,-1.030050039E0,8.800050735E0,-1.171950102E0,8.937301778E0
6.217017620E-1,-1.030050039E0,8.761950493E0,-1.171950102E0,8.899789130E0
6.236640680E-1,-1.068000078E0,8.761950493E0,-1.249050021E0,8.914736483E0
6.256262990E-1,-1.068000078E0,8.722949982E0,-1.210950017E0,8.871126225E0
6.275882600E-1,-1.106999993E0,8.685000420E0,-1.210950017E0,8.838613082E0
6.295503010E-1,-1.106999993E0,8.685000420E0,-1.287000060E0,8.849353108E0
6.315123280E-1,-1.106999993E0,8.647050858E0,-1.326000094E0,8.817891685E0
6.334743350E-1,-1.068000078E0,8.647050858E0,-1.249050021E0,8.801831551E0
6.354363340E-1,-1.106999993E0,8.608050346E0,-1.287000060E0,8.773844591E0
6.373983350E-1,-1.144950032E0,8.569950104E0,-1.287000060E0,8.741357132E0
6.393599740E-1,-1.106999993E0,8.493000031E0,-1.287000060E0,8.660996921E0
6.413217200E-1,-1.068000078E0,8.416950226E0,-1.326000094E0,8.587429855E0
6.432836310E-1,-1.106999993E0,8.377950668E0,-1.210950017E0,8.537090039E0
6.452454910E-1,-1.030050039E0,8.263050079E0,-1.249050021E0,8.420161854E0
6.472075150E-1,-1.030050039E0,8.263050079E0,-1.594050050E0,8.478207078E0
6.491694910E-1,-9.919500351E-1,8.187000275E0,-1.594050050E0,8.399519863E0
6.511314510E-1,-1.106999993E0,8.187000275E0,-1.594050050E0,8.413882460E0
6.530934160E-1,-1.068000078E0,8.071949959E0,-1.479000092E0,8.275532706E0
6.550556460E-1,-1.030050039E0,8.071949959E0,-1.632000089E0,8.299445976E0
6.570177980E-1,-9.150000215E-1,8.032950401E0,-1.632000089E0,8.247965899E0
6.589803130E-1,-7.999500632E-1,7.957050323E0,-1.441050053E0,8.125958110E0
6.609427220E-1,-8.770500422E-1,7.995000362E0,-1.326000094E0,8.151535059E0
6.629049680E-1,-1.030050039E0,7.995000362E0,-1.326000094E0,8.169413083E0
6.648672620E-1,-1.222050071E0,7.918050289E0,-1.479000092E0,8.147169326E0
6.668293730E-1,-1.297950029E0,7.879950523E0,-1.441050053E0,8.115104422E0
6.687915510E-1,-1.260000110E0,7.842000484E0,-1.479000092E0,8.079109675E0
6.707535650E-1,-1.297950029E0,7.726950169E0,-1.555950046E0,7.988204663E0
6.727156280E-1,-1.297950029E0,7.650000572E0,-1.555950046E0,7.913795776E0
6.746777960E-1,-1.375050068E0,7.687950134E0,-1.516950130E0,7.955908349E0
6.766399330E-1,-1.413000107E0,7.573050499E0,-1.402050018E0,7.830287825E0
6.786019160E-1,-1.489950061E0,7.534950256E0,-1.363950014E0,7.801011870E0
6.805639400E-1,-1.489950061E0,7.458000183E0,-1.287000060E0,7.713500312E0
6.825260700E-1,-1.605000019E0,7.420050144E0,-1.287000060E0,7.699970023E0
6.844881690E-1,-1.681950092E0,7.342950344E0,-1.171950102E0,7.623735496E0
6.864501530E-1,-1.681950092E0,7.267050266E0,-1.171950102E0,7.550658430E0
6.884121710E-1,-1.720050097E0,7.267050266E0,-1.249050021E0,7.571573011E0
6.903743180E-1,-1.681950092E0,7.152000427E0,-1.171950102E0,7.439995515E0
6.923364480E-1,-1.720050097E0,7.152000427E0,-1.171950102E0,7.448701195E0
6.942984270E-1,-1.720050097E0,7.075050354E0,-1.171950102E0,7.374847584E0
6.962604500E-1,-1.642950058E0,7.036950111E0,-1.210950017E0,7.326960605E0
6.982226250E-1,-1.489950061E0,7.075050354E0,-1.249050021E0,7.337330213E0
7.001847560E-1,-1.297950029E0,7.113000393E0,-1.363950014E0,7.357975843E0
7.021467650E-1,-1.144950032E0,7.189950466E0,-1.479000092E0,7.429248923E0
7.041088200E-1,-1.183050036E0,7.228050232E0,-1.516950130E0,7.479669461E0
7.060708100E-1,-1.222050071E0,7.305000305E0,-1.594050050E0,7.576109252E0
7.080328200E-1,-1.222050071E0,7.342950344E0,-1.594050050E0,7.612707908E0
7.099948180E-1,-1.222050071E0,7.381950378E0,-1.594050050E0,7.650332890E0
7.119568200E-1,-1.260000110E0,7.381950378E0,-1.632000089E0,7.664477540E0
7.139189980E-1,-1.260000110E0,7.420050144E0,-1.555950046E0,7.685422888E0
7.158811250E-1,-1.260000110E0,7.420050144E0,-1.594050050E0,7.693226890E0
7.178434640E-1,-1.260000110E0,7.458000183E0,-1.555950046E0,7.722068865E0
7.198057410E-1,-1.297950029E0,7.458000183E0,-1.555950046E0,7.728351801E0
7.217676490E-1,-1.336950064E0,7.458000183E0,-1.555950046E0,7.734997269E0
7.237296660E-1,-1.375050068E0,7.458000183E0,-1.555950046E0,7.741673589E0
7.256916590E-1,-1.375050068E0,7.420050144E0,-1.594050050E0,7.712904926E0
7.276536620E-1,-1.375050068E0,7.420050144E0,-1.671000123E0,7.729175133E0
7.296156610E-1,-1.375050068E0,7.497000217E0,-1.747050047E0,7.819716032E0
7.315776620E-1,-1.452000022E0,7.497000217E0,-1.747050047E0,7.833613482E0
7.335394810E-1,-1.489950061E0,7.497000217E0,-1.747050047E0,7.840736401E0
7.355013540E-1,-1.489950061E0,7.458000183E0,-1.786050081E0,7.812278337E0
7.374635500E-1,-1.567050099E0,7.497000217E0,-1.824000120E0,7.873222638E0
7.394256550E-1,-1.567050099E0,7.458000183E0,-1.861950040E0,7.845015659E0
7.413875030E-1,-1.605000019E0,7.497000217E0,-1.861950040E0,7.889733536E0
7.433494260E-1,-1.642950058E0,7.497000217E0,-1.824000120E0,7.888680092E0
7.453115730E-1,-1.642950058E0,7.534950256E0,-1.786050081E0,7.916106060E0
7.472736550E-1,-1.720050097E0,7.534950256E0,-1.824000120E0,7.941097162E0
7.492356920E-1,-1.720050097E0,7.534950256E0,-1.824000120E0,7.941097162E0
7.511977390E-1,-1.795950055E0,7.573050499E0,-1.824000120E0,7.993966906E0
7.531598650E-1,-1.834950089E0,7.534950256E0,-1.824000120E0,7.966774356E0
7.551219670E-1,-1.834950089E0,7.573050499E0,-1.786050081E0,7.994254849E0
7.570841300E-1,-1.911000133E0,7.612050533E0,-1.900950074E0,8.075199441E0
7.590462750E-1,-1.911000133E0,7.612050533E0,-1.977000117E0,8.093439584E0
7.610081160E-1,-1.950000048E0,7.650000572E0,-2.092050076E0,8.167109798E0
7.629700460E-1,-2.026050091E0,7.726950169E0,-2.092050076E0,8.257560862E0
7.649323730E-1,-2.065050125E0,7.765050411E0,-2.130000114E0,8.312481001E0
7.668945830E-1,-2.140950203E0,7.879950523E0,-2.245050192E0,8.468620808E0
7.688567280E-1,-2.103000164E0,7.918050289E0,-2.284050226E0,8.504999442E0
7.708188930E-1,-2.103000164E0,7.957050323E0,-2.359950066E0,8.561928746E0
7.727810740E-1,-2.179949999E0,8.032950401E0,-2.398950100E0,8.662299679E0
7.747432600E-1,-2.179949999E0,8.071949959E0,-2.398950100E0,8.698478012E0
7.767051840E-1,-2.179949999E0,8.187000275E0,-2.398950100E0,8.805345937E0
7.786671850E-1,-2.140950203E0,8.224950790E0,-2.398950100E0,8.831106661E0
7.806290050E-1,-2.179949999E0,8.340000153E0,-2.322000027E0,8.927455890E0
7.825908780E-1,-2.179949999E0,8.377950668E0,-2.245050192E0,8.943293004E0
7.845529040E-1,-2.179949999E0,8.493000031E0,-2.206950188E0,9.041784152E0
7.865148810E-1,-2.103000164E0,8.569950104E0,-2.169000149E0,9.086870535E0
7.884763900E-1,-2.140950203E0,8.685000420E0,-2.169000149E0,9.204208913E0
7.904380360E-1,-2.218050003E0,8.838000298E0,-2.206950188E0,9.375533276E0
7.923997350E-1,-2.218050003E0,8.914950371E0,-2.206950188E0,9.448106427E0
7.943614190E-1,-2.179949999E0,8.991000175E0,-2.245050192E0,9.520006120E0
7.963236390E-1,-2.218050003E0,9.106050491E0,-2.284050226E0,9.646594570E0
7.982857120E-1,-2.256000042E0,9.183000565E0,-2.359950066E0,9.746096648E0
8.002476550E-1,-2.179949999E0,9.336000443E0,-2.359950066E0,9.873320139E0
8.022096370E-1,-2.218050003E0,9.451050758E0,-2.398950100E0,9.999853391E0
8.041714600E-1,-2.218050003E0,9.565950394E0,-2.322000027E0,1.009053204E1
8.061333290E-1,-2.332950115E0,9.681000710E0,-2.284050226E0,1.021671750E1
8.080951530E-1,-2.332950115E0,9.796050072E0,-2.322000027E0,1.033426037E1
8.100570030E-1,-2.295000076E0,9.873000145E0,-2.322000027E0,1.039879038E1
8.120188920E-1,-2.371050119E0,9.988050461E0,-2.322000027E0,1.052495676E1
8.139807700E-1,-2.448000193E0,1.002600002E1,-2.284050226E0,1.057025387E1
8.159426120E-1,-2.485950232E0,1.018005085E1,-2.284050226E0,1.072521652E1
8.179044640E-1,-2.448000193E0,1.018005085E1,-2.284050226E0,1.071648383E1
8.198660650E-1,-2.448000193E0,1.021800041E1,-2.245050192E0,1.074432351E1
8.218277530E-1,-2.485950232E0,1.021800041E1,-2.245050192E0,1.075303359E1
8.237894900E-1,-2.563050032E0,1.021800041E1,-2.245050192E0,1.077111917E1
8.257512120E-1,-2.601000071E0,1.021800041E1,-2.169000149E0,1.076463169E1
8.277130800E-1,-2.601000071E0,1.021800041E1,-2.130000114E0,1.075684128E1
8.296749050E-1,-2.524950027E0,1.018005085E1,-2.053950071E0,1.068772749E1
8.316368900E-1,-2.677950144E0,1.018005085E1,-2.053950071E0,1.072490388E1
8.335988280E-1,-2.601000071E0,1.018005085E1,-1.977000117E0,1.069145295E1
8.355608840E-1,-2.677950144E0,1.018005085E1,-1.939050078E0,1.070349324E1
8.375229050E-1,-2.716050148E0,1.018005085E1,-1.900950074E0,1.070625868E1
8.394848570E-1,-2.677950144E0,1.014105034E1,-1.824000120E0,1.064609296E1
8.414468300E-1,-2.716050148E0,1.018005085E1,-1.824000120E0,1.069286398E1
8.434085030E-1,-2.677950144E0,1.018005085E1,-1.900950074E0,1.069665665E1
8.453702750E-1,-2.677950144E0,1.018005085E1,-1.939050078E0,1.070349324E1
8.473322680E-1,-2.640000105E0,1.018005085E1,-1.900950074E0,1.068721886E1
8.492941960E-1,-2.640000105E0,1.021800041E1,-1.939050078E0,1.073019330E1
8.512560300E-1,-2.640000105E0,1.021800041E1,-1.861950040E0,1.071652887E1
8.532178910E-1,-2.601000071E0,1.021800041E1,-1.824000120E0,1.070045374E1
8.551797390E-1,-2.563050032E0,1.033305073E1,-1.939050078E0,1.082132515E1
8.571415880E-1,-2.563050032E0,1.033305073E1,-1.977000117E0,1.082818970E1
8.591034330E-1,-2.524950027E0,1.037100029E1,-2.014950037E0,1.086246028E1
8.610652800E-1,-2.524950027E0,1.037100029E1,-2.130000114E0,1.088438883E1
8.630273050E-1,-2.485950232E0,1.037100029E1,-2.206950188E0,1.089074032E1
8.649892780E-1,-2.524950027E0,1.041000080E1,-2.284050226E0,1.095264236E1
8.669515180E-1,-2.485950232E0,1.041000080E1,-2.322000027E0,1.095170075E1
8.689136730E-1,-2.485950232E0,1.041000080E1,-2.398950100E0,1.096827365E1
8.708756470E-1,-2.485950232E0,1.033305073E1,-2.551950216E0,1.092997419E1
8.728376750E-1,-2.485950232E0,1.033305073E1,-2.590050220E0,1.093893258E1
8.747993100E-1,-2.563050032E0,1.029495049E1,-2.704950094E0,1.094860658E1
8.767610600E-1,-2.640000105E0,1.033305073E1,-2.667000055E0,1.099338106E1
8.787232660E-1,-2.640000105E0,1.029495049E1,-2.782050133E0,1.098614623E1
8.806853170E-1,-2.640000105E0,1.033305073E1,-2.859000206E0,1.104153160E1
8.826471750E-1,-2.640000105E0,1.033305073E1,-2.859000206E0,1.104153160E1
8.846090890E-1,-2.716050148E0,1.041000080E1,-2.896950245E0,1.114169493E1
8.865712370E-1,-2.677950144E0,1.048605061E1,-2.935050249E0,1.121352729E1
8.885333170E-1,-2.677950144E0,1.056300068E1,-2.935050249E0,1.128551817E1
8.904955290E-1,-2.640000105E0,1.063995075E1,-2.896950245E0,1.133889207E1
8.924577020E-1,-2.716050148E0,1.071600056E1,-2.859000206E0,1.141855851E1
8.944198540E-1,-2.716050148E0,1.087005043E1,-2.782050133E0,1.154446741E1
8.963820120E-1,-2.793000221E0,1.098495007E1,-2.704950094E0,1.165275646E1
8.983442990E-1,-2.755050182E0,1.113795090E1,-2.629050016E0,1.177098788E1
9.003065480E-1,-2.793000221E0,1.125300026E1,-2.475000143E0,1.185565227E1
9.022687460E-1,-2.830950022E0,1.136805058E1,-2.437050104E0,1.196603799E1
9.042309490E-1,-2.755050182E0,1.132905006E1,-2.322000027E0,1.188820260E1
9.061930490E-1,-2.869950056E0,1.148295021E1,-2.284050226E0,1.205452796E1
9.081551800E-1,-2.908050060E0,1.163595009E1,-2.284050226E0,1.220938062E1
9.101173360E-1,-2.908050060E0,1.167405033E1,-2.322000027E0,1.225283193E1
9.120794850E-1,-2.946000099E0,1.167405033E1,-2.359950066E0,1.226913738E1
9.140418550E-1,-2.946000099E0,1.171305084E1,-2.398950100E0,1.231379057E1
9.160041680E-1,-2.793000221E0,1.171305084E1,-2.475000143E0,1.229317030E1
9.179664760E-1,-2.869950056E0,1.163595009E1,-2.514000177E0,1.224549487E1
9.199287850E-1,-2.869950056E0,1.159800053E1,-2.590050220E0,1.222532575E1
9.218910470E-1,-2.793000221E0,1.155900097E1,-2.629050016E0,1.217880362E1
9.238533230E-1,-2.755050182E0,1.144395065E1,-2.629050016E0,1.206093744E1
9.258156620E-1,-2.601000071E0,1.132905006E1,-2.629050016E0,1.191740243E1
9.277779950E-1,-2.524950027E0,1.125300026E1,-2.590050220E0,1.182005701E1
9.297402990E-1,-2.448000193E0,1.113795090E1,-2.629050016E0,1.170292951E1
9.317026120E-1,-2.448000193E0,1.098495007E1,-2.437050104E0,1.151525276E1
9.336650530E-1,-2.332950115E0,1.087005043E1,-2.284050226E0,1.134978141E1
9.356274560E-1,-2.256000042E0,1.063995075E1,-2.169000149E0,1.109065597E1
9.375899230E-1,-2.140950203E0,1.056300068E1,-2.053950071E0,1.097175291E1
9.395523740E-1,-2.103000164E0,1.044795036E1,-1.939050078E0,1.083246009E1
9.415143430E-1,-2.026050091E0,1.033305073E1,-1.824000120E0,1.068661746E1
9.434764530E-1,-1.987950087E0,1.021800041E1,-1.708950043E0,1.054893304E1
9.454385680E-1,-2.026050091E0,1.010295010E1,-1.671000123E0,1.043871261E1
9.474006820E-1,-1.987950087E0,1.002600002E1,-1.441050053E0,1.032226948E1
9.493627190E-1,-1.950000048E0,1.002600002E1,-1.363950014E0,1.030453960E1
9.513247710E-1,-1.950000048E0,9.988050461E0,-1.326000094E0,1.026264724E1
9.532868960E-1,-1.873050094E0,9.910950661E0,-1.287000060E0,1.016816743E1
9.552490000E-1,-1.911000133E0,9.873000145E0,-1.210950017E0,1.012889201E1
9.572108030E-1,-1.911000133E0,9.873000145E0,-1.171950102E0,1.012430345E1
9.591726940E-1,-1.834950089E0,9.835050583E0,-1.171950102E0,1.007316876E1
9.611345720E-1,-1.758000135E0,9.835050583E0,-1.096050024E0,1.005087609E1
9.630964580E-1,-1.758000135E0,9.873000145E0,-9.040500522E-1,1.006896235E1
9.650584760E-1,-1.642950058E0,9.873000145E0,-7.510500550E-1,1.003690654E1
9.670204560E-1,-1.567050099E0,9.873000145E0,-5.590500236E-1,1.001220829E1
9.689824600E-1,-1.528050065E0,9.873000145E0,-3.289500177E-1,9.995963034E0
9.709444560E-1,-1.528050065E0,9.949950218E0,-1.369500011E-1,1.006753205E1
9.729064280E-1,-1.413000107E0,1.002600002E1,1.300500035E-1,1.012591521E1
9.748684270E-1,-1.413000107E0,1.002600002E1,2.070000172E-1,1.012719580E1
9.768293470E-1,-1.297950029E0,1.018005085E1,4.360500276E-1,1.027172085E1
9.787905830E-1,-1.183050036E0,1.033305073E1,6.660000086E-1,1.042185688E1
9.807524880E-1,-1.144950032E0,1.044795036E1,7.810500264E-1,1.053947895E1
9.827141970E-1,-9.529500604E-1,1.063995075E1,8.959500194E-1,1.072004628E1
9.846757360E-1,-8.770500422E-1,1.083105087E1,1.011000037E0,1.091343213E1
9.866373050E-1,-7.620000243E-1,1.102305031E1,1.011000037E0,1.109551275E1
9.885993780E-1,-6.850500107E-1,1.121400070E1,1.050000072E0,1.128386483E1
9.905613030E-1,-4.930500090E-1,1.136805058E1,1.011000037E0,1.142356307E1
9.925231820E-1,-4.170000255E-1,1.144395065E1,1.126049995E0,1.150677558E1
9.944850740E-1,-2.250000089E-1,1.152105045E1,1.165050030E0,1.158199336E1
9.964469020E-1,-7.200000435E-2,1.163595009E1,1.165050030E0,1.169435163E1
9.984087560E-1,-3.299999982E-2,1.163595009E1,1.203000069E0,1.169801832E1
1.000370915E0,4.050000105E-3,1.167405033E1,1.203000069E0,1.173587137E1
1.002332985E0,1.570500135E-1,1.163595009E1,1.318050027E0,1.171141559E1
1.004295153E0,1.960500032E-1,1.155900097E1,1.356000066E0,1.163991732E1
1.006257293E0,3.870000243E-1,1.140600014E1,1.432950020E0,1.150217170E1
1.008220206E0,4.639500082E-1,1.125300026E1,1.471050024E0,1.135822401E1
1.010182899E0,6.169500351E-1,1.113795090E1,1.510050058E0,1.125676813E1
1.012144917E0,7.320000529E-1,1.094595051E1,1.548000097E0,1.107907762E1
1.014107132E0,8.089500666E-1,1.075500011E1,1.548000097E0,1.089590437E1
1.016068960E0,8.850000501E-1,1.048605061E1,1.585950017E0,1.064216707E1
1.018030901E0,8.470500112E-1,1.025595093E1,1.510050058E0,1.040107083E1
1.019992910E0,8.850000501E-1,1.002600002E1,1.624950051E0,1.019531089E1
1.021954899E0,9.240000248E-1,9.835050583E0,1.585950017E0,1.000486049E1
1.023916857E0,8.470500112E-1,9.565950394E0,1.585950017E0,9.733454583E0
1.025878824E0,8.089500666E-1,9.336000443E0,1.663050056E0,9.517407208E0
1.027840694E0,8.089500666E-1,9.067950249E0,1.585950017E0,9.241069169E0
1.029802593E0,8.470500112E-1,8.877000809E0,1.624950051E0,9.064165695E0
1.031764594E0,8.470500112E-1,8.608050346E0,1.701000094E0,8.815294993E0
1.033726576E0,8.089500666E-1,8.416950226E0,1.585950017E0,8.603178992E0
1.035688536E0,7.320000529E-1,8.263050079E0,1.585950017E0,8.445653210E0
1.037650502E0,7.699500322E-1,8.032950401E0,1.585950017E0,8.224132335E0
1.039612551E0,6.550500393E-1,7.957050323E0,1.510050058E0,8.125514850E0
1.041574576E0,5.790000558E-1,7.803000450E0,1.510050058E0,7.968833558E0
1.043536007E0,5.790000558E-1,7.612050533E0,1.510050058E0,7.781953840E0
1.045497598E0,5.790000558E-1,7.534950256E0,1.471050024E0,7.699006728E0
1.047460073E0,5.410500169E-1,7.458000183E0,1.432950020E0,7.613661906E0
1.049422289E0,5.790000558E-1,7.458000183E0,1.356000066E0,7.602351214E0
1.051383892E0,6.169500351E-1,7.381950378E0,1.279950023E0,7.517452414E0
1.053345675E0,5.790000558E-1,7.458000183E0,1.318050027E0,7.595674010E0
1.055307130E0,5.020500422E-1,7.534950256E0,1.432950020E0,7.686408483E0
1.057268679E0,4.260000288E-1,7.612050533E0,1.356000066E0,7.743611917E0
1.059230800E0,3.870000243E-1,7.687950134E0,1.356000066E0,7.816206399E0
1.061192754E0,3.109500110E-1,7.803000450E0,1.356000066E0,7.926048329E0
1.063154762E0,2.719500065E-1,7.918050289E0,1.395000100E0,8.044594612E0
1.065116754E0,2.340000123E-1,7.995000362E0,1.395000100E0,8.119163262E0
1.067078563E0,8.100000024E-2,8.110050201E0,1.395000100E0,8.229550446E0
1.069040435E0,4.200000316E-2,8.263050079E0,1.432950020E0,8.386483552E0
1.071002276E0,-3.299999982E-2,8.340000153E0,1.432950020E0,8.462271403E0
1.072964127E0,-7.200000435E-2,8.493000031E0,1.471050024E0,8.619757635E0
1.074925972E0,-7.200000435E-2,8.647050858E0,1.510050058E0,8.778207318E0
1.076887819E0,-7.200000435E-2,8.761950493E0,1.510050058E0,8.891412240E0
1.078850174E0,-2.250000089E-1,8.953050613E0,1.510050058E0,9.082289990E0
1.080812370E0,-4.549500346E-1,9.145050049E0,1.510050058E0,9.280041547E0
1.082774202E0,-3.400500119E-1,9.259950638E0,1.510050058E0,9.388427504E0
1.084736141E0,-4.549500346E-1,9.412950516E0,1.548000097E0,9.550231476E0
1.086698105E0,-5.700000525E-1,9.604950905E0,1.624950051E0,9.758096362E0
1.088660062E0,-6.850500107E-1,9.796050072E0,1.624950051E0,9.953509592E0
1.090621880E0,-7.999500632E-1,9.910950661E0,1.585950017E0,1.006886789E1
1.092583746E0,-8.380500674E-1,1.002600002E1,1.548000097E0,1.017935699E1
1.094545813E0,-9.150000215E-1,1.010295010E1,1.510050058E0,1.025607512E1
1.096507821E0,-9.919500351E-1,1.025595093E1,1.471050024E0,1.040828912E1
1.098469821E0,-1.106999993E0,1.029495049E1,1.471050024E0,1.045827149E1
1.100431823E0,-1.183050036E0,1.037100029E1,1.510050058E0,1.054691925E1
1.102393792E0,-1.222050071E0,1.041000080E1,1.471050024E0,1.058421047E1
1.104355761E0,-1.183050036E0,1.041000080E1,1.510050058E0,1.058527162E1
1.106317586E0,-1.068000078E0,1.041000080E1,1.510050058E0,1.057303135E1
1.108279454E0,-1.106999993E0,1.033305073E1,1.548000097E0,1.050684018E1
1.110241296E0,-1.106999993E0,1.025595093E1,1.432950020E0,1.041457268E1
1.112203146E0,-1.068000078E0,1.029495049E1,1.624950051E0,1.047697916E1
1.114165249E0,-1.106999993E0,1.025595093E1,1.624950051E0,1.044272192E1
1.116127254E0,-1.068000078E0,1.018005085E1,1.663050056E0,1.037013958E1
1.118089254E0,-9.919500351E-1,1.014105034E1,1.663050056E0,1.032427248E1
1.120051256E0,-9.150000215E-1,1.006500053E1,1.701000094E0,1.024865172E1
1.122013390E0,-8.380500674E-1,9.949950218E0,1.585950017E0,1.011034494E1
1.123975485E0,-7.230000496E-1,9.835050583E0,1.585950017E0,9.988302483E0
1.125937315E0,-6.469500065E-1,9.720000267E0,1.510050058E0,9.857849699E0
1.127899237E0,-4.930500090E-1,9.565950394E0,1.510050058E0,9.696945727E0
1.129860845E0,-3.780000210E-1,9.451050758E0,1.510050058E0,9.578386901E0
1.131822545E0,-3.400500119E-1,9.336000443E0,1.471050024E0,9.457300167E0
1.133784280E0,-3.019500077E-1,9.183000565E0,1.471050024E0,9.304980459E0
1.135746004E0,-1.870500147E-1,9.106050491E0,1.471050024E0,9.226003004E0
1.137707997E0,-1.099500060E-1,9.030000687E0,1.395000100E0,9.137780184E0
1.139669918E0,-3.299999982E-2,8.953050613E0,1.318050027E0,9.049611050E0
1.141631977E0,1.189500093E-1,8.914950371E0,1.203000069E0,8.996538133E0
1.143593995E0,3.109500110E-1,8.838000298E0,1.165050030E0,8.919881207E0
1.145556172E0,3.870000243E-1,8.800050735E0,1.087950110E0,8.875488573E0
1.147518303E0,5.410500169E-1,8.838000298E0,1.087950110E0,8.921133326E0
1.149481167E0,6.550500393E-1,8.877000809E0,1.050000072E0,8.962853009E0
1.151443826E0,7.320000529E-1,8.953050613E0,1.011000037E0,9.039638291E0
1.153405489E0,8.470500112E-1,8.991000175E0,9.349500537E-1,9.079080872E0
1.155367444E0,8.850000501E-1,9.106050491E0,8.959500194E-1,9.192720331E0
1.157329091E0,1.077000022E0,9.145050049E0,8.580000401E-1,9.248136759E0
1.159290829E0,1.077000022E0,9.220950127E0,8.200500607E-1,9.319781778E0
1.161253072E0,1.039050102E0,9.336000443E0,7.429500222E-1,9.422977455E0
1.163215153E0,1.077000022E0,9.412950516E0,6.660000086E-1,9.497743020E0
1.165176960E0,1.077000022E0,9.412950516E0,6.280500293E-1,9.495157360E0
1.167138848E0,1.153950095E0,9.490050316E0,5.509500504E-1,9.575813374E0
1.169100911E0,1.153950095E0,9.528000832E0,5.130000114E-1,9.611325074E0
1.171062922E0,1.114950061E0,9.528000832E0,5.130000114E-1,9.606720694E0
1.173025217E0,1.114950061E0,9.528000832E0,5.899500251E-1,9.611137004E0
1.174987442E0,1.039050102E0,9.565950394E0,4.750500321E-1,9.633935052E0
1.176949404E0,9.619500637E-1,9.565950394E0,6.280500293E-1,9.634687421E0
1.178911444E0,9.619500637E-1,9.643050194E0,6.660000086E-1,9.713769658E0
1.180873121E0,9.240000248E-1,9.720000267E0,7.810500264E-1,9.795009973E0
1.182834905E0,8.470500112E-1,9.720000267E0,8.200500607E-1,9.791240014E0
1.184796775E0,8.089500666E-1,9.796050072E0,8.580000401E-1,9.866770560E0
1.186758610E0,6.550500393E-1,9.835050583E0,7.810500264E-1,9.887737338E0
1.188719873E0,6.169500351E-1,9.796050072E0,7.429500222E-1,9.843535904E0
1.190681304E0,5.410500169E-1,9.796050072E0,5.130000114E-1,9.824382990E0
1.192643581E0,5.020500422E-1,9.757950783E0,4.750500321E-1,9.782399003E0
1.194605610E0,3.870000243E-1,9.720000267E0,5.130000114E-1,9.741218775E0
1.196567140E0,3.490500152E-1,9.681000710E0,6.280500293E-1,9.707628829E0
1.198528795E0,3.109500110E-1,9.604950905E0,8.959500194E-1,9.651657797E0
1.200490988E0,2.719500065E-1,9.604950905E0,1.126049995E0,9.674555663E0
1.202453023E0,1.189500093E-1,9.490050316E0,1.203000069E0,9.566734723E0
1.204414838E0,4.050000105E-3,9.412950516E0,1.165050030E0,9.484777034E0
1.206376718E0,-3.299999982E-2,9.490050316E0,1.165050030E0,9.561353752E0
1.208338573E0,-3.299999982E-2,9.528000832E0,1.087950110E0,9.589969984E0
1.210300425E0,-1.099500060E-1,9.528000832E0,8.580000401E-1,9.567186259E0
1.212262270E0,-1.870500147E-1,9.528000832E0,7.810500264E-1,9.561789932E0
1.214224117E0,-1.870500147E-1,9.565950394E0,7.810500264E-1,9.599605918E0
1.216186007E0,-2.629500031E-1,9.604950905E0,7.810500264E-1,9.640241892E0
1.218147885E0,-3.780000210E-1,9.565950394E0,8.200500607E-1,9.608474023E0
1.220110130E0,-4.170000255E-1,9.528000832E0,8.959500194E-1,9.579113493E0
1.222072236E0,-4.930500090E-1,9.490050316E0,8.959500194E-1,9.544992391E0
1.224034039E0,-5.700000525E-1,9.412950516E0,9.730500579E-1,9.480261805E0
1.225995931E0,-6.469500065E-1,9.451050758E0,9.730500579E-1,9.523010614E0
1.227957769E0,-6.079500318E-1,9.451050758E0,9.349500537E-1,9.516622052E0
1.229919623E0,-7.230000496E-1,9.336000443E0,7.810500264E-1,9.396471278E0
1.231881988E0,-7.230000496E-1,9.336000443E0,8.200500607E-1,9.399793372E0
1.233844217E0,-7.999500632E-1,9.375000000E0,1.011000037E0,9.463227049E0
1.235806179E0,-7.999500632E-1,9.375000000E0,1.011000037E0,9.463227049E0
1.237768219E0,-7.999500632E-1,9.336000443E0,1.011000037E0,9.424592588E0
1.239730212E0,-8.770500422E-1,9.298050880E0,9.349500537E-1,9.386005463E0
1.241692219E0,-8.770500422E-1,9.298050880E0,8.580000401E-1,9.378652943E0
1.243654168E0,-9.529500604E-1,9.259950638E0,7.050000429E-1,9.335514163E0
1.245616137E0,-9.529500604E-1,9.220950127E0,7.429500222E-1,9.299785470E0
1.247578186E0,-9.919500351E-1,9.220950127E0,7.050000429E-1,9.300909158E0
1.249540212E0,-9.529500604E-1,9.220950127E0,6.660000086E-1,9.293954544E0
1.251502388E0,-1.068000078E0,9.145050049E0,5.509500504E-1,9.223671206E0
1.253464520E0,-1.106999993E0,9.145050049E0,5.509500504E-1,9.228268274E0
1.255426313E0,-1.144950032E0,9.067950249E0,4.750500321E-1,9.152284131E0
1.257388209E0,-1.144950032E0,9.030000687E0,4.360500276E-1,9.112736285E0
1.259350181E0,-1.183050036E0,9.030000687E0,3.600000143E-1,9.114281091E0
1.261312131E0,-1.222050071E0,8.991000175E0,3.220500052E-1,9.079383610E0
1.263274905E0,-1.222050071E0,8.914950371E0,2.830500007E-1,9.002769784E0
1.265237438E0,-1.222050071E0,8.877000809E0,2.070000172E-1,8.963113228E0
1.267199298E0,-1.260000110E0,8.800050735E0,1.300500035E-1,8.890748350E0
1.269161358E0,-1.297950029E0,8.685000420E0,9.195000678E-2,8.781933806E0
1.271123032E0,-1.375050068E0,8.685000420E0,9.195000678E-2,8.793659635E0
1.273084820E0,-1.413000107E0,8.608050346E0,1.500000060E-2,8.723263441E0
1.275046810E0,-1.413000107E0,8.569950104E0,-2.205000073E-2,8.685683639E0
1.277008741E0,-1.375050068E0,8.647050858E0,-6.105000153E-2,8.755911051E0
1.278970438E0,-1.413000107E0,8.608050346E0,-1.369500011E-1,8.724325497E0
1.280932204E0,-1.528050065E0,8.608050346E0,-6.105000153E-2,8.742836775E0
1.282894018E0,-1.567050099E0,8.647050858E0,-9.900000691E-2,8.788454674E0
1.284855818E0,-1.567050099E0,8.647050858E0,-9.900000691E-2,8.788454674E0
1.286817672E0,-1.528050065E0,8.647050858E0,-9.900000691E-2,8.781584512E0
1.288779510E0,-1.528050065E0,8.722949982E0,-1.759500057E-1,8.857525150E0
1.290741519E0,-1.567050099E0,8.685000420E0,-2.520000041E-1,8.828838106E0
1.292703491E0,-1.528050065E0,8.685000420E0,-1.759500057E-1,8.820154630E0
1.294665317E0,-1.567050099E0,8.685000420E0,-1.369500011E-1,8.826303507E0
1.296627186E0,-1.528050065E0,8.685000420E0,-1.369500011E-1,8.819462829E0
1.298588893E0,-1.567050099E0,8.685000420E0,-2.140500098E-1,8.827836412E0
1.300550647E0,-1.452000022E0,8.685000420E0,-1.759500057E-1,8.807297812E0
1.302512648E0,-1.413000107E0,8.647050858E0,-1.759500057E-1,8.763504792E0
1.304474573E0,-1.413000107E0,8.608050346E0,-1.759500057E-1,8.725024841E0
1.306436586E0,-1.452000022E0,8.569950104E0,-1.759500057E-1,8.693866070E0
1.308398573E0,-1.489950061E0,8.608050346E0,-1.759500057E-1,8.737816681E0
1.310360441E0,-1.489950061E0,8.532000542E0,-1.369500011E-1,8.662201783E0
1.312322344E0,-1.375050068E0,8.608050346E0,-2.520000041E-1,8.720825503E0
1.314284518E0,-1.336950064E0,8.608050346E0,-2.520000041E-1,8.714899325E0
1.316246596E0,-1.413000107E0,8.647050858E0,-2.910000086E-1,8.766569388E0
1.318208448E0,-1.489950061E0,8.647050858E0,-2.910000086E-1,8.779300697E0
1.320170367E0,-1.413000107E0,8.647050858E0,-2.910000086E-1,8.766569388E0
1.322132201E0,-1.336950064E0,8.647050858E0,-2.910000086E-1,8.754633345E0
1.324094060E0,-1.336950064E0,8.647050858E0,-2.910000086E-1,8.754633345E0
1.326055845E0,-1.297950029E0,8.647050858E0,-3.289500177E-1,8.750106909E0
1.328017661E0,-1.260000110E0,8.722949982E0,-2.910000086E-1,8.818284281E0
1.329979556E0,-1.260000110E0,8.722949982E0,-2.520000041E-1,8.817083456E0
1.331941428E0,-1.222050071E0,8.722949982E0,-2.520000041E-1,8.811740280E0
1.333903585E0,-1.222050071E0,8.800050735E0,-2.140500098E-1,8.887075826E0
1.335865659E0,-1.183050036E0,8.800050735E0,-2.140500098E-1,8.881796988E0
1.337827755E0,-1.144950032E0,8.877000809E0,-2.520000041E-1,8.954080519E0
1.339789801E0,-1.106999993E0,8.914950371E0,-1.759500057E-1,8.985140372E0
1.341751567E0,-1.183050036E0,8.953050613E0,-1.369500011E-1,9.031914414E0
1.343713416E0,-1.144950032E0,9.030000687E0,-1.369500011E-1,9.103327868E0
1.345675127E0,-1.222050071E0,9.067950249E0,-9.900000691E-2,9.150460594E0
1.347636878E0,-1.183050036E0,9.145050049E0,-6.105000153E-2,9.221457308E0
1.349598724E0,-1.222050071E0,9.183000565E0,-9.900000691E-2,9.264486319E0
1.351560553E0,-1.260000110E0,9.145050049E0,-9.900000691E-2,9.231973877E0
1.353522718E0,-1.260000110E0,9.183000565E0,-9.900000691E-2,9.269568525E0
1.355484784E0,-1.260000110E0,9.259950638E0,1.500000060E-2,9.345293526E0
1.357446593E0,-1.222050071E0,9.259950638E0,5.295000225E-2,9.340390564E0
1.359408478E0,-1.297950029E0,9.298050880E0,-2.205000073E-2,9.388232563E0
1.361370547E0,-1.336950064E0,9.259950638E0,-2.205000073E-2,9.355993132E0
1.363332558E0,-1.375050068E0,9.298050880E0,-2.205000073E-2,9.399202044E0
1.365294917E0,-1.336950064E0,9.336000443E0,-9.900000691E-2,9.431762335E0
1.367257174E0,-1.297950029E0,9.336000443E0,5.295000225E-2,9.425941982E0
1.369219490E0,-1.336950064E0,9.298050880E0,1.500000060E-2,9.393689938E0
1.371181789E0,-1.375050068E0,9.336000443E0,-2.205000073E-2,9.436744839E0
1.373143708E0,-1.375050068E0,9.298050880E0,5.295000225E-2,9.399325325E0
1.375105728E0,-1.375050068E0,9.298050880E0,5.295000225E-2,9.399325325E0
1.377067409E0,-1.375050068E0,9.259950638E0,5.295000225E-2,9.361637261E0
1.379029190E0,-1.375050068E0,9.298050880E0,5.295000225E-2,9.399325325E0
1.380991046E0,-1.452000022E0,9.336000443E0,9.195000678E-2,9.448685789E0
1.382952880E0,-1.413000107E0,9.336000443E0,9.195000678E-2,9.442771223E0
1.384914834E0,-1.413000107E0,9.336000443E0,1.300500035E-1,9.443219079E0
1.386876774E0,-1.375050068E0,9.336000443E0,1.680000126E-1,9.438214394E0
1.388838829E0,-1.375050068E0,9.336000443E0,1.300500035E-1,9.437615162E0
1.390800851E0,-1.375050068E0,9.412950516E0,2.070000172E-1,9.515106363E0
1.392762488E0,-1.336950064E0,9.412950516E0,2.830500007E-1,9.511634465E0
1.394724238E0,-1.336950064E0,9.412950516E0,2.449500114E-1,9.510576922E0
1.396686050E0,-1.336950064E0,9.412950516E0,2.449500114E-1,9.510576922E0
1.398647847E0,-1.297950029E0,9.412950516E0,2.449500114E-1,9.505172918E0
1.400609387E0,-1.260000110E0,9.412950516E0,2.830500007E-1,9.501123880E0
1.402571003E0,-1.260000110E0,9.412950516E0,2.830500007E-1,9.501123880E0
1.404531987E0,-1.222050071E0,9.451050758E0,2.830500007E-1,9.533933297E0
1.406493157E0,-1.183050036E0,9.412950516E0,3.220500052E-1,9.492468647E0
1.408454743E0,-1.222050071E0,9.451050758E0,3.600000143E-1,9.536528028E0
1.410416217E0,-1.144950032E0,9.451050758E0,3.979500234E-1,9.528464474E0
1.412378082E0,-1.183050036E0,9.412950516E0,5.509500504E-1,9.502988517E0
1.414339832E0,-1.222050071E0,9.451050758E0,4.750500321E-1,9.541563779E0
1.416301516E0,-1.106999993E0,9.412950516E0,5.899500251E-1,9.496163827E0
1.418263219E0,-1.106999993E0,9.412950516E0,6.280500293E-1,9.498606910E0
1.420224924E0,-1.068000078E0,9.451050758E0,6.660000086E-1,9.534492153E0
1.422186618E0,-1.030050039E0,9.412950516E0,6.660000086E-1,9.492533724E0
1.424148490E0,-1.030050039E0,9.451050758E0,7.050000429E-1,9.533120611E0
1.426110309E0,-9.529500604E-1,9.412950516E0,5.899500251E-1,9.479440504E0
1.428071980E0,-9.150000215E-1,9.412950516E0,6.660000086E-1,9.480739342E0
1.430033695E0,-8.770500422E-1,9.490050316E0,7.050000429E-1,9.556531632E0
1.431995733E0,-8.380500674E-1,9.528000832E0,7.050000429E-1,9.590732653E0
1.433957683E0,-7.999500632E-1,9.565950394E0,7.050000429E-1,9.625193614E0
1.435919197E0,-8.380500674E-1,9.604950905E0,7.429500222E-1,9.670025054E0
1.437880839E0,-7.230000496E-1,9.643050194E0,7.429500222E-1,9.698614378E0
1.439842360E0,-7.620000243E-1,9.681000710E0,8.200500607E-1,9.745506702E0
1.441803916E0,-6.850500107E-1,9.681000710E0,8.200500607E-1,9.739792111E0
1.443765780E0,-6.469500065E-1,9.720000267E0,8.200500607E-1,9.775961927E0
1.445727544E0,-6.469500065E-1,9.796050072E0,8.959500194E-1,9.858187854E0
1.447689089E0,-6.469500065E-1,9.873000145E0,8.959500194E-1,9.934656643E0
1.449650699E0,-6.079500318E-1,9.873000145E0,9.730500579E-1,9.939444729E0
1.451612765E0,-5.700000525E-1,9.910950661E0,1.011000037E0,9.978675470E0
1.453574697E0,-5.320500135E-1,9.949950218E0,1.050000072E0,1.001933564E1
1.455536471E0,-5.320500135E-1,9.988050461E0,1.087950110E0,1.006120593E1
1.457498301E0,-4.549500346E-1,1.002600002E1,1.126049995E0,1.009928931E1
1.459460194E0,-4.930500090E-1,1.002600002E1,1.126049995E0,1.010107734E1
1.461422068E0,-4.549500346E-1,1.014105034E1,1.087950110E0,1.020938377E1
1.463383910E0,-4.930500090E-1,1.014105034E1,1.126049995E0,1.021528212E1
1.465345762E0,-4.549500346E-1,1.021800041E1,1.011000037E0,1.027796833E1
1.467307396E0,-4.549500346E-1,1.033305073E1,1.050000072E0,1.039622129E1
1.469269084E0,-4.549500346E-1,1.029495049E1,1.087950110E0,1.036226908E1
1.471231136E0,-4.930500090E-1,1.033305073E1,1.050000072E0,1.039795825E1
1.473193082E0,-4.930500090E-1,1.037100029E1,1.011000037E0,1.043181990E1
1.475154912E0,-5.320500135E-1,1.044795036E1,1.011000037E0,1.051022669E1
1.477116776E0,-6.079500318E-1,1.044795036E1,9.349500537E-1,1.050730230E1
1.479078679E0,-7.230000496E-1,1.048605061E1,9.349500537E-1,1.055244607E1
1.481040559E0,-7.230000496E-1,1.056300068E1,9.349500537E-1,1.062891547E1
1.483002580E0,-7.620000243E-1,1.060095024E1,8.580000401E-1,1.066287738E1
1.484964559E0,-7.999500632E-1,1.060095024E1,7.810500264E-1,1.065974227E1
1.486926338E0,-8.770500422E-1,1.063995075E1,7.429500222E-1,1.070185701E1
1.488888176E0,-9.919500351E-1,1.067805004E1,7.810500264E-1,1.075243027E1
1.490850022E0,-9.919500351E-1,1.067805004E1,7.429500222E-1,1.074972987E1
1.492811866E0,-1.030050039E0,1.067805004E1,7.050000429E-1,1.075075722E1
1.494773534E0,-1.144950032E0,1.063995075E1,7.429500222E-1,1.072713556E1
1.496735253E0,-1.222050071E0,1.063995075E1,7.429500222E-1,1.073563846E1
1.498697165E0,-1.260000110E0,1.063995075E1,6.280500293E-1,1.073268835E1
1.500659020E0,-1.336950064E0,1.063995075E1,6.280500293E-1,1.074199396E1
1.502620861E0,-1.336950064E0,1.063995075E1,5.899500251E-1,1.073983373E1
1.504582710E0,-1.413000107E0,1.060095024E1,5.899500251E-1,1.071096431E1
1.506544555E0,-1.452000022E0,1.060095024E1,5.899500251E-1,1.071617894E1
1.508506402E0,-1.489950061E0,1.052505016E1,5.509500504E-1,1.064425564E1
1.510468248E0,-1.528050065E0,1.052505016E1,5.130000114E-1,1.064775972E1
1.512430094E0,-1.528050065E0,1.048605061E1,4.360500276E-1,1.060576890E1
1.514392133E0,-1.681950092E0,1.048605061E1,4.750500321E-1,1.063070487E1
1.516354106E0,-1.642950058E0,1.044795036E1,3.979500234E-1,1.058382331E1
1.518315706E0,-1.720050097E0,1.041000080E1,3.979500234E-1,1.055864827E1
1.520277416E0,-1.720050097E0,1.044795036E1,3.220500052E-1,1.059348646E1
1.522240050E0,-1.758000135E0,1.044795036E1,2.830500007E-1,1.059860126E1
1.524202414E0,-1.758000135E0,1.041000080E1,2.830500007E-1,1.056119304E1
1.526164260E0,-1.834950089E0,1.041000080E1,2.449500114E-1,1.057332299E1
1.528126291E0,-1.795950055E0,1.044795036E1,2.070000172E-1,1.060320482E1
1.530087925E0,-1.758000135E0,1.044795036E1,2.449500114E-1,1.059765218E1
1.532049676E0,-1.758000135E0,1.041000080E1,1.680000126E-1,1.055873596E1
1.534010998E0,-1.758000135E0,1.041000080E1,2.449500114E-1,1.056024061E1
1.535972445E0,-1.758000135E0,1.033305073E1,2.830500007E-1,1.048535260E1
1.537934193E0,-1.758000135E0,1.037100029E1,2.070000172E-1,1.052098192E1
1.539895842E0,-1.642950058E0,1.037100029E1,2.449500114E-1,1.050318677E1
1.541857542E0,-1.605000019E0,1.037100029E1,2.830500007E-1,1.049827554E1
1.543819227E0,-1.528050065E0,1.044795036E1,2.830500007E-1,1.056289359E1
1.545781281E0,-1.489950061E0,1.041000080E1,2.830500007E-1,1.051989473E1
1.547743227E0,-1.452000022E0,1.044795036E1,2.070000172E-1,1.055039430E1
1.549704862E0,-1.413000107E0,1.048605061E1,2.830500007E-1,1.058460882E1
1.551666599E0,-1.375050068E0,1.048605061E1,2.830500007E-1,1.057960951E1
1.553627968E0,-1.260000110E0,1.052505016E1,2.449500114E-1,1.060303172E1
1.555589445E0,-1.222050071E0,1.052505016E1,2.449500114E-1,1.059858895E1
1.557550633E0,-1.106999993E0,1.052505016E1,3.600000143E-1,1.058922707E1
1.559511906E0,-1.106999993E0,1.052505016E1,4.750500321E-1,1.059376243E1
1.561473791E0,-1.144950032E0,1.060095024E1,4.750500321E-1,1.067317802E1
1.563435506E0,-1.068000078E0,1.060095024E1,5.509500504E-1,1.066884793E1
1.565397195E0,-1.030050039E0,1.067805004E1,6.280500293E-1,1.074598542E1
1.567358892E0,-1.030050039E0,1.071600056E1,7.050000429E-1,1.078845198E1
1.569320448E0,-1.030050039E0,1.075500011E1,8.200500607E-1,1.083529015E1
1.571282046E0,-1.030050039E0,1.079295063E1,1.050000072E0,1.089271713E1
1.573243749E0,-1.068000078E0,1.075500011E1,1.126049995E0,1.086639960E1
1.575205424E0,-1.106999993E0,1.083105087E1,1.279950023E0,1.096245338E1
1.577167254E0,-1.222050071E0,1.071600056E1,1.356000066E0,1.087036386E1
1.579129039E0,-1.144950032E0,1.075500011E1,1.471050024E0,1.091535278E1
1.581090896E0,-1.144950032E0,1.083105087E1,1.510050058E0,1.099558206E1
1.583052732E0,-1.183050036E0,1.087005043E1,1.548000097E0,1.104327434E1
1.585014271E0,-1.222050071E0,1.094595051E1,1.624950051E0,1.113318021E1
1.586975893E0,-1.183050036E0,1.094595051E1,1.663050056E0,1.113459363E1
1.588937551E0,-1.260000110E0,1.098495007E1,1.816050053E0,1.120512231E1
1.590899198E0,-1.336950064E0,1.102305031E1,1.969950080E0,1.127722381E1
1.592860898E0,-1.375050068E0,1.106100082E1,2.046000004E0,1.133237036E1
1.594822583E0,-1.452000022E0,1.110000038E1,2.161050081E0,1.140124774E1
1.596784335E0,-1.489950061E0,1.113795090E1,2.314950228E0,1.147313802E1
1.598746058E0,-1.452000022E0,1.113795090E1,2.391000032E0,1.148386413E1
1.600708061E0,-1.489950061E0,1.113795090E1,2.620950222E0,1.153877296E1
1.602669981E0,-1.489950061E0,1.113795090E1,2.698050022E0,1.155652955E1
1.604631816E0,-1.489950061E0,1.113795090E1,2.736000061E0,1.156544844E1
1.606593676E0,-1.528050065E0,1.110000038E1,2.812950134E0,1.155238650E1
1.608555164E0,-1.528050065E0,1.110000038E1,2.812950134E0,1.155238650E1
1.610516758E0,-1.489950061E0,1.102305031E1,2.889000177E0,1.149234142E1
1.612478332E0,-1.413000107E0,1.098495007E1,3.004050255E0,1.147562701E1
1.614439912E0,-1.375050068E0,1.090800095E1,3.043050051E0,1.140769043E1
1.616401622E0,-1.336950064E0,1.090800095E1,3.043050051E0,1.140316069E1
1.618363294E0,-1.297950029E0,1.083105087E1,3.081000090E0,1.133529439E1
1.620325139E0,-1.183050036E0,1.075500011E1,3.118950129E0,1.126043892E1
1.622286924E0,-1.144950032E0,1.071600056E1,3.234000206E0,1.125177034E1
1.624248781E0,-9.919500351E-1,1.063995075E1,3.234000206E0,1.116473350E1
1.626210616E0,-8.770500422E-1,1.052505016E1,3.349050045E0,1.107980297E1
1.628172150E0,-8.380500674E-1,1.041000080E1,3.388050079E0,1.097949580E1
1.630133772E0,-7.999500632E-1,1.029495049E1,3.426000118E0,1.087949458E1
1.632095615E0,-6.850500107E-1,1.029495049E1,3.463950157E0,1.088366894E1
1.634057390E0,-4.930500090E-1,1.021800041E1,3.502950191E0,1.081301488E1
1.636018934E0,-3.780000210E-1,1.010295010E1,3.463950157E0,1.068697503E1
1.637980546E0,-2.629500031E-1,1.002600002E1,3.388050079E0,1.058625063E1
1.639942072E0,-1.480500102E-1,9.910950661E0,3.349050045E0,1.046255217E1
1.641903623E0,-2.250000089E-1,9.835050583E0,3.273000240E0,1.036780476E1
1.643865853E0,-3.299999982E-2,9.757950783E0,3.426000118E0,1.034196158E1
1.645827871E0,3.109500110E-1,9.604950905E0,3.463950157E0,1.021522014E1
1.647790273E0,7.320000529E-1,9.490050316E0,3.502950191E0,1.014236359E1
1.649752563E0,8.470500112E-1,9.412950516E0,3.541050196E0,1.009257983E1
1.651714289E0,1.000050068E0,9.259950638E0,3.541050196E0,9.964227137E0
1.653676180E0,1.306950092E0,9.145050049E0,3.541050196E0,9.893386449E0
1.655638184E0,1.269000053E0,9.030000687E0,3.541050196E0,9.782142405E0
1.657600164E0,1.345050097E0,8.914950371E0,3.502950191E0,9.672443327E0
1.659562034E0,1.422000051E0,8.838000298E0,3.579000235E0,9.640621146E0
1.661523936E0,1.614000082E0,8.647050858E0,3.463950157E0,9.453858233E0
1.663485772E0,1.729050040E0,8.532000542E0,3.349050045E0,9.327421052E0
1.665447628E0,1.959000111E0,8.340000153E0,3.310950041E0,9.184534509E0
1.667409637E0,2.035050154E0,8.263050079E0,3.234000206E0,9.103745552E0
1.669371611E0,2.188950062E0,8.148000717E0,3.043050051E0,8.968922548E0
1.671333616E0,2.380050182E0,7.995000362E0,2.928000212E0,8.840693124E0
1.673295611E0,2.533950090E0,7.842000484E0,2.851050138E0,8.720456499E0
1.675257568E0,2.686950207E0,7.765050411E0,2.736000061E0,8.660335192E0
1.677219536E0,2.802000046E0,7.612050533E0,2.506050110E0,8.489688141E0
1.679181721E0,2.955000162E0,7.573050499E0,2.353049994E0,8.462857915E0
1.681143842E0,3.184950113E0,7.458000183E0,2.200050116E0,8.402731369E0
1.683105507E0,3.262050152E0,7.420050144E0,2.046000004E0,8.359678902E0
1.685067305E0,3.376950264E0,7.458000183E0,1.969950080E0,8.420585676E0
1.687028979E0,3.492000103E0,7.458000183E0,1.777950048E0,8.424781174E0
1.688990690E0,3.568050146E0,7.534950256E0,1.663050056E0,8.501305353E0
1.690952743E0,3.529950142E0,7.612050533E0,1.510050058E0,8.525497786E0
1.692914693E0,3.568050146E0,7.765050411E0,1.471050024E0,8.671273142E0
1.694876522E0,3.529950142E0,7.918050289E0,1.356000066E0,8.774668345E0
1.696838387E0,3.453000069E0,8.032950401E0,1.356000066E0,8.848177089E0
1.698800409E0,3.376950264E0,8.302050591E0,1.203000069E0,9.042955615E0
1.700762385E0,3.300000191E0,8.455050468E0,1.126049995E0,9.145811515E0
1.702724030E0,3.262050152E0,8.647050858E0,1.126049995E0,9.310233527E0
1.704685772E0,3.108000040E0,8.800050735E0,1.087950110E0,9.395966828E0
1.706647770E0,2.917050123E0,9.106050491E0,1.011000037E0,9.615168124E0
1.708609693E0,2.686950207E0,9.336000443E0,8.200500607E-1,9.749517310E0
1.710571932E0,2.111999989E0,9.412950516E0,1.500000060E-2,9.646989497E0
1.712534078E0,2.341950178E0,9.681000710E0,5.295000225E-2,9.960386994E0
1.714495367E0,2.341950178E0,9.757950783E0,4.360500276E-1,1.004452457E1
1.716456883E0,2.188950062E0,1.006500053E1,6.660000086E-1,1.032178735E1
1.718418424E0,1.882050037E0,1.029495049E1,7.810500264E-1,1.049467279E1
1.720379958E0,1.651950121E0,1.052505016E1,9.349500537E-1,1.069484697E1
1.722342038E0,1.422000051E0,1.071600056E1,9.730500579E-1,1.085364356E1
1.724303958E0,1.345050097E0,1.083105087E1,1.011000037E0,1.096097367E1
1.726265751E0,1.230000019E0,1.102305031E1,1.011000037E0,1.113744402E1
1.728227579E0,1.039050102E0,1.113795090E1,9.730500579E-1,1.122855297E1
1.730189293E0,7.699500322E-1,1.129095078E1,8.959500194E-1,1.135258204E1
1.732151041E0,7.699500322E-1,1.144395065E1,8.580000401E-1,1.150186914E1
1.734112003E0,6.169500351E-1,1.152105045E1,7.810500264E-1,1.156396429E1
1.736073195E0,4.260000288E-1,1.159800053E1,7.050000429E-1,1.162721451E1
1.738034982E0,3.109500110E-1,1.167405033E1,5.130000114E-1,1.168945294E1
1.739996587E0,1.960500032E-1,1.167405033E1,3.979500234E-1,1.168247623E1
1.741958971E0,4.200000316E-2,1.171305084E1,2.830500007E-1,1.171654562E1
1.743921126E0,-7.200000435E-2,1.171305084E1,2.449500114E-1,1.171583307E1
1.745882424E0,-1.870500147E-1,1.175100040E1,1.680000126E-1,1.175368973E1
1.747843974E0,-3.400500119E-1,1.171305084E1,1.680000126E-1,1.171919016E1
1.749805630E0,-5.320500135E-1,1.167405033E1,9.195000678E-2,1.168652999E1
1.751767265E0,-7.620000243E-1,1.159800053E1,1.500000060E-2,1.162301533E1
1.753728833E0,-9.150000215E-1,1.159800053E1,-2.140500098E-1,1.163600699E1
1.755690420E0,-1.030050039E0,1.148295021E1,-3.289500177E-1,1.153374860E1
1.757652130E0,-1.144950032E0,1.136805058E1,-4.060500264E-1,1.143277574E1
1.759613803E0,-1.375050068E0,1.121400070E1,-4.819500148E-1,1.130826469E1
1.761575514E0,-1.452000022E0,1.117605019E1,-4.440000355E-1,1.127872058E1
1.763537203E0,-1.642950058E0,1.102305031E1,-3.670500219E-1,1.115085865E1
1.765499076E0,-1.758000135E0,1.090800095E1,-2.910000086E-1,1.105258929E1
1.767460895E0,-1.950000048E0,1.075500011E1,-2.520000041E-1,1.093325348E1
1.769422567E0,-2.065050125E0,1.060095024E1,-1.759500057E-1,1.080164508E1
1.771384282E0,-2.179949999E0,1.056300068E1,-1.369500011E-1,1.078646933E1
1.773345950E0,-2.295000076E0,1.048605061E1,-1.759500057E-1,1.073569937E1
1.775307646E0,-2.485950232E0,1.048605061E1,-1.369500011E-1,1.077756750E1
1.777269293E0,-2.448000193E0,1.041000080E1,-2.140500098E-1,1.069610392E1
1.779230954E0,-2.485950232E0,1.037100029E1,-4.060500264E-1,1.067251012E1
1.781192651E0,-2.524950027E0,1.029495049E1,-5.209500194E-1,1.061285857E1
1.783154337E0,-2.601000071E0,1.029495049E1,-4.440000355E-1,1.062771579E1
1.785115882E0,-2.716050148E0,1.033305073E1,-4.440000355E-1,1.069326899E1
1.787077478E0,-2.677950144E0,1.029495049E1,-5.590500236E-1,1.065222791E1
1.789039321E0,-2.716050148E0,1.025595093E1,-6.739500165E-1,1.063088268E1
1.791001092E0,-2.755050182E0,1.029495049E1,-8.269500136E-1,1.068925411E1
1.792962817E0,-2.716050148E0,1.037100029E1,-8.269500136E-1,1.075260070E1
1.794924555E0,-2.716050148E0,1.037100029E1,-8.659500480E-1,1.075567036E1
1.796886054E0,-2.677950144E0,1.037100029E1,-9.040500522E-1,1.074924976E1
1.798847627E0,-2.524950027E0,1.037100029E1,-8.269500136E-1,1.070592668E1
1.800809474E0,-2.485950232E0,1.044795036E1,-7.890000343E-1,1.076857170E1
1.802771241E0,-2.410050154E0,1.037100029E1,-7.890000343E-1,1.067654016E1
1.804733101E0,-2.256000042E0,1.037100029E1,-7.120500207E-1,1.063739622E1
1.806694933E0,-2.140950203E0,1.041000080E1,-6.739500165E-1,1.064922500E1
1.808656594E0,-2.140950203E0,1.033305073E1,-7.120500207E-1,1.057651267E1
1.810618311E0,-2.103000164E0,1.029495049E1,-7.120500207E-1,1.053164899E1
1.812579999E0,-2.026050091E0,1.033305073E1,-7.120500207E-1,1.055385387E1
1.814541695E0,-1.987950087E0,1.033305073E1,-7.890000343E-1,1.055208055E1
1.816503566E0,-1.873050094E0,1.025595093E1,-7.890000343E-1,1.045539895E1
1.818465386E0,-1.720050097E0,1.033305073E1,-8.269500136E-1,1.050782356E1
1.820427042E0,-1.642950058E0,1.029495049E1,-9.040500522E-1,1.046434885E1
1.822388757E0,-1.489950061E0,1.033305073E1,-9.040500522E-1,1.047898826E1
1.824350446E0,-1.452000022E0,1.029495049E1,-8.659500480E-1,1.043284137E1
1.826312142E0,-1.336950064E0,1.021800041E1,-8.269500136E-1,1.033822104E1
1.828273833E0,-1.183050036E0,1.014105034E1,-7.890000343E-1,1.024026515E1
1.830235526E0,-1.106999993E0,1.002600002E1,-1.134000063E0,1.015047199E1
1.832197393E0,-1.068000078E0,9.988050461E0,-1.134000063E0,1.010879480E1
1.834159212E0,-9.529500604E-1,9.873000145E0,-1.096050024E0,9.979257053E0
1.836120883E0,-9.150000215E-1,9.835050583E0,-1.134000063E0,9.942404194E0
1.838082598E0,-7.230000496E-1,9.681000710E0,-1.134000063E0,9.773968485E0
1.840044331E0,-6.850500107E-1,9.604950905E0,-1.096050024E0,9.691527282E0
1.842006058E0,-4.930500090E-1,9.528000832E0,-1.018950105E0,9.595006903E0
1.843967716E0,-4.930500090E-1,9.451050758E0,-9.420000315E-1,9.510668894E0
1.845929383E0,-4.549500346E-1,9.490050316E0,-9.040500522E-1,9.543864051E0
1.847891439E0,-3.400500119E-1,9.375000000E0,-5.590500236E-1,9.397808039E0
1.849853381E0,-2.629500031E-1,9.298050880E0,-1.134000063E0,9.370637600E0
1.851815391E0,-1.870500147E-1,9.259950638E0,-1.171950102E0,9.335691756E0
1.853777381E0,-7.200000435E-2,9.220950127E0,-1.096050024E0,9.286141873E0
1.855738871E0,4.050000105E-3,9.145050049E0,-1.096050024E0,9.210498491E0
1.857700488E0,1.189500093E-1,9.030000687E0,-1.134000063E0,9.101704107E0
1.859662192E0,8.100000024E-2,8.953050613E0,-1.096050024E0,9.020255093E0
1.861623870E0,1.189500093E-1,8.838000298E0,-1.057050109E0,8.901783714E0
1.863585565E0,-3.299999982E-2,8.685000420E0,-1.096050024E0,8.753950362E0
1.865547255E0,4.050000105E-3,8.532000542E0,-1.479000092E0,8.659243091E0
1.867509128E0,4.050000105E-3,8.493000031E0,-1.441050053E0,8.614388613E0
1.869470947E0,4.050000105E-3,8.377950668E0,-1.402050018E0,8.494458079E0
1.871432438E0,8.100000024E-2,8.340000153E0,-1.402050018E0,8.457417324E0
1.873394026E0,4.050000105E-3,8.224950790E0,-1.402050018E0,8.343594918E0
1.875355556E0,4.200000316E-2,8.110050201E0,-1.402050018E0,8.230457006E0
1.877317103E0,-7.200000435E-2,8.148000717E0,-1.096050024E0,8.221704528E0
1.879278684E0,-3.019500077E-1,7.842000484E0,-1.786050081E0,8.048485590E0
1.881240255E0,-1.480500102E-1,7.726950169E0,-1.747050047E0,7.923374381E0
1.883201923E0,-1.480500102E-1,7.803000450E0,-1.441050053E0,7.936331652E0
1.885163563E0,-2.629500031E-1,7.765050411E0,-1.402050018E0,7.894991757E0
1.887124905E0,-3.400500119E-1,7.726950169E0,-1.363950014E0,7.853773142E0
1.889086334E0,-4.170000255E-1,7.765050411E0,-1.363950014E0,7.894951333E0
1.891047881E0,-4.549500346E-1,7.726950169E0,-1.326000094E0,7.853089500E0
1.893009400E0,-6.469500065E-1,7.726950169E0,-1.326000094E0,7.866548129E0
1.894970987E0,-7.999500632E-1,7.687950134E0,-1.516950130E0,7.876905171E0
1.896932554E0,-7.620000243E-1,7.650000572E0,-1.516950130E0,7.836088979E0
1.898894089E0,-8.770500422E-1,7.573050499E0,-1.479000092E0,7.765806584E0
1.900855633E0,-8.380500674E-1,7.573050499E0,-1.402050018E0,7.747203755E0
1.902816975E0,-8.770500422E-1,7.497000217E0,-1.479000092E0,7.691662389E0
1.904778387E0,-9.529500604E-1,7.458000183E0,-1.441050053E0,7.655488606E0
1.906739946E0,-9.919500351E-1,7.458000183E0,-1.402050018E0,7.653200367E0
1.908701462E0,-1.030050039E0,7.458000183E0,-1.441050053E0,7.665467701E0
1.910663365E0,-1.068000078E0,7.497000217E0,-1.479000092E0,7.715768121E0
1.912625154E0,-1.106999993E0,7.497000217E0,-1.402050018E0,7.706893375E0
1.914587005E0,-1.106999993E0,7.497000217E0,-1.479000092E0,7.721263013E0
1.916548841E0,-1.106999993E0,7.497000217E0,-1.402050018E0,7.706893375E0
1.918510284E0,-1.222050071E0,7.497000217E0,-1.441050053E0,7.731432202E0
1.920471843E0,-1.183050036E0,7.534950256E0,-1.441050053E0,7.762197370E0
1.922433243E0,-1.260000110E0,7.534950256E0,-1.479000092E0,7.781421266E0
1.924394690E0,-1.260000110E0,7.534950256E0,-1.516950130E0,7.788723473E0
1.926356194E0,-1.222050071E0,7.497000217E0,-1.555950046E0,7.753670046E0
1.928317684E0,-1.222050071E0,7.497000217E0,-1.555950046E0,7.753670046E0
1.930279051E0,-1.144950032E0,7.497000217E0,-1.555950046E0,7.741892752E0
1.932240455E0,-1.297950029E0,7.497000217E0,-1.555950046E0,7.765994275E0
1.934202195E0,-1.222050071E0,7.612050533E0,-1.363950014E0,7.829245132E0
1.936163837E0,-1.375050068E0,7.458000183E0,-1.479000092E0,7.726575612E0
1.938125174E0,-1.375050068E0,7.497000217E0,-1.708950043E0,7.811292159E0
1.940086604E0,-1.336950064E0,7.534950256E0,-1.786050081E0,7.858300435E0
1.942048026E0,-1.413000107E0,7.534950256E0,-1.824000120E0,7.880293212E0
1.944009450E0,-1.336950064E0,7.534950256E0,-1.786050081E0,7.858300435E0
1.945971142E0,-1.336950064E0,7.497000217E0,-1.747050047E0,7.813106399E0
1.947932756E0,-1.336950064E0,7.534950256E0,-1.708950043E0,7.841136467E0
1.949894156E0,-1.375050068E0,7.612050533E0,-1.747050047E0,7.930085742E0
1.951855613E0,-1.375050068E0,7.612050533E0,-1.747050047E0,7.930085742E0
1.953817164E0,-1.413000107E0,7.573050499E0,-1.786050081E0,7.908074232E0
1.955778688E0,-1.336950064E0,7.573050499E0,-1.824000120E0,7.903512243E0
1.957740185E0,-1.375050068E0,7.612050533E0,-1.824000120E0,7.947392808E0
1.959701690E0,-1.375050068E0,7.612050533E0,-1.786050081E0,7.938768853E0
1.961663617E0,-1.297950029E0,7.612050533E0,-1.824000120E0,7.934416427E0
1.963625404E0,-1.297950029E0,7.612050533E0,-1.861950040E0,7.943226394E0
1.965587260E0,-1.297950029E0,7.687950134E0,-1.861950040E0,8.015990862E0
1.967549096E0,-1.222050071E0,7.687950134E0,-1.824000120E0,7.995308629E0
1.969510810E0,-1.106999993E0,7.726950169E0,-1.861950040E0,8.024840549E0
1.971472560E0,-1.068000078E0,7.765050411E0,-1.861950040E0,8.056270229E0
1.973434242E0,-1.144950032E0,7.803000450E0,-1.900950074E0,8.112418738E0
1.975395944E0,-1.106999993E0,7.842000484E0,-1.977000117E0,8.162778329E0
1.977357950E0,-1.106999993E0,7.842000484E0,-1.939050078E0,8.153670081E0
1.979319866E0,-1.106999993E0,7.879950523E0,-1.900950074E0,8.181239541E0
1.981281746E0,-1.144950032E0,7.918050289E0,-1.939050078E0,8.232031715E0
1.983243637E0,-1.068000078E0,7.957050323E0,-1.939050078E0,8.259248708E0
1.985205475E0,-1.144950032E0,7.879950523E0,-1.861950040E0,8.177492817E0
1.987167329E0,-1.144950032E0,7.918050289E0,-1.824000120E0,8.205693596E0
1.989129308E0,-1.144950032E0,7.879950523E0,-1.747050047E0,8.152098791E0
1.991091250E0,-1.144950032E0,7.879950523E0,-1.708950043E0,8.144018730E0
1.993052720E0,-1.068000078E0,7.957050323E0,-1.632000089E0,8.192600216E0
1.995014329E0,-1.144950032E0,7.918050289E0,-1.671000123E0,8.173045477E0
1.996975860E0,-1.183050036E0,7.842000484E0,-1.594050050E0,8.089349451E0
1.998937411E0,-1.183050036E0,7.879950523E0,-1.516950130E0,8.111372593E0
2.000899127E0,-1.144950032E0,7.842000484E0,-1.516950130E0,8.069016041E0
2.002860794E0,-1.183050036E0,7.842000484E0,-1.479000092E0,8.067466781E0
2.004822357E0,-1.222050071E0,7.803000450E0,-1.555950046E0,8.049919437E0
2.006783950E0,-1.222050071E0,7.765050411E0,-1.555950046E0,8.013138886E0
2.008746034E0,-1.260000110E0,7.803000450E0,-1.516950130E0,8.048326161E0
2.010707963E0,-1.297950029E0,7.726950169E0,-1.516950130E0,7.980699899E0
2.012669570E0,-1.336950064E0,7.726950169E0,-1.555950046E0,7.994634133E0
2.014631272E0,-1.297950029E0,7.687950134E0,-1.555950046E0,7.950486280E0
2.016593007E0,-1.260000110E0,7.650000572E0,-1.555950046E0,7.907660183E0
2.018554732E0,-1.260000110E0,7.573050499E0,-1.671000123E0,7.856903687E0
2.020516743E0,-1.336950064E0,7.650000572E0,-1.632000089E0,7.935576130E0
2.022478664E0,-1.413000107E0,7.573050499E0,-1.671000123E0,7.882886817E0
2.024440363E0,-1.336950064E0,7.573050499E0,-1.786050081E0,7.894840355E0
2.026402127E0,-1.336950064E0,7.534950256E0,-1.861950040E0,7.875897967E0
2.028363987E0,-1.297950029E0,7.458000183E0,-1.900950074E0,7.805129864E0
2.030325818E0,-1.260000110E0,7.381950378E0,-2.014950037E0,7.755050955E0
2.032287667E0,-1.260000110E0,7.305000305E0,-2.092050076E0,7.702421908E0
2.034249510E0,-1.222050071E0,7.189950466E0,-2.130000114E0,7.597742729E0
2.036211178E0,-1.144950032E0,7.152000427E0,-2.130000114E0,7.549762988E0
2.038172897E0,-1.183050036E0,7.113000393E0,-2.130000114E0,7.518728780E0
2.040134584E0,-1.222050071E0,7.036950111E0,-2.092050076E0,7.442361639E0
2.042096281E0,-1.183050036E0,7.152000427E0,-2.053950071E0,7.534548984E0
2.044058097E0,-1.222050071E0,7.189950466E0,-2.053950071E0,7.576774048E0
2.046019885E0,-1.222050071E0,7.189950466E0,-1.939050078E0,7.546436860E0
2.047981562E0,-1.297950029E0,7.342950344E0,-1.977000117E0,7.714410120E0
2.049943271E0,-1.413000107E0,7.458000183E0,-2.014950037E0,7.853557136E0
2.051905005E0,-1.413000107E0,7.612050533E0,-2.169000149E0,8.040176880E0
2.053866731E0,-1.413000107E0,7.803000450E0,-2.206950188E0,8.231282674E0
2.055828909E0,-1.528050065E0,7.995000362E0,-2.322000027E0,8.464434530E0
2.057790958E0,-1.528050065E0,8.148000717E0,-2.475000143E0,8.651617097E0
2.059752590E0,-1.642950058E0,8.340000153E0,-2.514000177E0,8.864258814E0
2.061714344E0,-1.720050097E0,8.532000542E0,-2.551950216E0,9.070063698E0
2.063675845E0,-1.758000135E0,8.685000420E0,-2.475000143E0,9.200294695E0
2.065637421E0,-1.795950055E0,8.800050735E0,-2.398950100E0,9.296305241E0
2.067599127E0,-1.795950055E0,8.953050613E0,-2.359950066E0,9.431432351E0
2.069560799E0,-1.834950089E0,9.067950249E0,-2.322000027E0,9.538681653E0
2.071522540E0,-1.873050094E0,9.106050491E0,-2.322000027E0,9.582283461E0
2.073484260E0,-1.911000133E0,9.220950127E0,-2.398950100E0,9.717654261E0
2.075446263E0,-2.026050091E0,9.298050880E0,-2.284050226E0,9.786496543E0
2.077408183E0,-2.140950203E0,9.451050758E0,-2.398950100E0,9.983035099E0
2.079370391E0,-2.332950115E0,9.565950394E0,-2.398950100E0,1.013434876E1
2.081332505E0,-2.410050154E0,9.643050194E0,-2.398950100E0,1.022505356E1
2.083294351E0,-2.524950027E0,9.757950783E0,-2.284050226E0,1.033488566E1
2.085256276E0,-2.716050148E0,9.949950218E0,-2.245050192E0,1.055550511E1
2.087218064E0,-2.830950022E0,1.002600002E1,-2.130000114E0,1.063352505E1
2.089179892E0,-3.022950172E0,1.014105034E1,-2.130000114E0,1.079425913E1
2.091141766E0,-3.138000250E0,1.025595093E1,-2.053950071E0,1.092017792E1
2.093103640E0,-3.253050089E0,1.033305073E1,-1.900950074E0,1.099854006E1
2.095065482E0,-3.330000162E0,1.044795036E1,-1.747050047E0,1.110408716E1
2.097027334E0,-3.330000162E0,1.056300068E1,-1.747050047E0,1.121240689E1
2.098989494E0,-3.406050205E0,1.067805004E1,-1.708950043E0,1.133765588E1
2.100951563E0,-3.483000278E0,1.067805004E1,-1.632000089E0,1.134969021E1
2.102913343E0,-3.483000278E0,1.079295063E1,-1.632000089E0,1.145785750E1
2.104875228E0,-3.559950113E0,1.079295063E1,-1.671000123E0,1.148709143E1
2.106837113E0,-3.483000278E0,1.083105087E1,-1.671000123E0,1.149935630E1
2.108798998E0,-3.559950113E0,1.087005043E1,-1.786050081E0,1.157675326E1
2.110761151E0,-3.559950113E0,1.090800095E1,-1.824000120E0,1.161829187E1
2.112723226E0,-3.520950079E0,1.090800095E1,-1.939050078E0,1.162503717E1
2.114685399E0,-3.559950113E0,1.090800095E1,-2.014950037E0,1.164979627E1
2.116647539E0,-3.520950079E0,1.090800095E1,-2.053950071E0,1.164475354E1
2.118609336E0,-3.483000278E0,1.090800095E1,-2.130000114E0,1.164700288E1
2.120571233E0,-3.445050240E0,1.094595051E1,-2.284050226E0,1.170038842E1
2.122533116E0,-3.406050205E0,1.090800095E1,-2.475000143E0,1.169236026E1
2.124495003E0,-3.330000162E0,1.083105087E1,-2.514000177E0,1.160692728E1
2.126457176E0,-3.330000162E0,1.083105087E1,-2.590050220E0,1.162363645E1
2.128419251E0,-3.253050089E0,1.079295063E1,-2.667000055E0,1.158373892E1
2.130381463E0,-3.175950050E0,1.067805004E1,-2.667000055E0,1.145514298E1
2.132343635E0,-3.214950085E0,1.056300068E1,-2.782050133E0,1.138651353E1
2.134305921E0,-3.138000250E0,1.048605061E1,-2.743950129E0,1.128421753E1
2.136268174E0,-3.175950050E0,1.037100029E1,-2.896950245E0,1.122660351E1
2.138230662E0,-3.214950085E0,1.029495049E1,-3.012000084E0,1.119794865E1
2.140193088E0,-3.367950201E0,1.018005085E1,-3.049950123E0,1.114803658E1
2.142155016E0,-3.367950201E0,1.014105034E1,-3.049950123E0,1.111243386E1
2.144117090E0,-3.445050240E0,1.010295010E1,-3.088950157E0,1.111213683E1
2.146078897E0,-3.483000278E0,1.002600002E1,-3.127050161E0,1.106482761E1
2.148040782E0,-3.483000278E0,1.002600002E1,-3.049950123E0,1.104328589E1
2.150002296E0,-3.520950079E0,1.014105034E1,-3.012000084E0,1.114944554E1
2.151963926E0,-3.559950113E0,1.010295010E1,-2.896950245E0,1.109662860E1
2.153925628E0,-3.675000191E0,1.014105034E1,-2.743950129E0,1.112995017E1
2.155887309E0,-3.598050117E0,1.018005085E1,-2.629050016E0,1.111266412E1
2.157848959E0,-3.865950108E0,1.041000080E1,-2.437050104E0,1.136894455E1
2.159810618E0,-3.904950142E0,1.041000080E1,-2.398950100E0,1.137416871E1
2.161772150E0,-4.057950020E0,1.052505016E1,-2.359950066E0,1.152445242E1
2.163733709E0,-3.981000185E0,1.063995075E1,-2.359950066E0,1.160285649E1
2.165695468E0,-4.018949986E0,1.079295063E1,-2.284050226E0,1.174123621E1
2.167657169E0,-3.943050146E0,1.094595051E1,-2.245050192E0,1.184912348E1
2.169618861E0,-3.981000185E0,1.098495007E1,-2.206950188E0,1.189067364E1
2.171580555E0,-3.943050146E0,1.117605019E1,-2.169000149E0,1.204808300E1
2.173542396E0,-3.904950142E0,1.129095078E1,-2.130000114E0,1.213553071E1
2.175504184E0,-3.904950142E0,1.132905006E1,-2.169000149E0,1.217787225E1
2.177466040E0,-3.865950108E0,1.148295021E1,-2.130000114E0,1.230205740E1
2.179427876E0,-3.828000069E0,1.152105045E1,-1.977000117E0,1.230027307E1
2.181389949E0,-3.904950142E0,1.155900097E1,-1.861950040E0,1.234204185E1
2.183351953E0,-3.790050268E0,1.144395065E1,-1.747050047E0,1.218116051E1
2.185313898E0,-3.598050117E0,1.144395065E1,-1.441050053E0,1.208249132E1
2.187275868E0,-3.559950113E0,1.144395065E1,-1.326000094E0,1.205800678E1
2.189238052E0,-3.483000278E0,1.152105045E1,-1.057050109E0,1.208235281E1
2.191200174E0,-3.445050240E0,1.163595009E1,-8.269500136E-1,1.216336927E1
2.193162199E0,-3.367950201E0,1.163595009E1,-6.739500165E-1,1.213229705E1
2.195124253E0,-3.253050089E0,1.175100040E1,-5.209500194E-1,1.220408679E1
2.197086199E0,-3.138000250E0,1.175100040E1,-2.910000086E-1,1.216625403E1
2.199048176E0,-3.061050177E0,1.186605072E1,-1.759500057E-1,1.225578012E1
2.201010224E0,-2.946000099E0,1.194300079E1,-6.105000153E-2,1.230113457E1
2.202972251E0,-2.793000221E0,1.205805016E1,-2.205000073E-2,1.237731433E1
2.204934067E0,-2.640000105E0,1.221105099E1,-6.105000153E-2,1.249332197E1
2.206895945E0,-2.563050032E0,1.240305042E1,1.500000060E-2,1.266511391E1
2.208857766E0,-2.410050154E0,1.263300037E1,9.195000678E-2,1.286116227E1
2.210819618E0,-2.332950115E0,1.286295033E1,9.195000678E-2,1.307312519E1
2.212781642E0,-2.140950203E0,1.305405045E1,1.680000126E-1,1.322951718E1
2.214743616E0,-1.987950087E0,1.328400040E1,2.449500114E-1,1.343415843E1
2.216705756E0,-1.873050094E0,1.347600079E1,2.830500007E-1,1.360849114E1
2.218667847E0,-1.720050097E0,1.359105110E1,2.830500007E-1,1.370238518E1
2.220628977E0,-1.567050099E0,1.378200054E1,3.979500234E-1,1.387651070E1
2.222590388E0,-1.413000107E0,1.397400093E1,3.979500234E-1,1.405089447E1
2.224552623E0,-1.375050068E0,1.408905029E1,4.750500321E-1,1.416396037E1
2.226514616E0,-1.183050036E0,1.420395088E1,6.280500293E-1,1.426696446E1
2.228476484E0,-1.030050039E0,1.424205112E1,7.050000429E-1,1.429664465E1
2.230438388E0,-9.150000215E-1,1.424205112E1,7.050000429E-1,1.428881627E1
2.232400164E0,-7.620000243E-1,1.416600037E1,7.429500222E-1,1.420592078E1
2.234361988E0,-5.320500135E-1,1.405095100E1,8.580000401E-1,1.408717379E1
2.236323703E0,-1.870500147E-1,1.389705086E1,9.349500537E-1,1.392972153E1
2.238285450E0,8.100000024E-2,1.374405098E1,1.087950110E0,1.378728159E1
2.240247853E0,3.870000243E-1,1.355205059E1,1.126049995E0,1.360425789E1
2.242210063E0,6.940500140E-1,1.332300091E1,1.203000069E0,1.339519570E1
2.244171808E0,1.077000022E0,1.309305096E1,1.279950023E0,1.319947667E1
2.246133685E0,1.306950092E0,1.297800064E1,1.279950023E0,1.310629205E1
2.248095526E0,1.384050012E0,1.278600025E1,1.356000066E0,1.293198102E1
2.250057378E0,1.498950124E0,1.259400082E1,1.395000100E0,1.275937825E1
2.252019447E0,1.690050125E0,1.236405087E1,1.471050024E0,1.256542922E1
2.253981453E0,1.920000076E0,1.205805016E1,1.510050058E0,1.230297627E1
2.255943399E0,2.035050154E0,1.178895092E1,1.510050058E0,1.205823553E1
2.257905369E0,2.111999989E0,1.148295021E1,1.510050058E0,1.177280513E1
2.259867239E0,2.188950062E0,1.117605019E1,1.510050058E0,1.148807431E1
2.261829138E0,2.304000139E0,1.079295063E1,1.510050058E0,1.113896095E1
2.263790975E0,2.265000105E0,1.044795036E1,1.585950017E0,1.080764219E1
2.265752830E0,2.304000139E0,1.014105034E1,1.548000097E0,1.051406786E1
2.267714789E0,2.227050066E0,9.720000267E0,1.548000097E0,1.009130623E1
2.269676731E0,2.149950027E0,9.451050758E0,1.510050058E0,9.809428971E0
2.271638382E0,2.111999989E0,9.106050491E0,1.510050058E0,9.468946651E0
2.273600118E0,2.074050188E0,8.761950493E0,1.510050058E0,9.129825398E0
2.275562162E0,1.996950150E0,8.416950226E0,1.471050024E0,8.774784851E0
2.277524116E0,1.920000076E0,8.110050201E0,1.471050024E0,8.463055166E0
2.279486323E0,1.882050037E0,7.803000450E0,1.471050024E0,8.160448305E0
2.281448443E0,1.804950118E0,7.573050499E0,1.471050024E0,7.922936764E0
2.283410288E0,1.767000079E0,7.267050266E0,1.395000100E0,7.607781157E0
2.285372214E0,1.690050125E0,6.997950554E0,1.395000100E0,7.333048933E0
2.287334361E0,1.651950121E0,6.730050087E0,1.279950023E0,7.047040899E0
2.289296443E0,1.537050128E0,6.538950443E0,1.240950108E0,6.830838394E0
2.291258310E0,1.459950089E0,6.346950531E0,1.203000069E0,6.622872826E0
2.293220229E0,1.459950089E0,6.154950142E0,1.087950110E0,6.418605842E0
2.295182377E0,1.384050012E0,5.964000225E0,1.203000069E0,6.239559462E0
2.297144458E0,1.345050097E0,5.848950386E0,1.203000069E0,6.120995797E0
2.299106265E0,1.269000053E0,5.772000313E0,1.203000069E0,6.031049487E0
2.301068152E0,1.230000019E0,5.734050274E0,1.279950023E0,6.002541516E0
2.303029996E0,1.114950061E0,5.695050240E0,1.279950023E0,5.942641074E0
2.304991849E0,1.039050102E0,5.695050240E0,1.395000100E0,5.954766799E0
2.306953333E0,9.240000248E-1,5.809950352E0,1.471050024E0,6.064098227E0
2.308914926E0,7.699500322E-1,5.925000191E0,1.471050024E0,6.153246175E0
2.310876095E0,6.940500140E-1,6.040050507E0,1.510050058E0,6.264516480E0
2.312837388E0,5.020500422E-1,6.154950142E0,1.471050024E0,6.348185069E0
2.314799493E0,3.870000243E-1,6.346950531E0,1.510050058E0,6.535579641E0
2.316761371E0,2.719500065E-1,6.538950443E0,1.548000097E0,6.725186541E0
2.318723077E0,2.340000123E-1,6.730050087E0,1.701000094E0,6.945626790E0
2.320684834E0,8.100000024E-2,6.922050476E0,1.777950048E0,7.147198764E0
2.322646695E0,-3.299999982E-2,7.113000393E0,1.548000097E0,7.279571958E0
2.324608525E0,-7.200000435E-2,7.305000305E0,1.548000097E0,7.467564379E0
2.326570360E0,-1.099500060E-1,7.497000217E0,1.548000097E0,7.655939235E0
2.328532203E0,-1.480500102E-1,7.687950134E0,1.471050024E0,7.828823938E0
2.330494365E0,-2.250000089E-1,7.957050323E0,1.471050024E0,8.095014702E0
2.332456434E0,-3.400500119E-1,8.224950790E0,1.471050024E0,8.362382297E0
2.334418243E0,-3.780000210E-1,8.416950226E0,1.432950020E0,8.546419185E0
2.336380128E0,-4.170000255E-1,8.685000420E0,1.471050024E0,8.818566181E0
2.338341787E0,-4.930500090E-1,8.953050613E0,1.356000066E0,9.068569335E0
2.340303513E0,-5.320500135E-1,9.067950249E0,1.279950023E0,9.173280274E0
2.342265199E0,-5.320500135E-1,9.259950638E0,1.240950108E0,9.357869426E0
2.344226897E0,-5.700000525E-1,9.336000443E0,1.240950108E0,9.435346390E0
2.346188633E0,-5.700000525E-1,9.451050758E0,1.126049995E0,9.534948825E0
2.348150357E0,-4.549500346E-1,9.565950394E0,1.240950108E0,9.656828860E0
2.350112015E0,-4.549500346E-1,9.681000710E0,1.279950023E0,9.775838907E0
2.352073714E0,-4.170000255E-1,9.796050072E0,1.279950023E0,9.888111958E0
2.354035405E0,-3.019500077E-1,9.873000145E0,1.203000069E0,9.950603742E0
2.355997098E0,-2.629500031E-1,9.949950218E0,1.203000069E0,1.002585962E1
2.357959150E0,-1.870500147E-1,1.002600002E1,1.203000069E0,1.009964719E1
2.359921096E0,-1.480500102E-1,1.002600002E1,1.165050030E0,1.009454986E1
2.361882897E0,-7.200000435E-2,1.010295010E1,1.126049995E0,1.016576476E1
2.363844761E0,-3.299999982E-2,1.002600002E1,1.165050030E0,1.009351807E1
2.365806424E0,-3.299999982E-2,1.006500053E1,1.165050030E0,1.013225870E1
2.367768146E0,-7.200000435E-2,1.002600002E1,1.203000069E0,1.009817160E1
2.369729833E0,-1.099500060E-1,1.002600002E1,1.279950023E0,1.010796901E1
2.371691531E0,-7.200000435E-2,9.949950218E0,1.240950108E0,1.002729527E1
2.373653415E0,4.200000316E-2,9.873000145E0,1.203000069E0,9.946110045E0
2.375615235E0,8.100000024E-2,9.796050072E0,1.203000069E0,9.869973008E0
2.377577266E0,4.200000316E-2,9.757950783E0,1.165050030E0,9.827344964E0
2.379539235E0,1.189500093E-1,9.643050194E0,1.126049995E0,9.709302485E0
2.381501061E0,1.960500032E-1,9.565950394E0,1.050000072E0,9.625400911E0
2.383462929E0,2.719500065E-1,9.528000832E0,8.200500607E-1,9.567091447E0
2.385424713E0,2.340000123E-1,9.451050758E0,8.580000401E-1,9.492801510E0
2.387386531E0,2.340000123E-1,9.336000443E0,7.429500222E-1,9.368438237E0
2.389348426E0,2.340000123E-1,9.298050880E0,8.200500607E-1,9.337076003E0
2.391310298E0,2.340000123E-1,9.298050880E0,8.200500607E-1,9.337076003E0
2.393272096E0,2.719500065E-1,9.259950638E0,7.429500222E-1,9.293686962E0
2.395233915E0,2.719500065E-1,9.259950638E0,7.810500264E-1,9.296810301E0
2.397195990E0,3.109500110E-1,9.298050880E0,8.959500194E-1,9.346291592E0
2.399157990E0,4.260000288E-1,9.298050880E0,8.959500194E-1,9.350826308E0
2.401119811E0,3.490500152E-1,9.259950638E0,8.580000401E-1,9.306163860E0
2.403081685E0,3.490500152E-1,9.259950638E0,7.050000429E-1,9.293306558E0
2.405043526E0,4.260000288E-1,9.183000565E0,7.050000429E-1,9.219869872E0
2.407005377E0,4.260000288E-1,9.183000565E0,7.429500222E-1,9.222849350E0
2.408967207E0,4.260000288E-1,9.145050049E0,6.660000086E-1,9.179159680E0
2.410929054E0,3.490500152E-1,9.067950249E0,7.050000429E-1,9.102009816E0
2.412890675E0,2.340000123E-1,9.030000687E0,7.429500222E-1,9.063533701E0
2.414852362E0,2.340000123E-1,8.991000175E0,7.050000429E-1,9.021633179E0
2.416813875E0,1.960500032E-1,9.030000687E0,7.050000429E-1,9.059601154E0
2.418775439E0,1.570500135E-1,9.067950249E0,7.810500264E-1,9.102880070E0
2.420736969E0,8.100000024E-2,9.145050049E0,8.200500607E-1,9.182101257E0
2.422698512E0,8.100000024E-2,9.183000565E0,7.429500222E-1,9.213361770E0
2.424660409E0,4.050000105E-3,9.259950638E0,7.050000429E-1,9.286750092E0
2.426622202E0,-3.299999982E-2,9.259950638E0,8.200500607E-1,9.296249616E0
2.428584057E0,-3.299999982E-2,9.298050880E0,8.580000401E-1,9.337612288E0
2.430545894E0,-7.200000435E-2,9.451050758E0,1.011000037E0,9.505244106E0
2.432507381E0,-1.480500102E-1,9.490050316E0,1.050000072E0,9.549108542E0
2.434468972E0,-2.250000089E-1,9.528000832E0,1.126049995E0,9.596948132E0
2.436430547E0,-2.250000089E-1,9.643050194E0,1.165050030E0,9.715780134E0
2.438392126E0,-1.870500147E-1,9.604950905E0,1.203000069E0,9.681801421E0
2.440353657E0,-2.250000089E-1,9.720000267E0,1.203000069E0,9.796746366E0
2.442315203E0,-1.870500147E-1,9.757950783E0,1.203000069E0,9.833605664E0
2.444276395E0,-7.200000435E-2,9.720000267E0,1.203000069E0,9.794426903E0
2.446237680E0,-7.200000435E-2,9.681000710E0,1.240950108E0,9.760477238E0
2.448199261E0,-1.099500060E-1,9.720000267E0,1.165050030E0,9.790190793E0
2.450160755E0,-7.200000435E-2,9.643050194E0,1.050000072E0,9.700314489E0
2.452122436E0,-3.299999982E-2,9.720000267E0,9.730500579E-1,9.768639650E0
2.454084062E0,-7.200000435E-2,9.757950783E0,8.959500194E-1,9.799260886E0
2.456045471E0,-3.299999982E-2,9.796050072E0,8.580000401E-1,9.833608192E0
2.458006930E0,-7.200000435E-2,9.835050583E0,9.349500537E-1,9.879652604E0
2.459968302E0,-1.099500060E-1,9.796050072E0,1.050000072E0,9.852775556E0
2.461929699E0,-3.299999982E-2,9.835050583E0,1.126049995E0,9.899358442E0
2.463891441E0,-3.299999982E-2,9.835050583E0,1.126049995E0,9.899358442E0
2.465853081E0,-3.299999982E-2,9.873000145E0,1.203000069E0,9.946076112E0
2.467814949E0,-3.299999982E-2,9.910950661E0,1.203000069E0,9.983748853E0
2.469776760E0,-3.299999982E-2,9.873000145E0,1.165050030E0,9.941557345E0
2.471738388E0,-7.200000435E-2,9.835050583E0,1.126049995E0,9.899565271E0
2.473700069E0,-3.299999982E-2,9.796050072E0,1.050000072E0,9.852217322E0
2.475661268E0,-3.299999982E-2,9.796050072E0,1.087950110E0,9.856334078E0
2.477622608E0,-7.200000435E-2,9.796050072E0,1.011000037E0,9.848345144E0
2.479584329E0,-3.299999982E-2,9.796050072E0,1.126049995E0,9.860612283E0
2.481545928E0,-3.299999982E-2,9.757950783E0,1.126049995E0,9.822763413E0
2.483507457E0,-3.299999982E-2,9.757950783E0,1.087950110E0,9.818468716E0
2.485469007E0,-3.299999982E-2,9.681000710E0,1.087950110E0,9.741996673E0
2.487430587E0,-3.299999982E-2,9.643050194E0,1.087950110E0,9.704284697E0
2.489392158E0,-1.099500060E-1,9.565950394E0,1.011000037E0,9.619855353E0
2.491353792E0,-7.200000435E-2,9.490050316E0,9.349500537E-1,9.536266072E0
2.493315432E0,-7.200000435E-2,9.451050758E0,9.730500579E-1,9.501282590E0
2.495277134E0,-1.099500060E-1,9.412950516E0,8.959500194E-1,9.456133081E0
2.497238817E0,-1.870500147E-1,9.298050880E0,8.580000401E-1,9.339427282E0
2.499200332E0,-1.870500147E-1,9.220950127E0,8.580000401E-1,9.262670944E0
2.501161896E0,-1.480500102E-1,9.183000565E0,6.660000086E-1,9.208310061E0
2.503123595E0,-1.870500147E-1,9.183000565E0,8.200500607E-1,9.221440732E0
2.505085264E0,-1.870500147E-1,9.106050491E0,7.810500264E-1,9.141399368E0
2.507046961E0,-1.870500147E-1,9.067950249E0,7.429500222E-1,9.100257368E0
2.509008649E0,-1.870500147E-1,9.067950249E0,7.050000429E-1,9.097237739E0
2.510970163E0,-1.870500147E-1,9.067950249E0,6.280500293E-1,9.091598114E0
2.512931728E0,-2.629500031E-1,9.067950249E0,5.509500504E-1,9.088476791E0
2.514893505E0,-3.400500119E-1,9.106050491E0,5.509500504E-1,9.129038039E0
2.516855206E0,-2.629500031E-1,9.030000687E0,4.750500321E-1,9.046310167E0
2.518816853E0,-3.400500119E-1,9.067950249E0,4.750500321E-1,9.086750148E0
2.520778516E0,-3.780000210E-1,9.067950249E0,4.360500276E-1,9.086294369E0
2.522740078E0,-3.780000210E-1,9.145050049E0,3.979500234E-1,9.161505806E0
2.524701670E0,-4.170000255E-1,9.106050491E0,3.220500052E-1,9.121280654E0
2.526663324E0,-4.930500090E-1,9.106050491E0,2.449500114E-1,9.122678026E0
2.528624966E0,-4.930500090E-1,9.183000565E0,3.220500052E-1,9.201864696E0
2.530586667E0,-6.079500318E-1,9.145050049E0,2.830500007E-1,9.169605277E0
2.532548350E0,-6.079500318E-1,9.067950249E0,3.220500052E-1,9.094011280E0
2.534510990E0,-6.850500107E-1,9.106050491E0,3.220500052E-1,9.137459454E0
2.536473350E0,-7.620000243E-1,9.030000687E0,2.449500114E-1,9.065404401E0
2.538434945E0,-7.620000243E-1,9.067950249E0,2.449500114E-1,9.103206372E0
2.540396753E0,-7.999500632E-1,8.991000175E0,2.449500114E-1,9.029839687E0
2.542358245E0,-9.150000215E-1,8.953050613E0,2.070000172E-1,9.002065837E0
2.544319830E0,-9.919500351E-1,8.914950371E0,1.680000126E-1,8.971539945E0
2.546281495E0,-1.030050039E0,8.838000298E0,2.070000172E-1,8.900230410E0
2.548243136E0,-1.106999993E0,8.800050735E0,1.300500035E-1,8.870358219E0
2.550204882E0,-1.144950032E0,8.800050735E0,1.300500035E-1,8.875174169E0
2.552166597E0,-1.106999993E0,8.761950493E0,5.295000225E-2,8.831762515E0
2.554128106E0,-1.183050036E0,8.761950493E0,5.295000225E-2,8.841616794E0
2.556089676E0,-1.144950032E0,8.685000420E0,5.295000225E-2,8.760305164E0
2.558051343E0,-1.183050036E0,8.685000420E0,1.500000060E-2,8.765219032E0
2.560012982E0,-1.260000110E0,8.647050858E0,1.500000060E-2,8.738381647E0
2.561974849E0,-1.336950064E0,8.608050346E0,1.500000060E-2,8.711268061E0
2.563936659E0,-1.260000110E0,8.569950104E0,5.295000225E-2,8.662242710E0
2.565898556E0,-1.260000110E0,8.493000031E0,1.500000060E-2,8.585969648E0
2.567860428E0,-1.222050071E0,8.455050468E0,-2.205000073E-2,8.542936907E0
2.569821910E0,-1.260000110E0,8.416950226E0,1.500000060E-2,8.510750636E0
2.571783507E0,-1.297950029E0,8.455050468E0,9.195000678E-2,8.554589850E0
2.573745230E0,-1.336950064E0,8.455050468E0,1.500000060E-2,8.560113253E0
2.575706905E0,-1.336950064E0,8.455050468E0,9.195000678E-2,8.560593946E0
2.577668735E0,-1.336950064E0,8.455050468E0,5.295000225E-2,8.560263874E0
2.579630520E0,-1.375050068E0,8.416950226E0,1.500000060E-2,8.528542595E0
2.581592198E0,-1.375050068E0,8.455050468E0,1.500000060E-2,8.566146515E0
2.583553907E0,-1.452000022E0,8.493000031E0,-2.205000073E-2,8.616254394E0
2.585515470E0,-1.452000022E0,8.493000031E0,-6.105000153E-2,8.616442461E0
2.587477070E0,-1.413000107E0,8.532000542E0,1.500000060E-2,8.648226844E0
2.589438598E0,-1.567050099E0,8.532000542E0,5.295000225E-2,8.674876539E0
2.591400147E0,-1.528050065E0,8.532000542E0,1.500000060E-2,8.667767604E0
2.593361639E0,-1.567050099E0,8.532000542E0,5.295000225E-2,8.674876539E0
2.595323147E0,-1.605000019E0,8.569950104E0,1.500000060E-2,8.718961798E0
2.597284874E0,-1.605000019E0,8.569950104E0,-2.205000073E-2,8.718976777E0
2.599246534E0,-1.681950092E0,8.532000542E0,1.500000060E-2,8.696218394E0
2.601208098E0,-1.642950058E0,8.608050346E0,5.295000225E-2,8.763596257E0
2.603169690E0,-1.758000135E0,8.685000420E0,5.295000225E-2,8.861297900E0
2.605131174E0,-1.758000135E0,8.722949982E0,9.195000678E-2,8.898813160E0
2.607092690E0,-1.834950089E0,8.761950493E0,1.500000060E-2,8.952041291E0
2.609054062E0,-1.834950089E0,8.761950493E0,9.195000678E-2,8.952500940E0
2.611015469E0,-1.795950055E0,8.838000298E0,1.300500035E-1,9.019567554E0
2.612977390E0,-1.795950055E0,8.877000809E0,1.300500035E-1,9.057786317E0
2.614939160E0,-1.758000135E0,8.914950371E0,5.295000225E-2,9.086787567E0
2.616900840E0,-1.758000135E0,8.953050613E0,1.500000060E-2,9.124028976E0
2.618862546E0,-1.795950055E0,9.030000687E0,9.195000678E-2,9.207323379E0
2.620824070E0,-1.795950055E0,9.030000687E0,5.295000225E-2,9.207016493E0
2.622785637E0,-1.758000135E0,9.145050049E0,1.300500035E-1,9.313399910E0
2.624747035E0,-1.681950092E0,9.220950127E0,1.300500035E-1,9.373995432E0
2.626708483E0,-1.720050097E0,9.220950127E0,9.195000678E-2,9.380455659E0
2.628670171E0,-1.605000019E0,9.259950638E0,1.300500035E-1,9.398916101E0
2.630631789E0,-1.642950058E0,9.298050880E0,9.195000678E-2,9.442536199E0
2.632593185E0,-1.605000019E0,9.336000443E0,2.449500114E-1,9.476124199E0
2.634554642E0,-1.567050099E0,9.336000443E0,2.070000172E-1,9.468864730E0
2.636516329E0,-1.528050065E0,9.336000443E0,2.070000172E-1,9.462488588E0
2.638477948E0,-1.489950061E0,9.375000000E0,2.449500114E-1,9.495818906E0
2.640439338E0,-1.336950064E0,9.298050880E0,3.220500052E-1,9.399196873E0
2.642400796E0,-1.375050068E0,9.375000000E0,2.449500114E-1,9.478469718E0
2.644361988E0,-1.336950064E0,9.451050758E0,3.600000143E-1,9.551931528E0
2.646323258E0,-1.222050071E0,9.451050758E0,3.979500234E-1,9.538036016E0
2.648284661E0,-1.222050071E0,9.451050758E0,5.130000114E-1,9.543528479E0
2.650246025E0,-1.183050036E0,9.412950516E0,4.360500276E-1,9.497019766E0
2.652207729E0,-1.106999993E0,9.412950516E0,5.509500504E-1,9.493820746E0
2.654169333E0,-1.030050039E0,9.412950516E0,5.899500251E-1,9.487501332E0
2.656130707E0,-9.919500351E-1,9.451050758E0,7.050000429E-1,9.529079198E0
2.658092162E0,-9.529500604E-1,9.451050758E0,7.429500222E-1,9.527982420E0
2.660053714E0,-8.770500422E-1,9.375000000E0,7.050000429E-1,9.442291398E0
2.662015237E0,-8.380500674E-1,9.375000000E0,6.660000086E-1,9.435915903E0
2.663977093E0,-8.770500422E-1,9.490050316E0,9.349500537E-1,9.576241610E0
2.665938852E0,-7.999500632E-1,9.490050316E0,9.349500537E-1,9.569488320E0
2.667900543E0,-7.999500632E-1,9.451050758E0,1.011000037E0,9.538574402E0
2.669862248E0,-7.620000243E-1,9.490050316E0,1.011000037E0,9.574122420E0
2.671823938E0,-6.850500107E-1,9.451050758E0,1.050000072E0,9.533842568E0
2.673785632E0,-6.079500318E-1,9.490050316E0,1.050000072E0,9.567296295E0
2.675747368E0,-6.079500318E-1,9.528000832E0,1.087950110E0,9.609164299E0
2.677709092E0,-6.079500318E-1,9.528000832E0,1.126049995E0,9.613552501E0
2.679670550E0,-5.320500135E-1,9.565950394E0,1.165050030E0,9.651312124E0
2.681632089E0,-4.930500090E-1,9.451050758E0,1.050000072E0,9.521972427E0
2.683594032E0,-4.549500346E-1,9.565950394E0,1.165050030E0,9.647368970E0
2.685555856E0,-4.170000255E-1,9.643050194E0,1.165050030E0,9.722121560E0
2.687517662E0,-3.780000210E-1,9.681000710E0,1.240950108E0,9.767528650E0
2.689479474E0,-3.019500077E-1,9.720000267E0,1.356000066E0,9.818773609E0
2.691441224E0,-2.250000089E-1,9.757950783E0,1.395000100E0,9.859728889E0
2.693402969E0,-1.870500147E-1,9.835050583E0,1.356000066E0,9.929851150E0
2.695364472E0,-1.870500147E-1,9.835050583E0,1.356000066E0,9.929851150E0
2.697326046E0,-2.629500031E-1,9.873000145E0,1.279950023E0,9.959093665E0
2.699287713E0,-2.629500031E-1,9.910950661E0,1.087950110E0,9.973952133E0
2.701249352E0,-3.019500077E-1,9.988050461E0,1.087950110E0,1.005166460E1
2.703210919E0,-3.019500077E-1,1.002600002E1,1.087950110E0,1.008937489E1
2.705172508E0,-3.019500077E-1,1.006500053E1,1.050000072E0,1.012412513E1
2.707134217E0,-3.019500077E-1,1.014105034E1,1.011000037E0,1.019579310E1
2.709095890E0,-3.019500077E-1,1.018005085E1,1.011000037E0,1.023458500E1
2.711057721E0,-3.019500077E-1,1.021800041E1,8.959500194E-1,1.026164863E1
2.713019506E0,-3.400500119E-1,1.025595093E1,8.580000401E-1,1.029739421E1
2.714981422E0,-3.780000210E-1,1.025595093E1,8.580000401E-1,1.029871728E1
2.716943289E0,-3.780000210E-1,1.033305073E1,7.810500264E-1,1.036941949E1
2.718904908E0,-3.400500119E-1,1.037100029E1,7.810500264E-1,1.040592717E1
2.720866599E0,-3.780000210E-1,1.044795036E1,7.429500222E-1,1.048115096E1
2.722828290E0,-4.549500346E-1,1.048605061E1,7.050000429E-1,1.051956567E1
2.724789981E0,-4.930500090E-1,1.052505016E1,6.660000086E-1,1.055761977E1
2.726751659E0,-5.700000525E-1,1.056300068E1,6.280500293E-1,1.059699628E1
2.728713351E0,-7.230000496E-1,1.060095024E1,5.899500251E-1,1.064194137E1
2.730674684E0,-6.850500107E-1,1.063995075E1,5.899500251E-1,1.067829043E1
2.732636122E0,-8.380500674E-1,1.067805004E1,5.509500504E-1,1.072504669E1
2.734597542E0,-8.770500422E-1,1.079295063E1,4.750500321E-1,1.083894241E1
2.736558968E0,-9.150000215E-1,1.079295063E1,4.360500276E-1,1.084044040E1
2.738520886E0,-1.030050039E0,1.079295063E1,3.600000143E-1,1.084796692E1
2.740482659E0,-1.222050071E0,1.083105087E1,3.600000143E-1,1.090571728E1
2.742444293E0,-1.297950029E0,1.087005043E1,3.600000143E-1,1.095318541E1
2.744405968E0,-1.375050068E0,1.087005043E1,3.600000143E-1,1.096258907E1
2.746367348E0,-1.528050065E0,1.087005043E1,3.220500052E-1,1.098165058E1
2.748328814E0,-1.567050099E0,1.090800095E1,3.600000143E-1,1.102586644E1
2.750291035E0,-1.720050097E0,1.087005043E1,2.449500114E-1,1.100802295E1
2.752253038E0,-1.795950055E0,1.087005043E1,2.830500007E-1,1.102105032E1
2.754214363E0,-1.834950089E0,1.087005043E1,2.830500007E-1,1.102747276E1
2.756175886E0,-1.950000048E0,1.087005043E1,2.830500007E-1,1.104719937E1
2.758137382E0,-1.950000048E0,1.090800095E1,2.070000172E-1,1.108286217E1
2.760098886E0,-2.026050091E0,1.087005043E1,2.070000172E-1,1.105919185E1
2.762060110E0,-2.026050091E0,1.079295063E1,1.680000126E-1,1.098275404E1
2.764021420E0,-2.140950203E0,1.079295063E1,1.300500035E-1,1.100401582E1
2.765983176E0,-2.140950203E0,1.079295063E1,5.295000225E-2,1.100337470E1
2.767944802E0,-2.065050125E0,1.075500011E1,1.500000060E-2,1.095146951E1
2.769906506E0,-2.065050125E0,1.071600056E1,1.500000060E-2,1.091317208E1
2.771868187E0,-2.065050125E0,1.075500011E1,5.295000225E-2,1.095158724E1
2.773829643E0,-2.026050091E0,1.071600056E1,9.195000678E-2,1.090623683E1
2.775791175E0,-1.987950087E0,1.067805004E1,5.295000225E-2,1.086165282E1
2.777752579E0,-1.873050094E0,1.071600056E1,9.195000678E-2,1.087885285E1
2.779714021E0,-1.795950055E0,1.067805004E1,9.195000678E-2,1.082841836E1
2.781675710E0,-1.605000019E0,1.071600056E1,-2.205000073E-2,1.083555163E1
2.783637327E0,-1.528050065E0,1.063995075E1,1.500000060E-2,1.074912620E1
2.785598723E0,-1.452000022E0,1.060095024E1,-9.900000691E-2,1.070038556E1
2.787560180E0,-1.413000107E0,1.071600056E1,1.500000060E-2,1.080876784E1
2.789521867E0,-1.260000110E0,1.071600056E1,-6.105000153E-2,1.078999515E1
2.791483486E0,-1.183050036E0,1.075500011E1,-6.105000153E-2,1.082004445E1
2.793445057E0,-1.030050039E0,1.071600056E1,-9.900000691E-2,1.076584748E1
2.795406642E0,-9.529500604E-1,1.075500011E1,-6.105000153E-2,1.079730839E1
2.797368375E0,-8.770500422E-1,1.075500011E1,-6.105000153E-2,1.079087445E1
2.799330048E0,-8.770500422E-1,1.083105087E1,-6.105000153E-2,1.086667414E1
2.801291700E0,-7.620000243E-1,1.083105087E1,-2.205000073E-2,1.085784478E1
2.803253358E0,-7.620000243E-1,1.087005043E1,-6.105000153E-2,1.089689715E1
2.805214560E0,-7.230000496E-1,1.090800095E1,5.295000225E-2,1.093206373E1
2.807175896E0,-7.620000243E-1,1.094595051E1,1.300500035E-1,1.097321236E1
2.809137273E0,-6.850500107E-1,1.098495007E1,1.680000126E-1,1.100757219E1
2.811098649E0,-7.230000496E-1,1.098495007E1,1.680000126E-1,1.100999914E1
2.813059315E0,-7.230000496E-1,1.102305031E1,3.220500052E-1,1.105142902E1
2.815020189E0,-7.620000243E-1,1.102305031E1,4.360500276E-1,1.105795740E1
2.816981976E0,-7.620000243E-1,1.110000038E1,5.509500504E-1,1.113975756E1
2.818943495E0,-7.620000243E-1,1.106100082E1,5.899500251E-1,1.110290162E1
2.820905238E0,-7.620000243E-1,1.110000038E1,7.810500264E-1,1.115350580E1
2.822866932E0,-8.380500674E-1,1.121400070E1,8.959500194E-1,1.128090715E1
2.824828580E0,-9.150000215E-1,1.125300026E1,1.050000072E0,1.133885973E1
2.826790242E0,-1.030050039E0,1.125300026E1,1.050000072E0,1.134872319E1
2.828752164E0,-1.068000078E0,1.125300026E1,1.165050030E0,1.136344933E1
2.830714009E0,-1.222050071E0,1.129095078E1,1.318050027E0,1.143311994E1
2.832675446E0,-1.183050036E0,1.136805058E1,1.395000100E0,1.151426101E1
2.834637006E0,-1.336950064E0,1.140600014E1,1.471050024E0,1.157792135E1
2.836598045E0,-1.413000107E0,1.140600014E1,1.510050058E0,1.159196530E1
2.838559237E0,-1.528050065E0,1.148295021E1,1.548000097E0,1.168714622E1
2.840520834E0,-1.681950092E0,1.152105045E1,1.624950051E0,1.175602068E1
2.842482312E0,-1.758000135E0,1.152105045E1,1.816050053E0,1.179505006E1
2.844444431E0,-1.834950089E0,1.148295021E1,1.893000126E0,1.178170772E1
2.846406341E0,-1.987950087E0,1.152105045E1,2.161050081E0,1.188935181E1
2.848368132E0,-1.987950087E0,1.155900097E1,2.314950228E0,1.195497568E1
2.850329958E0,-2.103000164E0,1.155900097E1,2.430000067E0,1.199741695E1
2.852291312E0,-2.065050125E0,1.152105045E1,2.545050144E0,1.197815995E1
2.854252805E0,-2.103000164E0,1.148295021E1,2.659050226E0,1.197294046E1
2.856214827E0,-2.218050003E0,1.144395065E1,2.812950134E0,1.199151537E1
2.858176707E0,-2.179949999E0,1.140600014E1,2.928000212E0,1.197590107E1
2.860138548E0,-2.179949999E0,1.125300026E1,3.004050255E0,1.184932550E1
2.862100401E0,-2.140950203E0,1.121400070E1,3.157950163E0,1.184525765E1
2.864061931E0,-2.103000164E0,1.106100082E1,3.310950041E0,1.173587402E1
2.866023555E0,-2.065050125E0,1.094595051E1,3.426000118E0,1.165400109E1
2.867985457E0,-2.065050125E0,1.079295063E1,3.541050196E0,1.154518306E1
2.869947264E0,-2.065050125E0,1.075500011E1,3.541050196E0,1.150971311E1
2.871908938E0,-1.834950089E0,1.056300068E1,3.541050196E0,1.129083972E1
2.873870651E0,-1.720050097E0,1.041000080E1,3.579000235E0,1.114163057E1
2.875832519E0,-1.642950058E0,1.025595093E1,3.618000269E0,1.099880631E1
2.877794341E0,-1.567050099E0,1.018005085E1,3.694050074E0,1.094235291E1
2.879756348E0,-1.413000107E0,9.988050461E0,3.694050074E0,1.074261268E1
2.881718317E0,-1.260000110E0,9.873000145E0,3.886050224E0,1.068480784E1
2.883680098E0,-1.183050036E0,9.720000267E0,3.808950186E0,1.050647962E1
2.885641935E0,-1.106999993E0,9.604950905E0,3.847950220E0,1.040611607E1
2.887603647E0,-8.770500422E-1,9.412950516E0,3.808950186E0,1.019220073E1
2.889565396E0,-7.620000243E-1,9.298050880E0,3.733050108E0,1.004838581E1
2.891526884E0,-7.620000243E-1,9.145050049E0,3.655950069E0,9.878185833E0
2.893488459E0,-4.549500346E-1,9.030000687E0,3.618000269E0,9.738471024E0
2.895450305E0,-7.200000435E-2,8.877000809E0,3.694050074E0,9.615213638E0
2.897412072E0,8.100000024E-2,8.722949982E0,3.733050108E0,9.488523620E0
2.899374653E0,3.870000243E-1,8.647050858E0,3.808950186E0,9.456709738E0
2.901336996E0,6.169500351E-1,8.532000542E0,3.847950220E0,9.379892403E0
2.903299139E0,8.850000501E-1,8.340000153E0,3.886050224E0,9.243387581E0
2.905261358E0,1.077000022E0,8.224950790E0,3.808950186E0,9.127860980E0
2.907222780E0,1.269000053E0,8.148000717E0,3.808950186E0,9.083412263E0
2.909184435E0,1.422000051E0,8.032950401E0,3.733050108E0,8.971401195E0
2.911146089E0,1.614000082E0,7.918050289E0,3.733050108E0,8.901470651E0
2.913107743E0,1.729050040E0,7.842000484E0,3.694050074E0,8.839264199E0
2.915069695E0,1.920000076E0,7.687950134E0,3.694050074E0,8.742824687E0
2.917031539E0,2.111999989E0,7.612050533E0,3.618000269E0,8.688715856E0
2.918993385E0,2.304000139E0,7.534950256E0,3.541050196E0,8.638456372E0
2.920955231E0,2.494950056E0,7.458000183E0,3.426000118E0,8.578112807E0
2.922917078E0,2.686950207E0,7.342950344E0,3.273000240E0,8.476505869E0
2.924878924E0,2.917050123E0,7.305000305E0,3.081000090E0,8.447767305E0
2.926840920E0,3.031950235E0,7.189950466E0,2.965950251E0,8.347752442E0
2.928802862E0,3.223050117E0,7.152000427E0,2.812950134E0,8.333777693E0
2.930764512E0,3.376950264E0,7.189950466E0,2.773950100E0,8.413915851E0
2.932726248E0,3.453000069E0,7.152000427E0,2.583000183E0,8.351419612E0
2.934688292E0,3.568050146E0,7.267050266E0,2.430000067E0,8.452567760E0
2.936650246E0,3.798000097E0,7.267050266E0,2.314950228E0,8.520200635E0
2.938612304E0,3.952050209E0,7.381950378E0,2.238000154E0,8.667210447E0
2.940574328E0,3.990000248E0,7.458000183E0,2.085000038E0,8.711434662E0
2.942536459E0,3.990000248E0,7.573050499E0,1.969950080E0,8.783615381E0
2.944498559E0,3.952050209E0,7.687950134E0,1.893000126E0,8.849108859E0
2.946460408E0,3.837000132E0,7.918050289E0,1.777950048E0,8.976591601E0
2.948422330E0,3.721950293E0,8.110050201E0,1.701000094E0,9.084009554E0
2.950384301E0,3.645000219E0,8.416950226E0,1.624950051E0,9.315124281E0
2.952346255E0,3.492000103E0,8.493000031E0,1.510050058E0,9.306200375E0
2.954308263E0,3.337950230E0,8.800050735E0,1.432950020E0,9.520302014E0
2.956270255E0,3.147000074E0,8.991000175E0,1.395000100E0,9.627446126E0
2.958232617E0,2.878050089E0,9.336000443E0,1.203000069E0,9.843337124E0
2.960194871E0,2.839950085E0,9.604950905E0,1.203000069E0,1.008799324E1
2.962156660E0,2.725050211E0,9.796050072E0,1.240950108E0,1.024345903E1
2.964118609E0,2.533950090E0,1.010295010E1,1.240950108E0,1.048954055E1
2.966080797E0,2.380050182E0,1.037100029E1,1.240950108E0,1.071271408E1
2.968042915E0,2.304000139E0,1.056300068E1,1.203000069E0,1.087807930E1
2.970005031E0,2.111999989E0,1.079295063E1,1.203000069E0,1.106325162E1
2.971967148E0,1.959000111E0,1.098495007E1,1.126049995E0,1.121493638E1
2.973929297E0,1.804950118E0,1.113795090E1,1.126049995E0,1.133930261E1
2.975891443E0,1.651950121E0,1.125300026E1,1.050000072E0,1.142197243E1
2.977853104E0,1.384050012E0,1.136805058E1,1.050000072E0,1.150002906E1
2.979814907E0,1.269000053E0,1.155900097E1,9.730500579E-1,1.166909126E1
2.981776895E0,1.153950095E0,1.171305084E1,9.349500537E-1,1.180683245E1
2.983738828E0,9.240000248E-1,1.194300079E1,1.050000072E0,1.202462241E1
2.985699770E0,8.470500112E-1,1.198095036E1,1.203000069E0,1.207095167E1
2.987661027E0,4.639500082E-1,1.217295074E1,1.011000037E0,1.222366968E1
2.989622253E0,2.340000123E-1,1.228800011E1,5.130000114E-1,1.230092971E1
2.991583488E0,3.870000243E-1,1.228800011E1,7.050000429E-1,1.231429010E1
2.993545573E0,1.960500032E-1,1.224900055E1,6.660000086E-1,1.226865951E1
2.995507409E0,1.189500093E-1,1.224900055E1,5.899500251E-1,1.226377611E1
2.997469078E0,4.050000105E-3,1.224900055E1,4.360500276E-1,1.225676020E1
2.999430796E0,-1.870500147E-1,1.221105099E1,3.600000143E-1,1.221778842E1
3.001393249E0,-3.019500077E-1,1.221105099E1,3.600000143E-1,1.222008756E1
3.003355486E0,-4.930500090E-1,1.209600067E1,2.830500007E-1,1.210935373E1
3.005317446E0,-6.850500107E-1,1.201905060E1,9.195000678E-2,1.203890882E1
3.007279488E0,-8.380500674E-1,1.190400028E1,-6.105000153E-2,1.193361964E1
3.009241320E0,-1.030050039E0,1.178895092E1,-2.520000041E-1,1.183654810E1
3.011203200E0,-1.144950032E0,1.167405033E1,-1.759500057E-1,1.173138185E1
3.013165220E0,-1.375050068E0,1.155900097E1,-4.440000355E-1,1.164896571E1
3.015127198E0,-1.528050065E0,1.152105045E1,-4.060500264E-1,1.162903337E1
3.017089337E0,-1.642950058E0,1.140600014E1,-3.289500177E-1,1.152841412E1
3.019051428E0,-1.758000135E0,1.125300026E1,-3.289500177E-1,1.139424361E1
3.021013464E0,-1.758000135E0,1.110000038E1,-2.910000086E-1,1.124211964E1
3.022975512E0,-1.950000048E0,1.102305031E1,-2.910000086E-1,1.119798282E1
3.024937459E0,-2.026050091E0,1.087005043E1,-2.140500098E-1,1.105932605E1
3.026899435E0,-2.179949999E0,1.075500011E1,-2.520000041E-1,1.097659845E1
3.028861259E0,-2.295000076E0,1.071600056E1,-3.289500177E-1,1.096393640E1
3.030823128E0,-2.371050119E0,1.052505016E1,-2.910000086E-1,1.079274018E1
3.032785144E0,-2.485950232E0,1.044795036E1,-3.289500177E-1,1.074466488E1
3.034747121E0,-2.524950027E0,1.044795036E1,-4.819500148E-1,1.075952207E1
3.036709125E0,-2.563050032E0,1.044795036E1,-6.360000372E-1,1.077652023E1
3.038671121E0,-2.640000105E0,1.041000080E1,-7.120500207E-1,1.076311909E1
3.040632942E0,-2.601000071E0,1.048605061E1,-8.269500136E-1,1.083541900E1
3.042594815E0,-2.677950144E0,1.052505016E1,-7.510500550E-1,1.088632969E1
3.044556671E0,-2.640000105E0,1.060095024E1,-8.659500480E-1,1.095899704E1
3.046518522E0,-2.524950027E0,1.063995075E1,-8.269500136E-1,1.096666636E1
3.048480232E0,-2.410050154E0,1.071600056E1,-7.890000343E-1,1.101197215E1
3.050441984E0,-2.448000193E0,1.079295063E1,-6.739500165E-1,1.108759202E1
3.052403800E0,-2.448000193E0,1.094595051E1,-5.970000029E-1,1.123222803E1
3.054365597E0,-2.371050119E0,1.102305031E1,-5.590500236E-1,1.128902359E1
3.056327471E0,-2.295000076E0,1.106100082E1,-5.970000029E-1,1.131234607E1
3.058289309E0,-2.256000042E0,1.106100082E1,-5.970000029E-1,1.130449842E1
3.060251382E0,-2.140950203E0,1.102305031E1,-6.360000372E-1,1.124703525E1
3.062213386E0,-2.065050125E0,1.094595051E1,-7.120500207E-1,1.116177763E1
3.064175341E0,-2.026050091E0,1.087005043E1,-7.890000343E-1,1.108536857E1
3.066137311E0,-1.950000048E0,1.083105087E1,-8.659500480E-1,1.103920435E1
3.068099165E0,-1.911000133E0,1.075500011E1,-9.040500522E-1,1.096080542E1
3.070061032E0,-1.873050094E0,1.071600056E1,-9.040500522E-1,1.091596496E1
3.072022874E0,-1.834950089E0,1.067805004E1,-1.134000063E0,1.089374824E1
3.073984724E0,-1.795950055E0,1.056300068E1,-1.134000063E0,1.077443159E1
3.075946613E0,-1.681950092E0,1.048605061E1,-1.171950102E0,1.068455336E1
3.077908491E0,-1.567050099E0,1.044795036E1,-1.096050024E0,1.062151771E1
3.079870661E0,-1.528050065E0,1.033305073E1,-9.420000315E-1,1.048781380E1
3.081832736E0,-1.452000022E0,1.018005085E1,-1.134000063E0,1.034541906E1
3.083794769E0,-1.413000107E0,1.010295010E1,-1.096050024E0,1.025999491E1
3.085756815E0,-1.413000107E0,1.002600002E1,-1.057050109E0,1.018010809E1
3.087718762E0,-1.413000107E0,9.949950218E0,-9.810000658E-1,1.009754623E1
3.089680738E0,-1.336950064E0,9.796050072E0,-1.018950105E0,9.939229940E0
3.091642586E0,-1.144950032E0,9.643050194E0,-1.057050109E0,9.768146321E0
3.093604455E0,-1.068000078E0,9.451050758E0,-1.018950105E0,9.565628255E0
3.095566117E0,-9.529500604E-1,9.336000443E0,-7.510500550E-1,9.414515084E0
3.097527839E0,-8.770500422E-1,9.106050491E0,-1.134000063E0,9.218206359E0
3.099489886E0,-8.380500674E-1,8.991000175E0,-1.057050109E0,9.091631702E0
3.101451837E0,-7.230000496E-1,8.838000298E0,-1.018950105E0,8.925874615E0
3.103413637E0,-5.700000525E-1,8.722949982E0,-8.659500480E-1,8.784339812E0
3.105375502E0,-4.930500090E-1,8.493000031E0,-1.018950105E0,8.568104058E0
3.107337345E0,-5.320500135E-1,8.455050468E0,-1.096050024E0,8.542381477E0
3.109299194E0,-5.320500135E-1,8.302050591E0,-1.210950017E0,8.406754497E0
3.111261084E0,-4.170000255E-1,8.187000275E0,-1.171950102E0,8.280961874E0
3.113222961E0,-4.170000255E-1,8.110050201E0,-1.210950017E0,8.210554380E0
3.115184739E0,-3.780000210E-1,7.995000362E0,-1.249050021E0,8.100804946E0
3.117146559E0,-3.400500119E-1,7.957050323E0,-1.287000060E0,8.067629950E0
3.119108409E0,-3.780000210E-1,7.842000484E0,-1.171950102E0,7.938093137E0
3.121070250E0,-4.170000255E-1,7.687950134E0,-1.057050109E0,7.771474842E0
3.123032142E0,-3.400500119E-1,7.612050533E0,-1.363950014E0,7.740756227E0
3.124994019E0,-2.629500031E-1,7.573050499E0,-1.287000060E0,7.686130738E0
3.126956014E0,-3.019500077E-1,7.612050533E0,-1.096050024E0,7.696480545E0
3.128917961E0,-4.170000255E-1,7.573050499E0,-1.057050109E0,7.657828531E0
3.130879791E0,-4.930500090E-1,7.573050499E0,-1.057050109E0,7.662346057E0
3.132841655E0,-4.930500090E-1,7.573050499E0,-1.018950105E0,7.657182999E0
3.134803498E0,-5.700000525E-1,7.612050533E0,-9.810000658E-1,7.696140235E0
3.136765348E0,-6.079500318E-1,7.573050499E0,-1.171950102E0,7.687272868E0
3.138727193E0,-5.320500135E-1,7.650000572E0,-1.096050024E0,7.746412823E0
3.140689040E0,-6.469500065E-1,7.687950134E0,-1.018950105E0,7.782119306E0
3.142650751E0,-6.469500065E-1,7.726950169E0,-9.420000315E-1,7.810996561E0
3.144612502E0,-6.850500107E-1,7.765050411E0,-9.420000315E-1,7.851921132E0
3.146574184E0,-7.620000243E-1,7.803000450E0,-9.420000315E-1,7.896507084E0
3.148535886E0,-7.230000496E-1,7.803000450E0,-1.057050109E0,7.907395275E0
3.150497809E0,-7.230000496E-1,7.842000484E0,-1.134000063E0,7.956485205E0
3.152459630E0,-7.999500632E-1,7.879950523E0,-1.249050021E0,8.018333138E0
3.154421436E0,-7.999500632E-1,7.842000484E0,-1.171950102E0,7.969338664E0
3.156383247E0,-7.999500632E-1,7.995000362E0,-1.096050024E0,8.109332682E0
3.158345143E0,-9.150000215E-1,7.957050323E0,-5.970000029E-1,8.031704918E0
3.160307014E0,-8.380500674E-1,7.879950523E0,-1.057050109E0,7.994579607E0
3.162269167E0,-9.919500351E-1,7.879950523E0,-1.096050024E0,8.017412973E0
3.164231240E0,-9.919500351E-1,7.957050323E0,-1.134000063E0,8.098430148E0
3.166193048E0,-9.529500604E-1,7.957050323E0,-1.096050024E0,8.088515891E0
3.168154934E0,-1.068000078E0,7.957050323E0,-1.171950102E0,8.113491299E0
3.170116774E0,-9.919500351E-1,7.957050323E0,-1.171950102E0,8.103831302E0
3.172078627E0,-9.919500351E-1,7.995000362E0,-1.287000060E0,8.158453580E0
3.174040472E0,-9.919500351E-1,7.918050289E0,-1.287000060E0,8.083059718E0
3.176002319E0,-9.150000215E-1,7.879950523E0,-1.210950017E0,8.024789420E0
3.177964209E0,-9.529500604E-1,7.842000484E0,-1.210950017E0,7.991963799E0
3.179926086E0,-9.919500351E-1,7.879950523E0,-1.134000063E0,8.022689154E0
3.181888062E0,-1.068000078E0,7.803000450E0,-1.171950102E0,7.962468664E0
3.183850009E0,-1.144950032E0,7.765050411E0,-1.171950102E0,7.936018240E0
3.185811515E0,-9.919500351E-1,7.765050411E0,-1.171950102E0,7.915392587E0
3.187773156E0,-1.144950032E0,7.687950134E0,-1.210950017E0,7.866504166E0
3.189735036E0,-1.183050036E0,7.650000572E0,-1.326000094E0,7.853686548E0
3.191696846E0,-1.260000110E0,7.573050499E0,-1.287000060E0,7.784283094E0
3.193658879E0,-1.260000110E0,7.497000217E0,-1.249050021E0,7.704072851E0
3.195620846E0,-1.260000110E0,7.458000183E0,-1.287000060E0,7.672400939E0
3.197582812E0,-1.260000110E0,7.458000183E0,-1.326000094E0,7.679039215E0
3.199544776E0,-1.297950029E0,7.420050144E0,-1.249050021E0,7.635570992E0
3.201506781E0,-1.336950064E0,7.381950378E0,-1.326000094E0,7.618326792E0
3.203468774E0,-1.336950064E0,7.305000305E0,-1.402050018E0,7.557526658E0
3.205430775E0,-1.336950064E0,7.305000305E0,-1.363950014E0,7.550551276E0
3.207392774E0,-1.375050068E0,7.267050266E0,-1.326000094E0,7.513924308E0
3.209354571E0,-1.413000107E0,7.152000427E0,-1.402050018E0,7.423841571E0
3.211316444E0,-1.375050068E0,7.189950466E0,-1.479000092E0,7.468171909E0
3.213278329E0,-1.375050068E0,7.113000393E0,-1.555950046E0,7.409893240E0
3.215240211E0,-1.375050068E0,7.075050354E0,-1.555950046E0,7.373471418E0
3.217202186E0,-1.297950029E0,7.036950111E0,-1.516950130E0,7.314675580E0
3.219164134E0,-1.336950064E0,7.075050354E0,-1.555950046E0,7.366461398E0
3.221126138E0,-1.375050068E0,6.997950554E0,-1.632000089E0,7.316112283E0
3.223088129E0,-1.336950064E0,6.997950554E0,-1.555950046E0,7.292443210E0
3.225049952E0,-1.336950064E0,7.036950111E0,-1.632000089E0,7.346395486E0
3.227011824E0,-1.336950064E0,7.075050354E0,-1.594050050E0,7.374602942E0
3.228974205E0,-1.183050036E0,7.113000393E0,-1.594050050E0,7.384807211E0
3.230936437E0,-1.068000078E0,7.152000427E0,-1.708950043E0,7.430494232E0
3.232898403E0,-1.106999993E0,7.267050266E0,-1.708950043E0,7.546918497E0
3.234860444E0,-1.068000078E0,7.381950378E0,-1.747050047E0,7.660678783E0
3.236822437E0,-1.144950032E0,7.420050144E0,-1.747050047E0,7.708452412E0
3.238784444E0,-1.222050071E0,7.458000183E0,-1.747050047E0,7.756762016E0
3.240746443E0,-1.260000110E0,7.534950256E0,-1.708950043E0,7.828383351E0
3.242708444E0,-1.260000110E0,7.534950256E0,-1.708950043E0,7.828383351E0
3.244670258E0,-1.336950064E0,7.573050499E0,-1.632000089E0,7.861421858E0
3.246632131E0,-1.375050068E0,7.612050533E0,-1.594050050E0,7.897789031E0
3.248593838E0,-1.413000107E0,7.650000572E0,-1.555950046E0,7.933477081E0
3.250555593E0,-1.413000107E0,7.650000572E0,-1.594050050E0,7.941037314E0
3.252517274E0,-1.452000022E0,7.803000450E0,-1.555950046E0,8.088022047E0
3.254478977E0,-1.489950061E0,7.765050411E0,-1.671000123E0,8.081348927E0
3.256440428E0,-1.528050065E0,7.687950134E0,-1.594050050E0,7.998781772E0
3.258401963E0,-1.567050099E0,7.726950169E0,-1.632000089E0,8.051386788E0
3.260363546E0,-1.605000019E0,7.765050411E0,-1.671000123E0,8.103349577E0
3.262325115E0,-1.605000019E0,7.765050411E0,-1.708950043E0,8.111260272E0
3.264287009E0,-1.642950058E0,7.726950169E0,-1.786050081E0,8.099075175E0
3.266248808E0,-1.642950058E0,7.803000450E0,-1.824000120E0,8.180041403E0
3.268210647E0,-1.642950058E0,7.765050411E0,-1.861950040E0,8.152432197E0
3.270172485E0,-1.642950058E0,7.765050411E0,-1.900950074E0,8.161427814E0
3.272134332E0,-1.681950092E0,7.803000450E0,-1.977000117E0,8.223399638E0
3.274096177E0,-1.720050097E0,7.803000450E0,-2.053950071E0,8.250096924E0
3.276057980E0,-1.720050097E0,7.803000450E0,-2.053950071E0,8.250096924E0
3.278019795E0,-1.720050097E0,7.842000484E0,-2.053950071E0,8.286993111E0
3.279981671E0,-1.681950092E0,7.842000484E0,-2.053950071E0,8.279168956E0
3.281943543E0,-1.681950092E0,7.803000450E0,-2.169000149E0,8.271658466E0
3.283905520E0,-1.681950092E0,7.842000484E0,-2.169000149E0,8.308458904E0
3.285867466E0,-1.642950058E0,7.842000484E0,-2.245050192E0,8.320847725E0
3.287829296E0,-1.720050097E0,7.842000484E0,-2.206950188E0,8.326234026E0
