"Time (s)","Acceleration x (m/s^2)","Acceleration y (m/s^2)","Acceleration z (m/s^2)","Absolute acceleration (m/s^2)"
3.358335500E-2,-3.790050268E0,4.239000320E0,4.423050404E0,7.203955832E0
3.554388700E-2,-4.210950375E0,4.392000198E0,4.690950394E0,7.682889066E0
3.750712400E-2,-4.708950043E0,4.354050159E0,4.576050282E0,7.878591211E0
3.946873200E-2,-5.245950222E0,4.162050247E0,4.537950039E0,8.089230282E0
4.143081700E-2,-6.088950157E0,5.005050182E0,4.653000355E0,9.152936886E0
4.339297600E-2,-6.511050224E0,5.809950352E0,4.461000443E0,9.800501164E0
4.535511700E-2,-6.625950336E0,6.615000248E0,4.308000088E0,1.030632383E1
4.731709400E-2,-6.856050491E0,7.573050499E0,4.537950039E0,1.117808180E1
4.927911900E-2,-7.123950481E0,8.377950668E0,4.959000111E0,1.206368144E1
5.124089000E-2,-7.431000233E0,8.991000175E0,5.227050304E0,1.278201485E1
5.320273500E-2,-7.468950272E0,9.067950249E0,4.768050194E0,1.267861359E1
5.516480500E-2,-7.546050549E0,8.877000809E0,4.078050137E0,1.234400726E1
5.712680900E-2,-7.621950150E0,8.569950104E0,3.157950163E0,1.189583196E1
5.908894400E-2,-7.737000465E0,8.224950790E0,1.969950080E0,1.146262165E1
6.105104000E-2,-8.082000732E0,8.187000275E0,1.318050027E0,1.157941990E1
6.301302500E-2,-8.656949997E0,8.302050591E0,7.429500222E-1,1.201743741E1
6.497504200E-2,-8.925000191E0,8.416950226E0,3.979500234E-1,1.227432457E1
6.693690400E-2,-9.309000015E0,8.647050858E0,4.750500321E-1,1.271434789E1
6.889881100E-2,-9.577050209E0,8.838000298E0,4.360500276E-1,1.303918247E1
7.086096100E-2,-9.960000038E0,8.953050613E0,8.200500607E-1,1.341757050E1
7.282304000E-2,-1.034400082E1,9.145050049E0,1.279950023E0,1.386609409E1
7.478507200E-2,-1.061205006E1,9.259950638E0,1.510050058E0,1.416483475E1
7.674711800E-2,-1.076505089E1,9.298050880E0,1.740000129E0,1.433065495E1
7.870927400E-2,-1.072695065E1,9.298050880E0,2.085000038E0,1.434811644E1
8.067140900E-2,-1.057395077E1,9.259950638E0,2.545050144E0,1.428399107E1
8.263370200E-2,-1.038195038E1,9.220950127E0,2.773950100E0,1.416000050E1
8.459594800E-2,-1.022895050E1,8.991000175E0,2.965950251E0,1.393794724E1
8.655813200E-2,-1.015200043E1,8.877000809E0,3.118950129E0,1.384168003E1
8.852033400E-2,-1.015200043E1,8.647050858E0,3.157950163E0,1.370427855E1
9.048243500E-2,-1.011405087E1,8.493000031E0,3.118950129E0,1.357029566E1
9.244456500E-2,-1.003695011E1,8.263050079E0,3.157950163E0,1.337875231E1
9.440676700E-2,-1.007505035E1,8.071949959E0,3.118950129E0,1.328122230E1
9.636894800E-2,-1.003695011E1,7.879950523E0,3.118950129E0,1.313627945E1
9.833087300E-2,-9.844950676E0,7.650000572E0,2.965950251E0,1.281571003E1
1.002928730E-1,-9.577050209E0,7.381950378E0,2.889000177E0,1.243219225E1
1.022548730E-1,-9.232050896E0,7.152000427E0,2.736000061E0,1.199448082E1
1.042168730E-1,-8.809950829E0,6.883050442E0,2.659050226E0,1.149183036E1
1.061789170E-1,-8.427000046E0,6.538950443E0,2.620950222E0,1.098369622E1
1.081409480E-1,-7.966950417E0,6.154950142E0,2.430000067E0,1.035666986E1
1.101029440E-1,-7.584000587E0,5.848950386E0,2.391000032E0,9.871381194E0
1.120649500E-1,-7.162050247E0,5.427000046E0,2.314950228E0,9.279347380E0
1.140268890E-1,-6.625950336E0,5.158950329E0,2.314950228E0,8.710739401E0
1.159888580E-1,-5.935950279E0,4.890000343E0,2.275950193E0,8.020446269E0
1.179506830E-1,-5.092950344E0,4.736999989E0,2.314950228E0,7.330505211E0
1.199125500E-1,-4.018949986E0,4.584000111E0,2.353049994E0,6.534666041E0
1.218744360E-1,-3.061050177E0,4.315950394E0,2.275950193E0,5.759983096E0
1.238363170E-1,-2.256000042E0,4.123950005E0,2.238000154E0,5.206260128E0
1.257982920E-1,-1.642950058E0,4.009050369E0,2.275950193E0,4.894049350E0
1.277602400E-1,-1.222050071E0,3.894000292E0,2.391000032E0,4.730066152E0
1.297222940E-1,-9.150000215E-1,3.817050219E0,2.275950193E0,4.537295086E0
1.316843170E-1,-6.850500107E-1,3.664050102E0,2.161050081E0,4.308676609E0
1.336464940E-1,-4.930500090E-1,3.625950098E0,2.200050116E0,4.269757948E0
1.356086250E-1,-1.870500147E-1,3.549000263E0,2.122950077E0,4.139723132E0
1.375707980E-1,8.100000024E-2,3.549000263E0,2.046000004E0,4.097325943E0
1.395329480E-1,1.960500032E-1,3.625950098E0,2.161050081E0,4.225646361E0
1.414951020E-1,3.490500152E-1,3.664050102E0,2.122950077E0,4.249001776E0
1.434572550E-1,8.100000024E-2,4.085999966E0,2.200050116E0,4.641355107E0
1.454190500E-1,-1.480500102E-1,4.315950394E0,2.238000154E0,4.863948118E0
1.473809500E-1,-3.400500119E-1,4.239000320E0,2.353049994E0,4.860205963E0
1.493429400E-1,-8.770500422E-1,4.699050426E0,2.430000067E0,5.362386783E0
1.513048900E-1,-1.336950064E0,5.119950294E0,2.391000032E0,5.806738124E0
1.532671240E-1,-1.681950092E0,5.311950207E0,2.353049994E0,6.048356420E0
1.552292750E-1,-1.873050094E0,5.464950085E0,2.275950193E0,6.209182343E0
1.571914290E-1,-2.065050125E0,5.389050484E0,2.391000032E0,6.246853471E0
1.591535820E-1,-2.179949999E0,5.311950207E0,2.545050144E0,6.280627137E0
1.611157410E-1,-2.295000076E0,5.119950294E0,2.391000032E0,6.098999715E0
1.630778950E-1,-2.410050154E0,5.274000168E0,2.391000032E0,6.272184681E0
1.650400050E-1,-2.640000105E0,5.656950474E0,2.430000067E0,6.698924506E0
1.670021280E-1,-2.716050148E0,5.772000313E0,2.430000067E0,6.826259323E0
1.689643310E-1,-2.908050060E0,5.887050152E0,2.506050110E0,7.028115096E0
1.709265100E-1,-3.367950201E0,6.270000458E0,2.391000032E0,7.508187228E0
1.728884790E-1,-3.751050234E0,6.615000248E0,2.506050110E0,8.006802938E0
1.748505110E-1,-3.981000185E0,6.730050087E0,2.467950106E0,8.199555742E0
1.768123260E-1,-4.288050175E0,6.768000126E0,2.467950106E0,8.383554003E0
1.787742040E-1,-4.518000126E0,6.807000160E0,2.583000183E0,8.568515990E0
1.807364040E-1,-4.786050320E0,7.036950111E0,2.467950106E0,8.860909787E0
1.826985090E-1,-4.978050232E0,7.420050144E0,2.545050144E0,9.290608618E0
1.846604780E-1,-4.939050198E0,7.381950378E0,2.698050022E0,9.282611818E0
1.866224970E-1,-4.939050198E0,7.305000305E0,2.773950100E0,9.244027557E0
1.885846730E-1,-4.939050198E0,7.342950344E0,2.812950134E0,9.285786185E0
1.905468030E-1,-4.939050198E0,7.497000217E0,2.928000212E0,9.443114653E0
1.925090970E-1,-5.016000271E0,7.687950134E0,3.043050051E0,9.670831898E0
1.944713420E-1,-5.053950310E0,7.765050411E0,3.157950163E0,9.788312973E0
1.964333410E-1,-5.053950310E0,7.957050323E0,3.196050167E0,9.953481816E0
1.983954150E-1,-5.053950310E0,8.110050201E0,3.157950163E0,1.006419283E1
2.003574020E-1,-4.594050407E0,8.032950401E0,3.157950163E0,9.777844370E0
2.023194150E-1,-4.863000393E0,8.032950401E0,3.234000206E0,9.931556892E0
2.042815920E-1,-4.824000359E0,8.148000717E0,2.965950251E0,9.922588172E0
2.062437210E-1,-4.786050320E0,8.148000717E0,2.812950134E0,9.859456466E0
2.082056450E-1,-4.671000004E0,7.995000362E0,2.620950222E0,9.623286959E0
2.101676360E-1,-4.518000126E0,8.032950401E0,2.430000067E0,9.531291498E0
2.121298170E-1,-4.249050140E0,8.071949959E0,2.122950077E0,9.365773874E0
2.140919420E-1,-4.057950020E0,8.110050201E0,1.930950046E0,9.271916777E0
2.160542810E-1,-3.865950108E0,8.148000717E0,1.816050053E0,9.199648021E0
2.180165570E-1,-3.675000191E0,8.647050858E0,1.432950020E0,9.504233830E0
2.199787270E-1,-3.636000156E0,8.838000298E0,1.240950108E0,9.636944722E0
2.219409350E-1,-3.598050117E0,8.991000175E0,1.165050030E0,9.754044821E0
2.239039340E-1,-3.253050089E0,9.067950249E0,9.349500537E-1,9.679059262E0
2.258667020E-1,-2.371050119E0,9.030000687E0,2.830500007E-1,9.340391232E0
2.278282110E-1,-3.138000250E0,9.067950249E0,5.509500504E-1,9.611363755E0
2.297900890E-1,-3.943050146E0,9.067950249E0,7.050000429E-1,9.913243225E0
2.317528190E-1,-2.601000071E0,8.953050613E0,1.500000060E-2,9.323225925E0
2.337153070E-1,-3.100050211E0,9.145050049E0,-6.105000153E-2,9.656395746E0
2.356772690E-1,-3.214950085E0,9.298050880E0,-9.900000691E-2,9.838671416E0
2.376393860E-1,-1.987950087E0,9.298050880E0,-4.440000355E-1,9.518551978E0
2.396006450E-1,-1.873050094E0,9.565950394E0,-5.209500194E-1,9.761511794E0
2.415621550E-1,-2.830950022E0,9.757950783E0,2.449500114E-1,1.016326139E1
2.435247480E-1,-1.567050099E0,9.681000710E0,-9.040500522E-1,9.848590115E0
2.454870130E-1,-1.106999993E0,9.796050072E0,-5.970000029E-1,9.876459639E0
2.474484280E-1,-3.367950201E0,1.029495049E1,6.660000086E-1,1.085231082E1
2.494100920E-1,-2.332950115E0,1.002600002E1,-3.670500219E-1,1.030039118E1
2.513719680E-1,-1.758000135E0,1.006500053E1,-2.910000086E-1,1.022152050E1
2.533337820E-1,-2.908050060E0,1.071600056E1,3.600000143E-1,1.110941147E1
2.552960400E-1,-3.214950085E0,1.067805004E1,4.750500321E-1,1.116164545E1
2.572581670E-1,-2.295000076E0,1.048605061E1,1.300500035E-1,1.073504521E1
2.592193800E-1,-2.295000076E0,1.071600056E1,2.830500007E-1,1.096265527E1
2.611808610E-1,-2.524950027E0,1.102305031E1,3.979500234E-1,1.131553688E1
2.631429940E-1,-2.716050148E0,1.117605019E1,3.979500234E-1,1.150823142E1
2.651049360E-1,-2.563050032E0,1.129095078E1,6.660000086E-1,1.159734241E1
2.670667300E-1,-2.601000071E0,1.129095078E1,7.810500264E-1,1.161295871E1
2.690285930E-1,-2.601000071E0,1.136805058E1,8.580000401E-1,1.169332884E1
2.709907960E-1,-2.640000105E0,1.159800053E1,1.087950110E0,1.194432301E1
2.729528990E-1,-2.755050182E0,1.182795048E1,1.240950108E0,1.220781189E1
2.749148370E-1,-2.677950144E0,1.194300079E1,1.395000100E0,1.231879500E1
2.768768240E-1,-2.869950056E0,1.217295074E1,1.585950017E0,1.260684658E1
2.788386570E-1,-3.175950050E0,1.255605030E1,1.663050056E0,1.305782499E1
2.808005590E-1,-3.367950201E0,1.267095089E1,1.548000097E0,1.320198429E1
2.827629360E-1,-3.598050117E0,1.270905018E1,1.279950023E0,1.327042551E1
2.847251730E-1,-3.712950230E0,1.286295033E1,1.126049995E0,1.343538161E1
2.866873140E-1,-3.598050117E0,1.293900108E1,1.011000037E0,1.346795585E1
2.886494830E-1,-3.445050240E0,1.305405045E1,1.011000037E0,1.353878596E1
2.906117730E-1,-3.214950085E0,1.305405045E1,1.011000037E0,1.348207173E1
2.925740240E-1,-2.793000221E0,1.255605030E1,2.070000172E-1,1.286460642E1
2.945367020E-1,-9.150000215E-1,1.136805058E1,-4.507050037E0,1.226308684E1
2.964992550E-1,8.100000024E-2,1.175100040E1,-9.420000315E-1,1.178897517E1
2.984604850E-1,-1.144950032E0,1.221105099E1,4.360500276E-1,1.227235986E1
3.004221030E-1,-2.026050091E0,1.274805069E1,1.585950017E0,1.300511103E1
3.023844830E-1,-2.563050032E0,1.290105057E1,2.736000061E0,1.343473214E1
3.043466390E-1,-2.601000071E0,1.274805069E1,2.467950106E0,1.324268762E1
3.063087940E-1,-2.640000105E0,1.267095089E1,2.583000183E0,1.319827591E1
3.082709490E-1,-2.830950022E0,1.244100094E1,2.659050226E0,1.303316272E1
3.102332820E-1,-3.022950172E0,1.240305042E1,2.773950100E0,1.306402261E1
3.121955620E-1,-3.291000128E0,1.240305042E1,3.157950163E0,1.321510465E1
3.141573350E-1,-3.559950113E0,1.228800011E1,3.426000118E0,1.324408050E1
3.161192570E-1,-3.790050268E0,1.232595062E1,3.771000147E0,1.343554918E1
3.180812690E-1,-4.096050262E0,1.221105099E1,3.886050224E0,1.345320706E1
3.200432550E-1,-4.518000126E0,1.201905060E1,3.463950157E0,1.329920498E1
3.220052570E-1,-4.708950043E0,1.178895092E1,3.043050051E0,1.305426091E1
3.239672550E-1,-4.747950077E0,1.136805058E1,2.698050022E0,1.261170400E1
3.259290620E-1,-4.708950043E0,1.098495007E1,2.467950106E0,1.220385661E1
3.278909350E-1,-4.555950165E0,1.063995075E1,2.275950193E0,1.179598165E1
3.298531810E-1,-4.402950287E0,1.029495049E1,2.008050203E0,1.137559855E1
3.318153180E-1,-4.249050140E0,9.910950661E0,1.893000126E0,1.094827930E1
3.337774310E-1,-4.173000336E0,9.643050194E0,1.777950048E0,1.065661556E1
3.357395510E-1,-4.018949986E0,9.528000832E0,1.624950051E0,1.046781837E1
3.377016890E-1,-3.981000185E0,9.451050758E0,1.471050024E0,1.036024667E1
3.396638360E-1,-3.904950142E0,9.336000443E0,1.395000100E0,1.021545717E1
3.416258120E-1,-3.943050146E0,9.259950638E0,1.165050030E0,1.013171614E1
3.435878380E-1,-3.981000185E0,9.183000565E0,1.087950110E0,1.006774539E1
3.455496540E-1,-4.018949986E0,9.067950249E0,9.730500579E-1,9.966268465E0
3.475115310E-1,-4.057950020E0,9.030000687E0,8.959500194E-1,9.940351966E0
3.494735420E-1,-4.018949986E0,8.877000809E0,9.349500537E-1,9.789138570E0
3.514355200E-1,-3.943050146E0,8.838000298E0,8.959500194E-1,9.719085356E0
3.533975240E-1,-3.943050146E0,8.685000420E0,9.730500579E-1,9.587684974E0
3.553595200E-1,-3.981000185E0,8.569950104E0,1.011000037E0,9.503395621E0
3.573213860E-1,-4.096050262E0,8.532000542E0,1.203000069E0,9.540433437E0
3.592832910E-1,-4.249050140E0,8.455050468E0,1.318050027E0,9.554033776E0
3.612452860E-1,-4.249050140E0,8.377950668E0,1.432950020E0,9.502517048E0
3.632072690E-1,-4.288050175E0,8.187000275E0,1.356000066E0,9.340935926E0
3.651692280E-1,-4.173000336E0,8.032950401E0,1.240950108E0,9.136858384E0
3.671311940E-1,-4.096050262E0,7.803000450E0,1.126049995E0,8.884392628E0
3.690931990E-1,-3.981000185E0,7.687950134E0,8.959500194E-1,8.703773100E0
3.710551920E-1,-3.904950142E0,7.612050533E0,7.810500264E-1,8.590808348E0
3.730174050E-1,-3.865950108E0,7.497000217E0,7.050000429E-1,8.464490980E0
3.749795630E-1,-3.828000069E0,7.458000183E0,5.899500251E-1,8.403772503E0
3.769423920E-1,-3.865950108E0,7.342950344E0,4.360500276E-1,8.309911529E0
3.789050240E-1,-3.904950142E0,7.228050232E0,2.830500007E-1,8.220307967E0
3.808664210E-1,-3.943050146E0,7.189950466E0,3.979500234E-1,8.209835344E0
3.828281800E-1,-3.981000185E0,7.075050354E0,5.130000114E-1,8.134363466E0
3.847900400E-1,-3.904950142E0,6.997950554E0,5.509500504E-1,8.032651712E0
3.867518700E-1,-3.904950142E0,6.922050476E0,7.050000429E-1,7.978749493E0
3.887138990E-1,-3.790050268E0,6.883050442E0,8.200500607E-1,7.900211802E0
3.906758700E-1,-3.751050234E0,6.807000160E0,9.730500579E-1,7.832780825E0
3.926378750E-1,-3.636000156E0,6.844950199E0,1.126049995E0,7.832102461E0
3.945998700E-1,-3.559950113E0,6.883050442E0,1.240950108E0,7.847903246E0
3.965616920E-1,-3.445050240E0,6.883050442E0,1.356000066E0,7.815592794E0
3.985235650E-1,-3.367950201E0,6.922050476E0,1.395000100E0,7.823291930E0
4.004851810E-1,-3.330000162E0,6.997950554E0,1.356000066E0,7.867588526E0
4.024468720E-1,-3.291000128E0,7.036950111E0,1.356000066E0,7.885942232E0
4.044087440E-1,-3.291000128E0,7.113000393E0,1.240950108E0,7.935074896E0
4.063705630E-1,-3.330000162E0,7.189950466E0,1.087950110E0,7.997995013E0
4.083326130E-1,-3.445050240E0,7.305000305E0,9.730500579E-1,8.135000125E0
4.102945820E-1,-3.559950113E0,7.497000217E0,8.580000401E-1,8.343525702E0
4.122564530E-1,-3.751050234E0,7.687950134E0,8.580000401E-1,8.597157623E0
4.142183530E-1,-3.904950142E0,7.803000450E0,1.165050030E0,8.802999103E0
4.161803240E-1,-3.981000185E0,7.995000362E0,1.356000066E0,9.033666445E0
4.181422740E-1,-4.057950020E0,8.110050201E0,1.356000066E0,9.169438849E0
4.201041230E-1,-3.981000185E0,8.224950790E0,1.432950020E0,9.249406669E0
4.220660200E-1,-4.057950020E0,8.340000153E0,1.510050058E0,9.396957597E0
4.240278580E-1,-4.134000301E0,8.532000542E0,1.701000094E0,9.632154123E0
4.259897130E-1,-4.173000336E0,8.647050858E0,1.893000126E0,9.786157050E0
4.279513770E-1,-4.210950375E0,8.722949982E0,2.008050203E0,9.892129450E0
4.299130970E-1,-4.096050262E0,8.761950493E0,2.008050203E0,9.878343475E0
4.318749020E-1,-4.057950020E0,8.838000298E0,1.930950046E0,9.914926914E0
4.338367250E-1,-4.096050262E0,8.914950371E0,1.816050053E0,9.977575139E0
4.357985320E-1,-4.096050262E0,8.953050613E0,1.777950048E0,1.000479132E1
4.377603430E-1,-4.018949986E0,8.953050613E0,1.855050087E0,9.987506450E0
4.397222390E-1,-4.057950020E0,8.991000175E0,1.893000126E0,1.004432636E1
4.416841100E-1,-4.018949986E0,9.030000687E0,1.930950046E0,1.007082119E1
4.436462730E-1,-3.981000185E0,9.106050491E0,1.930950046E0,1.012408446E1
4.456083460E-1,-3.981000185E0,9.106050491E0,1.969950080E0,1.013159520E1
4.475699740E-1,-3.865950108E0,9.106050491E0,1.816050053E0,1.005801986E1
4.495317330E-1,-3.712950230E0,9.067950249E0,1.816050053E0,9.965528532E0
4.514936380E-1,-3.598050117E0,9.106050491E0,1.893000126E0,9.972440507E0
4.534555000E-1,-3.559950113E0,9.106050491E0,1.930950046E0,9.966040760E0
4.554173320E-1,-3.406050205E0,9.106050491E0,2.275950193E0,9.985052971E0
4.573791500E-1,-3.406050205E0,9.145050049E0,2.430000067E0,1.005673996E1
4.593411800E-1,-3.483000278E0,9.106050491E0,2.545050144E0,1.007614642E1
4.613031480E-1,-3.483000278E0,9.145050049E0,2.620950222E0,1.013077546E1
4.632650190E-1,-3.520950079E0,9.145050049E0,2.506050110E0,1.011480682E1
4.652269190E-1,-3.483000278E0,9.106050491E0,2.238000154E0,1.000300411E1
4.671889690E-1,-3.483000278E0,9.106050491E0,2.046000004E0,9.961805183E0
4.691509510E-1,-3.367950201E0,9.145050049E0,1.930950046E0,9.934968396E0
4.711127750E-1,-3.330000162E0,9.183000565E0,1.930950046E0,9.957156649E0
4.730746460E-1,-3.214950085E0,9.220950127E0,1.930950046E0,9.954415772E0
4.750364880E-1,-3.175950050E0,9.183000565E0,2.008050203E0,9.922017119E0
4.769983380E-1,-3.138000250E0,9.259950638E0,1.969950080E0,9.973687117E0
4.789601690E-1,-3.100050211E0,9.220950127E0,1.969950080E0,9.925569801E0
4.809220160E-1,-3.061050177E0,9.298050880E0,2.008050203E0,9.992799607E0
4.828836370E-1,-2.985000134E0,9.375000000E0,2.122950077E0,1.006517600E1
4.848453240E-1,-3.022950172E0,9.412950516E0,2.122950077E0,1.011181399E1
4.868071960E-1,-2.985000134E0,9.451050758E0,2.200050116E0,1.015247786E1
4.887690140E-1,-2.946000099E0,9.528000832E0,2.200050116E0,1.021283197E1
4.907307260E-1,-2.908050060E0,9.565950394E0,2.200050116E0,1.023740116E1
4.926924730E-1,-2.869950056E0,9.565950394E0,2.238000154E0,1.023487494E1
4.946539760E-1,-2.793000221E0,9.643050194E0,2.046000004E0,1.024574952E1
4.966155500E-1,-2.793000221E0,9.681000710E0,2.008050203E0,1.027399098E1
4.985774420E-1,-2.755050182E0,9.681000710E0,1.969950080E0,1.025635313E1
5.005392400E-1,-2.716050148E0,9.757950783E0,1.930950046E0,1.031130932E1
5.025006700E-1,-2.755050182E0,9.835050583E0,1.893000126E0,1.038758735E1
5.044622220E-1,-2.716050148E0,9.873000145E0,1.930950046E0,1.042025088E1
5.064239830E-1,-2.716050148E0,9.910950661E0,1.893000126E0,1.044927370E1
5.083856820E-1,-2.716050148E0,9.988050461E0,1.816050053E0,1.050885903E1
5.103475530E-1,-2.677950144E0,9.949950218E0,1.930950046E0,1.048339136E1
5.123093740E-1,-2.640000105E0,1.002600002E1,1.930950046E0,1.054603457E1
5.142712240E-1,-2.677950144E0,1.006500053E1,1.893000126E0,1.058579719E1
5.162330660E-1,-2.716050148E0,1.006500053E1,1.969950080E0,1.060951778E1
5.181947340E-1,-2.716050148E0,1.010295010E1,1.969950080E0,1.064552640E1
5.201564530E-1,-2.793000221E0,1.010295010E1,2.046000004E0,1.067972691E1
5.221181410E-1,-2.793000221E0,1.018005085E1,2.161050081E0,1.077517624E1
5.240798380E-1,-2.793000221E0,1.018005085E1,2.238000154E0,1.079087254E1
5.260417180E-1,-2.869950056E0,1.010295010E1,2.161050081E0,1.072270262E1
5.280035380E-1,-2.908050060E0,1.010295010E1,1.701000094E0,1.064987123E1
5.299649840E-1,-2.830950022E0,1.014105034E1,2.238000154E0,1.076400598E1
5.319265400E-1,-2.830950022E0,1.010295010E1,2.467950106E0,1.077843478E1
5.338882550E-1,-2.793000221E0,1.006500053E1,2.353049994E0,1.070709719E1
5.358499230E-1,-2.830950022E0,9.988050461E0,2.238000154E0,1.061998469E1
5.378116240E-1,-2.869950056E0,9.910950661E0,2.122950077E0,1.053425239E1
5.397733120E-1,-2.830950022E0,9.910950661E0,2.008050203E0,1.050111835E1
5.417351860E-1,-2.946000099E0,9.873000145E0,1.855050087E0,1.046882320E1
5.436970050E-1,-3.022950172E0,9.796050072E0,1.816050053E0,1.041147744E1
5.456587210E-1,-3.138000250E0,9.796050072E0,1.585950017E0,1.040792391E1
5.476204680E-1,-3.253050089E0,9.757950783E0,1.624950051E0,1.041347209E1
5.495821250E-1,-3.367950201E0,9.757950783E0,1.548000097E0,1.043824680E1
5.515437950E-1,-3.330000162E0,9.681000710E0,1.471050024E0,1.034285570E1
5.535055350E-1,-3.367950201E0,9.643050194E0,1.471050024E0,1.031966539E1
5.554672540E-1,-3.367950201E0,9.604950905E0,1.395000100E0,1.027347048E1
5.574292570E-1,-3.367950201E0,9.528000832E0,1.279950023E0,1.018646948E1
5.593911770E-1,-3.367950201E0,9.490050316E0,1.126049995E0,1.013272580E1
5.613526650E-1,-3.445050240E0,9.375000000E0,9.349500537E-1,1.003160644E1
5.633142700E-1,-3.406050205E0,9.336000443E0,7.810500264E-1,9.968556636E0
5.652762020E-1,-3.445050240E0,9.298050880E0,7.050000429E-1,9.940781981E0
5.672380380E-1,-3.483000278E0,9.259950638E0,5.509500504E-1,9.908658977E0
5.691997060E-1,-3.559950113E0,9.145050049E0,3.979500234E-1,9.821585892E0
5.711614240E-1,-3.675000191E0,9.106050491E0,3.979500234E-1,9.827723346E0
5.731232960E-1,-3.751050234E0,9.106050491E0,3.220500052E-1,9.853641439E0
5.750851200E-1,-3.790050268E0,9.067950249E0,3.600000143E-1,9.834724336E0
5.770467900E-1,-3.904950142E0,9.106050491E0,3.220500052E-1,9.913249082E0
5.790085060E-1,-3.943050146E0,9.030000687E0,3.220500052E-1,9.858614155E0
5.809699690E-1,-4.018949986E0,9.067950249E0,4.750500321E-1,9.930022821E0
5.829315060E-1,-4.057950020E0,9.067950249E0,5.509500504E-1,9.949785226E0
5.848928900E-1,-4.018949986E0,9.106050491E0,6.660000086E-1,9.975754134E0
5.868543330E-1,-4.096050262E0,9.067950249E0,8.200500607E-1,9.983878583E0
5.888160670E-1,-4.057950020E0,9.106050491E0,9.730500579E-1,1.001668310E1
5.907777160E-1,-4.096050262E0,9.145050049E0,1.011000037E0,1.007133006E1
5.927395960E-1,-4.173000336E0,9.220950127E0,1.126049995E0,1.018370471E1
5.947014080E-1,-4.210950375E0,9.298050880E0,1.279950023E0,1.028708536E1
5.966630420E-1,-4.288050175E0,9.412950516E0,1.318050027E0,1.042728477E1
5.986247560E-1,-4.363950253E0,9.451050758E0,1.432950020E0,1.050808108E1
6.005862640E-1,-4.441050053E0,9.643050194E0,1.471050024E0,1.071799099E1
6.025478330E-1,-4.555950165E0,9.720000267E0,1.471050024E0,1.083508538E1
6.045095450E-1,-4.555950165E0,9.835050583E0,1.510050058E0,1.094372665E1
6.064712150E-1,-4.671000004E0,9.949950218E0,1.548000097E0,1.110027273E1
6.084330970E-1,-4.747950077E0,1.014105034E1,1.585950017E0,1.130925149E1
6.103949130E-1,-4.708950043E0,1.018005085E1,1.663050056E0,1.133902030E1
6.123564050E-1,-4.747950077E0,1.029495049E1,1.740000129E0,1.146981412E1
6.143179920E-1,-4.824000359E0,1.037100029E1,1.816050053E0,1.158130667E1
6.162798360E-1,-4.786050320E0,1.044795036E1,1.969950080E0,1.165961611E1
6.182416050E-1,-4.786050320E0,1.048605061E1,2.046000004E0,1.170682070E1
6.202034830E-1,-4.671000004E0,1.056300068E1,2.200050116E0,1.175735705E1
6.221653160E-1,-4.708950043E0,1.060095024E1,2.275950193E0,1.182092661E1
6.241271650E-1,-4.708950043E0,1.060095024E1,2.353049994E0,1.183601288E1
6.260890090E-1,-4.633050442E0,1.060095024E1,2.545050144E0,1.184578333E1
6.280507210E-1,-4.594050407E0,1.063995075E1,2.620950222E0,1.188205501E1
6.300124720E-1,-4.555950165E0,1.052505016E1,2.773950100E0,1.179949838E1
6.319741490E-1,-4.402950287E0,1.056300068E1,2.889000177E0,1.180293508E1
6.339358520E-1,-4.363950253E0,1.048605061E1,2.965950251E0,1.173874695E1
6.358976760E-1,-4.249050140E0,1.041000080E1,3.081000090E0,1.165826339E1
6.378594650E-1,-4.173000336E0,1.033305073E1,3.196050167E0,1.159312753E1
6.398215010E-1,-4.096050262E0,1.029495049E1,3.388050079E0,1.158630729E1
6.417834650E-1,-3.981000185E0,1.021800041E1,3.426000118E0,1.148883683E1
6.437453020E-1,-3.904950142E0,1.010295010E1,3.579000235E0,1.140734320E1
6.457071700E-1,-3.790050268E0,9.988050461E0,3.694050074E0,1.130361177E1
6.476690560E-1,-3.675000191E0,9.873000145E0,3.733050108E0,1.117664625E1
6.496309370E-1,-3.598050117E0,9.720000267E0,3.808950186E0,1.104230372E1
6.515927780E-1,-3.445050240E0,9.528000832E0,3.771000147E0,1.081071751E1
6.535546310E-1,-3.367950201E0,9.412950516E0,3.771000147E0,1.068490375E1
6.555166500E-1,-3.175950050E0,9.220950127E0,3.733050108E0,1.044261668E1
6.574786240E-1,-3.022950172E0,9.030000687E0,3.771000147E0,1.024204971E1
6.594404490E-1,-2.908050060E0,8.800050735E0,3.349050045E0,9.854632632E0
6.614023180E-1,-2.716050148E0,8.761950493E0,3.733050108E0,9.903755245E0
6.633641610E-1,-2.563050032E0,8.569950104E0,3.924000263E0,9.767857918E0
6.653260110E-1,-2.448000193E0,8.493000031E0,3.886050224E0,9.655316712E0
6.672883270E-1,-2.295000076E0,8.302050591E0,3.847950220E0,9.433864015E0
6.692505230E-1,-2.103000164E0,8.148000717E0,3.771000147E0,9.221332197E0
6.712125360E-1,-1.987950087E0,7.957050323E0,3.618000269E0,8.964179904E0
6.731746020E-1,-1.834950089E0,7.842000484E0,3.349050045E0,8.722393572E0
6.751365910E-1,-1.605000019E0,7.842000484E0,3.579000235E0,8.768251784E0
6.770986020E-1,-1.489950061E0,7.726950169E0,3.618000269E0,8.661156738E0
6.790610810E-1,-1.336950064E0,7.650000572E0,3.655950069E0,8.583467547E0
6.810234320E-1,-1.106999993E0,7.534950256E0,3.694050074E0,8.464450974E0
6.829855530E-1,-9.919500351E-1,7.420050144E0,3.655950069E0,8.331091161E0
6.849477420E-1,-8.380500674E-1,7.381950378E0,3.463950157E0,8.197223310E0
6.869099340E-1,-6.079500318E-1,7.381950378E0,3.733050108E0,8.294483573E0
6.888721250E-1,-4.549500346E-1,7.342950344E0,3.847950220E0,8.302567084E0
6.908343060E-1,-5.320500135E-1,7.267050266E0,3.694050074E0,8.169400390E0
6.927964670E-1,-2.250000089E-1,7.305000305E0,3.847950220E0,8.259562661E0
6.947583940E-1,-7.200000435E-2,7.381950378E0,4.078050137E0,8.433793234E0
6.967203900E-1,-7.200000435E-2,7.305000305E0,3.847950220E0,8.256811392E0
6.986824350E-1,1.189500093E-1,7.420050144E0,3.924000263E0,8.394585833E0
7.006444650E-1,2.719500065E-1,7.497000217E0,4.153950214E0,8.575212618E0
7.026064610E-1,2.719500065E-1,7.458000183E0,3.886050224E0,8.414101846E0
7.045684670E-1,4.639500082E-1,7.650000572E0,4.116000175E0,8.699380197E0
7.065302860E-1,1.570500135E-1,7.381950378E0,3.004050255E0,7.971334520E0
7.084921600E-1,4.050000105E-3,7.420050144E0,1.165050030E0,7.510958801E0
7.104540010E-1,8.100000024E-2,7.726950169E0,2.122950077E0,8.013690594E0
7.124158520E-1,1.189500093E-1,7.842000484E0,2.353049994E0,8.188282175E0
7.143776570E-1,2.719500065E-1,7.995000362E0,2.736000061E0,8.454565863E0
7.163394720E-1,3.490500152E-1,8.148000717E0,2.965950251E0,8.678053497E0
7.183020440E-1,5.020500422E-1,8.187000275E0,3.081000090E0,8.761939813E0
7.202643940E-1,6.550500393E-1,8.187000275E0,3.157950163E0,8.799358686E0
7.222259740E-1,7.320000529E-1,8.302050591E0,3.157950163E0,8.912492206E0
7.241877800E-1,8.470500112E-1,8.416950226E0,3.043050051E0,8.990144517E0
7.261496910E-1,8.850000501E-1,8.647050858E0,2.889000177E0,9.159750851E0
7.281115610E-1,8.470500112E-1,8.838000298E0,2.851050138E0,9.325032433E0
7.300732240E-1,7.699500322E-1,8.991000175E0,2.506050110E0,9.365425477E0
7.320349480E-1,6.940500140E-1,9.220950127E0,2.161050081E0,9.496197350E0
7.339960490E-1,5.790000558E-1,9.412950516E0,2.008050203E0,9.642154536E0
7.359573330E-1,5.410500169E-1,9.604950905E0,2.085000038E0,9.843527933E0
7.379195150E-1,4.260000288E-1,9.796050072E0,2.314950228E0,1.007487308E1
7.398814230E-1,2.719500065E-1,9.949950218E0,2.314950228E0,1.021931802E1
7.418430790E-1,1.960500032E-1,1.010295010E1,2.046000004E0,1.030990554E1
7.438048090E-1,4.200000316E-2,1.033305073E1,2.161050081E0,1.055669640E1
7.457669900E-1,-3.299999982E-2,1.044795036E1,2.200050116E0,1.067712397E1
7.477290380E-1,-1.870500147E-1,1.060095024E1,2.122950077E0,1.081305002E1
7.496910710E-1,-3.019500077E-1,1.071600056E1,2.122950077E0,1.092843808E1
7.516531120E-1,-3.400500119E-1,1.087005043E1,2.430000067E0,1.114354211E1
7.536151050E-1,-4.170000255E-1,1.094595051E1,2.545050144E0,1.124566591E1
7.555771120E-1,-4.549500346E-1,1.102305031E1,2.659050226E0,1.134835520E1
7.575391110E-1,-5.320500135E-1,1.113795090E1,2.773950100E0,1.149051028E1
7.595011120E-1,-5.320500135E-1,1.117605019E1,2.928000212E0,1.156548141E1
7.614630670E-1,-5.320500135E-1,1.125300026E1,3.118950129E0,1.168935165E1
7.634250350E-1,-5.320500135E-1,1.125300026E1,3.043050051E0,1.166932927E1
7.653868600E-1,-6.079500318E-1,1.121400070E1,2.928000212E0,1.160588645E1
7.673487270E-1,-6.469500065E-1,1.129095078E1,2.965950251E0,1.169191920E1
7.693106140E-1,-6.079500318E-1,1.129095078E1,3.196050167E0,1.175031529E1
7.712724950E-1,-6.469500065E-1,1.129095078E1,3.118950129E0,1.173166500E1
7.732345210E-1,-7.999500632E-1,1.121400070E1,2.928000212E0,1.161752629E1
7.751965000E-1,-9.529500604E-1,1.117605019E1,2.773950100E0,1.155452339E1
7.771586840E-1,-1.183050036E0,1.113795090E1,2.659050226E0,1.151191147E1
7.791208070E-1,-1.452000022E0,1.106100082E1,2.506050110E0,1.143391142E1
7.810827870E-1,-1.605000019E0,1.098495007E1,2.430000067E0,1.136442050E1
7.830448090E-1,-1.834950089E0,1.079295063E1,2.467950106E0,1.122254886E1
7.850066130E-1,-2.065050125E0,1.071600056E1,2.467950106E0,1.118873888E1
7.869684580E-1,-2.332950115E0,1.060095024E1,2.506050110E0,1.114015662E1
7.889301240E-1,-2.563050032E0,1.044795036E1,2.467950106E0,1.103719484E1
7.908918420E-1,-2.793000221E0,1.029495049E1,2.353049994E0,1.092353880E1
7.928537090E-1,-3.061050177E0,1.025595093E1,2.238000154E0,1.093449598E1
7.948155330E-1,-3.175950050E0,1.014105034E1,1.969950080E0,1.080778719E1
7.967773980E-1,-3.445050240E0,1.002600002E1,1.740000129E0,1.074321405E1
7.987392400E-1,-3.675000191E0,9.988050461E0,1.510050058E0,1.074928042E1
8.007011320E-1,-3.865950108E0,9.910950661E0,1.356000066E0,1.072432979E1
8.026630090E-1,-4.057950020E0,9.873000145E0,1.203000069E0,1.074198768E1
8.046249850E-1,-4.249050140E0,9.873000145E0,8.959500194E-1,1.078579090E1
8.065869320E-1,-4.402950287E0,9.873000145E0,5.899500251E-1,1.082636338E1
8.085496520E-1,-4.518000126E0,9.873000145E0,3.600000143E-1,1.086361160E1
8.105121530E-1,-4.671000004E0,9.910950661E0,1.300500035E-1,1.095728511E1
8.124740680E-1,-4.824000359E0,9.949950218E0,5.295000225E-2,1.105781590E1
8.144361550E-1,-4.900950432E0,9.873000145E0,-1.759500057E-1,1.102390155E1
8.163980050E-1,-4.978050232E0,9.949950218E0,-2.140500098E-1,1.112781699E1
8.183599240E-1,-5.016000271E0,9.835050583E0,-9.810000658E-1,1.108380981E1
8.203209740E-1,-5.016000271E0,1.010295010E1,1.500000060E-2,1.127963139E1
8.222822910E-1,-5.092950344E0,1.021800041E1,7.050000429E-1,1.143864943E1
8.242442270E-1,-5.208000183E0,1.033305073E1,9.349500537E-1,1.160901955E1
8.262059810E-1,-5.169000149E0,1.025595093E1,8.200500607E-1,1.151414669E1
8.281680680E-1,-5.169000149E0,1.018005085E1,7.050000429E-1,1.143892578E1
8.301300580E-1,-5.131050110E0,1.014105034E1,6.660000086E-1,1.138473246E1
8.320921750E-1,-5.092950344E0,1.006500053E1,6.280500293E-1,1.129764691E1
8.340542690E-1,-5.016000271E0,9.988050461E0,7.050000429E-1,1.119903727E1
8.360162990E-1,-5.016000271E0,9.988050461E0,7.810500264E-1,1.120408184E1
8.379783480E-1,-4.978050232E0,9.949950218E0,8.959500194E-1,1.116177494E1
8.399403400E-1,-4.939050198E0,9.949950218E0,8.959500194E-1,1.114443595E1
8.419023480E-1,-4.900950432E0,9.835050583E0,9.730500579E-1,1.103151674E1
8.438645260E-1,-4.863000393E0,9.873000145E0,9.730500579E-1,1.104860765E1
8.458266540E-1,-4.747950077E0,9.796050072E0,9.730500579E-1,1.092943061E1
8.477884080E-1,-4.708950043E0,9.796050072E0,9.349500537E-1,1.090921350E1
8.497502710E-1,-4.633050442E0,9.720000267E0,1.011000037E0,1.081506739E1
8.517121140E-1,-4.555950165E0,9.720000267E0,1.050000072E0,1.078599032E1
8.536739630E-1,-4.402950287E0,9.643050194E0,1.011000037E0,1.064877971E1
8.556360570E-1,-4.288050175E0,9.565950394E0,9.730500579E-1,1.052813410E1
8.575980620E-1,-4.173000336E0,9.490050316E0,9.349500537E-1,1.040908826E1
8.595598370E-1,-4.096050262E0,9.451050758E0,8.959500194E-1,1.033937690E1
8.615216800E-1,-3.943050146E0,9.298050880E0,9.349500537E-1,1.014275733E1
8.634835710E-1,-3.865950108E0,9.183000565E0,8.580000401E-1,1.000046167E1
8.654454470E-1,-3.790050268E0,9.145050049E0,8.200500607E-1,9.933222213E0
8.674074420E-1,-3.712950230E0,9.067950249E0,8.200500607E-1,9.832914279E0
8.693693890E-1,-3.559950113E0,8.991000175E0,7.810500264E-1,9.701616778E0
8.713312190E-1,-3.483000278E0,8.877000809E0,7.050000429E-1,9.561875306E0
8.732930830E-1,-3.367950201E0,8.800050735E0,6.660000086E-1,9.446032898E0
8.752546110E-1,-3.253050089E0,8.685000420E0,5.509500504E-1,9.290592722E0
8.772162370E-1,-3.138000250E0,8.608050346E0,4.360500276E-1,9.172552314E0
8.791789620E-1,-3.175950050E0,8.493000031E0,2.070000172E-1,9.069760595E0
8.811413750E-1,-3.022950172E0,8.416950226E0,1.300500035E-1,8.944282635E0
8.831031700E-1,-2.946000099E0,8.416950226E0,2.449500114E-1,8.920984710E0
8.850651460E-1,-2.869950056E0,8.263050079E0,1.680000126E-1,8.748876153E0
8.870269250E-1,-2.793000221E0,8.263050079E0,1.500000060E-2,8.722331790E0
8.889887620E-1,-2.755050182E0,8.148000717E0,-9.900000691E-2,8.601745067E0
8.909506680E-1,-2.755050182E0,8.110050201E0,-9.900000691E-2,8.565805086E0
8.929125430E-1,-2.716050148E0,8.071949959E0,-1.369500011E-1,8.517749694E0
8.948747450E-1,-2.640000105E0,8.071949959E0,-2.140500098E-1,8.495398407E0
8.968368510E-1,-2.563050032E0,7.995000362E0,-2.910000086E-1,8.400829558E0
8.987990130E-1,-2.640000105E0,7.957050323E0,-2.520000041E-1,8.387356819E0
9.007611580E-1,-2.524950027E0,7.957050323E0,-2.910000086E-1,8.353125373E0
9.027228860E-1,-2.524950027E0,7.879950523E0,-3.289500177E-1,8.281135249E0
9.046847530E-1,-2.563050032E0,7.879950523E0,-3.289500177E-1,8.292831472E0
9.066465950E-1,-2.524950027E0,7.879950523E0,-2.910000086E-1,8.279714602E0
9.086084450E-1,-2.563050032E0,7.879950523E0,-2.910000086E-1,8.291412830E0
9.105702900E-1,-2.563050032E0,7.842000484E0,-2.520000041E-1,8.254071787E0
9.125321370E-1,-2.563050032E0,7.879950523E0,-2.910000086E-1,8.291412830E0
9.144941470E-1,-2.563050032E0,7.842000484E0,-2.520000041E-1,8.254071787E0
9.164561200E-1,-2.601000071E0,7.842000484E0,-2.520000041E-1,8.265934730E0
9.184179910E-1,-2.601000071E0,7.879950523E0,-2.140500098E-1,8.300881822E0
9.203798920E-1,-2.640000105E0,7.803000450E0,-1.369500011E-1,8.238638958E0
9.223419080E-1,-2.716050148E0,7.918050289E0,-1.369500011E-1,8.372048978E0
9.243038900E-1,-2.716050148E0,7.879950523E0,-1.369500011E-1,8.336024470E0
9.262657140E-1,-2.793000221E0,7.918050289E0,-6.105000153E-2,8.396433631E0
9.282275840E-1,-2.793000221E0,7.879950523E0,-9.900000691E-2,8.360877435E0
9.301892460E-1,-2.869950056E0,7.957050323E0,-1.759500057E-1,8.460627730E0
9.321509690E-1,-2.908050060E0,7.918050289E0,-2.140500098E-1,8.437896239E0
9.341127900E-1,-2.830950022E0,7.534950256E0,-4.819500148E-1,8.063623826E0
9.360745820E-1,-2.563050032E0,6.768000126E0,-2.551950216E0,7.673819197E0
9.380364560E-1,-2.677950144E0,7.612050533E0,-1.096050024E0,8.143467072E0
9.399982930E-1,-2.793000221E0,7.803000450E0,-2.205000073E-2,8.287831590E0
9.419591050E-1,-2.869950056E0,7.879950523E0,3.220500052E-1,8.392493657E0
9.439202180E-1,-2.985000134E0,8.071949959E0,5.899500251E-1,8.626392234E0
9.458821890E-1,-3.138000250E0,8.187000275E0,8.959500194E-1,8.813441184E0
9.478439090E-1,-3.214950085E0,8.340000153E0,8.580000401E-1,8.979291212E0
9.498057580E-1,-3.291000128E0,8.340000153E0,7.050000429E-1,8.993514855E0
9.517675820E-1,-3.445050240E0,8.340000153E0,4.750500321E-1,9.036019380E0
9.537305130E-1,-3.483000278E0,8.302050591E0,1.300500035E-1,9.004012880E0
9.556931200E-1,-3.483000278E0,8.263050079E0,-1.369500011E-1,8.968168311E0
9.576547920E-1,-3.483000278E0,8.224950790E0,-2.140500098E-1,8.934591420E0
9.596167380E-1,-3.483000278E0,8.187000275E0,-2.140500098E-1,8.899667513E0
9.615787600E-1,-3.483000278E0,8.110050201E0,-1.759500057E-1,8.828089466E0
9.635407500E-1,-3.445050240E0,8.071949959E0,-1.369500011E-1,8.777442828E0
9.655025720E-1,-3.406050205E0,8.071949959E0,-2.205000073E-2,8.761166608E0
9.674644440E-1,-3.291000128E0,8.071949959E0,-2.205000073E-2,8.717083468E0
9.694261510E-1,-3.214950085E0,8.032950401E0,5.295000225E-2,8.652571866E0
9.713879060E-1,-3.253050089E0,8.032950401E0,5.295000225E-2,8.666800490E0
9.733500870E-1,-3.214950085E0,7.957050323E0,1.500000060E-2,8.582003198E0
9.753121390E-1,-3.138000250E0,7.995000362E0,5.295000225E-2,8.588939403E0
9.772737710E-1,-3.061050177E0,7.995000362E0,-2.205000073E-2,8.560989731E0
9.792355260E-1,-3.061050177E0,7.918050289E0,-2.205000073E-2,8.489171618E0
9.811970720E-1,-2.946000099E0,7.957050323E0,1.500000060E-2,8.484915523E0
9.831586800E-1,-2.946000099E0,7.957050323E0,1.500000060E-2,8.484915523E0
9.851205110E-1,-2.830950022E0,7.957050323E0,-9.900000691E-2,8.446225718E0
9.870822830E-1,-2.755050182E0,7.879950523E0,-9.900000691E-2,8.348276634E0
9.890440080E-1,-2.716050148E0,7.879950523E0,-9.900000691E-2,8.335487368E0
9.910057470E-1,-2.640000105E0,7.879950523E0,-9.900000691E-2,8.311018097E0
9.929677460E-1,-2.524950027E0,7.803000450E0,-1.759500057E-1,8.203240035E0
9.949296680E-1,-2.448000193E0,7.803000450E0,-9.900000691E-2,8.178589241E0
9.968913810E-1,-2.332950115E0,7.765050411E0,-1.369500011E-1,8.109094859E0
9.988531460E-1,-2.218050003E0,7.650000572E0,-1.759500057E-1,7.967007781E0
1.000815320E0,-2.179949999E0,7.573050499E0,-1.759500057E-1,7.882527149E0
1.002777374E0,-2.140950203E0,7.497000217E0,-2.140500098E-1,7.799647264E0
1.004739231E0,-2.065050125E0,7.420050144E0,-2.140500098E-1,7.705023917E0
1.006701146E0,-1.987950087E0,7.420050144E0,-2.140500098E-1,7.684719064E0
1.008663178E0,-1.950000048E0,7.342950344E0,-1.759500057E-1,7.599498559E0
1.010625163E0,-2.026050091E0,7.305000305E0,-2.910000086E-1,7.586342296E0
1.012587166E0,-1.950000048E0,7.267050266E0,-2.140500098E-1,7.527173252E0
1.014549163E0,-1.873050094E0,7.228050232E0,-1.369500011E-1,7.468050757E0
1.016510939E0,-1.950000048E0,7.152000427E0,-9.900000691E-2,7.413731267E0
1.018472780E0,-1.950000048E0,7.189950466E0,-1.369500011E-1,7.450949147E0
1.020434842E0,-1.987950087E0,7.228050232E0,-1.759500057E-1,7.498507459E0
1.022396846E0,-1.987950087E0,7.152000427E0,-1.759500057E-1,7.425228216E0
1.024358846E0,-2.026050091E0,7.152000427E0,-2.140500098E-1,7.436518439E0
1.026320848E0,-2.065050125E0,7.189950466E0,-2.910000086E-1,7.486287513E0
1.028282802E0,-2.065050125E0,7.189950466E0,-3.289500177E-1,7.487858695E0
1.030244771E0,-2.103000164E0,7.152000427E0,-3.670500219E-1,7.463809049E0
1.032206626E0,-2.140950203E0,7.113000393E0,-4.060500264E-1,7.439309039E0
1.034168525E0,-2.179949999E0,7.152000427E0,-2.910000086E-1,7.482511150E0
1.036130362E0,-2.179949999E0,7.113000393E0,-2.520000041E-1,7.443820295E0
1.038092218E0,-2.103000164E0,7.113000393E0,-2.910000086E-1,7.423076538E0
1.040054062E0,-2.103000164E0,7.075050354E0,-3.289500177E-1,7.388312075E0
1.042015910E0,-2.065050125E0,7.113000393E0,-4.060500264E-1,7.417822001E0
1.043977761E0,-2.065050125E0,7.075050354E0,-5.209500194E-1,7.388650652E0
1.045939607E0,-2.065050125E0,7.075050354E0,-5.590500236E-1,7.391434669E0
1.047901453E0,-2.140950203E0,7.036950111E0,-7.510500550E-1,7.393673703E0
1.049863299E0,-2.218050003E0,7.113000393E0,-9.040500522E-1,7.505453144E0
1.051825100E0,-2.256000042E0,7.075050354E0,-9.810000658E-1,7.490543026E0
1.053786915E0,-2.332950115E0,7.152000427E0,-1.018950105E0,7.591575967E0
1.055748726E0,-2.410050154E0,7.113000393E0,-1.134000063E0,7.595332282E0
1.057710566E0,-2.448000193E0,7.075050354E0,-1.249050021E0,7.590070382E0
1.059672458E0,-2.524950027E0,7.152000427E0,-1.287000060E0,7.693039185E0
1.061634335E0,-2.563050032E0,7.152000427E0,-1.441050053E0,7.732849464E0
1.063595817E0,-2.640000105E0,7.189950466E0,-1.516950130E0,7.808080811E0
1.065557414E0,-2.755050182E0,7.267050266E0,-1.632000089E0,7.941268499E0
1.067519432E0,-2.830950022E0,7.228050232E0,-1.708950043E0,7.948553229E0
1.069481330E0,-2.908050060E0,7.342950344E0,-1.861950040E0,8.114341185E0
1.071442853E0,-2.985000134E0,7.381950378E0,-1.900950074E0,8.186392879E0
1.073404486E0,-3.061050177E0,7.458000183E0,-1.939050078E0,8.291665099E0
1.075366503E0,-3.100050211E0,7.497000217E0,-2.014950037E0,8.359147518E0
1.077328407E0,-3.138000250E0,7.612050533E0,-1.977000117E0,8.467519610E0
1.079290085E0,-3.291000128E0,7.687950134E0,-1.977000117E0,8.593240865E0
1.081251847E0,-3.330000162E0,7.765050411E0,-2.014950037E0,8.685904249E0
1.083213706E0,-3.406050205E0,7.842000484E0,-1.977000117E0,8.775344954E0
1.085175537E0,-3.445050240E0,7.957050323E0,-1.939050078E0,8.884983748E0
1.087137342E0,-3.520950079E0,7.957050323E0,-1.939050078E0,8.914687573E0
1.089099155E0,-3.598050117E0,8.071949959E0,-1.824000120E0,9.023819437E0
1.091061030E0,-3.636000156E0,8.071949959E0,-1.708950043E0,9.016506171E0
1.093022869E0,-3.712950230E0,8.263050079E0,-1.555950046E0,9.191570952E0
1.094984716E0,-3.828000069E0,8.340000153E0,-1.441050053E0,9.289015681E0
1.096946561E0,-3.865950108E0,8.416950226E0,-1.363950014E0,9.362210261E0
1.098908274E0,-4.018949986E0,8.569950104E0,-1.249050021E0,9.547571928E0
1.100870025E0,-4.173000336E0,8.685000420E0,-1.096050024E0,9.697653827E0
1.102831856E0,-4.249050140E0,8.800050735E0,-1.018950105E0,9.825150348E0
1.104793653E0,-4.402950287E0,8.877000809E0,-9.040500522E-1,9.950096536E0
1.106755553E0,-4.441050053E0,8.953050613E0,-7.510500550E-1,1.002218125E1
1.108717422E0,-4.555950165E0,8.991000175E0,-6.360000372E-1,1.009946841E1
1.110679085E0,-4.633050442E0,8.991000175E0,-5.209500194E-1,1.012791338E1
1.112640809E0,-4.708950043E0,9.067950249E0,-2.910000086E-1,1.022186936E1
1.114602615E0,-4.863000393E0,9.145050049E0,-1.759500057E-1,1.035913469E1
1.116564407E0,-4.863000393E0,9.145050049E0,-9.900000691E-2,1.035811345E1
1.118526084E0,-4.900950432E0,9.145050049E0,1.500000060E-2,1.037552314E1
1.120487794E0,-4.939050198E0,9.106050491E0,1.500000060E-2,1.035927591E1
1.122449843E0,-5.016000271E0,9.183000565E0,5.295000225E-2,1.046377378E1
1.124411792E0,-4.978050232E0,9.183000565E0,9.195000678E-2,1.044590534E1
1.126373948E0,-5.053950310E0,9.183000565E0,1.500000060E-2,1.048189573E1
1.128336067E0,-5.016000271E0,9.183000565E0,-1.369500011E-1,1.046453599E1
1.130297912E0,-4.978050232E0,9.298050880E0,-1.759500057E-1,1.054825543E1
1.132259838E0,-4.939050198E0,9.259950638E0,-2.140500098E-1,1.049698624E1
1.134221625E0,-4.900950432E0,9.336000443E0,-3.289500177E-1,1.054933304E1
1.136183453E0,-4.863000393E0,9.412950516E0,-4.060500264E-1,1.060270187E1
1.138145514E0,-4.824000359E0,9.451050758E0,-4.440000355E-1,1.062028606E1
1.140107484E0,-4.786050320E0,9.490050316E0,-4.819500148E-1,1.063953046E1
1.142069310E0,-4.747950077E0,9.604950905E0,-5.209500194E-1,1.072704529E1
1.144031179E0,-4.747950077E0,9.643050194E0,-4.440000355E-1,1.075772202E1
1.145993245E0,-4.747950077E0,9.720000267E0,-4.819500148E-1,1.082837527E1
1.147955254E0,-4.671000004E0,9.757950783E0,-4.440000355E-1,1.082741800E1
1.149917068E0,-4.594050407E0,9.835050583E0,-4.440000355E-1,1.086419142E1
1.151878943E0,-4.555950165E0,9.873000145E0,-4.060500264E-1,1.088107028E1
1.153840559E0,-4.518000126E0,9.949950218E0,-3.670500219E-1,1.093382642E1
1.155802251E0,-4.441050053E0,1.002600002E1,-4.060500264E-1,1.097307973E1
1.157763943E0,-4.326000214E0,1.006500053E1,-4.440000355E-1,1.096428975E1
1.159725635E0,-4.326000214E0,1.010295010E1,-4.440000355E-1,1.099913699E1
1.161687323E0,-4.173000336E0,1.014105034E1,-5.590500236E-1,1.098031742E1
1.163649015E0,-4.173000336E0,1.021800041E1,-5.970000029E-1,1.105341003E1
1.165610528E0,-4.134000301E0,1.033305073E1,-6.739500165E-1,1.114971320E1
1.167572093E0,-4.096050262E0,1.041000080E1,-6.739500165E-1,1.120713849E1
1.169533806E0,-4.057950020E0,1.052505016E1,-6.360000372E-1,1.129814743E1
1.171495476E0,-4.018949986E0,1.063995075E1,-5.590500236E-1,1.138740743E1
1.173457352E0,-4.057950020E0,1.079295063E1,-2.910000086E-1,1.153427166E1
1.175419168E0,-4.018949986E0,1.083105087E1,-2.520000041E-1,1.155539381E1
1.177380885E0,-4.057950020E0,1.094595051E1,-1.369500011E-1,1.167473966E1
1.179342631E0,-4.134000301E0,1.102305031E1,-2.205000073E-2,1.177276870E1
1.181304628E0,-4.134000301E0,1.110000038E1,9.195000678E-2,1.184518559E1
1.183266552E0,-4.249050140E0,1.113795090E1,2.070000172E-1,1.192271891E1
1.185227494E0,-4.288050175E0,1.125300026E1,3.600000143E-1,1.204769643E1
1.187188717E0,-4.363950253E0,1.136805058E1,3.979500234E-1,1.218339033E1
1.189150714E0,-4.441050053E0,1.155900097E1,6.280500293E-1,1.239870460E1
1.191112485E0,-4.518000126E0,1.163595009E1,7.429500222E-1,1.250438460E1
1.193074659E0,-4.671000004E0,1.175100040E1,8.200500607E-1,1.267188753E1
1.195036715E0,-4.747950077E0,1.190400028E1,9.349500537E-1,1.284999550E1
1.196998692E0,-4.900950432E0,1.201905060E1,1.011000037E0,1.301917868E1
1.198960703E0,-5.053950310E0,1.209600067E1,1.087950110E0,1.315443961E1
1.200922745E0,-5.053950310E0,1.221105099E1,1.050000072E0,1.325725010E1
1.202884778E0,-5.169000149E0,1.224900055E1,1.011000037E0,1.333336784E1
1.204846908E0,-5.245950222E0,1.224900055E1,9.730500579E-1,1.336057015E1
1.206809009E0,-5.284050465E0,1.224900055E1,8.959500194E-1,1.337018811E1
1.208770881E0,-5.284050465E0,1.228800011E1,8.200500607E-1,1.340106779E1
1.210732804E0,-5.323050022E0,1.228800011E1,7.429500222E-1,1.341200145E1
1.212694816E0,-5.323050022E0,1.221105099E1,6.660000086E-1,1.333747292E1
1.214656802E0,-5.323050022E0,1.224900055E1,5.509500504E-1,1.336699001E1
1.216618760E0,-5.245950222E0,1.217295074E1,4.360500276E-1,1.326238528E1
1.218580727E0,-5.208000183E0,1.209600067E1,3.220500052E-1,1.317346630E1
1.220542777E0,-5.208000183E0,1.201905060E1,2.830500007E-1,1.310194491E1
1.222504802E0,-5.245950222E0,1.198095036E1,2.449500114E-1,1.308140534E1
1.224466439E0,-5.245950222E0,1.190400028E1,1.680000126E-1,1.300974406E1
1.226428189E0,-5.208000183E0,1.182795048E1,1.680000126E-1,1.292485599E1
1.228390050E0,-5.208000183E0,1.182795048E1,1.300500035E-1,1.292441842E1
1.230351879E0,-5.208000183E0,1.178895092E1,1.300500035E-1,1.288873705E1
1.232313518E0,-5.169000149E0,1.175100040E1,1.300500035E-1,1.283828205E1
1.234275203E0,-5.053950310E0,1.171305084E1,1.300500035E-1,1.275754235E1
1.236237121E0,-5.053950310E0,1.167405033E1,2.070000172E-1,1.272276361E1
1.238198970E0,-5.053950310E0,1.159800053E1,2.449500114E-1,1.265369632E1
1.240160637E0,-4.786050320E0,1.087005043E1,-1.594050050E0,1.198354161E1
1.242122357E0,-4.518000126E0,1.136805058E1,-6.105000153E-2,1.223309552E1
1.244083883E0,-4.633050442E0,1.129095078E1,9.730500579E-1,1.224326559E1
1.246045453E0,-4.555950165E0,1.129095078E1,4.750500321E-1,1.218474144E1
1.248007345E0,-4.594050407E0,1.136805058E1,1.548000097E0,1.235856696E1
1.249969143E0,-4.555950165E0,1.140600014E1,1.510050058E0,1.237472312E1
1.251931133E0,-4.441050053E0,1.129095078E1,1.356000066E0,1.220849013E1
1.253893066E0,-4.288050175E0,1.117605019E1,1.050000072E0,1.201640430E1
1.255854948E0,-4.134000301E0,1.117605019E1,8.200500607E-1,1.194430987E1
1.257816842E0,-3.981000185E0,1.113795090E1,5.899500251E-1,1.184273422E1
1.259778815E0,-3.828000069E0,1.121400070E1,6.280500293E-1,1.186599524E1
1.261740764E0,-3.675000191E0,1.125300026E1,7.810500264E-1,1.186362847E1
1.263702639E0,-3.483000278E0,1.129095078E1,7.810500264E-1,1.184174394E1
1.265664535E0,-3.291000128E0,1.129095078E1,8.580000401E-1,1.179204882E1
1.267626547E0,-3.100050211E0,1.129095078E1,9.349500537E-1,1.174606369E1
1.269588528E0,-2.985000134E0,1.132905006E1,1.050000072E0,1.176265707E1
1.271550487E0,-2.793000221E0,1.129095078E1,1.126049995E0,1.168564967E1
1.273512453E0,-2.601000071E0,1.121400070E1,1.240950108E0,1.157838375E1
1.275473963E0,-2.410050154E0,1.110000038E1,1.395000100E0,1.144396677E1
1.277435607E0,-2.218050003E0,1.098495007E1,1.510050058E0,1.130792310E1
1.279397422E0,-2.065050125E0,1.090800095E1,1.548000097E0,1.120915791E1
1.281359201E0,-1.834950089E0,1.075500011E1,1.663050056E0,1.103643080E1
1.283321104E0,-1.642950058E0,1.052505016E1,1.816050053E0,1.080620209E1
1.285282970E0,-1.413000107E0,1.041000080E1,1.855050087E0,1.066798466E1
1.287244814E0,-1.222050071E0,1.018005085E1,1.969950080E0,1.044066784E1
1.289206665E0,-9.529500604E-1,9.988050461E0,2.008050203E0,1.023237663E1
1.291168436E0,-8.380500674E-1,9.796050072E0,2.085000038E0,1.005048009E1
1.293130251E0,-5.700000525E-1,9.604950905E0,2.200050116E0,9.870167296E0
1.295092282E0,-4.549500346E-1,9.375000000E0,2.200050116E0,9.640426601E0
1.297054249E0,-2.629500031E-1,9.183000565E0,2.314950228E0,9.473945146E0
1.299016120E0,-1.099500060E-1,8.991000175E0,2.391000032E0,9.304141783E0
1.300978020E0,4.200000316E-2,8.800050735E0,2.391000032E0,9.119185167E0
1.302939827E0,1.189500093E-1,8.532000542E0,2.430000067E0,8.872095732E0
1.304901651E0,1.960500032E-1,8.340000153E0,2.275950193E0,8.647195351E0
1.306863365E0,3.109500110E-1,8.187000275E0,2.161050081E0,8.473122262E0
1.308825112E0,4.639500082E-1,7.995000362E0,2.275950193E0,8.325576838E0
1.310787650E0,6.169500351E-1,7.842000484E0,2.275950193E0,8.188867335E0
1.312749956E0,6.169500351E-1,7.687950134E0,2.238000154E0,8.030806267E0
1.314711969E0,6.550500393E-1,7.534950256E0,2.161050081E0,7.866047506E0
1.316674054E0,6.550500393E-1,7.534950256E0,2.122950077E0,7.855665659E0
1.318634778E0,5.410500169E-1,7.420050144E0,2.122950077E0,7.736717411E0
1.320595901E0,5.020500422E-1,7.381950378E0,2.161050081E0,7.708137459E0
1.322557644E0,3.490500152E-1,7.381950378E0,2.122950077E0,7.689079550E0
1.324519206E0,3.109500110E-1,7.342950344E0,2.085000038E0,7.639557240E0
1.326481082E0,2.340000123E-1,7.342950344E0,2.008050203E0,7.616163167E0
1.328442880E0,2.340000123E-1,7.342950344E0,1.893000126E0,7.586641236E0
1.330404915E0,1.570500135E-1,7.381950378E0,1.816050053E0,7.603676340E0
1.332366880E0,1.189500093E-1,7.342950344E0,1.740000129E0,7.547229247E0
1.334328707E0,1.189500093E-1,7.342950344E0,1.624950051E0,7.521537843E0
1.336290574E0,4.200000316E-2,7.497000217E0,1.624950051E0,7.671195404E0
1.338252596E0,-7.200000435E-2,7.497000217E0,1.585950017E0,7.663252163E0
1.340214572E0,-1.099500060E-1,7.534950256E0,1.585950017E0,7.700831243E0
1.342176397E0,-2.250000089E-1,7.650000572E0,1.510050058E0,7.800857962E0
1.344138266E0,-3.780000210E-1,7.650000572E0,1.548000097E0,7.814198428E0
1.346099928E0,-4.170000255E-1,7.726950169E0,1.510050058E0,7.884154939E0
1.348061651E0,-4.930500090E-1,7.765050411E0,1.548000097E0,7.933184134E0
1.350023536E0,-5.700000525E-1,7.842000484E0,1.624950051E0,8.028843897E0
1.351985360E0,-6.469500065E-1,7.842000484E0,1.624950051E0,8.034673520E0
1.353947076E0,-7.230000496E-1,7.995000362E0,1.701000094E0,8.205861392E0
1.355908824E0,-7.999500632E-1,8.032950401E0,1.701000094E0,8.249946277E0
1.357870506E0,-8.380500674E-1,8.110050201E0,1.777950048E0,8.344839637E0
1.359832208E0,-8.770500422E-1,8.187000275E0,1.740000129E0,8.415687181E0
1.361793899E0,-9.529500604E-1,8.224950790E0,1.740000129E0,8.460823232E0
1.363755593E0,-1.068000078E0,8.263050079E0,1.740000129E0,8.511534599E0
1.365717285E0,-1.030050039E0,8.263050079E0,1.740000129E0,8.506856067E0
1.367678978E0,-1.144950032E0,8.416950226E0,1.740000129E0,8.670845526E0
1.369640625E0,-1.183050036E0,8.416950226E0,1.663050056E0,8.660854114E0
1.371602285E0,-1.297950029E0,8.455050468E0,1.624950051E0,8.707066979E0
1.373564162E0,-1.413000107E0,8.532000542E0,1.548000097E0,8.785664849E0
1.375525976E0,-1.528050065E0,8.647050858E0,1.548000097E0,8.916430330E0
1.377487648E0,-1.605000019E0,8.722949982E0,1.510050058E0,8.997006870E0
1.379449362E0,-1.681950092E0,8.761950493E0,1.510050058E0,9.048811178E0
1.381411816E0,-1.834950089E0,8.838000298E0,1.471050024E0,9.145560631E0
1.383374053E0,-1.987950087E0,8.877000809E0,1.471050024E0,9.215046233E0
1.385335788E0,-1.987950087E0,8.914950371E0,1.471050024E0,9.251609256E0
1.387297670E0,-1.987950087E0,8.914950371E0,1.471050024E0,9.251609256E0
1.389259374E0,-2.065050125E0,8.953050613E0,1.471050024E0,9.305134898E0
1.391221131E0,-2.065050125E0,8.991000175E0,1.471050024E0,9.341654262E0
1.393182992E0,-2.065050125E0,8.991000175E0,1.471050024E0,9.341654262E0
1.395144822E0,-2.065050125E0,8.991000175E0,1.432950020E0,9.335730391E0
1.397106612E0,-2.026050091E0,8.991000175E0,1.432950020E0,9.327181186E0
1.399068424E0,-2.026050091E0,8.953050613E0,1.432950020E0,9.290604933E0
1.401030320E0,-1.987950087E0,8.991000175E0,1.432950020E0,9.318979314E0
1.402992191E0,-1.911000133E0,8.914950371E0,1.432950020E0,9.229388245E0
1.404953674E0,-1.911000133E0,8.914950371E0,1.471050024E0,9.235380327E0
1.406915270E0,-1.911000133E0,8.877000809E0,1.432950020E0,9.192736841E0
1.408876734E0,-1.873050094E0,8.877000809E0,1.432950020E0,9.184922742E0
1.410838251E0,-1.795950055E0,8.800050735E0,1.356000066E0,9.083229917E0
1.412799837E0,-1.758000135E0,8.722949982E0,1.356000066E0,9.001064217E0
1.414761403E0,-1.605000019E0,8.685000420E0,1.279950023E0,8.924322350E0
1.416723117E0,-1.642950058E0,8.608050346E0,1.240950108E0,8.850862830E0
1.418684788E0,-1.528050065E0,8.608050346E0,1.203000069E0,8.825002942E0
1.420646590E0,-1.567050099E0,8.532000542E0,1.165050030E0,8.752600804E0
1.422608374E0,-1.452000022E0,8.532000542E0,1.165050030E0,8.732736048E0
1.424570052E0,-1.489950061E0,8.493000031E0,1.126049995E0,8.695917967E0
1.426531761E0,-1.452000022E0,8.455050468E0,1.087950110E0,8.647532476E0
1.428493494E0,-1.413000107E0,8.416950226E0,1.050000072E0,8.599076727E0
1.430455220E0,-1.452000022E0,8.455050468E0,1.011000037E0,8.638188674E0
1.432416682E0,-1.452000022E0,8.493000031E0,9.730500579E-1,8.670996482E0
1.434378222E0,-1.452000022E0,8.455050468E0,1.011000037E0,8.638188674E0
1.436340120E0,-1.452000022E0,8.493000031E0,8.580000401E-1,8.658840433E0
1.438301913E0,-1.528050065E0,8.532000542E0,8.580000401E-1,8.710116780E0
1.440263589E0,-1.489950061E0,8.532000542E0,8.580000401E-1,8.703513572E0
1.442225299E0,-1.567050099E0,8.569950104E0,8.580000401E-1,8.754190703E0
1.444187183E0,-1.528050065E0,8.569950104E0,8.580000401E-1,8.747293630E0
1.446149005E0,-1.567050099E0,8.532000542E0,8.580000401E-1,8.717043267E0
1.448110316E0,-1.567050099E0,8.455050468E0,8.200500607E-1,8.638055715E0
1.450071776E0,-1.642950058E0,8.493000031E0,7.810500264E-1,8.685641804E0
1.452033552E0,-1.642950058E0,8.455050468E0,8.200500607E-1,8.652146868E0
1.453995235E0,-1.758000135E0,8.416950226E0,8.959500194E-1,8.645134008E0
1.455956750E0,-1.834950089E0,8.455050468E0,8.200500607E-1,8.690650284E0
1.457918314E0,-1.950000048E0,8.416950226E0,7.810500264E-1,8.675113281E0
1.459879982E0,-1.987950087E0,8.340000153E0,8.200500607E-1,8.612782953E0
1.461841620E0,-1.987950087E0,8.302050591E0,8.580000401E-1,8.579752539E0
1.463803502E0,-2.026050091E0,8.263050079E0,9.730500579E-1,8.563276359E0
1.465765312E0,-1.950000048E0,8.187000275E0,9.349500537E-1,8.467798137E0
1.467727031E0,-1.987950087E0,8.148000717E0,9.349500537E-1,8.438956857E0
1.469688776E0,-2.103000164E0,8.071949959E0,1.050000072E0,8.407228198E0
1.471650234E0,-2.026050091E0,7.995000362E0,1.126049995E0,8.324235602E0
1.473611776E0,-1.987950087E0,7.918050289E0,1.165050030E0,8.246502744E0
1.475573314E0,-2.065050125E0,7.879950523E0,1.087950110E0,8.218375004E0
1.477534853E0,-2.140950203E0,7.879950523E0,1.050000072E0,8.232848120E0
1.479496405E0,-2.140950203E0,7.842000484E0,1.126049995E0,8.206620983E0
1.481457944E0,-2.218050003E0,7.918050289E0,1.126049995E0,8.299593652E0
1.483419302E0,-2.371050119E0,7.842000484E0,1.126049995E0,8.269633538E0
1.485380713E0,-2.448000193E0,7.957050323E0,1.126049995E0,8.400913247E0
1.487342272E0,-2.563050032E0,7.995000362E0,1.126049995E0,8.470964812E0
1.489303788E0,-2.677950144E0,8.071949959E0,1.165050030E0,8.584004583E0
1.491265570E0,-2.755050182E0,8.148000717E0,1.087950110E0,8.669708913E0
1.493227264E0,-2.793000221E0,8.148000717E0,1.087950110E0,8.681843201E0
1.495189091E0,-2.830950022E0,8.148000717E0,1.087950110E0,8.694126129E0
1.497150879E0,-2.908050060E0,8.224950790E0,1.165050030E0,8.801358545E0
1.499112421E0,-2.908050060E0,8.302050591E0,1.203000069E0,8.878513858E0
1.501074035E0,-2.946000099E0,8.263050079E0,1.279950023E0,8.865392561E0
1.503035680E0,-2.869950056E0,8.340000153E0,1.395000100E0,8.929627156E0
1.504997326E0,-2.908050060E0,8.302050591E0,1.432950020E0,8.912583515E0
1.506958892E0,-2.946000099E0,8.340000153E0,1.471050024E0,8.966521472E0
1.508920482E0,-2.908050060E0,8.377950668E0,1.510050058E0,8.995947073E0
1.510882146E0,-2.908050060E0,8.455050468E0,1.510050058E0,9.067793820E0
1.512843788E0,-2.908050060E0,8.455050468E0,1.510050058E0,9.067793820E0
1.514805326E0,-2.908050060E0,8.455050468E0,1.510050058E0,9.067793820E0
1.516766915E0,-2.869950056E0,8.493000031E0,1.548000097E0,9.097470371E0
1.518728624E0,-2.869950056E0,8.532000542E0,1.548000097E0,9.133890237E0
1.520690298E0,-2.869950056E0,8.493000031E0,1.585950017E0,9.104004630E0
1.522652128E0,-2.869950056E0,8.608050346E0,1.585950017E0,9.211426684E0
1.524613913E0,-2.908050060E0,8.608050346E0,1.663050056E0,9.236937880E0
1.526575460E0,-2.908050060E0,8.647050858E0,1.663050056E0,9.273293869E0
1.528537074E0,-2.946000099E0,8.647050858E0,1.701000094E0,9.292136807E0
1.530498778E0,-2.946000099E0,8.722949982E0,1.740000129E0,9.369971900E0
1.532460456E0,-2.946000099E0,8.722949982E0,1.701000094E0,9.362808034E0
1.534422151E0,-2.946000099E0,8.761950493E0,1.740000129E0,9.406290101E0
1.536383841E0,-2.908050060E0,8.800050735E0,1.777950048E0,9.437094599E0
1.538345505E0,-2.985000134E0,8.761950493E0,1.701000094E0,9.411450662E0
1.540307197E0,-2.908050060E0,8.722949982E0,1.624950051E0,9.337401898E0
1.542268485E0,-2.869950056E0,8.722949982E0,1.701000094E0,9.339157940E0
1.544229891E0,-2.793000221E0,8.685000420E0,1.585950017E0,9.259876888E0
1.546191451E0,-2.793000221E0,8.647050858E0,1.585950017E0,9.224292722E0
1.548152966E0,-2.830950022E0,8.647050858E0,1.548000097E0,9.229413354E0
1.550114574E0,-2.830950022E0,8.685000420E0,1.548000097E0,9.264977853E0
1.552076140E0,-2.869950056E0,8.685000420E0,1.548000097E0,9.276968789E0
1.554037809E0,-2.830950022E0,8.722949982E0,1.510050058E0,9.294320071E0
1.555999447E0,-2.830950022E0,8.800050735E0,1.548000097E0,9.372911782E0
1.557961015E0,-2.830950022E0,8.800050735E0,1.510050058E0,9.366718857E0
1.559922603E0,-2.869950056E0,8.800050735E0,1.471050024E0,9.372379337E0
1.561884459E0,-2.830950022E0,8.800050735E0,1.471050024E0,9.360510624E0
1.563846260E0,-2.755050182E0,8.800050735E0,1.471050024E0,9.337836078E0
1.565807755E0,-2.716050148E0,8.800050735E0,1.471050024E0,9.326403890E0
1.567769339E0,-2.677950144E0,8.800050735E0,1.432950020E0,9.309439064E0
1.569731048E0,-2.640000105E0,8.914950371E0,1.471050024E0,9.413284700E0
1.571692721E0,-2.677950144E0,9.030000687E0,1.471050024E0,9.532907088E0
1.573654412E0,-2.716050148E0,9.145050049E0,1.395000100E0,9.641311844E0
1.575616101E0,-2.677950144E0,9.220950127E0,1.356000066E0,9.697219931E0
1.577577750E0,-2.793000221E0,9.259950638E0,1.279950023E0,9.756321444E0
1.579539411E0,-2.793000221E0,9.220950127E0,1.240950108E0,9.714253890E0
1.581500748E0,-2.793000221E0,9.183000565E0,1.165050030E0,9.668799883E0
1.583462180E0,-2.716050148E0,9.183000565E0,1.087950110E0,9.637845362E0
1.585423931E0,-2.755050182E0,9.145050049E0,1.087950110E0,9.612797582E0
1.587385577E0,-2.793000221E0,9.030000687E0,9.730500579E-1,9.502030786E0
1.589347098E0,-2.830950022E0,8.953050613E0,8.959500194E-1,9.432609382E0
1.591308656E0,-2.830950022E0,8.877000809E0,8.580000401E-1,9.356900419E0
1.593270235E0,-2.869950056E0,8.761950493E0,7.810500264E-1,9.253022690E0
1.595231808E0,-2.869950056E0,8.647050858E0,8.200500607E-1,9.147709219E0
1.597193380E0,-2.946000099E0,8.569950104E0,8.200500607E-1,9.099200155E0
1.599154925E0,-2.946000099E0,8.532000542E0,8.580000401E-1,9.066979315E0
1.601116642E0,-3.022950172E0,8.532000542E0,8.959500194E-1,9.095932466E0
1.603078308E0,-3.061050177E0,8.493000031E0,9.349500537E-1,9.076078961E0
1.605040320E0,-3.175950050E0,8.455050468E0,9.349500537E-1,9.080124930E0
1.607002231E0,-3.214950085E0,8.377950668E0,8.959500194E-1,9.018241951E0
1.608964246E0,-3.253050089E0,8.340000153E0,9.349500537E-1,9.000670477E0
1.610926231E0,-3.330000162E0,8.302050591E0,9.349500537E-1,8.993724295E0
1.612888099E0,-3.291000128E0,8.340000153E0,9.349500537E-1,9.014455945E0
1.614850002E0,-3.330000162E0,8.340000153E0,9.349500537E-1,9.028767093E0
1.616811972E0,-3.291000128E0,8.302050591E0,9.730500579E-1,8.983404269E0
1.618773923E0,-3.367950201E0,8.340000153E0,9.730500579E-1,9.046851249E0
1.620735606E0,-3.330000162E0,8.377950668E0,1.011000037E0,9.071994244E0
1.622697344E0,-3.291000128E0,8.377950668E0,1.087950110E0,9.066662820E0
1.624659028E0,-3.291000128E0,8.377950668E0,1.011000037E0,9.057751394E0
1.626620728E0,-3.330000162E0,8.340000153E0,9.349500537E-1,9.028767093E0
1.628582644E0,-3.330000162E0,8.302050591E0,9.349500537E-1,8.993724295E0
1.630544496E0,-3.330000162E0,8.377950668E0,8.580000401E-1,9.056220103E0
1.632506457E0,-3.406050205E0,8.455050468E0,7.810500264E-1,9.148720980E0
1.634468400E0,-3.445050240E0,8.416950226E0,7.810500264E-1,9.128168568E0
1.636430050E0,-3.406050205E0,8.455050468E0,6.280500293E-1,9.136930735E0
1.638391786E0,-3.367950201E0,8.493000031E0,6.660000086E-1,9.160660134E0
1.640353650E0,-3.445050240E0,8.493000031E0,5.509500504E-1,9.181664698E0
1.642315477E0,-3.445050240E0,8.493000031E0,5.509500504E-1,9.181664698E0
1.644277359E0,-3.367950201E0,8.493000031E0,5.130000114E-1,9.150809095E0
1.646239202E0,-3.406050205E0,8.532000542E0,5.509500504E-1,9.203247101E0
1.648201229E0,-3.367950201E0,8.493000031E0,5.899500251E-1,9.155445325E0
1.650163202E0,-3.406050205E0,8.532000542E0,6.280500293E-1,9.208184299E0
1.652124847E0,-3.330000162E0,8.532000542E0,6.660000086E-1,9.183000073E0
1.654086589E0,-3.330000162E0,8.532000542E0,7.429500222E-1,9.188901407E0
1.656048438E0,-3.291000128E0,8.569950104E0,8.200500607E-1,9.216681004E0
1.658010265E0,-3.214950085E0,8.569950104E0,8.959500194E-1,9.196883998E0
1.659971980E0,-3.175950050E0,8.608050346E0,9.349500537E-1,9.222761034E0
1.661933728E0,-3.175950050E0,8.569950104E0,9.349500537E-1,9.187210409E0
1.663895905E0,-3.138000250E0,8.532000542E0,9.730500579E-1,9.142696825E0
1.665857957E0,-3.100050211E0,8.569950104E0,1.011000037E0,9.169322612E0
1.667819994E0,-3.138000250E0,8.493000031E0,1.050000072E0,9.114855744E0
1.669782036E0,-3.100050211E0,8.532000542E0,1.050000072E0,9.138262674E0
1.671743849E0,-3.061050177E0,8.493000031E0,1.050000072E0,9.088651047E0
1.673705729E0,-3.100050211E0,8.455050468E0,1.087950110E0,9.070932983E0
1.675667703E0,-3.022950172E0,8.455050468E0,1.165050030E0,9.054471146E0
1.677629650E0,-3.022950172E0,8.416950226E0,1.165050030E0,9.018903504E0
1.679591649E0,-2.985000134E0,8.377950668E0,1.203000069E0,8.974825478E0
1.681553640E0,-3.061050177E0,8.377950668E0,1.240950108E0,9.005556216E0
1.683515642E0,-3.022950172E0,8.416950226E0,1.279950023E0,9.034464617E0
1.685477640E0,-3.022950172E0,8.416950226E0,1.318050027E0,9.039941080E0
1.687439101E0,-3.022950172E0,8.377950668E0,1.395000100E0,9.015226588E0
1.689400719E0,-3.138000250E0,8.377950668E0,1.432950020E0,9.060377957E0
1.691362272E0,-3.061050177E0,8.455050468E0,1.432950020E0,9.105561617E0
1.693323824E0,-3.138000250E0,8.455050468E0,1.432950020E0,9.131717788E0
1.695285540E0,-3.175950050E0,8.493000031E0,1.471050024E0,9.185951035E0
1.697247207E0,-3.175950050E0,8.532000542E0,1.471050024E0,9.222021478E0
1.699209129E0,-3.214950085E0,8.569950104E0,1.510050058E0,9.276863695E0
1.701170976E0,-3.253050089E0,8.569950104E0,1.510050058E0,9.290136212E0
1.703132995E0,-3.291000128E0,8.569950104E0,1.510050058E0,9.303492774E0
1.705094937E0,-3.330000162E0,8.569950104E0,1.548000097E0,9.323585692E0
1.707056947E0,-3.330000162E0,8.569950104E0,1.510050058E0,9.317359982E0
1.709018937E0,-3.330000162E0,8.647050858E0,1.471050024E0,9.382130770E0
1.710980760E0,-3.330000162E0,8.647050858E0,1.510050058E0,9.388324706E0
1.712942632E0,-3.406050205E0,8.685000420E0,1.510050058E0,9.450431814E0
1.714904518E0,-3.445050240E0,8.722949982E0,1.471050024E0,9.493272129E0
1.716866399E0,-3.445050240E0,8.761950493E0,1.471050024E0,9.529120409E0
1.718828015E0,-3.483000278E0,8.761950493E0,1.510050058E0,9.548995683E0
1.720789709E0,-3.483000278E0,8.800050735E0,1.471050024E0,9.577900191E0
1.722751940E0,-3.520950079E0,8.914950371E0,1.510050058E0,9.703281958E0
1.724714014E0,-3.483000278E0,8.991000175E0,1.510050058E0,9.759591501E0
1.726676211E0,-3.445050240E0,9.030000687E0,1.471050024E0,9.776158332E0
1.728638351E0,-3.559950113E0,9.106050491E0,1.510050058E0,9.893111317E0
1.730600013E0,-3.559950113E0,9.145050049E0,1.471050024E0,9.923163476E0
1.732561815E0,-3.598050117E0,9.298050880E0,1.510050058E0,1.008364845E1
1.734523488E0,-3.559950113E0,9.375000000E0,1.471050024E0,1.013547522E1
1.736485199E0,-3.675000191E0,9.451050758E0,1.471050024E0,1.024655918E1
1.738446708E0,-3.675000191E0,9.528000832E0,1.471050024E0,1.031757793E1
1.740408276E0,-3.712950230E0,9.604950905E0,1.471050024E0,1.040216658E1
1.742370304E0,-3.751050234E0,9.681000710E0,1.471050024E0,1.048599737E1
1.744332197E0,-3.675000191E0,9.720000267E0,1.471050024E0,1.049514267E1
1.746294037E0,-3.790050268E0,9.835050583E0,1.471050024E0,1.064221261E1
1.748255892E0,-3.790050268E0,9.835050583E0,1.471050024E0,1.064221261E1
1.750217465E0,-3.751050234E0,9.835050583E0,1.356000066E0,1.061307373E1
1.752179089E0,-3.790050268E0,9.873000145E0,1.318050027E0,1.065729181E1
1.754140747E0,-3.751050234E0,9.910950661E0,1.240950108E0,1.066945538E1
1.756102395E0,-3.751050234E0,9.873000145E0,1.203000069E0,1.062985037E1
1.758063961E0,-3.790050268E0,9.910950661E0,1.126049995E0,1.067049261E1
1.760025551E0,-3.790050268E0,9.949950218E0,1.126049995E0,1.070672588E1
1.761987105E0,-3.751050234E0,9.910950661E0,1.011000037E0,1.064516049E1
1.763948652E0,-3.675000191E0,9.988050461E0,1.050000072E0,1.069435732E1
1.765910323E0,-3.598050117E0,9.949950218E0,1.011000037E0,1.062871559E1
1.767871958E0,-3.559950113E0,9.988050461E0,1.011000037E0,1.065159696E1
1.769833660E0,-3.520950079E0,9.949950218E0,9.349500537E-1,1.059588271E1
1.771795342E0,-3.445050240E0,9.910950661E0,8.959500194E-1,1.053081386E1
1.773756882E0,-3.445050240E0,9.835050583E0,8.200500607E-1,1.045318484E1
1.775718478E0,-3.406050205E0,9.873000145E0,7.429500222E-1,1.047040040E1
1.777680186E0,-3.330000162E0,9.835050583E0,7.050000429E-1,1.040740823E1
1.779641861E0,-3.253050089E0,9.796050072E0,6.280500293E-1,1.034114978E1
1.781603512E0,-3.214950085E0,9.796050072E0,5.899500251E-1,1.032698127E1
1.783565170E0,-3.100050211E0,9.757950783E0,5.130000114E-1,1.025139424E1
1.785526912E0,-3.022950172E0,9.681000710E0,5.899500251E-1,1.015913596E1
1.787488630E0,-2.985000134E0,9.681000710E0,5.130000114E-1,1.014372562E1
1.789450498E0,-2.869950056E0,9.604950905E0,6.280500293E-1,1.004420938E1
1.791412322E0,-2.908050060E0,9.604950905E0,5.509500504E-1,1.005064092E1
1.793374128E0,-2.908050060E0,9.604950905E0,7.050000429E-1,1.006026153E1
1.795335940E0,-2.793000221E0,9.565950394E0,6.660000086E-1,9.987582950E0
1.797297492E0,-2.716050148E0,9.604950905E0,6.660000086E-1,1.000377760E1
1.799259109E0,-2.601000071E0,9.490050316E0,7.429500222E-1,9.868040895E0
1.801220634E0,-2.524950027E0,9.528000832E0,8.200500607E-1,9.890938004E0
1.803182186E0,-2.448000193E0,9.565950394E0,9.730500579E-1,9.922043050E0
1.805143901E0,-2.410050154E0,9.528000832E0,1.050000072E0,9.884009396E0
1.807105568E0,-2.332950115E0,9.490050316E0,1.050000072E0,9.828845883E0
1.809066886E0,-2.179949999E0,9.565950394E0,1.011000037E0,9.863149092E0
1.811028320E0,-2.256000042E0,9.528000832E0,1.087950110E0,9.851698913E0
1.812990416E0,-2.218050003E0,9.604950905E0,1.203000069E0,9.930862846E0
1.814952318E0,-2.179949999E0,9.681000710E0,1.318050027E0,1.001055506E1
1.816913976E0,-2.179949999E0,9.720000267E0,1.356000066E0,1.005332400E1
1.818875705E0,-2.103000164E0,9.720000267E0,1.471050024E0,1.005310912E1
1.820837774E0,-2.140950203E0,9.720000267E0,1.548000097E0,1.007265493E1
1.822799727E0,-2.140950203E0,9.835050583E0,1.624950051E0,1.019570255E1
1.824761511E0,-2.140950203E0,9.873000145E0,1.777950048E0,1.025772421E1
1.826723344E0,-2.140950203E0,9.910950661E0,2.085000038E0,1.035170691E1
1.828685552E0,-2.140950203E0,9.949950218E0,2.200050116E0,1.041275168E1
1.830647650E0,-2.218050003E0,9.988050461E0,2.467950106E0,1.052481238E1
1.832609634E0,-2.256000042E0,9.988050461E0,2.545050144E0,1.055120697E1
1.834571652E0,-2.256000042E0,9.949950218E0,2.736000061E0,1.056298925E1
1.836533334E0,-2.332950115E0,9.949950218E0,2.736000061E0,1.057969101E1
1.838495114E0,-2.410050154E0,9.910950661E0,2.698050022E0,1.055058096E1
1.840457151E0,-2.448000193E0,9.949950218E0,2.698050022E0,1.059592791E1
1.842419112E0,-2.563050032E0,9.910950661E0,2.812950134E0,1.061644276E1
1.844381152E0,-2.601000071E0,9.949950218E0,2.928000212E0,1.069298349E1
1.846343145E0,-2.640000105E0,9.910950661E0,2.965950251E0,1.067676938E1
1.848304922E0,-2.755050182E0,9.873000145E0,2.965950251E0,1.067067450E1
1.850266762E0,-2.755050182E0,9.873000145E0,2.965950251E0,1.067067450E1
1.852228653E0,-2.716050148E0,9.835050583E0,3.081000090E0,1.065822264E1
1.854190529E0,-2.830950022E0,9.835050583E0,2.812950134E0,1.061391476E1
1.856152377E0,-2.830950022E0,9.835050583E0,2.659050226E0,1.057416881E1
1.858114229E0,-2.830950022E0,9.796050072E0,2.659050226E0,1.053790412E1
1.860076074E0,-2.830950022E0,9.873000145E0,2.698050022E0,1.061931654E1
1.862037921E0,-2.793000221E0,9.949950218E0,2.851050138E0,1.072058051E1
1.863999946E0,-2.793000221E0,9.949950218E0,2.889000177E0,1.073073537E1
1.865961919E0,-2.716050148E0,9.988050461E0,2.928000212E0,1.075691711E1
1.867923762E0,-2.601000071E0,1.002600002E1,2.812950134E0,1.073305950E1
1.869885631E0,-2.601000071E0,1.002600002E1,2.659050226E0,1.069375640E1
1.871847428E0,-2.448000193E0,1.002600002E1,2.467950106E0,1.061151069E1
1.873809247E0,-2.256000042E0,1.002600002E1,2.353049994E0,1.054263046E1
1.875770782E0,-2.218050003E0,9.949950218E0,2.085000038E0,1.040521409E1
1.877732401E0,-2.103000164E0,9.949950218E0,2.430000067E0,1.045605181E1
1.879694226E0,-1.987950087E0,9.910950661E0,2.506050110E0,1.041437351E1
1.881656000E0,-1.950000048E0,9.835050583E0,2.506050110E0,1.033494109E1
1.883617724E0,-1.795950055E0,9.681000710E0,2.506050110E0,1.016009343E1
1.885579463E0,-1.720050097E0,9.604950905E0,2.545050144E0,1.008419231E1
1.887541642E0,-1.642950058E0,9.528000832E0,2.583000183E0,1.000769577E1
1.889503692E0,-1.528050065E0,9.412950516E0,2.698050022E0,9.910501921E0
1.891465540E0,-1.413000107E0,9.336000443E0,2.889000177E0,9.874401024E0
1.893427454E0,-1.336950064E0,9.220950127E0,2.851050138E0,9.743810528E0
1.895389423E0,-1.222050071E0,9.106050491E0,2.889000177E0,9.631193278E0
1.897351376E0,-1.106999993E0,9.220950127E0,3.310950041E0,9.859703870E0
1.899313384E0,-9.919500351E-1,9.145050049E0,3.463950157E0,9.829285628E0
1.901275376E0,-9.150000215E-1,9.183000565E0,3.541050196E0,9.884521278E0
1.903237566E0,-7.620000243E-1,9.220950127E0,3.694050074E0,9.962558468E0
1.905199692E0,-1.068000078E0,9.106050491E0,3.388050079E0,9.774439271E0
1.907161717E0,-8.770500422E-1,9.336000443E0,3.502950191E0,1.001003402E1
1.909123771E0,-7.230000496E-1,9.375000000E0,3.886050224E0,1.017421940E1
1.911085582E0,-5.700000525E-1,9.375000000E0,3.847950220E0,1.014998749E1
1.913047464E0,-4.170000255E-1,9.490050316E0,3.808950186E0,1.023440499E1
1.915009429E0,-2.250000089E-1,9.451050758E0,3.694050074E0,1.014982716E1
1.916971376E0,-1.480500102E-1,9.565950394E0,3.426000118E0,1.016202748E1
1.918933385E0,-4.930500090E-1,9.259950638E0,1.395000100E0,9.377409525E0
1.920895376E0,-2.250000089E-1,9.604950905E0,1.471050024E0,9.719552205E0
1.922857198E0,-2.629500031E-1,9.757950783E0,1.816050053E0,9.928987057E0
1.924819070E0,-1.480500102E-1,1.002600002E1,2.122950077E0,1.024936643E1
1.926780732E0,-7.200000435E-2,1.014105034E1,2.506050110E0,1.044635693E1
1.928742455E0,4.050000105E-3,1.037100029E1,2.698050022E0,1.071620909E1
1.930704321E0,4.200000316E-2,1.052505016E1,2.659050226E0,1.085582761E1
1.932666145E0,-3.299999982E-2,1.060095024E1,2.314950228E0,1.085081700E1
1.934627995E0,4.200000316E-2,1.079295063E1,2.238000154E0,1.102262183E1
1.936589837E0,4.200000316E-2,1.083105087E1,2.046000004E0,1.102268311E1
1.938551555E0,-3.299999982E-2,1.090800095E1,2.085000038E0,1.110553010E1
1.940513306E0,-1.099500060E-1,1.110000038E1,2.122950077E0,1.130172617E1
1.942475303E0,-1.870500147E-1,1.129095078E1,2.085000038E0,1.148336981E1
1.944437227E0,-2.629500031E-1,1.136805058E1,2.085000038E0,1.156066355E1
1.946398746E0,-3.400500119E-1,1.155900097E1,2.085000038E0,1.175046223E1
1.948360383E0,-4.170000255E-1,1.163595009E1,2.200050116E0,1.184944910E1
1.950322439E0,-4.549500346E-1,1.178895092E1,2.275950193E0,1.201525250E1
1.952284376E0,-4.930500090E-1,1.186605072E1,2.314950228E0,1.209980382E1
1.954246162E0,-6.079500318E-1,1.201905060E1,2.391000032E0,1.226963983E1
1.956207993E0,-6.079500318E-1,1.213395023E1,2.545050144E0,1.241288169E1
1.958169707E0,-6.850500107E-1,1.224900055E1,2.620950222E0,1.254498657E1
1.960131455E0,-7.620000243E-1,1.232595062E1,2.698050022E0,1.264077437E1
1.962093354E0,-7.999500632E-1,1.240305042E1,2.736000061E0,1.272640076E1
1.964055182E0,-8.380500674E-1,1.247895050E1,2.928000212E0,1.284522163E1
1.966016852E0,-9.150000215E-1,1.259400082E1,2.889000177E0,1.295347072E1
1.967978569E0,-9.529500604E-1,1.263300037E1,3.043050051E0,1.302923505E1
1.969940436E0,-1.068000078E0,1.267095089E1,2.928000212E0,1.304863234E1
1.971902259E0,-1.144950032E0,1.270905018E1,2.851050138E0,1.307514260E1
1.973864275E0,-1.222050071E0,1.270905018E1,2.773950100E0,1.306553336E1
1.975826245E0,-1.297950029E0,1.274805069E1,2.698050022E0,1.309492056E1
1.977788250E0,-1.336950064E0,1.282395077E1,2.773950100E0,1.318847785E1
1.979750245E0,-1.452000022E0,1.278600025E1,2.583000183E0,1.312486177E1
1.981712381E0,-1.452000022E0,1.274805069E1,2.353049994E0,1.304446031E1
1.983674476E0,-1.567050099E0,1.274805069E1,2.161050081E0,1.302453761E1
1.985636654E0,-1.605000019E0,1.270905018E1,1.893000126E0,1.294910927E1
1.987598797E0,-1.681950092E0,1.270905018E1,1.855050087E0,1.295338270E1
1.989560594E0,-1.758000135E0,1.274805069E1,1.969950080E0,1.301860454E1
1.991522492E0,-1.834950089E0,1.267095089E1,1.701000094E0,1.291562773E1
1.993484508E0,-1.950000048E0,1.255605030E1,1.203000069E0,1.276338938E1
1.995446490E0,-2.295000076E0,1.236405087E1,6.660000086E-1,1.259286842E1
1.997409219E0,-2.793000221E0,1.213395023E1,3.220500052E-1,1.245541307E1
1.999371726E0,-3.214950085E0,1.182795048E1,2.070000172E-1,1.225884030E1
2.001333460E0,-3.636000156E0,1.155900097E1,2.449500114E-1,1.211985978E1
2.003295420E0,-4.018949986E0,1.125300026E1,2.830500007E-1,1.195249309E1
2.005257291E0,-4.249050140E0,1.083105087E1,3.600000143E-1,1.164026160E1
2.007219189E0,-4.402950287E0,1.052505016E1,2.830500007E-1,1.141239543E1
2.009181322E0,-4.479000092E0,1.014105034E1,2.070000172E-1,1.108806533E1
2.011143399E0,-4.633050442E0,9.873000145E0,1.680000126E-1,1.090731462E1
2.013105071E0,-4.594050407E0,9.681000710E0,1.500000060E-2,1.071575004E1
2.015066862E0,-4.708950043E0,9.451050758E0,-1.759500057E-1,1.056065951E1
2.017028852E0,-4.708950043E0,9.298050880E0,-2.140500098E-1,1.042467161E1
2.018990783E0,-4.633050442E0,9.067950249E0,-3.289500177E-1,1.018828181E1
2.020952776E0,-4.594050407E0,8.953050613E0,-4.440000355E-1,1.007271316E1
2.022914764E0,-4.518000126E0,8.800050735E0,-5.590500236E-1,9.907863292E0
2.024876632E0,-4.518000126E0,8.685000420E0,-5.590500236E-1,9.805819413E0
2.026838536E0,-4.479000092E0,8.685000420E0,-5.970000029E-1,9.790152354E0
2.028800912E0,-4.479000092E0,8.608050346E0,-5.970000029E-1,9.721953589E0
2.030763149E0,-4.441050053E0,8.532000542E0,-5.970000029E-1,9.637134834E0
2.032725069E0,-4.326000214E0,8.455050468E0,-5.209500194E-1,9.511758260E0
2.034687079E0,-4.173000336E0,8.416950226E0,-6.360000372E-1,9.416128661E0
2.036648897E0,-3.981000185E0,8.302050591E0,-5.970000029E-1,9.226527813E0
2.038610772E0,-3.828000069E0,8.187000275E0,-6.360000372E-1,9.060080246E0
2.040572972E0,-3.675000191E0,8.148000717E0,-5.209500194E-1,8.953598774E0
2.042535077E0,-3.520950079E0,8.110050201E0,-5.590500236E-1,8.859037231E0
2.044497275E0,-3.367950201E0,8.032950401E0,-5.209500194E-1,8.725982445E0
2.046459452E0,-3.214950085E0,7.957050323E0,-4.819500148E-1,8.595512185E0
2.048421378E0,-3.061050177E0,7.918050289E0,-4.440000355E-1,8.500746120E0
2.050383377E0,-2.946000099E0,7.918050289E0,-4.060500264E-1,8.458091604E0
2.052345376E0,-2.793000221E0,7.803000450E0,-4.060500264E-1,8.297743240E0
2.054307375E0,-2.601000071E0,7.687950134E0,-3.289500177E-1,8.122683470E0
2.056269356E0,-2.410050154E0,7.650000572E0,-2.140500098E-1,8.023507207E0
2.058231356E0,-2.295000076E0,7.687950134E0,-2.140500098E-1,8.026046351E0
2.060193222E0,-2.218050003E0,7.650000572E0,-1.759500057E-1,7.967007781E0
2.062155127E0,-2.103000164E0,7.650000572E0,-2.140500098E-1,7.936682925E0
2.064117097E0,-2.103000164E0,7.687950134E0,-1.369500011E-1,7.971570878E0
2.066079048E0,-2.065050125E0,7.687950134E0,-1.369500011E-1,7.961643335E0
2.068041117E0,-1.987950087E0,7.726950169E0,-1.759500057E-1,7.980517706E0
2.070003140E0,-1.911000133E0,7.765050411E0,-1.369500011E-1,7.997917523E0
2.071965271E0,-1.873050094E0,7.803000450E0,-2.140500098E-1,8.027512073E0
2.073927371E0,-1.834950089E0,7.803000450E0,-1.759500057E-1,8.017781255E0
2.075889220E0,-1.795950055E0,7.803000450E0,-1.369500011E-1,8.008183810E0
2.077851142E0,-1.720050097E0,7.726950169E0,-1.759500057E-1,7.918035719E0
2.079813127E0,-1.681950092E0,7.765050411E0,-1.759500057E-1,7.947070052E0
2.081775081E0,-1.720050097E0,7.765050411E0,-1.759500057E-1,7.955220841E0
2.083737450E0,-1.681950092E0,7.765050411E0,-9.900000691E-2,7.945738795E0
2.085699697E0,-1.720050097E0,7.803000450E0,-9.900000691E-2,7.990944210E0
2.087661881E0,-1.681950092E0,7.803000450E0,-1.759500057E-1,7.984154967E0
2.089624083E0,-1.642950058E0,7.803000450E0,-2.520000041E-1,7.978070250E0
2.091586413E0,-1.605000019E0,7.765050411E0,-2.520000041E-1,7.933192104E0
2.093548702E0,-1.567050099E0,7.650000572E0,-3.289500177E-1,7.815776537E0
2.095510969E0,-1.642950058E0,7.612050533E0,-3.670500219E-1,7.795981268E0
2.097473242E0,-1.567050099E0,7.612050533E0,-3.670500219E-1,7.780339649E0
2.099435421E0,-1.605000019E0,7.612050533E0,-3.289500177E-1,7.786369276E0
2.101397627E0,-1.567050099E0,7.612050533E0,-2.910000086E-1,7.777122883E0
2.103359767E0,-1.528050065E0,7.573050499E0,-3.289500177E-1,7.732673469E0
2.105321930E0,-1.297950029E0,6.922050476E0,-8.269500136E-1,7.091072091E0
2.107284397E0,-1.068000078E0,6.807000160E0,-1.555950046E0,7.063770657E0
2.109246774E0,-1.144950032E0,7.267050266E0,-7.890000343E-1,7.398881754E0
2.111208890E0,-1.413000107E0,7.420050144E0,-6.105000153E-2,7.553637571E0
2.113171083E0,-1.642950058E0,7.612050533E0,2.070000172E-1,7.790086471E0
2.115133410E0,-1.681950092E0,7.458000183E0,5.295000225E-2,7.645490602E0
2.117095697E0,-1.605000019E0,7.381950378E0,-2.910000086E-1,7.560019673E0
2.119057649E0,-1.605000019E0,7.342950344E0,-4.819500148E-1,7.531747515E0
2.121019699E0,-1.681950092E0,7.458000183E0,-3.289500177E-1,7.652380738E0
2.122981690E0,-1.834950089E0,7.612050533E0,-9.900000691E-2,7.830718751E0
2.124943699E0,-1.911000133E0,7.650000572E0,-1.369500011E-1,7.886265629E0
2.126905562E0,-1.987950087E0,7.650000572E0,-2.910000086E-1,7.909433311E0
2.128867468E0,-1.950000048E0,7.573050499E0,-4.440000355E-1,7.832670686E0
2.130829618E0,-2.026050091E0,7.573050499E0,-5.590500236E-1,7.859294482E0
2.132791697E0,-2.065050125E0,7.650000572E0,-5.970000029E-1,7.946278989E0
2.134753864E0,-2.103000164E0,7.612050533E0,-5.590500236E-1,7.916972903E0
2.136716005E0,-2.179949999E0,7.612050533E0,-5.209500194E-1,7.935167562E0
2.138678206E0,-2.179949999E0,7.612050533E0,-4.819500148E-1,7.932702638E0
2.140640389E0,-2.256000042E0,7.687950134E0,-5.209500194E-1,8.029041187E0
2.142602359E0,-2.295000076E0,7.687950134E0,-4.819500148E-1,8.037653789E0
2.144564391E0,-2.332950115E0,7.687950134E0,-4.060500264E-1,8.044383763E0
2.146526565E0,-2.410050154E0,7.687950134E0,-4.440000355E-1,8.069080186E0
2.148488697E0,-2.410050154E0,7.726950169E0,-4.440000355E-1,8.106246769E0
2.150450846E0,-2.448000193E0,7.803000450E0,-4.060500264E-1,8.188064337E0
2.152412996E0,-2.524950027E0,7.842000484E0,-4.440000355E-1,8.250423036E0
2.154375150E0,-2.563050032E0,7.842000484E0,-4.440000355E-1,8.262162737E0
2.156337303E0,-2.524950027E0,7.879950523E0,-4.440000355E-1,8.286502816E0
2.158299413E0,-2.563050032E0,7.918050289E0,-5.209500194E-1,8.338832938E0
2.160261536E0,-2.485950232E0,7.879950523E0,-4.440000355E-1,8.274702704E0
2.162223533E0,-2.256000042E0,7.228050232E0,-9.810000658E-1,7.635221508E0
2.164185554E0,-1.911000133E0,6.960000515E0,-1.977000117E0,7.483452287E0
2.166147594E0,-2.026050091E0,7.612050533E0,-7.510500550E-1,7.912791447E0
2.168109629E0,-2.332950115E0,7.765050411E0,9.195000678E-2,8.108459714E0
2.170071444E0,-2.410050154E0,7.842000484E0,-2.205000073E-2,8.204011186E0
2.172033323E0,-2.448000193E0,7.957050323E0,-6.105000153E-2,8.325327735E0
2.173995523E0,-2.563050032E0,8.187000275E0,1.680000126E-1,8.580467526E0
2.175957629E0,-2.677950144E0,8.302050591E0,9.195000678E-2,8.723755830E0
2.177919791E0,-2.716050148E0,8.110050201E0,-4.819500148E-1,8.566336352E0
2.179881937E0,-2.601000071E0,8.148000717E0,-8.269500136E-1,8.592960106E0
2.181843868E0,-2.677950144E0,8.340000153E0,-3.289500177E-1,8.765570582E0
2.183805862E0,-2.793000221E0,8.455050468E0,-2.140500098E-1,8.906994222E0
2.185767867E0,-2.830950022E0,8.416950226E0,-2.520000041E-1,8.883852381E0
2.187729865E0,-2.793000221E0,8.377950668E0,-4.440000355E-1,8.842400334E0
2.189691911E0,-2.716050148E0,8.340000153E0,-5.970000029E-1,8.791412853E0
2.191653942E0,-2.640000105E0,8.224950790E0,-6.739500165E-1,8.664503718E0
2.193616297E0,-2.563050032E0,8.187000275E0,-7.120500207E-1,8.608322380E0
2.195578557E0,-2.448000193E0,7.995000362E0,-7.120500207E-1,8.391647691E0
2.197540708E0,-2.448000193E0,7.957050323E0,-6.739500165E-1,8.352338799E0
2.199502881E0,-2.371050119E0,7.918050289E0,-5.970000029E-1,8.286966155E0
2.201464806E0,-2.295000076E0,7.765050411E0,-6.360000372E-1,8.122039724E0
2.203426804E0,-2.256000042E0,7.726950169E0,-7.120500207E-1,8.080984490E0
2.205388624E0,-2.218050003E0,7.687950134E0,-6.360000372E-1,8.026756451E0
2.207350496E0,-2.179949999E0,7.687950134E0,-6.739500165E-1,8.019411942E0
2.209312517E0,-2.179949999E0,7.687950134E0,-6.739500165E-1,8.019411942E0
2.211274494E0,-2.218050003E0,7.650000572E0,-6.360000372E-1,7.990416173E0
2.213236498E0,-2.179949999E0,7.612050533E0,-6.360000372E-1,7.943550300E0
2.215198494E0,-2.140950203E0,7.612050533E0,-6.360000372E-1,7.932936224E0
2.217160181E0,-2.140950203E0,7.612050533E0,-6.739500165E-1,7.936068908E0
2.219121958E0,-2.103000164E0,7.497000217E0,-5.970000029E-1,7.809227296E0
2.221083771E0,-2.103000164E0,7.458000183E0,-5.970000029E-1,7.771794222E0
2.223045572E0,-2.103000164E0,7.420050144E0,-4.819500148E-1,7.727355929E0
2.225007426E0,-2.103000164E0,7.381950378E0,-5.209500194E-1,7.693321130E0
2.226969265E0,-2.140950203E0,7.381950378E0,-4.819500148E-1,7.701242431E0
2.228931337E0,-2.103000164E0,7.381950378E0,-5.209500194E-1,7.693321130E0
2.230893341E0,-2.179949999E0,7.342950344E0,-5.590500236E-1,7.680080643E0
2.232855306E0,-2.179949999E0,7.458000183E0,-5.209500194E-1,7.787511647E0
2.234817276E0,-2.295000076E0,7.497000217E0,-5.209500194E-1,7.857698552E0
2.236778920E0,-2.295000076E0,7.534950256E0,-5.590500236E-1,7.896520604E0
2.238740660E0,-2.332950115E0,7.573050499E0,-5.970000029E-1,7.946707438E0
2.240702884E0,-2.410050154E0,7.650000572E0,-5.970000029E-1,8.042839020E0
2.242664966E0,-2.410050154E0,7.687950134E0,-5.970000029E-1,8.078943496E0
2.244626632E0,-2.410050154E0,7.687950134E0,-5.970000029E-1,8.078943496E0
2.246588424E0,-2.410050154E0,7.726950169E0,-5.209500194E-1,8.110825456E0
2.248550234E0,-2.332950115E0,7.726950169E0,-4.819500148E-1,8.085832732E0
2.250512038E0,-2.295000076E0,7.726950169E0,-4.060500264E-1,8.070790598E0
2.252474072E0,-2.218050003E0,7.765050411E0,-3.289500177E-1,8.082324036E0
2.254436038E0,-2.256000042E0,7.687950134E0,-2.520000041E-1,8.016084921E0
2.256397864E0,-2.218050003E0,7.687950134E0,-3.289500177E-1,8.008278916E0
2.258359732E0,-2.179949999E0,7.726950169E0,-2.520000041E-1,8.032524193E0
2.260321574E0,-2.140950203E0,7.726950169E0,-3.670500219E-1,8.026465748E0
2.262283424E0,-2.218050003E0,7.726950169E0,-3.670500219E-1,8.047374133E0
2.264245494E0,-2.140950203E0,7.687950134E0,-4.060500264E-1,7.990814831E0
2.266207499E0,-2.218050003E0,7.726950169E0,-4.060500264E-1,8.049247254E0
2.268169305E0,-2.256000042E0,7.803000450E0,-4.819500148E-1,8.136868441E0
2.270131180E0,-2.256000042E0,7.765050411E0,-6.360000372E-1,8.111105974E0
2.272093200E0,-2.332950115E0,7.803000450E0,-7.890000343E-1,8.182419772E0
2.274055178E0,-2.524950027E0,7.918050289E0,-7.510500550E-1,8.344756989E0
2.276017497E0,-2.640000105E0,8.148000717E0,-7.120500207E-1,8.594564065E0
2.277979716E0,-2.793000221E0,8.263050079E0,-7.120500207E-1,8.751334874E0
2.279941692E0,-2.869950056E0,8.340000153E0,-7.890000343E-1,8.855209592E0
2.281903762E0,-2.946000099E0,8.532000542E0,-8.269500136E-1,9.064093786E0
2.283865929E0,-2.946000099E0,8.532000542E0,-9.040500522E-1,9.071452823E0
2.285828068E0,-2.908050060E0,8.647050858E0,-9.040500522E-1,9.167636019E0
2.287790000E0,-2.908050060E0,8.722949982E0,-9.420000315E-1,9.243050124E0
2.289751993E0,-2.946000099E0,8.761950493E0,-9.420000315E-1,9.291827435E0
2.291713988E0,-2.946000099E0,8.800050735E0,-9.040500522E-1,9.324007509E0
2.293675986E0,-2.946000099E0,8.800050735E0,-8.269500136E-1,9.316847957E0
2.295637807E0,-3.022950172E0,8.838000298E0,-7.120500207E-1,9.367790147E0
2.297599680E0,-3.061050177E0,8.838000298E0,-6.739500165E-1,9.377338965E0
2.299562062E0,-3.061050177E0,8.877000809E0,-5.970000029E-1,9.408909636E0
2.301524294E0,-3.100050211E0,8.877000809E0,-5.209500194E-1,9.417156874E0
2.303486445E0,-3.138000250E0,8.953050613E0,-4.440000355E-1,9.497436332E0
2.305448613E0,-3.100050211E0,8.953050613E0,-3.670500219E-1,9.481674552E0
2.307410269E0,-3.138000250E0,9.030000687E0,-3.289500177E-1,9.565362831E0
2.309372075E0,-3.138000250E0,9.030000687E0,-2.910000086E-1,9.564132944E0
2.311333927E0,-3.214950085E0,9.106050491E0,-2.140500098E-1,9.659289674E0
2.313295765E0,-3.214950085E0,9.067950249E0,-2.520000041E-1,9.624298923E0
2.315257973E0,-3.214950085E0,9.183000565E0,-2.520000041E-1,9.732774908E0
2.317220073E0,-3.291000128E0,9.220950127E0,-2.520000041E-1,9.793881104E0
2.319182057E0,-3.406050205E0,9.298050880E0,-2.140500098E-1,9.904582050E0
2.321144075E0,-3.445050240E0,9.336000443E0,-2.140500098E-1,9.953647212E0
2.323105891E0,-3.559950113E0,9.375000000E0,-2.520000041E-1,1.003131964E1
2.325067767E0,-3.675000191E0,9.490050316E0,-2.910000086E-1,1.018093131E1
2.327029797E0,-3.675000191E0,9.451050758E0,-3.289500177E-1,1.014574763E1
2.328991775E0,-3.712950230E0,9.528000832E0,-3.670500219E-1,1.023247404E1
2.330953735E0,-3.828000069E0,9.565950394E0,-3.670500219E-1,1.030998143E1
2.332915700E0,-3.981000185E0,9.565950394E0,-4.440000355E-1,1.037077169E1
2.334877885E0,-4.057950020E0,9.604950905E0,-5.209500194E-1,1.043999182E1
2.336840006E0,-4.057950020E0,9.681000710E0,-6.360000372E-1,1.051633154E1
2.338801810E0,-4.134000301E0,9.643050194E0,-7.120500207E-1,1.051595886E1
2.340763704E0,-4.210950375E0,9.643050194E0,-7.510500550E-1,1.054915145E1
2.342725766E0,-4.288050175E0,9.643050194E0,-9.040500522E-1,1.059212433E1
2.344687779E0,-4.363950253E0,9.681000710E0,-9.420000315E-1,1.066082551E1
2.346649778E0,-4.479000092E0,9.720000267E0,-1.057050109E0,1.075440384E1
2.348611781E0,-4.633050442E0,9.796050072E0,-1.134000063E0,1.089558211E1
2.350573930E0,-4.671000004E0,9.835050583E0,-1.171950102E0,1.095079577E1
2.352536025E0,-4.786050320E0,9.835050583E0,-1.210950017E0,1.100458530E1
2.354498055E0,-4.863000393E0,9.910950661E0,-1.402050018E0,1.112840780E1
2.356460104E0,-4.900950432E0,9.835050583E0,-1.479000092E0,1.108760463E1
2.358422230E0,-4.939050198E0,9.796050072E0,-1.555950046E0,1.108051418E1
2.360384333E0,-5.016000271E0,9.757950783E0,-1.594050050E0,1.108687773E1
2.362346121E0,-5.092950344E0,9.757950783E0,-1.708950043E0,1.113895224E1
2.364308012E0,-5.245950222E0,9.720000267E0,-1.824000120E0,1.119488166E1
2.366270030E0,-5.323050022E0,9.643050194E0,-1.939050078E0,1.118405981E1
2.368232010E0,-5.437950134E0,9.604950905E0,-2.092050076E0,1.123401340E1
2.370193879E0,-5.590950489E0,9.565950394E0,-2.245050192E0,1.130514859E1
2.372155781E0,-5.706000328E0,9.490050316E0,-2.359950066E0,1.132205189E1
2.374117613E0,-5.821050167E0,9.412950516E0,-2.475000143E0,1.134080633E1
2.376079469E0,-5.935950279E0,9.412950516E0,-2.704950094E0,1.145233156E1
2.378041313E0,-6.051000118E0,9.375000000E0,-2.743950129E0,1.149062617E1
2.380003161E0,-6.166050434E0,9.375000000E0,-2.743950129E0,1.155162609E1
2.381965141E0,-6.280950069E0,9.336000443E0,-2.743950129E0,1.158190400E1
2.383927082E0,-6.319050312E0,9.298050880E0,-2.551950216E0,1.152807863E1
2.385888899E0,-6.433950424E0,9.375000000E0,-2.322000027E0,1.160508626E1
2.387850762E0,-6.511050224E0,9.412950516E0,-2.169000149E0,1.164911903E1
2.389812784E0,-6.586950302E0,9.412950516E0,-1.977000117E0,1.165761902E1
2.391774760E0,-6.741000175E0,9.451050758E0,-1.786050081E0,1.174535733E1
2.393736630E0,-6.817050457E0,9.604950905E0,-1.671000123E0,1.189619688E1
2.395698532E0,-6.894000530E0,9.757950783E0,-1.479000092E0,1.203878267E1
2.397660352E0,-7.009050369E0,9.910950661E0,-1.326000094E0,1.221114271E1
2.399622176E0,-7.123950481E0,1.006500053E1,-1.171950102E0,1.238662074E1
2.401583891E0,-7.239000320E0,1.018005085E1,-1.057050109E0,1.253610449E1
2.403545638E0,-7.315950394E0,1.041000080E1,-9.040500522E-1,1.275572630E1
2.405507680E0,-7.354050159E0,1.056300068E1,-8.659500480E-1,1.289995762E1
2.407469636E0,-7.315950394E0,1.067805004E1,-7.510500550E-1,1.296564534E1
2.409431639E0,-7.354050159E0,1.079295063E1,-7.120500207E-1,1.307963502E1
2.411393631E0,-7.315950394E0,1.090800095E1,-7.120500207E-1,1.315350258E1
2.413355588E0,-7.201050282E0,1.098495007E1,-8.269500136E-1,1.316085481E1
2.415317556E0,-7.086000443E0,1.106100082E1,-7.890000343E-1,1.315977441E1
2.417279381E0,-7.009050369E0,1.110000038E1,-7.890000343E-1,1.315139980E1
2.419241248E0,-6.856050491E0,1.117605019E1,-8.659500480E-1,1.313999222E1
2.421203134E0,-6.664050102E0,1.117605019E1,-7.120500207E-1,1.303152626E1
2.423165015E0,-6.433950424E0,1.113795090E1,-6.360000372E-1,1.287843796E1
2.425127036E0,-6.241950512E0,1.117605019E1,-5.590500236E-1,1.281321899E1
2.427089015E0,-6.088950157E0,1.113795090E1,-5.590500236E-1,1.270597502E1
2.429050975E0,-5.821050167E0,1.110000038E1,-4.440000355E-1,1.254160155E1
2.431012940E0,-5.553000450E0,1.113795090E1,-2.140500098E-1,1.244731222E1
2.432974945E0,-5.284050465E0,1.113795090E1,-1.759500057E-1,1.232907531E1
2.434936938E0,-5.016000271E0,1.113795090E1,5.295000225E-2,1.221544156E1
2.436898625E0,-4.747950077E0,1.110000038E1,1.680000126E-1,1.207399115E1
2.438860402E0,-4.479000092E0,1.106100082E1,2.830500007E-1,1.193680436E1
2.440821539E0,-4.249050140E0,1.102305031E1,5.130000114E-1,1.182477206E1
2.442782863E0,-4.057950020E0,1.102305031E1,9.730500579E-1,1.178649324E1
2.444745324E0,-3.904950142E0,1.102305031E1,1.203000069E0,1.175599774E1
2.446707462E0,-3.712950230E0,1.098495007E1,1.279950023E0,1.166590757E1
2.448669439E0,-3.598050117E0,1.098495007E1,1.279950023E0,1.162984801E1
2.450631464E0,-3.445050240E0,1.094595051E1,1.203000069E0,1.153817199E1
2.452593460E0,-3.367950201E0,1.106100082E1,1.126049995E0,1.161709156E1
2.454555464E0,-3.253050089E0,1.110000038E1,1.011000037E0,1.161096311E1
2.456517399E0,-3.100050211E0,1.121400070E1,1.011000037E0,1.167845213E1
2.458479368E0,-3.022950172E0,1.136805058E1,1.011000037E0,1.180647800E1
2.460441238E0,-2.985000134E0,1.163595009E1,1.011000037E0,1.205519313E1
2.462403137E0,-2.908050060E0,1.182795048E1,1.087950110E0,1.222868771E1
2.464365153E0,-2.830950022E0,1.209600067E1,1.165050030E0,1.247737360E1
2.466327135E0,-2.830950022E0,1.228800011E1,1.318050027E0,1.267858354E1
2.468288978E0,-2.793000221E0,1.259400082E1,1.471050024E0,1.298359330E1
2.470250848E0,-2.755050182E0,1.278600025E1,1.548000097E0,1.317074061E1
2.472213005E0,-2.601000071E0,1.301595020E1,1.777950048E0,1.339183585E1
2.474175077E0,-2.371050119E0,1.244100094E1,7.429500222E-1,1.268670003E1
2.476137245E0,-2.256000042E0,1.309305096E1,2.085000038E0,1.344859638E1
2.478099385E0,-2.256000042E0,1.313100052E1,2.965950251E0,1.364952643E1
2.480061592E0,-2.179949999E0,1.366695023E1,3.502950191E0,1.427614691E1
2.482023775E0,-2.179949999E0,1.389705086E1,4.153950214E0,1.466749832E1
2.483985519E0,-2.026050091E0,1.405095100E1,4.078050137E0,1.477039593E1
2.485947392E0,-1.834950089E0,1.397400093E1,3.886050224E0,1.461988817E1
2.487909458E0,-1.528050065E0,1.389705086E1,3.655950069E0,1.445091452E1
2.489871467E0,-1.183050036E0,1.374405098E1,3.502950191E0,1.423268087E1
2.491833766E0,-8.770500422E-1,1.355205059E1,3.463950157E0,1.401521469E1
2.493795990E0,-5.320500135E-1,1.332300091E1,3.502950191E0,1.378608322E1
2.495757953E0,-1.099500060E-1,1.309305096E1,3.808950186E0,1.363628153E1
2.497719992E0,3.490500152E-1,1.274805069E1,4.000950336E0,1.336571120E1
2.499682570E0,6.940500140E-1,1.224900055E1,3.963000298E0,1.289283100E1
2.501644990E0,1.114950061E0,1.194300079E1,4.000950336E0,1.264460301E1
2.503606738E0,1.459950089E0,1.152105045E1,4.153950214E0,1.233374883E1
2.505568684E0,1.729050040E0,1.117605019E1,4.116000175E0,1.203474841E1
2.507530513E0,1.996950150E0,1.075500011E1,4.039050102E0,1.166069308E1
2.509492376E0,2.149950027E0,1.041000080E1,3.808950186E0,1.129152352E1
2.511454219E0,2.304000139E0,1.002600002E1,3.618000269E0,1.090499973E1
2.513416068E0,2.419050217E0,9.757950783E0,3.655950069E0,1.069744728E1
2.515378053E0,2.533950090E0,9.412950516E0,3.426000118E0,1.033257070E1
2.517339994E0,2.533950090E0,9.106050491E0,3.234000206E0,9.989985783E0
2.519302004E0,2.533950090E0,8.800050735E0,3.004050255E0,9.637744235E0
2.521263994E0,2.533950090E0,8.532000542E0,2.812950134E0,9.334271517E0
2.523225817E0,2.457000017E0,8.263050079E0,2.698050022E0,9.032957413E0
2.525187689E0,2.419050217E0,7.957050323E0,2.583000183E0,8.708521330E0
2.527149895E0,2.380050182E0,7.726950169E0,2.391000032E0,8.431327234E0
2.529111999E0,2.380050182E0,7.420050144E0,2.200050116E0,8.097036713E0
2.531074027E0,2.419050217E0,7.189950466E0,1.969950080E0,7.837594974E0
2.533036078E0,2.380050182E0,6.960000515E0,1.855050087E0,7.586004012E0
2.534998249E0,2.341950178E0,6.768000126E0,1.701000094E0,7.360975320E0
2.536960384E0,2.304000139E0,6.615000248E0,1.663050056E0,7.199470842E0
2.538922348E0,2.188950062E0,6.499950409E0,1.510050058E0,7.022898894E0
2.540884372E0,2.074050188E0,6.424050331E0,1.510050058E0,6.917395320E0
2.542846683E0,1.959000111E0,6.309000492E0,1.471050024E0,6.767950710E0
2.544808909E0,1.843950033E0,6.270000458E0,1.432950020E0,6.690770002E0
2.546770691E0,1.690050125E0,6.309000492E0,1.395000100E0,6.678756015E0
2.548732603E0,1.459950089E0,6.309000492E0,1.395000100E0,6.624271036E0
2.550694811E0,1.345050097E0,6.346950531E0,1.240950108E0,6.605520265E0
2.552656923E0,1.192050099E0,6.462000370E0,1.203000069E0,6.680242614E0
2.554619264E0,9.619500637E-1,6.538950443E0,1.165050030E0,6.711226594E0
2.556581538E0,7.320000529E-1,6.654000282E0,1.126049995E0,6.788190659E0
2.558542591E0,4.260000288E-1,6.768000126E0,1.087950110E0,6.868110160E0
2.560504002E0,2.340000123E-1,6.922050476E0,1.126049995E0,7.016945731E0
2.562466116E0,-3.299999982E-2,7.075050354E0,1.126049995E0,7.164175815E0
2.564428014E0,-2.250000089E-1,7.267050266E0,1.203000069E0,7.369386253E0
2.566389672E0,-4.930500090E-1,7.497000217E0,1.279950023E0,7.621442293E0
2.568351400E0,-6.850500107E-1,7.650000572E0,1.356000066E0,7.799393467E0
2.570313310E0,-8.770500422E-1,7.879950523E0,1.395000100E0,8.050395165E0
2.572275167E0,-1.068000078E0,8.032950401E0,1.432950020E0,8.229353685E0
2.574237327E0,-1.222050071E0,8.302050591E0,1.471050024E0,8.519474077E0
2.576199398E0,-1.452000022E0,8.493000031E0,1.471050024E0,8.740900512E0
2.578161432E0,-1.605000019E0,8.722949982E0,1.471050024E0,8.990543344E0
2.580123477E0,-1.795950055E0,8.914950371E0,1.471050024E0,9.212261660E0
2.582085424E0,-1.911000133E0,9.145050049E0,1.432950020E0,9.451836206E0
2.584047400E0,-2.026050091E0,9.336000443E0,1.432950020E0,9.660182658E0
2.586009564E0,-2.179949999E0,9.451050758E0,1.432950020E0,9.804483066E0
2.587971687E0,-2.218050003E0,9.643050194E0,1.432950020E0,9.998075246E0
2.589933532E0,-2.332950115E0,9.796050072E0,1.432950020E0,1.017146002E1
2.591895458E0,-2.410050154E0,9.949950218E0,1.395000100E0,1.033227353E1
2.593857246E0,-2.485950232E0,1.002600002E1,1.395000100E0,1.042337039E1
2.595819074E0,-2.524950027E0,1.014105034E1,1.432950020E0,1.054844161E1
2.597780936E0,-2.601000071E0,1.021800041E1,1.432950020E0,1.064077439E1
2.599742778E0,-2.563050032E0,1.025595093E1,1.395000100E0,1.066300990E1
2.601704445E0,-2.601000071E0,1.037100029E1,1.318050027E0,1.077311952E1
2.603666164E0,-2.524950027E0,1.037100029E1,1.318050027E0,1.075501165E1
2.605627896E0,-2.485950232E0,1.033305073E1,1.203000069E0,1.069575126E1
2.607589624E0,-2.410050154E0,1.037100029E1,1.203000069E0,1.071509206E1
2.609551450E0,-2.371050119E0,1.033305073E1,1.165050030E0,1.066541877E1
2.611513244E0,-2.218050003E0,1.033305073E1,1.165050030E0,1.063245149E1
2.613474965E0,-2.103000164E0,1.025595093E1,1.087950110E0,1.052571967E1
2.615436708E0,-1.950000048E0,1.010295010E1,9.730500579E-1,1.033532424E1
2.617398706E0,-1.911000133E0,1.006500053E1,1.011000037E0,1.029457519E1
2.619360629E0,-1.758000135E0,1.002600002E1,1.050000072E0,1.023297323E1
2.621322473E0,-1.605000019E0,9.910950661E0,1.011000037E0,1.009084184E1
2.623284333E0,-1.452000022E0,9.835050583E0,1.011000037E0,9.992929756E0
2.625246356E0,-1.260000110E0,9.720000267E0,9.349500537E-1,9.845818253E0
2.627208331E0,-1.106999993E0,9.565950394E0,9.349500537E-1,9.675070414E0
2.629170202E0,-9.529500604E-1,9.528000832E0,8.959500194E-1,9.617361390E0
2.631132103E0,-7.620000243E-1,9.412950516E0,8.200500607E-1,9.479280751E0
2.633093719E0,-6.079500318E-1,9.298050880E0,8.959500194E-1,9.360880293E0
2.635055415E0,-4.549500346E-1,9.183000565E0,8.580000401E-1,9.234210468E0
2.637017151E0,-3.400500119E-1,9.067950249E0,8.200500607E-1,9.111302751E0
2.638978875E0,-2.629500031E-1,8.953050613E0,8.200500607E-1,8.994372690E0
2.640940697E0,-1.099500060E-1,8.838000298E0,7.810500264E-1,8.873126698E0
2.642902490E0,-3.299999982E-2,8.722949982E0,8.580000401E-1,8.765107498E0
2.644864199E0,4.050000105E-3,8.647050858E0,8.959500194E-1,8.693344085E0
2.646825910E0,4.200000316E-2,8.569950104E0,1.011000037E0,8.629480277E0
2.648787778E0,4.050000105E-3,8.455050468E0,9.730500579E-1,8.510859019E0
2.650749600E0,4.050000105E-3,8.416950226E0,9.730500579E-1,8.473009732E0
2.652711316E0,4.050000105E-3,8.263050079E0,9.730500579E-1,8.320146599E0
2.654673064E0,-1.480500102E-1,8.224950790E0,9.730500579E-1,8.283632097E0
2.656634862E0,-2.250000089E-1,8.187000275E0,1.011000037E0,8.252255424E0
2.658596658E0,-3.019500077E-1,8.187000275E0,9.730500579E-1,8.250149921E0
2.660558153E0,-4.549500346E-1,8.110050201E0,1.050000072E0,8.190384237E0
2.662519737E0,-4.930500090E-1,8.148000717E0,9.730500579E-1,8.220695859E0
2.664481627E0,-6.079500318E-1,8.110050201E0,9.730500579E-1,8.190808503E0
2.666443427E0,-7.620000243E-1,8.187000275E0,9.730500579E-1,8.279761105E0
2.668405341E0,-7.999500632E-1,8.187000275E0,9.730500579E-1,8.283339907E0
2.670367211E0,-9.150000215E-1,8.148000717E0,1.050000072E0,8.266174501E0
2.672329054E0,-1.030050039E0,8.110050201E0,9.730500579E-1,8.232906156E0
2.674290905E0,-1.068000078E0,8.110050201E0,1.050000072E0,8.247183676E0
2.676252705E0,-1.144950032E0,8.071949959E0,1.050000072E0,8.220084359E0
2.678214520E0,-1.260000110E0,8.032950401E0,1.087950110E0,8.203628945E0
2.680176207E0,-1.297950029E0,8.032950401E0,1.126049995E0,8.214679240E0
2.682137921E0,-1.375050068E0,7.995000362E0,1.165050030E0,8.195616820E0
2.684099789E0,-1.528050065E0,7.995000362E0,1.203000069E0,8.228133261E0
2.686061611E0,-1.567050099E0,7.995000362E0,1.318050027E0,8.253055960E0
2.688023327E0,-1.642950058E0,7.957050323E0,1.318050027E0,8.231111141E0
2.689985075E0,-1.758000135E0,8.032950401E0,1.318050027E0,8.328031730E0
2.691946877E0,-1.795950055E0,8.071949959E0,1.240950108E0,8.361923816E0
2.693908673E0,-1.911000133E0,8.187000275E0,1.240950108E0,8.498167577E0
2.695870349E0,-2.065050125E0,8.224950790E0,1.356000066E0,8.587955735E0
2.697832060E0,-2.140950203E0,8.302050591E0,1.240950108E0,8.663005769E0
2.699793749E0,-2.256000042E0,8.302050591E0,1.203000069E0,8.686816987E0
2.701755444E0,-2.295000076E0,8.377950668E0,1.203000069E0,8.769509218E0
2.703717526E0,-2.371050119E0,8.493000031E0,1.279950023E0,8.910173974E0
2.705679505E0,-2.448000193E0,8.569950104E0,1.318050027E0,9.009661792E0
2.707641149E0,-2.485950232E0,8.647050858E0,1.279950023E0,9.087888047E0
2.709602892E0,-2.524950027E0,8.685000420E0,1.318050027E0,9.140123675E0
2.711564890E0,-2.601000071E0,8.722949982E0,1.356000066E0,9.202923119E0
2.713526813E0,-2.640000105E0,8.761950493E0,1.395000100E0,9.256749012E0
2.715488687E0,-2.640000105E0,8.838000298E0,1.356000066E0,9.323013783E0
2.717450579E0,-2.677950144E0,8.877000809E0,1.356000066E0,9.370768192E0
2.719412551E0,-2.716050148E0,8.914950371E0,1.432950020E0,9.429030400E0
2.721374500E0,-2.716050148E0,8.914950371E0,1.471050024E0,9.434895691E0
2.723336375E0,-2.716050148E0,8.953050613E0,1.432950020E0,9.465061513E0
2.725298272E0,-2.677950144E0,8.953050613E0,1.471050024E0,9.460048649E0
2.727260468E0,-2.677950144E0,8.953050613E0,1.510050058E0,9.466191602E0
2.729222577E0,-2.716050148E0,8.914950371E0,1.471050024E0,9.434895691E0
2.731184514E0,-2.677950144E0,8.953050613E0,1.471050024E0,9.460048649E0
2.733146502E0,-2.601000071E0,9.030000687E0,1.471050024E0,9.511577258E0
2.735108189E0,-2.677950144E0,9.030000687E0,1.471050024E0,9.532907088E0
2.737069964E0,-2.640000105E0,8.991000175E0,1.471050024E0,9.485339893E0
2.739031752E0,-2.640000105E0,8.991000175E0,1.471050024E0,9.485339893E0
2.740993553E0,-2.601000071E0,8.991000175E0,1.432950020E0,9.468718566E0
2.742955273E0,-2.601000071E0,8.914950371E0,1.432950020E0,9.396535917E0
2.744917017E0,-2.563050032E0,8.953050613E0,1.432950020E0,9.422297305E0
2.746879240E0,-2.601000071E0,8.991000175E0,1.432950020E0,9.468718566E0
2.748841323E0,-2.640000105E0,8.953050613E0,1.240950108E0,9.416298265E0
2.750803134E0,-2.601000071E0,8.953050613E0,1.240950108E0,9.405438524E0
2.752765022E0,-2.524950027E0,8.838000298E0,1.126049995E0,9.260324535E0
2.754726995E0,-2.563050032E0,8.838000298E0,1.087950110E0,9.266234951E0
2.756688943E0,-2.563050032E0,8.800050735E0,9.730500579E-1,9.217209167E0
2.758650952E0,-2.563050032E0,8.838000298E0,8.959500194E-1,9.245658503E0
2.760612943E0,-2.563050032E0,8.800050735E0,8.959500194E-1,9.209388951E0
2.762574973E0,-2.601000071E0,8.800050735E0,8.200500607E-1,9.212956985E0
2.764536971E0,-2.601000071E0,8.800050735E0,7.050000429E-1,9.203429761E0
2.766498837E0,-2.640000105E0,8.838000298E0,6.280500293E-1,9.245231022E0
2.768460742E0,-2.677950144E0,8.800050735E0,5.509500504E-1,9.214979972E0
2.770422893E0,-2.640000105E0,8.761950493E0,4.750500321E-1,9.163353618E0
2.772384971E0,-2.640000105E0,8.685000420E0,4.360500276E-1,9.087847516E0
2.774346955E0,-2.601000071E0,8.647050858E0,3.979500234E-1,9.038531635E0
2.776308969E0,-2.601000071E0,8.569950104E0,3.979500234E-1,8.964798401E0
2.778271326E0,-2.524950027E0,8.493000031E0,4.360500276E-1,8.871108261E0
2.780233583E0,-2.601000071E0,8.569950104E0,3.600000143E-1,8.963193971E0
2.782196620E0,-2.640000105E0,8.685000420E0,2.830500007E-1,9.081792232E0
2.784159429E0,-2.677950144E0,8.761950493E0,2.830500007E-1,9.166423005E0
2.786121276E0,-2.755050182E0,8.722949982E0,2.449500114E-1,9.150964889E0
2.788083416E0,-2.793000221E0,8.838000298E0,1.300500035E-1,9.269736377E0
2.790045751E0,-2.830950022E0,8.800050735E0,1.300500035E-1,9.245111356E0
2.792008029E0,-2.830950022E0,8.722949982E0,5.295000225E-2,9.170983487E0
2.793969622E0,-2.830950022E0,8.685000420E0,1.500000060E-2,9.134754256E0
2.795931416E0,-2.908050060E0,8.647050858E0,1.500000060E-2,9.122963810E0
2.797893275E0,-2.908050060E0,8.532000542E0,-6.105000153E-2,9.014184128E0
2.799855111E0,-2.946000099E0,8.493000031E0,-6.105000153E-2,8.989643664E0
2.801816825E0,-2.908050060E0,8.416950226E0,-9.900000691E-2,8.905706444E0
2.803778575E0,-2.946000099E0,8.377950668E0,-9.900000691E-2,8.881372359E0
2.805740617E0,-3.022950172E0,8.340000153E0,-1.369500011E-1,8.872011361E0
2.807702573E0,-3.100050211E0,8.340000153E0,-9.900000691E-2,8.898073660E0
2.809664931E0,-3.100050211E0,8.377950668E0,1.500000060E-2,8.933117805E0
2.811627178E0,-3.214950085E0,8.377950668E0,-9.900000691E-2,8.974171965E0
2.813589451E0,-3.253050089E0,8.340000153E0,-2.205000073E-2,8.952006682E0
2.815551716E0,-3.253050089E0,8.377950668E0,-9.900000691E-2,8.987891481E0
2.817513717E0,-3.330000162E0,8.340000153E0,-6.105000153E-2,8.980435999E0
2.819475795E0,-3.330000162E0,8.416950226E0,-2.205000073E-2,9.051764380E0
2.821437911E0,-3.291000128E0,8.377950668E0,5.295000225E-2,9.001307846E0
2.823400019E0,-3.330000162E0,8.416950226E0,9.195000678E-2,9.052204537E0
2.825362047E0,-3.330000162E0,8.416950226E0,1.300500035E-1,9.052671715E0
2.827324098E0,-3.367950201E0,8.455050468E0,2.070000172E-1,9.103505698E0
2.829286448E0,-3.330000162E0,8.493000031E0,2.449500114E-1,9.125784958E0
2.831248711E0,-3.214950085E0,8.455050468E0,2.449500114E-1,9.048965851E0
2.833211018E0,-3.291000128E0,8.532000542E0,2.449500114E-1,9.147989702E0
2.835173318E0,-3.253050089E0,8.569950104E0,2.830500007E-1,9.170959435E0
2.837135448E0,-3.214950085E0,8.532000542E0,2.830500007E-1,9.122009351E0
2.839097628E0,-3.253050089E0,8.569950104E0,2.449500114E-1,9.169862604E0
2.841059777E0,-3.214950085E0,8.608050346E0,2.830500007E-1,9.193179652E0
2.843021935E0,-3.214950085E0,8.647050858E0,2.830500007E-1,9.229708006E0
2.844983761E0,-3.138000250E0,8.647050858E0,3.220500052E-1,9.204469040E0
2.846945661E0,-3.061050177E0,8.722949982E0,2.449500114E-1,9.247696204E0
2.848907632E0,-3.100050211E0,8.761950493E0,3.220500052E-1,9.299774403E0
2.850869582E0,-2.985000134E0,8.800050735E0,2.830500007E-1,9.296840111E0
2.852830735E0,-2.985000134E0,8.800050735E0,3.979500234E-1,9.301047412E0
2.854792122E0,-2.908050060E0,8.838000298E0,3.600000143E-1,9.311101139E0
2.856754226E0,-2.830950022E0,8.838000298E0,4.360500276E-1,9.290568708E0
2.858716120E0,-2.755050182E0,8.877000809E0,4.750500321E-1,9.306831759E0
2.860678454E0,-2.755050182E0,8.877000809E0,4.750500321E-1,9.306831759E0
2.862640659E0,-2.640000105E0,8.877000809E0,5.509500504E-1,9.277623072E0
2.864602670E0,-2.485950232E0,8.914950371E0,5.509500504E-1,9.271452671E0
2.866564738E0,-2.448000193E0,8.838000298E0,5.130000114E-1,9.185103332E0
2.868526850E0,-2.410050154E0,8.838000298E0,5.509500504E-1,9.177261953E0
2.870488956E0,-2.295000076E0,8.800050735E0,5.509500504E-1,9.111062740E0
2.872451118E0,-2.218050003E0,8.800050735E0,5.899500251E-1,9.094431252E0
2.874413264E0,-2.256000042E0,8.800050735E0,5.509500504E-1,9.101317218E0
2.876375644E0,-2.179949999E0,8.761950493E0,5.509500504E-1,9.045855647E0
2.878337956E0,-2.065050125E0,8.685000420E0,5.899500251E-1,8.946603006E0
2.880300039E0,-2.103000164E0,8.608050346E0,5.899500251E-1,8.880832252E0
2.882262189E0,-2.026050091E0,8.647050858E0,5.130000114E-1,8.896040496E0
2.884224163E0,-2.026050091E0,8.608050346E0,5.509500504E-1,8.860415097E0
2.886186189E0,-1.987950087E0,8.569950104E0,5.509500504E-1,8.814734045E0
2.888148364E0,-1.987950087E0,8.569950104E0,5.509500504E-1,8.814734045E0
2.890110495E0,-2.026050091E0,8.569950104E0,5.130000114E-1,8.821116299E0
2.892072278E0,-2.026050091E0,8.532000542E0,5.899500251E-1,8.789081479E0
2.894034174E0,-2.065050125E0,8.569950104E0,5.509500504E-1,8.832441495E0
2.895996056E0,-2.103000164E0,8.493000031E0,6.280500293E-1,8.772006957E0
2.897957943E0,-2.103000164E0,8.532000542E0,7.050000429E-1,8.815592322E0
2.899919917E0,-2.179949999E0,8.532000542E0,7.429500222E-1,8.837374609E0
2.901881865E0,-2.179949999E0,8.532000542E0,8.200500607E-1,8.844190033E0
2.903843717E0,-2.256000042E0,8.532000542E0,8.959500194E-1,8.870585994E0
2.905805613E0,-2.256000042E0,8.608050346E0,9.349500537E-1,8.947748240E0
2.907767585E0,-2.332950115E0,8.608050346E0,1.011000037E0,8.975706551E0
2.909729534E0,-2.371050119E0,8.647050858E0,1.050000072E0,9.027506154E0
2.911691409E0,-2.371050119E0,8.722949982E0,1.011000037E0,9.095815309E0
2.913653305E0,-2.448000193E0,8.722949982E0,1.087950110E0,9.125031330E0
2.915615322E0,-2.524950027E0,8.722949982E0,1.050000072E0,9.141538666E0
2.917577303E0,-2.563050032E0,8.800050735E0,1.087950110E0,9.230046254E0
2.919539127E0,-2.640000105E0,8.838000298E0,1.050000072E0,9.283444941E0
2.921500997E0,-2.716050148E0,8.914950371E0,1.050000072E0,9.378473686E0
2.923462839E0,-2.755050182E0,8.953050613E0,1.011000037E0,9.421758746E0
2.925424690E0,-2.830950022E0,9.030000687E0,9.730500579E-1,9.513254797E0
2.927386697E0,-2.908050060E0,9.030000687E0,9.730500579E-1,9.536482264E0
2.929348639E0,-2.908050060E0,9.145050049E0,9.349500537E-1,9.641723246E0
2.931310334E0,-2.985000134E0,9.145050049E0,8.959500194E-1,9.661516063E0
2.933272102E0,-3.022950172E0,9.220950127E0,7.810500264E-1,9.735203548E0
2.935234456E0,-3.175950050E0,9.259950638E0,6.660000086E-1,9.812079318E0
2.937196639E0,-3.175950050E0,9.298050880E0,6.660000086E-1,9.848043710E0
2.939158274E0,-3.214950085E0,9.375000000E0,6.280500293E-1,9.930809428E0
2.941120083E0,-3.291000128E0,9.375000000E0,6.280500293E-1,9.955689513E0
2.943082250E0,-3.253050089E0,9.451050758E0,6.280500293E-1,1.001494594E1
2.945044312E0,-3.291000128E0,9.528000832E0,6.660000086E-1,1.010232833E1
2.947006302E0,-3.330000162E0,9.565950394E0,5.509500504E-1,1.014395652E1
2.948968314E0,-3.367950201E0,9.604950905E0,4.750500321E-1,1.018939856E1
2.950930328E0,-3.367950201E0,9.643050194E0,4.360500276E-1,1.022358280E1
2.952892361E0,-3.330000162E0,9.681000710E0,3.979500234E-1,1.024543996E1
2.954854536E0,-3.367950201E0,9.720000267E0,3.600000143E-1,1.029325477E1
2.956816669E0,-3.445050240E0,9.757950783E0,3.220500052E-1,1.035324543E1
2.958778647E0,-3.406050205E0,9.796050072E0,3.600000143E-1,1.037754186E1
2.960740671E0,-3.406050205E0,9.835050583E0,3.220500052E-1,1.041312221E1
2.962703016E0,-3.406050205E0,9.873000145E0,2.070000172E-1,1.044605949E1
2.964665274E0,-3.367950201E0,9.873000145E0,2.449500114E-1,1.043452064E1
2.966626871E0,-3.406050205E0,9.873000145E0,2.070000172E-1,1.044605949E1
2.968588661E0,-3.367950201E0,9.873000145E0,2.070000172E-1,1.043369874E1
2.970550470E0,-3.367950201E0,9.835050583E0,1.300500035E-1,1.039654854E1
2.972512274E0,-3.291000128E0,9.796050072E0,1.300500035E-1,1.033490164E1
2.974473929E0,-3.253050089E0,9.835050583E0,-2.205000073E-2,1.035910426E1
2.976435642E0,-3.291000128E0,9.835050583E0,-1.369500011E-1,1.037196496E1
2.978397510E0,-3.291000128E0,9.873000145E0,-1.759500057E-1,1.040854323E1
2.980359332E0,-3.406050205E0,9.873000145E0,-2.140500098E-1,1.044620157E1
2.982320823E0,-3.367950201E0,9.873000145E0,-1.759500057E-1,1.043312891E1
2.984282411E0,-3.406050205E0,9.873000145E0,-9.900000691E-2,1.044447753E1
2.986243922E0,-3.483000278E0,9.873000145E0,-2.205000073E-2,1.046937959E1
2.988205469E0,-3.520950079E0,9.835050583E0,1.500000060E-2,1.044631679E1
2.990167230E0,-3.559950113E0,9.796050072E0,-6.105000153E-2,1.042303070E1
2.992128929E0,-3.445050240E0,9.757950783E0,-2.205000073E-2,1.034825883E1
2.994090755E0,-3.520950079E0,9.757950783E0,1.500000060E-2,1.037376103E1
2.996052544E0,-3.445050240E0,9.757950783E0,-6.105000153E-2,1.034841542E1
2.998014361E0,-3.445050240E0,9.796050072E0,-9.900000691E-2,1.038464102E1
2.999976197E0,-3.406050205E0,9.835050583E0,-1.759500057E-1,1.040962806E1
3.001938090E0,-3.445050240E0,9.835050583E0,-2.910000086E-1,1.042503104E1
3.003899967E0,-3.367950201E0,9.873000145E0,-4.060500264E-1,1.043954487E1
3.005861943E0,-3.367950201E0,9.873000145E0,-4.060500264E-1,1.043954487E1
3.007823890E0,-3.445050240E0,9.910950661E0,-3.670500219E-1,1.049904947E1
3.009784729E0,-3.445050240E0,9.949950218E0,-3.289500177E-1,1.053461383E1
3.011746243E0,-3.483000278E0,9.988050461E0,-2.520000041E-1,1.058092373E1
3.013708280E0,-3.483000278E0,1.002600002E1,-2.910000086E-1,1.061775157E1
3.015670164E0,-3.520950079E0,1.002600002E1,-1.759500057E-1,1.062773373E1
3.017631869E0,-3.559950113E0,1.006500053E1,-9.900000691E-2,1.067648264E1
3.019593627E0,-3.559950113E0,1.006500053E1,-2.205000073E-2,1.067604640E1
3.021555244E0,-3.483000278E0,1.002600002E1,2.070000172E-1,1.061578148E1
3.023516916E0,-3.520950079E0,1.014105034E1,2.070000172E-1,1.073689156E1
3.025478656E0,-3.445050240E0,1.014105034E1,5.295000225E-2,1.071037239E1
3.027440376E0,-3.367950201E0,1.021800041E1,1.680000126E-1,1.076005785E1
3.029401704E0,-3.291000128E0,1.021800041E1,2.070000172E-1,1.073690194E1
3.031363147E0,-3.214950085E0,1.025595093E1,3.220500052E-1,1.075286704E1
3.033324502E0,-3.175950050E0,1.025595093E1,5.130000114E-1,1.074869095E1
3.035285897E0,-3.100050211E0,1.037100029E1,5.899500251E-1,1.084047966E1
3.037247639E0,-3.061050177E0,1.033305073E1,5.509500504E-1,1.079099215E1
3.039209280E0,-2.985000134E0,1.037100029E1,5.899500251E-1,1.080814109E1
3.041171161E0,-2.985000134E0,1.041000080E1,3.600000143E-1,1.083549457E1
3.043132972E0,-2.908050060E0,1.044795036E1,3.600000143E-1,1.085108391E1
3.045094630E0,-2.908050060E0,1.052505016E1,4.360500276E-1,1.092810943E1
3.047056344E0,-2.908050060E0,1.056300068E1,5.130000114E-1,1.096799469E1
3.049018166E0,-2.830950022E0,1.056300068E1,6.660000086E-1,1.095604022E1
3.050979957E0,-2.830950022E0,1.056300068E1,8.200500607E-1,1.096648273E1
3.052941634E0,-2.869950056E0,1.056300068E1,8.580000401E-1,1.097951551E1
3.054903344E0,-2.793000221E0,1.048605061E1,9.730500579E-1,1.089517939E1
3.056865023E0,-2.793000221E0,1.048605061E1,1.165050030E0,1.091400243E1
3.058826718E0,-2.869950056E0,1.044795036E1,9.730500579E-1,1.087856179E1
3.060788769E0,-2.793000221E0,1.048605061E1,9.349500537E-1,1.089184278E1
3.062750716E0,-2.830950022E0,1.052505016E1,1.050000072E0,1.094958717E1
3.064712546E0,-2.793000221E0,1.052505016E1,1.240950108E0,1.095981242E1
3.066674411E0,-2.716050148E0,1.056300068E1,1.395000100E0,1.099545074E1
3.068636102E0,-2.755050182E0,1.052505016E1,1.510050058E0,1.098395346E1
3.070597824E0,-2.677950144E0,1.048605061E1,1.510050058E0,1.092743911E1
3.072559555E0,-2.677950144E0,1.048605061E1,1.624950051E0,1.094390867E1
3.074521284E0,-2.640000105E0,1.044795036E1,1.777950048E0,1.092201326E1
3.076483285E0,-2.601000071E0,1.041000080E1,2.008050203E0,1.091629899E1
3.078445207E0,-2.640000105E0,1.037100029E1,1.777950048E0,1.084842633E1
3.080406921E0,-2.601000071E0,1.037100029E1,1.893000126E0,1.085846664E1
3.082368685E0,-2.601000071E0,1.037100029E1,2.046000004E0,1.088618227E1
3.084330499E0,-2.601000071E0,1.025595093E1,2.467950106E0,1.086464489E1
3.086292299E0,-2.524950027E0,1.037100029E1,2.545050144E0,1.097316271E1
3.088254019E0,-2.563050032E0,1.037100029E1,2.698050022E0,1.101845481E1
3.090215762E0,-2.485950232E0,1.041000080E1,2.812950134E0,1.106619870E1
3.092177415E0,-2.448000193E0,1.037100029E1,3.004050255E0,1.107134454E1
3.094139084E0,-2.371050119E0,1.029495049E1,3.081000090E0,1.100456477E1
3.096101140E0,-2.295000076E0,1.025595093E1,3.388050079E0,1.104221165E1
3.098063082E0,-2.218050003E0,1.021800041E1,3.579000235E0,1.105153930E1
3.100025137E0,-2.179949999E0,1.010295010E1,3.655950069E0,1.096301754E1
3.101987159E0,-2.218050003E0,9.720000267E0,3.808950186E0,1.067268722E1
3.103948986E0,-2.103000164E0,1.002600002E1,3.886050224E0,1.095648997E1
3.105910863E0,-1.834950089E0,1.002600002E1,3.733050108E0,1.085464792E1
3.107872479E0,-1.642950058E0,9.949950218E0,3.733050108E0,1.075343933E1
3.109834171E0,-1.567050099E0,9.681000710E0,3.963000298E0,1.057746624E1
3.111795863E0,-1.567050099E0,9.681000710E0,4.039050102E0,1.060619378E1
3.113757555E0,-1.297950029E0,9.757950783E0,4.153950214E0,1.068445507E1
3.115719767E0,-1.222050071E0,9.604950905E0,4.231050014E0,1.056646925E1
3.117681841E0,-1.068000078E0,9.565950394E0,4.345950127E0,1.056102806E1
3.119643695E0,-8.380500674E-1,9.528000832E0,4.384050369E0,1.052164557E1
3.121605613E0,-6.850500107E-1,9.490050316E0,4.423050404E0,1.049255562E1
3.123567761E0,-5.320500135E-1,9.375000000E0,4.537950039E0,1.042912713E1
3.125529841E0,-3.780000210E-1,9.220950127E0,4.576050282E0,1.030092430E1
3.127491649E0,-2.250000089E-1,9.259950638E0,4.576050282E0,1.033138650E1
3.129453536E0,-7.200000435E-2,9.220950127E0,4.576050282E0,1.029423826E1
3.131415420E0,1.189500093E-1,9.145050049E0,4.498950005E0,1.019247961E1
3.133377305E0,2.340000123E-1,9.030000687E0,4.461000443E0,1.007453192E1
3.135340045E0,4.260000288E-1,8.991000175E0,4.498950005E0,1.006280832E1
3.137302534E0,5.790000558E-1,8.953050613E0,4.423050404E0,1.000278617E1
3.139264646E0,6.940500140E-1,8.877000809E0,4.537950039E0,9.993790039E0
3.141226858E0,8.850000501E-1,8.838000298E0,4.537950039E0,9.974290195E0
3.143189181E0,1.000050068E0,8.761950493E0,4.576050282E0,9.935396960E0
3.145151472E0,1.153950095E0,8.685000420E0,4.653000355E0,9.920244221E0
3.147113738E0,1.306950092E0,8.608050346E0,4.690950394E0,9.889978003E0
3.149076012E0,1.345050097E0,8.532000542E0,4.653000355E0,9.810943141E0
3.151038344E0,1.498950124E0,8.416950226E0,4.653000355E0,9.733566401E0
3.153000645E0,1.575000048E0,8.340000153E0,4.614000320E0,9.660498261E0
3.154962594E0,1.690050125E0,8.263050079E0,4.576050282E0,9.595545957E0
3.156924647E0,1.804950118E0,8.302050591E0,4.498950005E0,9.613659037E0
3.158886817E0,1.843950033E0,8.302050591E0,4.461000443E0,9.603370277E0
3.160848952E0,1.882050037E0,8.263050079E0,4.345950127E0,9.524042811E0
3.162811128E0,1.959000111E0,8.377950668E0,4.116000175E0,9.537777324E0
3.164773279E0,1.920000076E0,8.377950668E0,3.924000263E0,9.448504419E0
3.166735119E0,1.843950033E0,8.416950226E0,3.694050074E0,9.375031135E0
3.168697050E0,1.767000079E0,8.377950668E0,2.928000212E0,9.049062488E0
3.170659061E0,1.729050040E0,8.455050468E0,2.467950106E0,8.975982965E0
3.172621048E0,1.729050040E0,8.608050346E0,2.583000183E0,9.152050850E0
3.174583196E0,1.690050125E0,8.722949982E0,2.545050144E0,9.242478350E0
3.176545289E0,1.690050125E0,8.838000298E0,2.583000183E0,9.361538796E0
3.178507319E0,1.690050125E0,8.877000809E0,2.620950222E0,9.408867777E0
3.180469368E0,1.614000082E0,8.991000175E0,2.506050110E0,9.472241951E0
3.182431179E0,1.690050125E0,9.067950249E0,2.430000067E0,9.538809751E0
3.184393060E0,1.690050125E0,9.030000687E0,2.200050116E0,9.446555051E0
3.186355078E0,1.651950121E0,9.145050049E0,1.855050087E0,9.476396489E0
3.188317025E0,1.498950124E0,9.298050880E0,1.701000094E0,9.570475587E0
3.190278900E0,1.459950089E0,9.298050880E0,1.585950017E0,9.544655148E0
3.192240796E0,1.345050097E0,9.490050316E0,1.585950017E0,9.715217559E0
3.194202633E0,1.230000019E0,9.720000267E0,1.663050056E0,9.937657708E0
3.196164488E0,1.114950061E0,9.873000145E0,1.740000129E0,1.008696416E1
3.198126606E0,8.850000501E-1,1.006500053E1,1.777950048E0,1.025907243E1
3.200088295E0,6.940500140E-1,1.025595093E1,1.777950048E0,1.043203438E1
3.202049267E0,4.639500082E-1,1.041000080E1,1.816050053E0,1.057740063E1
3.204010449E0,3.109500110E-1,1.063995075E1,1.893000126E0,1.081150736E1
3.205972273E0,1.570500135E-1,1.083105087E1,2.046000004E0,1.102372186E1
3.207933908E0,4.050000105E-3,1.094595051E1,2.008050203E0,1.112861692E1
3.209896120E0,-1.099500060E-1,1.113795090E1,2.046000004E0,1.132484681E1
3.211858153E0,-2.250000089E-1,1.129095078E1,2.008050203E0,1.147032955E1
3.213819788E0,-3.780000210E-1,1.136805058E1,2.046000004E0,1.155688426E1
3.215781540E0,-4.549500346E-1,1.152105045E1,2.161050081E0,1.173080221E1
3.217743446E0,-4.930500090E-1,1.155900097E1,2.238000154E0,1.178398262E1
3.219705307E0,-5.320500135E-1,1.163595009E1,2.275950193E0,1.186837651E1
3.221667351E0,-6.469500065E-1,1.167405033E1,2.314950228E0,1.191893410E1
3.223629327E0,-7.230000496E-1,1.175100040E1,2.238000154E0,1.198404707E1
3.225591287E0,-7.620000243E-1,1.182795048E1,2.314950228E0,1.207642543E1
3.227553252E0,-8.380500674E-1,1.186605072E1,2.353049994E0,1.212610126E1
3.229515302E0,-9.150000215E-1,1.182795048E1,2.122950077E0,1.205174488E1
3.231477327E0,-9.919500351E-1,1.186605072E1,2.238000154E0,1.211593039E1
3.233439638E0,-1.106999993E0,1.194300079E1,2.467950106E0,1.224546833E1
3.235401865E0,-1.222050071E0,1.194300079E1,2.506050110E0,1.226413313E1
3.237363827E0,-1.222050071E0,1.201905060E1,2.620950222E0,1.236205338E1
3.239325867E0,-1.375050068E0,1.201905060E1,2.467950106E0,1.234662374E1
3.241287905E0,-1.528050065E0,1.198095036E1,2.314950228E0,1.229784953E1
3.243249944E0,-1.758000135E0,1.194300079E1,2.200050116E0,1.227053597E1
3.245211946E0,-2.026050091E0,1.186605072E1,1.855050087E0,1.217987067E1
3.247173953E0,-2.371050119E0,1.182795048E1,1.701000094E0,1.218259794E1
3.249135772E0,-2.677950144E0,1.171305084E1,1.471050024E0,1.210499753E1
3.251097646E0,-2.985000134E0,1.163595009E1,1.356000066E0,1.208901553E1
3.253059667E0,-3.291000128E0,1.152105045E1,1.203000069E0,1.204211338E1
3.255021644E0,-3.520950079E0,1.136805058E1,1.087950110E0,1.195045182E1
3.256983543E0,-3.675000191E0,1.125300026E1,9.730500579E-1,1.187781409E1
3.258945508E0,-3.904950142E0,1.110000038E1,8.200500607E-1,1.179538580E1
3.260907513E0,-4.057950020E0,1.102305031E1,7.429500222E-1,1.176973114E1
3.262869506E0,-4.096050262E0,1.087005043E1,7.429500222E-1,1.163991404E1
3.264831687E0,-4.173000336E0,1.075500011E1,6.280500293E-1,1.155328551E1
3.266793813E0,-4.173000336E0,1.063995075E1,5.899500251E-1,1.144423544E1
3.268755967E0,-4.134000301E0,1.052505016E1,6.280500293E-1,1.132524111E1
3.270718116E0,-4.057950020E0,1.029495049E1,4.750500321E-1,1.107603884E1
3.272681172E0,-3.712950230E0,9.720000267E0,-6.360000372E-1,1.042443767E1
3.274643962E0,-3.483000278E0,1.002600002E1,5.295000225E-2,1.061389519E1
3.276605467E0,-3.675000191E0,1.014105034E1,9.349500537E-1,1.082684903E1
3.278567349E0,-3.828000069E0,1.018005085E1,1.087950110E0,1.093026328E1
3.280529530E0,-3.904950142E0,1.018005085E1,8.959500194E-1,1.094005472E1
3.282491636E0,-3.943050146E0,1.010295010E1,6.280500293E-1,1.086331864E1
3.284454564E0,-3.943050146E0,9.988050461E0,3.979500234E-1,1.074556470E1
3.286417251E0,-3.943050146E0,9.910950661E0,2.070000172E-1,1.066852551E1
3.288379134E0,-3.904950142E0,9.835050583E0,1.300500035E-1,1.058271083E1
3.290341253E0,-3.828000069E0,9.757950783E0,5.295000225E-2,1.048207955E1
3.292303037E0,-3.790050268E0,9.643050194E0,2.070000172E-1,1.036319194E1
3.294264930E0,-3.751050234E0,9.565950394E0,2.449500114E-1,1.027802439E1
3.296226723E0,-3.636000156E0,9.528000832E0,2.830500007E-1,1.020212793E1
