"Time (s)","Acceleration x (m/s^2)","Acceleration y (m/s^2)","Acceleration z (m/s^2)","Absolute acceleration (m/s^2)"
3.143182900E-2,-9.529500604E-1,8.685000420E0,-2.140500098E-1,8.739746193E0
3.339108000E-2,-9.529500604E-1,8.722949982E0,-2.140500098E-1,8.777459063E0
3.535306000E-2,-9.150000215E-1,8.685000420E0,-2.140500098E-1,8.735689711E0
3.731326100E-2,-9.529500604E-1,8.685000420E0,-2.520000041E-1,8.740757982E0
3.927398300E-2,-1.030050039E0,8.722949982E0,-2.520000041E-1,8.787170390E0
4.123476000E-2,-1.030050039E0,8.685000420E0,-2.910000086E-1,8.750709479E0
4.319552000E-2,-9.919500351E-1,8.722949982E0,-2.910000086E-1,8.783991249E0
4.515593100E-2,-9.919500351E-1,8.722949982E0,-3.289500177E-1,8.785330351E0
4.711644500E-2,-9.919500351E-1,8.761950493E0,-2.910000086E-1,8.822721934E0
4.907730200E-2,-9.529500604E-1,8.800050735E0,-2.910000086E-1,8.856279567E0
5.103805800E-2,-9.919500351E-1,8.800050735E0,-1.759500057E-1,8.857528788E0
5.299878600E-2,-9.919500351E-1,8.800050735E0,-2.910000086E-1,8.860560864E0
5.495952200E-2,-9.919500351E-1,8.914950371E0,-3.670500219E-1,8.977473515E0
5.692016100E-2,-9.529500604E-1,8.914950371E0,-3.670500219E-1,8.973247999E0
5.888082900E-2,-1.030050039E0,8.914950371E0,-4.060500264E-1,8.983441424E0
6.084179500E-2,-9.919500351E-1,8.953050613E0,-3.670500219E-1,9.015309528E0
6.280267300E-2,-9.919500351E-1,8.991000175E0,-2.910000086E-1,9.050233700E0
6.476342000E-2,-1.030050039E0,8.991000175E0,-4.440000355E-1,9.060696622E0
6.672420900E-2,-1.030050039E0,8.991000175E0,-5.209500194E-1,9.064793222E0
6.868492900E-2,-1.106999993E0,8.991000175E0,-4.819500148E-1,9.071703752E0
7.064567000E-2,-1.068000078E0,9.030000687E0,-5.590500236E-1,9.110108314E0
7.260644300E-2,-1.106999993E0,9.030000687E0,-5.970000029E-1,9.117168990E0
7.456720700E-2,-1.144950032E0,9.030000687E0,-5.970000029E-1,9.121854635E0
7.652798100E-2,-1.106999993E0,9.030000687E0,-7.510500550E-1,9.128550683E0
7.848874900E-2,-1.106999993E0,9.067950249E0,-5.970000029E-1,9.154757217E0
8.044938500E-2,-1.144950032E0,9.106050491E0,-5.590500236E-1,9.194759543E0
8.241005900E-2,-1.222050071E0,9.067950249E0,-9.040500522E-1,9.194478484E0
8.437097900E-2,-1.144950032E0,9.067950249E0,-9.040500522E-1,9.184548916E0
8.633182600E-2,-1.106999993E0,9.106050491E0,-7.120500207E-1,9.200685831E0
8.829247700E-2,-1.144950032E0,9.067950249E0,-8.269500136E-1,9.177280567E0
9.025316500E-2,-1.144950032E0,9.030000687E0,-9.040500522E-1,9.147083113E0
9.221412700E-2,-1.106999993E0,9.067950249E0,-7.510500550E-1,9.166092236E0
9.417500900E-2,-1.183050036E0,9.106050491E0,-8.269500136E-1,9.219740195E0
9.613558000E-2,-1.183050036E0,9.067950249E0,-8.269500136E-1,9.182111708E0
9.809624200E-2,-1.183050036E0,9.067950249E0,-8.269500136E-1,9.182111708E0
1.000571210E-1,-1.222050071E0,9.030000687E0,-9.040500522E-1,9.157053307E0
1.020179660E-1,-1.183050036E0,9.106050491E0,-7.510500550E-1,9.213242596E0
1.039785430E-1,-1.183050036E0,9.067950249E0,-8.659500480E-1,9.185706211E0
1.059391990E-1,-1.183050036E0,9.067950249E0,-9.810000658E-1,9.197265367E0
1.078996720E-1,-1.106999993E0,9.030000687E0,-1.018950105E0,9.154486370E0
1.098601990E-1,-1.144950032E0,9.030000687E0,-9.810000658E-1,9.155008690E0
1.118211430E-1,-1.144950032E0,8.914950371E0,-1.096050024E0,9.054754350E0
1.137819650E-1,-1.144950032E0,8.914950371E0,-1.134000063E0,9.059426407E0
1.157427270E-1,-1.183050036E0,8.914950371E0,-1.057050109E0,9.055015319E0
1.177035060E-1,-1.222050071E0,8.914950371E0,-1.096050024E0,9.064826096E0
1.196646330E-1,-1.183050036E0,8.914950371E0,-1.057050109E0,9.055015319E0
1.216256580E-1,-1.183050036E0,8.914950371E0,-9.420000315E-1,9.042306761E0
1.235866000E-1,-1.297950029E0,8.953050613E0,-9.810000658E-1,9.099678604E0
1.255475410E-1,-1.260000110E0,8.914950371E0,-9.810000658E-1,9.056837280E0
1.275081450E-1,-1.297950029E0,8.838000298E0,-1.057050109E0,8.995125262E0
1.294688480E-1,-1.297950029E0,8.838000298E0,-1.096050024E0,8.999791619E0
1.314295830E-1,-1.336950064E0,8.761950493E0,-1.096050024E0,8.930875521E0
1.333903080E-1,-1.413000107E0,8.722949982E0,-1.096050024E0,8.904366981E0
1.353512700E-1,-1.452000022E0,8.685000420E0,-1.057050109E0,8.868759287E0
1.373121590E-1,-1.452000022E0,8.608050346E0,-1.057050109E0,8.793417411E0
1.392727740E-1,-1.375050068E0,8.532000542E0,-1.057050109E0,8.706500495E0
1.412334690E-1,-1.489950061E0,8.493000031E0,-1.018950105E0,8.682698890E0
1.431938900E-1,-1.528050065E0,8.455050468E0,-1.096050024E0,8.661647712E0
1.451543920E-1,-1.567050099E0,8.416950226E0,-1.096050024E0,8.631455426E0
1.471148550E-1,-1.642950058E0,8.377950668E0,-1.018950105E0,8.598116166E0
1.490753240E-1,-1.605000019E0,8.377950668E0,-1.018950105E0,8.590945337E0
1.510361440E-1,-1.720050097E0,8.340000153E0,-1.057050109E0,8.580881645E0
1.529968610E-1,-1.795950055E0,8.302050591E0,-1.096050024E0,8.564508524E0
1.549575940E-1,-1.795950055E0,8.224950790E0,-1.096050024E0,8.489792563E0
1.569183220E-1,-1.758000135E0,8.224950790E0,-1.096050024E0,8.481845650E0
1.588787250E-1,-1.795950055E0,8.224950790E0,-9.810000658E-1,8.475707241E0
1.608392330E-1,-1.795950055E0,8.187000275E0,-9.810000658E-1,8.438884478E0
1.627997320E-1,-1.873050094E0,8.148000717E0,-1.057050109E0,8.427074657E0
1.647602330E-1,-1.911000133E0,8.148000717E0,-1.096050024E0,8.440566500E0
1.667208220E-1,-1.950000048E0,8.110050201E0,-1.057050109E0,8.407899226E0
1.686813850E-1,-1.950000048E0,8.148000717E0,-1.096050024E0,8.449481731E0
1.706420190E-1,-1.950000048E0,8.148000717E0,-1.134000063E0,8.454488276E0
1.726026250E-1,-1.987950087E0,8.148000717E0,-1.096050024E0,8.458320571E0
1.745631080E-1,-1.987950087E0,8.110050201E0,-1.210950017E0,8.437491319E0
1.765236270E-1,-2.026050091E0,8.071949959E0,-1.134000063E0,8.399238730E0
1.784844380E-1,-2.026050091E0,8.148000717E0,-1.134000063E0,8.472352141E0
1.804451630E-1,-2.140950203E0,8.110050201E0,-1.210950017E0,8.474844068E0
1.824059400E-1,-2.065050125E0,8.110050201E0,-1.249050021E0,8.461528954E0
1.843667020E-1,-2.140950203E0,8.110050201E0,-1.326000094E0,8.492046767E0
1.863274280E-1,-2.140950203E0,8.187000275E0,-1.363950014E0,8.571522672E0
1.882881650E-1,-2.140950203E0,8.187000275E0,-1.287000060E0,8.559615086E0
1.902488050E-1,-2.179949999E0,8.187000275E0,-1.402050018E0,8.587485065E0
1.922094730E-1,-2.218050003E0,8.224950790E0,-1.363950014E0,8.627277726E0
1.941702480E-1,-2.256000042E0,8.263050079E0,-1.441050053E0,8.685859661E0
1.961309670E-1,-2.295000076E0,8.302050591E0,-1.479000092E0,8.739479998E0
1.980914310E-1,-2.410050154E0,8.302050591E0,-1.479000092E0,8.770394918E0
2.000519690E-1,-2.371050119E0,8.340000153E0,-1.516950130E0,8.802193983E0
2.020129570E-1,-2.371050119E0,8.377950668E0,-1.594050050E0,8.851719134E0
2.039738130E-1,-2.448000193E0,8.455050468E0,-1.671000123E0,8.959510298E0
2.059345390E-1,-2.448000193E0,8.493000031E0,-1.747050047E0,9.009769050E0
2.078953240E-1,-2.448000193E0,8.532000542E0,-1.747050047E0,9.046541994E0
2.098560910E-1,-2.371050119E0,8.532000542E0,-1.861950040E0,9.048965127E0
2.118168630E-1,-2.448000193E0,8.532000542E0,-1.824000120E0,9.061716980E0
2.137775860E-1,-2.448000193E0,8.569950104E0,-1.861950040E0,9.105141826E0
2.157383240E-1,-2.448000193E0,8.569950104E0,-1.900950074E0,9.113197074E0
2.176989040E-1,-2.485950232E0,8.608050346E0,-1.939050078E0,9.167245744E0
2.196595410E-1,-2.448000193E0,8.608050346E0,-1.939050078E0,9.157027406E0
2.216203770E-1,-2.410050154E0,8.608050346E0,-2.053950071E0,9.171999968E0
2.235811540E-1,-2.410050154E0,8.647050858E0,-2.092050076E0,9.217185243E0
2.255419230E-1,-2.448000193E0,8.685000420E0,-2.130000114E0,9.271398908E0
2.275026950E-1,-2.485950232E0,8.685000420E0,-2.169000149E0,9.290518957E0
2.294632740E-1,-2.485950232E0,8.685000420E0,-2.245050192E0,9.308567624E0
2.314239160E-1,-2.448000193E0,8.685000420E0,-2.245050192E0,9.298504589E0
2.333847060E-1,-2.448000193E0,8.722949982E0,-2.322000027E0,9.352766727E0
2.353454520E-1,-2.410050154E0,8.685000420E0,-2.284050226E0,9.298089022E0
2.373063600E-1,-2.371050119E0,8.761950493E0,-2.359950066E0,9.378860241E0
2.392672210E-1,-2.410050154E0,8.800050735E0,-2.398950100E0,9.434203531E0
2.412278360E-1,-2.410050154E0,8.761950493E0,-2.398950100E0,9.398674362E0
2.431885260E-1,-2.410050154E0,8.761950493E0,-2.398950100E0,9.398674362E0
2.451494880E-1,-2.410050154E0,8.800050735E0,-2.359950066E0,9.424361994E0
2.471103700E-1,-2.410050154E0,8.761950493E0,-2.359950066E0,9.388795583E0
2.490712550E-1,-2.410050154E0,8.722949982E0,-2.322000027E0,9.342905450E0
2.510321390E-1,-2.332950115E0,8.722949982E0,-2.322000027E0,9.323314687E0
2.529930260E-1,-2.410050154E0,8.761950493E0,-2.322000027E0,9.379328457E0
2.549539430E-1,-2.371050119E0,8.761950493E0,-2.284050226E0,9.360050243E0
2.569146880E-1,-2.410050154E0,8.685000420E0,-2.359950066E0,9.317024114E0
2.588754830E-1,-2.448000193E0,8.722949982E0,-2.359950066E0,9.362260712E0
2.608362920E-1,-2.448000193E0,8.722949982E0,-2.398950100E0,9.372167461E0
2.627970960E-1,-2.448000193E0,8.722949982E0,-2.359950066E0,9.362260712E0
2.647580450E-1,-2.563050032E0,8.722949982E0,-2.322000027E0,9.383536965E0
2.667189480E-1,-2.485950232E0,8.685000420E0,-2.322000027E0,9.327425420E0
2.686800100E-1,-2.563050032E0,8.685000420E0,-2.322000027E0,9.348269459E0
2.706410250E-1,-2.640000105E0,8.685000420E0,-2.169000149E0,9.332919934E0
2.726019330E-1,-2.601000071E0,8.685000420E0,-2.092050076E0,9.304359579E0
2.745628730E-1,-2.601000071E0,8.647050858E0,-2.130000114E0,9.277585375E0
2.765239380E-1,-2.601000071E0,8.647050858E0,-2.053950071E0,9.260421200E0
2.784849910E-1,-2.677950144E0,8.647050858E0,-2.014950037E0,9.273776424E0
2.804458930E-1,-2.716050148E0,8.569950104E0,-2.014950037E0,9.213088344E0
2.824068390E-1,-2.716050148E0,8.569950104E0,-2.014950037E0,9.213088344E0
2.843679820E-1,-2.716050148E0,8.532000542E0,-1.977000117E0,9.169541489E0
2.863290680E-1,-2.677950144E0,8.493000031E0,-2.014950037E0,9.130306136E0
2.882904590E-1,-2.716050148E0,8.532000542E0,-1.900950074E0,9.153445954E0
2.902517600E-1,-2.677950144E0,8.532000542E0,-1.786050081E0,9.119014481E0
2.922126190E-1,-2.677950144E0,8.493000031E0,-1.824000120E0,9.090073868E0
2.941736080E-1,-2.677950144E0,8.532000542E0,-1.861950040E0,9.134183498E0
2.961343840E-1,-2.716050148E0,8.569950104E0,-1.824000120E0,9.173219153E0
2.980952230E-1,-2.755050182E0,8.569950104E0,-1.824000120E0,9.184842009E0
3.000561700E-1,-2.716050148E0,8.569950104E0,-1.900950074E0,9.188829325E0
3.020170780E-1,-2.677950144E0,8.608050346E0,-1.900950074E0,9.213227389E0
3.039781390E-1,-2.716050148E0,8.608050346E0,-1.900950074E0,9.224373711E0
3.059391550E-1,-2.677950144E0,8.647050858E0,-1.900950074E0,9.249676572E0
3.079000630E-1,-2.716050148E0,8.685000420E0,-1.900950074E0,9.296223528E0
3.098610030E-1,-2.755050182E0,8.685000420E0,-1.939050078E0,9.315548776E0
3.118220860E-1,-2.793000221E0,8.685000420E0,-1.900950074E0,9.318996390E0
3.137831390E-1,-2.830950022E0,8.800050735E0,-1.900950074E0,9.437625875E0
3.157440860E-1,-2.793000221E0,8.838000298E0,-1.861950040E0,9.453991614E0
3.177050640E-1,-2.793000221E0,8.838000298E0,-1.824000120E0,9.446590704E0
3.196659770E-1,-2.793000221E0,8.838000298E0,-1.939050078E0,9.469478059E0
3.216269100E-1,-2.869950056E0,8.838000298E0,-1.900950074E0,9.484749536E0
3.235877960E-1,-2.830950022E0,8.838000298E0,-1.939050078E0,9.480740609E0
3.255486890E-1,-2.869950056E0,8.800050735E0,-1.977000117E0,9.464990002E0
3.275096610E-1,-2.869950056E0,8.838000298E0,-2.014950037E0,9.508253585E0
3.294706100E-1,-2.830950022E0,8.838000298E0,-2.014950037E0,9.496554688E0
3.314313500E-1,-2.830950022E0,8.877000809E0,-1.977000117E0,9.524912118E0
3.333921510E-1,-2.793000221E0,8.838000298E0,-2.014950037E0,9.485310915E0
3.353530340E-1,-2.830950022E0,8.914950371E0,-1.977000117E0,9.560290142E0
3.373139030E-1,-2.908050060E0,8.877000809E0,-1.939050078E0,9.540325661E0
3.392748350E-1,-2.830950022E0,8.877000809E0,-2.014950037E0,9.532861325E0
3.412357490E-1,-2.830950022E0,8.953050613E0,-1.939050078E0,9.588081587E0
3.431968990E-1,-2.830950022E0,8.953050613E0,-1.939050078E0,9.588081587E0
3.451579800E-1,-2.830950022E0,8.953050613E0,-1.939050078E0,9.588081587E0
3.471190220E-1,-2.793000221E0,8.953050613E0,-2.014950037E0,9.592600751E0
3.490800690E-1,-2.793000221E0,8.991000175E0,-1.939050078E0,9.612432033E0
3.510408350E-1,-2.755050182E0,8.953050613E0,-1.824000120E0,9.543290482E0
3.530016840E-1,-2.793000221E0,8.991000175E0,-1.786050081E0,9.582740176E0
3.549627990E-1,-2.908050060E0,9.030000687E0,-1.747050047E0,9.646235090E0
3.569238360E-1,-2.869950056E0,9.106050491E0,-1.671000123E0,9.692729764E0
3.588850450E-1,-2.869950056E0,9.220950127E0,-1.594050050E0,9.787927775E0
3.608462110E-1,-2.869950056E0,9.259950638E0,-1.516950130E0,9.812463342E0
3.628073180E-1,-2.908050060E0,9.375000000E0,-1.363950014E0,9.909981826E0
3.647684430E-1,-2.946000099E0,9.451050758E0,-1.287000060E0,9.982867633E0
3.667294670E-1,-2.985000134E0,9.565950394E0,-1.287000060E0,1.010316791E1
3.686905200E-1,-3.022950172E0,9.681000710E0,-1.171950102E0,1.020947940E1
3.706513010E-1,-2.985000134E0,9.720000267E0,-1.134000063E0,1.023105992E1
3.726121510E-1,-3.022950172E0,9.873000145E0,-1.096050024E0,1.038343321E1
3.745732210E-1,-3.022950172E0,9.988050461E0,-1.057050109E0,1.048888625E1
3.765342260E-1,-2.908050060E0,1.014105034E1,-1.096050024E0,1.060655377E1
3.784953150E-1,-2.908050060E0,1.018005085E1,-1.057050109E0,1.063990345E1
3.804563790E-1,-2.793000221E0,1.025595093E1,-1.018950105E0,1.067818519E1
3.824172500E-1,-2.830950022E0,1.037100029E1,-1.018950105E0,1.079861956E1
3.843781990E-1,-2.677950144E0,1.048605061E1,-1.018950105E0,1.087046152E1
3.863391170E-1,-2.640000105E0,1.056300068E1,-9.420000315E-1,1.092858399E1
3.883000450E-1,-2.563050032E0,1.060095024E1,-7.890000343E-1,1.093489335E1
3.902608320E-1,-2.485950232E0,1.067805004E1,-7.510500550E-1,1.098930286E1
3.922216600E-1,-2.332950115E0,1.075500011E1,-7.120500207E-1,1.102813216E1
3.941824330E-1,-2.218050003E0,1.079295063E1,-5.209500194E-1,1.103081674E1
3.961432130E-1,-2.140950203E0,1.090800095E1,-4.440000355E-1,1.112498487E1
3.981038000E-1,-1.987950087E0,1.090800095E1,-2.910000086E-1,1.109148823E1
4.000644430E-1,-1.911000133E0,1.098495007E1,-2.520000041E-1,1.115278232E1
4.020248740E-1,-1.873050094E0,1.102305031E1,-4.440000355E-1,1.118986554E1
4.039853670E-1,-1.834950089E0,1.106100082E1,-7.890000343E-1,1.123989778E1
4.059451020E-1,-1.489950061E0,1.113795090E1,1.500000060E-2,1.123717609E1
4.079050590E-1,-1.452000022E0,1.132905006E1,6.280500293E-1,1.143897400E1
4.098661470E-1,-1.336950064E0,1.144395065E1,8.580000401E-1,1.155368366E1
4.118269030E-1,-1.260000110E0,1.155900097E1,7.429500222E-1,1.165118356E1
4.137879900E-1,-1.144950032E0,1.167405033E1,5.899500251E-1,1.174488837E1
4.157489800E-1,-1.106999993E0,1.178895092E1,5.899500251E-1,1.185549889E1
4.177100870E-1,-1.068000078E0,1.190400028E1,4.750500321E-1,1.196125075E1
4.196711490E-1,-9.150000215E-1,1.201905060E1,5.509500504E-1,1.206641406E1
4.216318690E-1,-8.770500422E-1,1.217295074E1,6.280500293E-1,1.222065438E1
4.235926890E-1,-7.999500632E-1,1.232595062E1,7.050000429E-1,1.237198464E1
4.255536740E-1,-7.999500632E-1,1.236405087E1,3.220500052E-1,1.239408690E1
4.275146100E-1,-6.850500107E-1,1.240305042E1,3.220500052E-1,1.242612850E1
4.294753710E-1,-4.549500346E-1,1.263300037E1,1.087950110E0,1.268791998E1
4.314361700E-1,-4.170000255E-1,1.274805069E1,1.395000100E0,1.283092790E1
4.333969340E-1,-3.019500077E-1,1.293900108E1,1.432950020E0,1.302160776E1
4.353577080E-1,-2.629500031E-1,1.305405045E1,1.395000100E0,1.313100914E1
4.373182510E-1,-1.870500147E-1,1.313100052E1,1.279950023E0,1.319456079E1
4.392788620E-1,-3.299999982E-2,1.316895103E1,1.203000069E0,1.322382583E1
4.412397010E-1,-3.299999982E-2,1.316895103E1,1.203000069E0,1.322382583E1
4.432004420E-1,4.200000316E-2,1.316895103E1,1.240950108E0,1.322735773E1
4.451609020E-1,2.340000123E-1,1.313100052E1,1.356000066E0,1.320290373E1
4.471214440E-1,3.870000243E-1,1.305405045E1,1.432950020E0,1.313816379E1
4.490831070E-1,5.020500422E-1,1.290105057E1,1.471050024E0,1.299435063E1
4.510444420E-1,6.940500140E-1,1.274805069E1,1.548000097E0,1.286043569E1
4.530051740E-1,7.699500322E-1,1.259400082E1,1.585950017E0,1.271679665E1
4.549660730E-1,8.470500112E-1,1.240305042E1,1.701000094E0,1.254777091E1
4.569269990E-1,7.699500322E-1,1.205805016E1,1.740000129E0,1.220725182E1
4.588879170E-1,6.550500393E-1,1.186605072E1,1.816050053E0,1.202207503E1
4.608490210E-1,8.470500112E-1,1.167405033E1,1.893000126E0,1.185682902E1
4.628100710E-1,1.077000022E0,1.136805058E1,1.969950080E0,1.158763161E1
4.647709470E-1,1.153950095E0,1.102305031E1,1.969950080E0,1.125699526E1
4.667318610E-1,1.153950095E0,1.075500011E1,2.122950077E0,1.102309146E1
4.686926510E-1,1.039050102E0,1.052505016E1,1.893000126E0,1.074428944E1
4.706534770E-1,9.619500637E-1,1.025595093E1,1.855050087E0,1.046666557E1
4.726141910E-1,8.850000501E-1,9.949950218E0,1.816050053E0,1.015296864E1
4.745749380E-1,8.470500112E-1,9.720000267E0,1.740000129E0,9.910776930E0
4.765357550E-1,8.470500112E-1,9.490050316E0,1.740000129E0,9.685357462E0
4.784965520E-1,6.940500140E-1,9.336000443E0,1.701000094E0,9.515041303E0
4.804573170E-1,6.550500393E-1,9.183000565E0,1.701000094E0,9.362157403E0
4.824180920E-1,5.790000558E-1,9.030000687E0,1.624950051E0,9.193291910E0
4.843783190E-1,5.410500169E-1,8.953050613E0,1.548000097E0,9.101986306E0
4.863387070E-1,4.260000288E-1,8.877000809E0,1.510050058E0,9.014592091E0
4.882994870E-1,3.109500110E-1,8.761950493E0,1.471050024E0,8.890019939E0
4.902601580E-1,2.719500065E-1,8.685000420E0,1.471050024E0,8.812898347E0
4.922209890E-1,1.570500135E-1,8.569950104E0,1.471050024E0,8.696706139E0
4.941817730E-1,8.100000024E-2,8.532000542E0,1.432950020E0,8.651874941E0
4.961427210E-1,4.050000105E-3,8.455050468E0,1.356000066E0,8.563097045E0
4.981036200E-1,-7.200000435E-2,8.377950668E0,1.395000100E0,8.493601514E0
5.000645330E-1,-7.200000435E-2,8.302050591E0,1.279950023E0,8.400446421E0
5.020254210E-1,-1.480500102E-1,8.224950790E0,1.279950023E0,8.325263141E0
5.039861690E-1,-2.629500031E-1,8.224950790E0,1.240950108E0,8.322194144E0
5.059469590E-1,-3.400500119E-1,8.187000275E0,1.240950108E0,8.287494475E0
5.079077690E-1,-4.549500346E-1,8.148000717E0,1.356000066E0,8.272583115E0
5.098685730E-1,-5.320500135E-1,8.148000717E0,1.279950023E0,8.265062914E0
5.118295210E-1,-5.700000525E-1,8.187000275E0,1.318050027E0,8.311987093E0
5.137904230E-1,-6.079500318E-1,8.187000275E0,1.279950023E0,8.308721249E0
5.157511700E-1,-6.850500107E-1,8.187000275E0,1.356000066E0,8.326764269E0
5.177119630E-1,-7.230000496E-1,8.224950790E0,1.395000100E0,8.373683171E0
5.196725480E-1,-6.850500107E-1,8.302050591E0,1.356000066E0,8.439909579E0
5.216331940E-1,-6.850500107E-1,8.377950668E0,1.432950020E0,8.527174015E0
5.235940040E-1,-7.230000496E-1,8.416950226E0,1.432950020E0,8.568612836E0
5.255547510E-1,-7.999500632E-1,8.532000542E0,1.356000066E0,8.676041121E0
5.275156590E-1,-9.150000215E-1,8.608050346E0,1.395000100E0,8.768225652E0
5.294765200E-1,-1.030050039E0,8.722949982E0,1.395000100E0,8.893642940E0
5.314373190E-1,-1.222050071E0,8.800050735E0,1.279950023E0,8.976222556E0
5.333981370E-1,-1.222050071E0,8.914950371E0,1.203000069E0,9.078378471E0
5.353588780E-1,-1.375050068E0,8.953050613E0,1.126049995E0,9.127752547E0
5.373196560E-1,-1.452000022E0,8.991000175E0,1.087950110E0,9.172242019E0
5.392805580E-1,-1.567050099E0,9.030000687E0,1.126049995E0,9.233880387E0
5.412414230E-1,-1.528050065E0,9.067950249E0,1.087950110E0,9.259929490E0
5.432024010E-1,-1.528050065E0,8.877000809E0,1.240950108E0,9.092636445E0
5.451633460E-1,-1.834950089E0,9.145050049E0,1.356000066E0,9.425376300E0
5.471239110E-1,-1.873050094E0,9.145050049E0,1.279950023E0,9.422235887E0
5.490845840E-1,-1.758000135E0,9.145050049E0,1.126049995E0,9.380324806E0
5.510453230E-1,-1.720050097E0,9.183000565E0,1.087950110E0,9.405833676E0
5.530060430E-1,-1.681950092E0,9.145050049E0,1.011000037E0,9.353235675E0
5.549671810E-1,-1.642950058E0,9.145050049E0,1.126049995E0,9.359445169E0
5.569281970E-1,-1.605000019E0,9.145050049E0,1.126049995E0,9.352858068E0
5.588891600E-1,-1.567050099E0,9.145050049E0,1.087950110E0,9.341906757E0
5.608501320E-1,-1.489950061E0,9.106050491E0,1.126049995E0,9.295595480E0
5.628108670E-1,-1.452000022E0,9.067950249E0,1.050000072E0,9.243296270E0
5.647716710E-1,-1.375050068E0,9.067950249E0,1.050000072E0,9.231521248E0
5.667323890E-1,-1.375050068E0,9.067950249E0,8.580000401E-1,9.211658291E0
5.686931320E-1,-1.260000110E0,8.991000175E0,1.011000037E0,9.134977039E0
5.706539140E-1,-1.068000078E0,8.953050613E0,1.126049995E0,9.086568552E0
5.726146780E-1,-8.770500422E-1,9.030000687E0,1.203000069E0,9.151903537E0
5.745754480E-1,-8.380500674E-1,8.991000175E0,1.087950110E0,9.095276110E0
5.765362160E-1,-7.230000496E-1,8.991000175E0,1.050000072E0,9.080931306E0
5.784966710E-1,-5.700000525E-1,8.953050613E0,1.126049995E0,9.041570878E0
5.804572180E-1,-4.930500090E-1,8.953050613E0,1.087950110E0,9.032377818E0
5.824176010E-1,-4.170000255E-1,9.030000687E0,8.200500607E-1,9.076744104E0
5.843780450E-1,-3.400500119E-1,9.067950249E0,8.200500607E-1,9.111302751E0
5.863389140E-1,-1.870500147E-1,9.067950249E0,8.200500607E-1,9.106876057E0
5.882996590E-1,-3.299999982E-2,9.145050049E0,9.730500579E-1,9.196730713E0
5.902603880E-1,4.050000105E-3,9.183000565E0,1.087950110E0,9.247223973E0
5.922211220E-1,4.050000105E-3,9.298050880E0,1.050000072E0,9.357150567E0
5.941817480E-1,4.200000316E-2,9.336000443E0,9.349500537E-1,9.382792754E0
5.961424160E-1,4.200000316E-2,9.336000443E0,8.200500607E-1,9.372040886E0
5.981032020E-1,1.189500093E-1,9.336000443E0,7.429500222E-1,9.366270768E0
6.000639530E-1,1.189500093E-1,9.336000443E0,6.280500293E-1,9.357857672E0
6.020243210E-1,1.570500135E-1,9.336000443E0,7.429500222E-1,9.366832106E0
6.039848010E-1,1.570500135E-1,9.336000443E0,1.087950110E0,9.400489584E0
6.059455980E-1,8.100000024E-2,9.336000443E0,1.165050030E0,9.408762237E0
6.079063170E-1,4.200000316E-2,9.375000000E0,1.165050030E0,9.447207554E0
6.098670950E-1,-3.299999982E-2,9.336000443E0,1.126049995E0,9.403721702E0
6.118278560E-1,-3.299999982E-2,9.336000443E0,1.011000037E0,9.390639719E0
6.137884470E-1,4.050000105E-3,9.298050880E0,9.349500537E-1,9.344939710E0
6.157490880E-1,4.050000105E-3,9.259950638E0,7.810500264E-1,9.292832795E0
6.177098450E-1,4.050000105E-3,9.220950127E0,8.580000401E-1,9.260782997E0
6.196705920E-1,4.050000105E-3,9.220950127E0,8.580000401E-1,9.260782997E0
6.216308700E-1,8.100000024E-2,9.220950127E0,8.580000401E-1,9.261136340E0
6.235912860E-1,4.200000316E-2,9.220950127E0,9.730500579E-1,9.272244154E0
6.255518900E-1,4.050000105E-3,9.220950127E0,1.050000072E0,9.280540813E0
6.275124380E-1,-3.299999982E-2,9.298050880E0,9.730500579E-1,9.348885794E0
6.294730700E-1,-7.200000435E-2,9.298050880E0,1.011000037E0,9.353130773E0
6.314336740E-1,-3.299999982E-2,9.259950638E0,9.730500579E-1,9.310993568E0
6.333941570E-1,-7.200000435E-2,9.220950127E0,9.730500579E-1,9.272428574E0
6.353546760E-1,-3.299999982E-2,9.220950127E0,1.011000037E0,9.276267100E0
6.373153070E-1,8.100000024E-2,9.183000565E0,9.730500579E-1,9.234765118E0
6.392759050E-1,4.200000316E-2,9.220950127E0,9.730500579E-1,9.272244154E0
6.412368880E-1,8.100000024E-2,9.183000565E0,8.959500194E-1,9.226959781E0
6.431977550E-1,4.200000316E-2,9.183000565E0,9.730500579E-1,9.234505389E0
6.451582830E-1,4.050000105E-3,9.220950127E0,9.730500579E-1,9.272149916E0
6.471189110E-1,-7.200000435E-2,9.220950127E0,1.050000072E0,9.280819220E0
6.490795680E-1,-7.200000435E-2,9.336000443E0,1.087950110E0,9.399453373E0
6.510402160E-1,-1.099500060E-1,9.375000000E0,1.126049995E0,9.443024018E0
6.530010060E-1,-1.870500147E-1,9.412950516E0,1.087950110E0,9.477460660E0
6.549617550E-1,-2.250000089E-1,9.451050758E0,1.087950110E0,9.516124257E0
6.569223490E-1,-1.480500102E-1,9.451050758E0,1.050000072E0,9.510351171E0
6.588829880E-1,-1.480500102E-1,9.451050758E0,1.050000072E0,9.510351171E0
6.608434190E-1,-1.480500102E-1,9.451050758E0,1.087950110E0,9.514615845E0
6.628039110E-1,-1.099500060E-1,9.412950516E0,1.126049995E0,9.480702242E0
6.647646910E-1,-1.870500147E-1,9.412950516E0,1.126049995E0,9.481909814E0
6.667253800E-1,-1.870500147E-1,9.375000000E0,1.126049995E0,9.444236406E0
6.686858490E-1,-1.870500147E-1,9.336000443E0,1.203000069E0,9.415046529E0
6.706463820E-1,-1.870500147E-1,9.336000443E0,1.240950108E0,9.419970761E0
6.726071910E-1,-1.870500147E-1,9.375000000E0,1.318050027E0,9.469047924E0
6.745679190E-1,-1.480500102E-1,9.336000443E0,1.279950023E0,9.424494423E0
6.765283450E-1,-1.099500060E-1,9.375000000E0,1.240950108E0,9.457413556E0
6.784888530E-1,-1.099500060E-1,9.298050880E0,1.240950108E0,9.381140461E0
6.804496660E-1,-3.780000210E-1,9.145050049E0,1.087950110E0,9.217291351E0
6.824103890E-1,-4.549500346E-1,9.183000565E0,1.126049995E0,9.262962134E0
6.843709420E-1,-4.170000255E-1,9.106050491E0,5.899500251E-1,9.134663957E0
6.863315450E-1,-2.250000089E-1,9.106050491E0,6.660000086E-1,9.133144944E0
6.882921490E-1,8.100000024E-2,9.030000687E0,1.240950108E0,9.115230692E0
6.902527930E-1,8.100000024E-2,9.030000687E0,1.510050058E0,9.155748171E0
6.922134050E-1,-3.019500077E-1,9.030000687E0,9.730500579E-1,9.087294021E0
6.941740260E-1,-1.099500060E-1,9.106050491E0,1.165050030E0,9.180936016E0
6.961350000E-1,4.200000316E-2,9.183000565E0,1.432950020E0,9.294224504E0
6.980958700E-1,-3.299999982E-2,9.220950127E0,1.240950108E0,9.304137112E0
7.000564190E-1,-1.099500060E-1,9.259950638E0,1.240950108E0,9.343379046E0
7.020170790E-1,-7.200000435E-2,9.336000443E0,1.087950110E0,9.399453373E0
7.039776410E-1,-1.099500060E-1,9.298050880E0,8.959500194E-1,9.341764588E0
7.059382320E-1,-2.629500031E-1,9.259950638E0,9.349500537E-1,9.310744338E0
7.078988510E-1,-2.250000089E-1,9.259950638E0,8.959500194E-1,9.305914101E0
7.098594610E-1,-1.870500147E-1,9.259950638E0,9.349500537E-1,9.308909986E0
7.118204330E-1,-3.780000210E-1,9.259950638E0,3.600000143E-1,9.274652006E0
7.137813020E-1,-3.780000210E-1,9.259950638E0,3.979500234E-1,9.276202566E0
7.157416950E-1,-3.019500077E-1,9.220950127E0,9.349500537E-1,9.273145456E0
7.177022270E-1,-2.629500031E-1,9.259950638E0,1.318050027E0,9.356980517E0
7.196627210E-1,-4.170000255E-1,9.220950127E0,1.279950023E0,9.318695312E0
7.216232270E-1,-4.170000255E-1,9.220950127E0,1.050000072E0,9.289903681E0
7.235836910E-1,-5.320500135E-1,9.220950127E0,8.959500194E-1,9.279640343E0
7.255441610E-1,-5.700000525E-1,9.259950638E0,7.810500264E-1,9.310296720E0
7.275045760E-1,-5.700000525E-1,9.259950638E0,7.429500222E-1,9.307177908E0
7.294650070E-1,-6.079500318E-1,9.298050880E0,7.050000429E-1,9.344537360E0
7.314252930E-1,-6.850500107E-1,9.298050880E0,7.429500222E-1,9.352808050E0
7.333856220E-1,-6.850500107E-1,9.298050880E0,7.429500222E-1,9.352808050E0
7.353461050E-1,-7.620000243E-1,9.336000443E0,7.050000429E-1,9.393538916E0
7.373065430E-1,-8.380500674E-1,9.375000000E0,7.429500222E-1,9.441659158E0
7.392668300E-1,-8.770500422E-1,9.375000000E0,7.050000429E-1,9.442291398E0
7.412271610E-1,-9.529500604E-1,9.375000000E0,6.660000086E-1,9.446814004E0
7.431878690E-1,-1.030050039E0,9.336000443E0,5.509500504E-1,9.408796592E0
7.451484660E-1,-1.068000078E0,9.259950638E0,5.130000114E-1,9.335442089E0
7.471090260E-1,-1.144950032E0,9.298050880E0,5.509500504E-1,9.384466245E0
7.490696070E-1,-1.222050071E0,9.220950127E0,5.509500504E-1,9.317879242E0
7.510300930E-1,-1.183050036E0,9.183000565E0,6.280500293E-1,9.280169912E0
7.529906070E-1,-1.222050071E0,9.183000565E0,6.660000086E-1,9.287866373E0
7.549512390E-1,-1.297950029E0,9.220950127E0,5.509500504E-1,9.328137085E0
7.569118360E-1,-1.375050068E0,9.298050880E0,5.130000114E-1,9.413165348E0
7.588726250E-1,-1.413000107E0,9.336000443E0,4.360500276E-1,9.452386640E0
7.608333640E-1,-1.489950061E0,9.412950516E0,4.750500321E-1,9.541973650E0
7.627942740E-1,-1.528050065E0,9.375000000E0,4.360500276E-1,9.508717139E0
7.647551340E-1,-1.567050099E0,9.336000443E0,3.979500234E-1,9.474962506E0
7.667157530E-1,-1.567050099E0,9.298050880E0,3.600000143E-1,9.436047700E0
7.686764430E-1,-1.567050099E0,9.259950638E0,4.360500276E-1,9.401727046E0
7.706372450E-1,-1.642950058E0,9.220950127E0,3.979500234E-1,9.374623745E0
7.725980000E-1,-1.642950058E0,9.145050049E0,3.979500234E-1,9.299977931E0
7.745587270E-1,-1.681950092E0,9.145050049E0,3.600000143E-1,9.305401470E0
7.765194630E-1,-1.605000019E0,9.067950249E0,3.600000143E-1,9.215928970E0
7.784800580E-1,-1.720050097E0,9.067950249E0,3.979500234E-1,9.238217267E0
7.804406940E-1,-1.873050094E0,8.877000809E0,3.600000143E-1,9.079595807E0
7.824013640E-1,-1.911000133E0,8.953050613E0,5.130000114E-1,9.169089693E0
7.843620140E-1,-1.758000135E0,8.991000175E0,4.750500321E-1,9.173566436E0
7.863229390E-1,-1.605000019E0,8.953050613E0,3.220500052E-1,9.101475515E0
7.882837830E-1,-1.642950058E0,8.953050613E0,3.220500052E-1,9.108244418E0
7.902442250E-1,-1.642950058E0,8.991000175E0,3.600000143E-1,9.146965019E0
7.922047850E-1,-1.605000019E0,8.953050613E0,4.360500276E-1,9.106222047E0
7.941655630E-1,-1.642950058E0,8.914950371E0,4.750500321E-1,9.077516045E0
7.961262640E-1,-1.720050097E0,8.914950371E0,5.509500504E-1,9.096068294E0
7.980870450E-1,-1.681950092E0,8.953050613E0,5.509500504E-1,9.126314555E0
8.000478020E-1,-1.642950058E0,8.914950371E0,5.130000114E-1,9.079581159E0
8.020083940E-1,-1.605000019E0,8.914950371E0,5.130000114E-1,9.072790871E0
8.039690350E-1,-1.720050097E0,8.838000298E0,5.509500504E-1,9.020663365E0
8.059298560E-1,-1.758000135E0,8.838000298E0,5.899500251E-1,9.030440453E0
8.078906340E-1,-1.720050097E0,8.877000809E0,6.280500293E-1,9.063893343E0
8.098515820E-1,-1.758000135E0,8.877000809E0,1.300500035E-1,9.050338161E0
8.118124800E-1,-1.605000019E0,8.877000809E0,3.600000143E-1,9.028109903E0
8.137730030E-1,-1.681950092E0,8.800050735E0,7.429500222E-1,8.990095872E0
8.157336360E-1,-1.795950055E0,8.761950493E0,9.349500537E-1,8.992849640E0
8.176942880E-1,-1.720050097E0,8.838000298E0,1.050000072E0,9.064839863E0
8.196549370E-1,-1.605000019E0,8.800050735E0,9.349500537E-1,8.993945164E0
8.216157270E-1,-1.720050097E0,8.838000298E0,7.429500222E-1,9.034422855E0
8.235764750E-1,-1.758000135E0,8.838000298E0,6.280500293E-1,9.033009497E0
8.255370240E-1,-1.720050097E0,8.877000809E0,5.899500251E-1,9.061333054E0
8.274976310E-1,-1.605000019E0,8.877000809E0,5.899500251E-1,9.040199636E0
8.294584080E-1,-1.681950092E0,8.953050613E0,5.899500251E-1,9.128751965E0
8.314191490E-1,-1.720050097E0,8.953050613E0,6.660000086E-1,9.141074534E0
8.333797890E-1,-1.834950089E0,8.914950371E0,6.660000086E-1,9.126167758E0
8.353404580E-1,-1.795950055E0,8.991000175E0,7.429500222E-1,9.198668137E0
8.373008390E-1,-1.681950092E0,9.030000687E0,6.660000086E-1,9.209420423E0
8.392613050E-1,-1.642950058E0,9.067950249E0,5.509500504E-1,9.232039459E0
8.412219240E-1,-1.642950058E0,9.106050491E0,4.750500321E-1,9.265263783E0
8.431825130E-1,-1.758000135E0,9.145050049E0,5.509500504E-1,9.328775420E0
8.451431780E-1,-1.720050097E0,9.259950638E0,4.750500321E-1,9.430319755E0
8.471038210E-1,-1.720050097E0,9.259950638E0,5.130000114E-1,9.432307627E0
8.490642520E-1,-1.758000135E0,9.220950127E0,4.750500321E-1,9.399050923E0
8.510247460E-1,-1.758000135E0,9.375000000E0,4.750500321E-1,9.550228375E0
8.529857110E-1,-1.642950058E0,9.412950516E0,4.360500276E-1,9.565200569E0
8.549465280E-1,-1.642950058E0,9.412950516E0,4.360500276E-1,9.565200569E0
8.569075150E-1,-1.720050097E0,9.412950516E0,3.979500234E-1,9.577085881E0
8.588684520E-1,-1.795950055E0,9.528000832E0,4.750500321E-1,9.707415154E0
8.608297330E-1,-1.720050097E0,9.565950394E0,4.360500276E-1,9.729137623E0
8.627909130E-1,-1.795950055E0,9.528000832E0,-6.105000153E-2,9.695976668E0
8.647507170E-1,-1.834950089E0,9.604950905E0,9.195000678E-2,9.779088839E0
8.667109200E-1,-1.681950092E0,9.565950394E0,3.979500234E-1,9.720839844E0
8.686716050E-1,-1.642950058E0,9.528000832E0,6.660000086E-1,9.691524171E0
8.706321490E-1,-1.758000135E0,9.643050194E0,6.660000086E-1,9.824588415E0
8.725927770E-1,-1.642950058E0,9.643050194E0,6.660000086E-1,9.804654912E0
8.745533800E-1,-1.642950058E0,9.528000832E0,4.750500321E-1,9.680276715E0
8.765147120E-1,-1.758000135E0,9.604950905E0,3.600000143E-1,9.771143555E0
8.784758030E-1,-1.720050097E0,9.604950905E0,2.830500007E-1,9.761852873E0
8.804366980E-1,-1.720050097E0,9.565950394E0,3.220500052E-1,9.724695135E0
8.823976510E-1,-1.950000048E0,9.528000832E0,-1.369500011E-1,9.726461604E0
8.843575330E-1,-1.795950055E0,9.528000832E0,2.449500114E-1,9.698878129E0
8.863177280E-1,-1.681950092E0,9.490050316E0,7.050000429E-1,9.663696817E0
8.882787590E-1,-1.681950092E0,9.490050316E0,7.429500222E-1,9.666539497E0
8.902395250E-1,-1.720050097E0,9.490050316E0,7.810500264E-1,9.676242374E0
8.922002950E-1,-1.758000135E0,9.451050758E0,6.660000086E-1,9.636206771E0
8.941610630E-1,-1.873050094E0,9.412950516E0,5.899500251E-1,9.615612050E0
8.961220130E-1,-1.795950055E0,9.451050758E0,5.899500251E-1,9.638248703E0
8.980829090E-1,-1.758000135E0,9.412950516E0,6.280500293E-1,9.596283068E0
9.000433320E-1,-1.795950055E0,9.412950516E0,5.130000114E-1,9.596470342E0
9.020039010E-1,-1.795950055E0,9.375000000E0,4.750500321E-1,9.557286965E0
9.039645230E-1,-1.834950089E0,9.412950516E0,5.509500504E-1,9.605947387E0
9.059251300E-1,-1.758000135E0,9.412950516E0,6.280500293E-1,9.596283068E0
9.078864680E-1,-1.681950092E0,9.375000000E0,7.429500222E-1,9.553614805E0
9.098475920E-1,-1.911000133E0,9.412950516E0,5.295000225E-2,9.605121687E0
9.118078860E-1,-1.834950089E0,9.375000000E0,3.979500234E-1,9.561173100E0
9.137684300E-1,-1.681950092E0,9.451050758E0,8.959500194E-1,9.641267706E0
9.157292820E-1,-1.642950058E0,9.412950516E0,1.050000072E0,9.612773921E0
9.176900430E-1,-1.681950092E0,9.375000000E0,1.050000072E0,9.582383903E0
9.196509490E-1,-1.834950089E0,9.412950516E0,9.730500579E-1,9.639372680E0
9.216118120E-1,-1.758000135E0,9.490050316E0,9.349500537E-1,9.696687634E0
9.235729120E-1,-1.681950092E0,9.528000832E0,8.200500607E-1,9.710007109E0
9.255339520E-1,-1.834950089E0,9.604950905E0,3.600000143E-1,9.785280973E0
9.274945410E-1,-1.567050099E0,9.565950394E0,7.050000429E-1,9.719057465E0
9.294552620E-1,-1.489950061E0,9.604950905E0,1.165050030E0,9.789401138E0
9.314160380E-1,-1.489950061E0,9.643050194E0,1.240950108E0,9.836072661E0
9.333767980E-1,-1.489950061E0,9.720000267E0,1.240950108E0,9.911524280E0
9.353373690E-1,-1.489950061E0,9.720000267E0,1.165050030E0,9.902307708E0
9.372979780E-1,-1.795950055E0,9.796050072E0,4.360500276E-1,9.968860177E0
9.392582790E-1,-1.567050099E0,9.796050072E0,6.660000086E-1,9.942927086E0
9.412186710E-1,-1.489950061E0,9.835050583E0,1.165050030E0,1.001526399E1
9.431793230E-1,-1.489950061E0,9.910950661E0,1.279950023E0,1.010372042E1
9.451398990E-1,-1.452000022E0,9.949950218E0,1.279950023E0,1.013647303E1
9.471004850E-1,-1.642950058E0,9.910950661E0,8.200500607E-1,1.007961854E1
9.490610620E-1,-1.642950058E0,9.988050461E0,8.580000401E-1,1.015857278E1
9.510219100E-1,-1.489950061E0,9.949950218E0,1.011000037E0,1.011155683E1
9.529826780E-1,-1.452000022E0,9.949950218E0,1.240950108E0,1.013162231E1
9.549434030E-1,-1.528050065E0,1.002600002E1,1.203000069E0,1.021287534E1
9.569041410E-1,-1.528050065E0,1.002600002E1,1.126049995E0,1.020409732E1
9.588647350E-1,-1.795950055E0,1.010295010E1,5.899500251E-1,1.027828187E1
9.608253720E-1,-1.642950058E0,1.006500053E1,8.200500607E-1,1.023112910E1
9.627861630E-1,-1.605000019E0,1.006500053E1,1.126049995E0,1.025418204E1
9.647469080E-1,-1.681950092E0,1.010295010E1,1.165050030E0,1.030805017E1
9.667075020E-1,-1.758000135E0,1.010295010E1,1.240950108E0,1.032957513E1
9.686681410E-1,-1.987950087E0,1.018005085E1,6.660000086E-1,1.039369698E1
9.706290980E-1,-1.950000048E0,1.021800041E1,8.580000401E-1,1.043772948E1
9.725899710E-1,-1.911000133E0,1.021800041E1,1.165050030E0,1.046024835E1
9.745504080E-1,-1.950000048E0,1.033305073E1,1.279950023E0,1.059305006E1
9.765109730E-1,-1.950000048E0,1.037100029E1,1.240950108E0,1.062544608E1
9.784719120E-1,-2.065050125E0,1.041000080E1,7.810500264E-1,1.064155007E1
9.804327410E-1,-2.103000164E0,1.044795036E1,8.959500194E-1,1.069509247E1
9.823932960E-1,-2.103000164E0,1.044795036E1,1.011000037E0,1.070534435E1
9.843539490E-1,-2.103000164E0,1.048605061E1,1.126049995E0,1.075396929E1
9.863147370E-1,-2.103000164E0,1.052505016E1,1.050000072E0,1.078433080E1
9.882754860E-1,-2.218050003E0,1.056300068E1,9.349500537E-1,1.083378331E1
9.902357640E-1,-2.371050119E0,1.060095024E1,4.750500321E-1,1.087325605E1
9.921961800E-1,-2.371050119E0,1.060095024E1,6.280500293E-1,1.088101427E1
9.941568030E-1,-2.371050119E0,1.060095024E1,7.050000429E-1,1.088572688E1
9.961173510E-1,-2.371050119E0,1.067805004E1,8.200500607E-1,1.096882462E1
9.980776630E-1,-2.448000193E0,1.063995075E1,7.810500264E-1,1.094583465E1
1.000038045E0,-2.448000193E0,1.067805004E1,6.660000086E-1,1.097529105E1
1.001999240E0,-2.448000193E0,1.067805004E1,5.899500251E-1,1.097093882E1
1.003960197E0,-2.601000071E0,1.071600056E1,2.449500114E-1,1.102986264E1
1.005919839E0,-2.640000105E0,1.067805004E1,3.220500052E-1,1.100427505E1
1.007879877E0,-2.524950027E0,1.063995075E1,5.130000114E-1,1.094746974E1
1.009840230E0,-2.524950027E0,1.056300068E1,6.280500293E-1,1.087873167E1
1.011800491E0,-2.524950027E0,1.052505016E1,6.280500293E-1,1.084188639E1
1.013761167E0,-2.524950027E0,1.048605061E1,6.280500293E-1,1.080403058E1
1.015721722E0,-2.485950232E0,1.044795036E1,6.280500293E-1,1.075797668E1
1.017682154E0,-2.371050119E0,1.041000080E1,5.509500504E-1,1.069081575E1
1.019642632E0,-2.332950115E0,1.037100029E1,5.130000114E-1,1.064253129E1
1.021603630E0,-2.295000076E0,1.044795036E1,5.130000114E-1,1.070933523E1
1.023564476E0,-2.295000076E0,1.041000080E1,2.070000172E-1,1.066198814E1
1.025524467E0,-2.179949999E0,1.037100029E1,3.600000143E-1,1.060374599E1
1.027484709E0,-2.103000164E0,1.037100029E1,5.509500504E-1,1.059640518E1
1.029445451E0,-2.026050091E0,1.033305073E1,7.050000429E-1,1.055338057E1
1.031406033E0,-1.987950087E0,1.033305073E1,6.660000086E-1,1.054359706E1
1.033366430E0,-1.950000048E0,1.037100029E1,6.280500293E-1,1.057140454E1
1.035326882E0,-1.950000048E0,1.044795036E1,5.130000114E-1,1.064073945E1
1.037287344E0,-1.987950087E0,1.044795036E1,4.750500321E-1,1.064599854E1
1.039247803E0,-1.834950089E0,1.041000080E1,5.130000114E-1,1.058292623E1
1.041209552E0,-1.911000133E0,1.048605061E1,3.600000143E-1,1.066483843E1
1.043170937E0,-1.950000048E0,1.056300068E1,9.195000678E-2,1.074187778E1
1.045130701E0,-1.795950055E0,1.052505016E1,3.600000143E-1,1.068324471E1
1.047090940E0,-1.758000135E0,1.048605061E1,7.810500264E-1,1.066104408E1
1.049051754E0,-1.720050097E0,1.048605061E1,1.011000037E0,1.067417213E1
1.051012399E0,-1.758000135E0,1.052505016E1,1.087950110E0,1.072617736E1
1.052973171E0,-1.720050097E0,1.052505016E1,1.126049995E0,1.072395645E1
1.054933919E0,-1.720050097E0,1.056300068E1,1.011000037E0,1.074977566E1
1.056894557E0,-1.758000135E0,1.060095024E1,1.087950110E0,1.080066414E1
1.058855228E0,-1.758000135E0,1.060095024E1,1.126049995E0,1.080456844E1
1.060816193E0,-1.720050097E0,1.060095024E1,1.240950108E0,1.081104415E1
1.062777072E0,-1.720050097E0,1.060095024E1,1.318050027E0,1.082016517E1
1.064738188E0,-1.720050097E0,1.063995075E1,1.395000100E0,1.086798738E1
1.066699231E0,-1.720050097E0,1.067805004E1,1.471050024E0,1.091527889E1
1.068660134E0,-1.720050097E0,1.071600056E1,1.471050024E0,1.095240743E1
1.070621079E0,-1.720050097E0,1.079295063E1,1.510050058E0,1.103297815E1
1.072582132E0,-1.642950058E0,1.083105087E1,1.510050058E0,1.105853512E1
1.074543154E0,-1.567050099E0,1.083105087E1,1.548000097E0,1.105276496E1
1.076503902E0,-1.642950058E0,1.090800095E1,1.624950051E0,1.115007768E1
1.078464748E0,-1.567050099E0,1.094595051E1,1.663050056E0,1.118191460E1
1.080425504E0,-1.528050065E0,1.094595051E1,1.777950048E0,1.119418938E1
1.082386286E0,-1.413000107E0,1.098495007E1,1.855050087E0,1.122973321E1
1.084347053E0,-1.375050068E0,1.106100082E1,1.855050087E0,1.129945630E1
1.086307825E0,-1.336950064E0,1.102305031E1,1.930950046E0,1.127047655E1
1.088268382E0,-1.260000110E0,1.102305031E1,2.008050203E0,1.127508333E1
1.090228993E0,-1.222050071E0,1.098495007E1,2.122950077E0,1.125475239E1
1.092189248E0,-1.106999993E0,1.094595051E1,2.161050081E0,1.121202118E1
1.094149608E0,-1.106999993E0,1.094595051E1,2.275950193E0,1.123473323E1
1.096110086E0,-9.529500604E-1,1.090800095E1,2.391000032E0,1.120756350E1
1.098070529E0,-8.380500674E-1,1.083105087E1,2.430000067E0,1.113188624E1
1.100031248E0,-7.230000496E-1,1.079295063E1,2.506050110E0,1.110363902E1
1.101991866E0,-5.700000525E-1,1.075500011E1,2.659050226E0,1.109348798E1
1.103952437E0,-4.170000255E-1,1.060095024E1,2.773950100E0,1.096580294E1
1.105913022E0,-3.400500119E-1,1.060095024E1,2.736000061E0,1.095360563E1
1.107874002E0,-2.250000089E-1,1.052505016E1,2.812950134E0,1.089678826E1
1.109834866E0,-3.299999982E-2,1.044795036E1,2.851050138E0,1.083001582E1
1.111795679E0,8.100000024E-2,1.041000080E1,2.928000212E0,1.081424352E1
1.113756497E0,3.109500110E-1,1.037100029E1,2.928000212E0,1.078088689E1
1.115717978E0,5.020500422E-1,1.021800041E1,2.965950251E0,1.065159366E1
1.117679264E0,6.550500393E-1,1.018005085E1,2.965950251E0,1.062352986E1
1.119640081E0,8.850000501E-1,1.018005085E1,2.928000212E0,1.062966818E1
1.121601036E0,1.039050102E0,1.010295010E1,2.851050138E0,1.054882518E1
1.123561920E0,1.230000019E0,1.002600002E1,2.928000212E0,1.051697493E1
1.125522849E0,1.345050097E0,9.910950661E0,2.965950251E0,1.043230385E1
1.127483590E0,1.498950124E0,9.835050583E0,2.965950251E0,1.038132614E1
1.129444387E0,1.614000082E0,9.757950783E0,3.004050255E0,1.033667827E1
1.131405152E0,1.804950118E0,9.720000267E0,3.118950129E0,1.036648928E1
1.133365926E0,1.996950150E0,9.604950905E0,3.118950129E0,1.029420913E1
1.135326383E0,2.227050066E0,9.490050316E0,3.118950129E0,1.023467913E1
1.137286930E0,2.304000139E0,9.412950516E0,3.081000090E0,1.016880601E1
1.139247511E0,2.380050182E0,9.336000443E0,3.004050255E0,1.009206922E1
1.141208082E0,2.494950056E0,9.220950127E0,2.889000177E0,9.979830612E0
1.143168750E0,2.533950090E0,9.145050049E0,2.736000061E0,9.876160174E0
1.145129389E0,2.610000134E0,8.991000175E0,2.659050226E0,9.732457704E0
1.147090541E0,2.686950207E0,8.914950371E0,2.467950106E0,9.632591513E0
1.149051543E0,2.764050245E0,8.838000298E0,2.314950228E0,9.545114854E0
1.151012093E0,2.917050123E0,8.722949982E0,2.275950193E0,9.475177417E0
1.152972776E0,2.992950201E0,8.647050858E0,2.200050116E0,9.411134892E0
1.154933380E0,2.992950201E0,8.455050468E0,1.855050087E0,9.158975934E0
1.156894007E0,3.070050240E0,7.918050289E0,1.395000100E0,8.606204398E0
1.158854783E0,3.184950113E0,8.110050201E0,1.395000100E0,8.823992678E0
1.160815495E0,3.223050117E0,8.071949959E0,1.510050058E0,8.821829707E0
1.162776140E0,3.223050117E0,8.032950401E0,1.624950051E0,8.806634254E0
1.164736805E0,3.300000191E0,8.071949959E0,1.585950017E0,8.863499019E0
1.166697231E0,3.300000191E0,8.032950401E0,1.510050058E0,8.814677793E0
1.168657728E0,3.300000191E0,8.110050201E0,1.471050024E0,8.878451650E0
1.170618479E0,3.300000191E0,8.148000717E0,1.356000066E0,8.894866673E0
1.172579169E0,3.262050152E0,8.148000717E0,1.240950108E0,8.864019633E0
1.174539952E0,3.223050117E0,8.302050591E0,1.087950110E0,8.971941346E0
1.176500707E0,3.108000040E0,8.416950226E0,9.349500537E-1,9.021022501E0
1.178461164E0,3.031950235E0,8.532000542E0,8.580000401E-1,9.095269075E0
1.180421709E0,2.917050123E0,8.685000420E0,7.429500222E-1,9.191865341E0
1.182382171E0,2.764050245E0,8.761950493E0,6.280500293E-1,9.209028018E0
1.184342647E0,2.610000134E0,8.914950371E0,5.509500504E-1,9.305481544E0
1.186303240E0,2.457000017E0,9.106050491E0,6.280500293E-1,9.452589670E0
1.188263799E0,2.341950178E0,9.259950638E0,5.899500251E-1,9.569715643E0
1.190224424E0,2.149950027E0,9.375000000E0,5.899500251E-1,9.636438717E0
1.192185030E0,1.959000111E0,9.528000832E0,5.130000114E-1,9.740823902E0
1.194145656E0,1.767000079E0,9.604950905E0,4.360500276E-1,9.775863685E0
1.196106270E0,1.651950121E0,9.757950783E0,3.979500234E-1,9.904792118E0
1.198066885E0,1.537050128E0,9.910950661E0,3.220500052E-1,1.003459926E1
1.200027500E0,1.422000051E0,1.002600002E1,3.220500052E-1,1.013145976E1
1.201988341E0,1.306950092E0,1.018005085E1,3.220500052E-1,1.026865473E1
1.203949116E0,1.192050099E0,1.029495049E1,3.600000143E-1,1.036998500E1
1.205909719E0,9.619500637E-1,1.037100029E1,3.600000143E-1,1.042173666E1
1.207870363E0,7.699500322E-1,1.060095024E1,4.360500276E-1,1.063781503E1
1.209830432E0,5.410500169E-1,1.067805004E1,3.979500234E-1,1.069915193E1
1.211790670E0,3.490500152E-1,1.075500011E1,3.220500052E-1,1.076548093E1
1.213751890E0,1.960500032E-1,1.087005043E1,3.220500052E-1,1.087658716E1
1.215712822E0,8.100000024E-2,1.094595051E1,2.070000172E-1,1.094820727E1
1.217673315E0,-1.099500060E-1,1.102305031E1,9.195000678E-2,1.102398213E1
1.219633954E0,-2.629500031E-1,1.106100082E1,5.295000225E-2,1.106425260E1
1.221594609E0,-4.170000255E-1,1.113795090E1,1.500000060E-2,1.114576441E1
1.223555260E0,-5.320500135E-1,1.117605019E1,1.500000060E-2,1.118871753E1
1.225516049E0,-7.620000243E-1,1.125300026E1,-6.105000153E-2,1.127893550E1
1.227476798E0,-8.770500422E-1,1.125300026E1,-6.105000153E-2,1.128729191E1
1.229437556E0,-1.030050039E0,1.129095078E1,-1.369500011E-1,1.133866517E1
1.231398291E0,-1.183050036E0,1.125300026E1,-1.759500057E-1,1.131638549E1
1.233358885E0,-1.297950029E0,1.129095078E1,-2.140500098E-1,1.136732427E1
1.235319521E0,-1.375050068E0,1.121400070E1,-9.900000691E-2,1.129842358E1
1.237279953E0,-1.452000022E0,1.125300026E1,1.500000060E-2,1.134630089E1
1.239240445E0,-1.567050099E0,1.121400070E1,5.295000225E-2,1.132308533E1
1.241201099E0,-1.642950058E0,1.117605019E1,5.295000225E-2,1.129629082E1
1.243161692E0,-1.758000135E0,1.110000038E1,-1.759500057E-1,1.123973004E1
1.245122311E0,-1.795950055E0,1.113795090E1,-2.140500098E-1,1.128384705E1
1.247082923E0,-1.873050094E0,1.106100082E1,-1.369500011E-1,1.121930529E1
1.249043899E0,-1.950000048E0,1.102305031E1,1.500000060E-2,1.119421115E1
1.251004769E0,-2.026050091E0,1.102305031E1,1.500000060E-2,1.120770905E1
1.252965522E0,-2.065050125E0,1.098495007E1,-2.205000073E-2,1.117738995E1
1.254926310E0,-2.103000164E0,1.087005043E1,-9.900000691E-2,1.107205523E1
1.256886940E0,-2.140950203E0,1.083105087E1,-1.369500011E-1,1.104147119E1
1.258847617E0,-2.065050125E0,1.083105087E1,-1.369500011E-1,1.102700550E1
1.260808582E0,-2.026050091E0,1.067805004E1,-1.759500057E-1,1.086998574E1
1.262769462E0,-2.026050091E0,1.071600056E1,-2.205000073E-2,1.090587150E1
1.264730228E0,-2.026050091E0,1.067805004E1,5.295000225E-2,1.086869060E1
1.266691017E0,-1.950000048E0,1.060095024E1,1.500000060E-2,1.077881585E1
1.268651738E0,-1.987950087E0,1.056300068E1,-2.205000073E-2,1.074846106E1
1.270612479E0,-1.911000133E0,1.048605061E1,-9.900000691E-2,1.065922041E1
1.272573117E0,-1.795950055E0,1.044795036E1,-6.105000153E-2,1.060135984E1
1.274533786E0,-1.758000135E0,1.044795036E1,-1.369500011E-1,1.059570604E1
1.276494707E0,-1.642950058E0,1.033305073E1,-1.369500011E-1,1.046374587E1
1.278455554E0,-1.681950092E0,1.025595093E1,-1.369500011E-1,1.039385592E1
1.280416311E0,-1.528050065E0,1.025595093E1,-1.369500011E-1,1.037006373E1
1.282377094E0,-1.413000107E0,1.014105034E1,-1.369500011E-1,1.023993294E1
1.284337726E0,-1.413000107E0,1.010295010E1,-1.369500011E-1,1.020220198E1
1.286298402E0,-1.413000107E0,1.002600002E1,-2.140500098E-1,1.012734235E1
1.288259006E0,-1.260000110E0,9.949950218E0,-2.910000086E-1,1.003363297E1
1.290219632E0,-1.222050071E0,9.835050583E0,-4.060500264E-1,9.918997075E0
1.292180246E0,-1.144950032E0,9.757950783E0,-4.440000355E-1,9.834919933E0
1.294140863E0,-1.068000078E0,9.643050194E0,-4.819500148E-1,9.713975346E0
1.296101298E0,-1.068000078E0,9.604950905E0,-5.209500194E-1,9.678176221E0
1.298061786E0,-9.919500351E-1,9.528000832E0,-5.590500236E-1,9.595796040E0
1.300022377E0,-9.529500604E-1,9.490050316E0,-5.590500236E-1,9.554145998E0
1.301982938E0,-9.150000215E-1,9.412950516E0,-5.590500236E-1,9.473827071E0
1.303943249E0,-9.150000215E-1,9.412950516E0,-5.970000029E-1,9.476142224E0
1.305903633E0,-8.380500674E-1,9.336000443E0,-6.360000372E-1,9.395090645E0
1.307864422E0,-7.999500632E-1,9.336000443E0,-6.360000372E-1,9.391768759E0
1.309825092E0,-7.620000243E-1,9.336000443E0,-6.360000372E-1,9.388612483E0
1.311785708E0,-7.620000243E-1,9.298050880E0,-7.120500207E-1,9.356356633E0
1.313746334E0,-7.620000243E-1,9.220950127E0,-7.120500207E-1,9.279740325E0
1.315706767E0,-7.230000496E-1,9.220950127E0,-7.120500207E-1,9.276619295E0
1.317667257E0,-7.230000496E-1,9.259950638E0,-7.890000343E-1,9.321584411E0
1.319627533E0,-7.620000243E-1,9.259950638E0,-8.659500480E-1,9.331516454E0
1.321587872E0,-7.620000243E-1,9.298050880E0,-7.510500550E-1,9.359405451E0
1.323548339E0,-6.469500065E-1,9.336000443E0,-7.120500207E-1,9.385438924E0
1.325508779E0,-6.469500065E-1,9.298050880E0,-7.120500207E-1,9.347690074E0
1.327469425E0,-6.469500065E-1,9.336000443E0,-7.510500550E-1,9.388478298E0
1.329430010E0,-6.850500107E-1,9.298050880E0,-6.739500165E-1,9.347580025E0
1.331390631E0,-6.469500065E-1,9.298050880E0,-6.739500165E-1,9.344865066E0
1.333351241E0,-6.469500065E-1,9.336000443E0,-6.739500165E-1,9.382625283E0
1.335311903E0,-6.079500318E-1,9.220950127E0,-7.120500207E-1,9.268362299E0
1.337272549E0,-6.079500318E-1,9.183000565E0,-6.360000372E-1,9.225052773E0
1.339233294E0,-5.700000525E-1,9.183000565E0,-6.739500165E-1,9.225324279E0
1.341194010E0,-5.700000525E-1,9.183000565E0,-6.360000372E-1,9.222629532E0
1.343154789E0,-5.700000525E-1,9.220950127E0,-6.360000372E-1,9.260416694E0
1.345115549E0,-6.469500065E-1,9.220950127E0,-5.590500236E-1,9.260507679E0
1.347075990E0,-5.700000525E-1,9.259950638E0,-5.970000029E-1,9.296665794E0
1.349036536E0,-5.320500135E-1,9.298050880E0,-6.739500165E-1,9.337614043E0
1.350997342E0,-4.930500090E-1,9.259950638E0,-6.360000372E-1,9.294852348E0
1.352958072E0,-5.700000525E-1,9.298050880E0,-5.590500236E-1,9.332265918E0
1.354918803E0,-6.079500318E-1,9.336000443E0,-7.890000343E-1,9.388984426E0
1.356879534E0,-5.700000525E-1,9.375000000E0,-7.120500207E-1,9.419264318E0
1.358840214E0,-5.700000525E-1,9.375000000E0,-7.120500207E-1,9.419264318E0
1.360800882E0,-5.320500135E-1,9.412950516E0,-7.890000343E-1,9.460932073E0
1.362761623E0,-5.320500135E-1,9.412950516E0,-8.269500136E-1,9.464172492E0
1.364722342E0,-4.930500090E-1,9.412950516E0,-9.420000315E-1,9.472808442E0
1.366682760E0,-5.320500135E-1,9.412950516E0,-9.040500522E-1,9.471220678E0
1.368643267E0,-5.700000525E-1,9.412950516E0,-9.040500522E-1,9.473428311E0
1.370603945E0,-6.079500318E-1,9.412950516E0,-8.659500480E-1,9.472228362E0
1.372564573E0,-4.930500090E-1,9.375000000E0,-9.420000315E-1,9.435098694E0
1.374525142E0,-4.930500090E-1,9.336000443E0,-8.659500480E-1,9.389029346E0
1.376485729E0,-5.320500135E-1,9.336000443E0,-9.420000315E-1,9.398475703E0
1.378446214E0,-5.700000525E-1,9.259950638E0,-1.134000063E0,9.346525666E0
1.380406729E0,-5.320500135E-1,9.220950127E0,-1.134000063E0,9.305641010E0
1.382367145E0,-5.320500135E-1,9.183000565E0,-9.420000315E-1,9.246509647E0
1.384327584E0,-6.469500065E-1,9.145050049E0,-9.040500522E-1,9.212371638E0
1.386288093E0,-7.620000243E-1,9.106050491E0,-1.096050024E0,9.203375753E0
1.388248582E0,-7.230000496E-1,8.953050613E0,-1.363950014E0,9.085163950E0
1.390208859E0,-5.320500135E-1,8.953050613E0,-1.134000063E0,9.040251581E0
1.392169199E0,-5.700000525E-1,8.953050613E0,-8.269500136E-1,9.009209825E0
1.394130016E0,-6.850500107E-1,9.030000687E0,-8.269500136E-1,9.093627013E0
1.396090679E0,-7.230000496E-1,9.030000687E0,-1.018950105E0,9.116024396E0
1.398051332E0,-7.999500632E-1,9.030000687E0,-1.096050024E0,9.131383146E0
1.400011988E0,-8.380500674E-1,8.953050613E0,-1.210950017E0,9.073358978E0
1.401972731E0,-7.999500632E-1,8.953050613E0,-1.326000094E0,9.085995358E0
1.403933448E0,-8.380500674E-1,8.914950371E0,-1.479000092E0,9.075577629E0
1.405893723E0,-8.380500674E-1,8.914950371E0,-1.516950130E0,9.081839336E0
1.407854102E0,-8.770500422E-1,8.838000298E0,-1.441050053E0,8.997560297E0
1.409814757E0,-8.380500674E-1,8.761950493E0,-1.479000092E0,8.925331682E0
1.411775331E0,-8.380500674E-1,8.761950493E0,-1.479000092E0,8.925331682E0
1.413735639E0,-9.150000215E-1,8.685000420E0,-1.555950046E0,8.870593998E0
1.415696025E0,-9.150000215E-1,8.685000420E0,-1.516950130E0,8.863836361E0
1.417656693E0,-9.150000215E-1,8.608050346E0,-1.516950130E0,8.788452281E0
1.419617268E0,-1.030050039E0,8.455050468E0,-1.632000089E0,8.672502857E0
1.421577891E0,-1.030050039E0,8.416950226E0,-1.671000123E0,8.642817573E0
1.423538499E0,-1.106999993E0,8.302050591E0,-1.708950043E0,8.548099394E0
1.425498936E0,-1.068000078E0,8.187000275E0,-1.594050050E0,8.408840183E0
1.427459424E0,-1.106999993E0,8.148000717E0,-1.632000089E0,8.383244537E0
1.429420060E0,-1.106999993E0,8.032950401E0,-1.594050050E0,8.264062965E0
1.431380653E0,-1.183050036E0,7.995000362E0,-1.594050050E0,8.237756597E0
1.433341407E0,-1.068000078E0,7.957050323E0,-1.708950043E0,8.208275353E0
1.435302114E0,-1.144950032E0,7.879950523E0,-1.632000089E0,8.128219677E0
1.437262760E0,-1.222050071E0,7.803000450E0,-1.708950043E0,8.080886873E0
1.439223424E0,-1.260000110E0,7.726950169E0,-1.671000123E0,8.005348249E0
1.441184345E0,-1.260000110E0,7.687950134E0,-1.555950046E0,7.944379025E0
1.443145191E0,-1.260000110E0,7.612050533E0,-1.555950046E0,7.870952556E0
1.445105813E0,-1.297950029E0,7.573050499E0,-1.632000089E0,7.854883349E0
1.447066501E0,-1.260000110E0,7.497000217E0,-1.747050047E0,7.800307456E0
1.449027059E0,-1.260000110E0,7.458000183E0,-1.747050047E0,7.762831370E0
1.450987655E0,-1.297950029E0,7.458000183E0,-1.708950043E0,7.760602506E0
1.452948309E0,-1.222050071E0,7.381950378E0,-1.516950130E0,7.634640493E0
1.454908952E0,-1.260000110E0,7.342950344E0,-1.594050050E0,7.618892019E0
1.456869563E0,-1.297950029E0,7.342950344E0,-1.594050050E0,7.625259969E0
1.458830184E0,-1.260000110E0,7.381950378E0,-1.632000089E0,7.664477540E0
1.460790753E0,-1.222050071E0,7.342950344E0,-1.632000089E0,7.620744742E0
1.462751338E0,-1.222050071E0,7.420050144E0,-1.671000123E0,7.703427285E0
1.464711583E0,-1.222050071E0,7.420050144E0,-1.708950043E0,7.711748230E0
1.466671939E0,-1.222050071E0,7.420050144E0,-1.516950130E0,7.671485398E0
1.468632642E0,-1.297950029E0,7.497000217E0,-1.786050081E0,7.815347813E0
1.470593244E0,-1.336950064E0,7.497000217E0,-1.824000120E0,7.830672013E0
1.472553818E0,-1.375050068E0,7.497000217E0,-1.786050081E0,7.828521562E0
1.474514400E0,-1.452000022E0,7.534950256E0,-1.671000123E0,7.853408231E0
1.476475214E0,-1.489950061E0,7.534950256E0,-1.594050050E0,7.844515416E0
1.478435982E0,-1.528050065E0,7.534950256E0,-1.594050050E0,7.851841053E0
1.480396392E0,-1.605000019E0,7.534950256E0,-1.594050050E0,7.867178401E0
1.482356907E0,-1.605000019E0,7.573050499E0,-1.516950130E0,7.888488868E0
1.484317538E0,-1.642950058E0,7.534950256E0,-1.594050050E0,7.875008306E0
1.486278135E0,-1.681950092E0,7.534950256E0,-1.555950046E0,7.875621374E0
1.488238575E0,-1.681950092E0,7.497000217E0,-1.555950046E0,7.839320692E0
1.490199061E0,-1.720050097E0,7.534950256E0,-1.555950046E0,7.883846031E0
1.492159518E0,-1.720050097E0,7.534950256E0,-1.516950130E0,7.876241832E0
1.494119984E0,-1.795950055E0,7.534950256E0,-1.516950130E0,7.893164743E0
1.496080579E0,-1.795950055E0,7.534950256E0,-1.516950130E0,7.893164743E0
1.498041136E0,-1.834950089E0,7.534950256E0,-1.479000092E0,7.894932455E0
1.500001761E0,-1.873050094E0,7.497000217E0,-1.441050053E0,7.860658634E0
1.501962366E0,-1.950000048E0,7.573050499E0,-1.516950130E0,7.965847836E0
1.503922804E0,-1.950000048E0,7.573050499E0,-1.479000092E0,7.958708144E0
1.505883291E0,-1.950000048E0,7.497000217E0,-1.594050050E0,7.908761471E0
1.507844153E0,-1.950000048E0,7.534950256E0,-1.516950130E0,7.929635127E0
1.509804905E0,-2.026050091E0,7.573050499E0,-1.555950046E0,7.992305886E0
1.511765695E0,-1.987950087E0,7.534950256E0,-1.555950046E0,7.946596848E0
1.513726461E0,-1.987950087E0,7.534950256E0,-1.555950046E0,7.946596848E0
1.515687231E0,-1.950000048E0,7.497000217E0,-1.594050050E0,7.908761471E0
1.517648000E0,-1.911000133E0,7.497000217E0,-1.555950046E0,7.891635718E0
1.519608590E0,-1.950000048E0,7.497000217E0,-1.632000089E0,7.916497757E0
1.521569232E0,-1.911000133E0,7.534950256E0,-1.632000089E0,7.942973068E0
1.523529595E0,-1.834950089E0,7.497000217E0,-1.632000089E0,7.888946595E0
1.525490056E0,-1.911000133E0,7.534950256E0,-1.708950043E0,7.959139848E0
1.527450562E0,-1.834950089E0,7.534950256E0,-1.747050047E0,7.949509486E0
1.529411054E0,-1.758000135E0,7.573050499E0,-1.786050081E0,7.976943853E0
1.531371511E0,-1.720050097E0,7.612050533E0,-1.824000120E0,8.014291116E0
1.533331979E0,-1.720050097E0,7.650000572E0,-1.786050081E0,8.041831631E0
1.535292239E0,-1.720050097E0,7.687950134E0,-1.824000120E0,8.086416143E0
1.537252574E0,-1.642950058E0,7.803000450E0,-1.861950040E0,8.188587111E0
1.539213417E0,-1.642950058E0,7.842000484E0,-1.900950074E0,8.234674716E0
1.541174111E0,-1.642950058E0,7.918050289E0,-1.939050078E0,8.315931727E0
1.543134848E0,-1.605000019E0,7.995000362E0,-1.900950074E0,8.373151560E0
1.545095572E0,-1.567050099E0,8.110050201E0,-1.977000117E0,8.493355624E0
1.547055971E0,-1.567050099E0,8.148000717E0,-1.939050078E0,8.520884749E0
1.549016478E0,-1.605000019E0,8.263050079E0,-1.977000117E0,8.646534054E0
1.550977337E0,-1.567050099E0,8.416950226E0,-2.014950037E0,8.795494345E0
1.552938092E0,-1.605000019E0,8.493000031E0,-2.014950037E0,8.875082999E0
1.554898684E0,-1.605000019E0,8.608050346E0,-2.014950037E0,8.985242316E0
1.556859324E0,-1.605000019E0,8.685000420E0,-1.939050078E0,9.042409665E0
1.558819736E0,-1.642950058E0,8.761950493E0,-1.977000117E0,9.131242566E0
1.560780229E0,-1.642950058E0,8.914950371E0,-1.861950040E0,9.254322393E0
1.562740685E0,-1.567050099E0,8.914950371E0,-1.861950040E0,9.241149500E0
1.564701152E0,-1.528050065E0,9.030000687E0,-1.786050081E0,9.330906938E0
1.566661432E0,-1.528050065E0,9.106050491E0,-1.747050047E0,9.397195136E0
1.568621767E0,-1.605000019E0,9.220950127E0,-1.747050047E0,9.521246251E0
1.570582740E0,-1.681950092E0,9.336000443E0,-1.747050047E0,9.645830407E0
1.572543529E0,-1.758000135E0,9.451050758E0,-1.747050047E0,9.770624790E0
1.574503981E0,-1.834950089E0,9.565950394E0,-1.747050047E0,9.895788631E0
1.576464531E0,-1.911000133E0,9.757950783E0,-1.708950043E0,1.008910478E1
1.578425157E0,-1.987950087E0,9.910950661E0,-1.786050081E0,1.026493368E1
1.580385760E0,-2.103000164E0,9.988050461E0,-1.824000120E0,1.036873850E1
1.582346305E0,-2.218050003E0,1.021800041E1,-1.861950040E0,1.062045838E1
1.584306887E0,-2.332950115E0,1.033305073E1,-1.861950040E0,1.075553121E1
1.586267687E0,-2.371050119E0,1.048605061E1,-1.900950074E0,1.091754309E1
1.588228423E0,-2.485950232E0,1.063995075E1,-1.900950074E0,1.109063171E1
1.590188884E0,-2.563050032E0,1.071600056E1,-1.861950040E0,1.117446873E1
1.592149425E0,-2.601000071E0,1.079295063E1,-1.786050081E0,1.124468584E1
1.594110169E0,-2.677950144E0,1.094595051E1,-1.708950043E0,1.139762079E1
1.596070866E0,-2.677950144E0,1.098495007E1,-1.671000123E0,1.142947008E1
1.598031469E0,-2.716050148E0,1.106100082E1,-1.939050078E0,1.155346627E1
1.599992099E0,-2.677950144E0,1.106100082E1,-1.900950074E0,1.153823069E1
1.601952711E0,-2.677950144E0,1.110000038E1,-1.824000120E0,1.156323492E1
1.603913329E0,-2.716050148E0,1.113795090E1,-1.786050081E0,1.160262270E1
1.605873929E0,-2.640000105E0,1.117605019E1,-1.786050081E0,1.162168977E1
1.607834545E0,-2.677950144E0,1.117605019E1,-1.747050047E0,1.162444401E1
1.609795204E0,-2.716050148E0,1.117605019E1,-1.786050081E0,1.163920105E1
1.611755851E0,-2.677950144E0,1.125300026E1,-1.786050081E0,1.170433282E1
1.613716641E0,-2.640000105E0,1.125300026E1,-1.861950040E0,1.170753917E1
1.615677389E0,-2.677950144E0,1.121400070E1,-1.977000117E0,1.169759626E1
1.617638162E0,-2.677950144E0,1.125300026E1,-2.014950037E0,1.174144180E1
1.619598928E0,-2.716050148E0,1.121400070E1,-1.977000117E0,1.170637731E1
1.621559338E0,-2.601000071E0,1.113795090E1,-2.092050076E0,1.162737395E1
1.623519853E0,-2.640000105E0,1.110000038E1,-2.130000114E0,1.160674414E1
1.625480485E0,-2.601000071E0,1.106100082E1,-2.206950188E0,1.157504081E1
1.627441082E0,-2.640000105E0,1.094595051E1,-2.130000114E0,1.145950843E1
1.629401881E0,-2.601000071E0,1.090800095E1,-2.206950188E0,1.142892450E1
1.631362620E0,-2.601000071E0,1.079295063E1,-2.245050192E0,1.132666037E1
1.633323530E0,-2.601000071E0,1.067805004E1,-2.322000027E0,1.123288201E1
1.635284389E0,-2.601000071E0,1.056300068E1,-2.398950100E0,1.113988987E1
1.637245009E0,-2.640000105E0,1.048605061E1,-2.398950100E0,1.107618253E1
1.639205699E0,-2.677950144E0,1.041000080E1,-2.514000177E0,1.103900949E1
1.641166626E0,-2.716050148E0,1.033305073E1,-2.551950216E0,1.098459447E1
1.643127476E0,-2.755050182E0,1.018005085E1,-2.590050220E0,1.085965455E1
1.645088052E0,-2.755050182E0,1.010295010E1,-2.514000177E0,1.076940570E1
1.647048709E0,-2.793000221E0,1.006500053E1,-2.551950216E0,1.075255950E1
1.649009137E0,-2.869950056E0,1.002600002E1,-2.514000177E0,1.072741752E1
1.650969632E0,-2.908050060E0,9.988050461E0,-2.514000177E0,1.070224762E1
1.652930646E0,-2.908050060E0,9.949950218E0,-2.475000143E0,1.065757431E1
1.654891495E0,-2.946000099E0,9.988050461E0,-2.359950066E0,1.067751998E1
1.656852431E0,-2.985000134E0,1.002600002E1,-2.245050192E0,1.069911925E1
1.658813342E0,-3.022950172E0,1.006500053E1,-2.130000114E0,1.072284309E1
1.660773727E0,-3.100050211E0,1.018005085E1,-2.053950071E0,1.083800985E1
1.662734267E0,-3.214950085E0,1.021800041E1,-1.939050078E0,1.088592447E1
1.664694784E0,-3.253050089E0,1.029495049E1,-1.900950074E0,1.096275292E1
1.666655291E0,-3.291000128E0,1.037100029E1,-1.861950040E0,1.103880369E1
1.668615923E0,-3.253050089E0,1.048605061E1,-1.824000120E0,1.112953587E1
1.670576519E0,-3.330000162E0,1.052505016E1,-1.900950074E0,1.120174956E1
1.672537273E0,-3.330000162E0,1.052505016E1,-1.861950040E0,1.119519718E1
1.674497981E0,-3.330000162E0,1.060095024E1,-1.824000120E0,1.126037404E1
1.676458608E0,-3.253050089E0,1.063995075E1,-1.861950040E0,1.128085745E1
1.678419272E0,-3.291000128E0,1.063995075E1,-1.861950040E0,1.129185954E1
1.680379699E0,-3.175950050E0,1.071600056E1,-1.900950074E0,1.133723678E1
1.682340195E0,-3.138000250E0,1.079295063E1,-1.900950074E0,1.139949297E1
1.684300965E0,-3.100050211E0,1.079295063E1,-1.939050078E0,1.139552587E1
1.686261654E0,-3.022950172E0,1.083105087E1,-1.861950040E0,1.139810286E1
1.688222632E0,-2.869950056E0,1.083105087E1,-1.861950040E0,1.135848292E1
1.690183515E0,-2.869950056E0,1.083105087E1,-1.861950040E0,1.135848292E1
1.692144130E0,-2.716050148E0,1.087005043E1,-1.824000120E0,1.135173560E1
1.694104824E0,-2.601000071E0,1.083105087E1,-1.708950043E0,1.126931119E1
1.696065785E0,-2.448000193E0,1.079295063E1,-1.479000092E0,1.116547937E1
1.698026668E0,-2.410050154E0,1.083105087E1,-1.363950014E0,1.117946172E1
1.699987589E0,-2.256000042E0,1.087005043E1,-1.210950017E0,1.116753923E1
1.701948505E0,-2.179949999E0,1.087005043E1,-1.096050024E0,1.114053428E1
1.703909564E0,-2.103000164E0,1.087005043E1,-9.040500522E-1,1.110846130E1
1.705870581E0,-2.026050091E0,1.094595051E1,-7.510500550E-1,1.115718547E1
1.707831354E0,-1.911000133E0,1.094595051E1,-6.360000372E-1,1.112970126E1
1.709792199E0,-1.795950055E0,1.102305031E1,-5.209500194E-1,1.118053950E1
1.711752764E0,-1.758000135E0,1.106100082E1,-4.819500148E-1,1.121019980E1
1.713713387E0,-1.795950055E0,1.102305031E1,-9.420000315E-1,1.120805241E1
1.715673685E0,-1.489950061E0,1.106100082E1,-6.360000372E-1,1.117900651E1
1.717634079E0,-1.336950064E0,1.110000038E1,-2.205000073E-2,1.118024732E1
1.719594192E0,-1.260000110E0,1.117605019E1,2.449500114E-1,1.124951993E1
1.721554387E0,-1.183050036E0,1.121400070E1,3.220500052E-1,1.128083044E1
1.723515809E0,-1.030050039E0,1.121400070E1,2.449500114E-1,1.126387213E1
1.725476861E0,-9.919500351E-1,1.121400070E1,2.070000172E-1,1.125969030E1
1.727437718E0,-8.770500422E-1,1.129095078E1,2.830500007E-1,1.132849961E1
1.729398633E0,-7.230000496E-1,1.125300026E1,2.449500114E-1,1.127886273E1
1.731358881E0,-6.469500065E-1,1.132905006E1,3.220500052E-1,1.135207628E1
1.733319325E0,-5.320500135E-1,1.132905006E1,4.360500276E-1,1.134991596E1
1.735280168E0,-4.170000255E-1,1.136805058E1,6.280500293E-1,1.139302022E1
1.737240880E0,-2.629500031E-1,1.140600014E1,7.429500222E-1,1.143319538E1
1.739201839E0,-1.480500102E-1,1.148295021E1,9.349500537E-1,1.152190071E1
1.741162726E0,-3.299999982E-2,1.155900097E1,1.050000072E0,1.160664002E1
1.743123431E0,4.050000105E-3,1.167405033E1,1.126049995E0,1.172823329E1
1.745084190E0,8.100000024E-2,1.171305084E1,1.126049995E0,1.176733231E1
1.747044645E0,1.960500032E-1,1.175100040E1,1.240950108E0,1.181796951E1
1.749005190E0,3.490500152E-1,1.178895092E1,1.126049995E0,1.184775035E1
1.750966853E0,4.639500082E-1,1.186605072E1,1.240950108E0,1.193978084E1
1.752928188E0,6.550500393E-1,1.186605072E1,1.318050027E0,1.195698566E1
1.754888681E0,8.089500666E-1,1.186605072E1,1.356000066E0,1.197064309E1
1.756849421E0,9.619500637E-1,1.178895092E1,1.432950020E0,1.191461529E1
1.758810199E0,1.114950061E0,1.178895092E1,1.510050058E0,1.193745067E1
1.760770962E0,1.192050099E0,1.171305084E1,1.356000066E0,1.185138303E1
1.762731778E0,1.114950061E0,1.144395065E1,1.087950110E0,1.154949157E1
1.764692578E0,1.306950092E0,1.144395065E1,1.432950020E0,1.160713017E1
1.766653658E0,1.422000051E0,1.140600014E1,1.855050087E0,1.164302942E1
1.768614655E0,1.537050128E0,1.125300026E1,1.969950080E0,1.152706560E1
1.770575566E0,1.537050128E0,1.106100082E1,1.855050087E0,1.132031241E1
1.772536503E0,1.537050128E0,1.090800095E1,1.777950048E0,1.115832040E1
1.774497288E0,1.575000048E0,1.071600056E1,1.701000094E0,1.096388136E1
1.776458118E0,1.537050128E0,1.048605061E1,1.663050056E0,1.072779175E1
1.778419372E0,1.422000051E0,1.018005085E1,1.624950051E0,1.040653555E1
1.780380501E0,1.384050012E0,9.949950218E0,1.777950048E0,1.020187287E1
1.782341605E0,1.422000051E0,9.720000267E0,1.893000126E0,1.000419606E1
1.784302724E0,1.384050012E0,9.412950516E0,1.701000094E0,9.665021116E0
1.786263927E0,1.422000051E0,9.183000565E0,1.701000094E0,9.446850525E0
1.788225106E0,1.459950089E0,8.914950371E0,1.548000097E0,9.165374988E0
1.790186031E0,1.345050097E0,8.608050346E0,1.585950017E0,8.855672080E0
1.792147031E0,1.306950092E0,8.416950226E0,1.585950017E0,8.664202624E0
1.794108260E0,1.269000053E0,8.187000275E0,1.548000097E0,8.428145640E0
1.796069419E0,1.230000019E0,8.032950401E0,1.510050058E0,8.265678640E0
1.798030348E0,1.153950095E0,7.842000484E0,1.471050024E0,8.061796363E0
1.799991344E0,1.000050068E0,7.765050411E0,1.471050024E0,7.966184545E0
1.801952434E0,9.240000248E-1,7.650000572E0,1.432950020E0,7.837705695E0
1.803913496E0,8.470500112E-1,7.612050533E0,1.432950020E0,7.791928696E0
1.805874171E0,7.320000529E-1,7.612050533E0,1.432950020E0,7.780262409E0
1.807834959E0,6.169500351E-1,7.650000572E0,1.432950020E0,7.807463215E0
1.809795230E0,5.410500169E-1,7.650000572E0,1.432950020E0,7.801832454E0
1.811755652E0,5.020500422E-1,7.687950134E0,1.432950020E0,7.836451829E0
1.813716660E0,4.260000288E-1,7.726950169E0,1.432950020E0,7.870233840E0
1.815677496E0,3.490500152E-1,7.842000484E0,1.471050024E0,7.986413193E0
1.817638594E0,2.719500065E-1,7.879950523E0,1.432950020E0,8.013795781E0
1.819599630E0,2.719500065E-1,8.032950401E0,1.471050024E0,8.171060955E0
1.821560669E0,1.960500032E-1,8.071949959E0,1.432950020E0,8.200497393E0
1.823521707E0,1.960500032E-1,8.110050201E0,1.471050024E0,8.244715765E0
1.825482611E0,1.189500093E-1,8.224950790E0,1.510050058E0,8.363265857E0
1.827443555E0,4.200000316E-2,8.302050591E0,1.471050024E0,8.431476513E0
1.829404824E0,-7.200000435E-2,8.455050468E0,1.510050058E0,8.589139282E0
1.831366004E0,-1.480500102E-1,8.569950104E0,1.548000097E0,8.709894826E0
1.833327110E0,-3.400500119E-1,8.647050858E0,1.510050058E0,8.784496213E0
1.835288237E0,-3.400500119E-1,8.800050735E0,1.663050056E0,8.962268822E0
1.837249619E0,-4.930500090E-1,8.991000175E0,1.548000097E0,9.136601489E0
1.839210927E0,-6.079500318E-1,9.145050049E0,1.510050058E0,9.288799428E0
1.841171781E0,-6.469500065E-1,9.183000565E0,1.471050024E0,9.322555007E0
1.843132771E0,-7.999500632E-1,9.298050880E0,1.510050058E0,9.453778158E0
1.845094042E0,-9.150000215E-1,9.490050316E0,1.510050058E0,9.652902735E0
1.847055230E0,-9.529500604E-1,9.565950394E0,1.510050058E0,9.731175259E0
1.849015974E0,-9.919500351E-1,9.643050194E0,1.510050058E0,9.810842629E0
1.850976848E0,-1.030050039E0,9.604950905E0,1.510050058E0,9.777337886E0
1.852937773E0,-1.068000078E0,9.681000710E0,1.510050058E0,9.856097102E0
1.854898687E0,-1.144950032E0,9.681000710E0,1.471050024E0,9.858837329E0
1.856859747E0,-1.183050036E0,9.643050194E0,1.356000066E0,9.809523975E0
1.858820764E0,-1.183050036E0,9.604950905E0,1.432950020E0,9.783048351E0
1.860781537E0,-1.183050036E0,9.565950394E0,1.510050058E0,9.756396133E0
1.862742381E0,-1.144950032E0,9.528000832E0,1.510050058E0,9.714626169E0
1.864703271E0,-1.144950032E0,9.490050316E0,1.510050058E0,9.677407543E0
1.866664148E0,-1.030050039E0,9.412950516E0,1.471050024E0,9.582725534E0
1.868625440E0,-9.919500351E-1,9.451050758E0,1.471050024E0,9.616148578E0
1.870586610E0,-9.529500604E-1,9.375000000E0,1.356000066E0,9.520371579E0
1.872547672E0,-9.150000215E-1,9.336000443E0,1.240950108E0,9.462456683E0
1.874508766E0,-7.999500632E-1,9.298050880E0,1.203000069E0,9.409616328E0
1.876469821E0,-6.469500065E-1,9.220950127E0,1.240950108E0,9.326543986E0
1.878430901E0,-5.700000525E-1,9.183000565E0,1.165050030E0,9.274143680E0
1.880391662E0,-4.170000255E-1,9.145050049E0,1.165050030E0,9.228389404E0
1.882352516E0,-3.400500119E-1,9.067950249E0,1.050000072E0,9.134870326E0
1.884313945E0,-2.629500031E-1,9.030000687E0,1.011000037E0,9.090224210E0
1.886275206E0,-1.480500102E-1,8.953050613E0,1.011000037E0,9.011168357E0
1.888236239E0,-3.299999982E-2,8.914950371E0,1.050000072E0,8.976632401E0
1.890197348E0,1.189500093E-1,8.914950371E0,9.730500579E-1,8.968685279E0
1.892158059E0,1.570500135E-1,8.877000809E0,9.730500579E-1,8.931552747E0
1.894118887E0,3.109500110E-1,8.761950493E0,9.730500579E-1,8.821297680E0
1.896079646E0,3.490500152E-1,8.800050735E0,9.730500579E-1,8.860561792E0
1.898040425E0,5.020500422E-1,8.761950493E0,8.959500194E-1,8.821936132E0
1.900002244E0,6.169500351E-1,8.722949982E0,8.580000401E-1,8.786731349E0
1.901963779E0,7.320000529E-1,8.722949982E0,8.959500194E-1,8.799341276E0
1.903924282E0,8.089500666E-1,8.722949982E0,8.959500194E-1,8.806076483E0
1.905885088E0,8.089500666E-1,8.685000420E0,7.810500264E-1,8.757492315E0
1.907845985E0,9.240000248E-1,8.722949982E0,7.810500264E-1,8.806456244E0
1.909806856E0,9.619500637E-1,8.761950493E0,8.200500607E-1,8.852660982E0
1.911767604E0,1.114950061E0,8.800050735E0,8.200500607E-1,8.908225900E0
1.913728391E0,1.192050099E0,8.800050735E0,7.810500264E-1,8.914702212E0
1.915689022E0,1.269000053E0,8.838000298E0,7.429500222E-1,8.959496924E0
1.917649699E0,1.306950092E0,8.838000298E0,7.050000429E-1,8.961885564E0
1.919610798E0,1.345050097E0,8.877000809E0,7.050000429E-1,9.005960703E0
1.921571774E0,1.384050012E0,8.838000298E0,7.429500222E-1,8.976514826E0
1.923532387E0,1.459950089E0,8.838000298E0,8.200500607E-1,8.995231271E0
1.925493097E0,1.498950124E0,8.877000809E0,8.200500607E-1,9.039937883E0
1.927454011E0,1.537050128E0,8.877000809E0,7.810500264E-1,9.042881488E0
1.929414865E0,1.459950089E0,8.991000175E0,7.810500264E-1,9.142186695E0
1.931375440E0,1.498950124E0,8.991000175E0,8.200500607E-1,9.151907874E0
1.933336097E0,1.459950089E0,9.030000687E0,8.580000401E-1,9.187411536E0
1.935296769E0,1.459950089E0,9.067950249E0,8.580000401E-1,9.224713548E0
1.937257424E0,1.384050012E0,9.183000565E0,8.580000401E-1,9.326267092E0
1.939218392E0,1.269000053E0,9.183000565E0,6.660000086E-1,9.294160345E0
1.941179268E0,1.306950092E0,9.183000565E0,7.429500222E-1,9.305245437E0
1.943140155E0,1.306950092E0,9.145050049E0,8.959500194E-1,9.281313774E0
1.945101038E0,1.269000053E0,9.220950127E0,9.349500537E-1,9.354700101E0
1.947061815E0,1.192050099E0,9.259950638E0,1.087950110E0,9.399537473E0
1.949022636E0,1.077000022E0,9.298050880E0,1.165050030E0,9.432445112E0
1.950983711E0,1.039050102E0,9.298050880E0,1.240950108E0,9.437866944E0
1.952944711E0,9.619500637E-1,9.336000443E0,1.279950023E0,9.472303007E0
1.954905307E0,8.850000501E-1,9.375000000E0,1.318050027E0,9.508475480E0
1.956866021E0,7.699500322E-1,9.336000443E0,1.318050027E0,9.459967399E0
1.958826268E0,5.410500169E-1,9.375000000E0,1.279950023E0,9.477427509E0
1.960786645E0,5.410500169E-1,9.412950516E0,1.203000069E0,9.504924076E0
1.962747480E0,5.020500422E-1,9.375000000E0,1.240950108E0,9.470091679E0
1.964708181E0,4.639500082E-1,9.375000000E0,1.240950108E0,9.468148276E0
1.966669143E0,3.870000243E-1,9.412950516E0,1.318050027E0,9.512658004E0
1.968630028E0,3.490500152E-1,9.451050758E0,1.279950023E0,9.543713555E0
1.970590958E0,2.719500065E-1,9.565950394E0,1.432950020E0,9.676502958E0
1.972551874E0,1.570500135E-1,9.681000710E0,1.432950020E0,9.787736470E0
1.974512979E0,1.189500093E-1,9.643050194E0,1.432950020E0,9.749662143E0
1.976474028E0,4.050000105E-3,9.681000710E0,1.471050024E0,9.792128436E0
1.978435066E0,-3.299999982E-2,9.681000710E0,1.432950020E0,9.786532047E0
1.980396107E0,-7.200000435E-2,9.681000710E0,1.432950020E0,9.786741260E0
1.982357006E0,-7.200000435E-2,9.681000710E0,1.432950020E0,9.786741260E0
1.984317949E0,-1.480500102E-1,9.720000267E0,1.432950020E0,9.826172691E0
1.986279048E0,-1.480500102E-1,9.681000710E0,1.395000100E0,9.782112186E0
1.988240101E0,-1.870500147E-1,9.720000267E0,1.356000066E0,9.815912035E0
1.990200867E0,-2.250000089E-1,9.720000267E0,1.356000066E0,9.816708531E0
1.992161718E0,-2.629500031E-1,9.643050194E0,1.356000066E0,9.741472985E0
1.994122592E0,-3.019500077E-1,9.643050194E0,1.356000066E0,9.742603709E0
1.996083470E0,-4.170000255E-1,9.604950905E0,1.279950023E0,9.698826886E0
1.998044222E0,-4.170000255E-1,9.528000832E0,1.318050027E0,9.627769458E0
2.000005011E0,-4.549500346E-1,9.528000832E0,1.240950108E0,9.619237836E0
2.001965821E0,-4.170000255E-1,9.528000832E0,1.279950023E0,9.622627548E0
2.003926624E0,-4.549500346E-1,9.490050316E0,1.240950108E0,9.581648694E0
2.005887768E0,-4.549500346E-1,9.490050316E0,1.240950108E0,9.581648694E0
2.007848798E0,-5.320500135E-1,9.528000832E0,1.203000069E0,9.618372327E0
2.009809838E0,-5.320500135E-1,9.451050758E0,1.165050030E0,9.537440916E0
2.011770875E0,-6.079500318E-1,9.451050758E0,1.126049995E0,9.537292712E0
2.013732680E0,-7.230000496E-1,9.336000443E0,1.087950110E0,9.426943767E0
2.015694260E0,-1.106999993E0,9.183000565E0,3.220500052E-1,9.255088577E0
2.017654405E0,-9.150000215E-1,9.259950638E0,2.449500114E-1,9.308271126E0
2.019614964E0,-4.549500346E-1,9.183000565E0,1.011000037E0,9.249681074E0
2.021576084E0,-4.930500090E-1,9.183000565E0,1.395000100E0,9.301431232E0
2.023537039E0,-6.850500107E-1,9.220950127E0,1.356000066E0,9.345263556E0
2.025498137E0,-6.850500107E-1,9.220950127E0,1.240950108E0,9.329264276E0
2.027459193E0,-7.230000496E-1,9.183000565E0,1.011000037E0,9.266733487E0
2.029420415E0,-7.999500632E-1,9.183000565E0,8.200500607E-1,9.254182923E0
2.031381615E0,-8.380500674E-1,9.145050049E0,7.429500222E-1,9.213373055E0
2.033342897E0,-8.380500674E-1,9.145050049E0,6.660000086E-1,9.207487406E0
2.035304154E0,-9.150000215E-1,9.106050491E0,5.899500251E-1,9.170900808E0
2.037265201E0,-9.150000215E-1,9.145050049E0,5.899500251E-1,9.209625751E0
2.039226309E0,-9.529500604E-1,9.106050491E0,5.509500504E-1,9.172339687E0
2.041187546E0,-9.919500351E-1,9.106050491E0,4.750500321E-1,9.172229443E0
2.043148755E0,-1.030050039E0,9.067950249E0,3.979500234E-1,9.134937822E0
2.045110125E0,-1.106999993E0,9.067950249E0,3.600000143E-1,9.142361331E0
2.047071447E0,-1.068000078E0,9.106050491E0,3.979500234E-1,9.177098885E0
2.049032483E0,-1.144950032E0,9.030000687E0,3.979500234E-1,9.110992657E0
2.050993603E0,-1.144950032E0,9.067950249E0,4.360500276E-1,9.150342721E0
2.052954866E0,-1.297950029E0,9.030000687E0,2.449500114E-1,9.126093753E0
2.054916077E0,-1.297950029E0,9.067950249E0,3.220500052E-1,9.166030340E0
2.056876591E0,-1.297950029E0,9.030000687E0,3.600000143E-1,9.129906171E0
2.058837310E0,-1.336950064E0,9.067950249E0,4.750500321E-1,9.178280325E0
2.060798492E0,-1.336950064E0,9.106050491E0,3.979500234E-1,9.212271991E0
2.062759538E0,-1.336950064E0,9.183000565E0,3.220500052E-1,9.285399886E0
2.064721306E0,-1.413000107E0,9.145050049E0,2.449500114E-1,9.256808856E0
2.066682856E0,-1.413000107E0,9.106050491E0,1.680000126E-1,9.216558406E0
2.068643898E0,-1.413000107E0,8.991000175E0,9.195000678E-2,9.101818953E0
2.070605089E0,-1.375050068E0,8.953050613E0,1.300500035E-1,9.058961915E0
2.072565921E0,-1.222050071E0,8.953050613E0,2.070000172E-1,9.038438508E0
2.074526858E0,-1.297950029E0,9.067950249E0,2.449500114E-1,9.163645372E0
2.076487828E0,-1.297950029E0,9.336000443E0,1.680000126E-1,9.427290308E0
2.078448784E0,-1.413000107E0,9.604950905E0,1.300500035E-1,9.709199977E0
2.080410017E0,-1.375050068E0,9.757950783E0,5.295000225E-2,9.854499981E0
2.082371169E0,-1.260000110E0,9.757950783E0,9.195000678E-2,9.839393201E0
2.084332099E0,-1.183050036E0,9.757950783E0,-2.205000073E-2,9.829430150E0
2.086293094E0,-1.106999993E0,9.643050194E0,1.500000060E-2,9.706394337E0
2.088253824E0,-1.106999993E0,9.565950394E0,1.500000060E-2,9.629801707E0
2.090214632E0,-1.068000078E0,9.412950516E0,5.295000225E-2,9.473492771E0
2.092175350E0,-1.030050039E0,9.336000443E0,9.195000678E-2,9.393101839E0
2.094136094E0,-1.030050039E0,9.220950127E0,1.300500035E-1,9.279215340E0
2.096096911E0,-9.919500351E-1,9.145050049E0,1.300500035E-1,9.199609680E0
2.098057707E0,-9.529500604E-1,9.067950249E0,1.680000126E-1,9.119433071E0
2.100018782E0,-9.529500604E-1,9.067950249E0,1.680000126E-1,9.119433071E0
2.101979779E0,-8.770500422E-1,9.030000687E0,2.070000172E-1,9.074854169E0
2.103940690E0,-9.150000215E-1,9.030000687E0,2.830500007E-1,9.080652771E0
2.105901627E0,-8.380500674E-1,9.030000687E0,2.449500114E-1,9.072113360E0
2.107862187E0,-9.529500604E-1,8.877000809E0,2.449500114E-1,8.931363708E0
2.109822858E0,-1.030050039E0,8.877000809E0,2.449500114E-1,8.939918733E0
2.111783834E0,-9.150000215E-1,8.953050613E0,2.830500007E-1,9.004135585E0
2.113744745E0,-8.380500674E-1,8.914950371E0,2.449500114E-1,8.957603951E0
2.115705446E0,-8.380500674E-1,8.914950371E0,2.830500007E-1,8.958726770E0
2.117666209E0,-7.230000496E-1,8.953050613E0,1.680000126E-1,8.983766936E0
2.119627023E0,-7.620000243E-1,8.953050613E0,2.449500114E-1,8.988757413E0
2.121587822E0,-7.999500632E-1,8.991000175E0,2.830500007E-1,9.030953525E0
2.123547802E0,-8.380500674E-1,8.991000175E0,3.600000143E-1,9.037146235E0
2.125508036E0,-8.380500674E-1,8.991000175E0,3.600000143E-1,9.037146235E0
2.127469076E0,-8.770500422E-1,9.030000687E0,3.979500234E-1,9.081216515E0
2.129429880E0,-8.380500674E-1,9.106050491E0,3.220500052E-1,9.150202166E0
2.131391004E0,-8.770500422E-1,9.067950249E0,3.979500234E-1,9.118952939E0
2.133352034E0,-8.770500422E-1,9.183000565E0,3.600000143E-1,9.231810015E0
2.135312245E0,-8.770500422E-1,9.220950127E0,3.220500052E-1,9.268163476E0
2.137272709E0,-8.380500674E-1,9.183000565E0,3.220500052E-1,9.226784028E0
2.139233845E0,-8.380500674E-1,9.220950127E0,3.979500234E-1,9.267503082E0
2.141194784E0,-9.150000215E-1,9.183000565E0,3.600000143E-1,9.235492646E0
2.143156651E0,-1.068000078E0,9.220950127E0,-6.105000153E-2,9.282794434E0
2.145118246E0,-9.150000215E-1,9.220950127E0,9.195000678E-2,9.266693104E0
2.147078138E0,-8.380500674E-1,9.183000565E0,4.360500276E-1,9.231466130E0
2.149038540E0,-8.770500422E-1,9.220950127E0,4.750500321E-1,9.274740457E0
2.150999371E0,-9.150000215E-1,9.183000565E0,4.750500321E-1,9.240692449E0
2.152960077E0,-9.150000215E-1,9.259950638E0,3.979500234E-1,9.313553300E0
2.154922074E0,-9.150000215E-1,9.259950638E0,3.220500052E-1,9.310619048E0
2.156883692E0,-9.529500604E-1,9.298050880E0,2.830500007E-1,9.351041722E0
2.158844348E0,-9.529500604E-1,9.259950638E0,2.830500007E-1,9.313158269E0
2.160805296E0,-9.150000215E-1,9.220950127E0,2.449500114E-1,9.269473922E0
2.162765268E0,-9.150000215E-1,9.336000443E0,2.830500007E-1,9.385001151E0
2.164725526E0,-9.529500604E-1,9.336000443E0,3.220500052E-1,9.390033774E0
2.166686247E0,-9.529500604E-1,9.298050880E0,3.220500052E-1,9.352303470E0
2.168646832E0,-8.770500422E-1,9.259950638E0,3.220500052E-1,9.306966144E0
2.170607453E0,-8.770500422E-1,9.336000443E0,3.600000143E-1,9.384014122E0
2.172568063E0,-8.770500422E-1,9.298050880E0,4.360500276E-1,9.349497664E0
2.174529761E0,-8.770500422E-1,9.259950638E0,3.979500234E-1,9.309901547E0
2.176491140E0,-9.919500351E-1,9.298050880E0,1.680000126E-1,9.352322655E0
2.178451580E0,-8.380500674E-1,9.259950638E0,4.360500276E-1,9.308015543E0
2.180412296E0,-7.999500632E-1,9.220950127E0,5.509500504E-1,9.271967822E0
2.182373474E0,-7.620000243E-1,9.259950638E0,7.050000429E-1,9.317958731E0
2.184334520E0,-7.999500632E-1,9.259950638E0,7.429500222E-1,9.324086049E0
2.186295602E0,-7.230000496E-1,9.220950127E0,7.429500222E-1,9.279042248E0
2.188256673E0,-7.230000496E-1,9.220950127E0,7.429500222E-1,9.279042248E0
2.190217527E0,-7.230000496E-1,9.259950638E0,7.810500264E-1,9.320914871E0
2.192178445E0,-6.469500065E-1,9.259950638E0,8.200500607E-1,9.318675455E0
2.194139408E0,-6.850500107E-1,9.298050880E0,8.200500607E-1,9.359248143E0
2.196100361E0,-5.320500135E-1,9.220950127E0,8.959500194E-1,9.279640343E0
2.198061414E0,-6.469500065E-1,9.336000443E0,9.349500537E-1,9.404976352E0
2.200022438E0,-6.850500107E-1,9.298050880E0,9.730500579E-1,9.373893007E0
2.201983345E0,-6.079500318E-1,9.375000000E0,9.349500537E-1,9.441099504E0
2.203944286E0,-6.079500318E-1,9.375000000E0,1.165050030E0,9.466655683E0
2.205904691E0,-4.930500090E-1,9.451050758E0,1.126049995E0,9.530658285E0
2.207865267E0,-5.700000525E-1,9.490050316E0,1.087950110E0,9.569200097E0
2.209826248E0,-6.079500318E-1,9.528000832E0,1.126049995E0,9.613552501E0
2.211787111E0,-4.930500090E-1,9.565950394E0,1.165050030E0,9.649240738E0
2.213748044E0,-6.850500107E-1,9.643050194E0,7.050000429E-1,9.693025101E0
2.215708957E0,-6.469500065E-1,9.681000710E0,8.580000401E-1,9.740456002E0
2.217670100E0,-4.930500090E-1,9.720000267E0,1.203000069E0,9.806564774E0
2.219631149E0,-4.930500090E-1,9.796050072E0,1.279950023E0,9.891610960E0
2.221591871E0,-5.320500135E-1,9.873000145E0,1.279950023E0,9.969828541E0
2.223552689E0,-5.700000525E-1,9.873000145E0,1.240950108E0,9.966994988E0
2.225513764E0,-5.320500135E-1,9.988050461E0,1.203000069E0,1.007429593E1
2.227474764E0,-5.700000525E-1,1.002600002E1,1.203000069E0,1.011398960E1
2.229435869E0,-6.469500065E-1,1.002600002E1,1.050000072E0,1.010157022E1
2.231396933E0,-6.850500107E-1,1.006500053E1,1.050000072E0,1.014278213E1
2.233357698E0,-6.469500065E-1,1.018005085E1,1.087950110E0,1.025844116E1
2.235318551E0,-6.850500107E-1,1.021800041E1,1.165050030E0,1.030699605E1
2.237279440E0,-7.230000496E-1,1.029495049E1,1.087950110E0,1.037749344E1
2.239240318E0,-7.230000496E-1,1.025595093E1,1.050000072E0,1.033488068E1
2.241200935E0,-8.770500422E-1,1.033305073E1,7.429500222E-1,1.039678454E1
2.243161628E0,-8.380500674E-1,1.037100029E1,8.959500194E-1,1.044330893E1
2.245122364E0,-8.380500674E-1,1.037100029E1,1.050000072E0,1.045765151E1
2.247083087E0,-8.380500674E-1,1.041000080E1,1.087950110E0,1.050019429E1
2.249044044E0,-8.380500674E-1,1.044795036E1,1.126049995E0,1.054182068E1
2.251004933E0,-9.150000215E-1,1.048605061E1,1.126049995E0,1.058595631E1
2.252965663E0,-9.150000215E-1,1.052505016E1,1.126049995E0,1.062458915E1
2.254926454E0,-9.150000215E-1,1.056300068E1,1.011000037E0,1.065064925E1
2.256887084E0,-1.030050039E0,1.063995075E1,7.429500222E-1,1.071548085E1
2.258847761E0,-9.150000215E-1,1.063995075E1,8.200500607E-1,1.071066100E1
2.260808681E0,-9.150000215E-1,1.060095024E1,8.959500194E-1,1.067801936E1
2.262769529E0,-8.770500422E-1,1.063995075E1,8.959500194E-1,1.071356594E1
2.264730317E0,-9.150000215E-1,1.056300068E1,8.200500607E-1,1.063422261E1
2.266691132E0,-9.529500604E-1,1.060095024E1,7.429500222E-1,1.066959393E1
2.268651894E0,-9.529500604E-1,1.063995075E1,7.050000429E-1,1.070577839E1
2.270612671E0,-1.030050039E0,1.063995075E1,4.360500276E-1,1.069858377E1
2.272573573E0,-9.919500351E-1,1.063995075E1,4.360500276E-1,1.069498277E1
2.274534438E0,-9.919500351E-1,1.060095024E1,4.750500321E-1,1.065785079E1
2.276494895E0,-9.529500604E-1,1.060095024E1,5.130000114E-1,1.065605128E1
2.278455459E0,-9.919500351E-1,1.056300068E1,5.899500251E-1,1.062586416E1
2.280416037E0,-1.106999993E0,1.056300068E1,3.979500234E-1,1.062830168E1
2.282376611E0,-1.183050036E0,1.056300068E1,3.600000143E-1,1.063513943E1
2.284338135E0,-1.222050071E0,1.056300068E1,2.830500007E-1,1.063722271E1
2.286299380E0,-1.260000110E0,1.060095024E1,2.449500114E-1,1.067837754E1
2.288259884E0,-1.260000110E0,1.056300068E1,1.680000126E-1,1.063921086E1
2.290220608E0,-1.452000022E0,1.060095024E1,1.500000060E-2,1.069993809E1
2.292181204E0,-1.489950061E0,1.060095024E1,5.295000225E-2,1.070527444E1
2.294141838E0,-1.452000022E0,1.060095024E1,1.300500035E-1,1.070071788E1
2.296102450E0,-1.528050065E0,1.052505016E1,1.300500035E-1,1.063618968E1
2.298063069E0,-1.642950058E0,1.067805004E1,9.195000678E-2,1.080409609E1
2.300023887E0,-1.681950092E0,1.067805004E1,1.300500035E-1,1.081048666E1
2.301984630E0,-1.681950092E0,1.067805004E1,9.195000678E-2,1.081009545E1
2.303945225E0,-1.758000135E0,1.067805004E1,1.500000060E-2,1.082180864E1
2.305905863E0,-1.758000135E0,1.067805004E1,1.500000060E-2,1.082180864E1
2.307866339E0,-1.758000135E0,1.071600056E1,1.500000060E-2,1.085925676E1
2.309826863E0,-1.758000135E0,1.075500011E1,1.500000060E-2,1.089774366E1
2.311787693E0,-1.758000135E0,1.071600056E1,1.500000060E-2,1.085925676E1
2.313748419E0,-1.720050097E0,1.071600056E1,1.500000060E-2,1.085317766E1
2.315709511E0,-1.681950092E0,1.079295063E1,-9.900000691E-2,1.092366882E1
2.317670496E0,-1.720050097E0,1.083105087E1,-1.759500057E-1,1.096819009E1
2.319631455E0,-1.528050065E0,1.083105087E1,-1.369500011E-1,1.093916612E1
2.321592421E0,-1.452000022E0,1.083105087E1,5.295000225E-2,1.092807260E1
2.323553370E0,-1.375050068E0,1.087005043E1,1.500000060E-2,1.095668673E1
2.325514300E0,-1.336950064E0,1.094595051E1,-2.205000073E-2,1.102731854E1
2.327475177E0,-1.375050068E0,1.094595051E1,-6.105000153E-2,1.103214949E1
2.329436069E0,-1.375050068E0,1.098495007E1,-1.759500057E-1,1.107207519E1
2.331396863E0,-1.260000110E0,1.102305031E1,-2.140500098E-1,1.109689397E1
2.333357685E0,-1.183050036E0,1.102305031E1,-2.140500098E-1,1.108842022E1
2.335318460E0,-1.222050071E0,1.102305031E1,-2.140500098E-1,1.109264900E1
2.337279238E0,-1.222050071E0,1.102305031E1,-2.520000041E-1,1.109344619E1
2.339239826E0,-1.222050071E0,1.106100082E1,-1.759500057E-1,1.112969470E1
2.341200469E0,-1.106999993E0,1.106100082E1,1.300500035E-1,1.111701854E1
2.343160313E0,-1.144950032E0,1.106100082E1,2.830500007E-1,1.112370294E1
2.345120392E0,-1.183050036E0,1.102305031E1,3.979500234E-1,1.109349403E1
2.347081653E0,-1.222050071E0,1.106100082E1,4.360500276E-1,1.113684359E1
2.349042558E0,-1.260000110E0,1.106100082E1,5.130000114E-1,1.114434873E1
2.351003529E0,-1.260000110E0,1.110000038E1,6.280500293E-1,1.118892558E1
2.352964481E0,-1.144950032E0,1.106100082E1,8.580000401E-1,1.115315264E1
2.354925355E0,-1.336950064E0,1.106100082E1,1.050000072E0,1.119087462E1
2.356886252E0,-1.336950064E0,1.113795090E1,1.165050030E0,1.127824132E1
2.358846845E0,-1.336950064E0,1.110000038E1,1.318050027E0,1.125765072E1
2.360807541E0,-1.375050068E0,1.113795090E1,1.432950020E0,1.131362270E1
2.362768321E0,-1.375050068E0,1.110000038E1,1.471050024E0,1.128116835E1
2.364729077E0,-1.375050068E0,1.106100082E1,1.624950051E0,1.126396753E1
2.366689849E0,-1.413000107E0,1.110000038E1,1.740000129E0,1.132405308E1
2.368650616E0,-1.452000022E0,1.113795090E1,1.930950046E0,1.139696549E1
2.370611404E0,-1.452000022E0,1.113795090E1,2.046000004E0,1.141702108E1
2.372572173E0,-1.452000022E0,1.113795090E1,2.275950193E0,1.146046262E1
2.374532763E0,-1.452000022E0,1.121400070E1,2.430000067E0,1.156576915E1
2.376493406E0,-1.413000107E0,1.117605019E1,2.545050144E0,1.154893706E1
2.378454196E0,-1.375050068E0,1.113795090E1,2.659050226E0,1.153322422E1
2.380414943E0,-1.336950064E0,1.110000038E1,2.773950100E0,1.151921191E1
2.382375851E0,-1.260000110E0,1.113795090E1,2.965950251E0,1.159475793E1
2.384336712E0,-1.183050036E0,1.106100082E1,3.004050255E0,1.152257196E1
2.386297646E0,-1.144950032E0,1.110000038E1,3.118950129E0,1.158657710E1
2.388258558E0,-9.919500351E-1,1.106100082E1,3.196050167E0,1.155614299E1
2.390219169E0,-9.150000215E-1,1.106100082E1,3.196050167E0,1.154979225E1
2.392179868E0,-8.770500422E-1,1.098495007E1,3.310950041E0,1.150655182E1
2.394140821E0,-7.230000496E-1,1.098495007E1,3.349050045E0,1.150686722E1
2.396101673E0,-5.700000525E-1,1.098495007E1,3.463950157E0,1.153225818E1
2.398062608E0,-4.549500346E-1,1.087005043E1,3.502950191E0,1.142959474E1
2.400023519E0,-4.170000255E-1,1.083105087E1,3.426000118E0,1.136763075E1
2.401984130E0,-1.870500147E-1,1.075500011E1,3.502950191E0,1.131263343E1
2.403944829E0,-1.099500060E-1,1.067805004E1,3.541050196E0,1.125041680E1
2.405905609E0,4.200000316E-2,1.060095024E1,3.541050196E0,1.117680395E1
2.407866365E0,1.570500135E-1,1.056300068E1,3.618000269E0,1.116653814E1
2.409827093E0,3.109500110E-1,1.052505016E1,3.655950069E0,1.114627031E1
2.411787829E0,4.639500082E-1,1.041000080E1,3.655950069E0,1.104306738E1
2.413749324E0,6.169500351E-1,1.033305073E1,3.733050108E0,1.100400962E1
2.415710596E0,8.089500666E-1,1.029495049E1,3.694050074E0,1.096751620E1
2.417671311E0,1.039050102E0,1.018005085E1,3.694050074E0,1.087929531E1
2.419632200E0,1.153950095E0,1.010295010E1,3.618000269E0,1.079310555E1
2.421592948E0,1.306950092E0,1.002600002E1,3.618000269E0,1.073865545E1
2.423553738E0,1.384050012E0,9.910950661E0,3.579000235E0,1.062787750E1
2.425514323E0,1.537050128E0,9.873000145E0,3.618000269E0,1.062678601E1
2.427474969E0,1.767000079E0,9.757950783E0,3.655950069E0,1.056909947E1
2.429435763E0,1.882050037E0,9.604950905E0,3.655950069E0,1.044811778E1
2.431396510E0,2.074050188E0,9.528000832E0,3.694050074E0,1.042739133E1
2.433357104E0,2.188950062E0,9.336000443E0,3.618000269E0,1.024901618E1
2.435317743E0,2.304000139E0,9.259950638E0,3.618000269E0,1.020514715E1
2.437278714E0,2.457000017E0,9.067950249E0,3.579000235E0,1.005354731E1
2.439239587E0,2.533950090E0,8.914950371E0,3.541050196E0,9.921505917E0
2.441200478E0,2.686950207E0,8.761950493E0,3.463950157E0,9.797470518E0
2.443161360E0,2.802000046E0,8.647050858E0,3.426000118E0,9.713916285E0
2.445122156E0,2.992950201E0,8.532000542E0,3.310950041E0,9.628871913E0
2.447082978E0,3.184950113E0,8.340000153E0,3.196050167E0,9.482312294E0
2.449043738E0,3.337950230E0,8.110050201E0,3.157950163E0,9.321345141E0
2.451004516E0,3.453000069E0,7.957050323E0,2.965950251E0,9.167045337E0
2.452965446E0,3.645000219E0,7.113000393E0,2.161050081E0,8.279549423E0
2.454926312E0,3.952050209E0,7.189950466E0,2.085000038E0,8.465300569E0
2.456887065E0,4.027950287E0,7.305000305E0,2.659050226E0,8.755453219E0
2.458847852E0,3.952050209E0,7.228050232E0,2.773950100E0,8.692422572E0
2.460808618E0,4.027950287E0,7.228050232E0,2.659050226E0,8.691354427E0
2.462769390E0,4.105050087E0,7.267050266E0,2.545050144E0,8.725751316E0
2.464730185E0,4.143000126E0,7.228050232E0,2.391000032E0,8.667527984E0
2.466690986E0,4.182000160E0,7.267050266E0,2.161050081E0,8.658480373E0
2.468651751E0,4.143000126E0,7.267050266E0,1.930950046E0,8.585047332E0
2.470612526E0,4.105050087E0,7.305000305E0,1.740000129E0,8.558157870E0
2.472572889E0,4.105050087E0,7.381950378E0,1.510050058E0,8.580494087E0
2.474533373E0,3.990000248E0,7.420050144E0,1.471050024E0,8.552264863E0
2.476494072E0,3.874950171E0,7.497000217E0,1.471050024E0,8.566460136E0
2.478454696E0,3.760050297E0,7.612050533E0,1.395000100E0,8.603912879E0
2.480415311E0,3.607050180E0,7.726950169E0,1.356000066E0,8.634541452E0
2.482375929E0,3.453000069E0,7.957050323E0,1.279950023E0,8.767903477E0
2.484336678E0,3.337950230E0,8.071949959E0,1.203000069E0,8.817340701E0
2.486297389E0,3.184950113E0,8.263050079E0,1.240950108E0,8.942139621E0
2.488258164E0,2.955000162E0,8.455050468E0,1.240950108E0,9.042115989E0
2.490218923E0,2.764050245E0,8.647050858E0,1.240950108E0,9.162500721E0
2.492179199E0,2.610000134E0,8.800050735E0,1.203000069E0,9.257440403E0
2.494139617E0,2.419050217E0,9.030000687E0,1.203000069E0,9.425493383E0
2.496100265E0,2.227050066E0,9.220950127E0,1.126049995E0,9.552678254E0
2.498060846E0,1.996950150E0,9.375000000E0,1.165050030E0,9.655867463E0
2.500021607E0,1.729050040E0,9.528000832E0,1.126049995E0,9.748866728E0
2.501982312E0,1.537050128E0,9.643050194E0,1.087950110E0,9.825201045E0
2.503943272E0,1.384050012E0,9.757950783E0,1.011000037E0,9.907336624E0
2.505904158E0,1.230000019E0,9.949950218E0,1.050000072E0,1.008052129E1
2.507864908E0,1.077000022E0,1.010295010E1,8.959500194E-1,1.019962039E1
2.509825698E0,8.470500112E-1,1.018005085E1,8.959500194E-1,1.025444564E1
2.511785788E0,6.550500393E-1,1.029495049E1,8.580000401E-1,1.035138928E1
2.513746083E0,4.260000288E-1,1.044795036E1,7.810500264E-1,1.048576091E1
2.515707068E0,2.340000123E-1,1.063995075E1,6.280500293E-1,1.066103911E1
2.517667850E0,8.100000024E-2,1.079295063E1,5.509500504E-1,1.080730726E1
2.519628618E0,-7.200000435E-2,1.098495007E1,4.360500276E-1,1.099383698E1
2.521589391E0,-2.629500031E-1,1.110000038E1,3.979500234E-1,1.111024371E1
2.523550178E0,-4.170000255E-1,1.117605019E1,3.979500234E-1,1.119090483E1
2.525510948E0,-5.700000525E-1,1.129095078E1,4.360500276E-1,1.131373542E1
2.527471896E0,-7.230000496E-1,1.140600014E1,3.979500234E-1,1.143581796E1
2.529432792E0,-8.770500422E-1,1.152105045E1,3.979500234E-1,1.156123629E1
2.531394126E0,-9.529500604E-1,1.159800053E1,2.449500114E-1,1.163966196E1
2.533355331E0,-1.106999993E0,1.171305084E1,2.070000172E-1,1.176706667E1
2.535316007E0,-1.222050071E0,1.175100040E1,1.680000126E-1,1.181556773E1
2.537276852E0,-1.260000110E0,1.182795048E1,5.295000225E-2,1.189499123E1
2.539237742E0,-1.413000107E0,1.190400028E1,-2.205000073E-2,1.198758851E1
2.541198619E0,-1.567050099E0,1.198095036E1,-6.105000153E-2,1.208315127E1
2.543159416E0,-1.758000135E0,1.205805016E1,-6.105000153E-2,1.218568279E1
2.545120237E0,-1.873050094E0,1.205805016E1,-6.105000153E-2,1.220281186E1
2.547080971E0,-1.950000048E0,1.213395023E1,-6.105000153E-2,1.228979152E1
2.549041717E0,-2.065050125E0,1.224900055E1,-1.369500011E-1,1.242260849E1
2.551002489E0,-2.140950203E0,1.221105099E1,-6.105000153E-2,1.239746591E1
2.552963254E0,-2.218050003E0,1.221105099E1,-1.369500011E-1,1.241161824E1
2.554923890E0,-2.256000042E0,1.217295074E1,-1.369500011E-1,1.238099436E1
2.556884564E0,-2.410050154E0,1.213395023E1,-9.900000691E-2,1.237137385E1
2.558845303E0,-2.524950027E0,1.209600067E1,-9.900000691E-2,1.235711964E1
2.560806023E0,-2.640000105E0,1.198095036E1,-1.759500057E-1,1.226962633E1
2.562766801E0,-2.755050182E0,1.186605072E1,-2.520000041E-1,1.218429174E1
2.564727562E0,-2.716050148E0,1.175100040E1,-2.140500098E-1,1.206270104E1
2.566688558E0,-2.716050148E0,1.159800053E1,-2.520000041E-1,1.191444705E1
2.568649485E0,-2.755050182E0,1.144395065E1,-2.520000041E-1,1.177360659E1
2.570610234E0,-2.755050182E0,1.132905006E1,-2.520000041E-1,1.166195442E1
2.572571031E0,-2.677950144E0,1.125300026E1,-1.759500057E-1,1.156859500E1
2.574531796E0,-2.640000105E0,1.117605019E1,-2.140500098E-1,1.148562213E1
2.576492570E0,-2.640000105E0,1.106100082E1,-3.289500177E-1,1.137644707E1
2.578453158E0,-2.524950027E0,1.098495007E1,-2.910000086E-1,1.127515772E1
2.580413800E0,-2.410050154E0,1.087005043E1,-2.910000086E-1,1.113781932E1
2.582374590E0,-2.295000076E0,1.083105087E1,-2.910000086E-1,1.107534963E1
2.584335337E0,-2.218050003E0,1.075500011E1,-2.910000086E-1,1.098519250E1
2.586296066E0,-2.103000164E0,1.067805004E1,-4.060500264E-1,1.089074098E1
2.588256800E0,-2.065050125E0,1.056300068E1,-4.060500264E-1,1.077062171E1
2.590217395E0,-1.950000048E0,1.052505016E1,-4.060500264E-1,1.071186528E1
2.592178031E0,-1.834950089E0,1.048605061E1,-3.670500219E-1,1.065171464E1
2.594138836E0,-1.720050097E0,1.041000080E1,-4.440000355E-1,1.056048413E1
2.596099582E0,-1.605000019E0,1.033305073E1,-4.819500148E-1,1.046805800E1
2.598060535E0,-1.567050099E0,1.021800041E1,-4.819500148E-1,1.034869336E1
2.600021428E0,-1.528050065E0,1.025595093E1,-5.209500194E-1,1.038223749E1
2.601982042E0,-1.452000022E0,1.018005085E1,-5.970000029E-1,1.030039554E1
2.603942738E0,-1.375050068E0,1.018005085E1,-5.209500194E-1,1.028569817E1
2.605903488E0,-1.297950029E0,1.014105034E1,-5.209500194E-1,1.023703889E1
2.607864212E0,-1.222050071E0,1.014105034E1,-6.739500165E-1,1.023662625E1
2.609824989E0,-1.106999993E0,1.010295010E1,-6.360000372E-1,1.018329739E1
2.611785751E0,-1.068000078E0,1.014105034E1,-7.120500207E-1,1.022196367E1
2.613746387E0,-9.150000215E-1,1.006500053E1,-7.120500207E-1,1.013155842E1
2.615707060E0,-8.770500422E-1,9.910950661E0,-7.890000343E-1,9.980915831E0
2.617668145E0,-7.620000243E-1,9.835050583E0,-8.269500136E-1,9.899126746E0
2.619629120E0,-6.850500107E-1,9.757950783E0,-8.269500136E-1,9.816860156E0
2.621590035E0,-6.850500107E-1,9.643050194E0,-9.040500522E-1,9.709532278E0
2.623550968E0,-6.469500065E-1,9.528000832E0,-8.269500136E-1,9.585676318E0
2.625511754E0,-4.930500090E-1,9.451050758E0,-8.269500136E-1,9.499963425E0
2.627472584E0,-4.170000255E-1,9.336000443E0,-7.510500550E-1,9.375439695E0
2.629433312E0,-4.170000255E-1,9.220950127E0,-8.269500136E-1,9.267343556E0
2.631394060E0,-3.400500119E-1,9.106050491E0,-8.269500136E-1,9.149843490E0
2.633354877E0,-2.250000089E-1,8.953050613E0,-9.420000315E-1,9.005282025E0
2.635315674E0,-1.870500147E-1,8.838000298E0,-9.420000315E-1,8.890028179E0
2.637276394E0,-1.480500102E-1,8.800050735E0,-9.810000658E-1,8.855798828E0
2.639237137E0,-3.299999982E-2,8.685000420E0,-9.040500522E-1,8.731988765E0
2.641197919E0,-3.299999982E-2,8.569950104E0,-1.096050024E0,8.639818252E0
2.643158683E0,4.050000105E-3,8.532000542E0,-1.134000063E0,8.607032345E0
2.645119633E0,8.100000024E-2,8.455050468E0,-1.096050024E0,8.526181154E0
2.647080529E0,8.100000024E-2,8.416950226E0,-1.096050024E0,8.488400188E0
2.649041502E0,8.100000024E-2,8.340000153E0,-1.018950105E0,8.402405778E0
2.651002452E0,1.189500093E-1,8.263050079E0,-1.096050024E0,8.336274430E0
2.652963565E0,4.200000316E-2,8.224950790E0,-1.134000063E0,8.302863099E0
2.654924620E0,1.189500093E-1,8.110050201E0,-1.134000063E0,8.189811934E0
2.656885521E0,1.189500093E-1,8.071949959E0,-1.134000063E0,8.152084481E0
2.658846468E0,1.189500093E-1,8.071949959E0,-1.171950102E0,8.157450109E0
2.660807162E0,1.570500135E-1,7.995000362E0,-1.134000063E0,8.076549489E0
2.662767930E0,1.189500093E-1,8.032950401E0,-1.171950102E0,8.118861268E0
2.664728560E0,1.189500093E-1,8.032950401E0,-1.287000060E0,8.136265139E0
2.666689233E0,1.189500093E-1,8.071949959E0,-1.134000063E0,8.152084481E0
2.668649973E0,4.200000316E-2,8.032950401E0,-1.249050021E0,8.129586835E0
2.670610693E0,8.100000024E-2,7.957050323E0,-1.249050021E0,8.054895208E0
2.672571516E0,4.200000316E-2,7.879950523E0,-1.249050021E0,7.978440337E0
2.674532308E0,-3.299999982E-2,8.071949959E0,-1.326000094E0,8.180204239E0
2.676493249E0,-1.099500060E-1,8.187000275E0,-1.326000094E0,8.294416119E0
2.678454149E0,-1.480500102E-1,8.224950790E0,-1.326000094E0,8.332467255E0
2.680414852E0,-1.480500102E-1,8.263050079E0,-1.363950014E0,8.376173056E0
2.682375613E0,-1.480500102E-1,8.263050079E0,-1.326000094E0,8.370077160E0
2.684336427E0,-1.870500147E-1,8.263050079E0,-1.402050018E0,8.383240935E0
2.686297226E0,-2.250000089E-1,8.340000153E0,-1.441050053E0,8.466572672E0
2.688257987E0,-2.629500031E-1,8.340000153E0,-1.441050053E0,8.467666178E0
2.690218762E0,-3.019500077E-1,8.263050079E0,-1.479000092E0,8.399798313E0
2.692179485E0,-3.019500077E-1,8.340000153E0,-1.479000092E0,8.475506924E0
2.694140223E0,-3.400500119E-1,8.340000153E0,-1.479000092E0,8.476949795E0
2.696100863E0,-3.019500077E-1,8.340000153E0,-1.632000089E0,8.503540477E0
2.698061531E0,-3.780000210E-1,8.340000153E0,-1.516950130E0,8.485259233E0
2.700022311E0,-4.930500090E-1,8.340000153E0,-1.516950130E0,8.491162379E0
2.701983062E0,-4.930500090E-1,8.377950668E0,-1.479000092E0,8.521771939E0
2.703943791E0,-6.079500318E-1,8.340000153E0,-1.594050050E0,8.512708226E0
2.705904526E0,-6.850500107E-1,8.340000153E0,-1.516950130E0,8.504471398E0
2.707865345E0,-7.620000243E-1,8.340000153E0,-1.402050018E0,8.491289115E0
2.709826139E0,-8.380500674E-1,8.263050079E0,-1.363950014E0,8.416690809E0
2.711786891E0,-9.150000215E-1,8.224950790E0,-1.326000094E0,8.381247926E0
2.713747666E0,-9.150000215E-1,8.224950790E0,-1.441050053E0,8.400218199E0
2.715708749E0,-9.529500604E-1,8.148000717E0,-1.479000092E0,8.335794550E0
2.717669741E0,-9.150000215E-1,8.032950401E0,-1.479000092E0,8.219060680E0
2.719630473E0,-9.150000215E-1,7.995000362E0,-1.516950130E0,8.188918948E0
2.721591281E0,-8.770500422E-1,7.879950523E0,-1.671000123E0,8.102782142E0
2.723552122E0,-1.030050039E0,7.879950523E0,-1.632000089E0,8.112832281E0
2.725512930E0,-1.030050039E0,7.803000450E0,-1.555950046E0,8.023016867E0
2.727473647E0,-1.144950032E0,7.726950169E0,-1.555950046E0,7.964775579E0
2.729434391E0,-1.183050036E0,7.687950134E0,-1.594050050E0,7.940099509E0
2.731395389E0,-1.183050036E0,7.612050533E0,-1.632000089E0,7.874410772E0
2.733356312E0,-1.260000110E0,7.534950256E0,-1.708950043E0,7.828383351E0
2.735317370E0,-1.260000110E0,7.458000183E0,-1.708950043E0,7.754345701E0
2.737278389E0,-1.297950029E0,7.420050144E0,-1.632000089E0,7.707479660E0
2.739239656E0,-1.413000107E0,7.342950344E0,-1.594050050E0,7.645684052E0
2.741200851E0,-1.413000107E0,7.267050266E0,-1.555950046E0,7.564890575E0
2.743161954E0,-1.413000107E0,7.189950466E0,-1.555950046E0,7.490856930E0
2.745123084E0,-1.452000022E0,7.152000427E0,-1.555950046E0,7.461929691E0
2.747083967E0,-1.452000022E0,7.036950111E0,-1.671000123E0,7.376937870E0
2.749044926E0,-1.413000107E0,7.036950111E0,-1.632000089E0,7.360615495E0
2.751006202E0,-1.452000022E0,6.997950554E0,-1.632000089E0,7.330964487E0
2.752967385E0,-1.489950061E0,7.036950111E0,-1.632000089E0,7.375774017E0
2.754928579E0,-1.452000022E0,7.036950111E0,-1.555950046E0,7.351731189E0
2.756889770E0,-1.413000107E0,7.036950111E0,-1.594050050E0,7.352294318E0
2.758850838E0,-1.297950029E0,7.113000393E0,-1.632000089E0,7.412345996E0
2.760811935E0,-1.144950032E0,7.152000427E0,-1.671000123E0,7.433321068E0
2.762773008E0,-1.106999993E0,7.267050266E0,-1.786050081E0,7.564750059E0
2.764734089E0,-1.144950032E0,7.342950344E0,-1.708950043E0,7.625637061E0
2.766695030E0,-1.183050036E0,7.458000183E0,-1.708950043E0,7.742214436E0
2.768656012E0,-1.183050036E0,7.497000217E0,-1.708950043E0,7.779789836E0
2.770616715E0,-1.222050071E0,7.497000217E0,-1.708950043E0,7.785815878E0
2.772577521E0,-1.222050071E0,7.534950256E0,-1.708950043E0,7.822364859E0
2.774538463E0,-1.260000110E0,7.534950256E0,-1.671000123E0,7.820186510E0
2.776499365E0,-1.222050071E0,7.573050499E0,-1.708950043E0,7.859071859E0
2.778460427E0,-1.222050071E0,7.573050499E0,-1.671000123E0,7.850907059E0
2.780421442E0,-1.260000110E0,7.612050533E0,-1.671000123E0,7.894501568E0
2.782382542E0,-1.297950029E0,7.573050499E0,-1.671000123E0,7.863078885E0
2.784343640E0,-1.297950029E0,7.534950256E0,-1.747050047E0,7.842979887E0
2.786304894E0,-1.297950029E0,7.534950256E0,-1.861950040E0,7.869371487E0
2.788266102E0,-1.260000110E0,7.573050499E0,-1.747050047E0,7.873428605E0
2.790227517E0,-1.336950064E0,7.573050499E0,-1.786050081E0,7.894840355E0
2.792188871E0,-1.375050068E0,7.612050533E0,-1.747050047E0,7.930085742E0
2.794150021E0,-1.375050068E0,7.573050499E0,-1.747050047E0,7.892657374E0
2.796111242E0,-1.375050068E0,7.573050499E0,-1.747050047E0,7.892657374E0
2.798072519E0,-1.413000107E0,7.534950256E0,-1.708950043E0,7.854460829E0
2.800033779E0,-1.375050068E0,7.497000217E0,-1.747050047E0,7.819716032E0
2.801994826E0,-1.413000107E0,7.534950256E0,-1.671000123E0,7.846291231E0
2.803955935E0,-1.375050068E0,7.534950256E0,-1.708950043E0,7.847722491E0
2.805916796E0,-1.452000022E0,7.534950256E0,-1.632000089E0,7.845202593E0
2.807877719E0,-1.452000022E0,7.573050499E0,-1.632000089E0,7.881803234E0
2.809838686E0,-1.413000107E0,7.573050499E0,-1.786050081E0,7.908074232E0
2.811799640E0,-1.413000107E0,7.573050499E0,-1.824000120E0,7.916731624E0
2.813760559E0,-1.452000022E0,7.573050499E0,-1.861950040E0,7.932607130E0
2.815721488E0,-1.413000107E0,7.650000572E0,-1.900950074E0,8.008288784E0
2.817682539E0,-1.413000107E0,7.612050533E0,-1.977000117E0,7.990520139E0
2.819643558E0,-1.413000107E0,7.650000572E0,-1.977000117E0,8.026680978E0
2.821604511E0,-1.413000107E0,7.765050411E0,-1.977000117E0,8.136406249E0
2.823565483E0,-1.413000107E0,7.765050411E0,-1.977000117E0,8.136406249E0
2.825526712E0,-1.413000107E0,7.803000450E0,-2.014950037E0,8.181895195E0
2.827487866E0,-1.375050068E0,7.879950523E0,-2.014950037E0,8.248903357E0
2.829448781E0,-1.336950064E0,7.957050323E0,-2.014950037E0,8.316375952E0
2.831409776E0,-1.336950064E0,8.032950401E0,-2.053950071E0,8.398478345E0
2.833370641E0,-1.336950064E0,8.110050201E0,-2.053950071E0,8.472252395E0
2.835331545E0,-1.413000107E0,8.224950790E0,-2.130000114E0,8.612971920E0
2.837292336E0,-1.452000022E0,8.340000153E0,-2.169000149E0,8.738905438E0
2.839253161E0,-1.375050068E0,8.416950226E0,-2.206950188E0,8.809451908E0
2.841214067E0,-1.452000022E0,8.532000542E0,-2.245050192E0,8.941117809E0
2.843174972E0,-1.452000022E0,8.647050858E0,-2.359950066E0,9.080151811E0
2.845135854E0,-1.452000022E0,8.800050735E0,-2.398950100E0,9.236025043E0
2.847096743E0,-1.528050065E0,8.914950371E0,-2.514000177E0,9.387836492E0
2.849057536E0,-1.528050065E0,9.030000687E0,-2.551950216E0,9.507276125E0
2.851018358E0,-1.567050099E0,9.183000565E0,-2.590050220E0,9.669100554E0
2.852979257E0,-1.642950058E0,9.298050880E0,-2.629050016E0,9.801272318E0
2.854940130E0,-1.642950058E0,9.412950516E0,-2.667000055E0,9.920474364E0
2.856901287E0,-1.642950058E0,9.565950394E0,-2.667000055E0,1.006576282E1
2.858862360E0,-1.681950092E0,9.681000710E0,-2.551950216E0,1.015200378E1
2.860823573E0,-1.642950058E0,9.757950783E0,-2.551950216E0,1.021906739E1
2.862784745E0,-1.642950058E0,9.835050583E0,-2.514000177E0,1.028337016E1
2.864745793E0,-1.681950092E0,9.949950218E0,-2.437050104E0,1.038121759E1
2.866706887E0,-1.681950092E0,1.002600002E1,-2.359950066E0,1.043642644E1
2.868667781E0,-1.720050097E0,1.014105034E1,-2.359950066E0,1.055314354E1
2.870628733E0,-1.758000135E0,1.021800041E1,-2.245050192E0,1.060840927E1
2.872589875E0,-1.795950055E0,1.025595093E1,-2.284050226E0,1.065958965E1
2.874550962E0,-1.758000135E0,1.018005085E1,-2.206950188E0,1.056383590E1
2.876512162E0,-1.795950055E0,1.014105034E1,-2.169000149E0,1.052477554E1
2.878473336E0,-1.834950089E0,1.014105034E1,-2.130000114E0,1.052353763E1
2.880434443E0,-1.834950089E0,1.006500053E1,-2.092050076E0,1.044260270E1
2.882395569E0,-1.834950089E0,1.006500053E1,-2.092050076E0,1.044260270E1
2.884356638E0,-1.834950089E0,9.988050461E0,-2.053950071E0,1.036083514E1
2.886317723E0,-1.873050094E0,9.949950218E0,-1.977000117E0,1.031592727E1
2.888278983E0,-1.911000133E0,9.949950218E0,-1.977000117E0,1.032288527E1
2.890240188E0,-1.950000048E0,9.910950661E0,-1.939050078E0,1.028539539E1
2.892201064E0,-1.987950087E0,9.910950661E0,-1.939050078E0,1.029265776E1
2.894162036E0,-2.026050091E0,9.910950661E0,-1.939050078E0,1.030008433E1
2.896123130E0,-2.065050125E0,9.949950218E0,-1.939050078E0,1.034533018E1
2.898084188E0,-2.103000164E0,9.949950218E0,-1.977000117E0,1.036014713E1
2.900045239E0,-2.218050003E0,1.002600002E1,-1.939050078E0,1.044989653E1
2.902006282E0,-2.256000042E0,1.006500053E1,-1.977000117E0,1.050249025E1
2.903967229E0,-2.371050119E0,1.018005085E1,-1.939050078E0,1.063086211E1
2.905928205E0,-2.410050154E0,1.021800041E1,-1.900950074E0,1.066909018E1
2.907889253E0,-2.448000193E0,1.033305073E1,-1.977000117E0,1.080153562E1
2.909850280E0,-2.485950232E0,1.037100029E1,-2.014950037E0,1.085346116E1
2.911811424E0,-2.524950027E0,1.041000080E1,-2.053950071E0,1.090697943E1
2.913772524E0,-2.524950027E0,1.041000080E1,-2.092050076E0,1.091421838E1
2.915733238E0,-2.524950027E0,1.048605061E1,-2.130000114E0,1.099406797E1
2.917694065E0,-2.448000193E0,1.048605061E1,-2.206950188E0,1.099184204E1
2.919655003E0,-2.410050154E0,1.048605061E1,-2.206950188E0,1.098345247E1
2.921615909E0,-2.410050154E0,1.048605061E1,-2.206950188E0,1.098345247E1
2.923577210E0,-2.371050119E0,1.052505016E1,-2.359950066E0,1.104390891E1
2.925538385E0,-2.295000076E0,1.052505016E1,-2.359950066E0,1.102783164E1
2.927499266E0,-2.256000042E0,1.060095024E1,-2.475000143E0,1.111734266E1
2.929460233E0,-2.256000042E0,1.060095024E1,-2.514000177E0,1.112609002E1
2.931421148E0,-2.218050003E0,1.063995075E1,-2.551950216E0,1.116426208E1
2.933382079E0,-2.218050003E0,1.060095024E1,-2.629050016E0,1.114503458E1
2.935342960E0,-2.179949999E0,1.067805004E1,-2.704950094E0,1.122896655E1
2.937303853E0,-2.140950203E0,1.063995075E1,-2.782050133E0,1.120410740E1
2.939264825E0,-2.140950203E0,1.071600056E1,-2.782050133E0,1.127635307E1
2.941225774E0,-2.140950203E0,1.071600056E1,-2.782050133E0,1.127635307E1
2.943186514E0,-2.103000164E0,1.079295063E1,-2.704950094E0,1.132374267E1
2.945147315E0,-2.065050125E0,1.075500011E1,-2.667000055E0,1.127152824E1
2.947108233E0,-2.103000164E0,1.087005043E1,-2.629050016E0,1.137947758E1
2.949069134E0,-2.103000164E0,1.094595051E1,-2.514000177E0,1.142613842E1
2.951030017E0,-2.140950203E0,1.098495007E1,-2.437050104E0,1.145390802E1
2.952990905E0,-2.103000164E0,1.106100082E1,-2.359950066E0,1.150381299E1
2.954952013E0,-2.140950203E0,1.117605019E1,-2.284050226E0,1.160623328E1
2.956913057E0,-2.103000164E0,1.125300026E1,-2.245050192E0,1.166588509E1
2.958873984E0,-2.140950203E0,1.129095078E1,-2.206950188E0,1.170213084E1
2.960834929E0,-2.140950203E0,1.129095078E1,-2.130000114E0,1.168786284E1
2.962795892E0,-2.179949999E0,1.140600014E1,-2.130000114E0,1.180618150E1
2.964756850E0,-2.179949999E0,1.140600014E1,-2.092050076E0,1.179939383E1
2.966717723E0,-2.179949999E0,1.148295021E1,-2.169000149E0,1.188759392E1
2.968678621E0,-2.140950203E0,1.148295021E1,-2.092050076E0,1.186669654E1
2.970639553E0,-2.103000164E0,1.148295021E1,-2.130000114E0,1.186666152E1
2.972600471E0,-2.103000164E0,1.152105045E1,-2.169000149E0,1.191057408E1
2.974561261E0,-2.026050091E0,1.148295021E1,-2.130000114E0,1.185326643E1
2.976522088E0,-2.026050091E0,1.140600014E1,-2.053950071E0,1.176522116E1
2.978483162E0,-1.987950087E0,1.136805058E1,-1.977000117E0,1.170867409E1
2.980444163E0,-1.873050094E0,1.132905006E1,-1.939050078E0,1.164541142E1
2.982404938E0,-1.834950089E0,1.129095078E1,-1.747050047E0,1.157172395E1
2.984365780E0,-1.834950089E0,1.129095078E1,-1.555950046E0,1.154441821E1
2.986326851E0,-1.720050097E0,1.125300026E1,-1.479000092E0,1.147937404E1
2.988287855E0,-1.681950092E0,1.121400070E1,-1.326000094E0,1.141670023E1
2.990248585E0,-1.681950092E0,1.117605019E1,-1.134000063E0,1.135865353E1
2.992209396E0,-1.605000019E0,1.113795090E1,-8.659500480E-1,1.128626797E1
2.994170323E0,-1.567050099E0,1.113795090E1,-7.120500207E-1,1.127016466E1
2.996131226E0,-1.567050099E0,1.113795090E1,-5.590500236E-1,1.126153334E1
2.998092153E0,-1.567050099E0,1.117605019E1,-4.819500148E-1,1.129566375E1
3.000053072E0,-1.489950061E0,1.117605019E1,-3.670500219E-1,1.128090310E1
3.002013682E0,-1.413000107E0,1.125300026E1,-2.910000086E-1,1.134509873E1
3.003974382E0,-1.413000107E0,1.132905006E1,-9.900000691E-2,1.141725649E1
3.005935657E0,-1.336950064E0,1.132905006E1,-3.289500177E-1,1.141240636E1
3.007896764E0,-1.297950029E0,1.144395065E1,-2.910000086E-1,1.152099656E1
3.009857341E0,-1.297950029E0,1.148295021E1,-9.900000691E-2,1.155649691E1
3.011818074E0,-1.183050036E0,1.163595009E1,5.295000225E-2,1.169605684E1
3.013778849E0,-1.297950029E0,1.167405033E1,-1.369500011E-1,1.174678172E1
3.015739611E0,-1.106999993E0,1.175100040E1,-1.369500011E-1,1.180382204E1
3.017699601E0,-8.770500422E-1,1.186605072E1,3.979500234E-1,1.190507206E1
3.019659828E0,-8.380500674E-1,1.205805016E1,7.810500264E-1,1.211234662E1
3.021620735E0,-7.230000496E-1,1.217295074E1,8.580000401E-1,1.222455001E1
3.023581442E0,-5.700000525E-1,1.236405087E1,8.200500607E-1,1.240431925E1
3.025542357E0,-4.549500346E-1,1.251795101E1,8.580000401E-1,1.255556614E1
3.027503211E0,-3.400500119E-1,1.259400082E1,8.959500194E-1,1.263040843E1
3.029464175E0,-1.870500147E-1,1.274805069E1,9.730500579E-1,1.278650111E1
3.031425086E0,4.050000105E-3,1.290105057E1,1.050000072E0,1.294370976E1
3.033386192E0,1.570500135E-1,1.297800064E1,1.203000069E0,1.303458379E1
3.035347240E0,3.490500152E-1,1.301595020E1,1.203000069E0,1.307608522E1
3.037309088E0,6.169500351E-1,1.313100052E1,1.279950023E0,1.320765210E1
3.039270702E0,8.089500666E-1,1.320795059E1,1.318050027E0,1.329818089E1
3.041231823E0,9.619500637E-1,1.324605083E1,1.356000066E0,1.334997928E1
3.043193088E0,1.230000019E0,1.316895103E1,1.395000100E0,1.329963145E1
3.045154178E0,1.306950092E0,1.320795059E1,1.356000066E0,1.334154465E1
3.047115319E0,1.459950089E0,1.309305096E1,1.432950020E0,1.325189735E1
3.049076519E0,1.690050125E0,1.305405045E1,1.471050024E0,1.324494208E1
3.051037702E0,1.843950033E0,1.293900108E1,1.432950020E0,1.314805105E1
3.052998839E0,2.111999989E0,1.278600025E1,1.471050024E0,1.304248192E1
3.054959967E0,2.304000139E0,1.259400082E1,1.432950020E0,1.288295847E1
3.056921035E0,2.419050217E0,1.232595062E1,1.471050024E0,1.264693049E1
3.058882121E0,2.649000168E0,1.205805016E1,1.432950020E0,1.242848025E1
3.060843016E0,2.725050211E0,1.182795048E1,1.471050024E0,1.222662256E1
3.062803967E0,2.686950207E0,1.152105045E1,1.471050024E0,1.192133772E1
3.064764846E0,2.802000046E0,1.113795090E1,1.471050024E0,1.157882302E1
3.066725742E0,2.878050089E0,1.079295063E1,1.471050024E0,1.126654090E1
3.068686848E0,2.802000046E0,1.044795036E1,1.471050024E0,1.091672383E1
3.070647893E0,2.764050245E0,1.006500053E1,1.510050058E0,1.054630081E1
3.072608661E0,2.610000134E0,9.757950783E0,1.510050058E0,1.021322453E1
3.074569511E0,2.610000134E0,9.412950516E0,1.471050024E0,9.878245101E0
3.076530581E0,2.494950056E0,9.145050049E0,1.510050058E0,9.598800308E0
3.078491586E0,2.380050182E0,8.800050735E0,1.510050058E0,9.240442792E0
3.080452721E0,2.265000105E0,8.532000542E0,1.471050024E0,8.949259572E0
3.082413817E0,2.149950027E0,8.263050079E0,1.432950020E0,8.657576306E0
3.084374847E0,2.111999989E0,8.032950401E0,1.356000066E0,8.415911851E0
3.086335896E0,2.035050154E0,7.726950169E0,1.318050027E0,8.098422310E0
3.088296842E0,1.959000111E0,7.497000217E0,1.318050027E0,7.860022237E0
3.090257819E0,1.804950118E0,7.228050232E0,1.279950023E0,7.559155187E0
3.092218733E0,1.690050125E0,7.036950111E0,1.203000069E0,7.336357779E0
3.094179665E0,1.575000048E0,6.844950199E0,1.126049995E0,7.113505252E0
3.096140586E0,1.537050128E0,6.654000282E0,1.126049995E0,6.921432760E0
3.098101511E0,1.459950089E0,6.499950409E0,1.050000072E0,6.744131503E0
3.100062374E0,1.384050012E0,6.346950531E0,1.050000072E0,6.580416068E0
3.102023266E0,1.306950092E0,6.232050419E0,1.126049995E0,6.466417831E0
3.103984193E0,1.269000053E0,6.193950176E0,1.087950110E0,6.415529235E0
3.105945110E0,1.192050099E0,6.117000103E0,1.087950110E0,6.326318767E0
3.107906035E0,1.077000022E0,6.154950142E0,1.203000069E0,6.363218483E0
3.109866957E0,9.619500637E-1,6.193950176E0,1.240950108E0,6.389861022E0
3.111827851E0,8.470500112E-1,6.232050419E0,1.279950023E0,6.418272213E0
3.113788774E0,5.790000558E-1,6.346950531E0,1.318050027E0,6.508170095E0
3.115748842E0,5.020500422E-1,6.424050331E0,1.356000066E0,6.584771301E0
3.117709160E0,3.870000243E-1,6.538950443E0,1.356000066E0,6.689273361E0
3.119670186E0,2.340000123E-1,6.654000282E0,1.395000100E0,6.802683371E0
3.121631004E0,2.340000123E-1,6.730050087E0,1.395000100E0,6.877089170E0
3.123592107E0,8.100000024E-2,6.922050476E0,1.471050024E0,7.077099121E0
3.125553139E0,-7.200000435E-2,7.189950466E0,1.432950020E0,7.331706313E0
3.127514179E0,-1.099500060E-1,7.267050266E0,1.279950023E0,7.379727680E0
3.129475216E0,-1.480500102E-1,7.420050144E0,1.279950023E0,7.531091223E0
3.131435986E0,-2.250000089E-1,7.573050499E0,1.318050027E0,7.690186912E0
3.133396834E0,-3.400500119E-1,7.726950169E0,1.432950020E0,7.866049751E0
3.135357734E0,-4.170000255E-1,7.803000450E0,1.432950020E0,7.944435210E0
3.137318611E0,-4.170000255E-1,7.995000362E0,1.510050058E0,8.147034491E0
3.139279587E0,-5.700000525E-1,8.302050591E0,1.510050058E0,8.457493438E0
3.141240534E0,-6.469500065E-1,8.455050468E0,1.432950020E0,8.599986540E0
3.143201454E0,-6.850500107E-1,8.569950104E0,1.318050027E0,8.697735002E0
3.145162382E0,-6.850500107E-1,8.761950493E0,1.240950108E0,8.875867683E0
3.147123250E0,-6.850500107E-1,8.953050613E0,1.240950108E0,9.064566508E0
3.149084142E0,-6.469500065E-1,9.145050049E0,1.279950023E0,9.256822174E0
3.151044710E0,-6.469500065E-1,9.298050880E0,1.240950108E0,9.402778933E0
3.153005373E0,-6.469500065E-1,9.412950516E0,1.203000069E0,9.511539880E0
3.154966385E0,-6.079500318E-1,9.528000832E0,1.126049995E0,9.613552501E0
3.156927294E0,-4.549500346E-1,9.643050194E0,1.126049995E0,9.719227601E0
3.158888232E0,-4.549500346E-1,9.720000267E0,1.126049995E0,9.795579274E0
3.160849153E0,-3.780000210E-1,9.873000145E0,1.165050030E0,9.948686217E0
3.162809898E0,-3.400500119E-1,9.949950218E0,1.087950110E0,1.001502765E1
3.164770694E0,-3.019500077E-1,1.006500053E1,1.165050030E0,1.013670317E1
3.166731593E0,-2.250000089E-1,1.018005085E1,1.203000069E0,1.025335406E1
3.168692461E0,-1.099500060E-1,1.018005085E1,1.240950108E0,1.025599734E1
3.170653044E0,4.050000105E-3,1.018005085E1,1.318050027E0,1.026502351E1
3.172613704E0,8.100000024E-2,1.029495049E1,1.356000066E0,1.038418522E1
3.174574716E0,1.570500135E-1,1.033305073E1,1.279950023E0,1.041320672E1
3.176535625E0,2.719500065E-1,1.033305073E1,1.279950023E0,1.041557325E1
3.178496686E0,3.109500110E-1,1.033305073E1,1.203000069E0,1.040748944E1
3.180457702E0,3.870000243E-1,1.037100029E1,1.165050030E0,1.044340738E1
3.182419209E0,4.639500082E-1,1.033305073E1,1.203000069E0,1.041318376E1
3.184380562E0,5.410500169E-1,1.029495049E1,1.087950110E0,1.036640613E1
3.186341773E0,6.169500351E-1,1.025595093E1,1.203000069E0,1.034467815E1
3.188303026E0,7.320000529E-1,1.025595093E1,1.126049995E0,1.034351691E1
3.190263847E0,7.699500322E-1,1.021800041E1,1.126049995E0,1.030865384E1
3.192224795E0,8.089500666E-1,1.014105034E1,1.126049995E0,1.023539402E1
3.194185383E0,8.470500112E-1,1.014105034E1,1.087950110E0,1.023435543E1
3.196146088E0,9.240000248E-1,1.006500053E1,1.126049995E0,1.016985744E1
3.198106822E0,9.240000248E-1,1.002600002E1,1.165050030E0,1.013566939E1
3.200067547E0,9.240000248E-1,1.002600002E1,1.165050030E0,1.013566939E1
3.202028369E0,9.240000248E-1,1.002600002E1,1.126049995E0,1.013126059E1
3.203989162E0,8.470500112E-1,1.006500053E1,1.050000072E0,1.015501007E1
3.205949744E0,8.850000501E-1,9.988050461E0,1.050000072E0,1.008200760E1
3.207910391E0,8.850000501E-1,9.949950218E0,1.050000072E0,1.004426377E1
3.209871135E0,8.470500112E-1,9.873000145E0,1.126049995E0,9.973044379E0
3.211831851E0,9.240000248E-1,9.873000145E0,1.087950110E0,9.975647515E0
3.213792990E0,9.240000248E-1,9.796050072E0,1.126049995E0,9.903754927E0
3.215754005E0,8.089500666E-1,9.720000267E0,1.050000072E0,9.809959508E0
3.217714917E0,7.699500322E-1,9.643050194E0,9.730500579E-1,9.722554526E0
3.219675857E0,7.320000529E-1,9.643050194E0,9.349500537E-1,9.715882498E0
3.221636777E0,6.550500393E-1,9.528000832E0,8.580000401E-1,9.588954816E0
3.223597703E0,6.169500351E-1,9.528000832E0,7.810500264E-1,9.579846885E0
3.225558625E0,5.410500169E-1,9.412950516E0,8.200500607E-1,9.464082345E0
3.227519549E0,5.790000558E-1,9.336000443E0,7.810500264E-1,9.386489465E0
3.229479948E0,5.410500169E-1,9.336000443E0,8.200500607E-1,9.387551411E0
3.231440521E0,4.639500082E-1,9.259950638E0,8.200500607E-1,9.307761145E0
3.233401819E0,4.639500082E-1,9.220950127E0,8.580000401E-1,9.272396396E0
3.235362904E0,4.639500082E-1,9.183000565E0,8.200500607E-1,9.231209622E0
3.237323800E0,4.260000288E-1,9.183000565E0,9.730500579E-1,9.244230731E0
3.239284752E0,4.260000288E-1,9.183000565E0,1.050000072E0,9.252646948E0
3.241245861E0,3.870000243E-1,9.183000565E0,9.730500579E-1,9.242515610E0
3.243206948E0,4.260000288E-1,9.220950127E0,1.011000037E0,9.285985049E0
3.245168339E0,4.260000288E-1,9.259950638E0,1.087950110E0,9.333370092E0
3.247129640E0,3.870000243E-1,9.220950127E0,1.165050030E0,9.302313251E0
3.249090860E0,3.870000243E-1,9.259950638E0,1.203000069E0,9.345783220E0
3.251052104E0,3.870000243E-1,9.259950638E0,1.240950108E0,9.350743928E0
3.253013516E0,3.490500152E-1,9.298050880E0,1.240950108E0,9.386987976E0
3.254974875E0,3.109500110E-1,9.298050880E0,1.165050030E0,9.375914977E0
3.256935769E0,3.490500152E-1,9.298050880E0,1.203000069E0,9.382046432E0
3.258896800E0,3.109500110E-1,9.336000443E0,1.203000069E0,9.418322745E0
3.260857884E0,3.490500152E-1,9.412950516E0,1.165050030E0,9.491196705E0
3.262818952E0,3.490500152E-1,9.528000832E0,1.165050030E0,9.605309851E0
3.264780175E0,3.490500152E-1,9.490050316E0,1.126049995E0,9.562995321E0
3.266741346E0,3.109500110E-1,9.528000832E0,1.126049995E0,9.599347809E0
3.268702273E0,3.109500110E-1,9.565950394E0,1.165050030E0,9.641651229E0
3.270663272E0,3.109500110E-1,9.604950905E0,1.165050030E0,9.680346759E0
3.272624316E0,2.719500065E-1,9.565950394E0,1.203000069E0,9.645132083E0
3.274585346E0,2.340000123E-1,9.565950394E0,1.203000069E0,9.644136670E0
3.276546283E0,2.340000123E-1,9.565950394E0,1.279950023E0,9.654037238E0
3.278507258E0,2.340000123E-1,9.565950394E0,1.279950023E0,9.654037238E0
3.280468486E0,2.340000123E-1,9.643050194E0,1.318050027E0,9.735524070E0
3.282429640E0,3.109500110E-1,9.643050194E0,1.318050027E0,9.737677486E0
