"Time (s)","Acceleration x (m/s^2)","Acceleration y (m/s^2)","Acceleration z (m/s^2)","Absolute acceleration (m/s^2)"
3.567509000E-2,2.839950085E0,9.412950516E0,3.694050074E0,1.050309287E1
3.763452100E-2,2.839950085E0,9.451050758E0,3.694050074E0,1.053725215E1
3.959662800E-2,2.955000162E0,9.412950516E0,3.694050074E0,1.053478378E1
4.155716800E-2,3.031950235E0,9.451050758E0,3.655950069E0,1.057738406E1
4.351816700E-2,3.070050240E0,9.451050758E0,3.694050074E0,1.060158360E1
4.547888700E-2,3.108000040E0,9.451050758E0,3.541050196E0,1.056035327E1
4.743969600E-2,3.184950113E0,9.490050316E0,3.463950157E0,1.059263484E1
4.940059200E-2,3.262050152E0,9.565950394E0,3.388050079E0,1.065960888E1
5.136146300E-2,3.337950230E0,9.604950905E0,3.273000240E0,1.068220596E1
5.332221600E-2,3.453000069E0,9.604950905E0,3.118950129E0,1.067268201E1
5.528300400E-2,3.492000103E0,9.643050194E0,3.043050051E0,1.069778647E1
5.724382700E-2,3.529950142E0,9.565950394E0,2.965950251E0,1.061907792E1
5.920463000E-2,3.645000219E0,9.565950394E0,2.928000212E0,1.064737615E1
6.116557400E-2,3.607050180E0,9.604950905E0,2.965950251E0,1.068001656E1
6.312647600E-2,3.607050180E0,9.643050194E0,2.928000212E0,1.070385040E1
6.508735900E-2,3.529950142E0,9.720000267E0,2.812950134E0,1.071688582E1
6.704824800E-2,3.453000069E0,9.835050583E0,2.736000061E0,1.077669364E1
6.900919300E-2,3.300000191E0,9.796050072E0,2.583000183E0,1.065478710E1
7.097014100E-2,3.184950113E0,9.910950661E0,2.430000067E0,1.068998366E1
7.293137500E-2,3.147000074E0,9.949950218E0,2.353049994E0,1.069775505E1
7.489252500E-2,2.917050123E0,9.988050461E0,2.275950193E0,1.065130427E1
7.685363600E-2,2.802000046E0,1.006500053E1,2.238000154E0,1.068475946E1
7.881475800E-2,2.649000168E0,1.002600002E1,2.008050203E0,1.056267693E1
8.077564200E-2,2.457000017E0,1.010295010E1,1.777950048E0,1.054834376E1
8.273659900E-2,2.265000105E0,1.014105034E1,1.777950048E0,1.054192742E1
8.469769600E-2,1.996950150E0,1.018005085E1,1.624950051E0,1.050055750E1
8.665875100E-2,1.920000076E0,1.018005085E1,1.548000097E0,1.047454724E1
8.861978800E-2,1.767000079E0,1.018005085E1,1.624950051E0,1.045926323E1
9.058083000E-2,1.498950124E0,1.021800041E1,1.471050024E0,1.043160448E1
9.254177800E-2,1.345050097E0,1.021800041E1,1.471050024E0,1.041060423E1
9.450275300E-2,1.345050097E0,1.018005085E1,1.471050024E0,1.037335930E1
9.646384600E-2,1.153950095E0,1.025595093E1,1.471050024E0,1.042497570E1
9.842490500E-2,1.039050102E0,1.029495049E1,1.395000100E0,1.044086471E1
1.003848600E-1,7.699500322E-1,1.025595093E1,1.240950108E0,1.035940682E1
1.023451380E-1,5.410500169E-1,1.021800041E1,9.730500579E-1,1.027847722E1
1.043058600E-1,3.870000243E-1,1.014105034E1,7.810500264E-1,1.017844340E1
1.062664490E-1,2.719500065E-1,1.010295010E1,6.280500293E-1,1.012610509E1
1.082275650E-1,8.100000024E-2,9.949950218E0,4.750500321E-1,9.961613468E0
1.101885260E-1,-7.200000435E-2,9.835050583E0,3.220500052E-1,9.840585357E0
1.121500280E-1,-3.019500077E-1,9.720000267E0,9.195000678E-2,9.725123845E0
1.141113720E-1,-5.320500135E-1,9.412950516E0,-7.890000343E-1,9.460932073E0
1.160711410E-1,-3.400500119E-1,9.451050758E0,9.195000678E-2,9.457613296E0
1.180313730E-1,-6.079500318E-1,9.412950516E0,5.130000114E-1,9.446502510E0
1.199918730E-1,-6.079500318E-1,9.451050758E0,5.899500251E-1,9.488941180E0
1.219522940E-1,-6.079500318E-1,9.451050758E0,1.240950108E0,9.551540234E0
1.239130780E-1,-8.770500422E-1,9.412950516E0,9.349500537E-1,9.499841356E0
1.258737550E-1,-9.150000215E-1,9.490050316E0,1.050000072E0,9.591703717E0
1.278347050E-1,-9.919500351E-1,9.643050194E0,1.471050024E0,9.804915608E0
1.297955860E-1,-1.144950032E0,9.757950783E0,1.395000100E0,9.923433848E0
1.317563370E-1,-1.336950064E0,9.835050583E0,1.087950110E0,9.984953224E0
1.337171270E-1,-1.452000022E0,9.949950218E0,7.810500264E-1,1.008562604E1
1.356778920E-1,-1.642950058E0,1.006500053E1,5.899500251E-1,1.021526121E1
1.376386650E-1,-1.681950092E0,1.018005085E1,4.750500321E-1,1.032899143E1
1.396003840E-1,-1.758000135E0,9.988050461E0,1.500000060E-2,1.014159462E1
1.415618220E-1,-1.987950087E0,9.681000710E0,-1.479000092E0,9.993055667E0
1.435227930E-1,-1.834950089E0,9.796050072E0,-9.040500522E-1,1.000734457E1
1.454839010E-1,-1.795950055E0,9.796050072E0,5.295000225E-2,9.959459690E0
1.474441170E-1,-1.834950089E0,9.873000145E0,5.899500251E-1,1.005938441E1
1.494045940E-1,-1.873050094E0,9.949950218E0,9.349500537E-1,1.016779020E1
1.513657710E-1,-1.950000048E0,1.002600002E1,1.011000037E0,1.026378574E1
1.533267440E-1,-2.103000164E0,1.006500053E1,7.429500222E-1,1.030916195E1
1.552880190E-1,-2.065050125E0,1.021800041E1,9.349500537E-1,1.046642709E1
1.572492060E-1,-2.140950203E0,1.021800041E1,6.660000086E-1,1.046110683E1
1.592100850E-1,-2.256000042E0,1.029495049E1,1.300500035E-1,1.054004054E1
1.611710540E-1,-2.065050125E0,1.044795036E1,6.280500293E-1,1.066857749E1
1.631322800E-1,-2.065050125E0,1.056300068E1,1.011000037E0,1.081034396E1
1.650934330E-1,-2.026050091E0,1.063995075E1,8.580000401E-1,1.086506305E1
1.670547220E-1,-2.026050091E0,1.063995075E1,6.660000086E-1,1.085158915E1
1.690159710E-1,-2.026050091E0,1.063995075E1,4.360500276E-1,1.083990639E1
1.709782350E-1,-1.987950087E0,1.052505016E1,3.600000143E-1,1.071719303E1
1.729402020E-1,-1.950000048E0,1.048605061E1,2.830500007E-1,1.066957707E1
1.749002450E-1,-1.911000133E0,1.044795036E1,2.449500114E-1,1.062410414E1
1.768608380E-1,-1.834950089E0,1.041000080E1,3.220500052E-1,1.057539005E1
1.788218170E-1,-1.795950055E0,1.033305073E1,3.220500052E-1,1.049290666E1
1.807826830E-1,-1.758000135E0,1.021800041E1,3.600000143E-1,1.037437694E1
1.827437960E-1,-1.681950092E0,1.014105034E1,4.360500276E-1,1.028882878E1
1.847048360E-1,-1.681950092E0,1.002600002E1,4.360500276E-1,1.017544948E1
1.866662940E-1,-1.911000133E0,9.643050194E0,-2.910000086E-1,9.834887877E0
1.886276200E-1,-1.758000135E0,9.145050049E0,-1.632000089E0,9.454413211E0
1.905873940E-1,-1.260000110E0,9.298050880E0,-2.140500098E-1,9.385476432E0
1.925476220E-1,-1.297950029E0,9.298050880E0,6.280500293E-1,9.409190788E0
1.945084830E-1,-1.375050068E0,9.412950516E0,1.011000037E0,9.566426772E0
1.964691580E-1,-1.297950029E0,9.412950516E0,1.050000072E0,9.559854175E0
1.984299830E-1,-1.297950029E0,9.412950516E0,1.050000072E0,9.559854175E0
2.003907680E-1,-1.260000110E0,9.451050758E0,8.959500194E-1,9.576674117E0
2.023514910E-1,-1.183050036E0,9.490050316E0,7.429500222E-1,9.592321780E0
2.043122320E-1,-1.183050036E0,9.490050316E0,5.899500251E-1,9.581685834E0
2.062739510E-1,-1.222050071E0,9.451050758E0,3.600000143E-1,9.536528028E0
2.082353840E-1,-1.106999993E0,9.451050758E0,2.830500007E-1,9.519870100E0
2.101961850E-1,-1.106999993E0,9.412950516E0,2.449500114E-1,9.480985545E0
2.121571650E-1,-9.919500351E-1,9.412950516E0,1.300500035E-1,9.465966157E0
2.141179430E-1,-9.529500604E-1,9.375000000E0,5.295000225E-2,9.423457037E0
2.160787810E-1,-9.150000215E-1,9.412950516E0,5.295000225E-2,9.457466159E0
2.180394930E-1,-9.150000215E-1,9.336000443E0,-6.105000153E-2,9.380930466E0
2.200002420E-1,-7.999500632E-1,9.412950516E0,9.195000678E-2,9.447328316E0
2.219603390E-1,-7.230000496E-1,9.451050758E0,4.750500321E-1,9.490561735E0
2.239206270E-1,-6.469500065E-1,9.604950905E0,5.509500504E-1,9.642467120E0
2.258826940E-1,-7.230000496E-1,9.604950905E0,3.220500052E-1,9.637506273E0
2.278442400E-1,-7.230000496E-1,9.643050194E0,9.195000678E-2,9.670553289E0
2.298050570E-1,-5.700000525E-1,9.528000832E0,-6.105000153E-2,9.545230590E0
2.317660880E-1,-5.320500135E-1,9.528000832E0,-2.140500098E-1,9.545244600E0
2.337268380E-1,-4.930500090E-1,9.451050758E0,-2.140500098E-1,9.466323265E0
2.356876840E-1,-4.170000255E-1,9.451050758E0,-2.140500098E-1,9.462667006E0
2.376488000E-1,-4.170000255E-1,9.375000000E0,-2.140500098E-1,9.386710362E0
2.396098360E-1,-3.400500119E-1,9.375000000E0,-1.759500057E-1,9.382815005E0
2.415709200E-1,-3.400500119E-1,9.375000000E0,-1.759500057E-1,9.382815005E0
2.435319890E-1,-5.320500135E-1,8.838000298E0,-1.057050109E0,8.916876214E0
2.454928750E-1,-1.870500147E-1,8.608050346E0,-1.786050081E0,8.793377813E0
2.474538240E-1,-1.099500060E-1,8.722949982E0,-5.209500194E-1,8.739183847E0
2.494137960E-1,-2.250000089E-1,8.877000809E0,1.680000126E-1,8.881440895E0
2.513740540E-1,-2.250000089E-1,8.991000175E0,3.979500234E-1,9.002614808E0
2.533349550E-1,-2.629500031E-1,9.030000687E0,5.509500504E-1,9.050613298E0
2.552956680E-1,-2.250000089E-1,9.106050491E0,4.750500321E-1,9.121208971E0
2.572571920E-1,-2.250000089E-1,9.183000565E0,3.220500052E-1,9.191400360E0
2.592184610E-1,-2.250000089E-1,9.220950127E0,2.070000172E-1,9.226017302E0
2.611792810E-1,-3.400500119E-1,9.298050880E0,5.295000225E-2,9.304417654E0
2.631402320E-1,-3.019500077E-1,9.298050880E0,-6.105000153E-2,9.303152750E0
2.651008350E-1,-3.400500119E-1,9.336000443E0,-9.900000691E-2,9.342715840E0
2.670615400E-1,-3.400500119E-1,9.298050880E0,-3.289500177E-1,9.310080145E0
2.690223090E-1,-3.019500077E-1,9.451050758E0,-1.369500011E-1,9.456864678E0
2.709830660E-1,-3.400500119E-1,9.375000000E0,-2.520000041E-1,9.384549164E0
2.729439730E-1,-3.019500077E-1,9.336000443E0,-3.289500177E-1,9.346672466E0
2.749048360E-1,-2.629500031E-1,9.451050758E0,-6.105000153E-2,9.454905089E0
2.768654100E-1,-3.019500077E-1,9.451050758E0,1.300500035E-1,9.456767273E0
2.788260680E-1,-4.170000255E-1,9.298050880E0,-4.060500264E-1,9.316250094E0
2.807870610E-1,-3.019500077E-1,9.375000000E0,-4.060500264E-1,9.388646091E0
2.827479700E-1,-1.870500147E-1,9.451050758E0,1.680000126E-1,9.454394330E0
2.847088520E-1,-2.629500031E-1,9.490050316E0,2.449500114E-1,9.496852016E0
2.866697420E-1,-3.019500077E-1,9.451050758E0,-2.205000073E-2,9.455898712E0
2.886304900E-1,-3.400500119E-1,9.490050316E0,-1.759500057E-1,9.497770655E0
2.905912800E-1,-3.019500077E-1,9.412950516E0,-3.670500219E-1,9.424942278E0
2.925520410E-1,-3.400500119E-1,9.336000443E0,-4.819500148E-1,9.354614588E0
2.945128140E-1,-3.019500077E-1,9.336000443E0,-4.440000355E-1,9.351428452E0
2.964735820E-1,-3.400500119E-1,9.298050880E0,-4.819500148E-1,9.316740847E0
2.984343520E-1,-3.400500119E-1,9.259950638E0,-4.440000355E-1,9.276823587E0
3.003953000E-1,-3.400500119E-1,9.183000565E0,-3.670500219E-1,9.196622157E0
3.023561960E-1,-3.019500077E-1,9.183000565E0,-3.289500177E-1,9.193850189E0
3.043171290E-1,-3.019500077E-1,9.145050049E0,-3.670500219E-1,9.157392638E0
3.062780470E-1,-3.400500119E-1,9.106050491E0,-3.289500177E-1,9.118333054E0
3.082390170E-1,-4.170000255E-1,9.067950249E0,-3.670500219E-1,9.084951098E0
3.101999710E-1,-4.170000255E-1,9.067950249E0,-4.060500264E-1,9.086610334E0
3.121610690E-1,-4.170000255E-1,8.953050613E0,-4.440000355E-1,8.973747285E0
3.141221240E-1,-4.170000255E-1,8.838000298E0,-5.209500194E-1,8.863155601E0
3.160826850E-1,-3.780000210E-1,8.877000809E0,-4.440000355E-1,8.896131935E0
3.180433770E-1,-5.320500135E-1,8.608050346E0,-7.890000343E-1,8.660492425E0
3.200041590E-1,-6.469500065E-1,8.032950401E0,-2.169000149E0,8.345741316E0
3.219649140E-1,-3.400500119E-1,8.455050468E0,-8.659500480E-1,8.506079116E0
3.239260010E-1,-4.170000255E-1,8.455050468E0,1.300500035E-1,8.466326266E0
3.258869910E-1,-4.549500346E-1,8.493000031E0,1.300500035E-1,8.506170822E0
3.278473770E-1,-4.170000255E-1,8.685000420E0,4.750500321E-1,8.707973004E0
3.298079300E-1,-5.320500135E-1,8.761950493E0,3.220500052E-1,8.783995097E0
3.317698160E-1,-6.469500065E-1,8.761950493E0,-1.369500011E-1,8.786869525E0
3.337313120E-1,-7.620000243E-1,8.761950493E0,-5.970000029E-1,8.815261169E0
3.356923180E-1,-7.999500632E-1,8.722949982E0,-8.659500480E-1,8.802252324E0
3.376534680E-1,-8.770500422E-1,8.608050346E0,-9.040500522E-1,8.699715745E0
3.396145580E-1,-7.999500632E-1,8.608050346E0,-9.810000658E-1,8.700621357E0
3.415756800E-1,-8.380500674E-1,8.455050468E0,-9.810000658E-1,8.552927421E0
3.435365240E-1,-8.380500674E-1,8.377950668E0,-9.040500522E-1,8.468157522E0
3.454974490E-1,-8.380500674E-1,8.340000153E0,-8.659500480E-1,8.426612602E0
3.474581920E-1,-8.770500422E-1,8.224950790E0,-7.890000343E-1,8.309124703E0
3.494189880E-1,-8.380500674E-1,8.187000275E0,-7.890000343E-1,8.267516100E0
3.513797960E-1,-8.770500422E-1,8.071949959E0,-7.890000343E-1,8.157702738E0
3.533406010E-1,-9.529500604E-1,7.995000362E0,-8.269500136E-1,8.093947797E0
3.553013650E-1,-1.030050039E0,7.918050289E0,-7.890000343E-1,8.023655309E0
3.572621410E-1,-1.030050039E0,7.842000484E0,-7.890000343E-1,7.948615964E0
3.592232690E-1,-9.529500604E-1,7.765050411E0,-7.890000343E-1,7.862991973E0
3.611842930E-1,-9.919500351E-1,7.687950134E0,-7.890000343E-1,7.791730436E0
3.631453290E-1,-1.030050039E0,7.687950134E0,-7.890000343E-1,7.796672457E0
3.651063650E-1,-1.030050039E0,7.612050533E0,-7.510500550E-1,7.718056270E0
3.670673150E-1,-1.106999993E0,7.612050533E0,-7.890000343E-1,7.732482354E0
3.690282900E-1,-1.068000078E0,7.573050499E0,-8.659500480E-1,7.696855690E0
3.709891590E-1,-1.106999993E0,7.534950256E0,-8.269500136E-1,7.660598585E0
3.729500600E-1,-1.144950032E0,7.612050533E0,-9.810000658E-1,7.759934602E0
3.749112020E-1,-1.144950032E0,7.534950256E0,-9.040500522E-1,7.674874099E0
3.768722790E-1,-1.183050036E0,7.534950256E0,-9.420000315E-1,7.685209614E0
3.788333560E-1,-1.183050036E0,7.573050499E0,-9.040500522E-1,7.718031339E0
3.807944330E-1,-1.183050036E0,7.650000572E0,-9.040500522E-1,7.793550067E0
3.827551060E-1,-1.260000110E0,7.687950134E0,-9.420000315E-1,7.847263319E0
3.847158970E-1,-1.260000110E0,7.687950134E0,-9.040500522E-1,7.842798228E0
3.866767110E-1,-1.297950029E0,7.765050411E0,-9.040500522E-1,7.924518198E0
3.886375150E-1,-1.413000107E0,7.803000450E0,-9.420000315E-1,7.985658983E0
3.905987740E-1,-1.375050068E0,7.879950523E0,-8.659500480E-1,8.045759904E0
3.925599000E-1,-1.413000107E0,7.918050289E0,-8.269500136E-1,8.085538696E0
3.945207890E-1,-1.452000022E0,7.995000362E0,-8.659500480E-1,8.171793215E0
3.964817480E-1,-1.452000022E0,8.148000717E0,-8.659500480E-1,8.321543681E0
3.984428630E-1,-1.528050065E0,8.148000717E0,-8.269500136E-1,8.331188331E0
4.004039190E-1,-1.567050099E0,8.224950790E0,-8.659500480E-1,8.417560870E0
4.023648650E-1,-1.567050099E0,8.302050591E0,-9.810000658E-1,8.505413050E0
4.043258440E-1,-1.605000019E0,8.377950668E0,-9.810000658E-1,8.586526864E0
4.062867570E-1,-1.528050065E0,8.455050468E0,-9.810000658E-1,8.647842306E0
4.082476900E-1,-1.567050099E0,8.455050468E0,-1.018950105E0,8.659202259E0
4.102087910E-1,-1.605000019E0,8.532000542E0,-1.057050109E0,8.745765446E0
4.121698420E-1,-1.605000019E0,8.493000031E0,-1.096050024E0,8.712542696E0
4.141307440E-1,-1.605000019E0,8.532000542E0,-1.134000063E0,8.755399160E0
4.160916900E-1,-1.567050099E0,8.569950104E0,-1.210950017E0,8.795799608E0
4.180526090E-1,-1.642950058E0,8.532000542E0,-1.249050021E0,8.778066079E0
4.200135360E-1,-1.642950058E0,8.493000031E0,-1.287000060E0,8.745667703E0
4.219744080E-1,-1.642950058E0,8.532000542E0,-1.326000094E0,8.789345504E0
4.239353000E-1,-1.642950058E0,8.532000542E0,-1.402050018E0,8.801139835E0
4.258962280E-1,-1.681950092E0,8.493000031E0,-1.516950130E0,8.789831815E0
4.278571450E-1,-1.681950092E0,8.493000031E0,-1.594050050E0,8.803465295E0
4.298178900E-1,-1.681950092E0,8.493000031E0,-1.632000089E0,8.810415990E0
4.317786850E-1,-1.720050097E0,8.416950226E0,-1.747050047E0,8.766744396E0
4.337398540E-1,-1.681950092E0,8.416950226E0,-1.671000123E0,8.744498192E0
4.357009140E-1,-1.681950092E0,8.455050468E0,-1.671000123E0,8.781177367E0
4.376619500E-1,-1.681950092E0,8.416950226E0,-1.747050047E0,8.759348782E0
4.396229930E-1,-1.681950092E0,8.302050591E0,-1.900950074E0,8.681394548E0
4.415837150E-1,-1.681950092E0,8.302050591E0,-1.977000117E0,8.698363615E0
4.435445310E-1,-1.567050099E0,8.263050079E0,-1.939050078E0,8.630965058E0
4.455054470E-1,-1.567050099E0,8.224950790E0,-1.900950074E0,8.585981173E0
4.474663510E-1,-1.528050065E0,8.224950790E0,-1.939050078E0,8.587471555E0
4.494271440E-1,-1.489950061E0,8.148000717E0,-1.939050078E0,8.507043087E0
4.513879690E-1,-1.413000107E0,8.071949959E0,-2.014950037E0,8.438777701E0
4.533490430E-1,-1.375050068E0,8.148000717E0,-2.014950037E0,8.505333740E0
4.553100440E-1,-1.413000107E0,8.148000717E0,-2.053950071E0,8.520868259E0
4.572708090E-1,-1.375050068E0,8.148000717E0,-2.130000114E0,8.533321678E0
4.592316510E-1,-1.452000022E0,8.148000717E0,-2.206950188E0,8.565561796E0
4.611925870E-1,-1.452000022E0,8.187000275E0,-2.284050226E0,8.622770030E0
4.631534950E-1,-1.413000107E0,8.263050079E0,-2.359950066E0,8.708842072E0
4.651147820E-1,-1.489950061E0,8.302050591E0,-2.398950100E0,8.769205025E0
4.670759570E-1,-1.567050099E0,8.416950226E0,-2.359950066E0,8.880881794E0
4.690372020E-1,-1.528050065E0,8.416950226E0,-2.398950100E0,8.884534298E0
4.709984230E-1,-1.605000019E0,8.532000542E0,-2.437050104E0,9.017220831E0
4.729596560E-1,-1.605000019E0,8.608050346E0,-2.245050192E0,9.039624228E0
4.749208850E-1,-1.681950092E0,8.647050858E0,-2.322000027E0,9.110001579E0
4.768822960E-1,-1.642950058E0,8.761950493E0,-2.245050192E0,9.193003410E0
4.788436540E-1,-1.681950092E0,8.800050735E0,-2.169000149E0,9.218156578E0
4.808048090E-1,-1.681950092E0,8.838000298E0,-2.053950071E0,9.228104695E0
4.827660310E-1,-1.720050097E0,8.953050613E0,-1.977000117E0,9.328677135E0
4.847271280E-1,-1.720050097E0,9.030000687E0,-1.939050078E0,9.394647409E0
4.866882620E-1,-1.681950092E0,9.145050049E0,-1.824000120E0,9.475646308E0
4.886495080E-1,-1.758000135E0,9.259950638E0,-1.671000123E0,9.572329481E0
4.906107210E-1,-1.795950055E0,9.298050880E0,-1.516950130E0,9.590637334E0
4.925717260E-1,-1.834950089E0,9.451050758E0,-1.441050053E0,9.734784411E0
4.945327950E-1,-1.873050094E0,9.528000832E0,-1.402050018E0,9.811058085E0
4.964937380E-1,-1.911000133E0,9.681000710E0,-1.326000094E0,9.956504030E0
4.984547180E-1,-1.950000048E0,9.720000267E0,-1.287000060E0,9.996863235E0
5.004161260E-1,-1.987950087E0,9.910950661E0,-1.210950017E0,1.018063301E1
5.023774090E-1,-2.026050091E0,9.949950218E0,-1.134000063E0,1.021725719E1
5.043386280E-1,-2.026050091E0,1.002600002E1,-1.096050024E0,1.028721931E1
5.062998680E-1,-2.065050125E0,1.014105034E1,-1.057050109E0,1.040301345E1
5.082607370E-1,-2.026050091E0,1.021800041E1,-9.810000658E-1,1.046301928E1
5.102217140E-1,-2.065050125E0,1.025595093E1,-9.810000658E-1,1.050767922E1
5.121826280E-1,-2.065050125E0,1.037100029E1,-9.810000658E-1,1.062000189E1
5.141435600E-1,-2.065050125E0,1.041000080E1,-9.420000315E-1,1.065457239E1
5.161046560E-1,-2.103000164E0,1.052505016E1,-9.810000658E-1,1.077783150E1
5.180657070E-1,-2.103000164E0,1.056300068E1,-9.420000315E-1,1.081142715E1
5.200267890E-1,-2.065050125E0,1.060095024E1,-9.810000658E-1,1.084467331E1
5.219878610E-1,-2.065050125E0,1.063995075E1,-1.057050109E0,1.088991914E1
5.239489390E-1,-2.065050125E0,1.067805004E1,-1.057050109E0,1.092714691E1
5.259100150E-1,-2.065050125E0,1.071600056E1,-1.171950102E0,1.097590848E1
5.278709580E-1,-2.140950203E0,1.071600056E1,-1.096050024E0,1.098260722E1
5.298319400E-1,-2.065050125E0,1.063995075E1,-1.134000063E0,1.089765755E1
5.317930320E-1,-2.140950203E0,1.060095024E1,-1.096050024E0,1.087037899E1
5.337540920E-1,-2.140950203E0,1.056300068E1,-1.096050024E0,1.083337329E1
5.357153520E-1,-2.140950203E0,1.048605061E1,-1.096050024E0,1.075835725E1
5.376765530E-1,-2.140950203E0,1.044795036E1,-1.018950105E0,1.071361722E1
5.396377640E-1,-2.179949999E0,1.041000080E1,-1.096050024E0,1.069212908E1
5.415989590E-1,-2.179949999E0,1.033305073E1,-1.171950102E0,1.062532759E1
5.435602400E-1,-2.256000042E0,1.029495049E1,-1.210950017E0,1.060857868E1
5.455214960E-1,-2.256000042E0,1.025595093E1,-1.210950017E0,1.057073628E1
5.474829030E-1,-2.218050003E0,1.025595093E1,-1.249050021E0,1.056713780E1
5.494442650E-1,-2.295000076E0,1.021800041E1,-1.210950017E0,1.054234119E1
5.514056430E-1,-2.256000042E0,1.018005085E1,-1.249050021E0,1.050157595E1
5.533670240E-1,-2.256000042E0,1.021800041E1,-1.287000060E0,1.054293307E1
5.553282300E-1,-2.295000076E0,1.025595093E1,-1.287000060E0,1.058810294E1
5.572894880E-1,-2.332950115E0,1.021800041E1,-1.287000060E0,1.055966656E1
5.592507140E-1,-2.295000076E0,1.025595093E1,-1.249050021E0,1.058355709E1
5.612119490E-1,-2.295000076E0,1.037100029E1,-1.287000060E0,1.069958137E1
5.631729950E-1,-2.332950115E0,1.037100029E1,-1.287000060E0,1.070778560E1
5.651340990E-1,-2.371050119E0,1.037100029E1,-1.249050021E0,1.071165961E1
5.670955310E-1,-2.448000193E0,1.044795036E1,-1.326000094E0,1.081252274E1
5.690568660E-1,-2.524950027E0,1.052505016E1,-1.479000092E0,1.092426175E1
5.710179000E-1,-2.524950027E0,1.052505016E1,-1.402050018E0,1.091411003E1
5.729790220E-1,-2.524950027E0,1.063995075E1,-1.402050018E0,1.102495664E1
5.749402260E-1,-2.601000071E0,1.071600056E1,-1.326000094E0,1.110658118E1
5.769014050E-1,-2.563050032E0,1.075500011E1,-1.287000060E0,1.113084103E1
5.788623300E-1,-2.524950027E0,1.087005043E1,-1.287000060E0,1.123342059E1
5.808233300E-1,-2.640000105E0,1.094595051E1,-1.249050021E0,1.132888163E1
5.827841950E-1,-2.640000105E0,1.106100082E1,-1.249050021E0,1.144008154E1
5.847450990E-1,-2.640000105E0,1.110000038E1,-1.134000063E0,1.146584341E1
5.867062090E-1,-2.640000105E0,1.117605019E1,-1.171950102E0,1.154327360E1
5.886672550E-1,-2.640000105E0,1.125300026E1,-1.096050024E0,1.161038075E1
5.906285170E-1,-2.601000071E0,1.129095078E1,-1.096050024E0,1.163838891E1
5.925897160E-1,-2.640000105E0,1.136805058E1,-1.096050024E0,1.172192391E1
5.945509530E-1,-2.640000105E0,1.152105045E1,-1.096050024E0,1.187036351E1
5.965121780E-1,-2.601000071E0,1.159800053E1,-1.171950102E0,1.194371318E1
5.984732810E-1,-2.563050032E0,1.163595009E1,-1.096050024E0,1.196519476E1
6.004344160E-1,-2.524950027E0,1.171305084E1,-1.018950105E0,1.202535621E1
6.023956620E-1,-2.485950232E0,1.178895092E1,-1.057050109E0,1.209448913E1
6.043568750E-1,-2.448000193E0,1.175100040E1,-1.096050024E0,1.205321704E1
6.063178850E-1,-2.410050154E0,1.178895092E1,-1.096050024E0,1.208259207E1
6.082789540E-1,-2.371050119E0,1.178895092E1,-1.057050109E0,1.207139583E1
6.102402670E-1,-2.295000076E0,1.178895092E1,-1.096050024E0,1.206017060E1
6.122015010E-1,-2.218050003E0,1.175100040E1,-1.057050109E0,1.200512854E1
6.141623720E-1,-2.218050003E0,1.175100040E1,-9.810000658E-1,1.199867149E1
6.161233490E-1,-2.140950203E0,1.175100040E1,-1.057050109E0,1.199112310E1
6.180843970E-1,-2.140950203E0,1.171305084E1,-1.096050024E0,1.195744761E1
6.200454240E-1,-2.065050125E0,1.167405033E1,-9.810000658E-1,1.189580784E1
6.220063750E-1,-2.026050091E0,1.163595009E1,-9.420000315E-1,1.184852638E1
6.239673490E-1,-2.026050091E0,1.159800053E1,-8.269500136E-1,1.180264129E1
6.259282630E-1,-1.987950087E0,1.159800053E1,-8.269500136E-1,1.179616073E1
6.278891950E-1,-2.026050091E0,1.159800053E1,-6.739500165E-1,1.179290905E1
6.298497560E-1,-1.987950087E0,1.159800053E1,-5.970000029E-1,1.178227358E1
6.318104260E-1,-1.911000133E0,1.159800053E1,-4.819500148E-1,1.176426001E1
6.337711750E-1,-1.987950087E0,1.163595009E1,-4.060500264E-1,1.181152643E1
6.357318940E-1,-1.987950087E0,1.167405033E1,-3.670500219E-1,1.184778977E1
6.376927170E-1,-2.026050091E0,1.163595009E1,-2.910000086E-1,1.181460513E1
6.396535100E-1,-2.026050091E0,1.175100040E1,-2.910000086E-1,1.192793236E1
6.416144550E-1,-1.987950087E0,1.175100040E1,-1.759500057E-1,1.191926652E1
6.435753560E-1,-1.911000133E0,1.182795048E1,-9.900000691E-2,1.198174174E1
6.455364330E-1,-1.873050094E0,1.178895092E1,-1.369500011E-1,1.193760595E1
6.474974480E-1,-1.873050094E0,1.186605072E1,-6.105000153E-2,1.201312630E1
6.494583560E-1,-1.834950089E0,1.194300079E1,-2.205000073E-2,1.208316167E1
6.514192960E-1,-1.758000135E0,1.198095036E1,-2.205000073E-2,1.210926183E1
6.533807560E-1,-1.758000135E0,1.205805016E1,9.195000678E-2,1.218587678E1
6.553420630E-1,-1.642950058E0,1.213395023E1,1.680000126E-1,1.224582611E1
6.573018990E-1,-1.567050099E0,1.221105099E1,2.830500007E-1,1.231444394E1
6.592621560E-1,-1.489950061E0,1.236405087E1,3.600000143E-1,1.245870399E1
6.612233280E-1,-1.336950064E0,1.244100094E1,4.750500321E-1,1.252164575E1
6.631842310E-1,-1.260000110E0,1.251795101E1,4.750500321E-1,1.259016959E1
6.651451580E-1,-1.144950032E0,1.259400082E1,5.899500251E-1,1.265969226E1
6.671060770E-1,-1.068000078E0,1.267095089E1,6.660000086E-1,1.273330973E1
6.690668760E-1,-8.770500422E-1,1.274805069E1,8.200500607E-1,1.280447169E1
6.710277040E-1,-7.999500632E-1,1.278600025E1,7.429500222E-1,1.283252498E1
6.729885970E-1,-6.469500065E-1,1.278600025E1,8.959500194E-1,1.283366951E1
6.749494710E-1,-4.930500090E-1,1.274805069E1,9.349500537E-1,1.279179527E1
6.769104020E-1,-3.019500077E-1,1.263300037E1,9.349500537E-1,1.267114848E1
6.788713170E-1,-1.480500102E-1,1.259400082E1,8.959500194E-1,1.262669798E1
6.808322870E-1,8.100000024E-2,1.247895050E1,9.730500579E-1,1.251709203E1
6.827932400E-1,2.719500065E-1,1.224900055E1,8.959500194E-1,1.228473434E1
6.847548790E-1,5.020500422E-1,1.209600067E1,8.959500194E-1,1.213952276E1
6.867163170E-1,7.320000529E-1,1.182795048E1,1.011000037E0,1.189362677E1
6.886769730E-1,9.240000248E-1,1.155900097E1,1.050000072E0,1.164331480E1
6.906378580E-1,1.077000022E0,1.125300026E1,1.087950110E0,1.135665353E1
6.925988060E-1,1.269000053E0,1.102305031E1,1.165050030E0,1.115685174E1
6.945597220E-1,1.306950092E0,1.067805004E1,1.203000069E0,1.082479009E1
6.965204220E-1,1.384050012E0,1.041000080E1,1.279950023E0,1.057931865E1
6.984811850E-1,1.575000048E0,1.010295010E1,1.240950108E0,1.030000888E1
7.004423150E-1,1.614000082E0,9.835050583E0,1.279950023E0,1.004845701E1
7.024033370E-1,1.767000079E0,9.528000832E0,1.318050027E0,9.779690435E0
7.043639340E-1,1.843950033E0,9.259950638E0,1.240950108E0,9.522961446E0
7.063246520E-1,1.959000111E0,8.991000175E0,1.279950023E0,9.290534842E0
7.082856090E-1,1.959000111E0,8.761950493E0,1.203000069E0,9.058513511E0
7.102464960E-1,1.959000111E0,8.455050468E0,1.203000069E0,8.762007134E0
7.122073810E-1,2.074050188E0,8.187000275E0,1.126049995E0,8.520366557E0
7.141682670E-1,2.111999989E0,7.957050323E0,1.050000072E0,8.299258639E0
7.161291950E-1,2.074050188E0,7.687950134E0,1.126049995E0,8.042030219E0
7.180901110E-1,2.111999989E0,7.534950256E0,1.011000037E0,7.890382779E0
7.200509020E-1,2.149950027E0,7.267050266E0,1.087950110E0,7.656104763E0
7.220117290E-1,2.188950062E0,7.075050354E0,1.050000072E0,7.479995992E0
7.239730280E-1,2.111999989E0,6.922050476E0,1.087950110E0,7.318398881E0
7.259341880E-1,1.996950150E0,6.691950321E0,1.050000072E0,7.062047094E0
7.278954160E-1,1.996950150E0,6.577050209E0,1.011000037E0,6.947483028E0
7.298566350E-1,1.959000111E0,6.385050297E0,9.349500537E-1,6.743936560E0
7.318175080E-1,1.843950033E0,6.232050419E0,8.580000401E-1,6.555514337E0
7.337784830E-1,1.767000079E0,6.193950176E0,7.810500264E-1,6.488246852E0
7.357397120E-1,1.767000079E0,6.079050064E0,7.429500222E-1,6.374097089E0
7.377008660E-1,1.690050125E0,6.040050507E0,6.660000086E-1,6.307300180E0
7.396616050E-1,1.575000048E0,6.079050064E0,6.280500293E-1,6.311095125E0
7.416224730E-1,1.459950089E0,6.117000103E0,6.660000086E-1,6.323978221E0
7.435833590E-1,1.422000051E0,6.270000458E0,7.429500222E-1,6.472013954E0
7.455442400E-1,1.345050097E0,6.385050297E0,7.810500264E-1,6.571762792E0
7.475048560E-1,1.306950092E0,6.462000370E0,8.580000401E-1,6.648438267E0
7.494655500E-1,1.306950092E0,6.615000248E0,8.959500194E-1,6.802137404E0
7.514266520E-1,1.306950092E0,6.730050087E0,8.959500194E-1,6.914073991E0
7.533876300E-1,1.230000019E0,6.883050442E0,9.349500537E-1,7.054318892E0
7.553485450E-1,1.269000053E0,7.075050354E0,9.730500579E-1,7.253518116E0
7.573094780E-1,1.192050099E0,7.228050232E0,1.126049995E0,7.411725992E0
7.592700840E-1,1.114950061E0,7.420050144E0,1.240950108E0,7.605275468E0
7.612307860E-1,1.039050102E0,7.573050499E0,1.279950023E0,7.750418765E0
7.631918910E-1,9.619500637E-1,7.687950134E0,1.356000066E0,7.865663441E0
7.651528710E-1,8.850000501E-1,7.957050323E0,1.432950020E0,8.133340070E0
7.671139650E-1,8.089500666E-1,8.110050201E0,1.471050024E0,8.281986637E0
7.690750250E-1,7.320000529E-1,8.302050591E0,1.510050058E0,8.469953912E0
7.710355650E-1,6.940500140E-1,8.532000542E0,1.510050058E0,8.692352377E0
7.729962570E-1,6.169500351E-1,8.722949982E0,1.585950017E0,8.887391135E0
7.749567090E-1,5.410500169E-1,8.877000809E0,1.624950051E0,9.040704682E0
7.769172420E-1,5.020500422E-1,9.030000687E0,1.663050056E0,9.195580576E0
7.788782310E-1,3.870000243E-1,9.298050880E0,1.740000129E0,9.467371316E0
7.808390870E-1,3.490500152E-1,9.490050316E0,1.816050053E0,9.668553599E0
7.827996170E-1,3.490500152E-1,9.643050194E0,1.816050053E0,9.818772365E0
7.847602420E-1,2.719500065E-1,9.720000267E0,1.816050053E0,9.891936099E0
7.867209970E-1,2.340000123E-1,9.873000145E0,1.816050053E0,1.004136075E1
7.886817410E-1,1.960500032E-1,1.006500053E1,1.777950048E0,1.022270892E1
7.906423810E-1,1.960500032E-1,1.014105034E1,1.777950048E0,1.029759409E1
7.926030510E-1,1.570500135E-1,1.029495049E1,1.624950051E0,1.042358541E1
7.945639710E-1,1.189500093E-1,1.037100029E1,1.624950051E0,1.049820265E1
7.965248180E-1,1.570500135E-1,1.041000080E1,1.624950051E0,1.053723133E1
7.984858230E-1,1.189500093E-1,1.044795036E1,1.624950051E0,1.057422709E1
8.004467650E-1,1.189500093E-1,1.056300068E1,1.624950051E0,1.068791818E1
8.024074600E-1,4.200000316E-2,1.060095024E1,1.585950017E0,1.071900870E1
8.043682280E-1,8.100000024E-2,1.060095024E1,1.548000097E0,1.071368337E1
8.063291770E-1,1.189500093E-1,1.052505016E1,1.548000097E0,1.063894423E1
8.082900730E-1,4.200000316E-2,1.056300068E1,1.585950017E0,1.068147859E1
8.102508660E-1,4.050000105E-3,1.060095024E1,1.510050058E0,1.070796029E1
8.122116900E-1,-3.299999982E-2,1.052505016E1,1.585950017E0,1.064391880E1
8.141726290E-1,-3.299999982E-2,1.044795036E1,1.663050056E0,1.057953171E1
8.161335340E-1,-7.200000435E-2,1.037100029E1,1.663050056E0,1.050374060E1
8.180944600E-1,4.050000105E-3,1.033305073E1,1.624950051E0,1.046003903E1
8.200553800E-1,4.200000316E-2,1.025595093E1,1.548000097E0,1.037220313E1
8.220162940E-1,8.100000024E-2,1.025595093E1,1.510050058E0,1.036683855E1
8.239772170E-1,1.189500093E-1,1.018005085E1,1.471050024E0,1.028647523E1
8.259384550E-1,4.200000316E-2,1.018005085E1,1.471050024E0,1.028587320E1
8.278996010E-1,4.050000105E-3,1.021800041E1,1.471050024E0,1.032334912E1
8.298605320E-1,4.200000316E-2,1.014105034E1,1.432950020E0,1.024187540E1
8.318215260E-1,1.189500093E-1,1.002600002E1,1.318050027E0,1.011296601E1
8.337825570E-1,1.570500135E-1,9.949950218E0,1.240950108E0,1.002826661E1
8.357435870E-1,1.570500135E-1,9.835050583E0,1.203000069E0,9.909596048E0
8.377041780E-1,1.960500032E-1,9.720000267E0,1.165050030E0,9.791536262E0
8.396648970E-1,1.570500135E-1,9.643050194E0,1.165050030E0,9.714444056E0
8.416258540E-1,1.960500032E-1,9.604950905E0,9.730500579E-1,9.656103971E0
8.435867410E-1,1.570500135E-1,9.490050316E0,8.959500194E-1,9.533543210E0
8.455478460E-1,1.570500135E-1,9.375000000E0,7.810500264E-1,9.408789978E0
8.475088900E-1,1.960500032E-1,9.298050880E0,7.050000429E-1,9.326800675E0
8.494699290E-1,1.960500032E-1,9.183000565E0,6.280500293E-1,9.206540165E0
8.514309690E-1,8.100000024E-2,9.145050049E0,5.509500504E-1,9.161989268E0
8.533916910E-1,4.200000316E-2,9.067950249E0,5.130000114E-1,9.082546709E0
8.553525070E-1,4.200000316E-2,9.030000687E0,4.750500321E-1,9.042585301E0
8.573136280E-1,4.050000105E-3,8.991000175E0,4.360500276E-1,9.001568762E0
8.592746590E-1,-3.299999982E-2,8.991000175E0,3.979500234E-1,8.999863187E0
8.612357890E-1,4.050000105E-3,8.877000809E0,3.600000143E-1,8.884298496E0
8.631968900E-1,-7.200000435E-2,8.877000809E0,3.220500052E-1,8.883132531E0
8.651581430E-1,-1.099500060E-1,8.953050613E0,2.449500114E-1,8.957075683E0
8.671193510E-1,-1.870500147E-1,8.914950371E0,2.449500114E-1,8.920276247E0
8.690800080E-1,-1.870500147E-1,8.953050613E0,2.070000172E-1,8.957396497E0
8.710408540E-1,-2.629500031E-1,8.953050613E0,1.680000126E-1,8.958486591E0
8.730017440E-1,-3.780000210E-1,8.991000175E0,2.070000172E-1,9.001323079E0
8.749626210E-1,-3.780000210E-1,9.067950249E0,1.680000126E-1,9.077380114E0
8.769232380E-1,-3.780000210E-1,9.030000687E0,2.070000172E-1,9.040279057E0
8.788839310E-1,-4.170000255E-1,8.991000175E0,2.070000172E-1,9.003045162E0
8.808439270E-1,-3.780000210E-1,8.953050613E0,2.830500007E-1,8.965495893E0
8.828041420E-1,-4.170000255E-1,8.914950371E0,3.600000143E-1,8.931955505E0
8.847652300E-1,-3.780000210E-1,8.877000809E0,3.979500234E-1,8.893952529E0
8.867260630E-1,-3.780000210E-1,8.877000809E0,5.130000114E-1,8.899842492E0
8.886871370E-1,-4.930500090E-1,8.838000298E0,3.979500234E-1,8.860683483E0
8.906481400E-1,-4.930500090E-1,8.914950371E0,3.600000143E-1,8.935828917E0
8.926090500E-1,-4.930500090E-1,8.914950371E0,3.600000143E-1,8.935828917E0
8.945699880E-1,-5.320500135E-1,8.914950371E0,3.600000143E-1,8.938065638E0
8.965309520E-1,-4.930500090E-1,8.991000175E0,4.360500276E-1,9.015060848E0
8.984919090E-1,-5.320500135E-1,8.953050613E0,5.130000114E-1,8.983504968E0
9.004529620E-1,-5.700000525E-1,9.030000687E0,6.280500293E-1,9.069744169E0
9.024139860E-1,-6.079500318E-1,9.067950249E0,6.660000086E-1,9.112676937E0
9.043750920E-1,-4.930500090E-1,9.030000687E0,7.810500264E-1,9.077116825E0
9.063361600E-1,-5.700000525E-1,9.067950249E0,7.429500222E-1,9.116172251E0
9.082970590E-1,-5.700000525E-1,9.030000687E0,6.660000086E-1,9.072451073E0
9.102580080E-1,-5.320500135E-1,8.991000175E0,5.899500251E-1,9.026029160E0
9.122187460E-1,-4.930500090E-1,8.991000175E0,6.280500293E-1,9.026385174E0
9.141795460E-1,-4.930500090E-1,8.914950371E0,7.810500264E-1,8.962671341E0
9.161403100E-1,-4.170000255E-1,8.991000175E0,9.349500537E-1,9.049094141E0
9.181010850E-1,-4.930500090E-1,8.991000175E0,1.011000037E0,9.061087327E0
9.200618530E-1,-4.930500090E-1,8.953050613E0,9.349500537E-1,9.015228516E0
9.220226230E-1,-4.930500090E-1,8.914950371E0,8.959500194E-1,8.973414337E0
9.239833920E-1,-4.549500346E-1,8.953050613E0,8.580000401E-1,9.005568216E0
9.259441620E-1,-4.549500346E-1,8.953050613E0,9.349500537E-1,9.013225084E0
9.279051740E-1,-3.400500119E-1,8.991000175E0,8.959500194E-1,9.041927040E0
9.298661020E-1,-3.780000210E-1,9.030000687E0,9.730500579E-1,9.090138769E0
9.318273390E-1,-3.019500077E-1,9.030000687E0,9.730500579E-1,9.087294021E0
9.337884860E-1,-3.019500077E-1,9.030000687E0,1.050000072E0,9.095855449E0
9.357494170E-1,-2.629500031E-1,9.067950249E0,1.126049995E0,9.141381351E0
9.377104120E-1,-2.629500031E-1,9.067950249E0,1.087950110E0,9.136766379E0
9.396712720E-1,-2.629500031E-1,9.030000687E0,1.126049995E0,9.103737897E0
9.416321760E-1,-2.629500031E-1,9.030000687E0,1.203000069E0,9.113575822E0
9.435929670E-1,-2.629500031E-1,8.991000175E0,1.165050030E0,9.069981722E0
9.455537910E-1,-3.019500077E-1,8.953050613E0,1.165050030E0,9.033583490E0
9.475150460E-1,-2.629500031E-1,8.953050613E0,1.126049995E0,9.027416385E0
9.494761740E-1,-2.629500031E-1,9.030000687E0,1.165050030E0,9.108644064E0
9.514370530E-1,-1.870500147E-1,9.145050049E0,1.126049995E0,9.216014144E0
9.533980120E-1,-1.480500102E-1,9.106050491E0,1.126049995E0,9.176604108E0
9.553587930E-1,-1.480500102E-1,9.106050491E0,1.087950110E0,9.172006858E0
9.573196270E-1,-1.870500147E-1,9.145050049E0,1.087950110E0,9.211436563E0
9.592807450E-1,-2.250000089E-1,9.145050049E0,1.126049995E0,9.216862481E0
9.612417790E-1,-2.629500031E-1,9.183000565E0,1.126049995E0,9.255518930E0
9.632026650E-1,-2.629500031E-1,9.220950127E0,1.126049995E0,9.293172361E0
9.651636080E-1,-3.019500077E-1,9.220950127E0,1.050000072E0,9.285450727E0
9.671244830E-1,-3.400500119E-1,9.145050049E0,1.011000037E0,9.207045969E0
9.690853780E-1,-4.549500346E-1,9.220950127E0,1.087950110E0,9.296049495E0
9.710465300E-1,-4.930500090E-1,9.183000565E0,1.050000072E0,9.255976330E0
9.730076060E-1,-4.930500090E-1,9.183000565E0,9.349500537E-1,9.243631823E0
9.749686820E-1,-4.549500346E-1,9.183000565E0,8.580000401E-1,9.234210468E0
9.769297280E-1,-4.930500090E-1,9.183000565E0,8.200500607E-1,9.232717898E0
9.788906300E-1,-5.320500135E-1,9.145050049E0,7.810500264E-1,9.193750962E0
9.808515750E-1,-5.700000525E-1,9.145050049E0,7.810500264E-1,9.196025207E0
9.828127180E-1,-4.930500090E-1,9.067950249E0,7.810500264E-1,9.114870222E0
9.847738030E-1,-5.700000525E-1,8.953050613E0,7.810500264E-1,9.005112686E0
9.867348660E-1,-7.230000496E-1,8.914950371E0,8.580000401E-1,8.985278697E0
9.886959450E-1,-7.620000243E-1,8.991000175E0,8.580000401E-1,9.063933598E0
9.906568410E-1,-7.999500632E-1,9.106050491E0,7.810500264E-1,9.174427219E0
9.926177910E-1,-7.999500632E-1,9.106050491E0,6.280500293E-1,9.162670053E0
9.945785290E-1,-8.380500674E-1,9.106050491E0,5.899500251E-1,9.163543228E0
9.965393300E-1,-9.150000215E-1,9.145050049E0,4.360500276E-1,9.201049128E0
9.985004080E-1,-8.770500422E-1,9.106050491E0,5.509500504E-1,9.164765043E0
1.000461405E0,-8.770500422E-1,9.030000687E0,5.130000114E-1,9.086985099E0
1.002422361E0,-9.529500604E-1,8.953050613E0,4.750500321E-1,9.016146718E0
1.004383330E0,-1.030050039E0,8.953050613E0,4.750500321E-1,9.024621372E0
1.006344559E0,-1.106999993E0,8.877000809E0,4.750500321E-1,8.958362846E0
1.008305712E0,-1.144950032E0,8.953050613E0,4.360500276E-1,9.036490773E0
1.010267547E0,-1.144950032E0,8.953050613E0,3.979500234E-1,9.034732430E0
1.012229179E0,-1.068000078E0,8.991000175E0,2.449500114E-1,9.057522224E0
1.014189260E0,-1.144950032E0,8.991000175E0,2.449500114E-1,9.066917626E0
1.016149796E0,-1.030050039E0,8.953050613E0,3.220500052E-1,9.017861974E0
1.018110920E0,-1.106999993E0,8.991000175E0,3.600000143E-1,9.066042861E0
1.020071871E0,-1.106999993E0,8.991000175E0,3.979500234E-1,9.067629093E0
1.022032641E0,-1.144950032E0,8.953050613E0,3.979500234E-1,9.034732430E0
1.023993474E0,-1.222050071E0,8.914950371E0,4.750500321E-1,9.010850072E0
1.025954366E0,-1.297950029E0,8.953050613E0,5.130000114E-1,9.061178653E0
1.027915241E0,-1.222050071E0,8.991000175E0,4.360500276E-1,9.084141685E0
1.029876217E0,-1.144950032E0,8.953050613E0,3.600000143E-1,9.033140421E0
1.031837164E0,-1.183050036E0,8.953050613E0,3.600000143E-1,9.038048610E0
1.033798404E0,-1.106999993E0,9.030000687E0,4.360500276E-1,9.108045949E0
1.035759554E0,-1.068000078E0,8.991000175E0,3.979500234E-1,9.062950543E0
1.037720798E0,-9.529500604E-1,8.953050613E0,3.979500234E-1,9.012413291E0
1.039682015E0,-9.919500351E-1,8.953050613E0,3.979500234E-1,9.016620452E0
1.041643069E0,-9.529500604E-1,8.914950371E0,4.750500321E-1,8.978314233E0
1.043604171E0,-9.150000215E-1,8.914950371E0,5.130000114E-1,8.976454432E0
1.045565418E0,-9.529500604E-1,8.914950371E0,4.750500321E-1,8.978314233E0
1.047526626E0,-9.150000215E-1,8.914950371E0,4.360500276E-1,8.972385679E0
1.049487366E0,-9.919500351E-1,8.838000298E0,3.979500234E-1,8.902391721E0
1.051448243E0,-1.106999993E0,8.877000809E0,3.600000143E-1,8.952999070E0
1.053410209E0,-9.919500351E-1,8.838000298E0,3.220500052E-1,8.899321903E0
1.055371856E0,-8.770500422E-1,8.877000809E0,2.070000172E-1,8.922623445E0
1.057332694E0,-8.770500422E-1,8.877000809E0,1.680000126E-1,8.921803861E0
1.059293743E0,-8.380500674E-1,8.914950371E0,2.449500114E-1,8.957603951E0
1.061254509E0,-8.770500422E-1,8.914950371E0,2.449500114E-1,8.961336809E0
1.063215358E0,-9.529500604E-1,8.877000809E0,2.830500007E-1,8.932489825E0
1.065175753E0,-9.919500351E-1,8.953050613E0,4.360500276E-1,9.018382326E0
1.067136281E0,-9.150000215E-1,8.877000809E0,4.360500276E-1,8.934680074E0
1.069097266E0,-8.380500674E-1,8.991000175E0,3.979500234E-1,9.038737539E0
1.071058120E0,-7.620000243E-1,9.030000687E0,3.600000143E-1,9.069242330E0
1.073019010E0,-6.850500107E-1,9.030000687E0,3.600000143E-1,9.063101342E0
1.074979889E0,-6.469500065E-1,9.067950249E0,4.750500321E-1,9.103402581E0
1.076940865E0,-6.850500107E-1,9.067950249E0,4.360500276E-1,9.104238291E0
1.078901813E0,-6.469500065E-1,9.067950249E0,5.899500251E-1,9.110121133E0
1.080862866E0,-6.079500318E-1,9.106050491E0,5.509500504E-1,9.142937425E0
1.082823888E0,-6.850500107E-1,9.106050491E0,5.899500251E-1,9.150819094E0
1.084784796E0,-7.999500632E-1,9.067950249E0,6.280500293E-1,9.124806226E0
1.086745737E0,-7.620000243E-1,9.106050491E0,6.660000086E-1,9.162115236E0
1.088707061E0,-6.079500318E-1,9.145050049E0,6.660000086E-1,9.189401485E0
1.090668273E0,-5.320500135E-1,9.145050049E0,7.050000429E-1,9.187602662E0
1.092629269E0,-5.700000525E-1,9.106050491E0,7.050000429E-1,9.151069919E0
1.094590338E0,-5.320500135E-1,9.106050491E0,7.429500222E-1,9.151787121E0
1.096551415E0,-4.930500090E-1,9.183000565E0,8.580000401E-1,9.236165966E0
1.098512490E0,-5.320500135E-1,9.106050491E0,9.349500537E-1,9.169370991E0
1.100473253E0,-5.320500135E-1,9.145050049E0,9.730500579E-1,9.212048851E0
1.102434107E0,-4.930500090E-1,9.106050491E0,1.011000037E0,9.175258849E0
1.104395250E0,-5.320500135E-1,9.145050049E0,1.011000037E0,9.216134693E0
1.106356288E0,-7.230000496E-1,9.106050491E0,1.050000072E0,9.194856430E0
1.108317507E0,-6.469500065E-1,9.183000565E0,1.126049995E0,9.274375034E0
1.110278673E0,-4.930500090E-1,9.145050049E0,1.165050030E0,9.232138446E0
1.112239420E0,-4.549500346E-1,9.145050049E0,1.126049995E0,9.225340564E0
1.114200290E0,-4.170000255E-1,9.220950127E0,1.087950110E0,9.294269509E0
1.116161341E0,-4.549500346E-1,9.259950638E0,1.203000069E0,9.348843485E0
1.118122350E0,-4.170000255E-1,9.259950638E0,1.240950108E0,9.352033576E0
1.120083259E0,-4.170000255E-1,9.336000443E0,1.356000066E0,9.443173696E0
1.122044198E0,-4.170000255E-1,9.412950516E0,1.356000066E0,9.519257461E0
1.124005162E0,-4.170000255E-1,9.451050758E0,1.395000100E0,9.562545411E0
1.125966119E0,-6.469500065E-1,9.528000832E0,1.471050024E0,9.662573794E0
1.127927018E0,-6.079500318E-1,9.643050194E0,1.471050024E0,9.773536128E0
1.129887948E0,-4.170000255E-1,9.720000267E0,1.471050024E0,9.839526533E0
1.131848690E0,-4.930500090E-1,9.720000267E0,1.471050024E0,9.843042806E0
1.133809487E0,-5.700000525E-1,9.910950661E0,1.471050024E0,1.003572774E1
1.135770251E0,-4.549500346E-1,9.988050461E0,1.471050024E0,1.010604372E1
1.137731025E0,-3.400500119E-1,1.014105034E1,1.510050058E0,1.025849829E1
1.139691789E0,-3.019500077E-1,1.021800041E1,1.510050058E0,1.033339041E1
1.141652559E0,-3.019500077E-1,1.033305073E1,1.471050024E0,1.044160425E1
1.143613462E0,-3.400500119E-1,1.044795036E1,1.624950051E0,1.057902469E1
1.145574326E0,-4.549500346E-1,1.056300068E1,1.701000094E0,1.070875176E1
1.147535125E0,-6.850500107E-1,1.060095024E1,1.777950048E0,1.077081918E1
1.149495944E0,-7.620000243E-1,1.071600056E1,1.777950048E0,1.088918814E1
1.151457050E0,-6.850500107E-1,1.094595051E1,1.740000129E0,1.110453630E1
1.153418081E0,-5.700000525E-1,1.098495007E1,1.701000094E0,1.113047301E1
1.155379121E0,-5.320500135E-1,1.102305031E1,1.701000094E0,1.116620422E1
1.157340158E0,-4.549500346E-1,1.121400070E1,1.701000094E0,1.135139606E1
1.159301242E0,-3.400500119E-1,1.117605019E1,1.624950051E0,1.129868109E1
1.161262312E0,-3.019500077E-1,1.125300026E1,1.585950017E0,1.136822001E1
1.163223417E0,-3.400500119E-1,1.129095078E1,1.624950051E0,1.141234709E1
1.165184525E0,-3.400500119E-1,1.140600014E1,1.624950051E0,1.152618479E1
1.167145553E0,-2.629500031E-1,1.140600014E1,1.585950017E0,1.151873341E1
1.169106604E0,-3.019500077E-1,1.144395065E1,1.510050058E0,1.154709624E1
1.171067505E0,-3.019500077E-1,1.152105045E1,1.471050024E0,1.161850961E1
1.173028450E0,-3.019500077E-1,1.155900097E1,1.471050024E0,1.165614282E1
1.174989039E0,-3.019500077E-1,1.155900097E1,1.395000100E0,1.164678936E1
1.176949743E0,-3.780000210E-1,1.159800053E1,1.126049995E0,1.165866583E1
1.178910477E0,-4.549500346E-1,1.148295021E1,1.356000066E0,1.157168360E1
1.180871202E0,-4.930500090E-1,1.148295021E1,1.395000100E0,1.157787844E1
1.182831845E0,-4.549500346E-1,1.148295021E1,1.395000100E0,1.157631851E1
1.184792512E0,-4.549500346E-1,1.144395065E1,1.356000066E0,1.153298410E1
1.186753433E0,-4.549500346E-1,1.136805058E1,1.203000069E0,1.144057527E1
1.188714279E0,-5.320500135E-1,1.129095078E1,1.165050030E0,1.136336166E1
1.190675082E0,-6.079500318E-1,1.121400070E1,1.087950110E0,1.128304260E1
1.192635897E0,-7.230000496E-1,1.113795090E1,1.011000037E0,1.120708706E1
1.194596973E0,-7.999500632E-1,1.098495007E1,9.349500537E-1,1.105365006E1
1.196557972E0,-1.030050039E0,1.090800095E1,9.349500537E-1,1.099634573E1
1.198518899E0,-1.068000078E0,1.087005043E1,8.200500607E-1,1.095313209E1
1.200479868E0,-1.068000078E0,1.075500011E1,7.050000429E-1,1.083086685E1
1.202440557E0,-1.068000078E0,1.067805004E1,6.280500293E-1,1.074968947E1
1.204401329E0,-1.030050039E0,1.063995075E1,5.130000114E-1,1.070199627E1
1.206362457E0,-1.068000078E0,1.063995075E1,4.360500276E-1,1.070230423E1
1.208323481E0,-1.144950032E0,1.048605061E1,3.979500234E-1,1.055587666E1
1.210284417E0,-1.297950029E0,1.041000080E1,3.979500234E-1,1.049815008E1
1.212245358E0,-1.489950061E0,1.037100029E1,3.979500234E-1,1.048503517E1
1.214207043E0,-1.605000019E0,1.025595093E1,2.449500114E-1,1.038366770E1
1.216168510E0,-1.567050099E0,1.025595093E1,9.195000678E-2,1.037538579E1
1.218129341E0,-1.605000019E0,1.025595093E1,1.300500035E-1,1.038159272E1
1.220090358E0,-1.605000019E0,1.021800041E1,1.680000126E-1,1.034464990E1
1.222051206E0,-1.642950058E0,1.018005085E1,1.680000126E-1,1.031314424E1
1.224012113E0,-1.642950058E0,1.018005085E1,2.449500114E-1,1.031468471E1
1.225972499E0,-1.681950092E0,1.018005085E1,3.600000143E-1,1.032433976E1
1.227933037E0,-1.758000135E0,1.014105034E1,4.360500276E-1,1.030153416E1
1.229894250E0,-1.758000135E0,1.014105034E1,4.360500276E-1,1.030153416E1
1.231855265E0,-1.795950055E0,1.014105034E1,4.750500321E-1,1.030980170E1
1.233816483E0,-1.758000135E0,1.018005085E1,4.360500276E-1,1.033992937E1
1.235777645E0,-1.758000135E0,1.018005085E1,5.130000114E-1,1.034346019E1
1.237738528E0,-1.642950058E0,1.021800041E1,4.360500276E-1,1.035842444E1
1.239699493E0,-1.567050099E0,1.025595093E1,3.600000143E-1,1.038122225E1
1.241660454E0,-1.489950061E0,1.029495049E1,4.360500276E-1,1.041134460E1
1.243621416E0,-1.413000107E0,1.041000080E1,4.750500321E-1,1.051619506E1
1.245582467E0,-1.297950029E0,1.037100029E1,3.979500234E-1,1.045947826E1
1.247543491E0,-1.183050036E0,1.044795036E1,3.979500234E-1,1.052224493E1
1.249504577E0,-1.030050039E0,1.048605061E1,4.750500321E-1,1.054722394E1
1.251465645E0,-9.529500604E-1,1.048605061E1,5.130000114E-1,1.054175223E1
1.253426724E0,-9.150000215E-1,1.056300068E1,5.899500251E-1,1.061895708E1
1.255387799E0,-8.770500422E-1,1.063995075E1,7.429500222E-1,1.070185701E1
1.257349050E0,-7.620000243E-1,1.067805004E1,1.050000072E0,1.075657459E1
1.259310254E0,-6.469500065E-1,1.075500011E1,1.279950023E0,1.085020017E1
1.261271310E0,-5.700000525E-1,1.079295063E1,1.356000066E0,1.089272324E1
1.263232410E0,-4.930500090E-1,1.087005043E1,1.356000066E0,1.096539242E1
1.265193348E0,-4.549500346E-1,1.090800095E1,1.432950020E0,1.101112210E1
1.267154333E0,-3.780000210E-1,1.090800095E1,1.471050024E0,1.101323553E1
1.269115560E0,-4.170000255E-1,1.098495007E1,1.471050024E0,1.109085232E1
1.271076716E0,-3.780000210E-1,1.098495007E1,1.548000097E0,1.109992416E1
1.273037645E0,-3.400500119E-1,1.106100082E1,1.585950017E0,1.117929384E1
1.274998641E0,-2.629500031E-1,1.106100082E1,1.701000094E0,1.119411824E1
1.276959731E0,-3.019500077E-1,1.106100082E1,1.701000094E0,1.119510225E1
1.278920793E0,-3.019500077E-1,1.110000038E1,1.740000129E0,1.123960777E1
1.280881703E0,-3.019500077E-1,1.110000038E1,1.740000129E0,1.123960777E1
1.282842651E0,-2.629500031E-1,1.098495007E1,1.893000126E0,1.114996503E1
1.284803570E0,-3.400500119E-1,1.098495007E1,1.893000126E0,1.115204965E1
1.286764497E0,-7.230000496E-1,1.067805004E1,1.663050056E0,1.083093797E1
1.288725554E0,-7.620000243E-1,1.094595051E1,1.969950080E0,1.114787782E1
1.290686572E0,-6.079500318E-1,1.094595051E1,2.275950193E0,1.119657917E1
1.292647460E0,-5.700000525E-1,1.090800095E1,2.430000067E0,1.118991890E1
1.294608400E0,-5.700000525E-1,1.090800095E1,2.659050226E0,1.124188297E1
1.296569499E0,-4.930500090E-1,1.087005043E1,2.773950100E0,1.122924280E1
1.298530552E0,-4.930500090E-1,1.087005043E1,2.851050138E0,1.124853686E1
1.300491633E0,-4.170000255E-1,1.083105087E1,3.004050255E0,1.124766064E1
1.302452706E0,-4.549500346E-1,1.083105087E1,3.081000090E0,1.126992476E1
1.304413498E0,-3.780000210E-1,1.075500011E1,3.118950129E0,1.120449737E1
1.306374352E0,-3.400500119E-1,1.067805004E1,3.118950129E0,1.112943110E1
1.308334926E0,-3.019500077E-1,1.063995075E1,3.118950129E0,1.109177965E1
1.310295583E0,-3.019500077E-1,1.052505016E1,3.157950163E0,1.099274779E1
1.312256731E0,-3.019500077E-1,1.048605061E1,3.043050051E0,1.092284691E1
1.314217735E0,-2.250000089E-1,1.041000080E1,3.004050255E0,1.083711491E1
1.316178489E0,-1.099500060E-1,1.037100029E1,3.004050255E0,1.079787266E1
1.318139300E0,-3.299999982E-2,1.025595093E1,3.004050255E0,1.068690490E1
1.320100196E0,-3.299999982E-2,1.014105034E1,3.004050255E0,1.057668705E1
1.322061067E0,1.189500093E-1,1.014105034E1,3.196050167E0,1.063342785E1
1.324021640E0,3.109500110E-1,1.014105034E1,3.349050045E0,1.068427480E1
1.325982300E0,5.410500169E-1,1.006500053E1,3.426000118E0,1.064586529E1
1.327943691E0,6.169500351E-1,9.988050461E0,3.579000235E0,1.062784183E1
1.329904855E0,5.410500169E-1,9.910950661E0,3.694050074E0,1.059083019E1
1.331866413E0,4.639500082E-1,9.757950783E0,3.694050074E0,1.044408249E1
1.333827855E0,6.550500393E-1,9.796050072E0,3.847950220E0,1.054506560E1
1.335788735E0,8.089500666E-1,9.681000710E0,3.924000263E0,1.047730657E1
1.337749780E0,1.000050068E0,9.643050194E0,3.924000263E0,1.045879033E1
1.339710832E0,1.269000053E0,9.528000832E0,3.924000263E0,1.038224152E1
1.341671872E0,1.345050097E0,9.412950516E0,3.886050224E0,1.027200971E1
1.343632595E0,1.575000048E0,9.336000443E0,3.808950186E0,1.020537265E1
1.345593411E0,1.767000079E0,9.298050880E0,3.655950069E0,1.014603422E1
1.347554037E0,2.111999989E0,9.145050049E0,3.502950191E0,1.001814077E1
1.349514718E0,2.341950178E0,9.067950249E0,3.310950041E0,9.933521154E0
1.351475483E0,2.572050095E0,8.953050613E0,3.196050167E0,9.848212713E0
1.353436236E0,2.802000046E0,8.914950371E0,3.081000090E0,9.839720825E0
1.355397143E0,2.955000162E0,8.761950493E0,3.043050051E0,9.734678013E0
1.357358005E0,3.147000074E0,8.722949982E0,3.004050255E0,9.747706591E0
1.359318984E0,3.337950230E0,8.647050858E0,3.043050051E0,9.755693408E0
1.361279928E0,3.492000103E0,8.608050346E0,3.004050255E0,9.763038124E0
1.363240638E0,3.682950258E0,8.532000542E0,2.851050138E0,9.720475438E0
1.365201406E0,3.837000132E0,8.455050468E0,2.736000061E0,9.679676894E0
1.367162400E0,3.874950171E0,8.493000031E0,2.545050144E0,9.675927272E0
1.369123327E0,3.913050175E0,8.302050591E0,2.122950077E0,9.420346210E0
1.371084205E0,3.453000069E0,7.918050289E0,5.899500251E-1,8.658335342E0
1.373045098E0,3.798000097E0,8.148000717E0,9.730500579E-1,9.042209179E0
1.375006025E0,4.027950287E0,8.224950790E0,1.548000097E0,9.288191607E0
1.376966942E0,4.066950321E0,8.302050591E0,1.624950051E0,9.386404615E0
1.378927911E0,4.143000126E0,8.340000153E0,1.701000094E0,9.466438291E0
1.380888865E0,4.182000160E0,8.455050468E0,1.855050087E0,9.613439270E0
1.382849559E0,4.182000160E0,8.569950104E0,1.855050087E0,9.714647752E0
1.384810329E0,4.066950321E0,8.722949982E0,1.701000094E0,9.773604382E0
1.386771161E0,4.066950321E0,8.991000175E0,1.548000097E0,9.988717304E0
1.388731961E0,3.952050209E0,9.145050049E0,1.510050058E0,1.007625389E1
1.390692726E0,3.952050209E0,9.336000443E0,1.432950020E0,1.023879636E1
1.392653502E0,3.913050175E0,9.528000832E0,1.318050027E0,1.038421963E1
1.394614404E0,3.760050297E0,9.643050194E0,1.240950108E0,1.042431544E1
1.396575269E0,3.721950293E0,9.910950661E0,1.126049995E0,1.064649452E1
1.398536207E0,3.607050180E0,1.006500053E1,1.165050030E0,1.075510987E1
1.400497120E0,3.453000069E0,1.025595093E1,1.011000037E0,1.086875614E1
1.402458270E0,3.300000191E0,1.044795036E1,1.011000037E0,1.100326266E1
1.404419351E0,3.108000040E0,1.063995075E1,9.730500579E-1,1.112722080E1
1.406380383E0,2.917050123E0,1.079295063E1,1.011000037E0,1.122582228E1
1.408341430E0,2.725050211E0,1.094595051E1,9.730500579E-1,1.132195026E1
1.410302391E0,2.572050095E0,1.117605019E1,9.730500579E-1,1.150940337E1
1.412263367E0,2.304000139E0,1.121400070E1,1.011000037E0,1.149279555E1
1.414224236E0,2.227050066E0,1.144395065E1,9.349500537E-1,1.169606302E1
1.416185136E0,1.920000076E0,1.155900097E1,8.580000401E-1,1.174874750E1
1.418145748E0,1.614000082E0,1.163595009E1,7.810500264E-1,1.177329053E1
1.420106444E0,1.422000051E0,1.175100040E1,7.810500264E-1,1.186246744E1
1.422067400E0,1.306950092E0,1.190400028E1,8.200500607E-1,1.200357544E1
1.424028283E0,1.114950061E0,1.198095036E1,8.580000401E-1,1.206326859E1
1.425988448E0,8.470500112E-1,1.217295074E1,1.011000037E0,1.224419637E1
1.427948823E0,4.639500082E-1,1.232595062E1,1.050000072E0,1.237928950E1
1.429909659E0,1.570500135E-1,1.232595062E1,7.429500222E-1,1.234931975E1
1.431870360E0,-7.200000435E-2,1.228800011E1,5.130000114E-1,1.229891457E1
1.433832262E0,-2.629500031E-1,1.228800011E1,3.600000143E-1,1.229608431E1
1.435793816E0,-3.400500119E-1,1.224900055E1,2.449500114E-1,1.225616779E1
1.437754948E0,-4.930500090E-1,1.209600067E1,9.195000678E-2,1.210639440E1
1.439716203E0,-5.700000525E-1,1.198095036E1,5.295000225E-2,1.199461859E1
1.441676528E0,-7.999500632E-1,1.186605072E1,9.195000678E-2,1.189333993E1
1.443637126E0,-9.529500604E-1,1.178895092E1,3.220500052E-1,1.183178743E1
1.445597800E0,-9.919500351E-1,1.167405033E1,6.280500293E-1,1.173293922E1
1.447558443E0,-1.106999993E0,1.155900097E1,7.050000429E-1,1.163327028E1
1.449519729E0,-1.222050071E0,1.148295021E1,5.899500251E-1,1.156285401E1
1.451480827E0,-1.375050068E0,1.140600014E1,4.360500276E-1,1.149685789E1
1.453441901E0,-1.489950061E0,1.129095078E1,3.600000143E-1,1.139452152E1
1.455402983E0,-1.605000019E0,1.125300026E1,3.979500234E-1,1.137384738E1
1.457363905E0,-1.720050097E0,1.117605019E1,4.360500276E-1,1.131604214E1
1.459324887E0,-1.834950089E0,1.110000038E1,3.600000143E-1,1.125640486E1
1.461286520E0,-1.795950055E0,1.106100082E1,3.600000143E-1,1.121163573E1
1.463247962E0,-1.873050094E0,1.090800095E1,2.070000172E-1,1.106958221E1
1.465208932E0,-1.911000133E0,1.090800095E1,1.300500035E-1,1.107489590E1
1.467170041E0,-1.911000133E0,1.067805004E1,-2.140500098E-1,1.084981528E1
1.469130576E0,-1.605000019E0,1.018005085E1,-1.210950017E0,1.037669795E1
1.471091276E0,-1.528050065E0,1.048605061E1,9.195000678E-2,1.059720006E1
1.473051381E0,-1.873050094E0,1.075500011E1,8.959500194E-1,1.095358711E1
1.475011661E0,-2.026050091E0,1.087005043E1,8.580000401E-1,1.109049320E1
1.476972829E0,-1.987950087E0,1.079295063E1,6.280500293E-1,1.099245995E1
1.478933736E0,-1.873050094E0,1.071600056E1,3.600000143E-1,1.088441935E1
1.480895189E0,-1.795950055E0,1.060095024E1,1.680000126E-1,1.075331608E1
1.482856491E0,-1.681950092E0,1.052505016E1,5.295000225E-2,1.065872604E1
1.484817215E0,-1.605000019E0,1.044795036E1,-1.369500011E-1,1.057139760E1
1.486778108E0,-1.489950061E0,1.033305073E1,-6.105000153E-2,1.044009653E1
1.488738811E0,-1.413000107E0,1.029495049E1,-6.105000153E-2,1.039164577E1
1.490699570E0,-1.297950029E0,1.010295010E1,-1.369500011E-1,1.018690484E1
1.492660491E0,-1.222050071E0,1.006500053E1,-9.900000691E-2,1.013940053E1
1.494621385E0,-1.183050036E0,9.451050758E0,-6.360000372E-1,9.546018221E0
1.496581999E0,-8.770500422E-1,9.183000565E0,-1.363950014E0,9.325077790E0
1.498542695E0,-6.850500107E-1,9.528000832E0,1.500000060E-2,9.552607935E0
1.500503656E0,-1.030050039E0,9.757950783E0,8.200500607E-1,9.846374392E0
1.502464539E0,-1.106999993E0,9.604950905E0,1.680000126E-1,9.669992496E0
1.504424538E0,-8.770500422E-1,9.757950783E0,3.220500052E-1,9.802578052E0
1.506384786E0,-8.770500422E-1,9.949950218E0,7.810500264E-1,1.001902017E1
1.508345869E0,-9.150000215E-1,1.002600002E1,7.429500222E-1,1.009504216E1
1.510306707E0,-8.770500422E-1,1.010295010E1,3.979500234E-1,1.014875271E1
1.512268366E0,-7.999500632E-1,1.006500053E1,1.500000060E-2,1.009675100E1
1.514229784E0,-6.469500065E-1,9.910950661E0,-2.910000086E-1,9.936305567E0
1.516190734E0,-4.930500090E-1,9.873000145E0,-4.440000355E-1,9.895269890E0
1.518151838E0,-4.170000255E-1,9.681000710E0,-4.819500148E-1,9.701955451E0
1.520112910E0,-3.400500119E-1,9.565950394E0,-5.970000029E-1,9.590591741E0
1.522073992E0,-2.629500031E-1,9.604950905E0,-4.440000355E-1,9.618802452E0
1.524034572E0,-1.480500102E-1,8.800050735E0,-9.420000315E-1,8.851563467E0
1.525995300E0,-3.299999982E-2,8.761950493E0,-1.210950017E0,8.845296229E0
1.527956270E0,4.200000316E-2,8.877000809E0,-7.890000343E-1,8.912094502E0
1.529917159E0,-3.299999982E-2,9.145050049E0,2.449500114E-1,9.148389470E0
1.531878088E0,-2.629500031E-1,9.298050880E0,4.360500276E-1,9.311983275E0
1.533839005E0,-2.250000089E-1,9.259950638E0,2.070000172E-1,9.264996483E0
1.535799750E0,-2.250000089E-1,9.259950638E0,-9.900000691E-2,9.263212824E0
1.537760546E0,-1.099500060E-1,9.183000565E0,-4.060500264E-1,9.192631016E0
1.539721658E0,-7.200000435E-2,9.030000687E0,-6.360000372E-1,9.052656651E0
1.541682654E0,-3.299999982E-2,8.991000175E0,-7.120500207E-1,9.019212182E0
1.543643611E0,4.050000105E-3,8.838000298E0,-7.890000343E-1,8.873149763E0
1.545604579E0,4.050000105E-3,8.761950493E0,-7.510500550E-1,8.794081477E0
1.547565629E0,4.050000105E-3,8.685000420E0,-7.510500550E-1,8.717415034E0
1.549526654E0,4.200000316E-2,8.608050346E0,-7.120500207E-1,8.637552315E0
1.551487361E0,4.200000316E-2,8.532000542E0,-7.510500550E-1,8.565096230E0
1.553448175E0,1.189500093E-1,8.455050468E0,-7.890000343E-1,8.492617299E0
1.555408937E0,1.570500135E-1,8.340000153E0,-7.890000343E-1,8.378710420E0
1.557369714E0,2.340000123E-1,8.263050079E0,-8.269500136E-1,8.307622942E0
1.559330526E0,1.960500032E-1,8.148000717E0,-9.040500522E-1,8.200344980E0
1.561291327E0,1.189500093E-1,8.110050201E0,-9.810000658E-1,8.170032099E0
1.563252387E0,1.189500093E-1,8.032950401E0,-9.810000658E-1,8.093503715E0
1.565213385E0,4.200000316E-2,7.995000362E0,-1.018950105E0,8.059780029E0
1.567174521E0,-3.299999982E-2,7.918050289E0,-1.018950105E0,7.983412096E0
1.569135616E0,4.200000316E-2,7.879950523E0,-1.057050109E0,7.950643948E0
1.571096511E0,4.050000105E-3,7.803000450E0,-9.040500522E-1,7.855198210E0
1.573057464E0,4.050000105E-3,7.765050411E0,-9.420000315E-1,7.821981101E0
1.575018521E0,4.050000105E-3,7.687950134E0,-1.018950105E0,7.755182331E0
1.576979544E0,-3.299999982E-2,7.650000572E0,-1.134000063E0,7.733663679E0
1.578940496E0,-1.099500060E-1,7.573050499E0,-1.210950017E0,7.670044511E0
1.580901469E0,-1.480500102E-1,7.573050499E0,-1.210950017E0,7.670685276E0
1.582861843E0,-2.250000089E-1,7.573050499E0,-1.249050021E0,7.678661655E0
1.584822392E0,-3.019500077E-1,7.497000217E0,-1.210950017E0,7.600170130E0
1.586783119E0,-3.400500119E-1,7.458000183E0,-1.287000060E0,7.575867600E0
1.588743818E0,-3.400500119E-1,7.381950378E0,-1.210950017E0,7.488339291E0
1.590704780E0,-3.400500119E-1,7.381950378E0,-1.171950102E0,7.482131544E0
1.592665664E0,-4.170000255E-1,7.420050144E0,-1.134000063E0,7.517778216E0
1.594626235E0,-4.549500346E-1,7.342950344E0,-1.134000063E0,7.443913986E0
1.596586897E0,-4.549500346E-1,7.305000305E0,-1.171950102E0,7.412386662E0
1.598547650E0,-5.700000525E-1,7.305000305E0,-1.210950017E0,7.426596089E0
1.600508400E0,-6.850500107E-1,7.305000305E0,-1.287000060E0,7.449073240E0
1.602468994E0,-6.850500107E-1,7.305000305E0,-1.210950017E0,7.436311110E0
1.604429633E0,-6.469500065E-1,7.305000305E0,-1.134000063E0,7.420749956E0
1.606390288E0,-7.620000243E-1,7.381950378E0,-1.171950102E0,7.513141984E0
1.608350939E0,-7.620000243E-1,7.497000217E0,-1.249050021E0,7.638441088E0
1.610311338E0,-7.620000243E-1,7.497000217E0,-1.210950017E0,7.632303469E0
1.612271801E0,-8.380500674E-1,7.534950256E0,-1.249050021E0,7.683614334E0
1.614232621E0,-9.150000215E-1,7.458000183E0,-1.249050021E0,7.617028143E0
1.616193337E0,-1.030050039E0,7.534950256E0,-1.171950102E0,7.694799899E0
1.618153936E0,-9.919500351E-1,7.497000217E0,-1.210950017E0,7.658679852E0
1.620114570E0,-1.068000078E0,7.534950256E0,-1.210950017E0,7.706004119E0
1.622075592E0,-1.106999993E0,7.534950256E0,-1.326000094E0,7.730407531E0
1.624036496E0,-1.183050036E0,7.573050499E0,-1.326000094E0,7.778751667E0
1.625997244E0,-1.183050036E0,7.534950256E0,-1.210950017E0,7.722789826E0
1.627958037E0,-1.183050036E0,7.534950256E0,-1.287000060E0,7.735079309E0
1.629918757E0,-1.222050071E0,7.612050533E0,-1.287000060E0,7.816206807E0
1.631879498E0,-1.222050071E0,7.650000572E0,-1.363950014E0,7.866147391E0
1.633840300E0,-1.336950064E0,7.687950134E0,-1.363950014E0,7.921639501E0
1.635801095E0,-1.260000110E0,7.687950134E0,-1.363950014E0,7.909016196E0
1.637761996E0,-1.375050068E0,7.726950169E0,-1.402050018E0,7.972594675E0
1.639722865E0,-1.413000107E0,7.765050411E0,-1.363950014E0,8.009552848E0
1.641683797E0,-1.452000022E0,7.879950523E0,-1.402050018E0,8.134351146E0
1.643644711E0,-1.489950061E0,7.842000484E0,-1.402050018E0,8.104484378E0
1.645605506E0,-1.452000022E0,7.842000484E0,-1.441050053E0,8.104437113E0
1.647566333E0,-1.452000022E0,7.879950523E0,-1.441050053E0,8.141163895E0
1.649526912E0,-1.413000107E0,7.879950523E0,-1.479000092E0,8.141107469E0
1.651487564E0,-1.413000107E0,7.918050289E0,-1.441050053E0,8.171212574E0
1.653448128E0,-1.336950064E0,7.879950523E0,-1.441050053E0,8.121433431E0
1.655408718E0,-1.222050071E0,7.879950523E0,-1.479000092E0,8.110145985E0
1.657369576E0,-1.183050036E0,7.842000484E0,-1.441050053E0,8.060595775E0
1.659330345E0,-1.144950032E0,7.842000484E0,-1.402050018E0,8.048206411E0
1.661291250E0,-1.068000078E0,7.842000484E0,-1.441050053E0,8.044514965E0
1.663252115E0,-9.919500351E-1,7.879950523E0,-1.479000092E0,8.078677268E0
1.665212914E0,-9.529500604E-1,7.918050289E0,-1.402050018E0,8.097492109E0
1.667173732E0,-9.529500604E-1,7.879950523E0,-1.363950014E0,8.053700622E0
1.669134283E0,-9.150000215E-1,7.879950523E0,-1.363950014E0,8.049298412E0
1.671094901E0,-9.150000215E-1,7.842000484E0,-1.326000094E0,8.005777469E0
1.673055875E0,-8.770500422E-1,7.879950523E0,-1.363950014E0,8.045072819E0
1.675016745E0,-8.380500674E-1,7.879950523E0,-1.249050021E0,8.022223764E0
1.676977722E0,-8.380500674E-1,7.842000484E0,-1.363950014E0,8.003727829E0
1.678938668E0,-7.999500632E-1,7.803000450E0,-1.402050018E0,7.968216889E0
1.680899427E0,-8.770500422E-1,7.842000484E0,-1.326000094E0,8.001528893E0
1.682860227E0,-9.150000215E-1,7.803000450E0,-1.249050021E0,7.955134632E0
1.684820991E0,-9.919500351E-1,7.803000450E0,-1.249050021E0,7.964352256E0
1.686781766E0,-9.919500351E-1,7.842000484E0,-1.249050021E0,8.002565990E0
1.688742309E0,-1.068000078E0,7.765050411E0,-1.249050021E0,7.937049704E0
1.690702920E0,-1.068000078E0,7.765050411E0,-1.210950017E0,7.931143171E0
1.692663746E0,-1.068000078E0,7.765050411E0,-1.210950017E0,7.931143171E0
1.694624519E0,-1.106999993E0,7.765050411E0,-1.249050021E0,7.942391506E0
1.696585289E0,-1.144950032E0,7.803000450E0,-1.287000060E0,7.990875782E0
1.698546060E0,-1.183050036E0,7.765050411E0,-1.287000060E0,7.959395984E0
1.700506829E0,-1.183050036E0,7.803000450E0,-1.287000060E0,7.996423736E0
1.702467598E0,-1.144950032E0,7.842000484E0,-1.326000094E0,8.035306990E0
1.704428391E0,-1.183050036E0,7.879950523E0,-1.326000094E0,8.077840299E0
1.706389160E0,-1.222050071E0,7.879950523E0,-1.326000094E0,8.083644158E0
1.708349569E0,-1.336950064E0,7.842000484E0,-1.402050018E0,8.077756577E0
1.710310084E0,-1.375050068E0,7.879950523E0,-1.479000092E0,8.134606580E0
1.712270895E0,-1.413000107E0,7.957050323E0,-1.479000092E0,8.215756838E0
1.714231620E0,-1.528050065E0,8.032950401E0,-1.479000092E0,8.309673304E0
1.716192581E0,-1.528050065E0,8.071949959E0,-1.479000092E0,8.347380093E0
1.718153470E0,-1.567050099E0,8.148000717E0,-1.479000092E0,8.428107912E0
1.720114355E0,-1.642950058E0,8.263050079E0,-1.516950130E0,8.560281491E0
1.722075242E0,-1.642950058E0,8.377950668E0,-1.632000089E0,8.692109444E0
1.724036036E0,-1.681950092E0,8.340000153E0,-1.671000123E0,8.670455586E0
1.725996857E0,-1.681950092E0,8.340000153E0,-1.632000089E0,8.663023892E0
1.727957617E0,-1.605000019E0,8.377950668E0,-1.594050050E0,8.677965085E0
1.729918395E0,-1.567050099E0,8.377950668E0,-1.516950130E0,8.657184364E0
1.731879163E0,-1.605000019E0,8.455050468E0,-1.441050053E0,8.725854041E0
1.733839934E0,-1.567050099E0,8.416950226E0,-1.326000094E0,8.663658198E0
1.735800882E0,-1.528050065E0,8.493000031E0,-1.287000060E0,8.724812644E0
1.737761778E0,-1.452000022E0,8.532000542E0,-1.249050021E0,8.744338927E0
1.739722506E0,-1.489950061E0,8.647050858E0,-1.249050021E0,8.862932115E0
1.741683266E0,-1.567050099E0,8.722949982E0,-1.363950014E0,8.966931584E0
1.743644261E0,-1.567050099E0,8.877000809E0,-1.402050018E0,9.122638523E0
1.745605187E0,-1.605000019E0,9.067950249E0,-1.402050018E0,9.315014280E0
1.747565930E0,-1.642950058E0,9.145050049E0,-1.441050053E0,9.402544897E0
1.749526727E0,-1.681950092E0,9.375000000E0,-1.479000092E0,9.638828891E0
1.751487340E0,-1.720050097E0,9.490050316E0,-1.516950130E0,9.763235377E0
1.753447987E0,-1.720050097E0,9.643050194E0,-1.555950046E0,9.918062811E0
1.755408911E0,-1.795950055E0,9.796050072E0,-1.555950046E0,1.008012967E1
1.757369754E0,-1.758000135E0,9.873000145E0,-1.594050050E0,1.015419578E1
1.759330736E0,-1.758000135E0,9.949950218E0,-1.516950130E0,1.021729962E1
1.761291677E0,-1.758000135E0,1.006500053E1,-1.479000092E0,1.032386756E1
1.763252747E0,-1.720050097E0,1.014105034E1,-1.441050053E0,1.038634197E1
1.765213769E0,-1.758000135E0,1.029495049E1,-1.441050053E0,1.054292157E1
1.767174541E0,-1.834950089E0,1.033305073E1,-1.402050018E0,1.058795181E1
1.769135387E0,-1.873050094E0,1.044795036E1,-1.326000094E0,1.069702107E1
1.771096322E0,-1.911000133E0,1.052505016E1,-1.287000060E0,1.077427360E1
1.773057231E0,-1.950000048E0,1.056300068E1,-1.249050021E0,1.081386191E1
1.775018189E0,-1.987950087E0,1.071600056E1,-1.210950017E0,1.096590231E1
1.776979110E0,-1.950000048E0,1.071600056E1,-1.134000063E0,1.095085039E1
1.778940169E0,-1.950000048E0,1.083105087E1,-1.171950102E0,1.106741299E1
1.780901187E0,-1.950000048E0,1.087005043E1,-1.171950102E0,1.110558254E1
1.782861959E0,-1.987950087E0,1.090800095E1,-1.171950102E0,1.114943484E1
1.784822804E0,-2.026050091E0,1.094595051E1,-1.134000063E0,1.118948916E1
1.786784134E0,-2.026050091E0,1.094595051E1,-1.171950102E0,1.119339888E1
1.788745298E0,-2.065050125E0,1.098495007E1,-1.210950017E0,1.124277367E1
1.790706136E0,-2.103000164E0,1.094595051E1,-1.210950017E0,1.121172788E1
1.792667069E0,-2.065050125E0,1.090800095E1,-1.210950017E0,1.116760120E1
1.794628034E0,-2.103000164E0,1.098495007E1,-1.210950017E0,1.124980611E1
1.796588990E0,-2.140950203E0,1.087005043E1,-1.287000060E0,1.115338663E1
1.798550069E0,-2.140950203E0,1.090800095E1,-1.287000060E0,1.119037629E1
1.800511125E0,-2.103000164E0,1.087005043E1,-1.287000060E0,1.114616415E1
1.802472206E0,-2.140950203E0,1.083105087E1,-1.363950014E0,1.112455349E1
1.804433279E0,-2.103000164E0,1.083105087E1,-1.479000092E0,1.113201302E1
1.806393997E0,-2.103000164E0,1.075500011E1,-1.632000089E0,1.107953345E1
1.808354819E0,-2.140950203E0,1.071600056E1,-1.708950043E0,1.106059881E1
1.810315894E0,-2.140950203E0,1.071600056E1,-1.824000120E0,1.107895808E1
1.812276894E0,-2.103000164E0,1.071600056E1,-1.977000117E0,1.109791904E1
1.814237984E0,-2.103000164E0,1.067805004E1,-2.130000114E0,1.108964665E1
1.816199048E0,-2.026050091E0,1.063995075E1,-2.245050192E0,1.106135983E1
1.818159948E0,-2.026050091E0,1.056300068E1,-2.398950100E0,1.101983774E1
1.820120896E0,-2.065050125E0,1.052505016E1,-2.437050104E0,1.099910570E1
1.822081879E0,-2.026050091E0,1.052505016E1,-2.514000177E0,1.100916694E1
1.824042837E0,-2.026050091E0,1.048605061E1,-2.475000143E0,1.096301792E1
1.826004070E0,-2.026050091E0,1.048605061E1,-2.514000177E0,1.097188831E1
1.827965222E0,-1.987950087E0,1.044795036E1,-2.437050104E0,1.091104145E1
1.829926287E0,-2.065050125E0,1.041000080E1,-2.475000143E0,1.089762242E1
1.831887378E0,-2.065050125E0,1.037100029E1,-2.475000143E0,1.086037314E1
1.833848640E0,-2.103000164E0,1.041000080E1,-2.437050104E0,1.089632688E1
1.835809846E0,-2.140950203E0,1.041000080E1,-2.437050104E0,1.090371486E1
1.837771126E0,-2.179949999E0,1.044795036E1,-2.359950066E0,1.093074623E1
1.839732385E0,-2.179949999E0,1.048605061E1,-2.322000027E0,1.095906581E1
1.841693567E0,-2.179949999E0,1.044795036E1,-2.284050226E0,1.091461104E1
1.843654771E0,-2.218050003E0,1.052505016E1,-2.130000114E0,1.096509586E1
1.845615658E0,-2.218050003E0,1.060095024E1,-2.053950071E0,1.102354765E1
1.847576662E0,-2.295000076E0,1.067805004E1,-1.900950074E0,1.108608990E1
1.849537885E0,-2.295000076E0,1.079295063E1,-1.747050047E0,1.117170500E1
1.851499044E0,-2.332950115E0,1.087005043E1,-1.594050050E0,1.123127990E1
1.853460333E0,-2.410050154E0,1.098495007E1,-1.363950014E0,1.132862875E1
1.855421583E0,-2.371050119E0,1.106100082E1,-1.249050021E0,1.138102561E1
1.857382770E0,-2.410050154E0,1.113795090E1,-1.057050109E0,1.144463398E1
1.859343973E0,-2.485950232E0,1.125300026E1,-1.096050024E0,1.157632451E1
1.861305253E0,-2.371050119E0,1.132905006E1,-1.018950105E0,1.161927336E1
1.863266510E0,-2.332950115E0,1.140600014E1,-9.420000315E-1,1.168019090E1
1.865227737E0,-2.218050003E0,1.152105045E1,-8.659500480E-1,1.176453224E1
1.867188973E0,-2.218050003E0,1.155900097E1,-8.659500480E-1,1.180169982E1
1.869150004E0,-2.140950203E0,1.163595009E1,-8.269500136E-1,1.186013695E1
1.871111108E0,-2.140950203E0,1.167405033E1,-7.890000343E-1,1.189494178E1
1.873072180E0,-2.026050091E0,1.178895092E1,-7.510500550E-1,1.198533767E1
1.875033262E0,-1.950000048E0,1.178895092E1,-6.739500165E-1,1.196812736E1
1.876994113E0,-1.873050094E0,1.190400028E1,-6.739500165E-1,1.206928946E1
1.878955031E0,-1.795950055E0,1.190400028E1,-6.739500165E-1,1.205756476E1
1.880915820E0,-1.720050097E0,1.198095036E1,-6.360000372E-1,1.212048843E1
1.882876647E0,-1.489950061E0,1.198095036E1,-3.289500177E-1,1.207772043E1
1.884837766E0,-1.413000107E0,1.205805016E1,-2.520000041E-1,1.214317285E1
1.886798799E0,-1.336950064E0,1.213395023E1,-1.759500057E-1,1.220865030E1
1.888759838E0,-1.183050036E0,1.221105099E1,-2.205000073E-2,1.226824600E1
1.890720875E0,-1.068000078E0,1.224900055E1,1.500000060E-2,1.229548143E1
1.892681621E0,-9.919500351E-1,1.232595062E1,1.300500035E-1,1.236648441E1
1.894642469E0,-9.150000215E-1,1.240305042E1,2.449500114E-1,1.243916739E1
1.896602504E0,-7.999500632E-1,1.247895050E1,3.220500052E-1,1.250871064E1
1.898562777E0,-7.230000496E-1,1.255605030E1,4.360500276E-1,1.258440574E1
1.900523990E0,-5.700000525E-1,1.263300037E1,5.509500504E-1,1.265784912E1
1.902484928E0,-4.930500090E-1,1.263300037E1,6.280500293E-1,1.265820855E1
1.904445655E0,-4.170000255E-1,1.270905018E1,7.810500264E-1,1.273985418E1
1.906406454E0,-4.549500346E-1,1.263300037E1,4.750500321E-1,1.265011267E1
1.908367712E0,-3.400500119E-1,1.201905060E1,-8.269500136E-1,1.205226359E1
1.910328836E0,1.189500093E-1,1.217295074E1,4.360500276E-1,1.218133895E1
1.912289771E0,1.189500093E-1,1.255605030E1,2.008050203E0,1.271616349E1
1.914250762E0,-3.299999982E-2,1.282395077E1,2.238000154E0,1.301781268E1
1.916211489E0,4.050000105E-3,1.301595020E1,1.663050056E0,1.312176480E1
1.918172296E0,4.050000105E-3,1.309305096E1,1.279950023E0,1.315546547E1
1.920133373E0,1.570500135E-1,1.313100052E1,1.011000037E0,1.317079954E1
1.922094371E0,2.719500065E-1,1.313100052E1,9.349500537E-1,1.316705218E1
1.924056228E0,4.639500082E-1,1.316895103E1,1.011000037E0,1.321584814E1
1.926017833E0,5.790000558E-1,1.316895103E1,1.126049995E0,1.322968257E1
1.927978980E0,7.320000529E-1,1.320795059E1,1.240950108E0,1.328629896E1
1.929940276E0,9.240000248E-1,1.324605083E1,1.395000100E0,1.335131694E1
1.931901315E0,1.077000022E0,1.320795059E1,1.395000100E0,1.332501081E1
1.933862430E0,1.230000019E0,1.324605083E1,1.471050024E0,1.338412309E1
1.935823635E0,1.306950092E0,1.320795059E1,1.471050024E0,1.335372853E1
1.937784813E0,1.345050097E0,1.313100052E1,1.510050058E0,1.328580391E1
1.939745679E0,1.459950089E0,1.301595020E1,1.510050058E0,1.318433408E1
1.941706647E0,1.651950121E0,1.293900108E1,1.548000097E0,1.313556213E1
1.943667607E0,1.804950118E0,1.278600025E1,1.548000097E0,1.300522786E1
1.945628570E0,1.959000111E0,1.263300037E1,1.663050056E0,1.289170723E1
1.947589441E0,2.227050066E0,1.240305042E1,1.701000094E0,1.271569161E1
1.949550339E0,2.419050217E0,1.217295074E1,1.816050053E0,1.254314839E1
1.951511611E0,2.533950090E0,1.198095036E1,1.816050053E0,1.237990760E1
1.953472784E0,2.649000168E0,1.167405033E1,1.893000126E0,1.211957518E1
1.955433665E0,2.802000046E0,1.144395065E1,2.008050203E0,1.195188171E1
1.957394632E0,2.917050123E0,1.113795090E1,2.046000004E0,1.169398339E1
1.959355547E0,2.955000162E0,1.083105087E1,2.008050203E0,1.140508459E1
1.961316478E0,3.031950235E0,1.052505016E1,1.969950080E0,1.112879627E1
1.963277215E0,3.031950235E0,1.021800041E1,2.046000004E0,1.085294295E1
1.965238012E0,3.031950235E0,9.873000145E0,2.161050081E0,1.055172932E1
1.967198956E0,3.031950235E0,9.604950905E0,2.200050116E0,1.030960836E1
1.969159857E0,2.917050123E0,9.298050880E0,2.122950077E0,9.973457205E0
1.971120650E0,2.839950085E0,8.953050613E0,2.008050203E0,9.604930889E0
1.973081474E0,2.764050245E0,8.685000420E0,2.046000004E0,9.341055725E0
1.975042569E0,2.686950207E0,8.416950226E0,1.930950046E0,9.043965977E0
1.977003602E0,2.610000134E0,8.148000717E0,1.893000126E0,8.762731644E0
1.978964147E0,2.494950056E0,7.879950523E0,1.855050087E0,8.471104229E0
1.980924835E0,2.419050217E0,7.612050533E0,1.777950048E0,8.182678269E0
1.982885617E0,2.304000139E0,7.420050144E0,1.740000129E0,7.961982243E0
1.984846371E0,2.227050066E0,7.228050232E0,1.663050056E0,7.744042719E0
1.986807311E0,2.111999989E0,6.997950554E0,1.624950051E0,7.488145203E0
1.988768173E0,2.035050154E0,6.807000160E0,1.510050058E0,7.263396691E0
1.990729107E0,1.920000076E0,6.615000248E0,1.510050058E0,7.051587038E0
1.992690019E0,1.804950118E0,6.538950443E0,1.471050024E0,6.941160278E0
1.994650810E0,1.651950121E0,6.462000370E0,1.395000100E0,6.814133346E0
1.996611637E0,1.614000082E0,6.346950531E0,1.318050027E0,6.680271939E0
1.998572706E0,1.498950124E0,6.346950531E0,1.240950108E0,6.638568346E0
2.000533707E0,1.345050097E0,6.309000492E0,1.165050030E0,6.555149773E0
2.002494618E0,1.306950092E0,6.309000492E0,1.087950110E0,6.534159563E0
2.004455555E0,1.230000019E0,6.346950531E0,1.011000037E0,6.543607733E0
2.006416655E0,1.153950095E0,6.462000370E0,1.050000072E0,6.647672507E0
2.008377707E0,1.077000022E0,6.462000370E0,1.050000072E0,6.634747771E0
2.010338813E0,9.619500637E-1,6.499950409E0,1.126049995E0,6.666535220E0
2.012299918E0,8.470500112E-1,6.577050209E0,1.126049995E0,6.726297032E0
2.014260811E0,7.699500322E-1,6.691950321E0,1.165050030E0,6.836107352E0
2.016221766E0,6.550500393E-1,6.807000160E0,1.165050030E0,6.936979408E0
2.018181917E0,5.790000558E-1,6.883050442E0,1.165050030E0,7.004924412E0
2.020142304E0,4.260000288E-1,6.960000515E0,1.165050030E0,7.069683498E0
2.022103309E0,3.109500110E-1,7.113000393E0,1.126049995E0,7.208290580E0
2.024064139E0,2.719500065E-1,7.267050266E0,1.165050030E0,7.364870532E0
2.026024944E0,1.960500032E-1,7.420050144E0,1.203000069E0,7.519493927E0
2.027985757E0,1.189500093E-1,7.612050533E0,1.165050030E0,7.701610481E0
2.029946518E0,-3.299999982E-2,7.842000484E0,1.240950108E0,7.939648466E0
2.031907295E0,-1.099500060E-1,8.071949959E0,1.279950023E0,8.173538842E0
2.033868216E0,-1.480500102E-1,8.187000275E0,1.279950023E0,8.287771978E0
2.035829081E0,-2.250000089E-1,8.455050468E0,1.240950108E0,8.548594071E0
2.037789880E0,-3.019500077E-1,8.685000420E0,1.318050027E0,8.789633779E0
2.039750699E0,-3.400500119E-1,8.838000298E0,1.318050027E0,8.942211088E0
2.041711639E0,-3.780000210E-1,9.030000687E0,1.279950023E0,9.128092269E0
2.043672543E0,-4.170000255E-1,9.183000565E0,1.279950023E0,9.281145428E0
2.045633245E0,-4.549500346E-1,9.375000000E0,1.240950108E0,9.467711535E0
2.047594007E0,-4.549500346E-1,9.565950394E0,1.318050027E0,9.667038965E0
2.049554957E0,-3.780000210E-1,9.681000710E0,1.318050027E0,9.777623158E0
2.051515851E0,-4.170000255E-1,9.873000145E0,1.356000066E0,9.974405098E0
2.053476645E0,-3.400500119E-1,1.002600002E1,1.395000100E0,1.012829382E1
2.055437468E0,-3.780000210E-1,1.010295010E1,1.356000066E0,1.020055003E1
2.057398527E0,-3.400500119E-1,1.021800041E1,1.318050027E0,1.030826961E1
2.059359528E0,-3.400500119E-1,1.029495049E1,1.318050027E0,1.038455080E1
2.061320124E0,-2.629500031E-1,1.033305073E1,1.356000066E0,1.042496121E1
2.063280838E0,-1.870500147E-1,1.037100029E1,1.318050027E0,1.045609347E1
2.065241391E0,-1.099500060E-1,1.041000080E1,1.356000066E0,1.049852094E1
2.067201992E0,-7.200000435E-2,1.044795036E1,1.203000069E0,1.051722682E1
2.069162461E0,4.050000105E-3,1.041000080E1,1.240950108E0,1.048370594E1
2.071122978E0,1.189500093E-1,1.044795036E1,1.240950108E0,1.052206126E1
2.073083789E0,1.570500135E-1,1.041000080E1,1.279950023E0,1.048956879E1
2.075044514E0,1.960500032E-1,1.037100029E1,1.165050030E0,1.043807569E1
2.077005606E0,3.870000243E-1,1.037100029E1,1.203000069E0,1.044770909E1
2.078966591E0,4.639500082E-1,1.033305073E1,1.011000037E0,1.039275267E1
2.080928094E0,6.550500393E-1,1.021800041E1,9.349500537E-1,1.028157355E1
2.082889442E0,7.699500322E-1,1.025595093E1,9.730500579E-1,1.033073951E1
2.084849933E0,9.240000248E-1,1.018005085E1,1.087950110E0,1.027963262E1
2.086810675E0,1.000050068E0,1.014105034E1,1.165050030E0,1.025662438E1
2.088771763E0,1.000050068E0,1.006500053E1,1.126049995E0,1.017704891E1
2.090732750E0,1.039050102E0,9.949950218E0,1.050000072E0,1.005900764E1
2.092693348E0,1.000050068E0,9.949950218E0,9.730500579E-1,1.004730988E1
2.094654060E0,1.000050068E0,9.910950661E0,1.011000037E0,1.001245046E1
2.096614973E0,1.039050102E0,9.873000145E0,9.730500579E-1,9.975098165E0
2.098575827E0,1.077000022E0,9.873000145E0,9.730500579E-1,9.979122573E0
2.100536987E0,1.039050102E0,9.835050583E0,1.011000037E0,9.941326177E0
2.102498058E0,9.619500637E-1,9.796050072E0,9.349500537E-1,9.887470684E0
2.104458961E0,9.619500637E-1,9.757950783E0,9.730500579E-1,9.853414526E0
2.106419910E0,9.619500637E-1,9.681000710E0,9.349500537E-1,9.773497545E0
2.108380783E0,1.039050102E0,9.528000832E0,9.349500537E-1,9.629982168E0
2.110341679E0,1.153950095E0,9.451050758E0,8.959500194E-1,9.563298997E0
2.112302606E0,1.153950095E0,9.375000000E0,9.730500579E-1,9.495738636E0
2.114263523E0,1.153950095E0,9.298050880E0,9.730500579E-1,9.419775868E0
2.116224629E0,1.114950061E0,9.259950638E0,9.730500579E-1,9.377453059E0
2.118185678E0,1.039050102E0,9.259950638E0,9.730500579E-1,9.368731896E0
2.120146580E0,1.000050068E0,9.183000565E0,8.959500194E-1,9.280642539E0
2.122107526E0,9.240000248E-1,9.183000565E0,8.200500607E-1,9.265730274E0
2.124068265E0,9.240000248E-1,9.106050491E0,7.810500264E-1,9.186074828E0
2.126029065E0,7.699500322E-1,9.067950249E0,7.050000429E-1,9.127845848E0
2.127989998E0,7.320000529E-1,9.106050491E0,7.810500264E-1,9.168752302E0
2.129950899E0,6.550500393E-1,9.030000687E0,7.429500222E-1,9.084160814E0
2.131911692E0,6.169500351E-1,9.030000687E0,7.429500222E-1,9.081492965E0
2.133872516E0,5.790000558E-1,8.991000175E0,7.429500222E-1,9.040204641E0
2.135832870E0,5.020500422E-1,8.991000175E0,7.810500264E-1,9.038815052E0
2.137793362E0,5.020500422E-1,8.953050613E0,8.580000401E-1,9.008070470E0
2.139754372E0,4.639500082E-1,8.991000175E0,7.429500222E-1,9.033565658E0
2.141715221E0,4.260000288E-1,8.914950371E0,7.429500222E-1,8.955991898E0
2.143676337E0,3.490500152E-1,8.953050613E0,6.660000086E-1,8.984570508E0
2.145637374E0,3.109500110E-1,8.877000809E0,7.050000429E-1,8.910379247E0
2.147598099E0,2.719500065E-1,8.877000809E0,7.050000429E-1,8.909103503E0
2.149558915E0,2.719500065E-1,8.800050735E0,7.050000429E-1,8.832433120E0
2.151519855E0,3.109500110E-1,8.722949982E0,7.429500222E-1,8.760052570E0
2.153480759E0,2.340000123E-1,8.722949982E0,7.429500222E-1,8.757658770E0
2.155441730E0,2.340000123E-1,8.647050858E0,8.580000401E-1,8.692664068E0
2.157402682E0,2.719500065E-1,8.608050346E0,9.349500537E-1,8.662945179E0
2.159363916E0,2.719500065E-1,8.608050346E0,8.959500194E-1,8.658822900E0
2.161325067E0,1.570500135E-1,8.608050346E0,8.580000401E-1,8.652130347E0
2.163285997E0,8.100000024E-2,8.608050346E0,8.580000401E-1,8.651084084E0
2.165246992E0,4.200000316E-2,8.647050858E0,8.580000401E-1,8.689615446E0
2.167208217E0,4.200000316E-2,8.685000420E0,8.959500194E-1,8.731192515E0
2.169169374E0,8.100000024E-2,8.761950493E0,8.200500607E-1,8.800614725E0
2.171130304E0,4.050000105E-3,8.800050735E0,8.580000401E-1,8.841779992E0
2.173091300E0,4.050000105E-3,8.838000298E0,8.959500194E-1,8.883298492E0
2.175052667E0,4.050000105E-3,8.838000298E0,8.200500607E-1,8.875964610E0
2.177013952E0,-3.299999982E-2,8.838000298E0,8.200500607E-1,8.876025032E0
2.178975040E0,-7.200000435E-2,8.914950371E0,7.810500264E-1,8.949388988E0
2.180936185E0,-7.200000435E-2,8.914950371E0,7.810500264E-1,8.949388988E0
2.182897070E0,-1.480500102E-1,8.838000298E0,8.200500607E-1,8.877198329E0
2.184858031E0,-3.780000210E-1,8.838000298E0,8.200500607E-1,8.884008970E0
2.186819086E0,-3.400500119E-1,8.991000175E0,7.429500222E-1,9.028050338E0
2.188780110E0,-3.019500077E-1,9.145050049E0,7.050000429E-1,9.177153113E0
2.190741376E0,-1.480500102E-1,9.145050049E0,7.429500222E-1,9.176373681E0
2.192702571E0,-1.870500147E-1,9.183000565E0,7.429500222E-1,9.214904330E0
2.194663808E0,-1.870500147E-1,9.220950127E0,7.810500264E-1,9.255860203E0
2.196625033E0,-1.480500102E-1,9.259950638E0,7.050000429E-1,9.287929246E0
2.198586166E0,-3.019500077E-1,9.220950127E0,6.660000086E-1,9.249900057E0
2.200547301E0,-2.629500031E-1,9.220950127E0,7.050000429E-1,9.251599267E0
2.202508547E0,-3.019500077E-1,9.183000565E0,7.050000429E-1,9.214971418E0
2.204469760E0,-3.019500077E-1,9.220950127E0,6.660000086E-1,9.249900057E0
2.206430994E0,-3.400500119E-1,9.183000565E0,6.660000086E-1,9.213397277E0
2.208392222E0,-3.400500119E-1,9.145050049E0,7.429500222E-1,9.181478592E0
2.210353108E0,-3.780000210E-1,9.106050491E0,7.050000429E-1,9.141119441E0
2.212314084E0,-3.019500077E-1,9.106050491E0,6.660000086E-1,9.135364545E0
2.214274998E0,-2.250000089E-1,9.145050049E0,6.280500293E-1,9.169351789E0
2.216235930E0,-7.200000435E-2,9.145050049E0,6.280500293E-1,9.166873580E0
2.218196986E0,-3.299999982E-2,9.220950127E0,6.660000086E-1,9.245029273E0
2.220158005E0,-7.200000435E-2,9.259950638E0,6.280500293E-1,9.281504008E0
2.222118899E0,4.050000105E-3,9.259950638E0,5.899500251E-1,9.278725303E0
2.224079839E0,4.050000105E-3,9.183000565E0,6.280500293E-1,9.204453412E0
2.226040938E0,-7.200000435E-2,9.183000565E0,5.509500504E-1,9.199795070E0
2.228001991E0,-7.200000435E-2,9.145050049E0,5.899500251E-1,9.164342062E0
2.229963253E0,-1.480500102E-1,9.067950249E0,5.509500504E-1,9.085878410E0
2.231924453E0,-3.019500077E-1,9.067950249E0,4.750500321E-1,9.085404122E0
2.233885703E0,-3.019500077E-1,9.030000687E0,4.360500276E-1,9.045563876E0
2.235846928E0,-1.870500147E-1,9.030000687E0,3.220500052E-1,9.037677595E0
2.237808565E0,-1.099500060E-1,9.030000687E0,2.070000172E-1,9.033042146E0
2.239770082E0,-7.200000435E-2,9.067950249E0,1.680000126E-1,9.069792154E0
2.241731039E0,-1.099500060E-1,9.106050491E0,1.680000126E-1,9.108263751E0
2.243692161E0,-1.480500102E-1,9.106050491E0,2.070000172E-1,9.109606104E0
2.245653443E0,-2.629500031E-1,9.106050491E0,2.070000172E-1,9.112197719E0
2.247614654E0,-2.629500031E-1,9.145050049E0,1.300500035E-1,9.149753882E0
2.249575574E0,-3.400500119E-1,9.106050491E0,5.295000225E-2,9.112551414E0
2.251536580E0,-3.400500119E-1,8.914950371E0,-2.205000073E-2,8.921460661E0
2.253497489E0,-4.930500090E-1,8.838000298E0,5.295000225E-2,8.851900998E0
2.255458426E0,-5.320500135E-1,8.838000298E0,9.195000678E-2,8.854478035E0
2.257419356E0,-5.320500135E-1,8.914950371E0,-2.205000073E-2,8.930840024E0
2.259380281E0,-4.930500090E-1,8.914950371E0,-1.369500011E-1,8.929624501E0
2.261341204E0,-4.930500090E-1,8.877000809E0,-1.369500011E-1,8.891737568E0
2.263302127E0,-5.320500135E-1,8.953050613E0,-9.900000691E-2,8.969392037E0
2.265262869E0,-5.700000525E-1,9.067950249E0,-6.105000153E-2,9.086052436E0
2.267223665E0,-4.930500090E-1,9.067950249E0,-9.900000691E-2,9.081884222E0
2.269184809E0,-4.930500090E-1,9.067950249E0,-6.105000153E-2,9.081549820E0
2.271145837E0,-6.079500318E-1,9.030000687E0,-1.759500057E-1,9.052153006E0
2.273107058E0,-6.469500065E-1,9.030000687E0,-1.759500057E-1,9.054855886E0
2.275068222E0,-6.079500318E-1,8.991000175E0,-3.289500177E-1,9.017532673E0
2.277029285E0,-6.079500318E-1,8.914950371E0,-2.910000086E-1,8.940392853E0
2.278990378E0,-6.850500107E-1,8.914950371E0,-2.910000086E-1,8.945966389E0
2.280951131E0,-7.230000496E-1,8.877000809E0,-2.520000041E-1,8.909959396E0
2.282911988E0,-7.620000243E-1,8.838000298E0,-2.140500098E-1,8.873370876E0
2.284873102E0,-7.999500632E-1,8.800050735E0,-1.759500057E-1,8.838086414E0
2.286834140E0,-7.999500632E-1,8.761950493E0,-2.140500098E-1,8.800995055E0
2.288794684E0,-7.999500632E-1,8.761950493E0,-1.369500011E-1,8.799457475E0
2.290755373E0,-9.150000215E-1,8.761950493E0,-3.670500219E-1,8.817240339E0
2.292716290E0,-9.529500604E-1,8.722949982E0,-2.140500098E-1,8.777459063E0
2.294677140E0,-9.150000215E-1,8.685000420E0,1.500000060E-2,8.733079773E0
2.296637716E0,-1.030050039E0,8.608050346E0,1.300500035E-1,8.670435217E0
2.298598373E0,-1.222050071E0,8.647050858E0,1.300500035E-1,8.733945724E0
2.300558981E0,-1.183050036E0,8.722949982E0,1.680000126E-1,8.804412972E0
2.302519604E0,-1.183050036E0,8.761950493E0,1.500000060E-2,8.841470965E0
2.304480411E0,-1.106999993E0,8.800050735E0,-6.105000153E-2,8.869614932E0
2.306441154E0,-1.068000078E0,8.838000298E0,-1.369500011E-1,8.903349298E0
2.308401928E0,-1.106999993E0,8.877000809E0,-1.369500011E-1,8.946806561E0
2.310362693E0,-1.144950032E0,8.877000809E0,-6.105000153E-2,8.950741927E0
2.312323508E0,-1.183050036E0,8.953050613E0,-9.900000691E-2,9.031418697E0
2.314284308E0,-1.106999993E0,8.953050613E0,-1.759500057E-1,9.022944235E0
2.316245221E0,-1.183050036E0,8.991000175E0,-1.759500057E-1,9.070206720E0
2.318206091E0,-1.144950032E0,9.030000687E0,-1.369500011E-1,9.103327868E0
2.320166844E0,-1.183050036E0,9.067950249E0,-2.140500098E-1,9.147302690E0
2.322127632E0,-1.260000110E0,9.067950249E0,-2.140500098E-1,9.157572790E0
2.324088217E0,-1.183050036E0,9.106050491E0,-1.759500057E-1,9.184264878E0
2.326048862E0,-1.297950029E0,9.106050491E0,-2.140500098E-1,9.200578636E0
2.328009877E0,-1.528050065E0,9.106050491E0,-1.759500057E-1,9.235044719E0
2.329970784E0,-1.413000107E0,9.183000565E0,-9.900000691E-2,9.291602105E0
2.331931530E0,-1.297950029E0,9.183000565E0,-1.759500057E-1,9.275943728E0
2.333892324E0,-1.222050071E0,9.259950638E0,-1.759500057E-1,9.341897591E0
2.335853268E0,-1.183050036E0,9.259950638E0,-1.369500011E-1,9.336222390E0
2.337814168E0,-1.106999993E0,9.220950127E0,-1.369500011E-1,9.288171269E0
2.339774907E0,-1.106999993E0,9.336000443E0,-6.105000153E-2,9.401599882E0
2.341735700E0,-1.106999993E0,9.336000443E0,5.295000225E-2,9.401550774E0
2.343696465E0,-1.068000078E0,9.375000000E0,1.300500035E-1,9.436533377E0
2.345657238E0,-9.919500351E-1,9.412950516E0,2.070000172E-1,9.467336019E0
2.347617601E0,-9.529500604E-1,9.412950516E0,2.449500114E-1,9.464235402E0
2.349578084E0,-8.770500422E-1,9.375000000E0,2.830500007E-1,9.420188909E0
2.351538371E0,-7.230000496E-1,9.336000443E0,3.979500234E-1,9.372406177E0
2.353498709E0,-6.850500107E-1,9.298050880E0,4.360500276E-1,9.333444344E0
2.355460092E0,-6.469500065E-1,9.220950127E0,4.360500276E-1,9.253896756E0
2.357421168E0,-4.930500090E-1,9.183000565E0,3.220500052E-1,9.201864696E0
2.359381390E0,-5.700000525E-1,9.145050049E0,4.360500276E-1,9.173166306E0
2.361341863E0,-5.320500135E-1,9.145050049E0,4.750500321E-1,9.172823455E0
2.363302666E0,-4.170000255E-1,9.067950249E0,5.899500251E-1,9.096683559E0
2.365263351E0,-4.170000255E-1,9.067950249E0,6.660000086E-1,9.101932034E0
2.367224315E0,-3.780000210E-1,9.030000687E0,6.660000086E-1,9.062414271E0
2.369185197E0,-3.400500119E-1,9.030000687E0,6.660000086E-1,9.060910684E0
2.371145993E0,-4.170000255E-1,8.991000175E0,7.050000429E-1,9.028233395E0
2.373106815E0,-5.700000525E-1,8.914950371E0,7.810500264E-1,8.967233649E0
2.375067754E0,-5.320500135E-1,9.030000687E0,8.200500607E-1,9.082756835E0
2.377028659E0,-3.780000210E-1,9.030000687E0,8.580000401E-1,9.078543963E0
2.378989585E0,-3.400500119E-1,9.030000687E0,8.959500194E-1,9.080708830E0
2.380950505E0,-3.780000210E-1,9.030000687E0,9.349500537E-1,9.086139335E0
2.382911069E0,-3.019500077E-1,9.106050491E0,8.959500194E-1,9.155001682E0
2.384871738E0,-3.019500077E-1,9.106050491E0,1.011000037E0,9.166976079E0
2.386832609E0,-3.780000210E-1,9.106050491E0,9.730500579E-1,9.165689608E0
2.388793456E0,-3.400500119E-1,9.220950127E0,1.087950110E0,9.291135059E0
2.390754392E0,-3.400500119E-1,9.298050880E0,1.126049995E0,9.372159451E0
2.392715302E0,-3.780000210E-1,9.375000000E0,1.165050030E0,9.454673479E0
2.394676227E0,-3.400500119E-1,9.451050758E0,1.203000069E0,9.533373150E0
2.396637148E0,-3.780000210E-1,9.528000832E0,1.203000069E0,9.611081782E0
2.398598127E0,-4.170000255E-1,9.604950905E0,1.011000037E0,9.667010499E0
2.400559081E0,-4.930500090E-1,9.681000710E0,1.050000072E0,9.750249904E0
2.402520000E0,-4.549500346E-1,9.796050072E0,1.087950110E0,9.866773129E0
2.404480930E0,-4.549500346E-1,9.873000145E0,1.050000072E0,9.939095107E0
2.406441671E0,-3.780000210E-1,9.949950218E0,1.011000037E0,1.000832226E1
2.408402468E0,-4.549500346E-1,1.002600002E1,1.011000037E0,1.008710945E1
2.410363366E0,-4.930500090E-1,1.010295010E1,9.730500579E-1,1.016166942E1
2.412324235E0,-5.320500135E-1,1.025595093E1,1.050000072E0,1.032327985E1
2.414284853E0,-6.079500318E-1,1.037100029E1,1.087950110E0,1.044561562E1
2.416245545E0,-6.079500318E-1,1.041000080E1,1.087950110E0,1.048433858E1
2.418206507E0,-6.079500318E-1,1.052505016E1,1.087950110E0,1.059858102E1
2.420167389E0,-6.079500318E-1,1.056300068E1,1.050000072E0,1.063245441E1
2.422128066E0,-6.079500318E-1,1.071600056E1,1.050000072E0,1.078446899E1
2.424088824E0,-6.469500065E-1,1.079295063E1,1.087950110E0,1.086692059E1
2.426049639E0,-6.469500065E-1,1.083105087E1,1.126049995E0,1.090862942E1
2.428010437E0,-6.850500107E-1,1.087005043E1,1.050000072E0,1.094211086E1
2.429971158E0,-6.850500107E-1,1.094595051E1,1.050000072E0,1.101751452E1
2.431931901E0,-7.230000496E-1,1.098495007E1,1.011000037E0,1.105504311E1
2.433892653E0,-9.150000215E-1,1.094595051E1,1.050000072E0,1.103419946E1
2.435853417E0,-9.919500351E-1,1.110000038E1,1.050000072E0,1.119359073E1
2.437813828E0,-9.919500351E-1,1.102305031E1,8.959500194E-1,1.110379797E1
2.439774342E0,-9.150000215E-1,1.102305031E1,7.429500222E-1,1.108588462E1
2.441735334E0,-9.150000215E-1,1.117605019E1,8.959500194E-1,1.124917994E1
2.443696186E0,-8.770500422E-1,1.117605019E1,9.349500537E-1,1.124933092E1
2.445656933E0,-8.770500422E-1,1.121400070E1,8.959500194E-1,1.128387145E1
2.447617718E0,-8.770500422E-1,1.121400070E1,9.730500579E-1,1.129025487E1
2.449578349E0,-9.529500604E-1,1.125300026E1,9.730500579E-1,1.133512043E1
2.451539026E0,-9.529500604E-1,1.129095078E1,8.580000401E-1,1.136353146E1
2.453499765E0,-9.919500351E-1,1.125300026E1,9.349500537E-1,1.133525965E1
2.455460485E0,-9.919500351E-1,1.132905006E1,9.349500537E-1,1.141076123E1
2.457421248E0,-9.529500604E-1,1.125300026E1,9.730500579E-1,1.133512043E1
2.459382009E0,-9.919500351E-1,1.132905006E1,9.349500537E-1,1.141076123E1
2.461342645E0,-9.529500604E-1,1.132905006E1,8.959500194E-1,1.140430689E1
2.463303318E0,-9.150000215E-1,1.129095078E1,8.959500194E-1,1.136334110E1
2.465264103E0,-9.150000215E-1,1.129095078E1,7.810500264E-1,1.135485947E1
2.467224855E0,-8.380500674E-1,1.132905006E1,7.429500222E-1,1.138427328E1
2.469185603E0,-7.999500632E-1,1.129095078E1,7.810500264E-1,1.134616802E1
2.471146338E0,-7.620000243E-1,1.136805058E1,7.050000429E-1,1.141535120E1
2.473106978E0,-6.469500065E-1,1.129095078E1,7.050000429E-1,1.133142263E1
2.475067646E0,-5.700000525E-1,1.129095078E1,7.050000429E-1,1.132728981E1
2.477028567E0,-6.469500065E-1,1.132905006E1,4.360500276E-1,1.135588215E1
2.478989413E0,-5.320500135E-1,1.132905006E1,4.750500321E-1,1.135148119E1
2.480949990E0,-4.170000255E-1,1.125300026E1,6.280500293E-1,1.127822463E1
2.482910646E0,-3.019500077E-1,1.125300026E1,6.660000086E-1,1.127673466E1
2.484871478E0,-1.870500147E-1,1.121400070E1,7.810500264E-1,1.124272381E1
2.486832259E0,-1.480500102E-1,1.121400070E1,7.429500222E-1,1.123955983E1
2.488792802E0,-3.299999982E-2,1.121400070E1,7.050000429E-1,1.123618822E1
2.490753415E0,8.100000024E-2,1.121400070E1,8.959500194E-1,1.125002663E1
2.492713891E0,1.189500093E-1,1.121400070E1,9.730500579E-1,1.125676629E1
2.494674410E0,1.960500032E-1,1.117605019E1,9.730500579E-1,1.122004277E1
2.496635176E0,2.719500065E-1,1.113795090E1,9.730500579E-1,1.118368157E1
2.498595870E0,2.719500065E-1,1.110000038E1,8.580000401E-1,1.113643252E1
2.500556518E0,2.340000123E-1,1.113795090E1,6.660000086E-1,1.116029848E1
2.502517180E0,3.490500152E-1,1.113795090E1,8.959500194E-1,1.117937890E1
2.504477906E0,3.870000243E-1,1.113795090E1,1.011000037E0,1.119043521E1
2.506438624E0,3.870000243E-1,1.113795090E1,1.011000037E0,1.119043521E1
2.508399402E0,4.260000288E-1,1.113795090E1,9.349500537E-1,1.118523839E1
2.510360163E0,3.870000243E-1,1.110000038E1,8.200500607E-1,1.113697713E1
2.512320933E0,3.490500152E-1,1.110000038E1,7.429500222E-1,1.113031083E1
2.514281701E0,3.490500152E-1,1.113795090E1,7.810500264E-1,1.117075759E1
2.516242465E0,2.719500065E-1,1.117605019E1,8.580000401E-1,1.121223522E1
2.518203234E0,2.719500065E-1,1.121400070E1,9.730500579E-1,1.125942250E1
2.520164004E0,3.109500110E-1,1.121400070E1,1.203000069E0,1.128262872E1
2.522124773E0,3.490500152E-1,1.121400070E1,1.203000069E0,1.128374303E1
2.524085542E0,2.719500065E-1,1.125300026E1,1.165050030E0,1.131641786E1
2.526046311E0,1.570500135E-1,1.125300026E1,1.279950023E0,1.132664785E1
2.528006911E0,1.189500093E-1,1.125300026E1,1.395000100E0,1.133976143E1
2.529967554E0,1.189500093E-1,1.121400070E1,1.395000100E0,1.130106128E1
2.531928389E0,4.050000105E-3,1.125300026E1,1.356000066E0,1.133440635E1
2.533889168E0,-1.099500060E-1,1.121400070E1,1.203000069E0,1.127887893E1
2.535850071E0,-1.870500147E-1,1.121400070E1,1.050000072E0,1.126460384E1
2.537810937E0,-2.250000089E-1,1.125300026E1,9.730500579E-1,1.129723268E1
2.539772064E0,-2.629500031E-1,1.113795090E1,9.730500579E-1,1.118346634E1
2.541733105E0,-3.019500077E-1,1.113795090E1,9.730500579E-1,1.118445128E1
2.543693648E0,-3.780000210E-1,1.110000038E1,1.011000037E0,1.115235462E1
2.545654337E0,-3.780000210E-1,1.106100082E1,1.087950110E0,1.112080297E1
2.547615300E0,-3.780000210E-1,1.094595051E1,1.432950020E0,1.104581651E1
2.549576182E0,-4.930500090E-1,1.067805004E1,1.777950048E0,1.083627968E1
2.551537138E0,-8.380500674E-1,1.060095024E1,1.969950080E0,1.081495156E1
2.553498086E0,-1.068000078E0,1.060095024E1,1.893000126E0,1.082147031E1
2.555458961E0,-1.068000078E0,1.060095024E1,1.663050056E0,1.078362210E1
2.557419857E0,-9.919500351E-1,1.056300068E1,1.548000097E0,1.072181200E1
2.559380109E0,-9.150000215E-1,1.052505016E1,1.624950051E0,1.068898352E1
2.561340549E0,-8.380500674E-1,1.048605061E1,1.701000094E0,1.065612437E1
2.563301374E0,-7.230000496E-1,1.048605061E1,1.893000126E0,1.068004849E1
2.565262086E0,-7.230000496E-1,1.041000080E1,1.893000126E0,1.060538991E1
2.567222641E0,-6.850500107E-1,1.041000080E1,2.008050203E0,1.062401411E1
2.569183242E0,-6.469500065E-1,1.025595093E1,2.200050116E0,1.050920046E1
2.571143903E0,-6.079500318E-1,1.025595093E1,2.238000154E0,1.051488361E1
2.573104547E0,-5.320500135E-1,1.021800041E1,2.659050226E0,1.057171499E1
2.575065353E0,-6.469500065E-1,1.014105034E1,2.965950251E0,1.058566517E1
2.577026101E0,-6.469500065E-1,1.006500053E1,3.196050167E0,1.058005278E1
2.578986695E0,-7.230000496E-1,9.988050461E0,3.118950129E0,1.048864772E1
2.580947334E0,-6.469500065E-1,9.873000145E0,3.196050167E0,1.039756764E1
2.582908079E0,-6.079500318E-1,9.835050583E0,3.118950129E0,1.033565059E1
2.584868793E0,-4.930500090E-1,9.757950783E0,3.043050051E0,1.023332084E1
2.586829378E0,-3.400500119E-1,9.643050194E0,3.118950129E0,1.014060654E1
2.588790011E0,-3.780000210E-1,9.528000832E0,3.157950163E0,1.004481623E1
2.590750623E0,-2.629500031E-1,9.490050316E0,3.349050045E0,1.006709163E1
2.592711242E0,-2.250000089E-1,9.451050758E0,3.502950191E0,1.008184733E1
2.594672036E0,-7.200000435E-2,9.412950516E0,3.655950069E0,1.009825690E1
2.596632778E0,-3.299999982E-2,9.375000000E0,3.655950069E0,1.006268776E1
2.598593552E0,8.100000024E-2,9.298050880E0,3.694050074E0,1.000531444E1
2.600554317E0,2.340000123E-1,9.298050880E0,3.541050196E0,9.952263193E0
2.602516168E0,4.639500082E-1,9.259950638E0,3.463950157E0,9.897519190E0
2.604477701E0,7.320000529E-1,9.220950127E0,3.579000235E0,9.918214960E0
2.606438386E0,1.000050068E0,9.220950127E0,3.655950069E0,9.969553264E0
2.608399319E0,1.230000019E0,9.145050049E0,3.733050108E0,9.953919005E0
2.610360044E0,1.345050097E0,9.106050491E0,3.847950220E0,9.976774840E0
2.612320809E0,1.459950089E0,9.106050491E0,3.847950220E0,9.992914025E0
2.614281444E0,1.575000048E0,9.067950249E0,3.733050108E0,9.931969088E0
2.616242117E0,1.767000079E0,9.030000687E0,3.886050224E0,9.988222466E0
2.618203217E0,2.035050154E0,8.953050613E0,3.924000263E0,9.984804579E0
2.620164192E0,2.265000105E0,8.914950371E0,3.963000298E0,1.001558470E1
2.622125121E0,2.419050217E0,8.877000809E0,3.886050224E0,9.987709129E0
2.624086054E0,2.610000134E0,8.761950493E0,3.808950186E0,9.904139471E0
2.626046660E0,2.725050211E0,8.608050346E0,3.733050108E0,9.770368086E0
2.628007362E0,2.955000162E0,8.608050346E0,3.694050074E0,9.822248351E0
2.629968277E0,3.147000074E0,8.493000031E0,3.618000269E0,9.753183323E0
2.631929129E0,3.184950113E0,8.416950226E0,3.426000118E0,9.629456638E0
2.633889914E0,3.376950264E0,8.377950668E0,3.273000240E0,9.607620989E0
2.635850698E0,3.607050180E0,8.224950790E0,3.118950129E0,9.507285439E0
2.637811644E0,3.721950293E0,8.187000275E0,2.965950251E0,9.469780798E0
2.639772543E0,3.760050297E0,8.032950401E0,2.773950100E0,9.293065670E0
2.641733336E0,3.721950293E0,7.957050323E0,2.620950222E0,9.167166623E0
2.643694160E0,3.645000219E0,7.458000183E0,1.548000097E0,8.444175367E0
2.645655263E0,3.874950171E0,7.687950134E0,1.740000129E0,8.783360208E0
2.647616264E0,4.143000126E0,7.650000572E0,2.314950228E0,9.002552602E0
2.649576994E0,4.105050087E0,7.726950169E0,2.353049994E0,9.060576107E0
2.651537804E0,4.182000160E0,7.765050411E0,2.391000032E0,9.137943663E0
2.653498790E0,4.219950199E0,7.803000450E0,2.467950106E0,9.207908201E0
2.655459725E0,4.258049965E0,7.842000484E0,2.275950193E0,9.209121043E0
2.657420622E0,4.219950199E0,7.957050323E0,2.122950077E0,9.253623429E0
2.659381516E0,4.219950199E0,8.110050201E0,1.893000126E0,9.336184629E0
2.661342128E0,4.182000160E0,8.187000275E0,1.740000129E0,9.356479000E0
2.663302823E0,4.182000160E0,8.224950790E0,1.624950051E0,9.369066310E0
2.665263425E0,4.143000126E0,8.302050591E0,1.510050058E0,9.400465160E0
2.667224054E0,4.143000126E0,8.377950668E0,1.471050024E0,9.461421437E0
2.669184502E0,4.027950287E0,8.455050468E0,1.471050024E0,9.480308545E0
2.671144992E0,3.913050175E0,8.608050346E0,1.318050027E0,9.547132989E0
2.673105763E0,3.837000132E0,8.647050858E0,1.203000069E0,9.536313109E0
2.675066452E0,3.682950258E0,8.838000298E0,1.165050030E0,9.645294886E0
2.677027280E0,3.529950142E0,8.953050613E0,1.165050030E0,9.694070603E0
2.678988067E0,3.453000069E0,9.106050491E0,1.165050030E0,9.808195889E0
2.680948839E0,3.262050152E0,9.298050880E0,1.126049995E0,9.917797637E0
2.682909612E0,3.147000074E0,9.451050758E0,1.240950108E0,1.003822330E1
2.684870560E0,2.992950201E0,9.643050194E0,1.240950108E0,1.017281304E1
2.686831456E0,2.802000046E0,9.796050072E0,1.356000066E0,1.027874202E1
2.688792204E0,2.686950207E0,9.988050461E0,1.395000100E0,1.043680405E1
2.690752996E0,2.533950090E0,1.014105034E1,1.395000100E0,1.054551233E1
2.692713731E0,2.341950178E0,1.037100029E1,1.432950020E0,1.072826749E1
2.694674473E0,2.188950062E0,1.056300068E1,1.432950020E0,1.088217954E1
2.696635426E0,1.920000076E0,1.079295063E1,1.432950020E0,1.105565599E1
2.698596317E0,1.729050040E0,1.094595051E1,1.395000100E0,1.116913031E1
2.700557246E0,1.537050128E0,1.113795090E1,1.395000100E0,1.132971750E1
2.702518163E0,1.306950092E0,1.132905006E1,1.356000066E0,1.148452133E1
2.704479141E0,1.269000053E0,1.155900097E1,1.318050027E0,1.170291077E1
2.706440095E0,1.039050102E0,1.163595009E1,1.126049995E0,1.173639417E1
2.708400113E0,8.089500666E-1,1.178895092E1,1.050000072E0,1.186323161E1
2.710360405E0,5.020500422E-1,1.194300079E1,8.959500194E-1,1.198707840E1
2.712321255E0,3.109500110E-1,1.198095036E1,7.429500222E-1,1.200799051E1
2.714281941E0,1.960500032E-1,1.205805016E1,6.660000086E-1,1.207801992E1
2.716243276E0,8.100000024E-2,1.213395023E1,6.660000086E-1,1.215248391E1
2.718204413E0,-2.250000089E-1,1.205805016E1,5.899500251E-1,1.207456995E1
2.720165840E0,-2.629500031E-1,1.205805016E1,4.750500321E-1,1.207026880E1
2.722127182E0,-4.170000255E-1,1.205805016E1,6.280500293E-1,1.208159383E1
2.724088395E0,-6.079500318E-1,1.201905060E1,8.200500607E-1,1.206232410E1
2.726049646E0,-7.230000496E-1,1.201905060E1,8.959500194E-1,1.207406447E1
2.728010828E0,-9.919500351E-1,1.201905060E1,1.011000037E0,1.210221729E1
2.729972030E0,-1.030050039E0,1.201905060E1,8.959500194E-1,1.209633444E1
2.731932950E0,-1.144950032E0,1.194300079E1,6.660000086E-1,1.201622797E1
2.733893953E0,-1.297950029E0,1.190400028E1,4.360500276E-1,1.198248875E1
2.735855763E0,-1.375050068E0,1.186605072E1,2.830500007E-1,1.194880913E1
2.737817336E0,-1.489950061E0,1.178895092E1,1.300500035E-1,1.188344344E1
2.739778654E0,-1.528050065E0,1.175100040E1,1.300500035E-1,1.185064810E1
2.741740040E0,-1.567050099E0,1.159800053E1,5.295000225E-2,1.170350657E1
2.743701064E0,-1.567050099E0,1.152105045E1,1.500000060E-2,1.162714387E1
2.745662194E0,-1.642950058E0,1.117605019E1,-2.140500098E-1,1.129819455E1
2.747622947E0,-1.489950061E0,1.060095024E1,-1.057050109E0,1.075720466E1
2.749583810E0,-1.413000107E0,1.079295063E1,-2.140500098E-1,1.088715619E1
2.751544701E0,-1.720050097E0,1.079295063E1,1.680000126E-1,1.093044279E1
2.753505581E0,-1.873050094E0,1.079295063E1,2.070000172E-1,1.095622877E1
2.755466377E0,-1.873050094E0,1.075500011E1,1.300500035E-1,1.091765804E1
2.757427198E0,-1.758000135E0,1.083105087E1,9.195000678E-2,1.097318014E1
2.759388273E0,-1.758000135E0,1.079295063E1,9.195000678E-2,1.093557509E1
2.761349273E0,-1.758000135E0,1.079295063E1,-2.205000073E-2,1.093521074E1
2.763310199E0,-1.758000135E0,1.079295063E1,-1.369500011E-1,1.093604604E1
2.765271136E0,-1.758000135E0,1.079295063E1,-2.140500098E-1,1.093728326E1
2.767232057E0,-1.605000019E0,1.075500011E1,-1.369500011E-1,1.087496243E1
2.769192983E0,-1.452000022E0,1.075500011E1,-1.369500011E-1,1.085343664E1
2.771153725E0,-1.375050068E0,1.079295063E1,1.500000060E-2,1.088020087E1
2.773114521E0,-1.375050068E0,1.079295063E1,-2.205000073E-2,1.088021287E1
2.775075329E0,-1.413000107E0,1.075500011E1,-1.369500011E-1,1.084828798E1
2.777036134E0,-1.297950029E0,1.083105087E1,-9.900000691E-2,1.090899346E1
2.778997213E0,-1.222050071E0,1.083105087E1,1.300500035E-1,1.090054964E1
2.780958211E0,-1.222050071E0,1.079295063E1,-2.205000073E-2,1.086193702E1
2.782919123E0,-1.106999993E0,1.075500011E1,-2.910000086E-1,1.081573657E1
2.784880060E0,-9.150000215E-1,1.075500011E1,-1.369500011E-1,1.079472129E1
2.786840995E0,-8.770500422E-1,1.075500011E1,-6.105000153E-2,1.079087445E1
2.788801920E0,-8.380500674E-1,1.063995075E1,-2.140500098E-1,1.067505023E1
2.790762843E0,-7.230000496E-1,1.063995075E1,-1.759500057E-1,1.066593828E1
2.792723766E0,-7.230000496E-1,1.067805004E1,1.500000060E-2,1.070250937E1
2.794684554E0,-7.230000496E-1,1.075500011E1,1.300500035E-1,1.078005888E1
2.796645381E0,-6.469500065E-1,1.067805004E1,1.500000060E-2,1.069764095E1
2.798606426E0,-4.930500090E-1,1.056300068E1,-1.759500057E-1,1.057596521E1
2.800567427E0,-4.170000255E-1,1.041000080E1,-2.520000041E-1,1.042139673E1
2.802528158E0,-3.019500077E-1,1.029495049E1,-4.060500264E-1,1.030737871E1
2.804488968E0,-1.870500147E-1,1.018005085E1,-4.440000355E-1,1.019144539E1
2.806449549E0,-1.099500060E-1,1.010295010E1,-3.670500219E-1,1.011021342E1
2.808410198E0,-3.299999982E-2,9.949950218E0,-3.289500177E-1,9.955441048E0
2.810371168E0,-3.299999982E-2,9.910950661E0,-2.910000086E-1,9.915276749E0
2.812332043E0,-3.299999982E-2,9.835050583E0,-3.670500219E-1,9.841952788E0
2.814292795E0,4.200000316E-2,9.757950783E0,-4.440000355E-1,9.768137157E0
2.816253583E0,8.100000024E-2,9.604950905E0,-5.209500194E-1,9.619409119E0
2.818214708E0,8.100000024E-2,9.375000000E0,-5.970000029E-1,9.394338455E0
2.820175735E0,1.189500093E-1,9.259950638E0,-5.970000029E-1,9.279937711E0
2.822136837E0,2.340000123E-1,9.030000687E0,-7.890000343E-1,9.067424632E0
2.824097937E0,2.719500065E-1,8.340000153E0,-1.326000094E0,8.449132240E0
2.826058786E0,5.410500169E-1,8.532000542E0,-8.659500480E-1,8.592882977E0
2.828019708E0,3.870000243E-1,8.685000420E0,2.070000172E-1,8.696082469E0
2.829980630E0,1.570500135E-1,8.838000298E0,3.979500234E-1,8.848348896E0
2.831941552E0,4.200000316E-2,8.800050735E0,1.300500035E-1,8.801111859E0
2.833902627E0,4.200000316E-2,8.722949982E0,-1.369500011E-1,8.724126070E0
2.835863677E0,4.200000316E-2,8.569950104E0,-4.819500148E-1,8.583593921E0
2.837824444E0,8.100000024E-2,8.493000031E0,-5.970000029E-1,8.514341990E0
2.839785294E0,8.100000024E-2,8.377950668E0,-8.269500136E-1,8.419053672E0
2.841746409E0,8.100000024E-2,8.302050591E0,-8.659500480E-1,8.347483123E0
2.843707446E0,8.100000024E-2,8.263050079E0,-7.120500207E-1,8.294068534E0
2.845668332E0,1.189500093E-1,8.187000275E0,-7.120500207E-1,8.218767416E0
2.847629275E0,1.189500093E-1,8.110050201E0,-7.120500207E-1,8.142117575E0
2.849590015E0,8.100000024E-2,8.071949959E0,-7.510500550E-1,8.107219827E0
2.851550814E0,8.100000024E-2,8.032950401E0,-7.510500550E-1,8.068390753E0
2.853511712E0,8.100000024E-2,8.071949959E0,-7.890000343E-1,8.110823521E0
2.855472581E0,4.200000316E-2,8.032950401E0,-7.890000343E-1,8.071714638E0
2.857433680E0,4.050000105E-3,8.032950401E0,-8.659500480E-1,8.079491199E0
2.859394721E0,-1.099500060E-1,8.032950401E0,-8.659500480E-1,8.080238279E0
2.861355444E0,-7.200000435E-2,8.032950401E0,-9.420000315E-1,8.088315041E0
2.863316261E0,-1.099500060E-1,8.032950401E0,-9.040500522E-1,8.084410161E0
2.865277246E0,-1.870500147E-1,8.071949959E0,-8.659500480E-1,8.120420761E0
2.867238182E0,-2.250000089E-1,8.071949959E0,-9.040500522E-1,8.125534299E0
2.869199283E0,-3.019500077E-1,8.071949959E0,-8.659500480E-1,8.123879580E0
2.871160336E0,-3.019500077E-1,7.995000362E0,-9.810000658E-1,8.060618198E0
2.873121013E0,-2.629500031E-1,7.918050289E0,-9.810000658E-1,7.982920782E0
2.875081800E0,-3.400500119E-1,7.957050323E0,-9.810000658E-1,8.024502788E0
2.877042566E0,-3.780000210E-1,7.995000362E0,-9.810000658E-1,8.063825143E0
2.879003338E0,-3.780000210E-1,7.879950523E0,-9.810000658E-1,7.949771405E0
2.880964281E0,-5.700000525E-1,7.918050289E0,-1.057050109E0,8.008606332E0
2.882925178E0,-6.079500318E-1,7.918050289E0,-1.096050024E0,8.016635783E0
2.884886285E0,-5.700000525E-1,7.918050289E0,-1.171950102E0,8.024580206E0
2.886847331E0,-6.469500065E-1,7.918050289E0,-1.096050024E0,8.019687671E0
2.888808235E0,-7.230000496E-1,7.918050289E0,-1.134000063E0,8.031451027E0
2.890769180E0,-7.620000243E-1,7.918050289E0,-1.096050024E0,8.029787673E0
2.892730094E0,-7.999500632E-1,7.918050289E0,-1.057050109E0,8.028249835E0
2.894691021E0,-7.999500632E-1,7.879950523E0,-1.057050109E0,7.990675521E0
2.896651987E0,-9.529500604E-1,7.842000484E0,-1.057050109E0,7.970096634E0
2.898612942E0,-9.150000215E-1,7.879950523E0,-1.096050024E0,8.008256424E0
2.900573995E0,-9.150000215E-1,7.842000484E0,-1.096050024E0,7.970917281E0
2.902535019E0,-9.150000215E-1,7.879950523E0,-1.134000063E0,8.013538634E0
2.904495921E0,-9.529500604E-1,7.879950523E0,-1.171950102E0,8.023415801E0
2.906456862E0,-1.068000078E0,7.842000484E0,-1.210950017E0,8.006497094E0
2.908417826E0,-1.030050039E0,7.803000450E0,-1.134000063E0,7.951966754E0
2.910378783E0,-1.068000078E0,7.726950169E0,-1.134000063E0,7.882406943E0
2.912340061E0,-1.106999993E0,7.765050411E0,-1.057050109E0,7.914468511E0
2.914301245E0,-1.030050039E0,7.726950169E0,-1.134000063E0,7.877354768E0
2.916262254E0,-1.030050039E0,7.650000572E0,-1.210950017E0,7.813444297E0
2.918223318E0,-1.030050039E0,7.612050533E0,-1.171950102E0,7.770314244E0
2.920184082E0,-1.030050039E0,7.573050499E0,-1.171950102E0,7.732112518E0
2.922144934E0,-9.919500351E-1,7.534950256E0,-1.249050021E0,7.701919643E0
2.924105823E0,-9.919500351E-1,7.534950256E0,-1.249050021E0,7.701919643E0
2.926066701E0,-9.919500351E-1,7.458000183E0,-1.171950102E0,7.614407308E0
2.928027832E0,-9.919500351E-1,7.458000183E0,-1.210950017E0,7.620507302E0
2.929988875E0,-9.919500351E-1,7.381950378E0,-1.171950102E0,7.539935232E0
2.931949643E0,-9.150000215E-1,7.228050232E0,-1.210950017E0,7.385684473E0
2.933910492E0,-8.770500422E-1,7.267050266E0,-1.210950017E0,7.419274647E0
2.935871382E0,-8.380500674E-1,7.189950466E0,-1.171950102E0,7.332883653E0
2.937832260E0,-7.999500632E-1,7.189950466E0,-1.210950017E0,7.334964741E0
2.939793046E0,-7.230000496E-1,7.267050266E0,-1.210950017E0,7.402644702E0
2.941753867E0,-6.850500107E-1,7.267050266E0,-1.171950102E0,7.392751865E0
2.943714806E0,-5.700000525E-1,7.305000305E0,-1.096050024E0,7.408728310E0
2.945675711E0,-6.469500065E-1,7.420050144E0,-1.018950105E0,7.517575924E0
2.947636637E0,-5.700000525E-1,7.458000183E0,-1.171950102E0,7.571006131E0
2.949597557E0,-5.320500135E-1,7.497000217E0,-1.210950017E0,7.612784604E0
2.951558427E0,-6.079500318E-1,7.573050499E0,-1.171950102E0,7.687272868E0
2.953519319E0,-6.079500318E-1,7.650000572E0,-1.134000063E0,7.757452426E0
2.955480471E0,-5.700000525E-1,7.765050411E0,-9.810000658E-1,7.847500817E0
2.957441547E0,-6.079500318E-1,7.803000450E0,-9.810000658E-1,7.887888209E0
2.959402624E0,-6.079500318E-1,7.842000484E0,-1.018950105E0,7.931256783E0
2.961363701E0,-5.700000525E-1,7.879950523E0,-1.057050109E0,7.970939420E0
2.963324619E0,-5.700000525E-1,7.957050323E0,-9.810000658E-1,8.037531402E0
2.965285569E0,-5.700000525E-1,8.032950401E0,-9.810000658E-1,8.112678555E0
2.967246443E0,-6.079500318E-1,8.032950401E0,-9.420000315E-1,8.110811270E0
2.969207339E0,-5.700000525E-1,8.032950401E0,-8.269500136E-1,8.095494953E0
2.971168266E0,-5.700000525E-1,8.071949959E0,-7.510500550E-1,8.126829171E0
2.973129183E0,-5.320500135E-1,8.148000717E0,-7.120500207E-1,8.196341143E0
2.975089973E0,-5.320500135E-1,8.110050201E0,-8.269500136E-1,8.169445380E0
2.977050800E0,-5.320500135E-1,8.148000717E0,-7.890000343E-1,8.203384299E0
2.979011874E0,-6.079500318E-1,8.187000275E0,-7.890000343E-1,8.247369144E0
2.980972875E0,-6.079500318E-1,8.187000275E0,-8.269500136E-1,8.251086175E0
2.982933606E0,-6.079500318E-1,8.187000275E0,-8.659500480E-1,8.255086082E0
2.984894416E0,-6.850500107E-1,8.148000717E0,-8.269500136E-1,8.218458221E0
2.986855371E0,-6.469500065E-1,8.224950790E0,-9.040500522E-1,8.299738930E0
2.988816274E0,-7.230000496E-1,8.263050079E0,-9.420000315E-1,8.347939251E0
2.990777246E0,-6.850500107E-1,8.263050079E0,-1.096050024E0,8.363528907E0
2.992738197E0,-7.230000496E-1,8.263050079E0,-1.171950102E0,8.377003804E0
2.994698936E0,-7.230000496E-1,8.263050079E0,-1.249050021E0,8.388137555E0
2.996659737E0,-7.620000243E-1,8.302050591E0,-1.287000060E0,8.435701346E0
2.998620427E0,-7.620000243E-1,8.302050591E0,-1.402050018E0,8.454018707E0
3.000581170E0,-8.380500674E-1,8.377950668E0,-1.516950130E0,8.555321327E0
3.002541764E0,-8.770500422E-1,8.416950226E0,-1.555950046E0,8.604373796E0
3.004502401E0,-9.150000215E-1,8.455050468E0,-1.632000089E0,8.659591662E0
3.006463056E0,-9.529500604E-1,8.493000031E0,-1.632000089E0,8.700723397E0
3.008423706E0,-9.150000215E-1,8.569950104E0,-1.747050047E0,8.793944148E0
3.010384496E0,-9.529500604E-1,8.608050346E0,-1.824000120E0,8.850628284E0
3.012345245E0,-9.919500351E-1,8.608050346E0,-1.861950040E0,8.862807320E0
3.014305973E0,-1.030050039E0,8.647050858E0,-1.861950040E0,8.905018224E0
3.016266708E0,-1.068000078E0,8.722949982E0,-1.939050078E0,8.999466415E0
3.018227482E0,-1.106999993E0,8.800050735E0,-1.977000117E0,9.087071662E0
3.020188245E0,-1.183050036E0,8.838000298E0,-2.053950071E0,9.150331554E0
3.022149191E0,-1.222050071E0,8.914950371E0,-1.939050078E0,9.204871628E0
3.024110086E0,-1.222050071E0,8.953050613E0,-1.977000117E0,9.249813572E0
3.026071059E0,-1.183050036E0,8.991000175E0,-1.861950040E0,9.257675167E0
3.028032009E0,-1.144950032E0,8.991000175E0,-1.900950074E0,9.260810219E0
3.029993108E0,-1.144950032E0,8.991000175E0,-1.861950040E0,9.252883479E0
3.031954163E0,-1.106999993E0,9.030000687E0,-1.861950040E0,9.286184326E0
3.033915064E0,-1.106999993E0,9.030000687E0,-1.861950040E0,9.286184326E0
3.035876011E0,-1.144950032E0,9.067950249E0,-1.861950040E0,9.327673356E0
3.037837064E0,-1.183050036E0,9.106050491E0,-1.824000120E0,9.361983731E0
3.039798086E0,-1.336950064E0,9.145050049E0,-1.824000120E0,9.420528239E0
3.041759038E0,-1.375050068E0,9.259950638E0,-1.861950040E0,9.544857592E0
3.043720011E0,-1.489950061E0,9.298050880E0,-1.824000120E0,9.591698379E0
3.045681060E0,-1.605000019E0,9.375000000E0,-1.786050081E0,9.677635298E0
3.047642086E0,-1.681950092E0,9.490050316E0,-1.786050081E0,9.802039890E0
3.049602812E0,-1.834950089E0,9.604950905E0,-1.708950043E0,9.926864256E0
3.051563626E0,-1.873050094E0,9.643050194E0,-1.708950043E0,9.970819622E0
3.053524567E0,-1.950000048E0,9.757950783E0,-1.594050050E0,1.007775269E1
3.055485471E0,-2.026050091E0,9.835050583E0,-1.516950130E0,1.015550278E1
3.057446064E0,-2.103000164E0,9.873000145E0,-1.516950130E0,1.020783421E1
3.059406761E0,-2.179949999E0,9.949950218E0,-1.441050053E0,1.028738629E1
3.061367857E0,-2.218050003E0,1.002600002E1,-1.363950014E0,1.035860907E1
3.063328836E0,-2.295000076E0,1.002600002E1,-1.402050018E0,1.038043574E1
3.065289571E0,-2.371050119E0,1.014105034E1,-1.363950014E0,1.050348229E1
3.067250377E0,-2.485950232E0,1.014105034E1,-1.326000094E0,1.052516635E1
3.069211023E0,-2.563050032E0,1.025595093E1,-1.326000094E0,1.065420251E1
3.071171703E0,-2.524950027E0,1.037100029E1,-1.326000094E0,1.075598884E1
3.073132667E0,-2.601000071E0,1.041000080E1,-1.363950014E0,1.081636157E1
3.075093548E0,-2.601000071E0,1.052505016E1,-1.287000060E0,1.091779517E1
3.077054614E0,-2.640000105E0,1.060095024E1,-1.287000060E0,1.100027798E1
3.079015625E0,-2.640000105E0,1.071600056E1,-1.326000094E0,1.111577909E1
3.080976708E0,-2.563050032E0,1.079295063E1,-1.402050018E0,1.118135739E1
3.082937773E0,-2.601000071E0,1.087005043E1,-1.402050018E0,1.126449919E1
3.084898538E0,-2.524950027E0,1.094595051E1,-1.479000092E0,1.133034185E1
3.086859391E0,-2.485950232E0,1.094595051E1,-1.555950046E0,1.133202372E1
3.088820460E0,-2.448000193E0,1.098495007E1,-1.555950046E0,1.136146176E1
3.090781466E0,-2.410050154E0,1.098495007E1,-1.671000123E0,1.136968386E1
3.092742531E0,-2.332950115E0,1.098495007E1,-1.632000089E0,1.134791648E1
3.094703596E0,-2.256000042E0,1.102305031E1,-1.708950043E0,1.138058366E1
3.096664541E0,-2.179949999E0,1.090800095E1,-1.824000120E0,1.127225102E1
3.098625521E0,-2.103000164E0,1.090800095E1,-1.824000120E0,1.125762278E1
3.100586613E0,-2.026050091E0,1.087005043E1,-1.861950040E0,1.121292706E1
3.102547672E0,-1.987950087E0,1.083105087E1,-1.861950040E0,1.116827948E1
3.104508578E0,-1.950000048E0,1.083105087E1,-1.861950040E0,1.116158686E1
3.106469526E0,-1.873050094E0,1.079295063E1,-1.824000120E0,1.110509236E1
3.108430579E0,-1.758000135E0,1.075500011E1,-1.939050078E0,1.106889819E1
3.110391601E0,-1.681950092E0,1.071600056E1,-2.014950037E0,1.103275341E1
3.112352373E0,-1.605000019E0,1.075500011E1,-2.053950071E0,1.106637987E1
3.114313218E0,-1.567050099E0,1.067805004E1,-1.977000117E0,1.097200657E1
3.116273945E0,-1.452000022E0,1.071600056E1,-1.977000117E0,1.099315703E1
3.118234727E0,-1.528050065E0,1.067805004E1,-2.014950037E0,1.097340938E1
3.120195629E0,-1.375050068E0,1.071600056E1,-2.014950037E0,1.099015260E1
3.122156495E0,-1.413000107E0,1.071600056E1,-2.053950071E0,1.100217924E1
3.124117248E0,-1.336950064E0,1.075500011E1,-2.014950037E0,1.102349702E1
3.126078035E0,-1.260000110E0,1.079295063E1,-1.939050078E0,1.103790283E1
3.128038832E0,-1.297950029E0,1.083105087E1,-1.824000120E0,1.105998706E1
3.129999635E0,-1.297950029E0,1.090800095E1,-1.747050047E0,1.112300961E1
3.131960759E0,-1.297950029E0,1.098495007E1,-1.594050050E0,1.117563411E1
3.133921788E0,-1.336950064E0,1.113795090E1,-1.516950130E0,1.132000545E1
3.135883054E0,-1.336950064E0,1.117605019E1,-1.441050053E0,1.134760585E1
3.137844250E0,-1.336950064E0,1.129095078E1,-1.287000060E0,1.144243742E1
3.139805077E0,-1.297950029E0,1.136805058E1,-1.249050021E0,1.150988159E1
3.141766016E0,-1.297950029E0,1.144395065E1,-1.171950102E0,1.157679351E1
3.143727161E0,-1.297950029E0,1.155900097E1,-1.134000063E0,1.168679314E1
3.145688245E0,-1.260000110E0,1.155900097E1,-1.057050109E0,1.167542113E1
3.147649141E0,-1.297950029E0,1.167405033E1,-1.018950105E0,1.179009689E1
3.149610093E0,-1.260000110E0,1.171305084E1,-1.018950105E0,1.182461076E1
3.151571171E0,-1.222050071E0,1.182795048E1,-9.040500522E-1,1.192523062E1
3.153532226E0,-1.183050036E0,1.186605072E1,-8.659500480E-1,1.195628021E1
3.155492947E0,-1.144950032E0,1.190400028E1,-7.510500550E-1,1.198249596E1
3.157453766E0,-1.030050039E0,1.198095036E1,-6.739500165E-1,1.204401856E1
3.159414482E0,-1.030050039E0,1.198095036E1,-5.590500236E-1,1.203813571E1
3.161375228E0,-9.529500604E-1,1.201905060E1,-4.060500264E-1,1.206360509E1
3.163336160E0,-8.770500422E-1,1.201905060E1,-3.289500177E-1,1.205549676E1
3.165297052E0,-8.380500674E-1,1.201905060E1,-1.759500057E-1,1.204951715E1
3.167257621E0,-8.380500674E-1,1.205805016E1,-6.105000153E-2,1.208729203E1
3.169218285E0,-7.620000243E-1,1.209600067E1,5.295000225E-2,1.212009406E1
3.171179251E0,-7.230000496E-1,1.209600067E1,9.195000678E-2,1.211793778E1
3.173140129E0,-7.230000496E-1,1.209600067E1,1.300500035E-1,1.211828677E1
3.175101261E0,-7.620000243E-1,1.209600067E1,1.300500035E-1,1.212067611E1
3.177062336E0,-7.620000243E-1,1.217295074E1,2.449500114E-1,1.219923663E1
3.179022333E0,-6.850500107E-1,1.213395023E1,2.830500007E-1,1.215656856E1
3.180982646E0,-7.230000496E-1,1.217295074E1,3.220500052E-1,1.219865464E1
3.182944528E0,-7.230000496E-1,1.221105099E1,2.830500007E-1,1.223571055E1
3.184905951E0,-7.230000496E-1,1.228800011E1,2.449500114E-1,1.231168860E1
3.186865972E0,-7.999500632E-1,1.232595062E1,2.830500007E-1,1.235512429E1
3.188826377E0,-7.999500632E-1,1.232595062E1,3.979500234E-1,1.235829046E1
3.190787704E0,-8.380500674E-1,1.236405087E1,3.600000143E-1,1.239764823E1
3.192748760E0,-8.380500674E-1,1.240305042E1,3.979500234E-1,1.243769882E1
3.194709346E0,-8.380500674E-1,1.240305042E1,4.360500276E-1,1.243897614E1
3.196670069E0,-7.999500632E-1,1.244100094E1,5.899500251E-1,1.248064363E1
3.198630814E0,-7.999500632E-1,1.247895050E1,6.280500293E-1,1.252032638E1
3.200591543E0,-7.999500632E-1,1.247895050E1,8.200500607E-1,1.253142481E1
3.202552499E0,-8.380500674E-1,1.251795101E1,8.580000401E-1,1.257527692E1
3.204513389E0,-7.230000496E-1,1.251795101E1,8.959500194E-1,1.257078172E1
3.206474498E0,-6.850500107E-1,1.251795101E1,9.730500579E-1,1.257438736E1
3.208435543E0,-6.469500065E-1,1.251795101E1,1.011000037E0,1.257536333E1
3.210396460E0,-6.079500318E-1,1.255605030E1,1.050000072E0,1.261453537E1
3.212357405E0,-5.320500135E-1,1.247895050E1,1.126049995E0,1.254094380E1
3.214318144E0,-4.170000255E-1,1.255605030E1,1.126049995E0,1.261333726E1
3.216278943E0,-3.400500119E-1,1.251795101E1,1.165050030E0,1.257664793E1
3.218239751E0,-1.870500147E-1,1.247895050E1,1.240950108E0,1.254189581E1
3.220200557E0,-1.480500102E-1,1.247895050E1,1.318050027E0,1.254923823E1
3.222161476E0,4.050000105E-3,1.247895050E1,1.395000100E0,1.255668138E1
3.224122379E0,1.189500093E-1,1.247895050E1,1.395000100E0,1.255724412E1
3.226083126E0,2.719500065E-1,1.244100094E1,1.432950020E0,1.252620481E1
3.228043919E0,4.639500082E-1,1.228800011E1,1.432950020E0,1.237996535E1
3.230005584E0,5.410500169E-1,1.221105099E1,1.432950020E0,1.230673991E1
3.231966994E0,7.699500322E-1,1.213395023E1,1.356000066E0,1.223373645E1
3.233927975E0,8.089500666E-1,1.198095036E1,1.240950108E0,1.207217995E1
3.235889078E0,1.000050068E0,1.182795048E1,1.395000100E0,1.195184245E1
3.237849790E0,1.153950095E0,1.167405033E1,1.318050027E0,1.180475785E1
3.239810617E0,1.230000019E0,1.144395065E1,1.356000066E0,1.158946257E1
3.241771196E0,1.306950092E0,1.121400070E1,1.356000066E0,1.137104509E1
3.243731848E0,1.384050012E0,1.102305031E1,1.395000100E0,1.119684142E1
3.245692700E0,1.575000048E0,1.083105087E1,1.471050024E0,1.104338156E1
3.247653480E0,1.729050040E0,1.052505016E1,1.471050024E0,1.076709260E1
3.249614383E0,1.882050037E0,1.029495049E1,1.432950020E0,1.056321275E1
3.251575249E0,1.996950150E0,1.002600002E1,1.432950020E0,1.032287906E1
3.253535823E0,2.149950027E0,9.757950783E0,1.471050024E0,1.009969687E1
3.255496482E0,2.227050066E0,9.490050316E0,1.471050024E0,9.858234891E0
3.257457485E0,2.341950178E0,9.220950127E0,1.510050058E0,9.632803489E0
3.259418394E0,2.341950178E0,8.953050613E0,1.510050058E0,9.376678362E0
3.261379275E0,2.380050182E0,8.722949982E0,1.510050058E0,9.167046767E0
3.263340165E0,2.494950056E0,8.416950226E0,1.510050058E0,8.907866078E0
3.265300914E0,2.494950056E0,8.148000717E0,1.548000097E0,8.660888856E0
3.267261704E0,2.457000017E0,7.879950523E0,1.548000097E0,8.398022007E0
3.269222694E0,2.419050217E0,7.650000572E0,1.548000097E0,8.171328962E0
3.271183625E0,2.265000105E0,7.305000305E0,1.510050058E0,7.795736406E0
3.273144367E0,2.149950027E0,7.113000393E0,1.510050058E0,7.582698127E0
3.275105165E0,2.265000105E0,6.997950554E0,1.471050024E0,7.501034969E0
3.277066109E0,2.419050217E0,6.730050087E0,1.432950020E0,7.293745532E0
3.279027010E0,2.572050095E0,6.499950409E0,1.240950108E0,7.099630566E0
