"Time (s)","Acceleration x (m/s^2)","Acceleration y (m/s^2)","Acceleration z (m/s^2)","Absolute acceleration (m/s^2)"
3.869239700E-2,-5.700000525E-1,9.336000443E0,6.660000086E-1,9.377065657E0
4.065146400E-2,-6.850500107E-1,9.375000000E0,5.509500504E-1,9.416127892E0
4.261324300E-2,-7.230000496E-1,9.336000443E0,4.360500276E-1,9.374101181E0
4.457298300E-2,-7.620000243E-1,9.259950638E0,3.600000143E-1,9.298221866E0
4.653332000E-2,-9.150000215E-1,9.106050491E0,3.220500052E-1,9.157570464E0
4.849378200E-2,-1.144950032E0,9.106050491E0,2.830500007E-1,9.182112144E0
5.045422100E-2,-1.068000078E0,9.220950127E0,2.449500114E-1,9.285824999E0
5.241410200E-2,-9.529500604E-1,9.145050049E0,2.830500007E-1,9.198922302E0
5.437414600E-2,-9.150000215E-1,9.145050049E0,2.830500007E-1,9.195068392E0
5.633431800E-2,-9.150000215E-1,8.953050613E0,1.680000126E-1,9.001253487E0
5.829445200E-2,-9.529500604E-1,8.953050613E0,9.195000678E-2,9.004092620E0
6.025461900E-2,-1.030050039E0,8.914950371E0,9.195000678E-2,8.974731082E0
6.221476900E-2,-1.144950032E0,8.838000298E0,1.500000060E-2,8.911867640E0
6.417461000E-2,-1.183050036E0,8.877000809E0,9.195000678E-2,8.955959220E0
6.613454100E-2,-1.222050071E0,8.877000809E0,5.295000225E-2,8.960879055E0
6.809450700E-2,-1.336950064E0,8.838000298E0,1.500000060E-2,8.938563069E0
7.005446200E-2,-1.452000022E0,8.953050613E0,-9.900000691E-2,9.070568910E0
7.201467500E-2,-1.452000022E0,8.877000809E0,-1.759500057E-1,8.996688603E0
7.397482600E-2,-1.489950061E0,8.877000809E0,-1.369500011E-1,9.002213608E0
7.593511600E-2,-1.528050065E0,8.838000298E0,-9.900000691E-2,8.969670410E0
7.789536500E-2,-1.567050099E0,8.722949982E0,-1.759500057E-1,8.864336456E0
7.985554800E-2,-1.642950058E0,8.722949982E0,-2.520000041E-1,8.879901198E0
8.181575100E-2,-1.681950092E0,8.685000420E0,-3.670500219E-1,8.853977305E0
8.377606700E-2,-1.681950092E0,8.685000420E0,-4.060500264E-1,8.855679817E0
8.573635600E-2,-1.758000135E0,8.647050858E0,-4.060500264E-1,8.833285325E0
8.769644300E-2,-1.795950055E0,8.722949982E0,-5.209500194E-1,8.921136806E0
8.965658900E-2,-1.834950089E0,8.722949982E0,-5.590500236E-1,8.931373643E0
9.161678800E-2,-1.834950089E0,8.685000420E0,-5.209500194E-1,8.891999946E0
9.357697100E-2,-1.987950087E0,8.647050858E0,-4.819500148E-1,8.885702555E0
9.553730000E-2,-2.103000164E0,8.800050735E0,-4.440000355E-1,9.058732730E0
9.749758600E-2,-1.987950087E0,8.953050613E0,-4.440000355E-1,9.181840603E0
9.945803300E-2,-1.834950089E0,8.953050613E0,-5.970000029E-1,9.158633420E0
1.014184320E-1,-1.911000133E0,8.914950371E0,-4.819500148E-1,9.130199200E0
1.033787250E-1,-1.911000133E0,9.030000687E0,-4.819500148E-1,9.242570515E0
1.053390490E-1,-1.795950055E0,9.106050491E0,-4.440000355E-1,9.292078787E0
1.072993490E-1,-1.720050097E0,9.106050491E0,-4.440000355E-1,9.277707902E0
1.092596600E-1,-1.758000135E0,9.030000687E0,-4.060500264E-1,9.208493552E0
1.112200110E-1,-1.834950089E0,9.030000687E0,-3.670500219E-1,9.221858812E0
1.131803500E-1,-1.834950089E0,9.030000687E0,-3.670500219E-1,9.221858812E0
1.151406080E-1,-1.834950089E0,8.991000175E0,-3.670500219E-1,9.183673105E0
1.171008900E-1,-1.950000048E0,8.991000175E0,-5.209500194E-1,9.214769301E0
1.190610880E-1,-1.911000133E0,8.991000175E0,-5.209500194E-1,9.206595168E0
1.210212960E-1,-1.834950089E0,8.991000175E0,-3.670500219E-1,9.183673105E0
1.229815750E-1,-1.873050094E0,8.991000175E0,-2.140500098E-1,9.186523729E0
1.249418330E-1,-1.873050094E0,8.953050613E0,-2.520000041E-1,9.150351684E0
1.269019700E-1,-1.795950055E0,8.991000175E0,-3.670500219E-1,9.175960248E0
1.288621420E-1,-1.795950055E0,8.991000175E0,-3.289500177E-1,9.174515184E0
1.308223360E-1,-1.795950055E0,9.067950249E0,-3.670500219E-1,9.251372008E0
1.327825240E-1,-2.026050091E0,8.953050613E0,-4.060500264E-1,9.188409595E0
1.347426730E-1,-2.103000164E0,9.030000687E0,-3.289500177E-1,9.277485123E0
1.367028340E-1,-1.950000048E0,9.106050491E0,-3.289500177E-1,9.318307993E0
1.386631660E-1,-1.758000135E0,9.106050491E0,-3.670500219E-1,9.281457092E0
1.406234470E-1,-1.567050099E0,9.145050049E0,-4.440000355E-1,9.288957016E0
1.425835660E-1,-1.605000019E0,9.145050049E0,-4.819500148E-1,9.297324415E0
1.445437430E-1,-1.873050094E0,9.106050491E0,-4.440000355E-1,9.307287910E0
1.465038470E-1,-1.911000133E0,9.220950127E0,-3.670500219E-1,9.424042045E0
1.484639730E-1,-1.720050097E0,9.220950127E0,-3.289500177E-1,9.385771236E0
1.504241310E-1,-1.605000019E0,9.145050049E0,-4.060500264E-1,9.293699053E0
1.523842790E-1,-1.720050097E0,9.220950127E0,-4.060500264E-1,9.388789602E0
1.543444190E-1,-1.642950058E0,9.298050880E0,-4.060500264E-1,9.450815398E0
1.563045720E-1,-1.528050065E0,9.298050880E0,-4.060500264E-1,9.431519697E0
1.582645470E-1,-1.489950061E0,9.220950127E0,-3.670500219E-1,9.347758990E0
1.602245740E-1,-1.567050099E0,9.259950638E0,-4.440000355E-1,9.402099120E0
1.621847490E-1,-1.642950058E0,9.336000443E0,-6.739500165E-1,9.503388752E0
1.641448800E-1,-1.375050068E0,9.259950638E0,-3.289500177E-1,9.367265162E0
1.661048500E-1,-1.260000110E0,9.259950638E0,5.295000225E-2,9.345431493E0
1.680648730E-1,-1.222050071E0,9.220950127E0,9.195000678E-2,9.302031091E0
1.700250930E-1,-1.144950032E0,9.220950127E0,9.195000678E-2,9.292216453E0
1.719852550E-1,-1.106999993E0,9.183000565E0,5.295000225E-2,9.249635239E0
1.739454090E-1,-1.222050071E0,9.183000565E0,-2.520000041E-1,9.267384191E0
1.759055650E-1,-1.222050071E0,9.220950127E0,-2.520000041E-1,9.304989609E0
1.778647670E-1,-9.919500351E-1,9.145050049E0,9.195000678E-2,9.199149965E0
1.798242520E-1,-9.529500604E-1,9.106050491E0,3.220500052E-1,9.161440147E0
1.817845200E-1,-9.529500604E-1,9.145050049E0,3.600000143E-1,9.201611501E0
1.837445580E-1,-9.150000215E-1,9.067950249E0,3.600000143E-1,9.121104471E0
1.857047320E-1,-9.150000215E-1,9.067950249E0,3.979500234E-1,9.122681129E0
1.876648660E-1,-9.150000215E-1,9.067950249E0,3.979500234E-1,9.122681129E0
1.896249990E-1,-9.919500351E-1,9.030000687E0,3.600000143E-1,9.091450780E0
1.915851490E-1,-9.150000215E-1,9.030000687E0,4.360500276E-1,9.086708814E0
1.935453490E-1,-9.529500604E-1,9.067950249E0,5.509500504E-1,9.134515942E0
1.955055340E-1,-9.529500604E-1,9.030000687E0,5.509500504E-1,9.096844078E0
1.974658170E-1,-1.030050039E0,9.067950249E0,6.660000086E-1,9.150534455E0
1.994260720E-1,-1.030050039E0,9.145050049E0,6.660000086E-1,9.226944212E0
2.013862550E-1,-1.068000078E0,9.106050491E0,7.429500222E-1,9.198519145E0
2.033464590E-1,-1.106999993E0,9.183000565E0,7.429500222E-1,9.279273845E0
2.053067830E-1,-1.106999993E0,9.220950127E0,7.429500222E-1,9.316831272E0
2.072670720E-1,-1.106999993E0,9.259950638E0,7.429500222E-1,9.355432087E0
2.092275190E-1,-1.106999993E0,9.298050880E0,7.050000429E-1,9.390219605E0
2.111879190E-1,-1.106999993E0,9.336000443E0,7.050000429E-1,9.427798169E0
2.131483760E-1,-1.106999993E0,9.451050758E0,7.429500222E-1,9.544620692E0
2.151088270E-1,-1.106999993E0,9.528000832E0,7.810500264E-1,9.623839565E0
2.170689760E-1,-1.144950032E0,9.528000832E0,7.810500264E-1,9.628278640E0
2.190292130E-1,-1.144950032E0,9.643050194E0,6.660000086E-1,9.733595617E0
2.209895320E-1,-1.183050036E0,9.720000267E0,6.660000086E-1,9.814355231E0
2.229498270E-1,-1.106999993E0,9.757950783E0,7.050000429E-1,9.845815229E0
2.249099620E-1,-1.106999993E0,9.835050583E0,7.429500222E-1,9.925000941E0
2.268701410E-1,-1.106999993E0,9.949950218E0,7.810500264E-1,1.004176267E1
2.288302460E-1,-1.144950032E0,1.002600002E1,7.810500264E-1,1.012134508E1
2.307903720E-1,-1.106999993E0,1.018005085E1,5.130000114E-1,1.025290463E1
2.327503500E-1,-1.030050039E0,1.014105034E1,7.429500222E-1,1.022026809E1
2.347103720E-1,-9.529500604E-1,1.033305073E1,1.126049995E0,1.043781777E1
2.366700030E-1,-8.770500422E-1,1.044795036E1,1.203000069E0,1.055348723E1
2.386297520E-1,-8.380500674E-1,1.052505016E1,1.165050030E0,1.062244560E1
2.405899740E-1,-8.380500674E-1,1.056300068E1,9.730500579E-1,1.064077712E1
2.425500570E-1,-7.999500632E-1,1.063995075E1,8.959500194E-1,1.070752999E1
2.445102230E-1,-7.620000243E-1,1.075500011E1,9.349500537E-1,1.082242131E1
2.464703650E-1,-7.230000496E-1,1.083105087E1,8.959500194E-1,1.089206677E1
2.484303680E-1,-6.469500065E-1,1.087005043E1,8.959500194E-1,1.092608196E1
2.503904250E-1,-6.079500318E-1,1.094595051E1,8.200500607E-1,1.099344886E1
2.523505950E-1,-5.320500135E-1,1.102305031E1,8.959500194E-1,1.107219227E1
2.543107310E-1,-4.170000255E-1,1.106100082E1,9.349500537E-1,1.110827439E1
2.562708880E-1,-4.170000255E-1,1.110000038E1,9.730500579E-1,1.115036878E1
2.582310390E-1,-5.700000525E-1,1.117605019E1,3.979500234E-1,1.119764984E1
2.601910090E-1,-4.549500346E-1,1.125300026E1,7.050000429E-1,1.128423765E1
2.621510360E-1,-5.320500135E-1,1.117605019E1,8.959500194E-1,1.122452232E1
2.641111650E-1,-4.930500090E-1,1.117605019E1,1.087950110E0,1.123969891E1
2.660712640E-1,-5.320500135E-1,1.125300026E1,1.050000072E0,1.131439756E1
2.680312930E-1,-4.930500090E-1,1.125300026E1,1.165050030E0,1.132388867E1
2.699913430E-1,-4.930500090E-1,1.121400070E1,1.087950110E0,1.127743524E1
2.719514830E-1,-4.170000255E-1,1.121400070E1,1.011000037E0,1.126720115E1
2.739115860E-1,-3.780000210E-1,1.113795090E1,1.050000072E0,1.119371852E1
2.758717490E-1,-5.320500135E-1,1.117605019E1,7.050000429E-1,1.121089649E1
2.778318940E-1,-4.549500346E-1,1.110000038E1,8.580000401E-1,1.114240333E1
2.797924100E-1,-3.780000210E-1,1.106100082E1,1.050000072E0,1.111715446E1
2.817528170E-1,-3.400500119E-1,1.102305031E1,1.126049995E0,1.108563308E1
2.837127980E-1,-3.400500119E-1,1.106100082E1,9.730500579E-1,1.110892432E1
2.856729010E-1,-4.170000255E-1,1.094595051E1,9.349500537E-1,1.099371880E1
2.876332430E-1,-5.320500135E-1,1.090800095E1,8.959500194E-1,1.095765889E1
2.895935140E-1,-6.079500318E-1,1.087005043E1,7.810500264E-1,1.091501895E1
2.915536490E-1,-6.850500107E-1,1.087005043E1,7.050000429E-1,1.091440859E1
2.935138240E-1,-7.999500632E-1,1.083105087E1,5.130000114E-1,1.087266077E1
2.954739400E-1,-8.770500422E-1,1.087005043E1,4.750500321E-1,1.091571737E1
2.974340980E-1,-1.030050039E0,1.087005043E1,3.979500234E-1,1.092599486E1
2.993944300E-1,-1.068000078E0,1.083105087E1,3.600000143E-1,1.088953108E1
3.013547110E-1,-1.260000110E0,1.083105087E1,3.220500052E-1,1.090884868E1
3.033147990E-1,-1.336950064E0,1.083105087E1,2.830500007E-1,1.091692337E1
3.052749440E-1,-1.336950064E0,1.079295063E1,3.220500052E-1,1.088020841E1
3.072360450E-1,-1.336950064E0,1.075500011E1,2.830500007E-1,1.084147500E1
3.091968650E-1,-1.375050068E0,1.075500011E1,1.680000126E-1,1.084384683E1
3.111568610E-1,-1.375050068E0,1.075500011E1,1.680000126E-1,1.084384683E1
3.131170980E-1,-1.452000022E0,1.079295063E1,1.680000126E-1,1.089147884E1
3.150772370E-1,-1.452000022E0,1.079295063E1,1.300500035E-1,1.089095957E1
3.170374050E-1,-1.489950061E0,1.083105087E1,9.195000678E-2,1.093343811E1
3.189973960E-1,-1.528050065E0,1.083105087E1,9.195000678E-2,1.093869530E1
3.209574250E-1,-1.489950061E0,1.090800095E1,9.195000678E-2,1.100967259E1
3.229177800E-1,-1.605000019E0,1.090800095E1,1.500000060E-2,1.102545848E1
3.248780390E-1,-1.605000019E0,1.098495007E1,-2.205000073E-2,1.110160525E1
3.268382210E-1,-1.605000019E0,1.098495007E1,1.500000060E-2,1.110159349E1
3.287984250E-1,-1.528050065E0,1.106100082E1,1.300500035E-1,1.116680748E1
3.307584040E-1,-1.489950061E0,1.117605019E1,1.680000126E-1,1.127618167E1
3.327184390E-1,-1.413000107E0,1.113795090E1,2.449500114E-1,1.122989403E1
3.346780280E-1,-1.297950029E0,1.117605019E1,3.220500052E-1,1.125577577E1
3.366377470E-1,-1.260000110E0,1.121400070E1,4.360500276E-1,1.129298683E1
3.385981990E-1,-1.260000110E0,1.121400070E1,5.899500251E-1,1.129997580E1
3.405584370E-1,-1.336950064E0,1.121400070E1,5.509500504E-1,1.130684718E1
3.425185480E-1,-1.260000110E0,1.125300026E1,5.899500251E-1,1.133867965E1
3.444786850E-1,-1.183050036E0,1.121400070E1,6.660000086E-1,1.129588311E1
3.464390210E-1,-1.375050068E0,1.125300026E1,5.130000114E-1,1.134830148E1
3.483992980E-1,-1.297950029E0,1.117605019E1,5.509500504E-1,1.126464904E1
3.503594320E-1,-1.336950064E0,1.129095078E1,7.429500222E-1,1.139407651E1
3.523196080E-1,-1.297950029E0,1.129095078E1,8.200500607E-1,1.139485523E1
3.542796230E-1,-1.336950064E0,1.129095078E1,8.959500194E-1,1.140507481E1
3.562396850E-1,-1.413000107E0,1.129095078E1,1.126049995E0,1.143460219E1
3.581999890E-1,-1.489950061E0,1.121400070E1,1.050000072E0,1.136117349E1
3.601602220E-1,-1.567050099E0,1.129095078E1,1.050000072E0,1.144743271E1
3.621205420E-1,-1.642950058E0,1.117605019E1,9.730500579E-1,1.133799846E1
3.640808370E-1,-1.642950058E0,1.125300026E1,9.349500537E-1,1.141067182E1
3.660409680E-1,-1.567050099E0,1.121400070E1,1.279950023E0,1.139507481E1
3.680011470E-1,-1.605000019E0,1.121400070E1,1.318050027E0,1.140469608E1
3.699612960E-1,-1.758000135E0,1.125300026E1,1.126049995E0,1.144502372E1
3.719214540E-1,-1.681950092E0,1.121400070E1,9.730500579E-1,1.138110690E1
3.738812470E-1,-1.489950061E0,1.113795090E1,1.126049995E0,1.129344456E1
3.758411470E-1,-1.222050071E0,1.110000038E1,1.740000129E0,1.130181469E1
3.778015470E-1,-1.106999993E0,1.106100082E1,2.238000154E0,1.133930478E1
3.797617840E-1,-1.183050036E0,1.110000038E1,2.353049994E0,1.140817514E1
3.817216090E-1,-1.222050071E0,1.110000038E1,2.046000004E0,1.135295252E1
3.836815550E-1,-1.144950032E0,1.106100082E1,1.777950048E0,1.126133900E1
3.856416980E-1,-1.068000078E0,1.106100082E1,1.777950048E0,1.125377580E1
3.876017840E-1,-9.150000215E-1,1.106100082E1,1.969950080E0,1.127225211E1
3.895621440E-1,-9.529500604E-1,1.098495007E1,2.238000154E0,1.125103935E1
3.915224140E-1,-9.529500604E-1,1.098495007E1,2.161050081E0,1.123598590E1
3.934825940E-1,-8.770500422E-1,1.094595051E1,2.275950193E0,1.121441031E1
3.954428000E-1,-7.230000496E-1,1.087005043E1,2.736000061E0,1.123238273E1
3.974029000E-1,-6.079500318E-1,1.079295063E1,3.349050045E0,1.131695731E1
3.993630310E-1,-5.700000525E-1,1.071600056E1,3.388050079E0,1.125328625E1
4.013230540E-1,-4.549500346E-1,1.063995075E1,3.196050167E0,1.111891488E1
4.032831080E-1,-2.629500031E-1,1.052505016E1,3.043050051E0,1.095928726E1
4.052434580E-1,-1.480500102E-1,1.048605061E1,2.928000212E0,1.088817530E1
4.072037210E-1,-3.299999982E-2,1.037100029E1,3.004050255E0,1.079736329E1
4.091640370E-1,1.570500135E-1,1.029495049E1,3.349050045E0,1.082713288E1
4.111243370E-1,1.570500135E-1,1.021800041E1,3.655950069E0,1.085348645E1
4.130848400E-1,3.109500110E-1,1.010295010E1,3.388050079E0,1.066044905E1
4.150452740E-1,5.790000558E-1,1.002600002E1,3.234000206E0,1.055057699E1
4.170055160E-1,8.089500666E-1,9.910950661E0,3.043050051E0,1.039911039E1
4.189658140E-1,1.153950095E0,9.796050072E0,3.081000090E0,1.033376792E1
4.209257630E-1,1.306950092E0,9.681000710E0,3.273000240E0,1.030254453E1
4.228858140E-1,1.345050097E0,9.604950905E0,3.579000235E0,1.033796326E1
4.248463650E-1,1.306950092E0,9.565950394E0,3.579000235E0,1.029683292E1
4.268067550E-1,1.422000051E0,9.528000832E0,3.388050079E0,1.021194239E1
4.287669150E-1,1.498950124E0,9.375000000E0,3.234000206E0,1.002976739E1
4.307271420E-1,1.575000048E0,9.298050880E0,3.118950129E0,9.932886047E0
4.326872380E-1,1.729050040E0,9.220950127E0,3.118950129E0,9.886525435E0
4.346473730E-1,1.767000079E0,9.106050491E0,3.081000090E0,9.774201061E0
4.366077130E-1,1.767000079E0,8.991000175E0,3.157950163E0,9.691905007E0
4.385679900E-1,2.074050188E0,8.914950371E0,3.196050167E0,9.694986383E0
4.405283030E-1,2.188950062E0,8.722949982E0,3.196050167E0,9.544427454E0
4.424886050E-1,2.341950178E0,8.647050858E0,3.157950163E0,9.498887745E0
4.444489590E-1,2.419050217E0,8.532000542E0,3.118950129E0,9.400781196E0
4.464092980E-1,2.419050217E0,8.377950668E0,3.081000090E0,9.248482195E0
4.483695280E-1,2.380050182E0,8.224950790E0,2.928000212E0,9.049178947E0
4.503298100E-1,2.686950207E0,8.110050201E0,2.812950134E0,8.994737580E0
4.522901660E-1,2.839950085E0,7.957050323E0,2.698050022E0,8.869015743E0
4.542505010E-1,2.764050245E0,7.842000484E0,2.467950106E0,8.673391671E0
4.562105790E-1,2.955000162E0,7.726950169E0,2.314950228E0,8.590505190E0
4.581707330E-1,3.108000040E0,7.612050533E0,2.238000154E0,8.521245347E0
4.601309210E-1,2.992950201E0,7.573050499E0,2.008050203E0,8.386960736E0
4.620911060E-1,3.184950113E0,7.497000217E0,1.930950046E0,8.371229752E0
4.640514350E-1,3.223050117E0,7.458000183E0,1.930950046E0,8.350951255E0
4.660117210E-1,3.108000040E0,7.497000217E0,1.701000094E0,8.292049073E0
4.679719890E-1,3.184950113E0,7.458000183E0,1.624950051E0,8.270800241E0
4.699322620E-1,3.300000191E0,7.305000305E0,1.471050024E0,8.149663729E0
4.718929510E-1,2.649000168E0,7.036950111E0,1.300500035E-1,7.520158360E0
4.738535390E-1,3.031950235E0,6.997950554E0,2.449500114E-1,7.630467528E0
4.758130330E-1,3.184950113E0,7.075050354E0,8.580000401E-1,7.806177605E0
4.777728480E-1,3.070050240E0,7.189950466E0,1.240950108E0,7.915841923E0
4.797332400E-1,3.070050240E0,7.228050232E0,1.432950020E0,7.982685287E0
4.816934620E-1,2.955000162E0,7.342950344E0,1.510050058E0,8.057989631E0
4.836536650E-1,2.955000162E0,7.420050144E0,1.471050024E0,8.121154984E0
4.856138630E-1,2.839950085E0,7.534950256E0,1.471050024E0,8.185644753E0
4.875739640E-1,2.725050211E0,7.612050533E0,1.395000100E0,8.204586355E0
4.895340940E-1,2.572050095E0,7.803000450E0,1.279950023E0,8.315078459E0
4.914941170E-1,2.494950056E0,7.957050323E0,1.126049995E0,8.414714150E0
4.934541710E-1,2.419050217E0,8.187000275E0,1.087950110E0,8.605952178E0
4.954143410E-1,2.304000139E0,8.377950668E0,9.730500579E-1,8.743300318E0
4.973744770E-1,2.149950027E0,8.569950104E0,9.730500579E-1,8.888934487E0
4.993347690E-1,1.996950150E0,8.800050735E0,9.730500579E-1,9.076096587E0
5.012950150E-1,1.804950118E0,8.953050613E0,1.011000037E0,9.188965191E0
5.032549740E-1,1.690050125E0,9.145050049E0,1.087950110E0,9.363324477E0
5.052150170E-1,1.537050128E0,9.336000443E0,1.165050030E0,9.533140560E0
5.071750400E-1,1.422000051E0,9.528000832E0,1.165050030E0,9.703722253E0
5.091350790E-1,1.306950092E0,9.643050194E0,1.165050030E0,9.800707993E0
5.110948470E-1,1.230000019E0,9.757950783E0,1.087950110E0,9.895157349E0
5.130546950E-1,1.077000022E0,9.910950661E0,1.050000072E0,1.002443875E1
5.150149000E-1,9.619500637E-1,1.010295010E1,9.730500579E-1,1.019518391E1
5.169750000E-1,8.470500112E-1,1.021800041E1,1.087950110E0,1.031060918E1
5.189352080E-1,7.320000529E-1,1.033305073E1,1.011000037E0,1.040816422E1
5.208953850E-1,6.550500393E-1,1.048605061E1,1.087950110E0,1.056266933E1
5.228547700E-1,5.790000558E-1,1.063995075E1,1.087950110E0,1.071108904E1
5.248143870E-1,4.639500082E-1,1.071600056E1,1.050000072E0,1.077731032E1
5.267746770E-1,3.870000243E-1,1.083105087E1,8.959500194E-1,1.087493257E1
5.287347690E-1,3.490500152E-1,1.094595051E1,8.959500194E-1,1.098810242E1
5.306948890E-1,2.719500065E-1,1.110000038E1,1.011000037E0,1.114926394E1
5.326550000E-1,2.340000123E-1,1.125300026E1,1.050000072E0,1.130430321E1
5.346150270E-1,8.100000024E-2,1.129095078E1,9.730500579E-1,1.133309123E1
5.365750790E-1,4.200000316E-2,1.140600014E1,8.959500194E-1,1.144121189E1
5.385350700E-1,4.200000316E-2,1.144395065E1,7.429500222E-1,1.146811865E1
5.404950790E-1,4.200000316E-2,1.148295021E1,6.280500293E-1,1.150018941E1
5.424552670E-1,4.050000105E-3,1.159800053E1,7.050000429E-1,1.161940866E1
5.444153950E-1,4.050000105E-3,1.159800053E1,7.050000429E-1,1.161940866E1
5.463753290E-1,-1.480500102E-1,1.163595009E1,5.130000114E-1,1.164819395E1
5.483353200E-1,-1.870500147E-1,1.175100040E1,4.750500321E-1,1.176208616E1
5.502953200E-1,-1.480500102E-1,1.178895092E1,4.750500321E-1,1.179944724E1
5.522553180E-1,-3.400500119E-1,1.175100040E1,4.360500276E-1,1.176400375E1
5.542153030E-1,-4.930500090E-1,1.171305084E1,2.830500007E-1,1.172683997E1
5.561753030E-1,-3.400500119E-1,1.178895092E1,3.600000143E-1,1.179934735E1
5.581349890E-1,-3.019500077E-1,1.175100040E1,5.130000114E-1,1.176606788E1
5.600947670E-1,-4.549500346E-1,1.167405033E1,6.280500293E-1,1.169978109E1
5.620548040E-1,-5.320500135E-1,1.163595009E1,6.280500293E-1,1.166502715E1
5.640147650E-1,-6.079500318E-1,1.159800053E1,5.509500504E-1,1.162698436E1
5.659749470E-1,-6.850500107E-1,1.167405033E1,3.220500052E-1,1.169856662E1
5.679350670E-1,-7.620000243E-1,1.163595009E1,3.600000143E-1,1.166642955E1
5.698959480E-1,-8.380500674E-1,1.163595009E1,1.680000126E-1,1.166729988E1
5.718566060E-1,-8.380500674E-1,1.171305084E1,1.680000126E-1,1.174419482E1
5.738168090E-1,-8.770500422E-1,1.175100040E1,5.295000225E-2,1.178380376E1
5.757771460E-1,-8.770500422E-1,1.175100040E1,1.500000060E-2,1.178369434E1
5.777369190E-1,-8.380500674E-1,1.163595009E1,-1.759500057E-1,1.166741706E1
5.796968810E-1,-7.620000243E-1,1.155900097E1,-2.520000041E-1,1.158683095E1
5.816572020E-1,-7.620000243E-1,1.152105045E1,-2.910000086E-1,1.154988868E1
5.836174180E-1,-7.230000496E-1,1.140600014E1,-2.520000041E-1,1.143166970E1
5.855777860E-1,-6.469500065E-1,1.129095078E1,-2.140500098E-1,1.131149553E1
5.875381100E-1,-6.469500065E-1,1.117605019E1,-2.140500098E-1,1.119680577E1
5.894982170E-1,-5.320500135E-1,1.106100082E1,-1.369500011E-1,1.107463642E1
5.914584010E-1,-4.930500090E-1,1.090800095E1,-2.520000041E-1,1.092204591E1
5.934187290E-1,-4.930500090E-1,1.079295063E1,-3.670500219E-1,1.081043974E1
5.953790140E-1,-4.549500346E-1,1.063995075E1,-4.060500264E-1,1.065741095E1
5.973391470E-1,-4.549500346E-1,1.060095024E1,-4.440000355E-1,1.061999348E1
5.992993240E-1,-3.780000210E-1,1.052505016E1,-4.060500264E-1,1.053966041E1
6.012590990E-1,-3.400500119E-1,1.037100029E1,-4.819500148E-1,1.038775995E1
6.032190020E-1,-2.250000089E-1,1.025595093E1,-8.269500136E-1,1.029169572E1
6.051795580E-1,-2.250000089E-1,1.021800041E1,-1.096050024E0,1.027907988E1
6.071399230E-1,-1.480500102E-1,1.014105034E1,-1.057050109E0,1.019706702E1
6.091002220E-1,-7.200000435E-2,1.002600002E1,-9.040500522E-1,1.006693434E1
6.110605410E-1,-3.299999982E-2,9.988050461E0,-7.890000343E-1,1.001921963E1
6.130207860E-1,-7.200000435E-2,9.910950661E0,-7.890000343E-1,9.942567478E0
6.149810640E-1,-1.099500060E-1,9.796050072E0,-7.890000343E-1,9.828387816E0
6.169414210E-1,-7.200000435E-2,9.720000267E0,-6.739500165E-1,9.743602918E0
6.189017550E-1,-1.099500060E-1,9.681000710E0,-5.970000029E-1,9.700014059E0
6.208620140E-1,-1.480500102E-1,9.565950394E0,-6.739500165E-1,9.590804678E0
6.228222950E-1,-1.099500060E-1,9.528000832E0,-6.739500165E-1,9.552439347E0
6.247826060E-1,-1.099500060E-1,9.375000000E0,-7.120500207E-1,9.402644800E0
6.267429080E-1,-7.200000435E-2,9.298050880E0,-7.510500550E-1,9.328612456E0
6.287034420E-1,-1.099500060E-1,9.220950127E0,-7.120500207E-1,9.249055383E0
6.306639080E-1,-1.480500102E-1,9.145050049E0,-8.269500136E-1,9.183556257E0
6.326243700E-1,-1.870500147E-1,9.145050049E0,-8.659500480E-1,9.187861426E0
6.345848340E-1,-2.250000089E-1,9.106050491E0,-9.040500522E-1,9.153583290E0
6.365451580E-1,-2.250000089E-1,8.991000175E0,-8.659500480E-1,9.035406944E0
6.385054920E-1,-3.400500119E-1,8.991000175E0,-9.810000658E-1,9.050750206E0
6.404659290E-1,-4.170000255E-1,8.914950371E0,-9.810000658E-1,8.978451440E0
6.424263360E-1,-3.780000210E-1,8.838000298E0,-1.096050024E0,8.913723068E0
6.443863120E-1,-4.170000255E-1,8.800050735E0,-1.134000063E0,8.882608745E0
6.463464150E-1,-4.930500090E-1,8.722949982E0,-1.057050109E0,8.800585755E0
6.483067170E-1,-5.320500135E-1,8.647050858E0,-1.018950105E0,8.723120145E0
6.502669570E-1,-6.079500318E-1,8.685000420E0,-1.018950105E0,8.765677090E0
6.522271420E-1,-6.850500107E-1,8.608050346E0,-1.057050109E0,8.699722939E0
6.541873430E-1,-7.620000243E-1,8.532000542E0,-1.134000063E0,8.640696351E0
6.561471280E-1,-7.620000243E-1,8.493000031E0,-1.171950102E0,8.607273703E0
6.581070350E-1,-8.770500422E-1,8.455050468E0,-1.171950102E0,8.580825266E0
6.600672190E-1,-8.770500422E-1,8.377950668E0,-1.134000063E0,8.499719426E0
6.620272980E-1,-9.150000215E-1,8.416950226E0,-1.134000063E0,8.542144478E0
6.639876450E-1,-1.030050039E0,8.455050468E0,-1.171950102E0,8.597810683E0
6.659479140E-1,-1.030050039E0,8.455050468E0,-1.210950017E0,8.603213437E0
6.679079140E-1,-1.030050039E0,8.416950226E0,-1.210950017E0,8.565772244E0
6.698679930E-1,-1.106999993E0,8.377950668E0,-1.249050021E0,8.542577617E0
6.718281130E-1,-1.068000078E0,8.377950668E0,-1.287000060E0,8.543245913E0
6.737882210E-1,-1.144950032E0,8.416950226E0,-1.326000094E0,8.597339003E0
6.757482490E-1,-1.183050036E0,8.340000153E0,-1.363950014E0,8.533203945E0
6.777083000E-1,-1.260000110E0,8.377950668E0,-1.402050018E0,8.587397856E0
6.796684710E-1,-1.297950029E0,8.377950668E0,-1.287000060E0,8.575027745E0
6.816286060E-1,-1.336950064E0,8.377950668E0,-1.363950014E0,8.592895467E0
6.835890780E-1,-1.452000022E0,8.340000153E0,-1.479000092E0,8.593680695E0
6.855494520E-1,-1.413000107E0,8.377950668E0,-1.402050018E0,8.611177095E0
6.875096140E-1,-1.528050065E0,8.340000153E0,-1.402050018E0,8.593967873E0
6.894698390E-1,-1.528050065E0,8.302050591E0,-1.402050018E0,8.557144691E0
6.914299360E-1,-1.489950061E0,8.302050591E0,-1.326000094E0,8.538282699E0
6.933900700E-1,-1.605000019E0,8.302050591E0,-1.402050018E0,8.571220060E0
6.953502710E-1,-1.528050065E0,8.302050591E0,-1.516950130E0,8.576719577E0
6.973104520E-1,-1.528050065E0,8.302050591E0,-1.363950014E0,8.550984777E0
6.992706020E-1,-1.567050099E0,8.187000275E0,-1.441050053E0,8.459269754E0
7.012307620E-1,-1.567050099E0,8.224950790E0,-1.479000092E0,8.502523319E0
7.031909150E-1,-1.567050099E0,8.148000717E0,-1.441050053E0,8.421531153E0
7.051510700E-1,-1.605000019E0,8.071949959E0,-1.441050053E0,8.355179618E0
7.071110430E-1,-1.605000019E0,8.032950401E0,-1.363950014E0,8.304497387E0
7.090710700E-1,-1.528050065E0,8.071949959E0,-1.402050018E0,8.334090076E0
7.110312440E-1,-1.528050065E0,8.032950401E0,-1.326000094E0,8.283809836E0
7.129913750E-1,-1.528050065E0,7.957050323E0,-1.326000094E0,8.210229175E0
7.149514890E-1,-1.528050065E0,7.918050289E0,-1.287000060E0,8.166200251E0
7.169116080E-1,-1.528050065E0,7.879950523E0,-1.326000094E0,8.135529086E0
7.188716140E-1,-1.528050065E0,7.879950523E0,-1.326000094E0,8.135529086E0
7.208316660E-1,-1.528050065E0,7.879950523E0,-1.441050053E0,8.155070969E0
7.227917910E-1,-1.489950061E0,7.842000484E0,-1.479000092E0,8.118150285E0
7.247518950E-1,-1.489950061E0,7.765050411E0,-1.516950130E0,8.050906581E0
7.267115630E-1,-1.528050065E0,7.803000450E0,-1.441050053E0,8.080741196E0
7.286713580E-1,-1.528050065E0,7.726950169E0,-1.402050018E0,8.000402500E0
7.306313960E-1,-1.528050065E0,7.650000572E0,-1.326000094E0,7.913009668E0
7.325913600E-1,-1.489950061E0,7.612050533E0,-1.363950014E0,7.875507866E0
7.345515020E-1,-1.528050065E0,7.534950256E0,-1.326000094E0,7.801838797E0
7.365115910E-1,-1.452000022E0,7.497000217E0,-1.326000094E0,7.750586596E0
7.384716220E-1,-1.413000107E0,7.420050144E0,-1.326000094E0,7.668897554E0
7.404316700E-1,-1.452000022E0,7.342950344E0,-1.363950014E0,7.608389019E0
7.423918510E-1,-1.452000022E0,7.152000427E0,-1.287000060E0,7.410518425E0
7.443519860E-1,-1.413000107E0,7.075050354E0,-1.326000094E0,7.335610613E0
7.463119640E-1,-1.375050068E0,6.883050442E0,-1.326000094E0,7.143208125E0
7.482719880E-1,-1.375050068E0,6.844950199E0,-1.326000094E0,7.106502809E0
7.502321180E-1,-1.375050068E0,6.807000160E0,-1.249050021E0,7.055929409E0
7.521922170E-1,-1.375050068E0,6.768000126E0,-1.171950102E0,7.005002172E0
7.541523650E-1,-1.413000107E0,6.730050087E0,-1.134000063E0,6.969655631E0
7.561125090E-1,-1.375050068E0,6.730050087E0,-1.171950102E0,6.968342981E0
7.580725300E-1,-1.413000107E0,6.768000126E0,-1.096050024E0,7.000265756E0
7.600325880E-1,-1.375050068E0,6.768000126E0,-1.210950017E0,7.011632359E0
7.619925780E-1,-1.297950029E0,6.768000126E0,-1.171950102E0,6.990276606E0
7.639525880E-1,-1.297950029E0,6.807000160E0,-1.134000063E0,7.021814694E0
7.659127410E-1,-1.183050036E0,6.844950199E0,-1.249050021E0,7.057837953E0
7.678728370E-1,-1.183050036E0,6.883050442E0,-1.287000060E0,7.101574468E0
7.698330010E-1,-1.183050036E0,6.997950554E0,-1.287000060E0,7.212994420E0
7.717931450E-1,-1.222050071E0,7.036950111E0,-1.326000094E0,7.264320305E0
7.737534810E-1,-1.144950032E0,7.075050354E0,-1.363950014E0,7.295725305E0
7.757137600E-1,-1.183050036E0,7.113000393E0,-1.326000094E0,7.331620437E0
7.776740910E-1,-1.222050071E0,7.152000427E0,-1.287000060E0,7.368913464E0
7.796343940E-1,-1.222050071E0,7.152000427E0,-1.249050021E0,7.362380216E0
7.815945690E-1,-1.260000110E0,7.189950466E0,-1.249050021E0,7.405613677E0
7.835547810E-1,-1.144950032E0,7.152000427E0,-1.287000060E0,7.356520226E0
7.855149250E-1,-1.183050036E0,7.189950466E0,-1.402050018E0,7.420292403E0
7.874750890E-1,-1.260000110E0,7.267050266E0,-1.441050053E0,7.514934804E0
7.894353800E-1,-1.260000110E0,7.228050232E0,-1.555950046E0,7.500219395E0
7.913956300E-1,-1.260000110E0,7.267050266E0,-1.594050050E0,7.545768046E0
7.933559930E-1,-1.297950029E0,7.267050266E0,-1.632000089E0,7.560298813E0
7.953163230E-1,-1.260000110E0,7.228050232E0,-1.594050050E0,7.508215899E0
7.972765830E-1,-1.260000110E0,7.267050266E0,-1.555950046E0,7.537811380E0
7.992368630E-1,-1.336950064E0,7.305000305E0,-1.632000089E0,7.603544517E0
8.011968600E-1,-1.336950064E0,7.305000305E0,-1.671000123E0,7.612010664E0
8.031569400E-1,-1.375050068E0,7.305000305E0,-1.747050047E0,7.635834991E0
8.051172400E-1,-1.375050068E0,7.381950378E0,-1.824000120E0,7.727284809E0
8.070774760E-1,-1.413000107E0,7.420050144E0,-1.861950040E0,7.779496860E0
8.090376620E-1,-1.413000107E0,7.458000183E0,-1.977000117E0,7.843906265E0
8.109978630E-1,-1.489950061E0,7.534950256E0,-2.014950037E0,7.940746199E0
8.129583080E-1,-1.528050065E0,7.612050533E0,-2.092050076E0,8.040828554E0
8.149186920E-1,-1.605000019E0,7.687950134E0,-2.245050192E0,8.168283338E0
8.168789880E-1,-1.720050097E0,7.803000450E0,-2.359950066E0,8.331551636E0
8.188393100E-1,-1.758000135E0,7.957050323E0,-2.359950066E0,8.483783274E0
8.207993000E-1,-1.795950055E0,8.032950401E0,-2.475000143E0,8.595310027E0
8.227593870E-1,-1.873050094E0,8.148000717E0,-2.551950216E0,8.741320395E0
8.247195420E-1,-1.873050094E0,8.224950790E0,-2.514000177E0,8.802177518E0
8.266796830E-1,-1.911000133E0,8.302050591E0,-2.629050016E0,8.915596980E0
8.286400200E-1,-1.911000133E0,8.340000153E0,-2.629050016E0,8.950945651E0
8.306002990E-1,-1.873050094E0,8.302050591E0,-2.667000055E0,8.918814381E0
8.325602520E-1,-1.950000048E0,8.340000153E0,-2.704950094E0,8.981918378E0
8.345203010E-1,-1.987950087E0,8.340000153E0,-2.629050016E0,8.967689339E0
8.364807910E-1,-2.026050091E0,8.416950226E0,-2.667000055E0,9.058853093E0
8.384411490E-1,-2.103000164E0,8.455050468E0,-2.629050016E0,9.100680859E0
8.404010890E-1,-2.140950203E0,8.532000542E0,-2.551950216E0,9.159211261E0
8.423611510E-1,-2.218050003E0,8.647050858E0,-2.551950216E0,9.284593920E0
8.443211850E-1,-2.256000042E0,8.722949982E0,-2.514000177E0,9.354121523E0
8.462812280E-1,-2.371050119E0,8.838000298E0,-2.514000177E0,9.489590340E0
8.482413900E-1,-2.410050154E0,8.877000809E0,-2.514000177E0,9.535705637E0
8.502015240E-1,-2.524950027E0,8.953050613E0,-2.475000143E0,9.625908458E0
8.521618170E-1,-2.601000071E0,9.030000687E0,-2.398950100E0,9.698508924E0
8.541220630E-1,-2.640000105E0,9.067950249E0,-2.322000027E0,9.725687965E0
8.560822020E-1,-2.755050182E0,9.067950249E0,-2.245050192E0,9.739521219E0
8.580423730E-1,-2.908050060E0,9.145050049E0,-2.206950188E0,9.846792609E0
8.600026010E-1,-3.061050177E0,9.183000565E0,-2.092050076E0,9.903241948E0
8.619627880E-1,-3.214950085E0,9.259950638E0,-2.014950037E0,1.000712814E1
8.639228920E-1,-3.330000162E0,9.298050880E0,-1.939050078E0,1.006491761E1
8.658830210E-1,-3.445050240E0,9.375000000E0,-1.824000120E0,1.015312625E1
8.678428630E-1,-3.598050117E0,9.490050316E0,-1.708950043E0,1.029211008E1
8.698027900E-1,-3.712950230E0,9.565950394E0,-1.594050050E0,1.038433445E1
8.717627610E-1,-3.828000069E0,9.643050194E0,-1.555950046E0,1.049109061E1
8.737227160E-1,-3.904950142E0,9.643050194E0,-1.479000092E0,1.050830595E1
8.756829040E-1,-3.943050146E0,9.681000710E0,-1.441050053E0,1.055206352E1
8.776430240E-1,-4.057950020E0,9.757950783E0,-1.363950014E0,1.065574594E1
8.796026890E-1,-4.096050262E0,9.835050583E0,-1.249050021E0,1.072688089E1
8.815624880E-1,-4.134000301E0,9.949950218E0,-1.210950017E0,1.084241061E1
8.835226900E-1,-4.173000336E0,1.002600002E1,-1.134000063E0,1.091881699E1
8.854827500E-1,-4.173000336E0,1.014105034E1,-1.096050024E0,1.102071501E1
8.874425610E-1,-4.173000336E0,1.029495049E1,-1.018950105E0,1.115518698E1
8.894024450E-1,-4.210950375E0,1.041000080E1,-1.018950105E0,1.127557001E1
8.913624640E-1,-4.134000301E0,1.056300068E1,-1.018950105E0,1.138881913E1
8.933224430E-1,-4.173000336E0,1.067805004E1,-1.171950102E0,1.152424191E1
8.952823170E-1,-4.134000301E0,1.087005043E1,-1.249050021E0,1.169649866E1
8.972422190E-1,-4.096050262E0,1.098495007E1,-1.287000060E0,1.179419878E1
8.992024150E-1,-4.134000301E0,1.113795090E1,-1.479000092E0,1.197210716E1
9.011625250E-1,-4.057950020E0,1.125300026E1,-1.594050050E0,1.206805572E1
9.031226860E-1,-4.057950020E0,1.136805058E1,-1.786050081E0,1.220202881E1
9.050828320E-1,-4.018949986E0,1.144395065E1,-1.939050078E0,1.228315435E1
9.070430110E-1,-3.981000185E0,1.148295021E1,-2.053950071E0,1.232579486E1
9.090031640E-1,-3.981000185E0,1.159800053E1,-2.169000149E0,1.245257164E1
9.109632740E-1,-3.904950142E0,1.159800053E1,-2.245050192E0,1.244196537E1
9.129233970E-1,-3.865950108E0,1.155900097E1,-2.322000027E0,1.240756857E1
9.148831950E-1,-3.751050234E0,1.152105045E1,-2.398950100E0,1.235151582E1
9.168430890E-1,-3.790050268E0,1.152105045E1,-2.475000143E0,1.237839692E1
9.188029760E-1,-3.675000191E0,1.144395065E1,-2.475000143E0,1.227172599E1
9.207628620E-1,-3.598050117E0,1.132905006E1,-2.398950100E0,1.212634741E1
9.227226570E-1,-3.598050117E0,1.132905006E1,-2.359950066E0,1.211869235E1
9.246824780E-1,-3.559950113E0,1.129095078E1,-2.284050226E0,1.205718457E1
9.266421930E-1,-3.520950079E0,1.121400070E1,-2.206950188E0,1.195916094E1
9.286019390E-1,-3.559950113E0,1.117605019E1,-2.130000114E0,1.192116786E1
9.305621670E-1,-3.598050117E0,1.113795090E1,-2.130000114E0,1.189692462E1
9.325222500E-1,-3.675000191E0,1.110000038E1,-1.977000117E0,1.185850599E1
9.344823710E-1,-3.675000191E0,1.113795090E1,-1.900950074E0,1.188163237E1
9.364424810E-1,-3.598050117E0,1.110000038E1,-1.786050081E0,1.180448847E1
9.384023280E-1,-3.675000191E0,1.110000038E1,-1.594050050E0,1.180070466E1
9.403622520E-1,-3.636000156E0,1.113795090E1,-1.555950046E0,1.181928204E1
9.423224180E-1,-3.598050117E0,1.110000038E1,-1.402050018E0,1.175251962E1
9.442825000E-1,-3.636000156E0,1.110000038E1,-1.326000094E0,1.175537247E1
9.462423520E-1,-3.598050117E0,1.113795090E1,-1.210950017E0,1.176717106E1
9.482022710E-1,-3.559950113E0,1.106100082E1,-1.249050021E0,1.168670655E1
9.501624190E-1,-3.483000278E0,1.106100082E1,-1.057050109E0,1.164450021E1
9.521225000E-1,-3.406050205E0,1.102305031E1,-1.057050109E0,1.158560188E1
9.540824730E-1,-3.330000162E0,1.098495007E1,-9.420000315E-1,1.151717817E1
9.560424880E-1,-3.214950085E0,1.102305031E1,-7.890000343E-1,1.150939022E1
9.580024850E-1,-3.061050177E0,1.110000038E1,-6.360000372E-1,1.153189198E1
9.599624880E-1,-2.985000134E0,1.106100082E1,-4.819500148E-1,1.146683221E1
9.619223070E-1,-2.793000221E0,1.110000038E1,-2.910000086E-1,1.144969605E1
9.638821800E-1,-2.601000071E0,1.113795090E1,1.500000060E-2,1.143762985E1
9.658414810E-1,-2.371050119E0,1.113795090E1,1.680000126E-1,1.138876872E1
9.678009490E-1,-2.256000042E0,1.121400070E1,4.360500276E-1,1.144698596E1
9.697612200E-1,-2.065050125E0,1.132905006E1,7.429500222E-1,1.153966126E1
9.717212550E-1,-1.873050094E0,1.136805058E1,1.011000037E0,1.156559603E1
9.736812940E-1,-1.720050097E0,1.148295021E1,1.165050030E0,1.166936414E1
9.756413320E-1,-1.489950061E0,1.163595009E1,1.279950023E0,1.180057447E1
9.776015060E-1,-1.297950029E0,1.175100040E1,1.432950020E0,1.190898948E1
9.795616400E-1,-1.106999993E0,1.190400028E1,1.471050024E0,1.204552448E1
9.815210770E-1,-9.919500351E-1,1.205805016E1,1.471050024E0,1.218788442E1
9.834807190E-1,-8.380500674E-1,1.228800011E1,1.510050058E0,1.240876810E1
9.854405540E-1,-6.469500065E-1,1.247895050E1,1.471050024E0,1.258200056E1
9.874003320E-1,-6.079500318E-1,1.255605030E1,1.165050030E0,1.262463243E1
9.893600750E-1,-3.400500119E-1,1.274805069E1,1.318050027E0,1.282051817E1
9.913198150E-1,-3.400500119E-1,1.270905018E1,1.471050024E0,1.279842094E1
9.932796780E-1,-3.019500077E-1,1.282395077E1,1.471050024E0,1.291157912E1
9.952395050E-1,-1.480500102E-1,1.305405045E1,1.624950051E0,1.315563052E1
9.971996700E-1,4.200000316E-2,1.320795059E1,2.046000004E0,1.336554671E1
9.991597360E-1,1.189500093E-1,1.339905071E1,2.238000154E0,1.358518877E1
1.001120289E0,3.490500152E-1,1.362900066E1,2.275950193E0,1.382213602E1
1.003080683E0,5.790000558E-1,1.374405098E1,2.161050081E0,1.392495299E1
1.005040977E0,7.699500322E-1,1.393605042E1,2.275950193E0,1.414165031E1
1.007001300E0,1.077000022E0,1.405095100E1,2.314950228E0,1.428104155E1
1.008961244E0,1.269000053E0,1.424205112E1,2.391000032E0,1.449700874E1
1.010921300E0,1.345050097E0,1.435695076E1,2.506050110E0,1.463596536E1
1.012881470E0,1.498950124E0,1.435695076E1,2.620950222E0,1.467100087E1
1.014841606E0,1.729050040E0,1.435695076E1,2.698050022E0,1.471023872E1
1.016801629E0,1.959000111E0,1.431900024E1,2.773950100E0,1.471619002E1
1.018761685E0,2.227050066E0,1.428105068E1,2.736000061E0,1.471033164E1
1.020721810E0,2.457000017E0,1.416600037E1,2.851050138E0,1.465745211E1
1.022681914E0,2.686950207E0,1.405095100E1,2.851050138E0,1.458689180E1
1.024642121E0,2.917050123E0,1.397400093E1,2.851050138E0,1.455714156E1
1.026602298E0,3.108000040E0,1.382100105E1,2.851050138E0,1.445019797E1
1.028562269E0,3.415050268E0,1.370595074E1,2.812950134E0,1.440237280E1
1.030522300E0,3.607050180E0,1.351395035E1,2.851050138E0,1.427466819E1
1.032482295E0,3.837000132E0,1.336095047E1,2.773950100E0,1.417506143E1
1.034442300E0,4.105050087E0,1.320795059E1,2.736000061E0,1.409918761E1
1.036402294E0,4.297049999E0,1.297800064E1,2.620950222E0,1.391986061E1
1.038362295E0,4.527000427E0,1.274805069E1,2.545050144E0,1.376531182E1
1.040322115E0,4.680000305E0,1.251795101E1,2.467950106E0,1.359015372E1
1.042281988E0,4.833000183E0,1.224900055E1,2.275950193E0,1.336322770E1
1.044241829E0,4.987050056E0,1.190400028E1,2.161050081E0,1.308610058E1
1.046201680E0,5.140050411E0,1.140600014E1,1.969950080E0,1.266481980E1
1.048161654E0,5.178000450E0,1.079295063E1,1.663050056E0,1.208574398E1
1.050121596E0,5.062950134E0,1.021800041E1,1.510050058E0,1.150309731E1
1.052081472E0,4.872000217E0,9.604950905E0,1.471050024E0,1.086993359E1
1.054041367E0,4.564949989E0,9.106050491E0,1.471050024E0,1.029188574E1
1.056001384E0,4.143000126E0,8.685000420E0,1.471050024E0,9.734355166E0
1.057961365E0,3.874950171E0,8.263050079E0,1.510050058E0,9.250593852E0
1.059921679E0,3.607050180E0,7.842000484E0,1.510050058E0,8.762878168E0
1.061881899E0,3.415050268E0,7.534950256E0,1.510050058E0,8.409417036E0
1.063842087E0,3.300000191E0,7.152000427E0,1.510050058E0,8.020060009E0
1.065802285E0,3.108000040E0,6.883050442E0,1.510050058E0,7.701707526E0
1.067762566E0,2.955000162E0,6.654000282E0,1.510050058E0,7.435589882E0
1.069722822E0,2.802000046E0,6.499950409E0,1.471050024E0,7.229422366E0
1.071682823E0,2.610000134E0,6.385050297E0,1.471050024E0,7.053010433E0
1.073642900E0,2.419050217E0,6.346950531E0,1.471050024E0,6.949789433E0
1.075603021E0,2.227050066E0,6.270000458E0,1.432950020E0,6.806320849E0
1.077563129E0,1.882050037E0,6.270000458E0,1.395000100E0,6.693358153E0
1.079522976E0,1.767000079E0,6.309000492E0,1.318050027E0,6.683040652E0
1.081482900E0,1.575000048E0,6.309000492E0,1.279950023E0,6.627396504E0
1.083443253E0,1.459950089E0,6.309000492E0,1.126049995E0,6.572893584E0
1.085403494E0,1.345050097E0,6.346950531E0,1.126049995E0,6.584901624E0
1.087363768E0,1.269000053E0,6.424050331E0,1.087950110E0,6.637952940E0
1.089324033E0,1.192050099E0,6.462000370E0,1.050000072E0,6.654391961E0
1.091283673E0,1.077000022E0,6.385050297E0,1.126049995E0,6.572426107E0
1.093243496E0,6.550500393E-1,6.730050087E0,1.240950108E0,6.874781589E0
1.095202761E0,3.870000243E-1,6.883050442E0,9.349500537E-1,6.957031264E0
1.097162189E0,4.260000288E-1,6.922050476E0,7.050000429E-1,6.970888313E0
1.099122331E0,3.870000243E-1,6.997950554E0,7.429500222E-1,7.047911443E0
1.101082263E0,2.719500065E-1,7.152000427E0,7.810500264E-1,7.199660135E0
1.103042230E0,2.340000123E-1,7.305000305E0,9.730500579E-1,7.373236188E0
1.105002187E0,1.189500093E-1,7.458000183E0,9.730500579E-1,7.522150108E0
1.106962194E0,4.050000105E-3,7.573050499E0,9.349500537E-1,7.630546630E0
1.108922187E0,-3.299999982E-2,7.803000450E0,9.349500537E-1,7.858882658E0
1.110882188E0,-7.200000435E-2,7.957050323E0,9.349500537E-1,8.012113670E0
1.112842187E0,-2.250000089E-1,8.148000717E0,9.349500537E-1,8.204551925E0
1.114802187E0,-3.019500077E-1,8.340000153E0,8.200500607E-1,8.385657902E0
1.116762187E0,-3.400500119E-1,8.532000542E0,8.580000401E-1,8.581773204E0
1.118722192E0,-3.400500119E-1,8.647050858E0,8.959500194E-1,8.699991321E0
1.120682192E0,-3.780000210E-1,8.838000298E0,8.959500194E-1,8.891336216E0
1.122641832E0,-3.019500077E-1,8.953050613E0,8.959500194E-1,9.002833750E0
1.124601578E0,-2.250000089E-1,9.067950249E0,8.959500194E-1,9.114881961E0
1.126561485E0,-1.099500060E-1,9.220950127E0,1.011000037E0,9.276859992E0
1.128521345E0,-7.200000435E-2,9.336000443E0,1.087950110E0,9.399453373E0
1.130481126E0,4.050000105E-3,9.451050758E0,1.126049995E0,9.517897112E0
1.132440944E0,4.200000316E-2,9.490050316E0,1.126049995E0,9.556715314E0
1.134400839E0,2.340000123E-1,9.528000832E0,1.240950108E0,9.611322127E0
1.136360711E0,3.109500110E-1,9.528000832E0,1.203000069E0,9.608678313E0
1.138321454E0,5.410500169E-1,9.490050316E0,1.279950023E0,9.591249250E0
1.140281942E0,6.169500351E-1,9.565950394E0,1.279950023E0,9.670899976E0
1.142242024E0,7.699500322E-1,9.565950394E0,1.356000066E0,9.692211624E0
1.144202204E0,1.000050068E0,9.604950905E0,1.395000100E0,9.757110602E0
1.146162218E0,1.114950061E0,9.604950905E0,1.395000100E0,9.769555814E0
1.148122281E0,1.306950092E0,9.565950394E0,1.432950020E0,9.760577403E0
1.150082810E0,1.422000051E0,9.565950394E0,1.432950020E0,9.776647525E0
1.152043202E0,1.575000048E0,9.604950905E0,1.471050024E0,9.843764280E0
1.154003285E0,1.804950118E0,9.490050316E0,1.471050024E0,9.771534583E0
1.155963448E0,1.959000111E0,9.412950516E0,1.510050058E0,9.732500708E0
1.157923465E0,2.149950027E0,9.298050880E0,1.510050058E0,9.662105696E0
1.159883525E0,2.419050217E0,9.220950127E0,1.471050024E0,9.645813256E0
1.161843649E0,2.533950090E0,9.106050491E0,1.432950020E0,9.560042070E0
1.163803754E0,2.764050245E0,9.067950249E0,1.471050024E0,9.593314529E0
1.165763431E0,2.764050245E0,8.991000175E0,1.471050024E0,9.520611645E0
1.167723227E0,2.839950085E0,8.991000175E0,1.471050024E0,9.542923494E0
1.169683261E0,2.955000162E0,8.953050613E0,1.510050058E0,9.548266462E0
1.171643225E0,3.147000074E0,8.914950371E0,1.510050058E0,9.573933401E0
1.173603366E0,3.184950113E0,8.953050613E0,1.548000097E0,9.627945098E0
1.175563455E0,3.184950113E0,9.030000687E0,1.548000097E0,9.699542460E0
1.177523451E0,3.184950113E0,9.030000687E0,1.510050058E0,9.693558212E0
1.179483467E0,3.108000040E0,9.106050491E0,1.471050024E0,9.733643099E0
1.181443464E0,2.955000162E0,9.145050049E0,1.279950023E0,9.695475152E0
1.183403467E0,2.764050245E0,9.145050049E0,1.050000072E0,9.611160924E0
1.185363287E0,2.610000134E0,9.220950127E0,9.349500537E-1,9.628715051E0
1.187323160E0,2.419050217E0,9.298050880E0,1.087950110E0,9.668980793E0
1.189282901E0,2.341950178E0,9.490050316E0,1.356000066E0,9.868359631E0
1.191242752E0,2.188950062E0,9.604950905E0,1.663050056E0,9.990611580E0
1.193202776E0,2.074050188E0,9.757950783E0,1.930950046E0,1.016109520E1
1.195162750E0,1.920000076E0,9.873000145E0,1.930950046E0,1.024163562E1
1.197122620E0,1.651950121E0,9.910950661E0,1.777950048E0,1.020377325E1
1.199082521E0,1.345050097E0,9.949950218E0,1.548000097E0,1.015908330E1
1.201042313E0,1.306950092E0,9.949950218E0,1.471050024E0,1.014266316E1
1.203002137E0,1.192050099E0,9.873000145E0,1.432950020E0,1.004741066E1
1.204961806E0,1.039050102E0,9.757950783E0,1.356000066E0,9.906359814E0
1.206921521E0,9.619500637E-1,9.643050194E0,1.356000066E0,9.785320697E0
1.208881569E0,8.470500112E-1,9.528000832E0,1.432950020E0,9.672313029E0
1.210841519E0,6.550500393E-1,9.336000443E0,1.471050024E0,9.473857873E0
1.212801002E0,5.410500169E-1,9.298050880E0,1.471050024E0,9.429235042E0
1.214760612E0,3.870000243E-1,9.220950127E0,1.432950020E0,9.339648602E0
1.216720363E0,1.960500032E-1,9.145050049E0,1.318050027E0,9.241624958E0
1.218680072E0,4.200000316E-2,9.145050049E0,1.203000069E0,9.223931567E0
1.220640437E0,-3.299999982E-2,9.067950249E0,1.165050030E0,9.142546269E0
1.222600610E0,-3.299999982E-2,9.067950249E0,1.240950108E0,9.152527950E0
1.224560776E0,4.050000105E-3,9.030000687E0,1.279950023E0,9.120263201E0
1.226520934E0,4.050000105E-3,8.991000175E0,1.240950108E0,9.076235879E0
1.228480907E0,-7.200000435E-2,8.991000175E0,1.203000069E0,9.071409886E0
1.230440934E0,-1.099500060E-1,8.953050613E0,1.126049995E0,9.024255808E0
1.232400973E0,-1.480500102E-1,8.991000175E0,1.126049995E0,9.062449534E0
1.234361009E0,-1.480500102E-1,8.991000175E0,1.011000037E0,9.048874186E0
1.236321174E0,-2.250000089E-1,8.991000175E0,1.050000072E0,9.054899740E0
1.238281308E0,-1.870500147E-1,8.991000175E0,9.349500537E-1,9.041416010E0
1.240241421E0,-2.250000089E-1,8.991000175E0,9.730500579E-1,9.046299551E0
1.242201540E0,-2.629500031E-1,8.991000175E0,8.580000401E-1,9.035673242E0
1.244161340E0,-3.019500077E-1,8.953050613E0,7.810500264E-1,8.992125902E0
1.246121233E0,-3.019500077E-1,8.914950371E0,7.810500264E-1,8.954191927E0
1.248081110E0,-2.629500031E-1,8.838000298E0,7.050000429E-1,8.869972775E0
1.250040996E0,-3.400500119E-1,8.877000809E0,6.660000086E-1,8.908441692E0
1.252001195E0,-3.780000210E-1,8.877000809E0,7.050000429E-1,8.912971022E0
1.253961302E0,-4.930500090E-1,8.914950371E0,6.660000086E-1,8.953378940E0
1.255921240E0,-4.549500346E-1,8.914950371E0,7.050000429E-1,8.954347810E0
1.257881227E0,-6.850500107E-1,8.838000298E0,6.660000086E-1,8.889493731E0
1.259841269E0,-5.700000525E-1,8.953050613E0,6.280500293E-1,8.993134169E0
1.261801298E0,-4.930500090E-1,8.914950371E0,4.750500321E-1,8.941202993E0
1.263761428E0,-3.400500119E-1,8.877000809E0,3.220500052E-1,8.889347196E0
1.265721529E0,-3.780000210E-1,8.838000298E0,3.600000143E-1,8.853402356E0
1.267682593E0,-4.549500346E-1,8.914950371E0,2.070000172E-1,8.928951151E0
1.269643375E0,-4.930500090E-1,8.914950371E0,9.195000678E-2,8.929047722E0
1.271602549E0,-4.930500090E-1,8.838000298E0,5.295000225E-2,8.851900998E0
1.273562174E0,-4.170000255E-1,8.761950493E0,3.979500234E-1,8.780890028E0
1.275522102E0,-4.549500346E-1,8.838000298E0,5.130000114E-1,8.864558523E0
1.277481941E0,-5.320500135E-1,8.838000298E0,4.750500321E-1,8.866735533E0
1.279443005E0,-6.079500318E-1,8.838000298E0,3.220500052E-1,8.864737374E0
1.281403710E0,-6.079500318E-1,8.914950371E0,1.680000126E-1,8.937234883E0
1.283363631E0,-6.850500107E-1,8.914950371E0,5.295000225E-2,8.941389005E0
1.285323785E0,-6.469500065E-1,8.953050613E0,-2.205000073E-2,8.976421659E0
1.287283894E0,-7.230000496E-1,8.914950371E0,-2.205000073E-2,8.944247055E0
1.289244016E0,-7.620000243E-1,8.914950371E0,-2.205000073E-2,8.947484024E0
1.291204040E0,-7.999500632E-1,8.991000175E0,-2.205000073E-2,9.026543661E0
1.293164093E0,-8.770500422E-1,8.953050613E0,-2.205000073E-2,8.995933429E0
1.295124079E0,-9.529500604E-1,8.991000175E0,-6.105000153E-2,9.041566517E0
1.297084088E0,-9.919500351E-1,8.991000175E0,-6.105000153E-2,9.045760119E0
1.299044266E0,-1.068000078E0,8.914950371E0,-9.900000691E-2,8.979240797E0
1.301004394E0,-1.106999993E0,8.914950371E0,-6.105000153E-2,8.983624892E0
1.302964687E0,-1.260000110E0,8.914950371E0,-9.900000691E-2,9.004095812E0
1.304924932E0,-1.297950029E0,8.991000175E0,-1.369500011E-1,9.085236031E0
1.306884886E0,-1.297950029E0,9.106050491E0,-1.369500011E-1,9.199107844E0
1.308844929E0,-1.375050068E0,9.183000565E0,-1.759500057E-1,9.287045842E0
1.310804786E0,-1.452000022E0,9.336000443E0,-1.369500011E-1,9.449230849E0
1.312764698E0,-1.489950061E0,9.451050758E0,-1.369500011E-1,9.568754722E0
1.314725073E0,-1.452000022E0,9.412950516E0,-2.140500098E-1,9.526686669E0
1.316685312E0,-1.489950061E0,9.375000000E0,-2.140500098E-1,9.495072069E0
1.318645660E0,-1.528050065E0,9.336000443E0,-2.140500098E-1,9.462645437E0
1.320605956E0,-1.567050099E0,9.259950638E0,-2.140500098E-1,9.394048607E0
1.322565906E0,-1.605000019E0,9.298050880E0,-2.140500098E-1,9.437986684E0
1.324525958E0,-1.605000019E0,9.336000443E0,-1.759500057E-1,9.474591692E0
1.326486264E0,-1.642950058E0,9.375000000E0,-2.140500098E-1,9.520279791E0
1.328446495E0,-1.758000135E0,9.375000000E0,-2.140500098E-1,9.540807454E0
1.330406636E0,-1.758000135E0,9.412950516E0,-2.520000041E-1,9.579024266E0
1.332366804E0,-1.720050097E0,9.451050758E0,-1.369500011E-1,9.607272666E0
1.334326956E0,-1.720050097E0,9.490050316E0,-9.900000691E-2,9.645176428E0
1.336287112E0,-1.758000135E0,9.451050758E0,-1.369500011E-1,9.614139598E0
1.338246950E0,-1.681950092E0,9.412950516E0,-1.759500057E-1,9.563657874E0
1.340206881E0,-1.720050097E0,9.412950516E0,-1.369500011E-1,9.569794410E0
1.342166832E0,-1.681950092E0,9.336000443E0,-1.759500057E-1,9.487930163E0
1.344126787E0,-1.681950092E0,9.336000443E0,-1.369500011E-1,9.487287056E0
1.346086795E0,-1.642950058E0,9.298050880E0,-6.105000153E-2,9.442285855E0
1.348046787E0,-1.567050099E0,9.183000565E0,-6.105000153E-2,9.315947214E0
1.350006834E0,-1.489950061E0,9.183000565E0,-1.369500011E-1,9.304096187E0
1.351966864E0,-1.452000022E0,9.183000565E0,-9.900000691E-2,9.297612835E0
1.353926851E0,-1.452000022E0,9.106050491E0,-1.369500011E-1,9.222104690E0
1.355886857E0,-1.413000107E0,9.067950249E0,-9.900000691E-2,9.177913271E0
1.357846990E0,-1.375050068E0,9.067950249E0,-1.369500011E-1,9.172635374E0
1.359807086E0,-1.336950064E0,8.991000175E0,-2.205000073E-2,9.089884808E0
1.361767250E0,-1.336950064E0,8.991000175E0,-6.105000153E-2,9.090063076E0
1.363727394E0,-1.297950029E0,8.914950371E0,-2.205000073E-2,9.008967787E0
1.365687215E0,-1.183050036E0,8.953050613E0,-6.105000153E-2,9.031082426E0
1.367647145E0,-1.030050039E0,8.953050613E0,-6.105000153E-2,9.012316321E0
1.369607291E0,-9.150000215E-1,8.877000809E0,-2.205000073E-2,8.924060432E0
1.371567374E0,-7.620000243E-1,8.914950371E0,-2.205000073E-2,8.947484024E0
1.373527361E0,-6.850500107E-1,8.914950371E0,1.500000060E-2,8.941244803E0
1.375487376E0,-6.469500065E-1,8.838000298E0,5.295000225E-2,8.861805531E0
1.377447310E0,-5.320500135E-1,8.800050735E0,9.195000678E-2,8.816599399E0
1.379407217E0,-4.549500346E-1,8.838000298E0,9.195000678E-2,8.850179862E0
1.381367187E0,-3.780000210E-1,8.838000298E0,2.449500114E-1,8.849470819E0
1.383327138E0,-3.400500119E-1,8.800050735E0,2.449500114E-1,8.810024260E0
1.385287327E0,-3.019500077E-1,8.838000298E0,2.830500007E-1,8.847685594E0
1.387247446E0,-1.870500147E-1,8.877000809E0,2.449500114E-1,8.882349440E0
1.389206526E0,-3.299999982E-2,8.953050613E0,3.220500052E-1,8.958901746E0
1.391165910E0,4.200000316E-2,8.877000809E0,3.600000143E-1,8.884396849E0
1.393126059E0,8.100000024E-2,8.953050613E0,3.979500234E-1,8.962256441E0
1.395085984E0,1.960500032E-1,8.991000175E0,3.979500234E-1,9.001937790E0
1.397045997E0,2.719500065E-1,9.030000687E0,4.750500321E-1,9.046576244E0
1.399005984E0,3.490500152E-1,9.106050491E0,5.130000114E-1,9.127166070E0
1.400965972E0,3.870000243E-1,9.106050491E0,6.280500293E-1,9.135883723E0
1.402925970E0,4.639500082E-1,9.183000565E0,6.660000086E-1,9.218801711E0
1.404886646E0,5.020500422E-1,9.183000565E0,7.810500264E-1,9.229820841E0
1.406847124E0,5.790000558E-1,9.183000565E0,8.200500607E-1,9.237706563E0
1.408806908E0,5.020500422E-1,9.220950127E0,7.429500222E-1,9.264445489E0
1.410766896E0,5.020500422E-1,9.259950638E0,7.810500264E-1,9.306383788E0
1.412727968E0,5.790000558E-1,9.220950127E0,8.580000401E-1,9.278864498E0
1.414688730E0,7.320000529E-1,9.259950638E0,1.126049995E0,9.356842335E0
1.416648375E0,6.550500393E-1,9.336000443E0,1.165050030E0,9.431189553E0
1.418608347E0,5.790000558E-1,9.336000443E0,1.087950110E0,9.416994253E0
1.420568037E0,5.020500422E-1,9.375000000E0,1.165050030E0,9.460445064E0
1.422527809E0,4.639500082E-1,9.375000000E0,1.203000069E0,9.463249113E0
1.424488177E0,4.260000288E-1,9.451050758E0,1.165050030E0,9.532112989E0
1.426448360E0,3.490500152E-1,9.490050316E0,1.165050030E0,9.567665989E0
1.428408330E0,2.719500065E-1,9.565950394E0,1.087950110E0,9.631458829E0
1.430368362E0,2.340000123E-1,9.565950394E0,9.730500579E-1,9.618159354E0
1.432328356E0,1.189500093E-1,9.604950905E0,8.959500194E-1,9.647380858E0
1.434288362E0,1.570500135E-1,9.604950905E0,8.959500194E-1,9.647925841E0
1.436248605E0,1.189500093E-1,9.681000710E0,7.810500264E-1,9.713185007E0
1.438208765E0,4.200000316E-2,9.757950783E0,7.050000429E-1,9.783475484E0
1.440168874E0,4.200000316E-2,9.757950783E0,6.660000086E-1,9.780742482E0
1.442128998E0,-3.299999982E-2,9.835050583E0,7.429500222E-1,9.863127481E0
1.444088841E0,4.050000105E-3,9.873000145E0,6.280500293E-1,9.892956843E0
1.446048767E0,4.050000105E-3,9.949950218E0,5.899500251E-1,9.967425283E0
1.448008784E0,-7.200000435E-2,1.002600002E1,6.660000086E-1,1.004835392E1
1.449968770E0,-3.299999982E-2,1.010295010E1,6.280500293E-1,1.012250643E1
1.451928908E0,-3.299999982E-2,1.025595093E1,6.660000086E-1,1.027760548E1
1.453889001E0,-7.200000435E-2,1.033305073E1,5.899500251E-1,1.035012862E1
1.455848806E0,-1.480500102E-1,1.044795036E1,5.899500251E-1,1.046564029E1
1.457808695E0,-1.870500147E-1,1.048605061E1,4.360500276E-1,1.049677973E1
1.459768569E0,-3.400500119E-1,1.052505016E1,3.220500052E-1,1.053546540E1
1.461728454E0,-3.780000210E-1,1.063995075E1,3.220500052E-1,1.065153286E1
1.463688293E0,-4.170000255E-1,1.063995075E1,3.979500234E-1,1.065555279E1
1.465648146E0,-5.320500135E-1,1.067805004E1,5.130000114E-1,1.070359748E1
1.467608126E0,-6.850500107E-1,1.083105087E1,4.360500276E-1,1.086145000E1
1.469568068E0,-7.620000243E-1,1.087005043E1,3.600000143E-1,1.090267125E1
1.471527958E0,-8.770500422E-1,1.094595051E1,2.830500007E-1,1.098467872E1
1.473487853E0,-9.150000215E-1,1.094595051E1,3.220500052E-1,1.098884770E1
1.475449132E0,-9.919500351E-1,1.102305031E1,2.449500114E-1,1.107030277E1
1.477410005E0,-1.068000078E0,1.102305031E1,2.449500114E-1,1.107737617E1
1.479369631E0,-1.183050036E0,1.102305031E1,2.449500114E-1,1.108905974E1
1.481329622E0,-1.260000110E0,1.102305031E1,2.449500114E-1,1.109753301E1
1.483289313E0,-1.297950029E0,1.098495007E1,2.449500114E-1,1.106407713E1
1.485249089E0,-1.567050099E0,1.102305031E1,2.830500007E-1,1.113747734E1
1.487208542E0,-1.681950092E0,1.106100082E1,2.449500114E-1,1.119083088E1
1.489168089E0,-1.605000019E0,1.110000038E1,2.070000172E-1,1.121734739E1
1.491127985E0,-1.605000019E0,1.098495007E1,1.680000126E-1,1.110285445E1
1.493087779E0,-1.567050099E0,1.094595051E1,1.300500035E-1,1.105831775E1
1.495047505E0,-1.567050099E0,1.098495007E1,1.680000126E-1,1.109743204E1
1.497007247E0,-1.642950058E0,1.098495007E1,1.680000126E-1,1.110840388E1
1.498967065E0,-1.605000019E0,1.090800095E1,1.680000126E-1,1.102672815E1
1.500926861E0,-1.567050099E0,1.094595051E1,1.300500035E-1,1.105831775E1
1.502886716E0,-1.681950092E0,1.083105087E1,5.295000225E-2,1.096099552E1
1.504846553E0,-1.681950092E0,1.083105087E1,-9.900000691E-2,1.096131471E1
1.506806581E0,-1.758000135E0,1.079295063E1,-1.369500011E-1,1.093604604E1
1.508766553E0,-1.681950092E0,1.087005043E1,-2.205000073E-2,1.099942902E1
1.510726424E0,-1.567050099E0,1.090800095E1,-1.759500057E-1,1.102139234E1
1.512686324E0,-1.489950061E0,1.094595051E1,-2.140500098E-1,1.104896380E1
1.514646116E0,-1.375050068E0,1.094595051E1,-2.140500098E-1,1.103405694E1
1.516605940E0,-1.297950029E0,1.106100082E1,-1.369500011E-1,1.113773625E1
1.518565429E0,-1.222050071E0,1.110000038E1,-1.759500057E-1,1.116845438E1
1.520525017E0,-1.068000078E0,1.110000038E1,-9.900000691E-2,1.115170093E1
1.522484951E0,-9.529500604E-1,1.113795090E1,-1.759500057E-1,1.118002784E1
1.524444784E0,-8.770500422E-1,1.125300026E1,-1.369500011E-1,1.128795761E1
1.526404813E0,-6.850500107E-1,1.121400070E1,-1.369500011E-1,1.123574032E1
1.528364784E0,-6.850500107E-1,1.129095078E1,-2.910000086E-1,1.131545598E1
1.530324794E0,-5.700000525E-1,1.136805058E1,-1.759500057E-1,1.138369151E1
1.532284789E0,-3.780000210E-1,1.136805058E1,-2.205000073E-2,1.137435467E1
1.534244565E0,-3.019500077E-1,1.140600014E1,1.500000060E-2,1.141000604E1
1.536204406E0,-1.870500147E-1,1.144395065E1,5.295000225E-2,1.144560169E1
1.538164118E0,-7.200000435E-2,1.140600014E1,1.500000060E-2,1.140623725E1
1.540123868E0,-3.299999982E-2,1.144395065E1,1.500000060E-2,1.144400806E1
1.542083546E0,4.050000105E-3,1.148295021E1,9.195000678E-2,1.148331906E1
1.544043248E0,4.200000316E-2,1.152105045E1,1.300500035E-1,1.152186098E1
1.546003073E0,1.570500135E-1,1.144395065E1,1.680000126E-1,1.144626119E1
1.547962861E0,2.340000123E-1,1.148295021E1,2.449500114E-1,1.148794595E1
1.549921817E0,2.340000123E-1,1.148295021E1,3.600000143E-1,1.149097479E1
1.551881017E0,2.719500065E-1,1.152105045E1,4.750500321E-1,1.153404668E1
1.553841032E0,4.260000288E-1,1.155900097E1,5.509500504E-1,1.157996224E1
1.555800798E0,3.870000243E-1,1.155900097E1,7.050000429E-1,1.158694513E1
1.557760658E0,4.260000288E-1,1.159800053E1,8.580000401E-1,1.163749356E1
1.559720490E0,3.870000243E-1,1.163595009E1,9.349500537E-1,1.167986451E1
1.561680474E0,3.490500152E-1,1.167405033E1,1.087950110E0,1.172983045E1
1.563640413E0,3.109500110E-1,1.167405033E1,1.126049995E0,1.173235397E1
1.565600083E0,2.340000123E-1,1.171305084E1,1.203000069E0,1.177699135E1
1.567559819E0,1.570500135E-1,1.175100040E1,1.356000066E0,1.183002161E1
1.569519683E0,1.189500093E-1,1.175100040E1,1.510050058E0,1.184822395E1
1.571479509E0,-3.299999982E-2,1.175100040E1,1.510050058E0,1.184767280E1
1.573439044E0,-7.200000435E-2,1.175100040E1,1.585950017E0,1.185775830E1
1.575398665E0,-1.480500102E-1,1.175100040E1,1.777950048E0,1.188566513E1
1.577358369E0,-2.629500031E-1,1.167405033E1,1.855050087E0,1.182344301E1
1.579318048E0,-2.250000089E-1,1.159800053E1,2.122950077E0,1.179284352E1
1.581278058E0,-3.400500119E-1,1.152105045E1,2.314950228E0,1.175624226E1
1.583237971E0,-3.019500077E-1,1.148295021E1,2.506050110E0,1.175710876E1
1.585197446E0,-3.019500077E-1,1.140600014E1,2.736000061E0,1.173344405E1
1.587157050E0,-3.400500119E-1,1.132905006E1,2.773950100E0,1.166866781E1
1.589116816E0,-2.629500031E-1,1.117605019E1,2.928000212E0,1.155622887E1
1.591076524E0,-2.250000089E-1,1.110000038E1,3.157950163E0,1.154267225E1
1.593036170E0,-1.870500147E-1,1.098495007E1,3.157950163E0,1.143139383E1
1.594995834E0,-1.099500060E-1,1.083105087E1,3.273000240E0,1.131531186E1
1.596955575E0,-3.299999982E-2,1.071600056E1,3.388050079E0,1.123888964E1
1.598915294E0,4.050000105E-3,1.063995075E1,3.463950157E0,1.118961658E1
1.600874798E0,1.189500093E-1,1.048605061E1,3.655950069E0,1.110573624E1
1.602834368E0,2.719500065E-1,1.037100029E1,3.733050108E0,1.102575471E1
1.604794215E0,4.260000288E-1,1.033305073E1,3.733050108E0,1.099495687E1
1.606753981E0,5.020500422E-1,1.014105034E1,3.733050108E0,1.081797667E1
1.608714427E0,6.169500351E-1,9.988050461E0,3.808950186E0,1.070746846E1
1.610674673E0,7.320000529E-1,9.835050583E0,3.886050224E0,1.060025615E1
1.612634617E0,9.240000248E-1,9.681000710E0,3.924000263E0,1.048681691E1
1.614594660E0,9.619500637E-1,9.565950394E0,3.924000263E0,1.038414816E1
1.616554473E0,1.192050099E0,9.451050758E0,3.886050224E0,1.028808681E1
1.618514353E0,1.269000053E0,9.259950638E0,3.886050224E0,1.012217532E1
1.620474327E0,1.345050097E0,9.183000565E0,3.808950186E0,1.003218623E1
1.622434274E0,1.345050097E0,8.991000175E0,3.655950069E0,9.798633314E0
1.624394149E0,1.459950089E0,8.914950371E0,3.618000269E0,9.731275370E0
1.626354045E0,1.575000048E0,8.800050735E0,3.618000269E0,9.644244089E0
1.628314017E0,1.767000079E0,8.800050735E0,3.655950069E0,9.691705378E0
1.630273966E0,1.843950033E0,8.685000420E0,3.694050074E0,9.616412531E0
1.632233616E0,1.959000111E0,8.608050346E0,3.694050074E0,9.569859881E0
1.634193353E0,2.188950062E0,8.532000542E0,3.771000147E0,9.581595782E0
1.636153203E0,2.304000139E0,8.455050468E0,3.886050224E0,9.586327838E0
1.638113029E0,2.494950056E0,8.340000153E0,3.886050224E0,9.533192785E0
1.640072879E0,2.494950056E0,8.263050079E0,3.808950186E0,9.434557431E0
1.642032721E0,2.686950207E0,8.187000275E0,3.579000235E0,9.330376069E0
1.643992748E0,2.802000046E0,8.148000717E0,3.502950191E0,9.301170893E0
1.645952721E0,2.878050089E0,8.110050201E0,3.349050045E0,9.234296009E0
1.647912556E0,2.992950201E0,8.071949959E0,3.234000206E0,9.196351688E0
1.649872425E0,3.147000074E0,8.032950401E0,3.118950129E0,9.173862410E0
1.651832132E0,3.223050117E0,7.995000362E0,3.004050255E0,9.128658214E0
1.653791886E0,3.415050268E0,7.995000362E0,2.889000177E0,9.161272900E0
1.655751882E0,3.529950142E0,7.995000362E0,2.736000061E0,9.157853195E0
1.657711807E0,3.645000219E0,7.957050323E0,2.659050226E0,9.147197634E0
1.659671632E0,3.376950264E0,7.497000217E0,1.395000100E0,8.339953874E0
1.661631493E0,3.682950258E0,7.497000217E0,1.279950023E0,8.450290346E0
1.663591516E0,3.913050175E0,7.612050533E0,1.471050024E0,8.684426473E0
1.665551491E0,4.066950321E0,7.650000572E0,1.624950051E0,8.814933712E0
1.667511540E0,4.105050087E0,7.726950169E0,1.777950048E0,8.928510598E0
1.669471568E0,4.182000160E0,7.803000450E0,1.777950048E0,9.029786694E0
1.671431707E0,4.219950199E0,7.803000450E0,1.624950051E0,9.018606233E0
1.673391807E0,4.182000160E0,7.879950523E0,1.510050058E0,9.047817238E0
1.675351791E0,4.219950199E0,7.995000362E0,1.395000100E0,9.147351297E0
1.677311809E0,4.182000160E0,8.110050201E0,1.240950108E0,9.208799964E0
1.679271671E0,4.066950321E0,8.377950668E0,1.165050030E0,9.385493268E0
1.681231579E0,3.913050175E0,8.569950104E0,1.011000037E0,9.475132058E0
1.683191590E0,3.760050297E0,8.877000809E0,9.730500579E-1,9.689476147E0
1.685151573E0,3.682950258E0,9.067950249E0,9.730500579E-1,9.835581871E0
1.687111397E0,3.682950258E0,9.336000443E0,9.349500537E-1,1.007964079E1
1.689071267E0,3.568050146E0,9.565950394E0,9.349500537E-1,1.025243973E1
1.691031243E0,3.492000103E0,9.796050072E0,1.050000072E0,1.045271074E1
1.692991188E0,3.415050268E0,9.949950218E0,1.126049995E0,1.057979519E1
1.694951062E0,3.262050152E0,1.021800041E1,1.279950023E0,1.080216532E1
1.696910958E0,3.147000074E0,1.041000080E1,1.356000066E0,1.095949188E1
1.698870975E0,3.070050240E0,1.063995075E1,1.395000100E0,1.116153152E1
1.700830956E0,2.878050089E0,1.083105087E1,1.395000100E0,1.129339898E1
1.702790781E0,2.725050211E0,1.102305031E1,1.471050024E0,1.144978275E1
1.704750651E0,2.610000134E0,1.117605019E1,1.432950020E0,1.156587845E1
1.706710434E0,2.494950056E0,1.136805058E1,1.432950020E0,1.172649545E1
1.708670252E0,2.380050182E0,1.152105045E1,1.395000100E0,1.184674080E1
1.710629923E0,2.227050066E0,1.167405033E1,1.395000100E0,1.196617016E1
1.712589637E0,2.074050188E0,1.182795048E1,1.203000069E0,1.206852542E1
1.714549145E0,1.959000111E0,1.190400028E1,1.087950110E0,1.211307309E1
1.716508714E0,1.729050040E0,1.205805016E1,1.050000072E0,1.222655666E1
1.718468977E0,1.537050128E0,1.217295074E1,9.730500579E-1,1.230813062E1
1.720429029E0,1.384050012E0,1.232595062E1,7.810500264E-1,1.242798022E1
1.722388841E0,1.230000019E0,1.244100094E1,5.130000114E-1,1.251217701E1
1.724348724E0,1.039050102E0,1.259400082E1,3.600000143E-1,1.264191764E1
1.726309103E0,8.850000501E-1,1.259400082E1,1.680000126E-1,1.262617542E1
1.728269337E0,6.940500140E-1,1.263300037E1,1.680000126E-1,1.265316671E1
1.730228217E0,5.790000558E-1,1.267095089E1,1.300500035E-1,1.268483940E1
1.732187493E0,3.490500152E-1,1.267095089E1,2.449500114E-1,1.267812419E1
1.734147300E0,2.340000123E-1,1.263300037E1,2.830500007E-1,1.263833738E1
1.736106952E0,4.050000105E-3,1.251795101E1,2.830500007E-1,1.252115135E1
1.738066247E0,-2.250000089E-1,1.240305042E1,3.600000143E-1,1.241031365E1
1.740025647E0,-4.549500346E-1,1.224900055E1,3.600000143E-1,1.226273191E1
1.741986280E0,-6.850500107E-1,1.209600067E1,2.449500114E-1,1.211785981E1
1.743946558E0,-9.150000215E-1,1.201905060E1,2.070000172E-1,1.205560663E1
1.745906151E0,-1.106999993E0,1.182795048E1,9.195000678E-2,1.187999648E1
1.747865944E0,-1.297950029E0,1.159800053E1,1.500000060E-2,1.167041197E1
1.749825664E0,-1.297950029E0,1.148295021E1,1.500000060E-2,1.155608259E1
1.751785406E0,-1.452000022E0,1.132905006E1,1.500000060E-2,1.142172948E1
1.753745050E0,-1.605000019E0,1.121400070E1,-2.205000073E-2,1.132829745E1
1.755704719E0,-1.758000135E0,1.117605019E1,-2.205000073E-2,1.131349409E1
1.757664280E0,-1.834950089E0,1.110000038E1,-9.900000691E-2,1.125108223E1
1.759623872E0,-1.987950087E0,1.106100082E1,1.500000060E-2,1.123823428E1
1.761583716E0,-2.065050125E0,1.106100082E1,-9.900000691E-2,1.125255403E1
1.763543486E0,-2.065050125E0,1.102305031E1,-9.900000691E-2,1.121525172E1
1.765503390E0,-2.026050091E0,1.102305031E1,-2.205000073E-2,1.120772070E1
1.767463255E0,-2.026050091E0,1.098495007E1,-2.205000073E-2,1.117025036E1
1.769423233E0,-1.987950087E0,1.083105087E1,-2.205000073E-2,1.101199776E1
1.771383178E0,-1.911000133E0,1.075500011E1,1.500000060E-2,1.092346895E1
1.773342693E0,-1.950000048E0,1.071600056E1,-6.105000153E-2,1.089214833E1
1.775302334E0,-1.987950087E0,1.063995075E1,9.195000678E-2,1.082446083E1
1.777262385E0,-1.911000133E0,1.063995075E1,5.295000225E-2,1.081033197E1
1.779222322E0,-1.795950055E0,1.060095024E1,1.500000060E-2,1.075201412E1
1.781182108E0,-1.758000135E0,1.052505016E1,-6.105000153E-2,1.067103428E1
1.783141939E0,-1.720050097E0,1.048605061E1,-1.759500057E-1,1.062764264E1
1.785101787E0,-1.605000019E0,1.041000080E1,-3.289500177E-1,1.053813787E1
1.787061630E0,-1.413000107E0,1.048605061E1,-4.060500264E-1,1.058861196E1
1.789021482E0,-1.297950029E0,1.044795036E1,-3.670500219E-1,1.053466026E1
1.790981327E0,-1.260000110E0,1.041000080E1,-4.819500148E-1,1.049704686E1
1.792940994E0,-1.106999993E0,1.044795036E1,-5.209500194E-1,1.051933956E1
1.794900714E0,-9.919500351E-1,1.044795036E1,-5.209500194E-1,1.050785518E1
1.796860626E0,-9.529500604E-1,1.044795036E1,-5.590500236E-1,1.050620376E1
1.798820481E0,-8.770500422E-1,1.041000080E1,-6.739500165E-1,1.046859790E1
1.800780142E0,-8.380500674E-1,1.037100029E1,-7.120500207E-1,1.042914139E1
1.802739863E0,-8.380500674E-1,1.033305073E1,-7.120500207E-1,1.039140416E1
1.804699684E0,-7.620000243E-1,1.025595093E1,-7.890000343E-1,1.031444107E1
1.806659476E0,-6.079500318E-1,1.021800041E1,-7.890000343E-1,1.026643350E1
1.808619376E0,-5.320500135E-1,1.018005085E1,-7.510500550E-1,1.022157467E1
1.810579245E0,-3.019500077E-1,1.010295010E1,-7.890000343E-1,1.013820968E1
1.812538908E0,-1.480500102E-1,9.988050461E0,-7.510500550E-1,1.001734231E1
1.814498632E0,-1.099500060E-1,9.910950661E0,-7.120500207E-1,9.937104570E0
1.816458318E0,8.100000024E-2,9.720000267E0,-7.510500550E-1,9.749309841E0
1.818418016E0,1.189500093E-1,9.720000267E0,-7.120500207E-1,9.746772262E0
1.820377887E0,1.570500135E-1,9.681000710E0,-7.120500207E-1,9.708421843E0
1.822337707E0,1.960500032E-1,9.604950905E0,-7.510500550E-1,9.636264508E0
1.824297359E0,3.490500152E-1,9.451050758E0,-6.360000372E-1,9.478855015E0
1.826257074E0,4.260000288E-1,9.375000000E0,-5.590500236E-1,9.401310438E0
1.828216897E0,4.639500082E-1,9.220950127E0,-6.739500165E-1,9.257179888E0
1.830176688E0,5.020500422E-1,9.030000687E0,-7.510500550E-1,9.075078117E0
1.832137265E0,5.410500169E-1,8.953050613E0,-7.510500550E-1,9.000773666E0
1.834097611E0,5.790000558E-1,8.800050735E0,-7.890000343E-1,8.854301501E0
1.836057738E0,6.169500351E-1,8.647050858E0,-9.810000658E-1,8.724361123E0
1.838017926E0,6.550500393E-1,8.532000542E0,-1.018950105E0,8.617562481E0
1.839977894E0,7.320000529E-1,8.377950668E0,-1.057050109E0,8.476038958E0
1.841937926E0,6.940500140E-1,8.263050079E0,-9.420000315E-1,8.345481777E0
1.843897380E0,6.550500393E-1,8.148000717E0,-9.810000658E-1,8.232944028E0
1.845857003E0,6.169500351E-1,7.995000362E0,-1.134000063E0,8.098556309E0
1.847817062E0,5.790000558E-1,7.957050323E0,-1.134000063E0,8.058278170E0
1.849776996E0,6.550500393E-1,7.803000450E0,-1.134000063E0,7.912133892E0
1.851735926E0,5.410500169E-1,7.726950169E0,-1.018950105E0,7.812602213E0
1.853695151E0,3.870000243E-1,7.650000572E0,-1.018950105E0,7.727259352E0
1.855655148E0,3.109500110E-1,7.534950256E0,-1.096050024E0,7.620596494E0
1.857614919E0,3.109500110E-1,7.497000217E0,-1.134000063E0,7.588653261E0
1.859574903E0,2.719500065E-1,7.458000183E0,-1.210950017E0,7.560563701E0
1.861534832E0,2.340000123E-1,7.381950378E0,-1.287000060E0,7.496953818E0
1.863494665E0,1.960500032E-1,7.305000305E0,-1.326000094E0,7.426960436E0
1.865454526E0,1.960500032E-1,7.228050232E0,-1.479000092E0,7.380419164E0
1.867414594E0,1.189500093E-1,7.228050232E0,-1.516950130E0,7.386473919E0
1.869374601E0,8.100000024E-2,7.267050266E0,-1.516950130E0,7.424130809E0
1.871334406E0,4.050000105E-3,7.228050232E0,-1.555950046E0,7.393626113E0
1.873294281E0,-3.299999982E-2,7.228050232E0,-1.516950130E0,7.385589811E0
1.875254256E0,-7.200000435E-2,7.228050232E0,-1.594050050E0,7.402086849E0
1.877214202E0,-1.480500102E-1,7.228050232E0,-1.632000089E0,7.411481178E0
1.879174211E0,-1.870500147E-1,7.228050232E0,-1.671000123E0,7.421047047E0
1.881134202E0,-2.629500031E-1,7.152000427E0,-1.671000123E0,7.349319304E0
1.883094060E0,-3.019500077E-1,7.152000427E0,-1.555950046E0,7.325521446E0
1.885053964E0,-4.549500346E-1,7.228050232E0,-1.441050053E0,7.384329011E0
1.887013979E0,-6.469500065E-1,7.305000305E0,-1.479000092E0,7.481244217E0
1.888973962E0,-6.469500065E-1,7.305000305E0,-1.555950046E0,7.496836287E0
1.890934145E0,-6.469500065E-1,7.420050144E0,-1.747050047E0,7.650351124E0
1.892894269E0,-7.620000243E-1,7.381950378E0,-1.632000089E0,7.598503781E0
1.894854384E0,-7.620000243E-1,7.420050144E0,-1.708950043E0,7.652339409E0
1.896814502E0,-7.620000243E-1,7.381950378E0,-1.671000123E0,7.606975538E0
1.898774842E0,-7.230000496E-1,7.458000183E0,-1.632000089E0,7.668632218E0
1.900735116E0,-8.380500674E-1,7.458000183E0,-1.632000089E0,7.680333257E0
1.902695295E0,-9.150000215E-1,7.420050144E0,-1.708950043E0,7.669085958E0
1.904655502E0,-9.529500604E-1,7.458000183E0,-1.747050047E0,7.718941923E0
1.906615602E0,-1.030050039E0,7.458000183E0,-1.747050047E0,7.728839090E0
1.908575733E0,-1.068000078E0,7.420050144E0,-1.708950043E0,7.688841171E0
1.910535935E0,-1.144950032E0,7.381950378E0,-1.671000123E0,7.654824843E0
1.912496116E0,-1.144950032E0,7.305000305E0,-1.747050047E0,7.597770982E0
1.914456400E0,-1.144950032E0,7.267050266E0,-1.671000123E0,7.544081890E0
1.916416654E0,-1.183050036E0,7.189950466E0,-1.861950040E0,7.520761467E0
1.918376842E0,-1.222050071E0,7.189950466E0,-1.786050081E0,7.508579691E0
1.920337046E0,-1.144950032E0,7.152000427E0,-1.747050047E0,7.450785499E0
1.922297325E0,-1.106999993E0,7.189950466E0,-1.786050081E0,7.490715025E0
1.924257582E0,-1.030050039E0,7.113000393E0,-1.671000123E0,7.378890098E0
1.926217584E0,-1.068000078E0,7.113000393E0,-1.708950043E0,7.392963479E0
1.928177661E0,-9.919500351E-1,7.152000427E0,-1.747050047E0,7.428812748E0
1.930137603E0,-9.529500604E-1,7.189950466E0,-1.824000120E0,7.478668194E0
1.932097584E0,-9.919500351E-1,7.189950466E0,-1.900950074E0,7.502863704E0
1.934057812E0,-9.919500351E-1,7.189950466E0,-1.824000120E0,7.483737637E0
1.936017967E0,-9.919500351E-1,7.189950466E0,-1.747050047E0,7.465355748E0
1.937977761E0,-9.919500351E-1,7.152000427E0,-1.747050047E0,7.428812748E0
1.939937661E0,-9.150000215E-1,7.113000393E0,-1.747050047E0,7.381340224E0
1.941897807E0,-9.529500604E-1,7.113000393E0,-1.747050047E0,7.386140553E0
1.943857885E0,-9.529500604E-1,7.075050354E0,-1.708950043E0,7.340637682E0
1.945817918E0,-9.529500604E-1,7.075050354E0,-1.786050081E0,7.358969100E0
1.947777964E0,-8.380500674E-1,7.113000393E0,-1.786050081E0,7.381536249E0
1.949738090E0,-8.380500674E-1,7.113000393E0,-1.747050047E0,7.372196848E0
1.951698193E0,-9.150000215E-1,7.075050354E0,-1.824000120E0,7.363459716E0
1.953658414E0,-8.380500674E-1,7.075050354E0,-1.786050081E0,7.344973813E0
1.955618591E0,-8.380500674E-1,7.075050354E0,-1.824000120E0,7.354294111E0
1.957578697E0,-7.999500632E-1,7.036950111E0,-1.861950040E0,7.322939637E0
1.959538824E0,-7.999500632E-1,7.036950111E0,-1.939050078E0,7.342921910E0
1.961498847E0,-7.999500632E-1,6.997950554E0,-1.900950074E0,7.295535843E0
1.963458901E0,-7.620000243E-1,7.036950111E0,-1.861950040E0,7.318891231E0
1.965418837E0,-7.620000243E-1,7.036950111E0,-1.824000120E0,7.309328789E0
1.967378814E0,-7.230000496E-1,7.036950111E0,-1.824000120E0,7.305365999E0
1.969338862E0,-7.620000243E-1,7.036950111E0,-1.900950074E0,7.328910021E0
1.971298889E0,-7.230000496E-1,7.036950111E0,-1.939050078E0,7.334937706E0
1.973258840E0,-7.230000496E-1,6.997950554E0,-1.977000117E0,7.307706240E0
1.975218814E0,-6.850500107E-1,6.997950554E0,-2.130000114E0,7.346938543E0
1.977178679E0,-6.850500107E-1,7.036950111E0,-2.130000114E0,7.384095129E0
1.979138579E0,-7.230000496E-1,7.036950111E0,-2.092050076E0,7.376860407E0
1.981098730E0,-6.850500107E-1,7.036950111E0,-2.053950071E0,7.362517999E0
1.983058808E0,-6.850500107E-1,6.997950554E0,-2.169000149E0,7.358339970E0
1.985018660E0,-7.230000496E-1,6.997950554E0,-2.130000114E0,7.350574230E0
1.986978579E0,-7.999500632E-1,6.960000515E0,-2.130000114E0,7.322460499E0
1.988938776E0,-7.620000243E-1,7.036950111E0,-2.130000114E0,7.391631173E0
1.990898889E0,-8.770500422E-1,6.997950554E0,-2.169000149E0,7.378691644E0
1.992859050E0,-7.999500632E-1,6.960000515E0,-2.130000114E0,7.322460499E0
1.994819197E0,-8.380500674E-1,6.960000515E0,-2.130000114E0,7.326720656E0
1.996779532E0,-7.999500632E-1,6.960000515E0,-2.130000114E0,7.322460499E0
1.998739812E0,-8.380500674E-1,6.960000515E0,-2.206950188E0,7.349460131E0
2.000700109E0,-7.620000243E-1,7.036950111E0,-2.206950188E0,7.414171568E0
2.002660412E0,-7.620000243E-1,7.075050354E0,-2.245050192E0,7.461717759E0
2.004620677E0,-7.230000496E-1,7.113000393E0,-2.245050192E0,7.493847745E0
2.006580953E0,-7.620000243E-1,7.228050232E0,-2.245050192E0,7.606944495E0
2.008540770E0,-8.770500422E-1,7.342950344E0,-2.169000149E0,7.706665828E0
2.010500722E0,-9.150000215E-1,7.497000217E0,-2.092050076E0,7.837021808E0
2.012460703E0,-8.770500422E-1,7.726950169E0,-2.130000114E0,8.062994244E0
2.014420662E0,-9.529500604E-1,7.879950523E0,-2.092050076E0,8.208435148E0
2.016380490E0,-9.529500604E-1,8.071949959E0,-2.130000114E0,8.402463356E0
2.018340357E0,-1.030050039E0,8.263050079E0,-2.130000114E0,8.595109085E0
2.020300064E0,-9.919500351E-1,8.416950226E0,-2.092050076E0,8.729587017E0
2.022259818E0,-9.919500351E-1,8.532000542E0,-2.092050076E0,8.840569644E0
2.024219810E0,-9.919500351E-1,8.800050735E0,-2.053950071E0,9.090850825E0
2.026179735E0,-1.106999993E0,8.953050613E0,-1.939050078E0,9.227268257E0
2.028139793E0,-1.144950032E0,9.298050880E0,-1.861950040E0,9.551519183E0
2.030099812E0,-1.183050036E0,9.565950394E0,-1.747050047E0,9.795876591E0
2.032059629E0,-1.297950029E0,9.873000145E0,-1.708950043E0,1.010352990E1
2.034019506E0,-1.336950064E0,1.014105034E1,-1.632000089E0,1.035817367E1
2.035979306E0,-1.375050068E0,1.041000080E1,-1.594050050E0,1.062072855E1
2.037939126E0,-1.452000022E0,1.067805004E1,-1.594050050E0,1.089357849E1
2.039898841E0,-1.452000022E0,1.094595051E1,-1.594050050E0,1.115630459E1
2.041858587E0,-1.528050065E0,1.117605019E1,-1.632000089E0,1.139747599E1
2.043818629E0,-1.605000019E0,1.152105045E1,-1.671000123E0,1.175171775E1
2.045778585E0,-1.681950092E0,1.175100040E1,-1.671000123E0,1.198779413E1
2.047738603E0,-1.834950089E0,1.198095036E1,-1.708950043E0,1.224053608E1
2.049698595E0,-1.834950089E0,1.217295074E1,-1.671000123E0,1.242336561E1
2.051658552E0,-1.911000133E0,1.240305042E1,-1.594050050E0,1.265024019E1
2.053618520E0,-1.873050094E0,1.259400082E1,-1.402050018E0,1.280948545E1
2.055578705E0,-1.873050094E0,1.278600025E1,-1.249050021E0,1.298269021E1
2.057538826E0,-1.911000133E0,1.297800064E1,-1.171950102E0,1.317018941E1
2.059498685E0,-1.873050094E0,1.316895103E1,-1.210950017E0,1.335649610E1
2.061458611E0,-1.950000048E0,1.336095047E1,-1.326000094E0,1.356745274E1
2.063418578E0,-1.950000048E0,1.347600079E1,-1.402050018E0,1.368834693E1
2.065378533E0,-1.950000048E0,1.359105110E1,-1.555950046E0,1.381810952E1
2.067338361E0,-1.911000133E0,1.366695023E1,-1.594050050E0,1.389166821E1
2.069298227E0,-1.873050094E0,1.370595074E1,-1.708950043E0,1.393850467E1
2.071258294E0,-1.795950055E0,1.366695023E1,-1.786050081E0,1.389967410E1
2.073218302E0,-1.758000135E0,1.362900066E1,-1.939050078E0,1.387804521E1
2.075178436E0,-1.681950092E0,1.362900066E1,-2.053950071E0,1.388514768E1
2.077138533E0,-1.605000019E0,1.351395035E1,-2.169000149E0,1.378069086E1
2.079098562E0,-1.605000019E0,1.339905071E1,-2.169000149E0,1.366803375E1
2.081058611E0,-1.567050099E0,1.324605083E1,-2.284050226E0,1.353256791E1
2.083018618E0,-1.567050099E0,1.301595020E1,-2.359950066E0,1.332065952E1
2.084978626E0,-1.605000019E0,1.278600025E1,-2.437050104E0,1.311476423E1
2.086938804E0,-1.567050099E0,1.255605030E1,-2.551950216E0,1.290823362E1
2.088898932E0,-1.489950061E0,1.232595062E1,-2.667000055E0,1.269889362E1
2.090858866E0,-1.452000022E0,1.213395023E1,-2.743950129E0,1.252478801E1
2.092818857E0,-1.489950061E0,1.194300079E1,-2.859000206E0,1.237049317E1
2.094778528E0,-1.489950061E0,1.175100040E1,-2.896950245E0,1.219419052E1
2.096738304E0,-1.528050065E0,1.159800053E1,-3.012000084E0,1.207976398E1
2.098698477E0,-1.567050099E0,1.148295021E1,-3.127050161E0,1.200384248E1
2.100658533E0,-1.605000019E0,1.129095078E1,-3.127050161E0,1.182539797E1
2.102618570E0,-1.681950092E0,1.121400070E1,-3.165000200E0,1.177284987E1
2.104578612E0,-1.795950055E0,1.106100082E1,-3.165000200E0,1.164424330E1
2.106538570E0,-1.873050094E0,1.094595051E1,-3.012000084E0,1.150627193E1
2.108498545E0,-1.911000133E0,1.090800095E1,-3.049950123E0,1.148645297E1
2.110458728E0,-2.026050091E0,1.079295063E1,-2.896950245E0,1.135715559E1
2.112418850E0,-2.026050091E0,1.067805004E1,-2.782050133E0,1.121897654E1
2.114378695E0,-2.103000164E0,1.063995075E1,-2.667000055E0,1.116888763E1
2.116338622E0,-2.218050003E0,1.052505016E1,-2.629050016E0,1.107286461E1
2.118298588E0,-2.295000076E0,1.052505016E1,-2.551950216E0,1.107050840E1
2.120258543E0,-2.332950115E0,1.044795036E1,-2.359950066E0,1.096228477E1
2.122218416E0,-2.371050119E0,1.041000080E1,-2.398950100E0,1.094280389E1
2.124178314E0,-2.410050154E0,1.041000080E1,-2.284050226E0,1.092672613E1
2.126138151E0,-2.371050119E0,1.041000080E1,-2.245050192E0,1.091009834E1
2.128098006E0,-2.410050154E0,1.041000080E1,-2.169000149E0,1.090325731E1
2.130058160E0,-2.371050119E0,1.044795036E1,-2.130000114E0,1.092329831E1
2.132018230E0,-2.371050119E0,1.041000080E1,-1.977000117E0,1.085810871E1
2.133978219E0,-2.371050119E0,1.044795036E1,-1.977000117E0,1.089449746E1
2.135938232E0,-2.295000076E0,1.056300068E1,-1.900950074E0,1.097531867E1
2.137898094E0,-2.256000042E0,1.060095024E1,-1.747050047E0,1.097824513E1
2.139858001E0,-2.140950203E0,1.060095024E1,-1.594050050E0,1.093182553E1
2.141818002E0,-2.065050125E0,1.071600056E1,-1.516950130E0,1.101808684E1
2.143777985E0,-2.065050125E0,1.079295063E1,-1.210950017E0,1.105525284E1
2.145738123E0,-1.911000133E0,1.083105087E1,-1.096050024E0,1.105282363E1
2.147698216E0,-1.834950089E0,1.094595051E1,-8.269500136E-1,1.112945285E1
2.149658741E0,-1.720050097E0,1.098495007E1,-5.590500236E-1,1.113284497E1
2.151619139E0,-1.567050099E0,1.106100082E1,-3.670500219E-1,1.117748232E1
2.153579081E0,-1.452000022E0,1.117605019E1,-1.759500057E-1,1.127135130E1
2.155539150E0,-1.297950029E0,1.121400070E1,-6.105000153E-2,1.128903065E1
2.157498958E0,-1.183050036E0,1.136805058E1,1.680000126E-1,1.143067825E1
2.159458842E0,-1.068000078E0,1.136805058E1,1.680000126E-1,1.141934420E1
2.161418682E0,-1.106999993E0,1.140600014E1,-3.289500177E-1,1.146431403E1
2.163378535E0,-7.620000243E-1,1.159800053E1,2.830500007E-1,1.162645163E1
2.165337659E0,-6.469500065E-1,1.175100040E1,8.580000401E-1,1.180003046E1
2.167296996E0,-5.700000525E-1,1.194300079E1,8.580000401E-1,1.198734049E1
2.169256929E0,-4.549500346E-1,1.213395023E1,7.429500222E-1,1.216518403E1
2.171216687E0,-3.400500119E-1,1.232595062E1,6.280500293E-1,1.234662462E1
2.173177675E0,-2.250000089E-1,1.240305042E1,3.220500052E-1,1.240927077E1
2.175138302E0,-3.299999982E-2,1.236405087E1,5.295000225E-2,1.236420828E1
2.177097290E0,1.960500032E-1,1.259400082E1,5.899500251E-1,1.260933516E1
2.179056761E0,3.490500152E-1,1.278600025E1,9.349500537E-1,1.282488869E1
2.181017707E0,5.020500422E-1,1.301595020E1,9.730500579E-1,1.306192330E1
2.182978220E0,6.940500140E-1,1.324605083E1,9.349500537E-1,1.329713126E1
2.184937773E0,9.240000248E-1,1.339905071E1,1.087950110E0,1.347486443E1
2.186897607E0,1.077000022E0,1.351395035E1,1.203000069E0,1.361006952E1
2.188857435E0,1.269000053E0,1.366695023E1,1.279950023E0,1.378528787E1
2.190817278E0,1.306950092E0,1.366695023E1,1.356000066E0,1.379610029E1
2.192777170E0,1.498950124E0,1.370595074E1,1.318050027E0,1.385053042E1
2.194737047E0,1.729050040E0,1.378200054E1,1.510050058E0,1.397187905E1
2.196697068E0,1.920000076E0,1.378200054E1,1.624950051E0,1.400965388E1
2.198657047E0,2.188950062E0,1.370595074E1,1.624950051E0,1.397444277E1
2.200616817E0,2.533950090E0,1.370595074E1,1.777950048E0,1.405115992E1
2.202576655E0,2.649000168E0,1.362900066E1,1.969950080E0,1.402310823E1
2.204536727E0,2.992950201E0,1.347600079E1,2.046000004E0,1.395515905E1
2.206496730E0,3.300000191E0,1.324605083E1,2.008050203E0,1.379783061E1
2.208457090E0,3.492000103E0,1.305405045E1,2.046000004E0,1.366705578E1
2.210417345E0,3.760050297E0,1.278600025E1,2.161050081E0,1.350147837E1
2.212377633E0,4.027950287E0,1.236405087E1,2.046000004E0,1.316359576E1
2.214337931E0,4.143000126E0,1.190400028E1,1.930950046E0,1.275140152E1
2.216298061E0,4.258049965E0,1.136805058E1,1.777950048E0,1.226884957E1
2.218258241E0,4.143000126E0,1.090800095E1,1.701000094E0,1.179162143E1
2.220218345E0,4.105050087E0,1.052505016E1,1.701000094E0,1.142460146E1
2.222178472E0,4.066950321E0,1.006500053E1,1.777950048E0,1.100024668E1
2.224138771E0,3.952050209E0,9.720000267E0,1.816050053E0,1.064871560E1
2.226099047E0,3.837000132E0,9.336000443E0,1.816050053E0,1.025580382E1
2.228059181E0,3.682950258E0,8.991000175E0,1.816050053E0,9.884343405E0
2.230019357E0,3.529950142E0,8.722949982E0,1.777950048E0,9.576612698E0
2.231979372E0,3.415050268E0,8.416950226E0,1.701000094E0,9.241267270E0
2.233939434E0,3.337950230E0,8.110050201E0,1.624950051E0,8.919377146E0
2.235899569E0,3.108000040E0,7.803000450E0,1.624950051E0,8.554936759E0
2.237859706E0,2.955000162E0,7.573050499E0,1.548000097E0,8.275229551E0
2.239820043E0,2.955000162E0,7.342950344E0,1.510050058E0,8.057989631E0
2.241780321E0,2.764050245E0,7.113000393E0,1.471050024E0,7.771662404E0
2.243740769E0,2.686950207E0,6.922050476E0,1.471050024E0,7.569575443E0
2.245701167E0,2.533950090E0,6.691950321E0,1.432950020E0,7.297701551E0
2.247661131E0,2.380050182E0,6.499950409E0,1.395000100E0,7.061162756E0
2.249621232E0,2.227050066E0,6.424050331E0,1.395000100E0,6.940763642E0
2.251581349E0,2.074050188E0,6.346950531E0,1.318050027E0,6.806079716E0
2.253541461E0,1.920000076E0,6.270000458E0,1.318050027E0,6.688539594E0
2.255501622E0,1.804950118E0,6.232050419E0,1.356000066E0,6.628350740E0
2.257461769E0,1.537050128E0,6.232050419E0,1.356000066E0,6.560465814E0
2.259421964E0,1.459950089E0,6.270000458E0,1.279950023E0,6.563736136E0
2.261382148E0,1.306950092E0,6.270000458E0,1.240950108E0,6.523877793E0
2.263342253E0,1.269000053E0,6.346950531E0,1.240950108E0,6.590455170E0
2.265302381E0,1.039050102E0,6.424050331E0,1.240950108E0,6.624802257E0
2.267262224E0,8.850000501E-1,6.462000370E0,1.165050030E0,6.625557746E0
2.269222150E0,7.320000529E-1,6.577050209E0,1.203000069E0,6.726114978E0
2.271181408E0,5.790000558E-1,6.730050087E0,1.279950023E0,6.875106348E0
2.273140885E0,4.639500082E-1,6.807000160E0,1.356000066E0,6.956237271E0
2.275100974E0,3.490500152E-1,6.922050476E0,1.356000066E0,7.062248571E0
2.277060883E0,2.340000123E-1,7.036950111E0,1.318050027E0,7.163147266E0
2.279020899E0,1.189500093E-1,7.267050266E0,1.356000066E0,7.393436607E0
2.280980883E0,-3.299999982E-2,7.342950344E0,1.279950023E0,7.453742739E0
2.282941081E0,-1.870500147E-1,7.534950256E0,1.240950108E0,7.638744677E0
2.284901206E0,-2.629500031E-1,7.687950134E0,1.203000069E0,7.785944332E0
2.286861545E0,-3.780000210E-1,7.879950523E0,1.165050030E0,7.974574963E0
2.288821822E0,-4.930500090E-1,8.071949959E0,1.165050030E0,8.170484442E0
2.290781776E0,-5.700000525E-1,8.302050591E0,1.203000069E0,8.408100453E0
2.292741824E0,-6.469500065E-1,8.493000031E0,1.203000069E0,8.602139443E0
2.294701801E0,-6.469500065E-1,8.647050858E0,1.087950110E0,8.739202955E0
2.296661809E0,-7.230000496E-1,8.838000298E0,1.165050030E0,8.943730760E0
2.298621627E0,-7.230000496E-1,9.106050491E0,1.087950110E0,9.199267366E0
2.300581501E0,-7.230000496E-1,9.298050880E0,1.011000037E0,9.380756916E0
2.302541476E0,-6.850500107E-1,9.490050316E0,1.011000037E0,9.568305471E0
2.304501422E0,-6.469500065E-1,9.681000710E0,1.050000072E0,9.759242757E0
2.306461122E0,-6.079500318E-1,9.910950661E0,9.730500579E-1,9.977142510E0
2.308420891E0,-5.320500135E-1,1.002600002E1,9.349500537E-1,1.008354527E1
2.310380704E0,-4.930500090E-1,1.002600002E1,9.730500579E-1,1.008516739E1
2.312340504E0,-3.780000210E-1,1.014105034E1,9.730500579E-1,1.019463645E1
2.314300719E0,-3.019500077E-1,1.018005085E1,1.011000037E0,1.023458500E1
2.316260812E0,-1.870500147E-1,1.021800041E1,1.050000072E0,1.027351061E1
2.318220603E0,-7.200000435E-2,1.021800041E1,1.126049995E0,1.028011211E1
2.320180492E0,4.050000105E-3,1.025595093E1,1.126049995E0,1.031758375E1
2.322140376E0,1.570500135E-1,1.021800041E1,1.165050030E0,1.028540416E1
2.324100261E0,3.109500110E-1,1.018005085E1,1.240950108E0,1.026012097E1
2.326060956E0,4.260000288E-1,1.018005085E1,1.203000069E0,1.025973296E1
2.328021413E0,6.550500393E-1,1.018005085E1,1.279950023E0,1.028108934E1
2.329981352E0,8.470500112E-1,1.006500053E1,1.240950108E0,1.017652626E1
2.331941463E0,1.077000022E0,1.006500053E1,1.279950023E0,1.020306017E1
2.333901263E0,1.230000019E0,9.949950218E0,1.240950108E0,1.010219613E1
2.335861155E0,1.306950092E0,9.835050583E0,1.240950108E0,9.998814714E0
2.337820994E0,1.459950089E0,9.720000267E0,1.318050027E0,9.917011411E0
2.339780848E0,1.651950121E0,9.643050194E0,1.356000066E0,9.877048771E0
2.341740683E0,1.804950118E0,9.565950394E0,1.356000066E0,9.828732779E0
2.343700530E0,2.111999989E0,9.451050758E0,1.395000100E0,9.784116192E0
2.345660331E0,2.149950027E0,9.375000000E0,1.356000066E0,9.713477560E0
2.347620145E0,2.304000139E0,9.298050880E0,1.279950023E0,9.664390249E0
2.349580176E0,2.419050217E0,9.259950638E0,1.356000066E0,9.666293289E0
2.351540143E0,2.533950090E0,9.183000565E0,1.240950108E0,9.606683070E0
2.353499970E0,2.572050095E0,9.106050491E0,1.240950108E0,9.543351320E0
2.355459838E0,2.649000168E0,9.030000687E0,1.203000069E0,9.487113547E0
2.357419680E0,2.649000168E0,9.067950249E0,1.279950023E0,9.533267838E0
2.359379530E0,2.686950207E0,9.067950249E0,1.279950023E0,9.543882605E0
2.361339780E0,2.649000168E0,9.030000687E0,1.318050027E0,9.502387603E0
2.363299913E0,2.686950207E0,8.991000175E0,1.279950023E0,9.470800263E0
2.365259697E0,2.686950207E0,9.030000687E0,1.279950023E0,9.507832870E0
2.367219593E0,2.610000134E0,9.067950249E0,1.203000069E0,9.512467166E0
2.369179565E0,2.533950090E0,9.145050049E0,1.279950023E0,9.575547792E0
2.371139514E0,2.419050217E0,9.145050049E0,1.318050027E0,9.550968549E0
2.373099568E0,2.341950178E0,9.220950127E0,1.279950023E0,9.599423104E0
2.375059591E0,2.265000105E0,9.220950127E0,1.318050027E0,9.586104662E0
2.377019563E0,2.074050188E0,9.220950127E0,1.240950108E0,9.532447880E0
2.378979536E0,1.920000076E0,9.259950638E0,1.279950023E0,9.543131466E0
2.380939540E0,1.882050037E0,9.220950127E0,1.318050027E0,9.502909526E0
2.382899534E0,1.767000079E0,9.183000565E0,1.395000100E0,9.454935956E0
2.384859221E0,1.690050125E0,9.145050049E0,1.318050027E0,9.392841194E0
2.386818998E0,1.614000082E0,9.145050049E0,1.356000066E0,9.384864029E0
2.388779170E0,1.459950089E0,9.106050491E0,1.356000066E0,9.321499128E0
2.390739226E0,1.384050012E0,9.067950249E0,1.318050027E0,9.267177133E0
2.392699397E0,1.306950092E0,9.106050491E0,1.356000066E0,9.298763911E0
2.394659534E0,1.269000053E0,9.030000687E0,1.279950023E0,9.208123891E0
2.396619557E0,1.192050099E0,9.067950249E0,1.318050027E0,9.240452425E0
2.398579613E0,1.153950095E0,9.067950249E0,1.318050027E0,9.235614674E0
2.400539747E0,1.077000022E0,9.106050491E0,1.395000100E0,9.275026139E0
2.402499851E0,1.077000022E0,9.106050491E0,1.395000100E0,9.275026139E0
2.404460013E0,1.000050068E0,9.106050491E0,1.279950023E0,9.249785281E0
2.406420158E0,9.240000248E-1,9.145050049E0,1.279950023E0,9.280301100E0
2.408380179E0,9.240000248E-1,9.106050491E0,1.279950023E0,9.241872303E0
2.410340237E0,8.850000501E-1,9.259950638E0,1.203000069E0,9.379611936E0
2.412300583E0,8.470500112E-1,9.220950127E0,1.240950108E0,9.342557044E0
2.414260847E0,7.320000529E-1,9.259950638E0,1.279950023E0,9.376608233E0
2.416221117E0,7.699500322E-1,9.220950127E0,1.203000069E0,9.330913860E0
2.418181385E0,6.550500393E-1,9.259950638E0,1.203000069E0,9.360715012E0
2.420141340E0,6.940500140E-1,9.183000565E0,1.165050030E0,9.282593730E0
2.422101387E0,6.169500351E-1,9.220950127E0,1.165050030E0,9.314713638E0
2.424060537E0,5.410500169E-1,9.183000565E0,1.087950110E0,9.263037835E0
2.426019940E0,5.410500169E-1,9.067950249E0,1.050000072E0,9.144558873E0
2.427979996E0,4.639500082E-1,9.030000687E0,1.050000072E0,9.102673352E0
2.429939861E0,5.020500422E-1,8.991000175E0,1.011000037E0,9.061581511E0
2.431899749E0,4.260000288E-1,8.838000298E0,9.730500579E-1,8.901603884E0
2.433859630E0,4.260000288E-1,8.800050735E0,8.580000401E-1,8.852035531E0
2.435819860E0,3.490500152E-1,8.914950371E0,9.730500579E-1,8.974686760E0
2.437779967E0,3.490500152E-1,8.914950371E0,9.730500579E-1,8.974686760E0
2.439740084E0,3.490500152E-1,8.914950371E0,9.349500537E-1,8.970635854E0
2.441700198E0,3.109500110E-1,8.877000809E0,8.200500607E-1,8.920219469E0
2.443659864E0,3.109500110E-1,8.877000809E0,7.810500264E-1,8.916718702E0
2.445619661E0,3.870000243E-1,8.914950371E0,7.810500264E-1,8.957463272E0
2.447579700E0,1.960500032E-1,8.877000809E0,7.810500264E-1,8.913451526E0
2.449539664E0,1.570500135E-1,8.914950371E0,7.050000429E-1,8.944161776E0
2.451499986E0,1.960500032E-1,8.991000175E0,6.280500293E-1,9.015041131E0
2.453460203E0,1.960500032E-1,9.030000687E0,7.050000429E-1,9.059601154E0
2.455420526E0,2.719500065E-1,9.030000687E0,6.280500293E-1,9.055899516E0
2.457380818E0,2.719500065E-1,8.953050613E0,6.280500293E-1,8.979171394E0
2.459340953E0,3.109500110E-1,8.991000175E0,4.750500321E-1,9.008909290E0
2.461301132E0,3.109500110E-1,9.067950249E0,5.130000114E-1,9.087770939E0
2.463261146E0,3.109500110E-1,9.030000687E0,5.509500504E-1,9.052135012E0
2.465221209E0,1.960500032E-1,9.067950249E0,4.750500321E-1,9.082501299E0
2.467181332E0,2.340000123E-1,9.145050049E0,3.979500234E-1,9.156694853E0
2.469141437E0,2.340000123E-1,9.106050491E0,4.360500276E-1,9.119487441E0
2.471101566E0,1.189500093E-1,9.183000565E0,2.070000172E-1,9.186103498E0
2.473061712E0,2.340000123E-1,9.183000565E0,3.979500234E-1,9.194597305E0
2.475021867E0,2.340000123E-1,9.183000565E0,5.509500504E-1,9.202488866E0
2.476982020E0,1.570500135E-1,9.220950127E0,5.509500504E-1,9.238729994E0
2.478942354E0,1.189500093E-1,9.298050880E0,5.130000114E-1,9.312951642E0
2.480902635E0,1.189500093E-1,9.298050880E0,4.360500276E-1,9.309029966E0
2.482863693E0,1.189500093E-1,9.298050880E0,3.220500052E-1,9.304386895E0
2.484824538E0,8.100000024E-2,9.336000443E0,2.449500114E-1,9.339564539E0
2.486784529E0,4.200000316E-2,9.259950638E0,2.449500114E-1,9.263285072E0
2.488744771E0,4.200000316E-2,9.259950638E0,1.680000126E-1,9.261569728E0
2.490704910E0,4.200000316E-2,9.183000565E0,2.070000172E-1,9.185429352E0
2.492665079E0,4.200000316E-2,9.145050049E0,1.300500035E-1,9.146071146E0
2.494625450E0,4.200000316E-2,8.914950371E0,2.070000172E-1,8.917452165E0
2.496585765E0,4.200000316E-2,8.838000298E0,2.070000172E-1,8.840523868E0
2.498546028E0,-3.299999982E-2,8.761950493E0,1.680000126E-1,8.763623077E0
2.500506306E0,-1.099500060E-1,8.838000298E0,2.070000172E-1,8.841107808E0
2.502466258E0,-1.870500147E-1,9.030000687E0,9.195000678E-2,9.032405821E0
2.504426306E0,-3.019500077E-1,9.259950638E0,9.195000678E-2,9.265328619E0
2.506386136E0,-3.780000210E-1,9.490050316E0,1.500000060E-2,9.497587273E0
2.508346017E0,-3.400500119E-1,9.604950905E0,5.295000225E-2,9.611114379E0
2.510306036E0,-3.400500119E-1,9.643050194E0,1.500000060E-2,9.649055708E0
2.512266015E0,-2.629500031E-1,9.528000832E0,-2.205000073E-2,9.531654041E0
2.514226064E0,-2.629500031E-1,9.412950516E0,-1.369500011E-1,9.417618352E0
2.516186092E0,-1.870500147E-1,9.259950638E0,-6.105000153E-2,9.262040846E0
2.518146088E0,-3.019500077E-1,9.067950249E0,-1.369500011E-1,9.074009633E0
2.520106094E0,-4.170000255E-1,8.991000175E0,-2.520000041E-1,9.004192200E0
2.522066272E0,-4.170000255E-1,8.877000809E0,-1.759500057E-1,8.888531419E0
2.524026400E0,-4.549500346E-1,8.800050735E0,-1.369500011E-1,8.812867172E0
2.525986379E0,-4.930500090E-1,8.761950493E0,-1.759500057E-1,8.777575585E0
2.527946402E0,-5.700000525E-1,8.761950493E0,-1.369500011E-1,8.781539262E0
2.529906388E0,-5.700000525E-1,8.761950493E0,-2.140500098E-1,8.783079978E0
2.531866392E0,-5.700000525E-1,8.685000420E0,-2.140500098E-1,8.706316658E0
2.533826391E0,-5.700000525E-1,8.608050346E0,-1.759500057E-1,8.628695685E0
2.535786392E0,-5.320500135E-1,8.608050346E0,-2.140500098E-1,8.627133092E0
2.537746392E0,-5.700000525E-1,8.532000542E0,-2.520000041E-1,8.554731866E0
2.539706392E0,-5.700000525E-1,8.493000031E0,-2.140500098E-1,8.514796943E0
2.541666211E0,-5.320500135E-1,8.416950226E0,-2.520000041E-1,8.437513397E0
2.543626084E0,-5.700000525E-1,8.340000153E0,-2.910000086E-1,8.364519329E0
2.545586105E0,-5.320500135E-1,8.263050079E0,-2.140500098E-1,8.282927697E0
2.547546082E0,-5.700000525E-1,8.187000275E0,-2.910000086E-1,8.211976288E0
2.549506446E0,-6.079500318E-1,8.187000275E0,-2.910000086E-1,8.214697666E0
2.551466697E0,-5.320500135E-1,8.110050201E0,-2.520000041E-1,8.131389518E0
2.553426854E0,-5.700000525E-1,8.071949959E0,-2.910000086E-1,8.097280852E0
2.555387026E0,-5.320500135E-1,8.032950401E0,-2.910000086E-1,8.055808487E0
2.557347177E0,-5.320500135E-1,7.995000362E0,-2.910000086E-1,8.017966639E0
2.559307334E0,-5.320500135E-1,7.918050289E0,-3.289500177E-1,7.942720297E0
2.561267487E0,-4.930500090E-1,7.879950523E0,-3.670500219E-1,7.903887922E0
2.563227641E0,-5.320500135E-1,7.842000484E0,-2.910000086E-1,7.865413519E0
2.565187810E0,-5.700000525E-1,7.842000484E0,-4.060500264E-1,7.873166344E0
2.567147964E0,-5.700000525E-1,7.803000450E0,-3.670500219E-1,7.832396939E0
2.569108297E0,-5.320500135E-1,7.842000484E0,-3.289500177E-1,7.866908982E0
2.571068577E0,-5.320500135E-1,7.957050323E0,-3.289500177E-1,7.981599788E0
2.573028665E0,-5.320500135E-1,7.995000362E0,-2.910000086E-1,8.017966639E0
2.574988810E0,-6.079500318E-1,8.032950401E0,-2.910000086E-1,8.061177110E0
2.576948775E0,-6.469500065E-1,8.148000717E0,-2.520000041E-1,8.177527988E0
2.578908800E0,-5.700000525E-1,8.263050079E0,-2.520000041E-1,8.286519213E0
2.580868661E0,-6.079500318E-1,8.340000153E0,-9.900000691E-2,8.362715276E0
2.582828570E0,-5.700000525E-1,8.493000031E0,-2.205000073E-2,8.512134620E0
2.584788539E0,-5.320500135E-1,8.647050858E0,1.500000060E-2,8.663416806E0
2.586748491E0,-5.700000525E-1,8.722949982E0,9.195000678E-2,8.742037019E0
2.588708529E0,-5.320500135E-1,8.838000298E0,1.300500035E-1,8.854955645E0
2.590668553E0,-5.320500135E-1,8.953050613E0,2.830500007E-1,8.973310972E0
2.592628144E0,-5.320500135E-1,9.030000687E0,3.600000143E-1,9.052822191E0
2.594587862E0,-4.930500090E-1,9.145050049E0,4.750500321E-1,9.170643993E0
2.596547909E0,-4.930500090E-1,9.259950638E0,6.280500293E-1,9.294311753E0
2.598507860E0,-5.320500135E-1,9.336000443E0,7.810500264E-1,9.383710387E0
2.600468054E0,-4.930500090E-1,9.412950516E0,8.580000401E-1,9.464824340E0
2.602428173E0,-4.930500090E-1,9.528000832E0,9.730500579E-1,9.590241111E0
2.604388333E0,-4.170000255E-1,9.565950394E0,1.087950110E0,9.636645236E0
2.606348481E0,-3.780000210E-1,9.565950394E0,1.165050030E0,9.644046481E0
2.608308457E0,-3.400500119E-1,9.643050194E0,1.203000069E0,9.723747231E0
2.610268483E0,-3.400500119E-1,9.643050194E0,1.240950108E0,9.728515211E0
2.612228173E0,-3.019500077E-1,9.681000710E0,1.240950108E0,9.764881244E0
2.614187954E0,-3.019500077E-1,9.720000267E0,1.203000069E0,9.798815651E0
2.616147811E0,-2.250000089E-1,9.681000710E0,1.126049995E0,9.748866002E0
2.618107645E0,-1.870500147E-1,9.681000710E0,1.087950110E0,9.743736341E0
2.620067628E0,-1.099500060E-1,9.681000710E0,1.087950110E0,9.742561223E0
2.622027568E0,-1.099500060E-1,9.757950783E0,1.011000037E0,9.810800862E0
2.623987235E0,-7.200000435E-2,9.681000710E0,1.011000037E0,9.733913900E0
2.625947002E0,4.050000105E-3,9.720000267E0,9.730500579E-1,9.768584750E0
2.627907041E0,-3.299999982E-2,9.757950783E0,9.349500537E-1,9.802694736E0
2.629867000E0,4.200000316E-2,9.757950783E0,8.959500194E-1,9.799086382E0
2.631827142E0,8.100000024E-2,9.835050583E0,8.580000401E-1,9.872737464E0
2.633787231E0,4.200000316E-2,9.910950661E0,8.580000401E-1,9.948108919E0
2.635747446E0,4.200000316E-2,9.910950661E0,8.580000401E-1,9.948108919E0
2.637707621E0,4.200000316E-2,9.949950218E0,7.810500264E-1,9.980646897E0
2.639667547E0,8.100000024E-2,1.006500053E1,8.580000401E-1,1.010182958E1
2.641627546E0,1.189500093E-1,1.014105034E1,8.959500194E-1,1.018124636E1
2.643587185E0,1.189500093E-1,1.021800041E1,9.349500537E-1,1.026137482E1
2.645546930E0,1.960500032E-1,1.033305073E1,8.580000401E-1,1.037046465E1
2.647506637E0,1.960500032E-1,1.044795036E1,8.580000401E-1,1.048495429E1
2.649466339E0,1.570500135E-1,1.060095024E1,7.810500264E-1,1.063084427E1
2.651426030E0,1.570500135E-1,1.067805004E1,8.580000401E-1,1.071361664E1
2.653385724E0,1.189500093E-1,1.079295063E1,7.810500264E-1,1.082182848E1
2.655345820E0,4.200000316E-2,1.094595051E1,7.810500264E-1,1.097386147E1
2.657305798E0,4.200000316E-2,1.094595051E1,7.429500222E-1,1.097121558E1
2.659265956E0,-3.299999982E-2,1.117605019E1,7.810500264E-1,1.120335780E1
2.661226048E0,-1.099500060E-1,1.125300026E1,8.200500607E-1,1.128337653E1
2.663185898E0,-1.870500147E-1,1.144395065E1,8.580000401E-1,1.147759375E1
2.665145819E0,-2.250000089E-1,1.144395065E1,8.580000401E-1,1.147827494E1
2.667106147E0,-3.400500119E-1,1.159800053E1,8.200500607E-1,1.163192728E1
2.669066356E0,-3.780000210E-1,1.159800053E1,8.580000401E-1,1.163583535E1
2.671026380E0,-4.549500346E-1,1.167405033E1,9.349500537E-1,1.172026289E1
2.672986449E0,-5.320500135E-1,1.167405033E1,1.050000072E0,1.173324459E1
2.674946437E0,-6.469500065E-1,1.163595009E1,1.050000072E0,1.170112725E1
2.676906449E0,-7.620000243E-1,1.171305084E1,1.050000072E0,1.178468091E1
2.678866447E0,-8.770500422E-1,1.171305084E1,1.011000037E0,1.178927046E1
2.680826449E0,-9.919500351E-1,1.171305084E1,1.011000037E0,1.179837472E1
2.682786268E0,-1.068000078E0,1.167405033E1,8.580000401E-1,1.175415839E1
2.684746141E0,-1.144950032E0,1.167405033E1,7.810500264E-1,1.175603678E1
2.686706342E0,-1.297950029E0,1.163595009E1,6.280500293E-1,1.172495013E1
2.688666447E0,-1.375050068E0,1.155900097E1,4.360500276E-1,1.164866540E1
2.690627150E0,-1.452000022E0,1.159800053E1,3.600000143E-1,1.169408057E1
2.692587678E0,-1.605000019E0,1.159800053E1,2.449500114E-1,1.171109055E1
2.694547543E0,-1.567050099E0,1.148295021E1,9.195000678E-2,1.158974747E1
2.696507603E0,-1.528050065E0,1.148295021E1,9.195000678E-2,1.158453872E1
2.698467771E0,-1.489950061E0,1.148295021E1,5.295000225E-2,1.157933074E1
2.700427908E0,-1.452000022E0,1.148295021E1,5.295000225E-2,1.157450877E1
2.702387570E0,-1.375050068E0,1.148295021E1,5.295000225E-2,1.156510752E1
2.704347372E0,-1.260000110E0,1.148295021E1,-2.205000073E-2,1.155189301E1
2.706307248E0,-1.183050036E0,1.155900097E1,-6.105000153E-2,1.161954551E1
2.708267086E0,-1.068000078E0,1.155900097E1,1.500000060E-2,1.160824503E1
2.710226934E0,-9.150000215E-1,1.155900097E1,1.500000060E-2,1.159516940E1
2.712186779E0,-7.999500632E-1,1.167405033E1,5.295000225E-2,1.170154584E1
2.714146986E0,-6.850500107E-1,1.171305084E1,5.295000225E-2,1.173318615E1
2.716107086E0,-5.320500135E-1,1.178895092E1,1.500000060E-2,1.180096039E1
2.718067065E0,-4.549500346E-1,1.198095036E1,5.295000225E-2,1.198970203E1
2.720027083E0,-3.400500119E-1,1.205805016E1,1.500000060E-2,1.206285342E1
2.721987035E0,-1.870500147E-1,1.213395023E1,5.295000225E-2,1.213550739E1
2.723947006E0,-7.200000435E-2,1.224900055E1,9.195000678E-2,1.224955727E1
2.725907055E0,4.200000316E-2,1.232595062E1,9.195000678E-2,1.232636514E1
2.727867081E0,1.570500135E-1,1.247895050E1,2.070000172E-1,1.248165531E1
2.729826132E0,2.340000123E-1,1.255605030E1,3.600000143E-1,1.256338948E1
2.731785468E0,2.719500065E-1,1.267095089E1,3.220500052E-1,1.267795999E1
2.733746482E0,4.260000288E-1,1.263300037E1,5.899500251E-1,1.265394071E1
2.735707004E0,6.550500393E-1,1.267095089E1,8.959500194E-1,1.271946593E1
2.737667096E0,6.550500393E-1,1.267095089E1,1.165050030E0,1.274124910E1
2.739627314E0,6.940500140E-1,1.263300037E1,1.318050027E0,1.272052121E1
2.741587122E0,7.320000529E-1,1.274805069E1,1.395000100E0,1.284502416E1
2.743547064E0,7.320000529E-1,1.278600025E1,1.471050024E0,1.289114482E1
2.745507208E0,7.320000529E-1,1.278600025E1,1.548000097E0,1.290015236E1
2.747467293E0,7.699500322E-1,1.282395077E1,1.740000129E0,1.296434097E1
2.749427325E0,6.169500351E-1,1.282395077E1,1.930950046E0,1.298317791E1
2.751387372E0,6.169500351E-1,1.270905018E1,2.122950077E0,1.289990313E1
2.753346629E0,5.410500169E-1,1.278600025E1,2.353049994E0,1.301197071E1
2.755306127E0,3.870000243E-1,1.278600025E1,2.659050226E0,1.306530212E1
2.757266167E0,2.719500065E-1,1.278600025E1,2.812950134E0,1.309459613E1
2.759226048E0,2.340000123E-1,1.274805069E1,3.004050255E0,1.309930801E1
2.761186114E0,1.189500093E-1,1.270905018E1,3.196050167E0,1.310529825E1
2.763146125E0,4.200000316E-2,1.263300037E1,3.426000118E0,1.308938269E1
2.765106278E0,4.050000105E-3,1.255605030E1,3.694050074E0,1.308817869E1
2.767066375E0,-1.099500060E-1,1.251795101E1,3.886050224E0,1.310772951E1
2.769026044E0,-1.099500060E-1,1.236405087E1,4.116000175E0,1.303162692E1
2.770985839E0,-2.250000089E-1,1.228800011E1,4.116000175E0,1.296098102E1
2.772945828E0,-2.629500031E-1,1.217295074E1,4.078050137E0,1.284057497E1
2.774905760E0,-2.250000089E-1,1.201905060E1,4.153950214E0,1.271862825E1
2.776865616E0,-1.480500102E-1,1.182795048E1,4.269000053E0,1.257563886E1
2.778825478E0,-3.299999982E-2,1.163595009E1,4.461000443E0,1.246181963E1
2.780785365E0,-7.200000435E-2,1.155900097E1,4.384050369E0,1.236266901E1
2.782745245E0,-3.299999982E-2,1.136805058E1,4.384050369E0,1.218415202E1
2.784705266E0,1.570500135E-1,1.113795090E1,4.308000088E0,1.194309339E1
2.786665245E0,3.109500110E-1,1.098495007E1,4.384050369E0,1.183155592E1
2.788626105E0,3.870000243E-1,1.079295063E1,4.384050369E0,1.165579040E1
2.790586707E0,5.790000558E-1,1.060095024E1,4.498950005E0,1.153065212E1
2.792546650E0,7.699500322E-1,1.037100029E1,4.498950005E0,1.133097618E1
2.794506786E0,9.240000248E-1,1.018005085E1,4.461000443E0,1.115292501E1
2.796466898E0,1.077000022E0,1.002600002E1,4.345950127E0,1.098034098E1
2.798427017E0,1.230000019E0,9.873000145E0,4.345950127E0,1.085708591E1
2.800387175E0,1.114950061E0,9.796050072E0,4.345950127E0,1.077464585E1
2.802347322E0,1.230000019E0,9.643050194E0,4.423050404E0,1.068010730E1
2.804307298E0,1.729050040E0,9.490050316E0,4.461000443E0,1.062784992E1
2.806267324E0,1.614000082E0,9.259950638E0,4.384050369E0,1.037167198E1
2.808227364E0,1.614000082E0,9.145050049E0,4.423050404E0,1.028592784E1
2.810187399E0,1.996950150E0,9.067950249E0,4.461000443E0,1.030126480E1
2.812147550E0,2.188950062E0,8.914950371E0,4.308000088E0,1.014035045E1
2.814107683E0,2.380050182E0,8.800050735E0,4.116000175E0,1.000234919E1
2.816067661E0,2.457000017E0,8.685000420E0,4.000950336E0,9.872876226E0
2.818027685E0,2.572050095E0,8.569950104E0,3.924000263E0,9.770223362E0
2.819987500E0,2.649000168E0,8.377950668E0,3.808950186E0,9.576813709E0
2.821947377E0,2.764050245E0,8.187000275E0,3.655950069E0,9.382585900E0
2.823907548E0,2.878050089E0,8.071949959E0,3.655950069E0,9.316947964E0
2.825867654E0,3.031950235E0,7.995000362E0,3.426000118E0,9.211418449E0
2.827827637E0,3.184950113E0,7.842000484E0,3.234000206E0,9.060884954E0
2.829787656E0,3.337950230E0,7.650000572E0,3.157950163E0,8.923960428E0
2.831747292E0,3.492000103E0,7.534950256E0,3.004050255E0,8.831413138E0
2.833707041E0,3.607050180E0,7.420050144E0,2.928000212E0,8.754492583E0
2.835667009E0,3.682950258E0,7.420050144E0,2.889000177E0,8.773117392E0
2.837626933E0,3.837000132E0,7.381950378E0,2.736000061E0,8.757936842E0
2.839586946E0,3.952050209E0,7.342950344E0,2.583000183E0,8.729805872E0
2.841546933E0,4.105050087E0,7.228050232E0,2.391000032E0,8.649452441E0
2.843506756E0,4.219950199E0,7.228050232E0,2.275950193E0,8.673675064E0
2.845466627E0,4.258049965E0,7.267050266E0,2.200050116E0,8.705241501E0
2.847426648E0,4.372950077E0,7.305000305E0,2.161050081E0,8.783840805E0
2.849386625E0,4.372950077E0,7.305000305E0,1.855050087E0,8.713606180E0
2.851346315E0,4.335000038E0,7.420050144E0,1.624950051E0,8.745846565E0
2.853306089E0,4.335000038E0,7.534950256E0,1.432950020E0,8.810280725E0
2.855266667E0,4.182000160E0,7.687950134E0,1.165050030E0,8.828988854E0
2.857227010E0,3.721950293E0,7.842000484E0,2.070000172E-1,8.682898974E0
2.859186347E0,3.645000219E0,7.995000362E0,-9.900000691E-2,8.787255453E0
2.861145993E0,3.837000132E0,8.224950790E0,2.830500007E-1,9.080336052E0
2.863105692E0,3.760050297E0,8.455050468E0,7.810500264E-1,9.286328435E0
2.865065375E0,3.645000219E0,8.685000420E0,1.240950108E0,9.500274525E0
2.867025295E0,3.529950142E0,8.953050613E0,1.432950020E0,9.729902828E0
2.868985145E0,3.376950264E0,9.220950127E0,1.471050024E0,9.929436162E0
2.870945176E0,3.262050152E0,9.528000832E0,1.471050024E0,1.017780719E1
2.872905150E0,3.070050240E0,9.757950783E0,1.510050058E0,1.034036088E1
2.874864930E0,2.955000162E0,9.949950218E0,1.471050024E0,1.048320197E1
2.876824767E0,2.917050123E0,1.014105034E1,1.471050024E0,1.065429827E1
2.878784794E0,2.839950085E0,1.029495049E1,1.471050024E0,1.078032050E1
2.880744765E0,2.686950207E0,1.044795036E1,1.471050024E0,1.088776177E1
2.882704411E0,2.649000168E0,1.060095024E1,1.471050024E0,1.102548575E1
2.884664152E0,2.572050095E0,1.071600056E1,1.510050058E0,1.112332508E1
2.886624060E0,2.457000017E0,1.079295063E1,1.471050024E0,1.116640589E1
2.888583919E0,2.380050182E0,1.094595051E1,1.432950020E0,1.129299859E1
2.890544079E0,2.188950062E0,1.102305031E1,1.432950020E0,1.132927563E1
2.892504150E0,2.074050188E0,1.106100082E1,1.279950023E0,1.132632754E1
2.894463962E0,1.959000111E0,1.110000038E1,1.240950108E0,1.133964934E1
2.896423848E0,1.729050040E0,1.117605019E1,9.730500579E-1,1.135079461E1
2.898383732E0,1.575000048E0,1.121400070E1,1.011000037E0,1.136910542E1
2.900343617E0,1.459950089E0,1.121400070E1,9.349500537E-1,1.134721982E1
2.902303591E0,1.345050097E0,1.125300026E1,8.959500194E-1,1.136846080E1
2.904263538E0,1.306950092E0,1.129095078E1,7.810500264E-1,1.139314386E1
2.906223388E0,1.192050099E0,1.132905006E1,6.280500293E-1,1.140889152E1
2.908183253E0,1.000050068E0,1.132905006E1,3.979500234E-1,1.138006326E1
2.910143140E0,7.699500322E-1,1.129095078E1,3.220500052E-1,1.132175378E1
2.912103020E0,5.790000558E-1,1.129095078E1,3.979500234E-1,1.131278810E1
2.914062275E0,5.410500169E-1,1.121400070E1,6.280500293E-1,1.124459842E1
2.916021714E0,4.260000288E-1,1.129095078E1,5.509500504E-1,1.131240874E1
2.917981609E0,2.719500065E-1,1.121400070E1,4.360500276E-1,1.122576983E1
2.919941384E0,1.570500135E-1,1.113795090E1,4.360500276E-1,1.114758963E1
2.921902550E0,-3.299999982E-2,1.113795090E1,3.979500234E-1,1.114510670E1
2.923863308E0,-3.019500077E-1,1.110000038E1,2.070000172E-1,1.110603580E1
2.925823179E0,-4.170000255E-1,1.102305031E1,2.070000172E-1,1.103287706E1
2.927783310E0,-6.850500107E-1,1.102305031E1,1.680000126E-1,1.104559440E1
2.929743418E0,-7.999500632E-1,1.090800095E1,5.295000225E-2,1.093742239E1
2.931703536E0,-9.150000215E-1,1.098495007E1,1.300500035E-1,1.102375916E1
2.933663740E0,-1.106999993E0,1.094595051E1,5.295000225E-2,1.100191280E1
2.935623919E0,-1.183050036E0,1.102305031E1,5.295000225E-2,1.108648047E1
2.937584025E0,-1.183050036E0,1.094595051E1,1.500000060E-2,1.100970776E1
2.939544152E0,-1.297950029E0,1.094595051E1,-2.205000073E-2,1.102265816E1
2.941504308E0,-1.297950029E0,1.094595051E1,-1.369500011E-1,1.102348684E1
2.943464456E0,-1.452000022E0,1.094595051E1,-9.900000691E-2,1.104227955E1
2.945424432E0,-1.413000107E0,1.094595051E1,-1.759500057E-1,1.103817740E1
2.947384458E0,-1.375050068E0,1.090800095E1,-6.105000153E-2,1.099449746E1
2.949344453E0,-1.489950061E0,1.098495007E1,-1.759500057E-1,1.108693093E1
2.951304458E0,-1.528050065E0,1.098495007E1,-2.520000041E-1,1.109358233E1
2.953264258E0,-1.528050065E0,1.090800095E1,-3.670500219E-1,1.102062373E1
2.955224132E0,-1.528050065E0,1.098495007E1,-4.060500264E-1,1.109815037E1
2.957183838E0,-1.489950061E0,1.098495007E1,-4.819500148E-1,1.109600626E1
2.959143593E0,-1.413000107E0,1.098495007E1,-4.819500148E-1,1.108593582E1
2.961103769E0,-1.336950064E0,1.102305031E1,-4.440000355E-1,1.111270487E1
2.963063822E0,-1.336950064E0,1.094595051E1,-4.819500148E-1,1.103782333E1
2.965023800E0,-1.260000110E0,1.087005043E1,-5.209500194E-1,1.095522640E1
2.966983810E0,-1.183050036E0,1.075500011E1,-4.440000355E-1,1.082897829E1
2.968943988E0,-1.068000078E0,1.071600056E1,-4.819500148E-1,1.077986864E1
2.970904116E0,-1.106999993E0,1.060095024E1,-4.819500148E-1,1.066948316E1
2.972864140E0,-1.068000078E0,1.052505016E1,-4.440000355E-1,1.058841070E1
2.974824195E0,-1.030050039E0,1.044795036E1,-4.440000355E-1,1.050798772E1
2.976783993E0,-9.919500351E-1,1.044795036E1,-4.819500148E-1,1.050599388E1
2.978743843E0,-9.150000215E-1,1.033305073E1,-4.819500148E-1,1.038467324E1
2.980703688E0,-7.620000243E-1,1.025595093E1,-4.819500148E-1,1.029550627E1
2.982663535E0,-6.079500318E-1,1.014105034E1,-4.440000355E-1,1.016895478E1
2.984623741E0,-4.549500346E-1,1.002600002E1,-5.590500236E-1,1.005187509E1
2.986583841E0,-3.400500119E-1,9.988050461E0,-7.120500207E-1,1.001917168E1
2.988543976E0,-7.200000435E-2,9.910950661E0,-9.040500522E-1,9.952358188E0
2.990504121E0,4.200000316E-2,9.835050583E0,-1.018950105E0,9.887782526E0
2.992463962E0,1.570500135E-1,9.720000267E0,-9.810000658E-1,9.770641280E0
2.994423892E0,2.340000123E-1,9.565950394E0,-9.420000315E-1,9.615067706E0
2.996384083E0,3.490500152E-1,9.451050758E0,-8.659500480E-1,9.497055640E0
2.998344198E0,3.870000243E-1,9.336000443E0,-9.040500522E-1,9.387650386E0
3.000304918E0,4.639500082E-1,9.145050049E0,-8.269500136E-1,9.194076154E0
3.002265448E0,5.410500169E-1,8.991000175E0,-8.659500480E-1,9.048794879E0
3.004225899E0,5.790000558E-1,8.800050735E0,-8.659500480E-1,8.861489914E0
3.006186373E0,6.550500393E-1,8.685000420E0,-7.510500550E-1,8.741990564E0
3.008146426E0,6.940500140E-1,8.493000031E0,-7.890000343E-1,8.557761155E0
3.010106603E0,6.940500140E-1,8.340000153E0,-7.890000343E-1,8.405940103E0
3.012066758E0,7.699500322E-1,8.187000275E0,-8.269500136E-1,8.264601798E0
3.014026916E0,8.089500666E-1,8.071949959E0,-9.420000315E-1,8.166892947E0
3.015986889E0,8.850000501E-1,7.957050323E0,-8.659500480E-1,8.052809722E0
3.017946916E0,9.240000248E-1,7.842000484E0,-9.420000315E-1,7.952239414E0
3.019907091E0,1.000050068E0,7.765050411E0,-8.659500480E-1,7.876926908E0
3.021867222E0,9.619500637E-1,7.687950134E0,-9.040500522E-1,7.800463556E0
3.023827399E0,8.850000501E-1,7.687950134E0,-9.420000315E-1,7.795842893E0
3.025787549E0,8.850000501E-1,7.612050533E0,-9.420000315E-1,7.721003981E0
3.027747524E0,8.089500666E-1,7.573050499E0,-9.810000658E-1,7.679053014E0
3.029707551E0,7.320000529E-1,7.573050499E0,-8.659500480E-1,7.657466123E0
3.031667590E0,7.320000529E-1,7.534950256E0,-9.040500522E-1,7.624211824E0
3.033627626E0,6.169500351E-1,7.497000217E0,-9.040500522E-1,7.576473197E0
3.035587425E0,6.550500393E-1,7.497000217E0,-8.269500136E-1,7.570861849E0
3.037547305E0,6.550500393E-1,7.534950256E0,-9.040500522E-1,7.617208965E0
3.039506199E0,5.790000558E-1,7.573050499E0,-1.134000063E0,7.679341838E0
3.041465382E0,5.020500422E-1,7.612050533E0,-1.134000063E0,7.712413611E0
3.043425341E0,3.870000243E-1,7.573050499E0,-1.134000063E0,7.667256290E0
3.045385072E0,3.870000243E-1,7.612050533E0,-1.057050109E0,7.694831855E0
3.047345173E0,3.109500110E-1,7.687950134E0,-1.057050109E0,7.766506429E0
3.049305159E0,2.340000123E-1,7.803000450E0,-1.096050024E0,7.883076664E0
3.051265161E0,1.960500032E-1,7.765050411E0,-1.096050024E0,7.844473797E0
3.053225159E0,1.960500032E-1,7.803000450E0,-1.018950105E0,7.871690476E0
3.055185295E0,1.570500135E-1,7.842000484E0,-1.018950105E0,7.909481375E0
3.057145390E0,1.189500093E-1,7.879950523E0,-1.096050024E0,7.956701264E0
3.059105189E0,4.200000316E-2,7.918050289E0,-1.096050024E0,7.993660616E0
3.061065079E0,4.200000316E-2,7.879950523E0,-1.096050024E0,7.955922945E0
3.063025097E0,-3.299999982E-2,7.879950523E0,-1.057050109E0,7.950601498E0
3.064985077E0,-1.099500060E-1,7.879950523E0,-1.134000063E0,7.961888306E0
3.066944901E0,-1.099500060E-1,7.879950523E0,-1.171950102E0,7.967382023E0
3.068904771E0,-1.480500102E-1,7.842000484E0,-1.057050109E0,7.914306371E0
3.070864464E0,-1.480500102E-1,7.803000450E0,-9.810000658E-1,7.865818200E0
3.072824219E0,-1.480500102E-1,7.803000450E0,-9.810000658E-1,7.865818200E0
3.074784034E0,-1.099500060E-1,7.803000450E0,-9.810000658E-1,7.865193333E0
3.076743832E0,-1.099500060E-1,7.803000450E0,-1.018950105E0,7.870016794E0
3.078703553E0,-1.870500147E-1,7.842000484E0,-1.134000063E0,7.925775385E0
3.080663296E0,-1.870500147E-1,7.842000484E0,-1.249050021E0,7.943052641E0
3.082623112E0,-2.629500031E-1,7.918050289E0,-1.287000060E0,8.026271378E0
3.084582908E0,-3.780000210E-1,7.879950523E0,-1.210950017E0,7.981409914E0
3.086542808E0,-4.170000255E-1,7.879950523E0,-1.210950017E0,7.983352004E0
3.088502678E0,-4.170000255E-1,7.879950523E0,-1.171950102E0,7.977529462E0
3.090462655E0,-4.930500090E-1,7.879950523E0,-1.210950017E0,7.987685429E0
3.092422601E0,-5.320500135E-1,7.842000484E0,-1.287000060E0,7.964698235E0
3.094382831E0,-5.320500135E-1,7.879950523E0,-1.287000060E0,8.002066397E0
3.096342981E0,-5.320500135E-1,7.879950523E0,-1.326000094E0,8.008431414E0
3.098303271E0,-4.930500090E-1,7.879950523E0,-1.363950014E0,8.012307920E0
3.100263520E0,-4.930500090E-1,7.842000484E0,-1.363950014E0,7.974987746E0
3.102223658E0,-5.320500135E-1,7.803000450E0,-1.363950014E0,7.939159457E0
3.104183829E0,-4.930500090E-1,7.842000484E0,-1.402050018E0,7.981592207E0
3.106143833E0,-4.930500090E-1,7.803000450E0,-1.479000092E0,7.957220344E0
3.108103862E0,-4.549500346E-1,7.765050411E0,-1.402050018E0,7.903716321E0
3.110063901E0,-4.170000255E-1,7.726950169E0,-1.363950014E0,7.857480994E0
3.112023937E0,-4.930500090E-1,7.687950134E0,-1.363950014E0,7.823556430E0
3.113983752E0,-5.320500135E-1,7.612050533E0,-1.363950014E0,7.751564370E0
3.115943632E0,-5.700000525E-1,7.534950256E0,-1.479000092E0,7.699858226E0
3.117904006E0,-5.320500135E-1,7.458000183E0,-1.441050053E0,7.614556402E0
3.119864207E0,-6.079500318E-1,7.342950344E0,-1.326000094E0,7.486441027E0
3.121823993E0,-6.079500318E-1,7.228050232E0,-1.287000060E0,7.366863821E0
3.123783901E0,-6.469500065E-1,7.152000427E0,-1.287000060E0,7.295616737E0
3.125743782E0,-5.320500135E-1,7.113000393E0,-1.363950014E0,7.262107920E0
3.127703671E0,-6.079500318E-1,7.113000393E0,-1.326000094E0,7.261036708E0
3.129663510E0,-6.850500107E-1,7.113000393E0,-1.287000060E0,7.260884055E0
3.131623363E0,-6.850500107E-1,7.113000393E0,-1.249050021E0,7.254253515E0
3.133583522E0,-6.469500065E-1,7.152000427E0,-1.249050021E0,7.289017792E0
3.135543592E0,-5.700000525E-1,7.152000427E0,-1.287000060E0,7.289196069E0
3.137503401E0,-4.170000255E-1,7.228050232E0,-1.287000060E0,7.353568408E0
3.139463286E0,-3.400500119E-1,7.305000305E0,-1.326000094E0,7.432155792E0
3.141423319E0,-3.400500119E-1,7.342950344E0,-1.287000060E0,7.462635119E0
3.143383298E0,-4.549500346E-1,7.305000305E0,-1.287000060E0,7.431445226E0
3.145343167E0,-4.170000255E-1,7.381950378E0,-1.287000060E0,7.504895040E0
3.147303069E0,-3.780000210E-1,7.381950378E0,-1.287000060E0,7.502829104E0
3.149263265E0,-4.549500346E-1,7.381950378E0,-1.249050021E0,7.500686427E0
3.151223375E0,-4.170000255E-1,7.381950378E0,-1.326000094E0,7.511681347E0
3.153183527E0,-4.930500090E-1,7.342950344E0,-1.249050021E0,7.464726654E0
3.155143673E0,-4.930500090E-1,7.381950378E0,-1.287000060E0,7.509504568E0
3.157103469E0,-4.930500090E-1,7.305000305E0,-1.326000094E0,7.440726041E0
3.159063367E0,-5.700000525E-1,7.267050266E0,-1.326000094E0,7.408994256E0
3.161023338E0,-5.320500135E-1,7.305000305E0,-1.287000060E0,7.436563442E0
3.162983288E0,-5.320500135E-1,7.342950344E0,-1.210950017E0,7.461125714E0
3.164942983E0,-5.320500135E-1,7.381950378E0,-1.249050021E0,7.505757428E0
3.166902752E0,-4.930500090E-1,7.381950378E0,-1.326000094E0,7.516286713E0
3.168862610E0,-6.079500318E-1,7.342950344E0,-1.402050018E0,7.500284478E0
3.170822442E0,-5.320500135E-1,7.342950344E0,-1.594050050E0,7.532794470E0
3.172782290E0,-5.700000525E-1,7.381950378E0,-1.594050050E0,7.573578217E0
3.174742134E0,-5.320500135E-1,7.381950378E0,-1.594050050E0,7.570816612E0
3.176702171E0,-4.930500090E-1,7.342950344E0,-1.632000089E0,7.538265209E0
3.178662144E0,-4.930500090E-1,7.342950344E0,-1.632000089E0,7.538265209E0
3.180622329E0,-4.930500090E-1,7.305000305E0,-1.708950043E0,7.518419915E0
3.182582452E0,-5.320500135E-1,7.305000305E0,-1.708950043E0,7.521078176E0
3.184542747E0,-5.320500135E-1,7.342950344E0,-1.786050081E0,7.575748931E0
3.186502991E0,-5.700000525E-1,7.381950378E0,-1.900950074E0,7.644063228E0
3.188462950E0,-6.079500318E-1,7.420050144E0,-1.824000120E0,7.665097770E0
3.190422993E0,-6.079500318E-1,7.458000183E0,-1.861950040E0,7.710916153E0
3.192383031E0,-6.079500318E-1,7.534950256E0,-1.861950040E0,7.785366822E0
3.194343070E0,-6.469500065E-1,7.612050533E0,-1.824000120E0,7.854223964E0
3.196303197E0,-6.850500107E-1,7.687950134E0,-1.786050081E0,7.922363642E0
3.198263298E0,-6.079500318E-1,7.803000450E0,-1.786050081E0,8.027851154E0
3.200223277E0,-7.230000496E-1,7.995000362E0,-1.861950040E0,8.240729204E0
3.202183295E0,-8.380500674E-1,8.148000717E0,-1.900950074E0,8.408677351E0
3.204143516E0,-9.150000215E-1,8.377950668E0,-1.939050078E0,8.647959161E0
3.206103678E0,-1.068000078E0,8.532000542E0,-2.014950037E0,8.831516351E0
3.208064011E0,-1.030050039E0,8.722949982E0,-2.014950037E0,9.011708113E0
3.210024293E0,-1.106999993E0,8.877000809E0,-2.014950037E0,9.169875462E0
3.211984376E0,-1.106999993E0,9.067950249E0,-1.939050078E0,9.338794671E0
3.213944521E0,-1.144950032E0,9.145050049E0,-1.900950074E0,9.410444312E0
3.215904721E0,-1.144950032E0,9.220950127E0,-1.939050078E0,9.491930627E0
3.217864904E0,-1.183050036E0,9.298050880E0,-1.939050078E0,9.571482266E0
3.219825233E0,-1.297950029E0,9.412950516E0,-1.939050078E0,9.697846508E0
3.221785519E0,-1.297950029E0,9.528000832E0,-1.977000117E0,9.817128072E0
3.223745981E0,-1.375050068E0,9.643050194E0,-1.824000120E0,9.909901925E0
3.225706380E0,-1.567050099E0,9.757950783E0,-1.861950040E0,1.005684381E1
3.227666719E0,-1.642950058E0,9.910950661E0,-1.824000120E0,1.021044584E1
3.229627075E0,-1.795950055E0,1.002600002E1,-1.747050047E0,1.033432615E1
3.231587014E0,-1.911000133E0,1.021800041E1,-1.708950043E0,1.053470285E1
3.233547075E0,-2.140950203E0,1.037100029E1,-1.632000089E0,1.071469734E1
3.235507393E0,-2.332950115E0,1.056300068E1,-1.861950040E0,1.097663416E1
3.237467625E0,-2.371050119E0,1.067805004E1,-1.708950043E0,1.107082389E1
3.239427812E0,-2.371050119E0,1.087005043E1,-1.479000092E0,1.122351622E1
3.241388012E0,-2.448000193E0,1.102305031E1,-1.402050018E0,1.137831654E1
3.243348292E0,-2.563050032E0,1.113795090E1,-1.363950014E0,1.151014923E1
3.245308548E0,-2.677950144E0,1.132905006E1,-1.441050053E0,1.173010731E1
3.247268176E0,-2.793000221E0,1.148295021E1,-1.210950017E0,1.187962103E1
3.249227998E0,-2.946000099E0,1.167405033E1,-1.479000092E0,1.213053210E1
3.251188523E0,-2.946000099E0,1.178895092E1,-1.516950130E0,1.224579185E1
3.253148842E0,-3.061050177E0,1.190400028E1,-1.516950130E0,1.238452214E1
3.255109193E0,-3.061050177E0,1.201905060E1,-1.479000092E0,1.249059833E1
3.257069534E0,-3.138000250E0,1.217295074E1,-1.441050053E0,1.265323677E1
3.259029631E0,-3.138000250E0,1.228800011E1,-1.363950014E0,1.275548321E1
3.260989786E0,-3.175950050E0,1.232595062E1,-1.402050018E0,1.280552466E1
3.262949804E0,-3.138000250E0,1.240305042E1,-1.441050053E0,1.287475556E1
3.264909863E0,-3.138000250E0,1.240305042E1,-1.594050050E0,1.289277708E1
3.266870347E0,-3.061050177E0,1.236405087E1,-1.708950043E0,1.285147043E1
3.268830707E0,-2.946000099E0,1.232595062E1,-1.861950040E0,1.280916989E1
3.270790660E0,-2.908050060E0,1.224900055E1,-2.014950037E0,1.274969777E1
3.272750723E0,-2.755050182E0,1.213395023E1,-2.169000149E0,1.263042404E1
3.274710757E0,-2.640000105E0,1.205805016E1,-2.284050226E0,1.255320913E1
3.276670800E0,-2.601000071E0,1.198095036E1,-2.398950100E0,1.249253114E1
3.278630927E0,-2.601000071E0,1.186605072E1,-2.475000143E0,1.239733789E1
3.280591029E0,-2.563050032E0,1.175100040E1,-2.551950216E0,1.229502688E1
3.282551363E0,-2.524950027E0,1.167405033E1,-2.629050016E0,1.222991119E1
3.284511635E0,-2.524950027E0,1.159800053E1,-2.704950094E0,1.217397814E1
3.286471635E0,-2.485950232E0,1.155900097E1,-2.782050133E0,1.214620331E1
