"Time (s)","Acceleration x (m/s^2)","Acceleration y (m/s^2)","Acceleration z (m/s^2)","Absolute acceleration (m/s^2)"
3.532921500E-2,5.790000558E-1,9.873000145E0,1.969950080E0,1.008424892E1
3.728774100E-2,5.790000558E-1,9.910950661E0,2.046000004E0,1.013648362E1
3.924913800E-2,5.020500422E-1,9.873000145E0,1.969950080E0,1.008012348E1
4.120948400E-2,5.410500169E-1,9.873000145E0,1.969950080E0,1.008214116E1
4.317013800E-2,5.020500422E-1,9.835050583E0,1.930950046E0,1.003537953E1
4.513048700E-2,4.639500082E-1,9.835050583E0,1.816050053E0,1.001206809E1
4.709095000E-2,4.260000288E-1,9.835050583E0,1.777950048E0,1.000353949E1
4.905127600E-2,3.109500110E-1,9.796050072E0,1.740000129E0,9.954239668E0
5.101164300E-2,2.340000123E-1,9.757950783E0,1.740000129E0,9.914633626E0
5.297225400E-2,1.960500032E-1,9.757950783E0,1.740000129E0,9.913810545E0
5.493279400E-2,1.189500093E-1,9.757950783E0,1.701000094E0,9.905814146E0
5.689325400E-2,4.200000316E-2,9.757950783E0,1.663050056E0,9.898742494E0
5.885376200E-2,4.050000105E-3,9.796050072E0,1.585950017E0,9.923600701E0
6.081417100E-2,-1.099500060E-1,9.835050583E0,1.548000097E0,9.956737080E0
6.277460900E-2,-3.019500077E-1,9.835050583E0,1.510050058E0,9.954880459E0
6.473525300E-2,-3.780000210E-1,9.910950661E0,1.510050058E0,1.003245126E1
6.669583700E-2,-4.549500346E-1,9.873000145E0,1.510050058E0,9.998167961E0
6.865650800E-2,-4.549500346E-1,9.835050583E0,1.471050024E0,9.954857491E0
7.061715000E-2,-4.930500090E-1,9.873000145E0,1.471050024E0,9.994159212E0
7.257771700E-2,-5.320500135E-1,9.681000710E0,1.471050024E0,9.806571273E0
7.453830600E-2,-4.549500346E-1,9.643050194E0,1.510050058E0,9.771164094E0
7.649861000E-2,-4.170000255E-1,9.528000832E0,1.510050058E0,9.655927716E0
7.845899800E-2,-4.549500346E-1,9.451050758E0,1.585950017E0,9.593986524E0
8.041946600E-2,-4.549500346E-1,9.375000000E0,1.624950051E0,9.525653112E0
8.237991400E-2,-4.170000255E-1,9.336000443E0,1.701000094E0,9.498852278E0
8.434033400E-2,-4.549500346E-1,9.259950638E0,1.624950051E0,9.412445379E0
8.630076200E-2,-4.170000255E-1,9.183000565E0,1.585950017E0,9.328270249E0
8.826122900E-2,-4.549500346E-1,9.183000565E0,1.510050058E0,9.317442250E0
9.022168400E-2,-4.549500346E-1,9.145050049E0,1.471050024E0,9.273775289E0
9.218252600E-2,-5.320500135E-1,9.106050491E0,1.432950020E0,9.233448897E0
9.414324100E-2,-5.700000525E-1,9.106050491E0,1.318050027E0,9.218585113E0
9.610370500E-2,-6.079500318E-1,9.106050491E0,1.279950023E0,9.215640556E0
9.806424300E-2,-6.469500065E-1,9.106050491E0,1.165050030E0,9.203045226E0
1.000250060E-1,-6.850500107E-1,9.145050049E0,1.203000069E0,9.249240135E0
1.019857030E-1,-7.230000496E-1,9.259950638E0,1.240950108E0,9.370665508E0
1.039461890E-1,-7.230000496E-1,9.375000000E0,1.203000069E0,9.479481169E0
1.059067240E-1,-6.850500107E-1,9.298050880E0,1.087950110E0,9.386515814E0
1.078674870E-1,-6.850500107E-1,9.298050880E0,1.011000037E0,9.377908336E0
1.098281830E-1,-6.850500107E-1,9.336000443E0,9.349500537E-1,9.407673962E0
1.117886050E-1,-6.850500107E-1,9.336000443E0,1.050000072E0,9.419803497E0
1.137491080E-1,-7.620000243E-1,9.336000443E0,1.087950110E0,9.430015045E0
1.157097470E-1,-7.230000496E-1,9.375000000E0,1.165050030E0,9.474739872E0
1.176703420E-1,-6.469500065E-1,9.412950516E0,1.240950108E0,9.516414182E0
1.196308270E-1,-5.320500135E-1,9.336000443E0,1.356000066E0,9.448953257E0
1.215913440E-1,-4.930500090E-1,9.336000443E0,1.432950020E0,9.458189485E0
1.235519300E-1,-4.549500346E-1,9.375000000E0,1.395000100E0,9.489132195E0
1.255124960E-1,-4.549500346E-1,9.375000000E0,1.471050024E0,9.500610123E0
1.274729710E-1,-4.549500346E-1,9.412950516E0,1.471050024E0,9.538060868E0
1.294334830E-1,-4.549500346E-1,9.412950516E0,1.471050024E0,9.538060868E0
1.313937550E-1,-3.780000210E-1,9.490050316E0,1.510050058E0,9.616870083E0
1.333540980E-1,-3.019500077E-1,9.490050316E0,1.510050058E0,9.614181192E0
1.353142190E-1,-3.400500119E-1,9.528000832E0,1.510050058E0,9.652910703E0
1.372744060E-1,-3.019500077E-1,9.528000832E0,1.510050058E0,9.651643634E0
1.392350630E-1,-3.019500077E-1,9.604950905E0,1.471050024E0,9.721637921E0
1.411955720E-1,-3.019500077E-1,9.643050194E0,1.510050058E0,9.765236404E0
1.431558910E-1,-3.400500119E-1,9.604950905E0,1.471050024E0,9.722895868E0
1.451162660E-1,-3.400500119E-1,9.681000710E0,1.471050024E0,9.798030257E0
1.470766960E-1,-3.400500119E-1,9.681000710E0,1.471050024E0,9.798030257E0
1.490371100E-1,-3.780000210E-1,9.720000267E0,1.432950020E0,9.832326020E0
1.509974460E-1,-4.170000255E-1,9.720000267E0,1.471050024E0,9.839526533E0
1.529578050E-1,-4.170000255E-1,9.720000267E0,1.432950020E0,9.833902581E0
1.549182380E-1,-5.700000525E-1,9.681000710E0,1.318050027E0,9.786926518E0
1.568786490E-1,-4.549500346E-1,9.681000710E0,1.395000100E0,9.791566757E0
1.588389850E-1,-4.549500346E-1,9.720000267E0,1.510050058E0,9.847113075E0
1.607993430E-1,-4.549500346E-1,9.643050194E0,1.548000097E0,9.777100842E0
1.627598450E-1,-4.549500346E-1,9.604950905E0,1.510050058E0,9.733566284E0
1.647202880E-1,-4.930500090E-1,9.565950394E0,1.471050024E0,9.690949046E0
1.666807530E-1,-4.930500090E-1,9.490050316E0,1.510050058E0,9.622079011E0
1.686412110E-1,-4.549500346E-1,9.412950516E0,1.548000097E0,9.550231476E0
1.706018540E-1,-4.170000255E-1,9.375000000E0,1.548000097E0,9.511089229E0
1.725624420E-1,-4.549500346E-1,9.375000000E0,1.510050058E0,9.506726866E0
1.745228780E-1,-4.549500346E-1,9.336000443E0,1.663050056E0,9.493872723E0
1.764833620E-1,-4.549500346E-1,9.336000443E0,1.624950051E0,9.487272868E0
1.784439540E-1,-4.930500090E-1,9.298050880E0,1.624950051E0,9.451841681E0
1.804045140E-1,-4.930500090E-1,9.298050880E0,1.624950051E0,9.451841681E0
1.823648240E-1,-6.079500318E-1,9.220950127E0,1.471050024E0,9.357324011E0
1.843252080E-1,-6.079500318E-1,9.259950638E0,1.432950020E0,9.389868733E0
1.862855220E-1,-7.230000496E-1,9.298050880E0,1.432950020E0,9.435561722E0
1.882458430E-1,-7.230000496E-1,9.298050880E0,1.432950020E0,9.435561722E0
1.902063280E-1,-7.999500632E-1,9.336000443E0,1.432950020E0,9.479143955E0
1.921667640E-1,-8.770500422E-1,9.298050880E0,1.356000066E0,9.437250825E0
1.941273650E-1,-8.770500422E-1,9.336000443E0,1.432950020E0,9.485961564E0
1.960879180E-1,-9.150000215E-1,9.298050880E0,1.432950020E0,9.452212491E0
1.980482300E-1,-9.919500351E-1,9.375000000E0,1.395000100E0,9.529985055E0
2.000086120E-1,-9.529500604E-1,9.336000443E0,1.471050024E0,9.499105550E0
2.019692210E-1,-9.919500351E-1,9.259950638E0,1.471050024E0,9.428395349E0
2.039297640E-1,-1.068000078E0,9.259950638E0,1.510050058E0,9.442857680E0
2.058903920E-1,-1.106999993E0,9.259950638E0,1.510050058E0,9.447348092E0
2.078509950E-1,-1.183050036E0,9.220950127E0,1.510050058E0,9.418374584E0
2.098116430E-1,-1.222050071E0,9.220950127E0,1.510050058E0,9.423352842E0
2.117722880E-1,-1.413000107E0,9.220950127E0,1.432950020E0,9.437999592E0
2.137328540E-1,-1.297950029E0,9.183000565E0,1.510050058E0,9.396404888E0
2.156934440E-1,-1.297950029E0,9.145050049E0,1.548000097E0,9.365517550E0
2.176540630E-1,-1.260000110E0,9.106050491E0,1.548000097E0,9.322234718E0
2.196146730E-1,-1.452000022E0,9.183000565E0,1.471050024E0,9.412746231E0
2.215749640E-1,-1.489950061E0,9.183000565E0,1.395000100E0,9.407097099E0
2.235353240E-1,-1.528050065E0,9.259950638E0,1.471050024E0,9.499768997E0
2.254958470E-1,-1.567050099E0,9.220950127E0,1.395000100E0,9.456616336E0
2.274563220E-1,-1.681950092E0,9.259950638E0,1.432950020E0,9.519925824E0
2.294166020E-1,-1.681950092E0,9.259950638E0,1.395000100E0,9.514287530E0
2.313769400E-1,-1.681950092E0,9.220950127E0,1.318050027E0,9.465312104E0
2.333383130E-1,-1.720050097E0,9.220950127E0,1.318050027E0,9.472156536E0
2.352993890E-1,-2.295000076E0,9.220950127E0,-6.739500165E-1,9.526130128E0
2.372586650E-1,-1.950000048E0,9.375000000E0,3.979500234E-1,9.583918270E0
2.392184680E-1,-1.873050094E0,9.298050880E0,1.548000097E0,9.610326276E0
2.411788160E-1,-1.911000133E0,9.220950127E0,1.471050024E0,9.531098096E0
2.431390050E-1,-1.758000135E0,9.220950127E0,1.356000066E0,9.484472673E0
2.450993330E-1,-1.528050065E0,9.183000565E0,1.663050056E0,9.456646967E0
2.470596200E-1,-1.489950061E0,9.106050491E0,1.663050056E0,9.375811550E0
2.490197520E-1,-1.489950061E0,8.991000175E0,1.471050024E0,9.231577520E0
2.509799300E-1,-1.452000022E0,8.991000175E0,1.318050027E0,9.202371656E0
2.529402590E-1,-1.452000022E0,8.991000175E0,1.165050030E0,9.181706257E0
2.549005430E-1,-1.528050065E0,9.030000687E0,1.011000037E0,9.214009468E0
2.568609190E-1,-1.605000019E0,9.067950249E0,8.580000401E-1,9.248778884E0
2.588212550E-1,-1.605000019E0,9.106050491E0,8.200500607E-1,9.282707725E0
2.607813780E-1,-1.642950058E0,9.145050049E0,1.011000037E0,9.346301213E0
2.627415640E-1,-1.605000019E0,9.106050491E0,8.959500194E-1,9.289720504E0
2.647017120E-1,-1.642950058E0,9.106050491E0,8.580000401E-1,9.292771627E0
2.666618720E-1,-1.642950058E0,9.067950249E0,7.429500222E-1,9.245484376E0
2.686221780E-1,-1.605000019E0,8.991000175E0,7.050000429E-1,9.160302084E0
2.705824270E-1,-1.642950058E0,9.030000687E0,4.750500321E-1,9.190531531E0
2.725427900E-1,-1.642950058E0,8.991000175E0,5.899500251E-1,9.158897864E0
2.745031200E-1,-1.642950058E0,8.953050613E0,6.660000086E-1,9.126880967E0
2.764634250E-1,-1.642950058E0,8.914950371E0,6.280500293E-1,9.086807572E0
2.784237370E-1,-1.681950092E0,8.914950371E0,5.509500504E-1,9.088940652E0
2.803841930E-1,-1.681950092E0,8.914950371E0,5.130000114E-1,9.086719168E0
2.823445960E-1,-1.720050097E0,8.877000809E0,3.979500234E-1,9.050860728E0
2.843048890E-1,-1.758000135E0,8.877000809E0,4.360500276E-1,9.059903281E0
2.862652140E-1,-1.758000135E0,8.877000809E0,3.600000143E-1,9.056561591E0
2.882262840E-1,-1.795950055E0,8.761950493E0,3.979500234E-1,8.952964719E0
2.901871350E-1,-1.834950089E0,8.761950493E0,2.830500007E-1,8.956502419E0
2.921466190E-1,-1.834950089E0,8.608050346E0,1.680000126E-1,8.803056094E0
2.941065110E-1,-1.758000135E0,8.493000031E0,3.220500052E-1,8.679016661E0
2.960677450E-1,-1.795950055E0,8.416950226E0,3.600000143E-1,8.613947278E0
2.980285860E-1,-1.911000133E0,8.455050468E0,2.830500007E-1,8.672941671E0
2.999889830E-1,-2.026050091E0,8.608050346E0,2.830500007E-1,8.847797864E0
3.019495110E-1,-2.140950203E0,8.838000298E0,1.680000126E-1,9.095171303E0
3.039097520E-1,-2.295000076E0,8.953050613E0,1.300500035E-1,9.243433001E0
3.058700980E-1,-2.371050119E0,9.067950249E0,9.195000678E-2,9.373262782E0
3.078306230E-1,-2.371050119E0,9.106050491E0,-9.900000691E-2,9.410198469E0
3.097910960E-1,-2.371050119E0,9.106050491E0,-6.105000153E-2,9.409875734E0
3.117513760E-1,-2.332950115E0,9.030000687E0,-9.900000691E-2,9.327023622E0
3.137117130E-1,-2.332950115E0,8.991000175E0,-6.105000153E-2,9.288943293E0
3.156720350E-1,-2.295000076E0,8.877000809E0,-2.205000073E-2,9.168896057E0
3.176323480E-1,-2.295000076E0,8.761950493E0,1.500000060E-2,9.057539776E0
3.195927890E-1,-2.332950115E0,8.722949982E0,1.500000060E-2,9.029548030E0
3.215531920E-1,-2.295000076E0,8.685000420E0,-2.205000073E-2,8.983136637E0
3.235135290E-1,-2.371050119E0,8.647050858E0,1.500000060E-2,8.966247387E0
3.254738860E-1,-2.371050119E0,8.647050858E0,-2.205000073E-2,8.966261953E0
3.274341660E-1,-2.410050154E0,8.685000420E0,-1.369500011E-1,9.014229270E0
3.293944820E-1,-2.485950232E0,8.722949982E0,-9.900000691E-2,9.070810655E0
3.313547430E-1,-2.448000193E0,8.647050858E0,-2.205000073E-2,8.986917140E0
3.333150210E-1,-2.371050119E0,8.647050858E0,-2.205000073E-2,8.966261953E0
3.352751540E-1,-2.448000193E0,8.647050858E0,-2.205000073E-2,8.986917140E0
3.372353290E-1,-2.485950232E0,8.685000420E0,-6.105000153E-2,9.033986271E0
3.391956890E-1,-2.485950232E0,8.685000420E0,-1.759500057E-1,9.035493304E0
3.411560050E-1,-2.410050154E0,8.685000420E0,-2.205000073E-2,9.013215865E0
3.431163120E-1,-2.410050154E0,8.647050858E0,5.295000225E-2,8.976783053E0
3.450766220E-1,-2.410050154E0,8.685000420E0,1.300500035E-1,9.014127081E0
3.470369300E-1,-2.410050154E0,8.722949982E0,1.680000126E-1,9.051321568E0
3.489972380E-1,-2.410050154E0,8.800050735E0,2.449500114E-1,9.127389287E0
3.509573200E-1,-2.410050154E0,8.800050735E0,2.830500007E-1,9.128491222E0
3.529174680E-1,-2.410050154E0,8.800050735E0,2.830500007E-1,9.128491222E0
3.548774880E-1,-2.448000193E0,8.877000809E0,2.449500114E-1,9.211614886E0
3.568375450E-1,-2.485950232E0,8.914950371E0,2.070000172E-1,9.257382874E0
3.587971300E-1,-2.448000193E0,8.991000175E0,2.449500114E-1,9.321522923E0
3.607568530E-1,-2.485950232E0,9.030000687E0,3.220500052E-1,9.371476787E0
3.627172740E-1,-2.524950027E0,9.067950249E0,3.600000143E-1,9.419803308E0
3.646774810E-1,-2.448000193E0,9.145050049E0,3.600000143E-1,9.473871719E0
3.666380310E-1,-2.524950027E0,9.220950127E0,5.130000114E-1,9.574155988E0
3.685984810E-1,-2.524950027E0,9.259950638E0,5.130000114E-1,9.611723439E0
3.705587650E-1,-2.563050032E0,9.298050880E0,4.750500321E-1,9.656533963E0
3.725190980E-1,-2.524950027E0,9.298050880E0,4.750500321E-1,9.646491349E0
3.744793320E-1,-2.524950027E0,9.336000443E0,5.130000114E-1,9.685011405E0
3.764396120E-1,-2.448000193E0,9.336000443E0,5.899500251E-1,9.669625134E0
3.783997890E-1,-2.448000193E0,9.412950516E0,6.280500293E-1,9.746321829E0
3.803599970E-1,-2.371050119E0,9.412950516E0,7.050000429E-1,9.732550598E0
3.823203200E-1,-2.410050154E0,9.412950516E0,7.429500222E-1,9.744945043E0
3.842806100E-1,-2.371050119E0,9.451050758E0,7.429500222E-1,9.772216424E0
3.862410360E-1,-2.295000076E0,9.490050316E0,6.660000086E-1,9.786298399E0
3.882014370E-1,-2.295000076E0,9.451050758E0,7.050000429E-1,9.751226120E0
3.901620890E-1,-2.256000042E0,9.528000832E0,7.050000429E-1,9.816789755E0
3.921226670E-1,-2.256000042E0,9.490050316E0,6.660000086E-1,9.777225946E0
3.940832890E-1,-2.218050003E0,9.490050316E0,7.050000429E-1,9.771275550E0
3.960438980E-1,-2.140950203E0,9.490050316E0,7.429500222E-1,9.756879496E0
3.980043610E-1,-2.140950203E0,9.490050316E0,7.810500264E-1,9.759854605E0
3.999648810E-1,-2.065050125E0,9.451050758E0,7.810500264E-1,9.705505221E0
4.019256470E-1,-1.987950087E0,9.451050758E0,7.810500264E-1,9.689393434E0
4.038863410E-1,-1.911000133E0,9.451050758E0,8.200500607E-1,9.677125815E0
4.058469440E-1,-1.873050094E0,9.412950516E0,7.810500264E-1,9.629225992E0
4.078075730E-1,-1.873050094E0,9.375000000E0,7.429500222E-1,9.589104045E0
4.097678420E-1,-1.758000135E0,9.412950516E0,7.429500222E-1,9.604487317E0
4.117282370E-1,-1.720050097E0,9.375000000E0,7.429500222E-1,9.560396021E0
4.136890240E-1,-1.720050097E0,9.298050880E0,7.810500264E-1,9.488011470E0
4.156496960E-1,-1.642950058E0,9.298050880E0,7.429500222E-1,9.471272871E0
4.176099430E-1,-1.605000019E0,9.298050880E0,7.810500264E-1,9.467830500E0
4.195703140E-1,-1.489950061E0,9.259950638E0,7.050000429E-1,9.405512323E0
4.215310240E-1,-1.489950061E0,9.259950638E0,7.810500264E-1,9.411518270E0
4.234916280E-1,-1.489950061E0,9.220950127E0,7.810500264E-1,9.373148434E0
4.254522010E-1,-1.489950061E0,9.220950127E0,7.810500264E-1,9.373148434E0
4.274127840E-1,-1.452000022E0,9.220950127E0,7.810500264E-1,9.367190851E0
4.293732700E-1,-1.413000107E0,9.145050049E0,8.580000401E-1,9.293259588E0
4.313337840E-1,-1.336950064E0,9.145050049E0,8.959500194E-1,9.285585728E0
4.332943860E-1,-1.297950029E0,9.183000565E0,8.580000401E-1,9.313878769E0
4.352549510E-1,-1.336950064E0,9.106050491E0,8.959500194E-1,9.247178892E0
4.372152610E-1,-1.336950064E0,9.106050491E0,9.349500537E-1,9.251039003E0
4.391756450E-1,-1.336950064E0,9.145050049E0,1.011000037E0,9.297391943E0
4.411362540E-1,-1.336950064E0,9.145050049E0,9.730500579E-1,9.293341825E0
4.430967970E-1,-1.336950064E0,9.145050049E0,9.349500537E-1,9.289429879E0
4.450570530E-1,-1.375050068E0,9.145050049E0,9.730500579E-1,9.298899370E0
4.470174340E-1,-1.336950064E0,9.106050491E0,1.011000037E0,9.259034080E0
4.489782680E-1,-1.375050068E0,9.106050491E0,9.730500579E-1,9.260547751E0
4.509389700E-1,-1.413000107E0,9.145050049E0,1.011000037E0,9.308632057E0
4.528992110E-1,-1.452000022E0,9.145050049E0,9.730500579E-1,9.310589180E0
4.548595880E-1,-1.452000022E0,9.183000565E0,1.011000037E0,9.351894167E0
4.568201840E-1,-1.489950061E0,9.183000565E0,9.730500579E-1,9.353837553E0
4.587807250E-1,-1.489950061E0,9.183000565E0,1.050000072E0,9.362155238E0
4.607411740E-1,-1.452000022E0,9.220950127E0,1.050000072E0,9.393440555E0
4.627016500E-1,-1.452000022E0,9.298050880E0,1.087950110E0,9.473420168E0
4.646621530E-1,-1.413000107E0,9.298050880E0,1.050000072E0,9.463235156E0
4.666226480E-1,-1.413000107E0,9.336000443E0,1.087950110E0,9.504794001E0
4.685829100E-1,-1.413000107E0,9.451050758E0,1.126049995E0,9.622209639E0
4.705432510E-1,-1.375050068E0,9.490050316E0,1.087950110E0,9.650671123E0
4.725039130E-1,-1.375050068E0,9.565950394E0,1.165050030E0,9.734244254E0
4.744644800E-1,-1.452000022E0,9.757950783E0,1.126049995E0,9.929445913E0
4.764248790E-1,-1.375050068E0,9.681000710E0,1.240950108E0,9.856596502E0
4.783853280E-1,-1.260000110E0,9.720000267E0,1.240950108E0,9.879572999E0
4.803459610E-1,-1.222050071E0,9.757950783E0,1.203000069E0,9.907482981E0
4.823065470E-1,-1.183050036E0,9.835050583E0,1.203000069E0,9.978729204E0
4.842672120E-1,-1.222050071E0,9.873000145E0,1.240950108E0,1.002544240E1
4.862278540E-1,-1.222050071E0,9.988050461E0,1.165050030E0,1.012975320E1
4.881884210E-1,-1.183050036E0,1.002600002E1,1.203000069E0,1.016698053E1
4.901490100E-1,-1.183050036E0,1.014105034E1,1.050000072E0,1.026367427E1
4.921093240E-1,-1.183050036E0,1.021800041E1,1.087950110E0,1.034363453E1
4.940697120E-1,-1.183050036E0,1.029495049E1,1.087950110E0,1.041965682E1
4.960301860E-1,-1.222050071E0,1.037100029E1,1.126049995E0,1.050328720E1
4.979906340E-1,-1.222050071E0,1.041000080E1,1.087950110E0,1.053779666E1
4.999514130E-1,-1.260000110E0,1.056300068E1,1.087950110E0,1.069337267E1
5.019120950E-1,-1.183050036E0,1.056300068E1,1.203000069E0,1.069690609E1
5.038725460E-1,-1.183050036E0,1.060095024E1,1.203000069E0,1.073438226E1
5.058330780E-1,-1.260000110E0,1.067805004E1,1.165050030E0,1.081506794E1
5.077936620E-1,-1.336950064E0,1.067805004E1,1.126049995E0,1.082017452E1
5.097542300E-1,-1.297950029E0,1.071600056E1,1.165050030E0,1.085701081E1
5.117143590E-1,-1.336950064E0,1.075500011E1,1.126049995E0,1.089612094E1
5.136746170E-1,-1.375050068E0,1.075500011E1,1.165050030E0,1.090495904E1
5.156347520E-1,-1.413000107E0,1.071600056E1,1.087950110E0,1.086337299E1
5.175949240E-1,-1.452000022E0,1.075500011E1,1.087950110E0,1.090696873E1
5.195553890E-1,-1.528050065E0,1.075500011E1,1.087950110E0,1.091735315E1
5.215157680E-1,-1.605000019E0,1.075500011E1,1.126049995E0,1.093224776E1
5.234761100E-1,-1.720050097E0,1.067805004E1,1.087950110E0,1.087027877E1
5.254364630E-1,-1.720050097E0,1.071600056E1,1.050000072E0,1.090384063E1
5.273965820E-1,-1.758000135E0,1.067805004E1,9.730500579E-1,1.086545644E1
5.293567700E-1,-1.758000135E0,1.063995075E1,8.959500194E-1,1.082136049E1
5.313172330E-1,-1.795950055E0,1.056300068E1,8.580000401E-1,1.074888757E1
5.332776150E-1,-1.834950089E0,1.056300068E1,8.200500607E-1,1.075251167E1
5.352379110E-1,-1.873050094E0,1.052505016E1,7.429500222E-1,1.071620139E1
5.371982320E-1,-1.873050094E0,1.044795036E1,6.660000086E-1,1.063539089E1
5.391585420E-1,-1.950000048E0,1.041000080E1,7.050000429E-1,1.061450149E1
5.411188830E-1,-1.873050094E0,1.044795036E1,5.509500504E-1,1.062880658E1
5.430791860E-1,-1.950000048E0,1.037100029E1,5.509500504E-1,1.056710429E1
5.450395010E-1,-1.911000133E0,1.033305073E1,5.509500504E-1,1.052270901E1
5.469998070E-1,-1.911000133E0,1.029495049E1,4.750500321E-1,1.048158383E1
5.489601160E-1,-1.873050094E0,1.033305073E1,4.750500321E-1,1.051217991E1
5.509203950E-1,-1.911000133E0,1.033305073E1,4.750500321E-1,1.051900810E1
5.528807030E-1,-1.911000133E0,1.029495049E1,3.979500234E-1,1.047837255E1
5.548413240E-1,-1.950000048E0,1.033305073E1,3.979500234E-1,1.052296544E1
5.568018540E-1,-1.987950087E0,1.029495049E1,4.750500321E-1,1.049588603E1
5.587630700E-1,-2.026050091E0,1.037100029E1,3.979500234E-1,1.057453972E1
5.607240850E-1,-2.065050125E0,1.041000080E1,2.449500114E-1,1.061567469E1
5.626841260E-1,-2.179949999E0,1.033305073E1,-6.360000372E-1,1.057963210E1
5.646444290E-1,-2.065050125E0,1.052505016E1,-2.520000041E-1,1.072868198E1
5.666036560E-1,-2.026050091E0,1.048605061E1,4.750500321E-1,1.069054764E1
5.685631980E-1,-1.987950087E0,1.044795036E1,8.200500607E-1,1.066696276E1
5.705237710E-1,-1.950000048E0,1.044795036E1,8.200500607E-1,1.065995540E1
5.724840420E-1,-1.950000048E0,1.048605061E1,8.580000401E-1,1.070027670E1
5.744445360E-1,-1.911000133E0,1.041000080E1,7.429500222E-1,1.060999590E1
5.764049650E-1,-1.950000048E0,1.044795036E1,6.280500293E-1,1.064690630E1
5.783652530E-1,-1.950000048E0,1.044795036E1,6.280500293E-1,1.064690630E1
5.803255830E-1,-1.987950087E0,1.048605061E1,7.050000429E-1,1.069608470E1
5.822858870E-1,-1.950000048E0,1.048605061E1,6.280500293E-1,1.068429709E1
5.842461980E-1,-1.911000133E0,1.052505016E1,6.280500293E-1,1.071555175E1
5.862063750E-1,-1.834950089E0,1.052505016E1,7.050000429E-1,1.070704197E1
5.881665880E-1,-1.834950089E0,1.052505016E1,7.810500264E-1,1.071231823E1
5.901267310E-1,-1.834950089E0,1.052505016E1,7.810500264E-1,1.071231823E1
5.920868950E-1,-1.758000135E0,1.052505016E1,7.810500264E-1,1.069940580E1
5.940473620E-1,-1.795950055E0,1.044795036E1,7.810500264E-1,1.062991733E1
5.960077400E-1,-1.834950089E0,1.048605061E1,7.429500222E-1,1.067128267E1
5.979682160E-1,-1.834950089E0,1.052505016E1,6.280500293E-1,1.070225068E1
5.999286630E-1,-1.795950055E0,1.056300068E1,6.280500293E-1,1.073298033E1
6.018889930E-1,-1.681950092E0,1.056300068E1,6.280500293E-1,1.071449422E1
6.038493570E-1,-1.642950058E0,1.060095024E1,5.899500251E-1,1.074371779E1
6.058097890E-1,-1.605000019E0,1.060095024E1,7.429500222E-1,1.074747160E1
6.077702010E-1,-1.642950058E0,1.056300068E1,7.810500264E-1,1.071850304E1
6.097305420E-1,-1.605000019E0,1.052505016E1,8.959500194E-1,1.068435456E1
6.116909000E-1,-1.642950058E0,1.060095024E1,8.580000401E-1,1.076176542E1
6.136511540E-1,-1.642950058E0,1.060095024E1,7.429500222E-1,1.075320444E1
6.156114390E-1,-1.642950058E0,1.060095024E1,8.580000401E-1,1.076176542E1
6.175714350E-1,-1.605000019E0,1.056300068E1,9.349500537E-1,1.072507063E1
6.195315160E-1,-1.681950092E0,1.056300068E1,1.011000037E0,1.074374518E1
6.214919870E-1,-1.642950058E0,1.052505016E1,1.165050030E0,1.071603039E1
6.234523500E-1,-1.720050097E0,1.052505016E1,1.203000069E0,1.073230928E1
6.254124690E-1,-1.758000135E0,1.041000080E1,1.318050027E0,1.063935792E1
6.273726600E-1,-1.795950055E0,1.044795036E1,1.395000100E0,1.069257353E1
6.293329860E-1,-1.834950089E0,1.044795036E1,1.279950023E0,1.068480139E1
6.312932730E-1,-1.795950055E0,1.037100029E1,1.279950023E0,1.060289374E1
6.332533080E-1,-1.873050094E0,1.037100029E1,1.279950023E0,1.061622512E1
6.352133900E-1,-1.911000133E0,1.037100029E1,1.395000100E0,1.063746181E1
6.371735550E-1,-1.950000048E0,1.029495049E1,1.432950020E0,1.057553079E1
6.391336960E-1,-1.911000133E0,1.025595093E1,1.432950020E0,1.053042244E1
6.410940320E-1,-1.911000133E0,1.025595093E1,1.471050024E0,1.053567459E1
6.430543110E-1,-1.911000133E0,1.021800041E1,1.471050024E0,1.049873526E1
6.450147950E-1,-1.911000133E0,1.014105034E1,1.471050024E0,1.042385781E1
6.469752250E-1,-1.834950089E0,1.014105034E1,1.471050024E0,1.041018405E1
6.489353330E-1,-1.873050094E0,1.014105034E1,1.471050024E0,1.041696726E1
6.508955350E-1,-1.834950089E0,1.010295010E1,1.471050024E0,1.037307238E1
6.528561750E-1,-1.873050094E0,9.910950661E0,1.548000097E0,1.020448744E1
6.548166870E-1,-1.834950089E0,9.910950661E0,1.624950051E0,1.020952729E1
6.567770100E-1,-1.834950089E0,9.949950218E0,1.548000097E0,1.023547046E1
6.587373850E-1,-1.720050097E0,9.910950661E0,1.548000097E0,1.017751540E1
6.606973210E-1,-1.681950092E0,9.873000145E0,1.624950051E0,1.014620868E1
6.626573850E-1,-1.567050099E0,9.835050583E0,1.816050053E0,1.012333462E1
6.646176890E-1,-1.489950061E0,9.835050583E0,2.008050203E0,1.014792771E1
6.665779220E-1,-1.452000022E0,9.757950783E0,2.200050116E0,1.010772616E1
6.685379280E-1,-1.452000022E0,9.720000267E0,2.353049994E0,1.010561990E1
6.704980010E-1,-1.375050068E0,9.643050194E0,2.467950106E0,1.004838084E1
6.724583480E-1,-1.336950064E0,9.604950905E0,2.506050110E0,1.001612722E1
6.744186140E-1,-1.297950029E0,9.528000832E0,2.583000183E0,9.956875216E0
6.763789290E-1,-1.222050071E0,9.565950394E0,2.659050226E0,1.000356743E1
6.783392290E-1,-1.144950032E0,9.490050316E0,2.736000061E0,9.942719040E0
6.802995290E-1,-1.068000078E0,9.451050758E0,2.851050138E0,9.929323819E0
6.822598360E-1,-9.529500604E-1,9.298050880E0,2.928000212E0,9.794643905E0
6.842202790E-1,-8.770500422E-1,9.298050880E0,3.081000090E0,9.834405346E0
6.861806820E-1,-8.380500674E-1,9.259950638E0,3.118950129E0,9.806980353E0
6.881410190E-1,-7.620000243E-1,9.106050491E0,3.004050255E0,9.618997740E0
6.901013760E-1,-6.850500107E-1,9.145050049E0,3.196050167E0,9.711640983E0
6.920617090E-1,-4.930500090E-1,9.298050880E0,3.502950191E0,9.948241479E0
6.940220250E-1,-3.019500077E-1,9.259950638E0,3.694050074E0,9.974159893E0
6.959823310E-1,-3.299999982E-2,9.183000565E0,3.847950220E0,9.956671596E0
6.979426400E-1,-3.299999982E-2,9.183000565E0,3.924000263E0,9.986308949E0
6.999027670E-1,4.200000316E-2,9.030000687E0,3.963000298E0,9.861442479E0
7.018629480E-1,4.050000105E-3,9.030000687E0,3.808950186E0,9.800460720E0
7.038234770E-1,-7.200000435E-2,8.953050613E0,4.000950336E0,9.806625458E0
7.057838890E-1,-3.299999982E-2,9.030000687E0,3.886050224E0,9.830736887E0
7.077449000E-1,3.109500110E-1,9.067950249E0,4.116000175E0,9.963225836E0
7.097057350E-1,5.790000558E-1,9.030000687E0,4.116000175E0,9.940704749E0
7.116655480E-1,5.790000558E-1,8.953050613E0,4.039050102E0,9.839018349E0
7.136256600E-1,4.260000288E-1,8.953050613E0,4.000950336E0,9.815609757E0
7.155867610E-1,7.699500322E-1,9.030000687E0,4.116000175E0,9.953652239E0
7.175475760E-1,1.077000022E0,8.991000175E0,4.269000053E0,1.001111256E1
7.195077980E-1,1.039050102E0,8.991000175E0,4.192950249E0,9.974895541E0
7.214681940E-1,1.077000022E0,8.991000175E0,4.192950249E0,9.978920031E0
7.234286660E-1,1.269000053E0,9.030000687E0,4.345950127E0,1.010141357E1
7.253891150E-1,1.384050012E0,8.991000175E0,4.384050369E0,1.009819668E1
7.273494180E-1,1.459950089E0,8.953050613E0,4.423050404E0,1.009217243E1
7.293097510E-1,1.459950089E0,8.877000809E0,4.384050369E0,1.000762186E1
7.312700090E-1,1.498950124E0,8.953050613E0,4.269000053E0,1.003136722E1
7.332302890E-1,1.804950118E0,8.914950371E0,4.423050404E0,1.011422562E1
7.351906010E-1,1.920000076E0,8.914950371E0,4.308000088E0,1.008571292E1
7.371509030E-1,1.959000111E0,8.722949982E0,3.963000298E0,9.779208003E0
7.391110820E-1,1.614000082E0,8.569950104E0,2.889000177E0,9.186694894E0
7.410712940E-1,1.767000079E0,8.685000420E0,3.349050045E0,9.474579557E0
7.430319330E-1,1.843950033E0,8.608050346E0,3.463950157E0,9.460318873E0
7.449924460E-1,1.920000076E0,8.647050858E0,3.426000118E0,9.497124072E0
7.469525850E-1,2.074050188E0,8.608050346E0,3.541050196E0,9.536207393E0
7.489128330E-1,2.074050188E0,8.532000542E0,3.273000240E0,9.370658888E0
7.508731500E-1,2.188950062E0,8.569950104E0,3.157950163E0,9.391921869E0
7.528334460E-1,2.265000105E0,8.493000031E0,3.004050255E0,9.289003872E0
7.547939360E-1,2.380050182E0,8.532000542E0,2.889000177E0,9.316973443E0
7.567543690E-1,2.457000017E0,8.532000542E0,2.736000061E0,9.290725411E0
7.587147920E-1,2.457000017E0,8.569950104E0,2.545050144E0,9.271363120E0
7.606752180E-1,2.572050095E0,8.608050346E0,2.430000067E0,9.306926065E0
7.626355650E-1,2.572050095E0,8.647050858E0,2.200050116E0,9.285857566E0
7.645959250E-1,2.572050095E0,8.685000420E0,2.161050081E0,9.312078792E0
7.665562230E-1,2.610000134E0,8.800050735E0,2.200050116E0,9.438920179E0
7.685165400E-1,2.572050095E0,8.914950371E0,2.122950077E0,9.518334877E0
7.704771610E-1,2.533950090E0,8.914950371E0,2.122950077E0,9.508110233E0
7.724376920E-1,2.457000017E0,9.030000687E0,2.200050116E0,9.613427172E0
7.743981570E-1,2.341950178E0,9.145050049E0,2.238000154E0,9.701820227E0
7.763586310E-1,2.227050066E0,9.220950127E0,2.200050116E0,9.737858786E0
7.783189100E-1,2.074050188E0,9.259950638E0,2.275950193E0,9.758499848E0
7.802792470E-1,1.959000111E0,9.490050316E0,2.506050110E0,1.000894718E1
7.822397290E-1,1.729050040E0,9.528000832E0,2.275950193E0,9.947480242E0
7.842001680E-1,1.614000082E0,9.643050194E0,2.314950228E0,1.004750754E1
7.861604540E-1,1.459950089E0,9.757950783E0,2.314950228E0,1.013449813E1
7.881207850E-1,1.345050097E0,9.757950783E0,2.275950193E0,1.010973355E1
7.900810890E-1,1.269000053E0,9.910950661E0,2.200050116E0,1.023120348E1
7.920414010E-1,1.192050099E0,1.006500053E1,2.353049994E0,1.040490574E1
7.940019320E-1,8.470500112E-1,1.010295010E1,1.816050053E0,1.029976369E1
7.959623990E-1,6.940500140E-1,1.033305073E1,1.969950080E0,1.054202761E1
7.979223250E-1,5.020500422E-1,1.044795036E1,2.122950077E0,1.067326745E1
7.998824060E-1,3.109500110E-1,1.048605061E1,2.161050081E0,1.071093295E1
8.018431120E-1,1.189500093E-1,1.056300068E1,1.855050087E0,1.072531320E1
8.038036340E-1,-1.099500060E-1,1.071600056E1,1.701000094E0,1.085072155E1
8.057644010E-1,-2.250000089E-1,1.079295063E1,1.816050053E0,1.094698342E1
8.077250960E-1,-4.170000255E-1,1.087005043E1,1.816050053E0,1.102859570E1
8.096859370E-1,-5.700000525E-1,1.090800095E1,1.816050053E0,1.107282360E1
8.116467250E-1,-7.620000243E-1,1.098495007E1,1.740000129E0,1.114797616E1
8.136072670E-1,-9.150000215E-1,1.098495007E1,1.701000094E0,1.115346378E1
8.155678810E-1,-9.919500351E-1,1.098495007E1,1.624950051E0,1.114870196E1
8.175285410E-1,-1.144950032E0,1.090800095E1,1.548000097E0,1.107662853E1
8.194891870E-1,-1.222050071E0,1.090800095E1,1.548000097E0,1.108486334E1
8.214495540E-1,-1.336950064E0,1.083105087E1,1.663050056E0,1.103924064E1
8.234100160E-1,-1.452000022E0,1.079295063E1,1.663050056E0,1.101643422E1
8.253704770E-1,-1.605000019E0,1.063995075E1,4.750500321E-1,1.077080543E1
8.273309390E-1,-1.336950064E0,1.079295063E1,1.624950051E0,1.099616667E1
8.292914000E-1,-1.567050099E0,1.083105087E1,2.238000154E0,1.117031574E1
8.312518620E-1,-1.758000135E0,1.087005043E1,2.467950106E0,1.128447334E1
8.332125420E-1,-1.911000133E0,1.102305031E1,2.314950228E0,1.142447172E1
8.351731300E-1,-1.987950087E0,1.098495007E1,2.085000038E0,1.135642103E1
8.371334360E-1,-2.103000164E0,1.106100082E1,1.969950080E0,1.143018164E1
8.390938240E-1,-2.256000042E0,1.113795090E1,1.701000094E0,1.149073051E1
8.410542970E-1,-2.332950115E0,1.125300026E1,1.471050024E0,1.158605452E1
8.430147450E-1,-2.448000193E0,1.132905006E1,1.471050024E0,1.168349556E1
8.449752230E-1,-2.448000193E0,1.140600014E1,1.432950020E0,1.175342035E1
8.469356820E-1,-2.524950027E0,1.148295021E1,1.395000100E0,1.183974423E1
8.488970000E-1,-2.601000071E0,1.136805058E1,8.580000401E-1,1.169332884E1
8.508580670E-1,-2.448000193E0,1.132905006E1,-6.105000153E-2,1.159067761E1
8.528175700E-1,-2.256000042E0,1.136805058E1,1.318050027E0,1.166444881E1
8.547775310E-1,-2.410050154E0,1.152105045E1,1.701000094E0,1.189270140E1
8.567381000E-1,-2.524950027E0,1.155900097E1,1.740000129E0,1.195882421E1
8.586984750E-1,-2.563050032E0,1.155900097E1,1.624950051E0,1.195074021E1
8.606585920E-1,-2.524950027E0,1.140600014E1,1.510050058E0,1.177932354E1
8.626187840E-1,-2.524950027E0,1.144395065E1,1.356000066E0,1.179737748E1
8.645792460E-1,-2.524950027E0,1.144395065E1,1.126049995E0,1.177316303E1
8.665396290E-1,-2.563050032E0,1.152105045E1,8.959500194E-1,1.183666150E1
8.684999610E-1,-2.563050032E0,1.144395065E1,8.200500607E-1,1.175609264E1
8.704603140E-1,-2.601000071E0,1.136805058E1,5.130000114E-1,1.167308632E1
8.724207930E-1,-2.640000105E0,1.140600014E1,5.509500504E-1,1.172049426E1
8.743812350E-1,-2.677950144E0,1.136805058E1,4.360500276E-1,1.168734916E1
8.763424210E-1,-2.716050148E0,1.129095078E1,3.600000143E-1,1.161860998E1
8.783033890E-1,-2.716050148E0,1.113795090E1,2.449500114E-1,1.146694724E1
8.802635110E-1,-2.755050182E0,1.110000038E1,1.300500035E-1,1.143753570E1
8.822239010E-1,-2.755050182E0,1.098495007E1,9.195000678E-2,1.132554123E1
8.841841950E-1,-2.716050148E0,1.087005043E1,5.295000225E-2,1.120436203E1
8.861445170E-1,-2.716050148E0,1.071600056E1,-2.205000073E-2,1.105486692E1
8.881048220E-1,-2.640000105E0,1.060095024E1,-2.205000073E-2,1.092475321E1
8.900651320E-1,-2.716050148E0,1.044795036E1,-2.205000073E-2,1.079523420E1
8.920253040E-1,-2.716050148E0,1.037100029E1,-6.105000153E-2,1.072092825E1
8.939855170E-1,-2.716050148E0,1.014105034E1,-1.369500011E-1,1.049936120E1
8.959458400E-1,-2.716050148E0,1.010295010E1,-6.105000153E-2,1.046184765E1
8.979061300E-1,-2.716050148E0,9.949950218E0,-6.105000153E-2,1.031417301E1
8.998665760E-1,-2.677950144E0,9.835050583E0,-2.205000073E-2,1.019314099E1
9.018269760E-1,-2.601000071E0,9.720000267E0,-6.105000153E-2,1.006217341E1
9.037871340E-1,-2.677950144E0,9.604950905E0,-9.900000691E-2,9.971775161E0
9.057473630E-1,-2.640000105E0,9.528000832E0,-6.105000153E-2,9.887169843E0
9.077078180E-1,-2.524950027E0,9.375000000E0,-9.900000691E-2,9.709572526E0
9.096682070E-1,-2.485950232E0,9.220950127E0,-1.369500011E-1,9.551158312E0
9.116286810E-1,-2.410050154E0,9.145050049E0,-1.369500011E-1,9.458278778E0
9.135891300E-1,-2.332950115E0,8.953050613E0,-1.369500011E-1,9.253027982E0
9.155496530E-1,-2.256000042E0,8.914950371E0,-2.140500098E-1,9.198461486E0
9.175101440E-1,-2.218050003E0,8.761950493E0,-2.140500098E-1,9.040870515E0
9.194706020E-1,-2.140950203E0,8.761950493E0,-2.520000041E-1,9.023244883E0
9.214310690E-1,-1.987950087E0,8.647050858E0,-2.520000041E-1,8.876200656E0
9.233914840E-1,-1.987950087E0,8.532000542E0,-6.105000153E-2,8.760748021E0
9.253519150E-1,-1.911000133E0,8.569950104E0,9.195000678E-2,8.780912315E0
9.273120660E-1,-1.758000135E0,8.493000031E0,1.300500035E-1,8.674014468E0
9.292723000E-1,-1.795950055E0,8.416950226E0,-6.105000153E-2,8.606637834E0
9.312329350E-1,-1.681950092E0,8.263050079E0,-3.670500219E-1,8.440478567E0
9.331934520E-1,-1.605000019E0,8.148000717E0,-5.209500194E-1,8.320897167E0
9.351539500E-1,-1.489950061E0,8.032950401E0,-6.360000372E-1,8.194677503E0
9.371144540E-1,-1.452000022E0,7.995000362E0,-6.360000372E-1,8.150633773E0
9.390749030E-1,-1.528050065E0,7.918050289E0,-5.970000029E-1,8.086214589E0
9.410353720E-1,-1.452000022E0,7.995000362E0,-5.590500236E-1,8.144990595E0
9.429959660E-1,-1.489950061E0,7.995000362E0,-4.060500264E-1,8.142779538E0
9.449565240E-1,-1.489950061E0,7.957050323E0,-4.060500264E-1,8.105521430E0
9.469167900E-1,-1.489950061E0,7.918050289E0,-4.440000355E-1,8.069238353E0
9.488771410E-1,-1.452000022E0,7.957050323E0,-4.440000355E-1,8.100622812E0
9.508374920E-1,-1.452000022E0,7.879950523E0,-5.209500194E-1,8.029527585E0
9.527978390E-1,-1.413000107E0,7.842000484E0,-5.209500194E-1,7.985294598E0
9.547586790E-1,-1.297950029E0,7.803000450E0,-5.209500194E-1,7.927350076E0
9.567193750E-1,-1.260000110E0,7.803000450E0,-5.209500194E-1,7.921224983E0
9.586799330E-1,-1.297950029E0,7.342950344E0,-1.786050081E0,7.667696455E0
9.606405310E-1,-1.030050039E0,7.687950134E0,-1.096050024E0,7.833703211E0
9.626009690E-1,-1.030050039E0,7.842000484E0,-6.105000153E-2,7.909595551E0
9.645614540E-1,-1.144950032E0,7.879950523E0,2.070000172E-1,7.965386358E0
9.665217310E-1,-1.222050071E0,7.918050289E0,1.500000060E-2,8.011813263E0
9.684820690E-1,-1.222050071E0,7.957050323E0,-1.759500057E-1,8.052267670E0
9.704424160E-1,-1.260000110E0,7.918050289E0,-3.289500177E-1,8.024420775E0
9.724027600E-1,-1.260000110E0,7.995000362E0,-4.440000355E-1,8.105847710E0
9.743633910E-1,-1.336950064E0,8.071949959E0,-6.739500165E-1,8.209629726E0
9.763239280E-1,-1.375050068E0,8.071949959E0,-7.510500550E-1,8.222603907E0
9.782842420E-1,-1.336950064E0,8.110050201E0,-7.890000343E-1,8.257291977E0
9.802446220E-1,-1.375050068E0,8.148000717E0,-8.269500136E-1,8.304488226E0
9.822050960E-1,-1.413000107E0,8.224950790E0,-7.890000343E-1,8.382655060E0
9.841655430E-1,-1.413000107E0,8.263050079E0,-7.890000343E-1,8.420040794E0
9.861258090E-1,-1.413000107E0,8.302050591E0,-7.510500550E-1,8.454861885E0
9.880861410E-1,-1.375050068E0,8.340000153E0,-8.269500136E-1,8.492950698E0
9.900465790E-1,-1.413000107E0,8.377950668E0,-7.890000343E-1,8.532827653E0
9.920069850E-1,-1.375050068E0,8.416950226E0,-8.269500136E-1,8.568527302E0
9.939671420E-1,-1.452000022E0,8.416950226E0,-7.510500550E-1,8.574230657E0
9.959273720E-1,-1.375050068E0,8.416950226E0,-7.510500550E-1,8.561535492E0
9.978878770E-1,-1.413000107E0,8.416950226E0,-7.120500207E-1,8.564381801E0
9.998482980E-1,-1.413000107E0,8.416950226E0,-6.360000372E-1,8.558394502E0
1.001808767E0,-1.452000022E0,8.377950668E0,-6.360000372E-1,8.526597065E0
1.003769221E0,-1.452000022E0,8.377950668E0,-5.970000029E-1,8.523776773E0
1.005729640E0,-1.413000107E0,8.377950668E0,-6.360000372E-1,8.520042415E0
1.007690069E0,-1.375050068E0,8.340000153E0,-5.590500236E-1,8.471062635E0
1.009650449E0,-1.413000107E0,8.302050591E0,-5.970000029E-1,8.442572020E0
1.011610810E0,-1.489950061E0,8.263050079E0,-5.970000029E-1,8.417503003E0
1.013571243E0,-1.413000107E0,8.224950790E0,-5.590500236E-1,8.364145009E0
1.015531654E0,-1.452000022E0,8.187000275E0,-5.590500236E-1,8.333535534E0
1.017492124E0,-1.452000022E0,8.148000717E0,-5.590500236E-1,8.295224932E0
1.019452577E0,-1.489950061E0,8.148000717E0,-5.209500194E-1,8.299473224E0
1.021413016E0,-1.528050065E0,8.110050201E0,-5.970000029E-1,8.274313281E0
1.023373476E0,-1.489950061E0,8.110050201E0,-5.970000029E-1,8.267362001E0
1.025333579E0,-1.567050099E0,8.110050201E0,-6.360000372E-1,8.284507006E0
1.027293786E0,-1.605000019E0,8.110050201E0,-6.739500165E-1,8.294766299E0
1.029254110E0,-1.567050099E0,8.071949959E0,-5.590500236E-1,8.241635704E0
1.031214399E0,-1.567050099E0,8.032950401E0,-5.970000029E-1,8.206116449E0
1.033174930E0,-1.605000019E0,7.995000362E0,-5.970000029E-1,8.176335662E0
1.035135394E0,-1.642950058E0,8.032950401E0,-6.360000372E-1,8.223872147E0
1.037095811E0,-1.642950058E0,7.995000362E0,-6.360000372E-1,8.186807176E0
1.039056242E0,-1.681950092E0,7.995000362E0,-7.120500207E-1,8.200975682E0
1.041016574E0,-1.720050097E0,7.918050289E0,-7.120500207E-1,8.133947870E0
1.042976935E0,-1.720050097E0,7.879950523E0,-7.120500207E-1,8.096864073E0
1.044937363E0,-1.758000135E0,7.842000484E0,-7.890000343E-1,8.075274431E0
1.046897774E0,-1.720050097E0,7.765050411E0,-7.890000343E-1,7.992315139E0
1.048858244E0,-1.720050097E0,7.726950169E0,-7.120500207E-1,7.948040417E0
1.050818697E0,-1.795950055E0,7.650000572E0,-8.269500136E-1,7.901379100E0
1.052779340E0,-1.681950092E0,7.612050533E0,-7.510500550E-1,7.831752398E0
1.054739928E0,-1.758000135E0,7.612050533E0,-5.970000029E-1,7.835195390E0
1.056700617E0,-1.758000135E0,7.534950256E0,-5.590500236E-1,7.757485209E0
1.058661259E0,-1.758000135E0,7.534950256E0,-4.440000355E-1,7.750043605E0
1.060621826E0,-1.758000135E0,7.497000217E0,-5.590500236E-1,7.720629098E0
1.062582415E0,-1.720050097E0,7.534950256E0,-5.590500236E-1,7.748973134E0
1.064542675E0,-1.795950055E0,7.534950256E0,-5.590500236E-1,7.766173375E0
1.066503031E0,-1.795950055E0,7.534950256E0,-5.970000029E-1,7.768997424E0
1.068463345E0,-1.720050097E0,7.573050499E0,-4.819500148E-1,7.780870261E0
1.070423661E0,-1.720050097E0,7.573050499E0,-4.819500148E-1,7.780870261E0
1.072383967E0,-1.642950058E0,7.612050533E0,-5.209500194E-1,7.804741324E0
1.074344276E0,-1.642950058E0,7.650000572E0,-5.209500194E-1,7.841758895E0
1.076304584E0,-1.605000019E0,7.650000572E0,-6.360000372E-1,7.842386745E0
1.078264892E0,-1.567050099E0,7.726950169E0,-6.739500165E-1,7.913002815E0
1.080225424E0,-1.567050099E0,7.726950169E0,-6.739500165E-1,7.913002815E0
1.082185890E0,-1.605000019E0,7.765050411E0,-6.360000372E-1,7.954654549E0
1.084146126E0,-1.567050099E0,7.765050411E0,-6.739500165E-1,7.950211477E0
1.086106430E0,-1.528050065E0,7.842000484E0,-7.890000343E-1,8.028351615E0
1.088066558E0,-1.528050065E0,7.803000450E0,-8.269500136E-1,7.994097782E0
1.090026738E0,-1.489950061E0,7.879950523E0,-8.269500136E-1,8.062097603E0
1.091986932E0,-1.336950064E0,7.879950523E0,-9.040500522E-1,8.043529214E0
1.093947121E0,-1.297950029E0,7.879950523E0,-9.810000658E-1,8.046157820E0
1.095907629E0,-1.336950064E0,7.879950523E0,-9.810000658E-1,8.052541018E0
1.097868044E0,-1.375050068E0,7.879950523E0,-9.420000315E-1,8.054299907E0
1.099828468E0,-1.413000107E0,7.957050323E0,-1.018950105E0,8.145518920E0
1.101788890E0,-1.413000107E0,8.032950401E0,-1.018950105E0,8.219678873E0
1.103749183E0,-1.452000022E0,8.148000717E0,-1.096050024E0,8.348625360E0
1.105709511E0,-1.489950061E0,8.187000275E0,-1.171950102E0,8.403593977E0
1.107669680E0,-1.489950061E0,8.302050591E0,-1.249050021E0,8.526671164E0
1.109629896E0,-1.528050065E0,8.416950226E0,-1.326000094E0,8.656688995E0
1.111590173E0,-1.567050099E0,8.455050468E0,-1.363950014E0,8.706542602E0
1.113550432E0,-1.681950092E0,8.532000542E0,-1.402050018E0,8.808503483E0
1.115510968E0,-1.720050097E0,8.569950104E0,-1.479000092E0,8.865103405E0
1.117471427E0,-1.681950092E0,8.647050858E0,-1.516950130E0,8.938768503E0
1.119432069E0,-1.758000135E0,8.761950493E0,-1.516950130E0,9.064407240E0
1.121392658E0,-1.720050097E0,8.761950493E0,-1.555950046E0,9.063737050E0
1.123353054E0,-1.681950092E0,8.800050735E0,-1.632000089E0,9.106770742E0
1.125313506E0,-1.642950058E0,8.877000809E0,-1.555950046E0,9.160862885E0
1.127273810E0,-1.605000019E0,8.838000298E0,-1.555950046E0,9.116318054E0
1.129234175E0,-1.605000019E0,8.877000809E0,-1.516950130E0,9.147584715E0
1.131194112E0,-1.605000019E0,8.877000809E0,-1.326000094E0,9.117864041E0
1.133154175E0,-1.681950092E0,8.953050613E0,-1.287000060E0,9.200132638E0
1.135114659E0,-1.720050097E0,8.953050613E0,-1.210950017E0,9.196852046E0
1.137075019E0,-1.795950055E0,9.030000687E0,-1.210950017E0,9.286158998E0
1.139035364E0,-1.873050094E0,9.106050491E0,-1.210950017E0,9.375226512E0
1.140995713E0,-1.911000133E0,9.145050049E0,-1.210950017E0,9.420735738E0
1.142956328E0,-1.987950087E0,9.145050049E0,-1.287000060E0,9.446706045E0
1.144916865E0,-2.026050091E0,9.220950127E0,-1.363950014E0,9.538928653E0
1.146877539E0,-2.103000164E0,9.298050880E0,-1.326000094E0,9.624688884E0
1.148838173E0,-2.218050003E0,9.336000443E0,-1.326000094E0,9.687049413E0
1.150798561E0,-2.256000042E0,9.336000443E0,-1.287000060E0,9.690552596E0
1.152759021E0,-2.295000076E0,9.336000443E0,-1.287000060E0,9.699706118E0
1.154719482E0,-2.295000076E0,9.298050880E0,-1.249050021E0,9.658203843E0
1.156679942E0,-2.371050119E0,9.298050880E0,-1.249050021E0,9.676556970E0
1.158640270E0,-2.448000193E0,9.336000443E0,-1.210950017E0,9.727281694E0
1.160600636E0,-2.485950232E0,9.375000000E0,-1.210950017E0,9.774301688E0
1.162561429E0,-2.524950027E0,9.336000443E0,-1.134000063E0,9.737670822E0
1.164522096E0,-2.601000071E0,9.412950516E0,-1.057050109E0,9.822738605E0
1.166482523E0,-2.640000105E0,9.451050758E0,-1.018950105E0,9.865607954E0
1.168443021E0,-2.677950144E0,9.490050316E0,-9.810000658E-1,9.909330608E0
1.170403520E0,-2.755050182E0,9.565950394E0,-9.810000658E-1,1.000300303E1
1.172364019E0,-2.793000221E0,9.565950394E0,-9.810000658E-1,1.001352177E1
1.174324490E0,-2.755050182E0,9.565950394E0,-9.040500522E-1,9.995749844E0
1.176284959E0,-2.830950022E0,9.604950905E0,-9.420000315E-1,1.005766991E1
1.178245239E0,-2.830950022E0,9.565950394E0,-9.420000315E-1,1.002043158E1
1.180205574E0,-2.908050060E0,9.643050194E0,-9.040500522E-1,1.011249122E1
1.182166056E0,-2.908050060E0,9.643050194E0,-9.420000315E-1,1.011595454E1
1.184126495E0,-2.908050060E0,9.643050194E0,-8.659500480E-1,1.010915633E1
1.186086722E0,-2.908050060E0,9.643050194E0,-8.269500136E-1,1.010589029E1
1.188047021E0,-2.869950056E0,9.681000710E0,-9.040500522E-1,1.013783481E1
1.190007554E0,-2.946000099E0,9.720000267E0,-9.040500522E-1,1.019679500E1
1.191968019E0,-2.908050060E0,9.757950783E0,-9.040500522E-1,1.022211647E1
1.193928796E0,-2.946000099E0,9.835050583E0,-8.659500480E-1,1.030325221E1
1.195889481E0,-2.946000099E0,9.873000145E0,-9.040500522E-1,1.034274407E1
1.197849741E0,-2.985000134E0,9.949950218E0,-9.420000315E-1,1.043068067E1
1.199810146E0,-2.985000134E0,1.010295010E1,-1.018950105E0,1.058385968E1
1.201770616E0,-3.022950172E0,1.010295010E1,-1.018950105E0,1.059462542E1
1.203731067E0,-3.022950172E0,1.025595093E1,-1.096050024E0,1.074821301E1
1.205691666E0,-3.022950172E0,1.029495049E1,-1.171950102E0,1.079341004E1
1.207652221E0,-3.061050177E0,1.037100029E1,-1.210950017E0,1.088090415E1
1.209612659E0,-3.061050177E0,1.041000080E1,-1.287000060E0,1.092677967E1
1.211573137E0,-3.061050177E0,1.052505016E1,-1.363950014E0,1.104568100E1
1.213533415E0,-3.100050211E0,1.060095024E1,-1.402050018E0,1.113356194E1
1.215493752E0,-3.100050211E0,1.063995075E1,-1.479000092E0,1.118062183E1
1.217454055E0,-3.100050211E0,1.067805004E1,-1.594050050E0,1.123263369E1
1.219414368E0,-3.175950050E0,1.067805004E1,-1.594050050E0,1.125381744E1
1.221374664E0,-3.138000250E0,1.071600056E1,-1.594050050E0,1.127921580E1
1.223334973E0,-3.214950085E0,1.067805004E1,-1.594050050E0,1.126488581E1
1.225295460E0,-3.175950050E0,1.063995075E1,-1.594050050E0,1.121767384E1
1.227255894E0,-3.253050089E0,1.063995075E1,-1.632000089E0,1.124519058E1
1.229216226E0,-3.253050089E0,1.056300068E1,-1.632000089E0,1.117240988E1
1.231176588E0,-3.291000128E0,1.052505016E1,-1.708950043E0,1.115920575E1
1.233137232E0,-3.253050089E0,1.048605061E1,-1.708950043E0,1.111126016E1
1.235097803E0,-3.291000128E0,1.044795036E1,-1.786050081E0,1.109866314E1
1.237058022E0,-3.214950085E0,1.041000080E1,-1.786050081E0,1.104056138E1
1.239018344E0,-3.214950085E0,1.029495049E1,-1.747050047E0,1.092584520E1
1.240978828E0,-3.214950085E0,1.029495049E1,-1.632000089E0,1.090803987E1
1.242939265E0,-3.214950085E0,1.025595093E1,-1.555950046E0,1.086008352E1
1.244899366E0,-3.253050089E0,1.021800041E1,-1.363950014E0,1.080972835E1
1.246859569E0,-3.330000162E0,1.018005085E1,-1.287000060E0,1.078789625E1
1.248819939E0,-3.330000162E0,1.018005085E1,-1.171950102E0,1.077477626E1
1.250780260E0,-3.445050240E0,1.018005085E1,-1.134000063E0,1.080683870E1
1.252740566E0,-3.483000278E0,1.018005085E1,-1.096050024E0,1.081508446E1
1.254700877E0,-3.598050117E0,1.021800041E1,-1.018950105E0,1.088079760E1
1.256661323E0,-3.675000191E0,1.029495049E1,-9.420000315E-1,1.097173623E1
1.258621726E0,-3.712950230E0,1.041000080E1,-9.420000315E-1,1.109240642E1
1.260582019E0,-3.790050268E0,1.048605061E1,-9.420000315E-1,1.118968732E1
1.262542344E0,-3.828000069E0,1.056300068E1,-9.810000658E-1,1.127798426E1
1.264502873E0,-3.865950108E0,1.063995075E1,-9.810000658E-1,1.136294343E1
1.266463342E0,-3.904950142E0,1.071600056E1,-1.018950105E0,1.145074508E1
1.268423918E0,-3.904950142E0,1.075500011E1,-9.810000658E-1,1.148394637E1
1.270384476E0,-3.943050146E0,1.079295063E1,-9.420000315E-1,1.152921471E1
1.272344922E0,-3.943050146E0,1.087005043E1,-9.810000658E-1,1.160465432E1
1.274305401E0,-3.943050146E0,1.090800095E1,-1.057050109E0,1.164686585E1
1.276265724E0,-3.904950142E0,1.098495007E1,-9.810000658E-1,1.169957797E1
1.278226093E0,-3.904950142E0,1.098495007E1,-1.018950105E0,1.170282115E1
1.280186529E0,-3.828000069E0,1.094595051E1,-1.096050024E0,1.164769259E1
1.282146942E0,-3.675000191E0,1.087005043E1,-1.057050109E0,1.152306286E1
1.284107233E0,-3.675000191E0,1.087005043E1,-1.057050109E0,1.152306286E1
1.286067560E0,-3.520950079E0,1.083105087E1,-1.018950105E0,1.143446596E1
1.288027908E0,-3.483000278E0,1.079295063E1,-1.018950105E0,1.138671742E1
1.289988250E0,-3.406050205E0,1.071600056E1,-9.040500522E-1,1.128056525E1
1.291948732E0,-3.291000128E0,1.067805004E1,-9.040500522E-1,1.121020700E1
1.293909173E0,-3.214950085E0,1.060095024E1,-8.659500480E-1,1.111152193E1
1.295869773E0,-3.061050177E0,1.056300068E1,-7.890000343E-1,1.102585745E1
1.297830327E0,-2.985000134E0,1.052505016E1,-7.120500207E-1,1.096329886E1
1.299790774E0,-2.908050060E0,1.041000080E1,-6.739500165E-1,1.082954664E1
1.301751252E0,-2.755050182E0,1.033305073E1,-5.590500236E-1,1.070863090E1
1.303711774E0,-2.640000105E0,1.029495049E1,-4.819500148E-1,1.063897936E1
1.305672269E0,-2.524950027E0,1.029495049E1,-4.060500264E-1,1.060783931E1
1.307632726E0,-2.448000193E0,1.021800041E1,-3.289500177E-1,1.051229972E1
1.309593194E0,-2.295000076E0,1.021800041E1,-2.520000041E-1,1.047559362E1
1.311553834E0,-2.179949999E0,1.018005085E1,-2.520000041E-1,1.041389079E1
1.313514423E0,-2.065050125E0,1.018005085E1,-1.759500057E-1,1.038887991E1
1.315475169E0,-1.911000133E0,1.014105034E1,-9.900000691E-2,1.032001088E1
1.317435875E0,-1.950000048E0,1.018005085E1,-9.900000691E-2,1.036560353E1
1.319395980E0,-1.873050094E0,1.021800041E1,-2.205000073E-2,1.038827874E1
1.321356262E0,-2.218050003E0,9.949950218E0,-2.206950188E0,1.043033481E1
1.323315853E0,-1.681950092E0,1.006500053E1,-1.249050021E0,1.028072555E1
1.325275647E0,-1.567050099E0,1.025595093E1,7.050000429E-1,1.039890381E1
1.327235980E0,-1.567050099E0,1.037100029E1,1.585950017E0,1.060794657E1
1.329196167E0,-1.528050065E0,1.052505016E1,1.624950051E0,1.075881409E1
1.331156721E0,-1.489950061E0,1.052505016E1,1.471050024E0,1.073129164E1
1.333117167E0,-1.375050068E0,1.056300068E1,1.279950023E0,1.072874728E1
1.335077452E0,-1.375050068E0,1.063995075E1,9.730500579E-1,1.077247145E1
1.337037784E0,-1.260000110E0,1.071600056E1,8.580000401E-1,1.082388250E1
1.338998074E0,-1.222050071E0,1.079295063E1,9.730500579E-1,1.090541224E1
1.340958386E0,-1.106999993E0,1.087005043E1,1.165050030E0,1.098821127E1
1.342918648E0,-1.030050039E0,1.098495007E1,1.279950023E0,1.110713298E1
1.344878924E0,-9.150000215E-1,1.110000038E1,1.432950020E0,1.122945142E1
1.346839461E0,-7.620000243E-1,1.117605019E1,1.510050058E0,1.130331779E1
1.348799922E0,-6.469500065E-1,1.125300026E1,1.548000097E0,1.137738386E1
1.350760389E0,-5.320500135E-1,1.140600014E1,1.701000094E0,1.154440634E1
1.352720850E0,-4.170000255E-1,1.152105045E1,1.740000129E0,1.165916348E1
1.354681627E0,-2.629500031E-1,1.155900097E1,1.777950048E0,1.169789522E1
1.356642312E0,-1.099500060E-1,1.163595009E1,1.893000126E0,1.178943904E1
1.358602736E0,8.100000024E-2,1.167405033E1,1.930950046E0,1.183294470E1
1.360563237E0,1.960500032E-1,1.178895092E1,1.969950080E0,1.195401618E1
1.362524622E0,4.639500082E-1,1.182795048E1,2.008050203E0,1.200616207E1
1.364485759E0,6.550500393E-1,1.190400028E1,2.085000038E0,1.210295577E1
1.366446286E0,8.470500112E-1,1.190400028E1,2.085000038E0,1.211486449E1
1.368406991E0,1.039050102E0,1.190400028E1,2.161050081E0,1.214310443E1
1.370367411E0,1.306950092E0,1.186605072E1,2.275950193E0,1.215282796E1
1.372327914E0,1.384050012E0,1.182795048E1,2.353049994E0,1.213889827E1
1.374288148E0,1.575000048E0,1.175100040E1,2.353049994E0,1.208732724E1
1.376248458E0,1.767000079E0,1.167405033E1,2.391000032E0,1.204668509E1
1.378208765E0,1.996950150E0,1.152105045E1,2.430000067E0,1.194266778E1
1.380169073E0,2.149950027E0,1.136805058E1,2.506050110E0,1.183786916E1
1.382129381E0,2.341950178E0,1.117605019E1,2.583000183E0,1.170729338E1
1.384089689E0,2.494950056E0,1.098495007E1,2.659050226E0,1.157430135E1
1.386049962E0,2.419050217E0,1.083105087E1,2.506050110E0,1.137733511E1
1.388010270E0,2.610000134E0,1.067805004E1,2.659050226E0,1.130943860E1
1.389970621E0,2.839950085E0,1.041000080E1,2.965950251E0,1.119063421E1
1.391930960E0,2.878050089E0,1.021800041E1,3.043050051E0,1.104313625E1
1.393891398E0,2.917050123E0,9.949950218E0,3.004050255E0,1.079513820E1
1.395851807E0,2.802000046E0,9.681000710E0,2.889000177E0,1.048424060E1
1.397811801E0,2.686950207E0,9.490050316E0,2.773950100E0,1.024575793E1
1.399771904E0,2.572050095E0,9.298050880E0,2.698050022E0,1.001741812E1
1.401732246E0,2.419050217E0,9.106050491E0,2.659050226E0,9.789918672E0
1.403692518E0,2.227050066E0,8.877000809E0,2.620950222E0,9.519993457E0
1.405652788E0,2.035050154E0,8.722949982E0,2.506050110E0,9.301159748E0
1.407613058E0,1.882050037E0,8.532000542E0,2.467950106E0,9.078982504E0
1.409573367E0,1.804950118E0,8.340000153E0,2.430000067E0,8.872336096E0
1.411533668E0,1.767000079E0,8.110050201E0,2.161050081E0,8.577024018E0
1.413494022E0,1.729050040E0,7.995000362E0,2.085000038E0,8.441378442E0
1.415454360E0,1.767000079E0,7.842000484E0,1.930950046E0,8.267274579E0
1.417414798E0,1.614000082E0,7.687950134E0,1.816050053E0,8.062729769E0
1.419375206E0,1.537050128E0,7.573050499E0,1.740000129E0,7.920935387E0
1.421335527E0,1.498950124E0,7.497000217E0,1.585950017E0,7.808143261E0
1.423295853E0,1.422000051E0,7.458000183E0,1.548000097E0,7.748558264E0
1.425256337E0,1.345050097E0,7.381950378E0,1.510050058E0,7.653927249E0
1.427216774E0,1.269000053E0,7.342950344E0,1.471050024E0,7.595608538E0
1.429177060E0,1.269000053E0,7.381950378E0,1.471050024E0,7.633317804E0
1.431137391E0,1.192050099E0,7.381950378E0,1.471050024E0,7.620903031E0
1.433097733E0,1.077000022E0,7.420050144E0,1.510050058E0,7.648354357E0
1.435058076E0,1.039050102E0,7.458000183E0,1.471050024E0,7.672377729E0
1.437018738E0,9.619500637E-1,7.573050499E0,1.356000066E0,7.753397833E0
1.438979307E0,9.619500637E-1,7.650000572E0,1.356000066E0,7.828575404E0
1.440939751E0,8.850000501E-1,7.726950169E0,1.395000100E0,7.901582707E0
1.442900232E0,8.470500112E-1,7.918050289E0,1.356000066E0,8.077855550E0
1.444860986E0,7.699500322E-1,8.071949959E0,1.356000066E0,8.221188197E0
1.446821673E0,6.940500140E-1,8.187000275E0,1.395000100E0,8.333948896E0
1.448781061E0,5.410500169E-1,8.455050468E0,1.432950020E0,8.592668928E0
1.450740829E0,3.490500152E-1,8.608050346E0,1.432950020E0,8.733482263E0
1.452701228E0,2.340000123E-1,8.761950493E0,1.510050058E0,8.894199437E0
1.454661442E0,1.960500032E-1,8.953050613E0,1.510050058E0,9.081618912E0
1.456621749E0,4.200000316E-2,9.145050049E0,1.585950017E0,9.281645428E0
1.458582009E0,-7.200000435E-2,9.298050880E0,1.701000094E0,9.452636431E0
1.460542505E0,-2.629500031E-1,9.451050758E0,1.740000129E0,9.613485507E0
1.462502932E0,-3.400500119E-1,9.528000832E0,1.816050053E0,9.705486678E0
1.464463220E0,-3.780000210E-1,9.681000710E0,1.893000126E0,9.871580837E0
1.466423549E0,-4.170000255E-1,9.796050072E0,1.930950046E0,9.993250428E0
1.468384042E0,-4.930500090E-1,9.873000145E0,1.969950080E0,1.007967924E1
1.470344480E0,-4.549500346E-1,1.002600002E1,2.008050203E0,1.023522944E1
1.472304946E0,-5.320500135E-1,1.021800041E1,2.122950077E0,1.044976204E1
1.474265403E0,-6.469500065E-1,1.029495049E1,2.046000004E0,1.051620967E1
1.476225865E0,-7.230000496E-1,1.037100029E1,2.085000038E0,1.060318826E1
1.478186326E0,-7.620000243E-1,1.044795036E1,2.122950077E0,1.068864949E1
1.480146590E0,-8.380500674E-1,1.056300068E1,2.085000038E0,1.079937667E1
1.482106925E0,-9.529500604E-1,1.063995075E1,2.085000038E0,1.088411186E1
1.484067993E0,-9.919500351E-1,1.063995075E1,2.122950077E0,1.089492698E1
1.486028846E0,-1.413000107E0,1.048605061E1,3.600000143E-1,1.058694605E1
1.487988160E0,-1.297950029E0,1.071600056E1,-7.890000343E-1,1.082311708E1
1.489947925E0,-8.380500674E-1,1.087005043E1,1.777950048E0,1.104633109E1
1.491908274E0,-8.380500674E-1,1.094595051E1,3.196050167E0,1.143376128E1
1.493868456E0,-8.770500422E-1,1.083105087E1,3.502950191E0,1.141715988E1
1.495828606E0,-7.999500632E-1,1.071600056E1,3.310950041E0,1.124433094E1
1.497788766E0,-7.620000243E-1,1.056300068E1,2.889000177E0,1.097742909E1
1.499748919E0,-5.700000525E-1,1.044795036E1,2.275950193E0,1.070815185E1
1.501709074E0,-5.320500135E-1,1.033305073E1,1.855050087E0,1.051171848E1
1.503669305E0,-4.549500346E-1,1.021800041E1,1.663050056E0,1.036244409E1
1.505629490E0,-4.170000255E-1,1.014105034E1,1.548000097E0,1.026699057E1
1.507589954E0,-3.019500077E-1,1.002600002E1,1.510050058E0,1.014357439E1
1.509550336E0,-1.870500147E-1,9.873000145E0,1.510050058E0,9.989563091E0
1.511510452E0,-1.480500102E-1,9.835050583E0,1.471050024E0,9.945558152E0
1.513470646E0,-3.299999982E-2,9.681000710E0,1.471050024E0,9.792183205E0
1.515430982E0,4.050000105E-3,9.565950394E0,1.471050024E0,9.678399222E0
1.517391269E0,8.100000024E-2,9.451050758E0,1.471050024E0,9.565192607E0
1.519351401E0,1.960500032E-1,9.298050880E0,1.395000100E0,9.404159242E0
1.521311579E0,2.340000123E-1,9.220950127E0,1.318050027E0,9.317614132E0
1.523271773E0,3.109500110E-1,9.067950249E0,1.240950108E0,9.157749112E0
1.525231962E0,4.260000288E-1,9.030000687E0,1.279950023E0,9.130205939E0
1.527192661E0,5.410500169E-1,8.914950371E0,1.203000069E0,9.012007790E0
1.529153203E0,5.410500169E-1,8.838000298E0,1.126049995E0,8.925859789E0
1.531114011E0,6.169500351E-1,8.800050735E0,1.050000072E0,8.883919205E0
1.533074741E0,6.940500140E-1,8.722949982E0,1.087950110E0,8.817890748E0
1.535034797E0,7.699500322E-1,8.647050858E0,1.126049995E0,8.753987673E0
1.536995051E0,8.470500112E-1,8.608050346E0,1.165050030E0,8.727735448E0
1.538955122E0,8.850000501E-1,8.569950104E0,1.240950108E0,8.704437204E0
1.540915261E0,9.619500637E-1,8.532000542E0,1.279950023E0,8.680936195E0
1.542875597E0,1.077000022E0,8.455050468E0,1.279950023E0,8.618937262E0
1.544835875E0,1.114950061E0,8.377950668E0,1.318050027E0,8.553971412E0
1.546796233E0,1.114950061E0,8.377950668E0,1.356000066E0,8.559901122E0
1.548756567E0,1.077000022E0,8.416950226E0,1.395000100E0,8.599477044E0
1.550716656E0,1.153950095E0,8.532000542E0,1.471050024E0,8.734450311E0
1.552676810E0,1.114950061E0,8.569950104E0,1.471050024E0,8.766478574E0
1.554636964E0,1.077000022E0,8.608050346E0,1.471050024E0,8.799002670E0
1.556597118E0,1.114950061E0,8.647050858E0,1.432950020E0,8.835606823E0
1.558556956E0,1.039050102E0,8.685000420E0,1.471050024E0,8.869771450E0
1.560516887E0,1.000050068E0,8.761950493E0,1.471050024E0,8.940685922E0
1.562477083E0,8.850000501E-1,8.800050735E0,1.471050024E0,8.965941457E0
1.564437198E0,9.240000248E-1,8.800050735E0,1.471050024E0,8.969874981E0
1.566397313E0,8.850000501E-1,8.914950371E0,1.510050058E0,9.085142618E0
1.568357428E0,8.470500112E-1,8.877000809E0,1.510050058E0,9.044273783E0
1.570317094E0,8.470500112E-1,8.877000809E0,1.471050024E0,9.037844060E0
1.572276892E0,6.940500140E-1,8.914950371E0,1.510050058E0,9.068533328E0
1.574236913E0,6.940500140E-1,8.914950371E0,1.510050058E0,9.068533328E0
1.576196846E0,6.550500393E-1,8.953050613E0,1.510050058E0,9.103101505E0
1.578156137E0,6.169500351E-1,8.991000175E0,1.624950051E0,9.157465488E0
1.580115617E0,4.639500082E-1,9.067950249E0,1.585950017E0,9.217277732E0
1.582075886E0,4.260000288E-1,9.106050491E0,1.663050056E0,9.266464647E0
1.584035923E0,3.870000243E-1,9.145050049E0,1.585950017E0,9.289615001E0
1.585996116E0,3.870000243E-1,9.106050491E0,1.701000094E0,9.271640949E0
1.587956250E0,3.490500152E-1,9.067950249E0,1.663050056E0,9.225794985E0
1.589916452E0,3.490500152E-1,9.030000687E0,1.663050056E0,9.188497364E0
1.591876634E0,3.490500152E-1,8.991000175E0,1.740000129E0,9.164470553E0
1.593837098E0,3.109500110E-1,8.991000175E0,1.777950048E0,9.170380605E0
1.595797480E0,2.719500065E-1,9.030000687E0,1.777950048E0,9.207387012E0
1.597757674E0,1.960500032E-1,9.067950249E0,1.816050053E0,9.250091627E0
1.599717900E0,8.100000024E-2,9.067950249E0,1.777950048E0,9.240962563E0
1.601678536E0,-1.099500060E-1,9.030000687E0,1.585950017E0,9.168873369E0
1.603639052E0,-1.099500060E-1,9.030000687E0,1.777950048E0,9.204026715E0
1.605599325E0,-1.480500102E-1,8.991000175E0,1.893000126E0,9.189311859E0
1.607559669E0,-1.480500102E-1,9.183000565E0,2.046000004E0,9.409332292E0
1.609519957E0,-7.200000435E-2,9.183000565E0,2.200050116E0,9.443140573E0
1.611480271E0,-3.299999982E-2,9.259950638E0,2.008050203E0,9.475233002E0
1.613440802E0,-3.299999982E-2,9.220950127E0,1.777950048E0,9.390852816E0
1.615401269E0,-7.200000435E-2,9.183000565E0,1.740000129E0,9.346672339E0
1.617361686E0,-1.099500060E-1,9.220950127E0,1.816050053E0,9.398725873E0
1.619322117E0,-1.099500060E-1,9.259950638E0,1.855050087E0,9.444574402E0
1.621282412E0,-1.870500147E-1,9.220950127E0,1.855050087E0,9.407556525E0
1.623242741E0,-2.250000089E-1,9.298050880E0,1.893000126E0,9.491460618E0
1.625202910E0,-3.019500077E-1,9.336000443E0,1.855050087E0,9.523302415E0
1.627163126E0,-3.780000210E-1,9.336000443E0,1.816050053E0,9.518499150E0
1.629123403E0,-4.170000255E-1,9.375000000E0,1.663050056E0,9.530490518E0
1.631083662E0,-5.320500135E-1,9.451050758E0,1.585950017E0,9.597951610E0
1.633043864E0,-5.320500135E-1,9.490050316E0,1.585950017E0,9.636356660E0
1.635004069E0,-5.700000525E-1,9.528000832E0,1.701000094E0,9.695416506E0
1.636964528E0,-6.469500065E-1,9.528000832E0,1.740000129E0,9.707159451E0
1.638924913E0,-6.850500107E-1,9.528000832E0,1.740000129E0,9.709773108E0
1.640885209E0,-7.230000496E-1,9.565950394E0,1.740000129E0,9.749755713E0
1.642845531E0,-7.620000243E-1,9.490050316E0,1.701000094E0,9.671354629E0
1.644805875E0,-7.999500632E-1,9.528000832E0,1.624950051E0,9.698617562E0
1.646766216E0,-8.380500674E-1,9.490050316E0,1.624950051E0,9.664566497E0
1.648726879E0,-7.999500632E-1,9.528000832E0,1.585950017E0,9.692159584E0
1.650687447E0,-8.380500674E-1,9.490050316E0,1.663050056E0,9.671045362E0
1.652648791E0,-1.030050039E0,9.451050758E0,1.087950110E0,9.569064686E0
1.654609908E0,-1.758000135E0,9.528000832E0,-2.359950066E0,9.972097504E0
1.656570578E0,-1.605000019E0,9.565950394E0,-1.594050050E0,9.829772508E0
1.658531376E0,-1.528050065E0,9.528000832E0,-7.120500207E-1,9.675988429E0
1.660491059E0,-1.489950061E0,9.336000443E0,-1.759500057E-1,9.455782033E0
1.662451068E0,-1.375050068E0,9.451050758E0,6.660000086E-1,9.573749482E0
1.664411967E0,-1.106999993E0,9.336000443E0,1.816050053E0,9.575196658E0
1.666372605E0,-9.919500351E-1,9.259950638E0,3.043050051E0,9.797489694E0
1.668333618E0,-9.150000215E-1,9.298050880E0,3.924000263E0,1.013354594E1
1.670294524E0,-9.150000215E-1,9.336000443E0,4.039050102E0,1.021332732E1
1.672255225E0,-8.770500422E-1,9.298050880E0,3.618000269E0,1.001563243E1
1.674215987E0,-8.770500422E-1,9.336000443E0,2.773950100E0,9.778799527E0
1.676176622E0,-9.150000215E-1,9.412950516E0,1.893000126E0,9.644911193E0
1.678137295E0,-9.150000215E-1,9.490050316E0,1.395000100E0,9.635574986E0
1.680097874E0,-9.919500351E-1,9.528000832E0,1.126049995E0,9.645452468E0
1.682058468E0,-1.068000078E0,9.604950905E0,9.349500537E-1,9.709265557E0
1.684018907E0,-1.222050071E0,9.681000710E0,8.959500194E-1,9.798872769E0
1.685979391E0,-1.375050068E0,9.681000710E0,8.580000401E-1,9.815737440E0
1.687939893E0,-1.413000107E0,9.681000710E0,8.200500607E-1,9.817882977E0
1.689900389E0,-1.528050065E0,9.643050194E0,7.810500264E-1,9.794559367E0
1.691860846E0,-1.528050065E0,9.643050194E0,7.429500222E-1,9.791594803E0
1.693821314E0,-1.528050065E0,9.604950905E0,6.280500293E-1,9.745997421E0
1.695781729E0,-1.489950061E0,9.565950394E0,5.509500504E-1,9.696953340E0
1.697742160E0,-1.489950061E0,9.490050316E0,4.750500321E-1,9.618039234E0
1.699702671E0,-1.452000022E0,9.375000000E0,4.750500321E-1,9.498663148E0
1.701663158E0,-1.413000107E0,9.220950127E0,3.979500234E-1,9.337068853E0
1.703623391E0,-1.452000022E0,9.030000687E0,3.220500052E-1,9.151662836E0
1.705583699E0,-1.452000022E0,8.953050613E0,3.600000143E-1,9.077170229E0
1.707544906E0,-1.452000022E0,8.877000809E0,2.830500007E-1,8.999420244E0
1.709505850E0,-1.528050065E0,8.877000809E0,2.830500007E-1,9.012002977E0
1.711466095E0,-1.642950058E0,9.067950249E0,2.070000172E-1,9.217909503E0
1.713426545E0,-1.795950055E0,9.259950638E0,9.195000678E-2,9.432951671E0
1.715387133E0,-1.911000133E0,9.451050758E0,-2.205000073E-2,9.642342462E0
1.717347687E0,-1.950000048E0,9.528000832E0,-1.369500011E-1,9.726461604E0
1.719307953E0,-1.911000133E0,9.565950394E0,-9.900000691E-2,9.755466644E0
1.721268304E0,-1.873050094E0,9.451050758E0,-2.140500098E-1,9.637245172E0
1.723228604E0,-1.834950089E0,9.298050880E0,-1.759500057E-1,9.479016321E0
1.725188919E0,-1.834950089E0,9.145050049E0,-9.900000691E-2,9.327849872E0
1.727149405E0,-1.834950089E0,9.067950249E0,-2.205000073E-2,9.251770087E0
1.729109840E0,-1.873050094E0,8.914950371E0,1.500000060E-2,9.109603821E0
1.731069992E0,-1.873050094E0,8.877000809E0,5.295000225E-2,9.072610634E0
1.733030227E0,-1.950000048E0,8.838000298E0,1.500000060E-2,9.050578680E0
1.734990726E0,-1.987950087E0,8.838000298E0,1.500000060E-2,9.058831040E0
1.736951148E0,-1.987950087E0,8.761950493E0,5.295000225E-2,8.984794137E0
1.738911738E0,-1.987950087E0,8.761950493E0,-2.205000073E-2,8.984665168E0
1.740872288E0,-2.026050091E0,8.722949982E0,1.500000060E-2,8.955163893E0
1.742832781E0,-2.065050125E0,8.685000420E0,-9.900000691E-2,8.927679727E0
1.744793290E0,-2.026050091E0,8.647050858E0,-1.369500011E-1,8.882292655E0
1.746753878E0,-2.065050125E0,8.647050858E0,-1.369500011E-1,8.891269642E0
1.748714442E0,-2.103000164E0,8.685000420E0,-1.759500057E-1,8.937717851E0
1.750674872E0,-2.103000164E0,8.647050858E0,-2.140500098E-1,8.901680495E0
1.752635352E0,-2.103000164E0,8.685000420E0,-2.910000086E-1,8.940722733E0
1.754595810E0,-2.103000164E0,8.685000420E0,-2.910000086E-1,8.940722733E0
1.756556275E0,-2.140950203E0,8.685000420E0,-3.670500219E-1,8.952520638E0
1.758516915E0,-2.103000164E0,8.722949982E0,-3.289500177E-1,8.978901614E0
1.760477504E0,-2.179949999E0,8.722949982E0,-3.289500177E-1,8.997235492E0
1.762437990E0,-2.179949999E0,8.761950493E0,-3.670500219E-1,9.036519471E0
1.764398506E0,-2.179949999E0,8.761950493E0,-4.060500264E-1,9.038187598E0
1.766359272E0,-2.179949999E0,8.761950493E0,-4.060500264E-1,9.038187598E0
1.768319965E0,-2.179949999E0,8.722949982E0,-4.440000355E-1,9.002176093E0
1.770280433E0,-2.140950203E0,8.722949982E0,-5.209500194E-1,8.996939095E0
1.772240967E0,-2.179949999E0,8.722949982E0,-5.209500194E-1,9.006299312E0
1.774201516E0,-2.103000164E0,8.685000420E0,-5.209500194E-1,8.951158076E0
1.776162085E0,-2.103000164E0,8.647050858E0,-4.819500148E-1,8.912147555E0
1.778122529E0,-2.103000164E0,8.685000420E0,-5.209500194E-1,8.951158076E0
1.780083010E0,-2.140950203E0,8.647050858E0,-5.209500194E-1,8.923370732E0
1.782043647E0,-2.179949999E0,8.647050858E0,-4.819500148E-1,8.930618475E0
1.784004239E0,-2.179949999E0,8.647050858E0,-4.819500148E-1,8.930618475E0
1.785964841E0,-2.218050003E0,8.608050346E0,-4.060500264E-1,8.898491625E0
1.787925452E0,-2.256000042E0,8.647050858E0,-4.819500148E-1,8.949486049E0
1.789886068E0,-2.218050003E0,8.647050858E0,-4.819500148E-1,8.939994976E0
1.791846683E0,-2.218050003E0,8.608050346E0,-4.440000355E-1,8.900304074E0
1.793807119E0,-2.218050003E0,8.608050346E0,-4.440000355E-1,8.900304074E0
1.795767608E0,-2.256000042E0,8.608050346E0,-4.060500264E-1,8.908026918E0
1.797728234E0,-2.256000042E0,8.608050346E0,-4.819500148E-1,8.911809175E0
1.799688827E0,-2.295000076E0,8.608050346E0,-5.590500236E-1,8.926258625E0
1.801649446E0,-2.295000076E0,8.569950104E0,-5.209500194E-1,8.887207607E0
1.803610057E0,-2.295000076E0,8.569950104E0,-5.209500194E-1,8.887207607E0
1.805570673E0,-2.256000042E0,8.569950104E0,-5.209500194E-1,8.877216337E0
1.807531288E0,-2.295000076E0,8.569950104E0,-5.590500236E-1,8.889522319E0
1.809491589E0,-2.332950115E0,8.532000542E0,-5.590500236E-1,8.862856561E0
1.811451982E0,-2.295000076E0,8.493000031E0,-5.209500194E-1,8.813028072E0
1.813412455E0,-2.256000042E0,8.532000542E0,-4.060500264E-1,8.834559755E0
1.815372904E0,-2.256000042E0,8.455050468E0,-4.440000355E-1,8.762108801E0
1.817333324E0,-2.256000042E0,8.493000031E0,-3.670500219E-1,8.795186833E0
1.819293752E0,-2.256000042E0,8.493000031E0,-3.670500219E-1,8.795186833E0
1.821254209E0,-2.256000042E0,8.532000542E0,-2.520000041E-1,8.828820614E0
1.823214664E0,-2.179949999E0,8.493000031E0,-2.140500098E-1,8.770920643E0
1.825174992E0,-2.256000042E0,8.569950104E0,-1.369500011E-1,8.862975588E0
1.827135358E0,-2.295000076E0,8.608050346E0,-9.900000691E-2,8.909284882E0
1.829095835E0,-2.295000076E0,8.647050858E0,5.295000225E-2,8.946581335E0
1.831056279E0,-2.295000076E0,8.647050858E0,1.300500035E-1,8.947369831E0
1.833015834E0,-2.256000042E0,8.685000420E0,2.830500007E-1,8.977688220E0
1.834975656E0,-2.371050119E0,8.685000420E0,3.979500234E-1,9.011629996E0
1.836936407E0,-2.371050119E0,8.761950493E0,5.130000114E-1,9.091579847E0
1.838896885E0,-2.295000076E0,8.761950493E0,5.130000114E-1,9.072043364E0
1.840857300E0,-2.332950115E0,8.761950493E0,6.280500293E-1,9.088942706E0
1.842817733E0,-2.332950115E0,8.877000809E0,7.429500222E-1,9.208462105E0
1.844778169E0,-2.295000076E0,8.877000809E0,7.429500222E-1,9.198920776E0
1.846738625E0,-2.256000042E0,8.914950371E0,8.959500194E-1,9.239513122E0
1.848698773E0,-2.295000076E0,8.914950371E0,1.050000072E0,9.265304399E0
1.850659011E0,-2.332950115E0,8.914950371E0,1.203000069E0,9.293341999E0
1.852619285E0,-2.295000076E0,9.030000687E0,1.356000066E0,9.415236265E0
1.854579548E0,-2.103000164E0,9.106050491E0,1.432950020E0,9.454951666E0
1.856539932E0,-1.987950087E0,9.145050049E0,1.432950020E0,9.467694107E0
1.858500264E0,-1.987950087E0,9.106050491E0,1.432950020E0,9.430028996E0
1.860460569E0,-2.026050091E0,9.183000565E0,1.471050024E0,9.518212359E0
1.862420882E0,-1.873050094E0,9.375000000E0,1.548000097E0,9.684794575E0
1.864381008E0,-1.567050099E0,9.412950516E0,1.510050058E0,9.661238772E0
1.866341189E0,-1.375050068E0,9.490050316E0,1.471050024E0,9.701330108E0
1.868301652E0,-1.336950064E0,9.565950394E0,1.471050024E0,9.770303505E0
1.870262033E0,-1.375050068E0,9.643050194E0,1.471050024E0,9.851049076E0
1.872222554E0,-1.297950029E0,9.720000267E0,1.471050024E0,9.916000587E0
1.874183034E0,-1.144950032E0,9.873000145E0,1.471050024E0,1.004743901E1
1.876143448E0,-9.919500351E-1,9.949950218E0,1.471050024E0,1.010690172E1
1.878103882E0,-7.230000496E-1,1.002600002E1,1.432950020E0,1.015365704E1
1.880064362E0,-7.230000496E-1,1.010295010E1,1.432950020E0,1.022964689E1
1.882024818E0,-7.999500632E-1,1.010295010E1,1.471050024E0,1.024077677E1
1.883985461E0,-6.850500107E-1,1.021800041E1,1.395000100E0,1.033551408E1
1.885946049E0,-5.320500135E-1,1.033305073E1,1.395000100E0,1.044035631E1
1.887906535E0,-3.780000210E-1,1.044795036E1,1.432950020E0,1.055253034E1
1.889867051E0,-2.629500031E-1,1.056300068E1,1.432950020E0,1.066299544E1
1.891827312E0,-2.250000089E-1,1.056300068E1,1.395000100E0,1.065709311E1
1.893787655E0,-3.019500077E-1,1.063995075E1,1.395000100E0,1.073525738E1
1.895748451E0,-1.870500147E-1,1.075500011E1,1.279950023E0,1.083251066E1
1.897709114E0,-7.200000435E-2,1.083105087E1,1.395000100E0,1.092075420E1
1.899669543E0,4.050000105E-3,1.090800095E1,1.432950020E0,1.100172017E1
1.901630040E0,4.200000316E-2,1.094595051E1,1.432950020E0,1.103942672E1
1.903590360E0,8.100000024E-2,1.106100082E1,1.395000100E0,1.114891589E1
1.905550732E0,1.570500135E-1,1.117605019E1,1.471050024E0,1.127354206E1
1.907511568E0,2.719500065E-1,1.117605019E1,1.471050024E0,1.127572804E1
1.909472268E0,3.490500152E-1,1.121400070E1,1.471050024E0,1.131546004E1
1.911433004E0,4.260000288E-1,1.125300026E1,1.432950020E0,1.135186490E1
1.913393730E0,4.260000288E-1,1.132905006E1,1.356000066E0,1.141786265E1
1.915354221E0,3.109500110E-1,1.121400070E1,1.318050027E0,1.129547509E1
1.917314761E0,1.189500093E-1,1.129095078E1,1.356000066E0,1.137270657E1
1.919275388E0,-3.299999982E-2,1.125300026E1,1.165050030E0,1.131319784E1
1.921235990E0,4.050000105E-3,1.121400070E1,1.050000072E0,1.126305146E1
1.923196428E0,-3.299999982E-2,1.113795090E1,7.810500264E-1,1.116535169E1
1.925156915E0,4.050000105E-3,1.110000038E1,9.349500537E-1,1.113930682E1
1.927117575E0,-1.870500147E-1,1.098495007E1,8.959500194E-1,1.102301420E1
1.929078168E0,-2.629500031E-1,1.090800095E1,7.429500222E-1,1.093643461E1
1.931038787E0,-3.780000210E-1,1.083105087E1,4.750500321E-1,1.084805142E1
1.932999398E0,-4.549500346E-1,1.071600056E1,3.979500234E-1,1.073303367E1
1.934960871E0,-5.320500135E-1,1.067805004E1,3.600000143E-1,1.069735621E1
1.936922091E0,-7.230000496E-1,1.060095024E1,2.070000172E-1,1.062759258E1
1.938882257E0,-8.770500422E-1,1.052505016E1,1.300500035E-1,1.056232980E1
1.940842722E0,-9.919500351E-1,1.048605061E1,1.500000060E-2,1.053287459E1
1.942803183E0,-1.183050036E0,1.037100029E1,-6.105000153E-2,1.043843769E1
1.944763645E0,-1.336950064E0,1.037100029E1,-1.369500011E-1,1.045771666E1
1.946724150E0,-1.489950061E0,1.033305073E1,-2.520000041E-1,1.044295899E1
1.948684643E0,-1.605000019E0,1.029495049E1,-3.289500177E-1,1.042450184E1
1.950645100E0,-1.720050097E0,1.021800041E1,-4.060500264E-1,1.036971462E1
1.952605568E0,-1.834950089E0,1.021800041E1,-4.440000355E-1,1.039094367E1
1.954566163E0,-1.987950087E0,1.025595093E1,-7.120500207E-1,1.047107875E1
1.956526720E0,-2.026050091E0,1.025595093E1,-8.269500136E-1,1.048681337E1
1.958486986E0,-2.026050091E0,1.029495049E1,-9.420000315E-1,1.053462142E1
1.960447337E0,-1.950000048E0,1.029495049E1,-8.659500480E-1,1.051372318E1
1.962407812E0,-1.911000133E0,1.018005085E1,-6.360000372E-1,1.037737216E1
1.964368254E0,-1.987950087E0,1.021800041E1,-3.289500177E-1,1.041478209E1
1.966328764E0,-2.026050091E0,1.014105034E1,-3.670500219E-1,1.034797114E1
1.968289254E0,-1.950000048E0,1.010295010E1,-3.670500219E-1,1.029596166E1
1.970249845E0,-1.987950087E0,1.018005085E1,-2.140500098E-1,1.037454569E1
1.972210407E0,-1.987950087E0,1.033305073E1,5.295000225E-2,1.052267488E1
1.974170343E0,-1.950000048E0,1.033305073E1,9.195000678E-2,1.051584007E1
1.976130472E0,-1.950000048E0,1.029495049E1,1.680000126E-1,1.047934777E1
1.978090225E0,-1.987950087E0,1.037100029E1,3.220500052E-1,1.056472000E1
1.980050088E0,-2.026050091E0,1.048605061E1,3.979500234E-1,1.068739915E1
1.982011597E0,-2.103000164E0,1.056300068E1,2.830500007E-1,1.077402944E1
1.983972624E0,-2.103000164E0,1.060095024E1,2.449500114E-1,1.081030787E1
1.985932279E0,-2.065050125E0,1.067805004E1,2.449500114E-1,1.087865733E1
1.987892329E0,-1.950000048E0,1.071600056E1,3.220500052E-1,1.089673732E1
1.989852860E0,-1.873050094E0,1.056300068E1,7.429500222E-1,1.075347733E1
1.991813250E0,-1.950000048E0,1.071600056E1,1.087950110E0,1.094617758E1
1.993773544E0,-1.950000048E0,1.075500011E1,1.126049995E0,1.098819895E1
1.995733867E0,-1.987950087E0,1.083105087E1,1.203000069E0,1.107749149E1
1.997694346E0,-2.026050091E0,1.094595051E1,8.959500194E-1,1.116787526E1
1.999654783E0,-1.950000048E0,1.098495007E1,9.730500579E-1,1.119903811E1
2.001615205E0,-1.873050094E0,1.102305031E1,1.471050024E0,1.127740852E1
2.003575631E0,-1.873050094E0,1.102305031E1,1.740000129E0,1.131563322E1
2.005536278E0,-1.873050094E0,1.106100082E1,2.046000004E0,1.140351577E1
2.007496860E0,-1.795950055E0,1.102305031E1,2.238000154E0,1.139042227E1
2.009457662E0,-1.873050094E0,1.094595051E1,2.238000154E0,1.132831823E1
2.011418399E0,-1.987950087E0,1.094595051E1,2.200050116E0,1.134045848E1
2.013378859E0,-2.026050091E0,1.110000038E1,1.893000126E0,1.144108111E1
2.015339401E0,-1.987950087E0,1.106100082E1,1.510050058E0,1.133922114E1
2.017300163E0,-2.026050091E0,1.106100082E1,1.585950017E0,1.135631347E1
2.019260860E0,-1.987950087E0,1.117605019E1,1.855050087E0,1.150205434E1
2.021221327E0,-1.911000133E0,1.117605019E1,2.046000004E0,1.152137732E1
2.023181862E0,-1.911000133E0,1.117605019E1,2.275950193E0,1.156442686E1
2.025142626E0,-1.873050094E0,1.125300026E1,2.506050110E0,1.167983813E1
2.027103322E0,-1.834950089E0,1.121400070E1,2.698050022E0,1.167905508E1
2.029063789E0,-1.795950055E0,1.121400070E1,2.851050138E0,1.170930123E1
2.031024324E0,-1.720050097E0,1.121400070E1,3.004050255E0,1.173612807E1
2.032984756E0,-1.642950058E0,1.113795090E1,3.081000090E0,1.167243748E1
2.034945198E0,-1.605000019E0,1.110000038E1,3.234000206E0,1.167239439E1
2.036905887E0,-1.567050099E0,1.106100082E1,3.426000118E0,1.168498447E1
2.038866504E0,-1.489950061E0,1.098495007E1,3.579000235E0,1.164896226E1
2.040827075E0,-1.528050065E0,1.094595051E1,3.771000147E0,1.167772288E1
2.042787659E0,-1.452000022E0,1.090800095E1,3.847950220E0,1.165759450E1
2.044748131E0,-1.413000107E0,1.075500011E1,4.000950336E0,1.156175594E1
2.046708645E0,-1.375050068E0,1.067805004E1,4.116000175E0,1.152618640E1
2.048669412E0,-1.297950029E0,1.056300068E1,4.153950214E0,1.142440195E1
2.050630105E0,-1.297950029E0,1.044795036E1,4.269000053E0,1.136084075E1
2.052590393E0,-1.144950032E0,1.037100029E1,4.269000053E0,1.127354953E1
2.054550799E0,-1.030050039E0,1.021800041E1,4.384050369E0,1.116639750E1
2.056511209E0,-9.529500604E-1,1.021800041E1,4.461000443E0,1.119000318E1
2.058471628E0,-8.380500674E-1,1.002600002E1,4.498950005E0,1.102105056E1
2.060431783E0,-6.469500065E-1,9.949950218E0,4.537950039E0,1.095504652E1
2.062392015E0,-4.930500090E-1,9.796050072E0,4.498950005E0,1.079102620E1
2.064352650E0,-2.250000089E-1,9.720000267E0,4.537950039E0,1.072949303E1
2.066313167E0,4.050000105E-3,9.604950905E0,4.614000320E0,1.065570726E1
2.068273845E0,1.189500093E-1,9.490050316E0,4.614000320E0,1.055292391E1
2.070234475E0,3.109500110E-1,9.451050758E0,4.690950394E0,1.055575985E1
2.072195764E0,4.639500082E-1,9.412950516E0,4.768050194E0,1.056187434E1
2.074156859E0,6.940500140E-1,9.375000000E0,4.882050037E0,1.059276843E1
2.076117258E0,9.240000248E-1,9.298050880E0,4.996950150E0,1.059608593E1
2.078077861E0,1.039050102E0,9.259950638E0,5.112000465E0,1.062821056E1
2.080038494E0,1.192050099E0,9.220950127E0,5.112000465E0,1.061034653E1
2.081999106E0,1.306950092E0,9.030000687E0,5.188950062E0,1.049639146E1
2.083959902E0,1.384050012E0,8.991000175E0,5.227050304E0,1.049169831E1
2.085920644E0,1.498950124E0,8.914950371E0,5.227050304E0,1.044247320E1
2.087881418E0,1.651950121E0,8.914950371E0,5.266050339E0,1.048506392E1
2.089842183E0,1.843950033E0,8.838000298E0,5.227050304E0,1.043227951E1
2.091802608E0,1.996950150E0,8.800050735E0,5.151000023E0,1.039045254E1
2.093763122E0,2.188950062E0,8.800050735E0,5.035950184E0,1.037271370E1
2.095723754E0,2.341950178E0,8.722949982E0,4.921050072E0,1.028549079E1
2.097684351E0,2.572050095E0,8.685000420E0,4.729050159E0,1.021805213E1
2.099644970E0,2.686950207E0,8.685000420E0,4.576050282E0,1.017787649E1
2.101605582E0,2.610000134E0,8.416950226E0,3.541050196E0,9.497167382E0
2.103566661E0,2.802000046E0,8.493000031E0,3.349050045E0,9.549784813E0
2.105527626E0,2.955000162E0,8.455050468E0,3.273000240E0,9.535849986E0
2.107488362E0,3.147000074E0,8.455050468E0,3.349050045E0,9.623285515E0
2.109449166E0,3.262050152E0,8.532000542E0,3.157950163E0,9.664815242E0
2.111409929E0,3.376950264E0,8.569950104E0,3.043050051E0,9.700927351E0
2.113370704E0,3.453000069E0,8.569950104E0,2.736000061E0,9.636023588E0
2.115331428E0,3.529950142E0,8.569950104E0,2.583000183E0,9.621667357E0
2.117292199E0,3.645000219E0,8.647050858E0,2.353049994E0,9.674417781E0
2.119252968E0,3.607050180E0,8.647050858E0,2.238000154E0,9.632805626E0
2.121213737E0,3.682950258E0,8.647050858E0,2.238000154E0,9.661483107E0
2.123174326E0,3.760050297E0,8.722949982E0,2.161050081E0,9.741559016E0
2.125134968E0,3.798000097E0,8.722949982E0,2.238000154E0,9.773602499E0
2.127095813E0,3.798000097E0,8.761950493E0,2.238000154E0,9.808426269E0
2.129056592E0,3.760050297E0,8.722949982E0,2.161050081E0,9.741559016E0
2.131017360E0,3.760050297E0,8.761950493E0,2.161050081E0,9.776496925E0
2.132978132E0,3.682950258E0,8.877000809E0,2.122950077E0,9.842366737E0
2.134938721E0,3.568050146E0,9.067950249E0,2.046000004E0,9.957149169E0
2.136899363E0,3.415050268E0,9.183000565E0,2.008050203E0,1.000111660E1
2.138859993E0,3.223050117E0,9.298050880E0,1.930950046E0,1.002847797E1
2.140820613E0,3.108000040E0,9.528000832E0,2.008050203E0,1.022128807E1
2.142781361E0,2.955000162E0,9.757950783E0,1.893000126E0,1.036981576E1
2.144742072E0,2.764050245E0,9.949950218E0,2.008050203E0,1.052015916E1
2.146702492E0,2.533950090E0,1.014105034E1,1.930950046E0,1.062969299E1
2.148662997E0,2.380050182E0,1.033305073E1,1.855050087E0,1.076465452E1
2.150623615E0,2.188950062E0,1.052505016E1,1.816050053E0,1.090257864E1
2.152584211E0,1.996950150E0,1.063995075E1,1.893000126E0,1.098998687E1
2.154544875E0,1.729050040E0,1.083105087E1,1.816050053E0,1.111752287E1
2.156505519E0,1.498950124E0,1.094595051E1,1.816050053E0,1.119637092E1
2.158466086E0,1.230000019E0,1.106100082E1,1.777950048E0,1.127030371E1
2.160426675E0,8.470500112E-1,1.121400070E1,1.816050053E0,1.139163479E1
2.162386393E0,5.790000558E-1,1.140600014E1,1.893000126E0,1.157650766E1
2.164346367E0,2.719500065E-1,1.155900097E1,2.046000004E0,1.174183019E1
2.166306911E0,4.200000316E-2,1.159800053E1,2.046000004E0,1.177715994E1
2.168267288E0,-3.019500077E-1,1.155900097E1,1.777950048E0,1.169883685E1
2.170227809E0,-5.320500135E-1,1.148295021E1,1.548000097E0,1.159903130E1
2.172188288E0,-7.230000496E-1,1.132905006E1,1.471050024E0,1.144701239E1
2.174148748E0,-8.380500674E-1,1.121400070E1,1.395000100E0,1.133146791E1
2.176109213E0,-9.529500604E-1,1.098495007E1,1.318050027E0,1.110470610E1
2.178069808E0,-1.068000078E0,1.079295063E1,1.203000069E0,1.091217745E1
2.180030365E0,-1.222050071E0,1.060095024E1,1.240950108E0,1.074306798E1
2.181990811E0,-1.336950064E0,1.048605061E1,1.240950108E0,1.064352620E1
2.183951290E0,-1.528050065E0,1.033305073E1,1.240950108E0,1.051887977E1
2.185912288E0,-1.758000135E0,1.029495049E1,1.203000069E0,1.051302902E1
2.187873134E0,-1.950000048E0,1.021800041E1,1.165050030E0,1.046744354E1
2.189833756E0,-2.103000164E0,1.021800041E1,1.203000069E0,1.050130236E1
2.191794444E0,-2.332950115E0,1.025595093E1,1.165050030E0,1.058227420E1
2.193755226E0,-2.485950232E0,1.021800041E1,1.165050030E0,1.058039803E1
2.195715980E0,-2.485950232E0,1.025595093E1,1.165050030E0,1.061705324E1
2.197676554E0,-2.640000105E0,1.033305073E1,1.087950110E0,1.072031592E1
2.199637194E0,-2.640000105E0,1.029495049E1,1.050000072E0,1.067979898E1
2.201597625E0,-2.755050182E0,1.037100029E1,9.730500579E-1,1.077472853E1
2.203558117E0,-2.830950022E0,1.044795036E1,9.349500537E-1,1.086499316E1
2.205518888E0,-2.908050060E0,1.060095024E1,8.200500607E-1,1.102312947E1
2.207479577E0,-3.061050177E0,1.079295063E1,7.810500264E-1,1.124579257E1
2.209440001E0,-3.175950050E0,1.094595051E1,6.660000086E-1,1.141683175E1
2.211400502E0,-3.214950085E0,1.106100082E1,5.509500504E-1,1.153192045E1
2.213361902E0,-3.175950050E0,1.060095024E1,-3.289500177E-1,1.107136003E1
2.215323038E0,-2.830950022E0,1.075500011E1,-7.120500207E-1,1.114411597E1
2.217282799E0,-2.869950056E0,1.106100082E1,5.509500504E-1,1.144053751E1
2.219242963E0,-3.214950085E0,1.132905006E1,1.395000100E0,1.185872273E1
2.221203515E0,-3.253050089E0,1.148295021E1,1.510050058E0,1.202999300E1
2.223163956E0,-3.175950050E0,1.148295021E1,1.240950108E0,1.197851249E1
2.225124197E0,-3.138000250E0,1.148295021E1,9.349500537E-1,1.194065839E1
2.227084497E0,-2.908050060E0,1.136805058E1,7.050000429E-1,1.175526921E1
2.229044626E0,-2.869950056E0,1.132905006E1,5.899500251E-1,1.170179600E1
2.231004805E0,-2.716050148E0,1.132905006E1,5.899500251E-1,1.166500513E1
2.232965133E0,-2.601000071E0,1.136805058E1,5.899500251E-1,1.167672113E1
2.234925418E0,-2.563050032E0,1.136805058E1,6.660000086E-1,1.167241857E1
2.236885955E0,-2.485950232E0,1.129095078E1,7.810500264E-1,1.158773304E1
2.238846418E0,-2.448000193E0,1.125300026E1,7.050000429E-1,1.153775302E1
2.240806880E0,-2.371050119E0,1.113795090E1,6.280500293E-1,1.140483563E1
2.242767343E0,-2.256000042E0,1.102305031E1,7.050000429E-1,1.127360632E1
2.244727799E0,-2.140950203E0,1.094595051E1,7.429500222E-1,1.117808011E1
2.246688261E0,-2.065050125E0,1.075500011E1,7.050000429E-1,1.097412796E1
2.248648542E0,-1.911000133E0,1.063995075E1,8.580000401E-1,1.084419834E1
2.250608877E0,-1.795950055E0,1.044795036E1,8.200500607E-1,1.063285406E1
2.252569314E0,-1.720050097E0,1.033305073E1,8.580000401E-1,1.051031273E1
2.254529721E0,-1.681950092E0,1.018005085E1,8.200500607E-1,1.035059774E1
2.256490930E0,-1.567050099E0,1.010295010E1,7.810500264E-1,1.025354991E1
2.258451923E0,-1.260000110E0,9.259950638E0,1.680000126E-1,9.346791433E0
2.260411213E0,-9.150000215E-1,9.259950638E0,-6.105000153E-2,9.305247872E0
2.262371002E0,-1.068000078E0,9.528000832E0,8.580000401E-1,9.625985045E0
2.264331533E0,-1.297950029E0,9.720000267E0,1.471050024E0,9.916000587E0
2.266291847E0,-1.452000022E0,9.757950783E0,1.395000100E0,9.963530139E0
2.268251818E0,-1.375050068E0,9.643050194E0,1.050000072E0,9.797024032E0
2.270211905E0,-1.260000110E0,9.528000832E0,8.580000401E-1,9.649174275E0
2.272172430E0,-1.144950032E0,9.375000000E0,5.899500251E-1,9.463063807E0
2.274132826E0,-1.030050039E0,9.183000565E0,4.360500276E-1,9.250872504E0
2.276093254E0,-9.529500604E-1,9.030000687E0,3.979500234E-1,9.088860789E0
2.278053672E0,-8.770500422E-1,8.953050613E0,3.600000143E-1,9.003106801E0
2.280013791E0,-7.230000496E-1,8.953050613E0,5.899500251E-1,9.001549055E0
2.281973991E0,-6.079500318E-1,8.838000298E0,5.899500251E-1,8.878507393E0
2.283935038E0,-6.079500318E-1,8.647050858E0,3.600000143E-1,8.675868359E0
2.285895836E0,-4.930500090E-1,8.569950104E0,2.449500114E-1,8.587615711E0
2.287856060E0,-4.930500090E-1,8.416950226E0,1.680000126E-1,8.433052438E0
2.289816453E0,-3.780000210E-1,8.377950668E0,9.195000678E-2,8.386977776E0
2.291776751E0,-3.780000210E-1,8.263050079E0,2.070000172E-1,8.274281216E0
2.293737073E0,-4.170000255E-1,8.263050079E0,2.070000172E-1,8.276154581E0
2.295696657E0,-3.019500077E-1,8.224950790E0,2.830500007E-1,8.235357103E0
2.297656458E0,-3.019500077E-1,8.187000275E0,2.830500007E-1,8.197454764E0
2.299617437E0,-3.019500077E-1,8.187000275E0,2.070000172E-1,8.195181286E0
2.301578071E0,-3.400500119E-1,8.148000717E0,2.830500007E-1,8.160004105E0
2.303538529E0,-3.019500077E-1,8.148000717E0,1.680000126E-1,8.155324242E0
2.305499021E0,-3.019500077E-1,8.071949959E0,1.680000126E-1,8.079342421E0
2.307459071E0,-3.019500077E-1,8.110050201E0,1.680000126E-1,8.117407966E0
2.309419251E0,-2.629500031E-1,8.110050201E0,1.680000126E-1,8.116050824E0
2.311379760E0,-2.250000089E-1,8.071949959E0,9.195000678E-2,8.075608704E0
2.313340172E0,-2.629500031E-1,8.148000717E0,9.195000678E-2,8.152761078E0
2.315300643E0,-2.629500031E-1,8.148000717E0,5.295000225E-2,8.152414495E0
2.317261128E0,-3.019500077E-1,8.148000717E0,-2.205000073E-2,8.153623470E0
2.319221362E0,-3.400500119E-1,8.187000275E0,1.500000060E-2,8.194073011E0
2.321181669E0,-2.629500031E-1,8.224950790E0,1.500000060E-2,8.229166617E0
2.323142201E0,-3.019500077E-1,8.187000275E0,-6.105000153E-2,8.192794054E0
2.325102667E0,-2.629500031E-1,8.263050079E0,-6.105000153E-2,8.267458281E0
2.327063244E0,-2.629500031E-1,8.263050079E0,-9.900000691E-2,8.267825610E0
2.329023802E0,-2.629500031E-1,8.302050591E0,-1.369500011E-1,8.307342657E0
2.330984248E0,-2.629500031E-1,8.263050079E0,-1.369500011E-1,8.268367107E0
2.332944727E0,-3.019500077E-1,8.224950790E0,-6.105000153E-2,8.230717855E0
2.334905410E0,-2.629500031E-1,8.263050079E0,-9.900000691E-2,8.267825610E0
2.336866033E0,-2.629500031E-1,8.224950790E0,-9.900000691E-2,8.229748429E0
2.338826642E0,-2.629500031E-1,8.302050591E0,-1.369500011E-1,8.307342657E0
2.340787227E0,-3.400500119E-1,8.263050079E0,-2.140500098E-1,8.272813792E0
2.342747487E0,-3.400500119E-1,8.340000153E0,-1.759500057E-1,8.348784041E0
2.344707843E0,-3.400500119E-1,8.340000153E0,-2.140500098E-1,8.349673884E0
2.346668142E0,-3.780000210E-1,8.302050591E0,-1.759500057E-1,8.312513845E0
2.348628458E0,-4.170000255E-1,8.302050591E0,-1.759500057E-1,8.314378596E0
2.350588988E0,-3.780000210E-1,8.340000153E0,-2.140500098E-1,8.351305525E0
2.352549456E0,-3.780000210E-1,8.340000153E0,-2.140500098E-1,8.351305525E0
2.354510277E0,-4.930500090E-1,8.302050591E0,-2.520000041E-1,8.320495557E0
2.356470995E0,-4.170000255E-1,8.263050079E0,-2.140500098E-1,8.276333913E0
2.358431233E0,-4.930500090E-1,8.263050079E0,-1.369500011E-1,8.278879769E0
2.360391612E0,-4.930500090E-1,8.302050591E0,-2.140500098E-1,8.319432656E0
2.362352026E0,-5.320500135E-1,8.263050079E0,-2.140500098E-1,8.282927697E0
2.364312441E0,-4.930500090E-1,8.263050079E0,-2.910000086E-1,8.282860371E0
2.366272777E0,-5.320500135E-1,8.263050079E0,-2.910000086E-1,8.285273371E0
2.368233136E0,-6.079500318E-1,8.224950790E0,-2.910000086E-1,8.252520812E0
2.370193435E0,-6.469500065E-1,8.148000717E0,-2.910000086E-1,8.178822715E0
2.372153751E0,-6.079500318E-1,8.071949959E0,-2.910000086E-1,8.100040764E0
2.374114583E0,-6.469500065E-1,8.110050201E0,-2.520000041E-1,8.139715141E0
2.376075273E0,-6.469500065E-1,8.071949959E0,-2.140500098E-1,8.100662803E0
2.378035832E0,-6.079500318E-1,7.995000362E0,-3.289500177E-1,8.024826612E0
2.379996429E0,-6.469500065E-1,7.957050323E0,-3.289500177E-1,7.990081494E0
2.381956912E0,-6.850500107E-1,7.879950523E0,-3.289500177E-1,7.916509451E0
2.383917429E0,-6.469500065E-1,7.918050289E0,-5.209500194E-1,7.961498202E0
2.385877905E0,-7.620000243E-1,7.842000484E0,-4.819500148E-1,7.893661473E0
2.387838376E0,-7.620000243E-1,7.803000450E0,-5.970000029E-1,7.862815594E0
2.389798791E0,-7.999500632E-1,7.803000450E0,-5.970000029E-1,7.866584083E0
2.391759223E0,-9.150000215E-1,7.803000450E0,-5.590500236E-1,7.876330236E0
2.393719688E0,-9.150000215E-1,7.765050411E0,-5.590500236E-1,7.838735220E0
2.395680144E0,-9.529500604E-1,7.765050411E0,-6.360000372E-1,7.849115731E0
2.397640637E0,-9.919500351E-1,7.726950169E0,-6.739500165E-1,7.819458575E0
2.399601129E0,-1.030050039E0,7.687950134E0,-6.360000372E-1,7.782677971E0
2.401561406E0,-9.529500604E-1,7.650000572E0,-5.970000029E-1,7.732207419E0
2.403521746E0,-9.919500351E-1,7.650000572E0,-6.739500165E-1,7.743428327E0
2.405482048E0,-9.919500351E-1,7.612050533E0,-6.739500165E-1,7.705938413E0
2.407442361E0,-9.919500351E-1,7.612050533E0,-6.360000372E-1,7.702712135E0
2.409402673E0,-1.030050039E0,7.612050533E0,-6.360000372E-1,7.707711233E0
2.411362982E0,-1.030050039E0,7.650000572E0,-5.970000029E-1,7.742087628E0
2.413323604E0,-1.030050039E0,7.612050533E0,-5.590500236E-1,7.701743526E0
2.415284134E0,-1.030050039E0,7.573050499E0,-5.970000029E-1,7.666061958E0
2.417244450E0,-1.030050039E0,7.612050533E0,-5.970000029E-1,7.704591190E0
2.419204828E0,-1.030050039E0,7.650000572E0,-5.970000029E-1,7.742087628E0
2.421165137E0,-1.030050039E0,7.612050533E0,-5.590500236E-1,7.701743526E0
2.423125457E0,-1.068000078E0,7.687950134E0,-6.360000372E-1,7.787791566E0
2.425085942E0,-1.068000078E0,7.687950134E0,-6.739500165E-1,7.790982612E0
2.427046378E0,-1.106999993E0,7.726950169E0,-6.360000372E-1,7.831711431E0
2.429006665E0,-1.144950032E0,7.765050411E0,-5.590500236E-1,7.868891624E0
2.430966996E0,-1.144950032E0,7.726950169E0,-5.970000029E-1,7.834097171E0
2.432927280E0,-1.260000110E0,7.765050411E0,-5.970000029E-1,7.889234257E0
2.434887592E0,-1.260000110E0,7.842000484E0,-5.970000029E-1,7.964984675E0
2.436848033E0,-1.336950064E0,7.842000484E0,-6.739500165E-1,7.983646767E0
2.438808436E0,-1.297950029E0,7.879950523E0,-5.970000029E-1,8.008414546E0
2.440768774E0,-1.375050068E0,7.918050289E0,-5.590500236E-1,8.055980387E0
2.442729131E0,-1.413000107E0,7.957050323E0,-6.360000372E-1,8.106523003E0
2.444689380E0,-1.413000107E0,7.957050323E0,-6.739500165E-1,8.109588632E0
2.446649664E0,-1.452000022E0,8.032950401E0,-7.510500550E-1,8.197601625E0
2.448609660E0,-1.452000022E0,7.995000362E0,-7.510500550E-1,8.160417333E0
2.450569741E0,-1.489950061E0,8.032950401E0,-7.890000343E-1,8.207969565E0
2.452530087E0,-1.489950061E0,7.995000362E0,-8.269500136E-1,8.174584289E0
2.454490355E0,-1.489950061E0,8.071949959E0,-9.040500522E-1,8.257943680E0
2.456450899E0,-1.567050099E0,7.995000362E0,-9.420000315E-1,8.201404811E0
2.458411327E0,-1.605000019E0,8.032950401E0,-9.420000315E-1,8.245706839E0
2.460371615E0,-1.642950058E0,8.032950401E0,-1.057050109E0,8.267099369E0
2.462331944E0,-1.681950092E0,8.110050201E0,-1.171950102E0,8.365126265E0
2.464292382E0,-1.758000135E0,8.071949959E0,-1.249050021E0,8.355062332E0
2.466252788E0,-1.795950055E0,8.224950790E0,-1.287000060E0,8.516549845E0
2.468213245E0,-1.873050094E0,8.340000153E0,-1.287000060E0,8.644089793E0
2.470173697E0,-1.873050094E0,8.416950226E0,-1.441050053E0,8.742424893E0
2.472134160E0,-1.950000048E0,8.416950226E0,-1.516950130E0,8.772040184E0
2.474094620E0,-1.987950087E0,8.569950104E0,-1.632000089E0,8.947592672E0
2.476054948E0,-1.987950087E0,8.647050858E0,-1.671000123E0,9.028603186E0
2.478015315E0,-1.987950087E0,8.722949982E0,-1.708950043E0,9.108364956E0
2.479975581E0,-2.026050091E0,8.800050735E0,-1.786050081E0,9.205202160E0
2.481935867E0,-1.950000048E0,8.877000809E0,-1.786050081E0,9.262484464E0
2.483896358E0,-1.950000048E0,8.914950371E0,-1.747050047E0,9.291448981E0
2.485856788E0,-1.873050094E0,8.953050613E0,-1.786050081E0,9.319624823E0
2.487817300E0,-1.758000135E0,8.991000175E0,-1.786050081E0,9.333735775E0
2.489777788E0,-1.758000135E0,9.030000687E0,-1.824000120E0,9.378616812E0
2.491738031E0,-1.795950055E0,9.106050491E0,-1.786050081E0,9.451749417E0
2.493698339E0,-1.758000135E0,9.145050049E0,-1.786050081E0,9.482219137E0
2.495658871E0,-1.758000135E0,9.220950127E0,-1.747050047E0,9.548228610E0
2.497619337E0,-1.795950055E0,9.336000443E0,-1.747050047E0,9.666360470E0
2.499579754E0,-1.873050094E0,9.412950516E0,-1.747050047E0,9.755210809E0
2.501540185E0,-1.873050094E0,9.490050316E0,-1.786050081E0,9.836632886E0
2.503500715E0,-1.950000048E0,9.643050194E0,-1.708950043E0,9.985560949E0
2.505461202E0,-2.026050091E0,9.681000710E0,-1.708950043E0,1.003728868E1
2.507421795E0,-2.065050125E0,9.757950783E0,-1.632000089E0,1.010670371E1
2.509382356E0,-2.103000164E0,9.796050072E0,-1.516950130E0,1.013342708E1
2.511342847E0,-2.218050003E0,9.873000145E0,-1.479000092E0,1.022659860E1
2.513303358E0,-2.256000042E0,9.949950218E0,-1.441050053E0,1.030376974E1
2.515263792E0,-2.295000076E0,9.988050461E0,-1.326000094E0,1.033375312E1
2.517224262E0,-2.332950115E0,9.988050461E0,-1.210950017E0,1.032812704E1
2.519185036E0,-2.371050119E0,1.010295010E1,-1.096050024E0,1.043517154E1
2.521145721E0,-2.524950027E0,1.014105034E1,-1.057050109E0,1.050398160E1
2.523106190E0,-2.485950232E0,1.021800041E1,-9.810000658E-1,1.056171587E1
2.525066723E0,-2.524950027E0,1.018005085E1,-9.420000315E-1,1.053072514E1
2.527027301E0,-2.563050032E0,1.021800041E1,-8.659500480E-1,1.057008171E1
2.528987870E0,-2.524950027E0,1.021800041E1,-9.420000315E-1,1.056741544E1
2.530948674E0,-2.601000071E0,1.021800041E1,-8.659500480E-1,1.057934796E1
2.532909409E0,-2.640000105E0,1.029495049E1,-9.040500522E-1,1.066643861E1
2.534870050E0,-2.524950027E0,1.029495049E1,-8.659500480E-1,1.063537717E1
2.536830718E0,-2.524950027E0,1.029495049E1,-8.659500480E-1,1.063537717E1
2.538791663E0,-2.524950027E0,1.037100029E1,-9.420000315E-1,1.071542737E1
2.540752510E0,-2.524950027E0,1.037100029E1,-9.810000658E-1,1.071892629E1
2.542712771E0,-2.485950232E0,1.037100029E1,-9.810000658E-1,1.070980657E1
2.544673204E0,-2.485950232E0,1.041000080E1,-1.057050109E0,1.075478592E1
2.546633984E0,-2.485950232E0,1.044795036E1,-1.096050024E0,1.079541296E1
2.548594663E0,-2.448000193E0,1.048605061E1,-1.134000063E0,1.082755367E1
2.550555309E0,-2.485950232E0,1.052505016E1,-1.171950102E0,1.087796380E1
2.552515968E0,-2.448000193E0,1.052505016E1,-1.249050021E0,1.087793693E1
2.554476216E0,-2.410050154E0,1.052505016E1,-1.363950014E0,1.088326157E1
2.556436584E0,-2.410050154E0,1.056300068E1,-1.441050053E0,1.092986507E1
2.558397060E0,-2.371050119E0,1.052505016E1,-1.441050053E0,1.088463067E1
2.560357505E0,-2.371050119E0,1.056300068E1,-1.632000089E0,1.094816360E1
2.562317974E0,-2.371050119E0,1.052505016E1,-1.671000123E0,1.091745396E1
2.564278433E0,-2.371050119E0,1.048605061E1,-1.708950043E0,1.088575428E1
2.566239030E0,-2.295000076E0,1.048605061E1,-1.824000120E0,1.088812468E1
2.568199587E0,-2.332950115E0,1.048605061E1,-1.900950074E0,1.090933200E1
2.570159717E0,-2.332950115E0,1.037100029E1,-2.014950037E0,1.081944208E1
2.572119973E0,-2.332950115E0,1.029495049E1,-2.092050076E0,1.076128874E1
2.574080284E0,-2.371050119E0,1.025595093E1,-2.130000114E0,1.073980021E1
2.576040582E0,-2.332950115E0,1.025595093E1,-2.206950188E0,1.074699097E1
2.578000847E0,-2.371050119E0,1.021800041E1,-2.245050192E0,1.072705278E1
2.579961122E0,-2.371050119E0,1.014105034E1,-2.206950188E0,1.064581654E1
2.581921479E0,-2.371050119E0,1.014105034E1,-2.206950188E0,1.064581654E1
2.583881812E0,-2.410050154E0,1.014105034E1,-2.169000149E0,1.064677441E1
2.585842136E0,-2.448000193E0,1.014105034E1,-2.053950071E0,1.063260635E1
2.587802449E0,-2.524950027E0,1.010295010E1,-1.939050078E0,1.059268089E1
2.589763115E0,-2.601000071E0,1.014105034E1,-1.900950074E0,1.064047530E1
2.591723678E0,-2.677950144E0,1.006500053E1,-1.786050081E0,1.056719583E1
2.593684437E0,-2.793000221E0,1.014105034E1,-1.708950043E0,1.065655960E1
2.595645139E0,-2.830950022E0,1.018005085E1,-1.632000089E0,1.069163868E1
2.597605440E0,-2.908050060E0,1.025595093E1,-1.516950130E0,1.076765630E1
2.599565848E0,-3.022950172E0,1.029495049E1,-1.479000092E0,1.083105140E1
2.601526453E0,-3.175950050E0,1.037100029E1,-1.326000094E0,1.092714885E1
2.603487000E0,-3.253050089E0,1.044795036E1,-1.249050021E0,1.101372451E1
2.605447627E0,-3.406050205E0,1.056300068E1,-1.096050024E0,1.115255518E1
2.607408231E0,-3.445050240E0,1.063995075E1,-1.057050109E0,1.123362266E1
2.609368484E0,-3.559950113E0,1.071600056E1,-1.057050109E0,1.134121985E1
2.611328843E0,-3.675000191E0,1.079295063E1,-1.057050109E0,1.145036090E1
2.613289367E0,-3.675000191E0,1.090800095E1,-9.040500522E-1,1.154588314E1
2.615249842E0,-3.712950230E0,1.098495007E1,-8.269500136E-1,1.162492898E1
2.617210436E0,-3.751050234E0,1.106100082E1,-7.510500550E-1,1.170385378E1
2.619170995E0,-3.751050234E0,1.110000038E1,-6.739500165E-1,1.173603830E1
2.621131460E0,-3.712950230E0,1.117605019E1,-5.590500236E-1,1.178993783E1
2.623091939E0,-3.712950230E0,1.125300026E1,-4.060500264E-1,1.185668128E1
2.625052398E0,-3.712950230E0,1.125300026E1,-3.289500177E-1,1.185429131E1
2.627012863E0,-3.675000191E0,1.132905006E1,-2.520000041E-1,1.191287143E1
2.628973548E0,-3.559950113E0,1.140600014E1,-2.520000041E-1,1.195130068E1
2.630934168E0,-3.483000278E0,1.140600014E1,-1.369500011E-1,1.192672987E1
2.632894803E0,-3.367950201E0,1.140600014E1,-1.369500011E-1,1.189364044E1
2.634855420E0,-3.214950085E0,1.152105045E1,-2.205000073E-2,1.196122877E1
2.636816035E0,-3.138000250E0,1.148295021E1,9.195000678E-2,1.190435407E1
2.638776651E0,-3.100050211E0,1.152105045E1,1.300500035E-1,1.193154759E1
2.640736365E0,-3.022950172E0,1.159800053E1,2.070000172E-1,1.198727212E1
2.642696343E0,-2.985000134E0,1.163595009E1,3.600000143E-1,1.201811800E1
2.644657168E0,-2.946000099E0,1.167405033E1,5.130000114E-1,1.205095584E1
2.646617769E0,-2.869950056E0,1.163595009E1,6.660000086E-1,1.200314558E1
2.648578386E0,-2.830950022E0,1.171305084E1,8.200500607E-1,1.207817537E1
2.650538999E0,-2.716050148E0,1.167405033E1,9.349500537E-1,1.202225067E1
2.652499481E0,-2.640000105E0,1.175100040E1,1.011000037E0,1.208626212E1
2.654460001E0,-2.524950027E0,1.175100040E1,1.011000037E0,1.206165429E1
2.656420939E0,-2.371050119E0,1.178895092E1,1.087950110E0,1.207414088E1
2.658381760E0,-2.332950115E0,1.182795048E1,1.126049995E0,1.210830530E1
2.660342161E0,-2.140950203E0,1.182795048E1,1.203000069E0,1.208020238E1
2.662302685E0,-1.987950087E0,1.186605072E1,1.203000069E0,1.209141491E1
2.664263136E0,-1.834950089E0,1.186605072E1,1.318050027E0,1.207921593E1
2.666223608E0,-1.758000135E0,1.201905060E1,1.356000066E0,1.222239248E1
2.668184242E0,-1.642950058E0,1.201905060E1,1.432950020E0,1.221516303E1
2.670144832E0,-1.489950061E0,1.213395023E1,1.356000066E0,1.230005836E1
2.672105677E0,-1.375050068E0,1.221105099E1,1.432950020E0,1.237149444E1
2.674066447E0,-1.260000110E0,1.232595062E1,1.432950020E0,1.247277053E1
2.676026857E0,-1.068000078E0,1.247895050E1,1.471050024E0,1.261066287E1
2.677987372E0,-9.150000215E-1,1.255605030E1,1.471050024E0,1.267499950E1
2.679948175E0,-8.380500674E-1,1.270905018E1,1.548000097E0,1.283037757E1
2.681908900E0,-7.230000496E-1,1.278600025E1,1.701000094E0,1.291889828E1
2.683869992E0,-5.320500135E-1,1.286295033E1,1.816050053E0,1.300140785E1
2.685830977E0,-4.170000255E-1,1.297800064E1,1.969950080E0,1.313328188E1
2.687791710E0,-2.629500031E-1,1.305405045E1,2.046000004E0,1.321603162E1
2.689752517E0,-1.099500060E-1,1.305405045E1,2.200050116E0,1.323860048E1
2.691713293E0,4.200000316E-2,1.309305096E1,2.200050116E0,1.327667006E1
2.693674069E0,2.340000123E-1,1.309305096E1,2.200050116E0,1.327866559E1
2.695635737E0,4.260000288E-1,1.301595020E1,2.314950228E0,1.322707187E1
2.697597144E0,6.940500140E-1,1.290105057E1,2.391000032E0,1.313909024E1
2.699557805E0,8.850000501E-1,1.278600025E1,2.430000067E0,1.304491962E1
2.701518685E0,1.077000022E0,1.255605030E1,2.391000032E0,1.282697195E1
2.703479485E0,1.306950092E0,1.240305042E1,2.467950106E0,1.271355796E1
2.705440305E0,1.384050012E0,1.213395023E1,2.545050144E0,1.247499992E1
2.707401021E0,1.614000082E0,1.186605072E1,2.583000183E0,1.225071614E1
2.709361767E0,1.804950118E0,1.159800053E1,2.698050022E0,1.204370936E1
2.711322360E0,2.035050154E0,1.132905006E1,2.812950134E0,1.184911359E1
2.713282998E0,2.265000105E0,1.094595051E1,2.773950100E0,1.151689442E1
2.715243604E0,2.341950178E0,1.060095024E1,2.851050138E0,1.122467655E1
2.717204223E0,2.533950090E0,1.029495049E1,2.851050138E0,1.097886130E1
2.719164882E0,2.533950090E0,9.949950218E0,2.928000212E0,1.067687209E1
2.721125529E0,2.494950056E0,9.604950905E0,2.889000177E0,1.033567510E1
2.723086274E0,2.610000134E0,9.298050880E0,2.851050138E0,1.006947555E1
2.725046991E0,2.572050095E0,8.991000175E0,2.851050138E0,9.776605379E0
2.727007750E0,2.533950090E0,8.761950493E0,2.736000061E0,9.522519406E0
2.728968510E0,2.494950056E0,8.493000031E0,2.698050022E0,9.253934256E0
2.730929147E0,2.419050217E0,8.224950790E0,2.659050226E0,8.976200062E0
2.732889820E0,2.419050217E0,8.071949959E0,2.659050226E0,8.836216848E0
2.734850604E0,2.380050182E0,7.842000484E0,2.545050144E0,8.581310547E0
2.736811356E0,2.265000105E0,7.687950134E0,2.545050144E0,8.409047686E0
2.738772148E0,2.188950062E0,7.534950256E0,2.467950106E0,8.225433451E0
2.740732914E0,2.149950027E0,7.381950378E0,2.506050110E0,8.086764722E0
2.742693639E0,2.111999989E0,7.228050232E0,2.430000067E0,7.912657861E0
2.744654377E0,1.996950150E0,7.075050354E0,2.506050110E0,7.766880620E0
2.746614791E0,1.767000079E0,6.997950554E0,2.353049994E0,7.591471893E0
2.748575300E0,1.729050040E0,6.922050476E0,2.275950193E0,7.488948265E0
2.750536167E0,1.690050125E0,6.844950199E0,2.161050081E0,7.374262682E0
2.752496923E0,1.498950124E0,6.844950199E0,2.046000004E0,7.299747305E0
2.754458190E0,1.422000051E0,6.807000160E0,1.969950080E0,7.227588716E0
2.756419307E0,1.345050097E0,6.883050442E0,1.969950080E0,7.284658294E0
2.758380063E0,1.306950092E0,6.807000160E0,1.855050087E0,7.175275643E0
2.760340925E0,1.153950095E0,6.883050442E0,1.777950048E0,7.202019896E0
2.762302042E0,1.077000022E0,6.960000515E0,1.777950048E0,7.263789823E0
2.764263081E0,9.240000248E-1,7.036950111E0,1.777950048E0,7.316662442E0
2.766223805E0,8.470500112E-1,7.113000393E0,1.701000094E0,7.362449975E0
2.768184621E0,6.550500393E-1,7.267050266E0,1.740000129E0,7.501113956E0
2.770144300E0,5.410500169E-1,7.381950378E0,1.624950051E0,7.578020136E0
2.772104313E0,2.719500065E-1,7.497000217E0,1.624950051E0,7.675899409E0
2.774065162E0,1.570500135E-1,7.650000572E0,1.510050058E0,7.799193846E0
2.776025769E0,8.100000024E-2,7.765050411E0,1.510050058E0,7.910930417E0
2.777986252E0,4.050000105E-3,7.918050289E0,1.510050058E0,8.060756042E0
2.779946771E0,-7.200000435E-2,8.032950401E0,1.510050058E0,8.173966438E0
2.781907223E0,-7.200000435E-2,8.224950790E0,1.624950051E0,8.384238914E0
2.783867694E0,-1.099500060E-1,8.416950226E0,1.624950051E0,8.573074290E0
2.785828288E0,-1.480500102E-1,8.647050858E0,1.663050056E0,8.806766877E0
2.787788846E0,-2.250000089E-1,8.838000298E0,1.701000094E0,9.003014805E0
2.789749337E0,-4.549500346E-1,8.991000175E0,1.663050056E0,9.154823820E0
2.791709848E0,-5.700000525E-1,9.220950127E0,1.663050056E0,9.387041961E0
2.793670435E0,-7.620000243E-1,9.412950516E0,1.585950017E0,9.575986576E0
2.795631000E0,-7.999500632E-1,9.565950394E0,1.624950051E0,9.735902100E0
2.797591494E0,-8.770500422E-1,9.720000267E0,1.585950017E0,9.887510274E0
2.799552006E0,-8.770500422E-1,9.835050583E0,1.585950017E0,1.000063369E1
2.801512638E0,-8.770500422E-1,9.988050461E0,1.510050058E0,1.013955719E1
2.803473235E0,-8.770500422E-1,1.006500053E1,1.510050058E0,1.021536606E1
2.805433988E0,-8.380500674E-1,1.025595093E1,1.510050058E0,1.040034175E1
2.807394696E0,-8.770500422E-1,1.033305073E1,1.471050024E0,1.047402226E1
2.809355476E0,-8.770500422E-1,1.044795036E1,1.471050024E0,1.058739211E1
2.811316235E0,-7.999500632E-1,1.052505016E1,1.471050024E0,1.065741944E1
2.813276826E0,-7.620000243E-1,1.056300068E1,1.471050024E0,1.069212867E1
2.815237467E0,-6.079500318E-1,1.056300068E1,1.432950020E0,1.067707508E1
2.817197898E0,-5.320500135E-1,1.052505016E1,1.432950020E0,1.063546444E1
2.819158390E0,-4.549500346E-1,1.048605061E1,1.471050024E0,1.059850107E1
2.821118886E0,-3.400500119E-1,1.044795036E1,1.471050024E0,1.055648090E1
2.823079384E0,-2.250000089E-1,1.037100029E1,1.471050024E0,1.047722579E1
2.825040155E0,-1.480500102E-1,1.025595093E1,1.471050024E0,1.036197068E1
2.827000846E0,4.050000105E-3,1.018005085E1,1.395000100E0,1.027518744E1
2.828961495E0,1.189500093E-1,1.006500053E1,1.395000100E0,1.016190977E1
2.830922156E0,2.719500065E-1,9.910950661E0,1.279950023E0,9.996958131E0
2.832882709E0,4.260000288E-1,9.796050072E0,1.279950023E0,9.888495593E0
2.834843300E0,5.410500169E-1,9.681000710E0,1.279950023E0,9.780224022E0
2.836804684E0,6.940500140E-1,9.565950394E0,1.318050027E0,9.681237949E0
2.838765836E0,8.089500666E-1,9.451050758E0,1.279950023E0,9.571574202E0
2.840726361E0,8.470500112E-1,9.298050880E0,1.203000069E0,9.413737465E0
2.842687069E0,9.619500637E-1,9.183000565E0,1.203000069E0,9.311286509E0
2.844647642E0,1.077000022E0,9.106050491E0,1.356000066E0,9.269240572E0
2.846608242E0,1.114950061E0,9.030000687E0,1.318050027E0,9.193545666E0
2.848568680E0,1.114950061E0,8.953050613E0,1.279950023E0,9.112546350E0
2.850529165E0,1.153950095E0,8.953050613E0,1.240950108E0,9.112007094E0
2.852489622E0,1.192050099E0,8.838000298E0,1.203000069E0,8.998802246E0
2.854450088E0,1.269000053E0,8.761950493E0,1.203000069E0,8.934727010E0
2.856410737E0,1.306950092E0,8.685000420E0,1.126049995E0,8.854678957E0
2.858371326E0,1.269000053E0,8.647050858E0,1.203000069E0,8.822077920E0
2.860331631E0,1.269000053E0,8.608050346E0,1.279950023E0,8.794723643E0
2.862292020E0,1.269000053E0,8.608050346E0,1.356000066E0,8.806113109E0
2.864252493E0,1.269000053E0,8.608050346E0,1.395000100E0,8.812202743E0
2.866212941E0,1.192050099E0,8.532000542E0,1.432950020E0,8.733233218E0
2.868173376E0,1.230000019E0,8.532000542E0,1.395000100E0,8.732351262E0
2.870133804E0,1.114950061E0,8.493000031E0,1.395000100E0,8.678720438E0
2.872094315E0,1.153950095E0,8.493000031E0,1.395000100E0,8.683816881E0
2.874054802E0,1.039050102E0,8.455050468E0,1.432950020E0,8.638336026E0
2.876015575E0,9.619500637E-1,8.455050468E0,1.432950020E0,8.629401608E0
2.877976264E0,9.240000248E-1,8.455050468E0,1.432950020E0,8.625253633E0
2.879936693E0,8.089500666E-1,8.493000031E0,1.471050024E0,8.657334342E0
2.881897194E0,7.320000529E-1,8.493000031E0,1.471050024E0,8.650483326E0
2.883857649E0,7.320000529E-1,8.493000031E0,1.471050024E0,8.650483326E0
2.885818117E0,6.169500351E-1,8.569950104E0,1.471050024E0,8.717147486E0
2.887777856E0,5.410500169E-1,8.569950104E0,1.471050024E0,8.712104687E0
2.889737809E0,5.410500169E-1,8.532000542E0,1.471050024E0,8.674777031E0
2.891698172E0,4.639500082E-1,8.532000542E0,1.432950020E0,8.663926859E0
2.893658418E0,4.639500082E-1,8.569950104E0,1.471050024E0,8.707656548E0
2.895618917E0,4.260000288E-1,8.532000542E0,1.471050024E0,8.668361866E0
2.897579341E0,3.870000243E-1,8.532000542E0,1.471050024E0,8.666532780E0
2.899539854E0,3.109500110E-1,8.532000542E0,1.471050024E0,8.663469936E0
2.901500341E0,2.719500065E-1,8.532000542E0,1.471050024E0,8.662157827E0
2.903460784E0,1.570500135E-1,8.532000542E0,1.471050024E0,8.659312105E0
2.905421251E0,1.189500093E-1,8.532000542E0,1.471050024E0,8.658704899E0
2.907382206E0,4.050000105E-3,8.569950104E0,1.432950020E0,8.688924384E0
2.909343018E0,-3.299999982E-2,8.608050346E0,1.432950020E0,8.726566652E0
2.911303601E0,-7.200000435E-2,8.647050858E0,1.356000066E0,8.753022833E0
2.913264251E0,-1.870500147E-1,8.685000420E0,1.356000066E0,8.792209971E0
2.915224910E0,-2.250000089E-1,8.761950493E0,1.356000066E0,8.869111434E0
2.917185562E0,-3.019500077E-1,8.838000298E0,1.395000100E0,8.952510729E0
2.919146351E0,-3.019500077E-1,8.877000809E0,1.471050024E0,9.003127531E0
2.921107100E0,-3.400500119E-1,8.914950371E0,1.471050024E0,9.041900370E0
2.923067694E0,-3.780000210E-1,8.953050613E0,1.471050024E0,9.080968422E0
2.925028333E0,-4.549500346E-1,9.030000687E0,1.471050024E0,9.160342794E0
2.926989123E0,-4.549500346E-1,9.067950249E0,1.510050058E0,9.204072600E0
2.928949869E0,-4.549500346E-1,9.145050049E0,1.510050058E0,9.280041547E0
2.930910643E0,-4.930500090E-1,9.183000565E0,1.471050024E0,9.313140494E0
2.932871408E0,-4.930500090E-1,9.259950638E0,1.510050058E0,9.395213425E0
2.934832313E0,-4.930500090E-1,9.336000443E0,1.510050058E0,9.470177071E0
2.936793177E0,-4.930500090E-1,9.375000000E0,1.510050058E0,9.508626320E0
2.938753936E0,-5.320500135E-1,9.336000443E0,1.624950051E0,9.491282534E0
2.940714722E0,-4.930500090E-1,9.412950516E0,1.663050056E0,9.571440394E0
2.942675308E0,-4.549500346E-1,9.412950516E0,1.740000129E0,9.583225834E0
2.944635953E0,-4.549500346E-1,9.451050758E0,1.701000094E0,9.613674703E0
2.946596563E0,-5.320500135E-1,9.490050316E0,1.663050056E0,9.649345455E0
2.948557184E0,-4.549500346E-1,9.451050758E0,1.663050056E0,9.607032604E0
2.950517824E0,-5.700000525E-1,9.490050316E0,1.663050056E0,9.651512345E0
2.952478471E0,-7.230000496E-1,9.412950516E0,1.548000097E0,9.566748182E0
2.954439261E0,-7.230000496E-1,9.604950905E0,1.510050058E0,9.749772415E0
2.956400009E0,-6.469500065E-1,9.643050194E0,1.510050058E0,9.781984079E0
2.958360377E0,-5.700000525E-1,9.604950905E0,1.471050024E0,9.733651428E0
2.960320857E0,-5.320500135E-1,9.720000267E0,1.395000100E0,9.833997544E0
2.962281305E0,-5.320500135E-1,9.720000267E0,1.279950023E0,9.818337663E0
2.964241770E0,-5.700000525E-1,9.720000267E0,1.240950108E0,9.815460377E0
2.966202275E0,-5.700000525E-1,9.720000267E0,1.203000069E0,9.810734652E0
2.968162768E0,-5.700000525E-1,9.720000267E0,1.165050030E0,9.806153518E0
2.970123585E0,-6.079500318E-1,9.720000267E0,1.203000069E0,9.813012667E0
2.972084307E0,-6.469500065E-1,9.681000710E0,1.203000069E0,9.776887450E0
2.974045185E0,-6.850500107E-1,9.681000710E0,1.050000072E0,9.761842470E0
2.976006042E0,-6.850500107E-1,9.720000267E0,9.349500537E-1,9.788862565E0
2.977966976E0,-7.230000496E-1,9.757950783E0,9.349500537E-1,9.829265698E0
2.979927888E0,-7.620000243E-1,9.757950783E0,9.349500537E-1,9.832211304E0
2.981888318E0,-8.770500422E-1,9.757950783E0,7.810500264E-1,9.828370129E0
2.983848890E0,-8.770500422E-1,9.796050072E0,7.050000429E-1,9.860468490E0
2.985809268E0,-9.529500604E-1,9.835050583E0,6.280500293E-1,9.901049471E0
2.987769717E0,-9.529500604E-1,9.757950783E0,6.280500293E-1,9.824467626E0
2.989730225E0,-9.919500351E-1,9.720000267E0,5.899500251E-1,9.788279271E0
2.991690715E0,-1.030050039E0,9.757950783E0,4.750500321E-1,9.823659150E0
2.993651307E0,-1.106999993E0,9.757950783E0,4.750500321E-1,9.832025478E0
2.995611869E0,-1.144950032E0,9.643050194E0,3.979500234E-1,9.718934707E0
2.997573265E0,-1.106999993E0,9.565950394E0,3.220500052E-1,9.635173695E0
2.999534413E0,-1.106999993E0,9.412950516E0,2.830500007E-1,9.482046388E0
3.001494893E0,-1.222050071E0,9.259950638E0,2.449500114E-1,9.343451862E0
3.003455569E0,-1.222050071E0,9.106050491E0,2.449500114E-1,9.190950029E0
3.005416173E0,-1.260000110E0,9.067950249E0,2.070000172E-1,9.157410715E0
3.007376799E0,-1.375050068E0,9.030000687E0,1.680000126E-1,9.135638954E0
3.009337437E0,-1.452000022E0,9.030000687E0,9.195000678E-2,9.146456760E0
3.011298054E0,-1.567050099E0,9.145050049E0,9.195000678E-2,9.278795246E0
3.013258669E0,-1.681950092E0,9.259950638E0,-6.105000153E-2,9.411661332E0
3.015219285E0,-1.681950092E0,9.259950638E0,-1.759500057E-1,9.413107900E0
3.017179765E0,-1.720050097E0,9.183000565E0,-9.900000691E-2,9.343226033E0
3.019140285E0,-1.720050097E0,9.106050491E0,-1.759500057E-1,9.268747827E0
3.021101066E0,-1.720050097E0,8.953050613E0,-9.900000691E-2,9.117318061E0
3.023061760E0,-1.795950055E0,8.877000809E0,-1.369500011E-1,9.057888013E0
3.025022363E0,-1.795950055E0,8.761950493E0,-9.900000691E-2,8.944663998E0
3.026982992E0,-1.795950055E0,8.608050346E0,-1.759500057E-1,8.795164909E0
3.028943245E0,-1.834950089E0,8.569950104E0,-1.369500011E-1,8.765263368E0
3.030903608E0,-1.911000133E0,8.532000542E0,-1.759500057E-1,8.745165130E0
3.032863932E0,-1.987950087E0,8.416950226E0,-2.140500098E-1,8.651174143E0
3.034824281E0,-2.026050091E0,8.416950226E0,-2.910000086E-1,8.662252079E0
3.036784896E0,-2.026050091E0,8.455050468E0,-3.289500177E-1,8.700630179E0
3.038745433E0,-2.103000164E0,8.455050468E0,-3.670500219E-1,8.720390693E0
3.040706062E0,-2.179949999E0,8.493000031E0,-4.060500264E-1,8.777705175E0
3.042666664E0,-2.218050003E0,8.532000542E0,-4.440000355E-1,8.826772632E0
3.044627138E0,-2.218050003E0,8.532000542E0,-5.209500194E-1,8.830977748E0
3.046587656E0,-2.256000042E0,8.532000542E0,-5.209500194E-1,8.840585860E0
3.048548108E0,-2.256000042E0,8.532000542E0,-5.209500194E-1,8.840585860E0
3.050508579E0,-2.295000076E0,8.569950104E0,-4.819500148E-1,8.885006806E0
3.052469353E0,-2.295000076E0,8.608050346E0,-4.819500148E-1,8.921761706E0
3.054430038E0,-2.218050003E0,8.493000031E0,-4.819500148E-1,8.791079066E0
3.056390822E0,-2.218050003E0,8.493000031E0,-4.440000355E-1,8.789080234E0
3.058351577E0,-2.140950203E0,8.493000031E0,-4.440000355E-1,8.769940326E0
3.060312034E0,-2.103000164E0,8.493000031E0,-4.060500264E-1,8.758911795E0
3.062272579E0,-2.103000164E0,8.493000031E0,-4.060500264E-1,8.758911795E0
3.064233160E0,-2.065050125E0,8.532000542E0,-3.289500177E-1,8.784513269E0
3.066193731E0,-1.950000048E0,8.532000542E0,-4.060500264E-1,8.761415984E0
3.068154515E0,-1.987950087E0,8.493000031E0,-4.060500264E-1,8.732002731E0
3.070115250E0,-1.911000133E0,8.493000031E0,-3.670500219E-1,8.713076193E0
3.072075530E0,-1.911000133E0,8.532000542E0,-3.670500219E-1,8.751095958E0
3.074035944E0,-1.834950089E0,8.569950104E0,-3.670500219E-1,8.771876215E0
3.075996773E0,-1.795950055E0,8.608050346E0,-3.670500219E-1,8.801062043E0
3.077957481E0,-1.681950092E0,8.647050858E0,-4.060500264E-1,8.818464791E0
3.079918280E0,-1.681950092E0,8.569950104E0,-4.440000355E-1,8.744720517E0
3.081879038E0,-1.720050097E0,8.685000420E0,-3.289500177E-1,8.859797556E0
3.083839630E0,-1.642950058E0,8.647050858E0,-4.819500148E-1,8.814933309E0
3.085800271E0,-1.528050065E0,8.647050858E0,-4.819500148E-1,8.794242511E0
3.087761196E0,-1.375050068E0,8.647050858E0,-5.590500236E-1,8.773527691E0
3.089722038E0,-1.375050068E0,8.647050858E0,-4.819500148E-1,8.768952448E0
3.091682815E0,-1.297950029E0,8.647050858E0,-3.289500177E-1,8.750106909E0
3.093643598E0,-1.336950064E0,8.647050858E0,-2.140500098E-1,8.752413462E0
3.095604004E0,-1.413000107E0,8.685000420E0,-6.105000153E-2,8.799405019E0
3.097564521E0,-1.336950064E0,8.722949982E0,-1.759500057E-1,8.826565032E0
3.099525332E0,-1.183050036E0,8.761950493E0,-1.369500011E-1,8.842518823E0
3.101486057E0,-1.106999993E0,8.685000420E0,-9.900000691E-2,8.755825619E0
3.103446839E0,-1.030050039E0,8.722949982E0,-9.900000691E-2,8.784114097E0
3.105407601E0,-1.030050039E0,8.685000420E0,-2.205000073E-2,8.745897414E0
3.107368416E0,-1.030050039E0,8.685000420E0,1.500000060E-2,8.745882481E0
3.109329216E0,-9.919500351E-1,8.685000420E0,1.300500035E-1,8.742431593E0
3.111288900E0,-1.144950032E0,8.647050858E0,2.070000172E-1,8.724978402E0
3.113248911E0,-1.222050071E0,8.685000420E0,3.600000143E-1,8.777940457E0
3.115209769E0,-1.144950032E0,8.685000420E0,2.070000172E-1,8.762590477E0
3.117170375E0,-1.030050039E0,8.647050858E0,4.360500276E-1,8.719095781E0
3.119130813E0,-1.030050039E0,8.722949982E0,6.280500293E-1,8.805981280E0
3.121091300E0,-1.030050039E0,8.685000420E0,7.050000429E-1,8.774238453E0
3.123051757E0,-1.183050036E0,8.685000420E0,8.959500194E-1,8.810877715E0
3.125012223E0,-1.260000110E0,8.800050735E0,1.011000037E0,8.947100888E0
3.126972894E0,-1.260000110E0,8.800050735E0,9.349500537E-1,8.938826815E0
3.128933515E0,-1.222050071E0,8.761950493E0,9.730500579E-1,8.900112877E0
3.130893950E0,-1.183050036E0,8.800050735E0,9.730500579E-1,8.932375202E0
3.132854440E0,-1.222050071E0,8.877000809E0,1.050000072E0,9.022031361E0
3.134815436E0,-1.297950029E0,8.914950371E0,1.126049995E0,9.079041964E0
3.136776284E0,-1.413000107E0,8.991000175E0,1.126049995E0,9.170749263E0
3.138736880E0,-1.413000107E0,9.106050491E0,1.240950108E0,9.298208538E0
3.140697536E0,-1.528050065E0,9.183000565E0,1.279950023E0,9.396845664E0
3.142658144E0,-1.605000019E0,9.336000443E0,1.318050027E0,9.564213778E0
3.144618767E0,-1.681950092E0,9.412950516E0,1.318050027E0,9.652453025E0
3.146579381E0,-1.873050094E0,9.451050758E0,1.395000100E0,9.735332679E0
3.148539998E0,-1.911000133E0,9.643050194E0,1.432950020E0,9.934469503E0
3.150500586E0,-1.795950055E0,9.757950783E0,1.318050027E0,1.000901074E1
3.152461170E0,-1.720050097E0,9.835050583E0,1.318050027E0,1.007095071E1
3.154421656E0,-1.642950058E0,9.949950218E0,1.318050027E0,1.017044985E1
3.156382170E0,-1.642950058E0,1.006500053E1,1.356000066E0,1.028796660E1
3.158342623E0,-1.642950058E0,1.021800041E1,1.432950020E0,1.044797411E1
3.160303094E0,-1.642950058E0,1.025595093E1,1.432950020E0,1.048509228E1
3.162263873E0,-1.642950058E0,1.044795036E1,1.471050024E0,1.067815246E1
3.164224558E0,-1.642950058E0,1.052505016E1,1.471050024E0,1.075360191E1
3.166185027E0,-1.567050099E0,1.071600056E1,1.471050024E0,1.092942369E1
3.168145560E0,-1.528050065E0,1.079295063E1,1.471050024E0,1.099939582E1
3.170106504E0,-1.452000022E0,1.079295063E1,1.471050024E0,1.098908893E1
3.172067327E0,-1.375050068E0,1.090800095E1,1.471050024E0,1.109230524E1
3.174027773E0,-1.297950029E0,1.098495007E1,1.471050024E0,1.115875398E1
3.175988329E0,-1.183050036E0,1.102305031E1,1.471050024E0,1.118352510E1
3.177949134E0,-1.068000078E0,1.110000038E1,1.471050024E0,1.124787183E1
3.179909866E0,-9.919500351E-1,1.117605019E1,1.471050024E0,1.131600861E1
3.181870463E0,-9.919500351E-1,1.117605019E1,1.471050024E0,1.131600861E1
3.183831099E0,-9.529500604E-1,1.125300026E1,1.471050024E0,1.138868372E1
3.185791695E0,-9.529500604E-1,1.129095078E1,1.471050024E0,1.142618359E1
3.187752314E0,-9.529500604E-1,1.125300026E1,1.471050024E0,1.138868372E1
3.189713063E0,-9.919500351E-1,1.129095078E1,1.510050058E0,1.143458724E1
3.191673774E0,-7.999500632E-1,1.125300026E1,1.510050058E0,1.138201151E1
3.193634553E0,-6.079500318E-1,1.125300026E1,1.471050024E0,1.136501677E1
3.195595312E0,-4.930500090E-1,1.121400070E1,1.510050058E0,1.132595079E1
3.197555916E0,-4.170000255E-1,1.113795090E1,1.471050024E0,1.124241199E1
3.199516589E0,-3.400500119E-1,1.113795090E1,1.432950020E0,1.123489786E1
3.201477374E0,-4.170000255E-1,1.106100082E1,1.318050027E0,1.114705720E1
3.203438126E0,-4.170000255E-1,1.102305031E1,1.165050030E0,1.109228870E1
3.205398854E0,-4.930500090E-1,1.098495007E1,1.050000072E0,1.104602763E1
3.207359589E0,-5.320500135E-1,1.090800095E1,8.580000401E-1,1.095462121E1
3.209320363E0,-5.320500135E-1,1.087005043E1,7.429500222E-1,1.090839348E1
3.211281126E0,-6.079500318E-1,1.075500011E1,5.130000114E-1,1.078437758E1
3.213241762E0,-6.850500107E-1,1.071600056E1,4.750500321E-1,1.074837820E1
3.215202435E0,-6.850500107E-1,1.063995075E1,3.220500052E-1,1.066684404E1
3.217163535E0,-7.230000496E-1,1.052505016E1,2.449500114E-1,1.055269684E1
3.219124510E0,-8.770500422E-1,1.041000080E1,2.449500114E-1,1.044975282E1
3.221084903E0,-9.529500604E-1,1.048605061E1,9.195000678E-2,1.052966409E1
3.223045454E0,-8.770500422E-1,1.052505016E1,1.500000060E-2,1.056153979E1
3.225005720E0,-7.999500632E-1,1.056300068E1,-6.105000153E-2,1.059342393E1
3.226966070E0,-6.850500107E-1,1.048605061E1,-2.205000073E-2,1.050842695E1
3.228926370E0,-8.380500674E-1,1.037100029E1,5.295000225E-2,1.040494011E1
3.230886685E0,-8.770500422E-1,1.044795036E1,-1.369500011E-1,1.048559197E1
3.232847405E0,-7.999500632E-1,1.056300068E1,-2.205000073E-2,1.059327096E1
3.234808000E0,-7.620000243E-1,1.063995075E1,-9.900000691E-2,1.066766127E1
3.236768754E0,-6.850500107E-1,1.063995075E1,-6.105000153E-2,1.066215610E1
3.238729461E0,-6.850500107E-1,1.067805004E1,-6.105000153E-2,1.070017632E1
3.240689747E0,-6.469500065E-1,1.067805004E1,-2.205000073E-2,1.069765316E1
3.242650156E0,-6.079500318E-1,1.067805004E1,5.295000225E-2,1.069547379E1
3.244611102E0,-7.620000243E-1,1.060095024E1,1.680000126E-1,1.062962906E1
3.246571904E0,-7.999500632E-1,1.071600056E1,9.195000678E-2,1.074621063E1
3.248532353E0,-6.850500107E-1,1.063995075E1,-9.900000691E-2,1.066244093E1
3.250492906E0,-6.469500065E-1,1.071600056E1,1.680000126E-1,1.073682617E1
3.252452811E0,-6.079500318E-1,1.083105087E1,3.600000143E-1,1.085407141E1
3.254412906E0,-5.320500135E-1,1.090800095E1,5.130000114E-1,1.093301106E1
3.256373639E0,-4.549500346E-1,1.098495007E1,7.050000429E-1,1.101694751E1
3.258334164E0,-4.170000255E-1,1.094595051E1,7.429500222E-1,1.097905717E1
3.260294571E0,-4.549500346E-1,1.102305031E1,7.810500264E-1,1.106004777E1
3.262255012E0,-4.549500346E-1,1.106100082E1,7.810500264E-1,1.109787177E1
3.264215521E0,-4.549500346E-1,1.106100082E1,8.200500607E-1,1.110068470E1
3.266176010E0,-4.930500090E-1,1.110000038E1,9.349500537E-1,1.115021248E1
3.268136772E0,-5.320500135E-1,1.110000038E1,9.349500537E-1,1.115200508E1
3.270097461E0,-6.469500065E-1,1.110000038E1,9.730500579E-1,1.116133411E1
3.272058065E0,-6.850500107E-1,1.110000038E1,1.011000037E0,1.116697914E1
3.274018694E0,-7.230000496E-1,1.117605019E1,9.730500579E-1,1.124160368E1
3.275979351E0,-8.770500422E-1,1.125300026E1,9.730500579E-1,1.132899192E1
3.277940000E0,-9.529500604E-1,1.129095078E1,9.730500579E-1,1.137279691E1
3.279900790E0,-1.183050036E0,1.121400070E1,1.011000037E0,1.132146370E1
3.281861538E0,-1.297950029E0,1.132905006E1,9.349500537E-1,1.144142392E1
3.283822132E0,-1.260000110E0,1.140600014E1,8.580000401E-1,1.150741515E1
3.285782771E0,-1.222050071E0,1.136805058E1,8.200500607E-1,1.146291683E1
3.287743697E0,-1.222050071E0,1.144395065E1,9.730500579E-1,1.155007530E1
3.289704538E0,-1.297950029E0,1.140600014E1,1.087950110E0,1.153105151E1
