"Time (s)","Acceleration x (m/s^2)","Acceleration y (m/s^2)","Acceleration z (m/s^2)","Absolute acceleration (m/s^2)"
3.436558500E-2,-3.483000278E0,1.041000080E1,4.750500321E-1,1.098749654E1
3.632605900E-2,-3.520950079E0,1.048605061E1,4.750500321E-1,1.107158612E1
3.828920100E-2,-3.520950079E0,1.056300068E1,3.979500234E-1,1.114147374E1
4.025046400E-2,-3.559950113E0,1.056300068E1,3.979500234E-1,1.115385998E1
4.221227700E-2,-3.598050117E0,1.060095024E1,4.360500276E-1,1.120340351E1
4.417376300E-2,-3.559950113E0,1.063995075E1,5.130000114E-1,1.123142760E1
4.613534900E-2,-3.598050117E0,1.067805004E1,5.509500504E-1,1.128141229E1
4.809782500E-2,-3.675000191E0,1.071600056E1,5.130000114E-1,1.134025852E1
5.006004000E-2,-3.828000069E0,1.060095024E1,-1.759500057E-1,1.127229741E1
5.202074200E-2,-3.636000156E0,1.067805004E1,-2.520000041E-1,1.128294083E1
5.398188800E-2,-3.445050240E0,1.071600056E1,9.730500579E-1,1.129813549E1
5.594346800E-2,-3.636000156E0,1.083105087E1,1.165050030E0,1.148431547E1
5.790493800E-2,-3.751050234E0,1.098495007E1,9.730500579E-1,1.164844763E1
5.986630900E-2,-3.751050234E0,1.098495007E1,7.810500264E-1,1.163398233E1
6.182770900E-2,-3.712950230E0,1.098495007E1,5.130000114E-1,1.160682111E1
6.379012700E-2,-3.828000069E0,1.090800095E1,5.295000225E-2,1.156031457E1
6.575224600E-2,-3.943050146E0,1.079295063E1,-8.659500480E-1,1.152325029E1
6.771282500E-2,-3.483000278E0,1.087005043E1,1.500000060E-2,1.141444314E1
6.967385800E-2,-3.483000278E0,1.090800095E1,8.959500194E-1,1.148557800E1
7.163530200E-2,-3.520950079E0,1.094595051E1,1.011000037E0,1.154266187E1
7.359662500E-2,-3.559950113E0,1.087005043E1,8.200500607E-1,1.146750728E1
7.555910200E-2,-3.520950079E0,1.079295063E1,3.979500234E-1,1.135971993E1
7.752124100E-2,-3.790050268E0,1.052505016E1,-7.890000343E-1,1.121444083E1
7.948188700E-2,-3.138000250E0,1.060095024E1,2.070000172E-1,1.105757842E1
8.144298800E-2,-3.061050177E0,1.060095024E1,7.429500222E-1,1.105903020E1
8.340442000E-2,-3.175950050E0,1.060095024E1,7.429500222E-1,1.109138312E1
8.536575500E-2,-3.100050211E0,1.060095024E1,5.899500251E-1,1.106067350E1
8.732841000E-2,-3.100050211E0,1.056300068E1,3.979500234E-1,1.101570056E1
8.929067800E-2,-3.406050205E0,1.010295010E1,-9.420000315E-1,1.070318376E1
9.125209000E-2,-2.985000134E0,1.014105034E1,-9.420000315E-1,1.061312828E1
9.321378600E-2,-2.830950022E0,1.006500053E1,-2.205000073E-2,1.045557268E1
9.517547800E-2,-2.869950056E0,9.988050461E0,1.500000060E-2,1.039220815E1
9.713717100E-2,-2.755050182E0,1.002600002E1,2.070000172E-1,1.039970322E1
9.909809700E-2,-2.716050148E0,9.910950661E0,3.600000143E-1,1.028267822E1
1.010592480E-1,-2.677950144E0,9.873000145E0,3.220500052E-1,1.023480655E1
1.030219770E-1,-2.601000071E0,9.796050072E0,3.220500052E-1,1.014058749E1
1.049842450E-1,-2.524950027E0,9.757950783E0,2.449500114E-1,1.008231008E1
1.069460200E-1,-2.485950232E0,9.720000267E0,2.449500114E-1,1.003585344E1
1.089079390E-1,-2.448000193E0,9.643050194E0,2.070000172E-1,9.951078886E0
1.108695920E-1,-2.371050119E0,9.528000832E0,2.070000172E-1,9.820770210E0
1.128313230E-1,-2.371050119E0,9.490050316E0,2.070000172E-1,9.783955370E0
1.147931880E-1,-2.295000076E0,9.375000000E0,2.449500114E-1,9.654928838E0
1.167550140E-1,-2.179949999E0,9.259950638E0,1.300500035E-1,9.513978180E0
1.187165040E-1,-2.065050125E0,9.220950127E0,1.680000126E-1,9.450850610E0
1.206780930E-1,-2.065050125E0,9.183000565E0,2.449500114E-1,9.415515488E0
1.226396230E-1,-1.987950087E0,9.106050491E0,1.680000126E-1,9.322034386E0
1.246011700E-1,-1.834950089E0,8.991000175E0,1.680000126E-1,9.177872847E0
1.265628720E-1,-1.720050097E0,8.914950371E0,2.070000172E-1,9.081726788E0
1.285245380E-1,-1.528050065E0,8.838000298E0,1.300500035E-1,8.970066848E0
1.304862350E-1,-1.489950061E0,8.838000298E0,9.195000678E-2,8.963183321E0
1.324479230E-1,-1.297950029E0,8.761950493E0,9.195000678E-2,8.858041856E0
1.344097510E-1,-1.222050071E0,8.685000420E0,5.295000225E-2,8.770715043E0
1.363715380E-1,-1.183050036E0,8.647050858E0,1.300500035E-1,8.728574278E0
1.383332460E-1,-1.068000078E0,8.647050858E0,9.195000678E-2,8.713240930E0
1.402949880E-1,-1.106999993E0,8.569950104E0,5.295000225E-2,8.641313411E0
1.422571660E-1,-1.068000078E0,8.532000542E0,1.500000060E-2,8.598597700E0
1.442192170E-1,-1.144950032E0,8.493000031E0,5.295000225E-2,8.569992054E0
1.461807130E-1,-1.106999993E0,8.532000542E0,5.295000225E-2,8.603678628E0
1.481423720E-1,-1.183050036E0,8.493000031E0,1.500000060E-2,8.575014980E0
1.501042450E-1,-1.222050071E0,8.532000542E0,5.295000225E-2,8.619236818E0
1.520660580E-1,-1.183050036E0,8.532000542E0,-2.205000073E-2,8.613659317E0
1.540282250E-1,-1.222050071E0,8.532000542E0,1.500000060E-2,8.619087227E0
1.559902890E-1,-1.260000110E0,8.532000542E0,1.500000060E-2,8.624549758E0
1.579519630E-1,-1.260000110E0,8.493000031E0,-2.205000073E-2,8.585984859E0
1.599137520E-1,-1.297950029E0,8.493000031E0,-6.105000153E-2,8.591824655E0
1.618756120E-1,-1.336950064E0,8.493000031E0,-2.205000073E-2,8.597614273E0
1.638374470E-1,-1.375050068E0,8.493000031E0,-2.205000073E-2,8.603621238E0
1.657992510E-1,-1.413000107E0,8.455050468E0,-6.105000153E-2,8.572524414E0
1.677610650E-1,-1.489950061E0,8.455050468E0,-2.205000073E-2,8.585354728E0
1.697231410E-1,-1.567050099E0,8.416950226E0,5.295000225E-2,8.561746365E0
1.716851400E-1,-1.528050065E0,8.455050468E0,2.070000172E-1,8.594513624E0
1.736466010E-1,-1.567050099E0,8.416950226E0,1.680000126E-1,8.563230764E0
1.756082190E-1,-1.489950061E0,8.416950226E0,2.449500114E-1,8.551315852E0
1.775697440E-1,-1.489950061E0,8.377950668E0,2.070000172E-1,8.511924435E0
1.795312960E-1,-1.489950061E0,8.455050468E0,2.449500114E-1,8.588820065E0
1.814922460E-1,-1.567050099E0,8.416950226E0,3.220500052E-1,8.567637558E0
1.834533730E-1,-1.642950058E0,8.493000031E0,3.220500052E-1,8.656445611E0
1.854153810E-1,-1.681950092E0,8.455050468E0,3.220500052E-1,8.626734651E0
1.873771350E-1,-1.758000135E0,8.455050468E0,3.220500052E-1,8.641884002E0
1.893395380E-1,-1.911000133E0,8.377950668E0,1.300500035E-1,8.594119612E0
1.913017500E-1,-1.987950087E0,8.455050468E0,1.300500035E-1,8.686583734E0
1.932631740E-1,-1.950000048E0,8.532000542E0,2.070000172E-1,8.754449294E0
1.952248290E-1,-1.911000133E0,8.416950226E0,1.680000126E-1,8.632797728E0
1.971866900E-1,-1.873050094E0,8.377950668E0,5.295000225E-2,8.584939007E0
1.991484710E-1,-1.758000135E0,8.416950226E0,1.680000126E-1,8.600223229E0
2.011094280E-1,-1.795950055E0,8.455050468E0,2.830500007E-1,8.648319624E0
2.030706260E-1,-1.834950089E0,8.493000031E0,3.979500234E-1,8.698071946E0
2.050322220E-1,-1.873050094E0,8.493000031E0,3.979500234E-1,8.706189200E0
2.069937010E-1,-1.795950055E0,8.532000542E0,3.600000143E-1,8.726400739E0
2.089554020E-1,-1.795950055E0,8.532000542E0,2.830500007E-1,8.723565048E0
2.109170580E-1,-1.834950089E0,8.532000542E0,3.220500052E-1,8.733028758E0
2.128795220E-1,-1.911000133E0,8.569950104E0,2.070000172E-1,8.782870561E0
2.148417500E-1,-1.834950089E0,8.685000420E0,2.449500114E-1,8.880105553E0
2.168031260E-1,-1.758000135E0,8.685000420E0,9.195000678E-2,8.861616758E0
2.187647520E-1,-1.758000135E0,8.685000420E0,9.195000678E-2,8.861616758E0
2.207257250E-1,-1.681950092E0,8.685000420E0,2.449500114E-1,8.849756432E0
2.226868960E-1,-1.605000019E0,8.647050858E0,3.979500234E-1,8.803742262E0
2.246486770E-1,-1.605000019E0,8.685000420E0,5.130000114E-1,8.846944465E0
2.266102790E-1,-1.528050065E0,8.761950493E0,4.750500321E-1,8.906872963E0
2.285718080E-1,-1.567050099E0,8.722949982E0,5.899500251E-1,8.882203748E0
2.305333580E-1,-1.605000019E0,8.761950493E0,5.509500504E-1,8.924760359E0
2.324950730E-1,-1.567050099E0,8.800050735E0,4.750500321E-1,8.951101133E0
2.344567400E-1,-1.567050099E0,8.838000298E0,5.130000114E-1,8.990498556E0
2.364183030E-1,-1.642950058E0,8.838000298E0,6.280500293E-1,9.011325152E0
2.383798960E-1,-1.720050097E0,8.877000809E0,3.600000143E-1,9.049271556E0
2.403414250E-1,-1.605000019E0,8.914950371E0,4.750500321E-1,9.070724211E0
2.423029730E-1,-1.642950058E0,8.953050613E0,5.130000114E-1,9.116993429E0
2.442646690E-1,-1.681950092E0,9.030000687E0,5.130000114E-1,9.199621597E0
2.462263360E-1,-1.605000019E0,8.991000175E0,5.509500504E-1,9.149735252E0
2.481881680E-1,-1.642950058E0,9.030000687E0,5.130000114E-1,9.192571256E0
2.501499510E-1,-1.605000019E0,9.030000687E0,5.130000114E-1,9.185864492E0
2.521114940E-1,-1.642950058E0,9.106050491E0,4.750500321E-1,9.265263783E0
2.540731070E-1,-1.642950058E0,9.067950249E0,5.509500504E-1,9.232039459E0
2.560346470E-1,-1.642950058E0,9.030000687E0,5.509500504E-1,9.194767167E0
2.579961980E-1,-1.605000019E0,9.067950249E0,4.750500321E-1,9.221139805E0
2.599575090E-1,-1.605000019E0,9.067950249E0,5.130000114E-1,9.223172761E0
2.619188900E-1,-1.642950058E0,9.067950249E0,4.750500321E-1,9.227820931E0
2.638805000E-1,-1.642950058E0,9.067950249E0,4.750500321E-1,9.227820931E0
2.658420420E-1,-1.642950058E0,9.067950249E0,5.130000114E-1,9.229852416E0
2.678037300E-1,-1.642950058E0,9.106050491E0,5.899500251E-1,9.271865048E0
2.697653650E-1,-1.720050097E0,9.067950249E0,5.130000114E-1,9.243887876E0
2.717268880E-1,-1.720050097E0,8.991000175E0,4.750500321E-1,9.166369457E0
2.736884440E-1,-1.720050097E0,8.991000175E0,3.600000143E-1,9.161127469E0
2.756498440E-1,-1.758000135E0,8.953050613E0,3.979500234E-1,9.132690950E0
2.776112900E-1,-1.758000135E0,8.953050613E0,4.360500276E-1,9.134430436E0
2.795728760E-1,-1.758000135E0,8.914950371E0,4.360500276E-1,9.097089876E0
2.815343980E-1,-1.834950089E0,8.877000809E0,4.360500276E-1,9.075148749E0
2.834968400E-1,-1.911000133E0,8.800050735E0,3.979500234E-1,9.013943570E0
2.854590130E-1,-1.950000048E0,8.722949982E0,2.449500114E-1,8.941608193E0
2.874206240E-1,-1.950000048E0,8.647050858E0,1.300500035E-1,8.865150970E0
2.893824000E-1,-1.987950087E0,8.569950104E0,5.295000225E-2,8.797658440E0
2.913438390E-1,-1.987950087E0,8.377950668E0,1.500000060E-2,8.610588130E0
2.933053860E-1,-2.140950203E0,8.416950226E0,-6.105000153E-2,8.685185431E0
2.952667430E-1,-2.179949999E0,8.455050468E0,-6.105000153E-2,8.731768866E0
2.972281550E-1,-2.179949999E0,8.416950226E0,-2.205000073E-2,8.694694894E0
2.991898950E-1,-2.295000076E0,8.455050468E0,-6.105000153E-2,8.761200310E0
3.011515380E-1,-2.410050154E0,8.416950226E0,-6.105000153E-2,8.755405185E0
3.031132700E-1,-2.448000193E0,8.377950668E0,-1.759500057E-1,8.730047007E0
3.050749850E-1,-2.410050154E0,8.340000153E0,-2.140500098E-1,8.683879415E0
3.070366750E-1,-2.448000193E0,8.302050591E0,-2.910000086E-1,8.660336596E0
3.089983720E-1,-2.448000193E0,8.263050079E0,-2.910000086E-1,8.622956718E0
3.109600630E-1,-2.448000193E0,8.224950790E0,-3.289500177E-1,8.587824437E0
3.129217560E-1,-2.485950232E0,8.263050079E0,-3.289500177E-1,8.635169557E0
3.148837630E-1,-2.601000071E0,8.263050079E0,-2.910000086E-1,8.667633990E0
3.168456780E-1,-2.640000105E0,8.263050079E0,-2.910000086E-1,8.679416926E0
3.188071980E-1,-2.716050148E0,8.302050591E0,-2.910000086E-1,8.739888639E0
3.207688330E-1,-2.755050182E0,8.340000153E0,-3.670500219E-1,8.790940210E0
3.227303550E-1,-2.755050182E0,8.377950668E0,-4.060500264E-1,8.828659894E0
3.246919100E-1,-2.793000221E0,8.377950668E0,-4.440000355E-1,8.842400334E0
3.266536200E-1,-2.793000221E0,8.455050468E0,-5.209500194E-1,8.919647840E0
3.286152880E-1,-2.830950022E0,8.416950226E0,-5.209500194E-1,8.895544843E0
3.305769410E-1,-2.830950022E0,8.416950226E0,-6.360000372E-1,8.903023373E0
3.325385980E-1,-2.830950022E0,8.416950226E0,-6.360000372E-1,8.903023373E0
3.345003400E-1,-2.830950022E0,8.416950226E0,-7.120500207E-1,8.908779061E0
3.364620570E-1,-2.755050182E0,8.416950226E0,-7.510500550E-1,8.888162285E0
3.384236910E-1,-2.793000221E0,8.455050468E0,-7.120500207E-1,8.932846349E0
3.403853570E-1,-2.830950022E0,8.340000153E0,-5.590500236E-1,8.825101557E0
3.423469190E-1,-2.793000221E0,8.340000153E0,-6.739500165E-1,8.821035166E0
3.443085110E-1,-2.793000221E0,8.302050591E0,-9.420000315E-1,8.809781967E0
3.462702190E-1,-2.793000221E0,8.263050079E0,-1.096050024E0,8.790914202E0
3.482318930E-1,-2.716050148E0,8.224950790E0,-1.171950102E0,8.740721421E0
3.501937190E-1,-2.869950056E0,8.224950790E0,-1.210950017E0,8.795045695E0
3.521555040E-1,-2.869950056E0,8.224950790E0,-1.210950017E0,8.795045695E0
3.541172260E-1,-2.869950056E0,8.224950790E0,-1.249050021E0,8.800372423E0
3.560789670E-1,-2.908050060E0,8.187000275E0,-1.326000094E0,8.788743079E0
3.580402460E-1,-2.908050060E0,8.110050201E0,-1.402050018E0,8.728998435E0
3.600016600E-1,-2.946000099E0,8.110050201E0,-1.516950130E0,8.760877157E0
3.619630640E-1,-2.946000099E0,8.032950401E0,-1.594050050E0,8.703344432E0
3.639244850E-1,-2.908050060E0,7.957050323E0,-1.671000123E0,8.635024402E0
3.658859990E-1,-2.985000134E0,7.918050289E0,-1.671000123E0,8.625426806E0
3.678474850E-1,-2.985000134E0,7.879950523E0,-1.747050047E0,8.605581323E0
3.698088530E-1,-2.985000134E0,7.803000450E0,-1.786050081E0,8.543243922E0
3.717702560E-1,-2.985000134E0,7.650000572E0,-1.861950040E0,8.420189576E0
3.737318670E-1,-2.869950056E0,7.650000572E0,-1.900950074E0,8.388845765E0
3.756934130E-1,-2.985000134E0,7.726950169E0,-1.900950074E0,8.498799673E0
3.776552650E-1,-2.985000134E0,7.687950134E0,-1.900950074E0,8.463357150E0
3.796170280E-1,-2.985000134E0,7.612050533E0,-1.900950074E0,8.394471413E0
3.815785290E-1,-3.022950172E0,7.573050499E0,-1.977000117E0,8.390342727E0
3.835401070E-1,-2.985000134E0,7.573050499E0,-1.977000117E0,8.376744542E0
3.855018480E-1,-3.022950172E0,7.497000217E0,-2.014950037E0,8.330862120E0
3.874635520E-1,-3.022950172E0,7.497000217E0,-2.053950071E0,8.340380741E0
3.894255580E-1,-3.100050211E0,7.497000217E0,-2.053950071E0,8.368633967E0
3.913874750E-1,-3.100050211E0,7.497000217E0,-2.053950071E0,8.368633967E0
3.933493100E-1,-3.138000250E0,7.534950256E0,-1.939050078E0,8.389424065E0
3.953111690E-1,-3.138000250E0,7.534950256E0,-1.939050078E0,8.389424065E0
3.972723660E-1,-3.175950050E0,7.534950256E0,-1.824000120E0,8.377894158E0
3.992337370E-1,-3.175950050E0,7.612050533E0,-1.786050081E0,8.439191130E0
4.011953030E-1,-3.175950050E0,7.650000572E0,-1.786050081E0,8.473437459E0
4.031568120E-1,-3.214950085E0,7.687950134E0,-1.747050047E0,8.514262457E0
4.051183560E-1,-3.214950085E0,7.726950169E0,-1.708950043E0,8.541789813E0
4.070798890E-1,-3.253050089E0,7.803000450E0,-1.671000123E0,8.617504994E0
4.090412440E-1,-3.330000162E0,7.842000484E0,-1.594050050E0,8.667575684E0
4.110026550E-1,-3.291000128E0,7.879950523E0,-1.594050050E0,8.687076473E0
4.129642140E-1,-3.291000128E0,7.957050323E0,-1.479000092E0,8.736862879E0
4.149257300E-1,-3.330000162E0,8.032950401E0,-1.479000092E0,8.820693539E0
4.168872720E-1,-3.330000162E0,8.071949959E0,-1.402050018E0,8.843699535E0
4.188488070E-1,-3.406050205E0,8.148000717E0,-1.287000060E0,8.924542725E0
4.208103270E-1,-3.406050205E0,8.224950790E0,-1.363950014E0,9.006184161E0
4.227718650E-1,-3.367950201E0,8.263050079E0,-1.326000094E0,9.021051015E0
4.247335380E-1,-3.445050240E0,8.377950668E0,-1.249050021E0,9.144318154E0
4.266951720E-1,-3.483000278E0,8.455050468E0,-1.210950017E0,9.224183937E0
4.286569200E-1,-3.520950079E0,8.569950104E0,-1.134000063E0,9.334189326E0
4.306186340E-1,-3.520950079E0,8.647050858E0,-1.171950102E0,9.409678264E0
4.325806430E-1,-3.520950079E0,8.685000420E0,-1.096050024E0,9.435446328E0
4.345425620E-1,-3.520950079E0,8.800050735E0,-1.096050024E0,9.541452094E0
4.365044420E-1,-3.520950079E0,8.838000298E0,-1.096050024E0,9.576464085E0
4.384663330E-1,-3.520950079E0,8.991000175E0,-1.096050024E0,9.717844374E0
4.404281270E-1,-3.559950113E0,9.106050491E0,-1.018950105E0,9.830140369E0
4.423899490E-1,-3.559950113E0,9.183000565E0,-1.018950105E0,9.901464715E0
4.443515850E-1,-3.559950113E0,9.336000443E0,-1.057050109E0,1.004746257E1
4.463132990E-1,-3.559950113E0,9.412950516E0,-9.810000658E-1,1.011134231E1
4.482750320E-1,-3.598050117E0,9.412950516E0,-1.018950105E0,1.012856660E1
4.502367590E-1,-3.598050117E0,9.490050316E0,-1.096050024E0,1.020824889E1
4.521984010E-1,-3.559950113E0,9.604950905E0,-1.018950105E0,1.029400729E1
4.541600680E-1,-3.598050117E0,9.720000267E0,-1.018950105E0,1.041453932E1
4.561217600E-1,-3.636000156E0,9.720000267E0,-1.018950105E0,1.042771124E1
4.580834470E-1,-3.598050117E0,9.720000267E0,-1.057050109E0,1.041833599E1
4.600450060E-1,-3.636000156E0,9.835050583E0,-1.096050024E0,1.054277206E1
4.620066030E-1,-3.636000156E0,9.835050583E0,-1.210950017E0,1.055533595E1
4.639680860E-1,-3.636000156E0,9.873000145E0,-1.171950102E0,1.058631645E1
4.659296030E-1,-3.636000156E0,9.873000145E0,-1.210950017E0,1.059070484E1
4.678909600E-1,-3.636000156E0,9.873000145E0,-1.287000060E0,1.059966972E1
4.698523670E-1,-3.675000191E0,9.873000145E0,-1.287000060E0,1.061311111E1
4.718141070E-1,-3.636000156E0,9.835050583E0,-1.363950014E0,1.057398112E1
4.737757500E-1,-3.675000191E0,9.757950783E0,-1.402050018E0,1.052088276E1
4.757374500E-1,-3.675000191E0,9.720000267E0,-1.441050053E0,1.049097978E1
4.776991340E-1,-3.675000191E0,9.720000267E0,-1.555950046E0,1.050737894E1
4.796608870E-1,-3.712950230E0,9.604950905E0,-1.594050050E0,1.042027240E1
4.816226100E-1,-3.675000191E0,9.490050316E0,-1.671000123E0,1.031304624E1
4.835841180E-1,-3.675000191E0,9.490050316E0,-1.708950043E0,1.031926313E1
4.855456890E-1,-3.675000191E0,9.336000443E0,-1.747050047E0,1.018423853E1
4.875072220E-1,-3.675000191E0,9.336000443E0,-1.747050047E0,1.018423853E1
4.894687660E-1,-3.712950230E0,9.220950127E0,-1.747050047E0,1.009277487E1
4.914303270E-1,-3.904950142E0,9.259950638E0,-2.206950188E0,1.028911807E1
4.933918670E-1,-3.751050234E0,9.220950127E0,-1.977000117E0,1.014912945E1
4.953535390E-1,-3.675000191E0,9.183000565E0,-1.594050050E0,1.001868860E1
4.973151720E-1,-3.790050268E0,9.220950127E0,-1.441050053E0,1.007308431E1
4.992766950E-1,-3.828000069E0,9.220950127E0,-1.402050018E0,1.008192690E1
5.012382510E-1,-4.018949986E0,9.145050049E0,-1.824000120E0,1.015435256E1
5.031997670E-1,-4.057950020E0,9.259950638E0,-1.861950040E0,1.028010224E1
5.051613090E-1,-4.018949986E0,9.259950638E0,-1.441050053E0,1.019682647E1
5.071228910E-1,-4.134000301E0,9.375000000E0,-1.363950014E0,1.033638927E1
5.090844610E-1,-4.288050175E0,9.412950516E0,-1.287000060E0,1.042340544E1
5.110461750E-1,-4.326000214E0,9.528000832E0,-1.210950017E0,1.053392034E1
5.130078460E-1,-4.402950287E0,9.643050194E0,-1.441050053E0,1.069817805E1
5.149693820E-1,-4.518000126E0,9.643050194E0,-1.632000089E0,1.077330806E1
5.169309440E-1,-4.518000126E0,9.720000267E0,-1.786050081E0,1.086649462E1
5.188926570E-1,-4.863000393E0,9.720000267E0,-2.667000055E0,1.119107087E1
5.208543260E-1,-4.555950165E0,9.835050583E0,-2.322000027E0,1.108497118E1
5.228161580E-1,-4.479000092E0,9.835050583E0,-1.479000092E0,1.090766258E1
5.247779420E-1,-4.555950165E0,9.873000145E0,-1.287000060E0,1.094939190E1
5.267394200E-1,-4.633050442E0,9.873000145E0,-1.326000094E0,1.098633535E1
5.287010020E-1,-4.900950432E0,9.988050461E0,-1.747050047E0,1.126200031E1
5.306627570E-1,-4.786050320E0,9.910950661E0,-1.977000117E0,1.118220685E1
5.326244610E-1,-4.633050442E0,9.910950661E0,-1.441050053E0,1.103488671E1
5.345863320E-1,-4.594050407E0,9.873000145E0,-1.441050053E0,1.098444611E1
5.365481540E-1,-4.594050407E0,9.796050072E0,-1.441050053E0,1.091533423E1
5.385099850E-1,-4.594050407E0,9.720000267E0,-1.516950130E0,1.085747862E1
5.404718270E-1,-4.555950165E0,9.604950905E0,-1.516950130E0,1.073838449E1
5.424338090E-1,-4.518000126E0,9.528000832E0,-1.516950130E0,1.065346247E1
5.443957500E-1,-4.518000126E0,9.451050758E0,-1.479000092E0,1.057932544E1
5.463574010E-1,-4.441050053E0,9.451050758E0,-1.134000063E0,1.050386796E1
5.483191370E-1,-4.518000126E0,9.451050758E0,-8.659500480E-1,1.051116335E1
5.502810200E-1,-4.402950287E0,9.336000443E0,-1.018950105E0,1.037232543E1
5.522428460E-1,-4.326000214E0,9.259950638E0,-1.018950105E0,1.027128147E1
5.542047410E-1,-4.210950375E0,9.183000565E0,-8.269500136E-1,1.013624431E1
5.561666150E-1,-4.173000336E0,9.145050049E0,-5.970000029E-1,1.006986997E1
5.581282770E-1,-4.134000301E0,9.106050491E0,-2.520000041E-1,1.000368023E1
5.600900020E-1,-4.134000301E0,9.106050491E0,-6.105000153E-2,1.000069203E1
5.620516730E-1,-4.134000301E0,9.067950249E0,1.500000060E-2,9.965836904E0
5.640133710E-1,-4.134000301E0,9.106050491E0,1.500000060E-2,1.000051694E1
5.659751970E-1,-4.057950020E0,9.145050049E0,1.680000126E-1,1.000635412E1
5.679369850E-1,-4.057950020E0,9.220950127E0,1.680000126E-1,1.007576814E1
5.698981660E-1,-4.018949986E0,9.259950638E0,2.449500114E-1,1.009745737E1
5.718595250E-1,-3.981000185E0,9.336000443E0,2.830500007E-1,1.015329425E1
5.738206700E-1,-3.943050146E0,9.375000000E0,3.220500052E-1,1.017555825E1
5.757818910E-1,-3.981000185E0,9.490050316E0,4.750500321E-1,1.030218860E1
5.777437080E-1,-3.865950108E0,9.643050194E0,6.280500293E-1,1.040809464E1
5.797053500E-1,-3.865950108E0,9.796050072E0,7.810500264E-1,1.056021810E1
5.816672320E-1,-3.828000069E0,9.910950661E0,9.349500537E-1,1.066558292E1
5.836290430E-1,-3.865950108E0,1.006500053E1,1.087950110E0,1.083667114E1
5.855906710E-1,-3.751050234E0,1.029495049E1,1.240950108E0,1.102707307E1
5.875523520E-1,-3.712950230E0,1.048605061E1,1.279950023E0,1.119738937E1
5.895142260E-1,-3.712950230E0,1.071600056E1,1.318050027E0,1.141735185E1
5.914760430E-1,-3.675000191E0,1.094595051E1,1.395000100E0,1.163036905E1
5.934378940E-1,-3.559950113E0,1.117605019E1,1.432950020E0,1.181654299E1
5.953997350E-1,-3.483000278E0,1.144395065E1,1.471050024E0,1.205235602E1
5.973614670E-1,-3.406050205E0,1.167405033E1,1.510050058E0,1.225417808E1
5.993232180E-1,-3.291000128E0,1.190400028E1,1.585950017E0,1.245195334E1
6.012850340E-1,-3.138000250E0,1.213395023E1,1.701000094E0,1.264805104E1
6.032468310E-1,-2.985000134E0,1.236405087E1,1.701000094E0,1.283251265E1
6.052081910E-1,-2.830950022E0,1.255605030E1,1.701000094E0,1.298314594E1
6.071696790E-1,-2.716050148E0,1.270905018E1,1.740000129E0,1.311199776E1
6.091315460E-1,-2.563050032E0,1.286295033E1,1.663050056E0,1.322083401E1
6.110932980E-1,-2.371050119E0,1.297800064E1,1.740000129E0,1.330706503E1
6.130548010E-1,-2.179949999E0,1.301595020E1,1.740000129E0,1.331145154E1
6.150163770E-1,-1.950000048E0,1.301595020E1,1.663050056E0,1.326586580E1
6.169780880E-1,-1.795950055E0,1.309305096E1,1.585950017E0,1.331047172E1
6.189397590E-1,-1.567050099E0,1.309305096E1,1.663050056E0,1.329095049E1
6.209014750E-1,-1.375050068E0,1.301595020E1,1.663050056E0,1.319361428E1
6.228631640E-1,-1.106999993E0,1.290105057E1,1.624950051E0,1.305001982E1
6.248248570E-1,-9.150000215E-1,1.270905018E1,1.663050056E0,1.285001622E1
6.267865480E-1,-6.469500065E-1,1.255605030E1,1.701000094E0,1.268725127E1
6.287482860E-1,-4.549500346E-1,1.228800011E1,1.777950048E0,1.242429203E1
6.307100100E-1,-2.250000089E-1,1.205805016E1,1.777950048E0,1.219050060E1
6.326718910E-1,-7.200000435E-2,1.171305084E1,1.816050053E0,1.185321821E1
6.346337160E-1,4.200000316E-2,1.144395065E1,1.855050087E0,1.159340249E1
6.365958810E-1,1.960500032E-1,1.110000038E1,1.893000126E0,1.126196668E1
6.385579470E-1,3.109500110E-1,1.075500011E1,1.777950048E0,1.090540342E1
6.405199370E-1,3.870000243E-1,1.044795036E1,1.777950048E0,1.060521297E1
6.424819490E-1,3.490500152E-1,1.018005085E1,1.701000094E0,1.032708442E1
6.444436230E-1,4.639500082E-1,9.835050583E0,1.663050056E0,9.985449668E0
6.464054020E-1,4.639500082E-1,9.604950905E0,1.624950051E0,9.752476309E0
6.483672130E-1,5.020500422E-1,9.336000443E0,1.663050056E0,9.496246311E0
6.503290150E-1,4.639500082E-1,9.145050049E0,1.624950051E0,9.299873799E0
6.522905540E-1,4.260000288E-1,8.953050613E0,1.548000097E0,9.095872449E0
6.542521710E-1,3.870000243E-1,8.761950493E0,1.585950017E0,8.912731507E0
6.562136650E-1,3.490500152E-1,8.647050858E0,1.548000097E0,8.791452027E0
6.581751850E-1,3.490500152E-1,8.532000542E0,1.548000097E0,8.678316280E0
6.601363660E-1,2.719500065E-1,8.416950226E0,1.548000097E0,8.562436114E0
6.620976460E-1,2.340000123E-1,8.302050591E0,1.510050058E0,8.441507637E0
6.640592730E-1,1.960500032E-1,8.224950790E0,1.510050058E0,8.364717705E0
6.660207980E-1,1.960500032E-1,8.110050201E0,1.471050024E0,8.244715765E0
6.679822950E-1,1.570500135E-1,8.032950401E0,1.471050024E0,8.168044137E0
6.699438000E-1,1.570500135E-1,7.957050323E0,1.471050024E0,8.093411069E0
6.719051640E-1,8.100000024E-2,7.842000484E0,1.432950020E0,7.972256792E0
6.738665690E-1,8.100000024E-2,7.765050411E0,1.395000100E0,7.889777828E0
6.758281290E-1,-3.299999982E-2,7.687950134E0,1.318050027E0,7.800187314E0
6.777896440E-1,-7.200000435E-2,7.650000572E0,1.356000066E0,7.769583575E0
6.797513570E-1,-1.099500060E-1,7.612050533E0,1.318050027E0,7.726102394E0
6.817130190E-1,-1.870500147E-1,7.650000572E0,1.356000066E0,7.771501312E0
6.836748970E-1,-1.870500147E-1,7.573050499E0,1.356000066E0,7.695766222E0
6.856367110E-1,-3.019500077E-1,7.573050499E0,1.356000066E0,7.699415812E0
6.875980690E-1,-3.400500119E-1,7.612050533E0,1.356000066E0,7.739359373E0
6.895595600E-1,-3.780000210E-1,7.650000572E0,1.395000100E0,7.785333522E0
6.915214550E-1,-4.549500346E-1,7.726950169E0,1.471050024E0,7.878878513E0
6.934832070E-1,-5.700000525E-1,7.842000484E0,1.432950020E0,7.992197283E0
6.954449350E-1,-5.700000525E-1,7.879950523E0,1.471050024E0,8.036324314E0
6.974066700E-1,-6.469500065E-1,7.995000362E0,1.471050024E0,8.154910378E0
6.993685350E-1,-6.469500065E-1,8.071949959E0,1.510050058E0,8.237425060E0
7.013303610E-1,-6.850500107E-1,8.148000717E0,1.548000097E0,8.321989756E0
7.032921970E-1,-7.230000496E-1,8.224950790E0,1.585950017E0,8.407602633E0
7.052540390E-1,-7.620000243E-1,8.263050079E0,1.585950017E0,8.448306227E0
7.072157070E-1,-7.999500632E-1,8.416950226E0,1.548000097E0,8.595421776E0
7.091774260E-1,-8.770500422E-1,8.455050468E0,1.624950051E0,8.654337518E0
7.111392480E-1,-8.380500674E-1,8.532000542E0,1.624950051E0,8.725699045E0
7.131010390E-1,-8.380500674E-1,8.493000031E0,1.585950017E0,8.680357993E0
7.150627350E-1,-7.999500632E-1,8.532000542E0,1.548000097E0,8.708114471E0
7.170244450E-1,-7.999500632E-1,8.608050346E0,1.663050056E0,8.803646197E0
7.189861780E-1,-7.999500632E-1,8.608050346E0,1.663050056E0,8.803646197E0
7.209479040E-1,-8.380500674E-1,8.569950104E0,1.624950051E0,8.762809787E0
7.229097710E-1,-7.999500632E-1,8.569950104E0,1.701000094E0,8.773674612E0
7.248715970E-1,-7.620000243E-1,8.532000542E0,1.701000094E0,8.733216968E0
7.268335820E-1,-7.230000496E-1,8.608050346E0,1.663050056E0,8.796987855E0
7.287955200E-1,-7.620000243E-1,8.569950104E0,1.548000097E0,8.741910153E0
7.307572160E-1,-7.999500632E-1,8.532000542E0,1.510050058E0,8.701448415E0
7.327189830E-1,-6.850500107E-1,8.493000031E0,1.585950017E0,8.666924512E0
7.346804820E-1,-7.230000496E-1,8.532000542E0,1.548000097E0,8.701383029E0
7.366420600E-1,-7.230000496E-1,8.532000542E0,1.510050058E0,8.694711812E0
7.386035820E-1,-7.620000243E-1,8.455050468E0,1.471050024E0,8.615829074E0
7.405651270E-1,-7.230000496E-1,8.493000031E0,1.471050024E0,8.649726398E0
7.425266190E-1,-7.230000496E-1,8.493000031E0,1.471050024E0,8.649726398E0
7.444881270E-1,-6.850500107E-1,8.493000031E0,1.432950020E0,8.640236617E0
7.464496700E-1,-7.230000496E-1,8.493000031E0,1.356000066E0,8.630904632E0
7.484112020E-1,-7.230000496E-1,8.493000031E0,1.356000066E0,8.630904632E0
7.503724230E-1,-7.230000496E-1,8.455050468E0,1.240950108E0,8.576162584E0
7.523337380E-1,-6.469500065E-1,8.455050468E0,1.240950108E0,8.570086342E0
7.542952690E-1,-6.469500065E-1,8.416950226E0,1.279950023E0,8.538259042E0
7.562567360E-1,-6.850500107E-1,8.493000031E0,1.318050027E0,8.621925476E0
7.582181530E-1,-6.850500107E-1,8.493000031E0,1.318050027E0,8.621925476E0
7.601795840E-1,-7.620000243E-1,8.608050346E0,1.318050027E0,8.741649197E0
7.621407690E-1,-7.230000496E-1,8.685000420E0,1.395000100E0,8.825983607E0
7.641020020E-1,-7.620000243E-1,8.722949982E0,1.356000066E0,8.860543809E0
7.660634570E-1,-7.620000243E-1,8.722949982E0,1.432950020E0,8.872645951E0
7.680248460E-1,-7.620000243E-1,8.800050735E0,1.432950020E0,8.948457003E0
7.699865460E-1,-7.999500632E-1,8.838000298E0,1.395000100E0,8.983106069E0
7.719481540E-1,-7.620000243E-1,8.914950371E0,1.432950020E0,9.061475041E0
7.739098660E-1,-7.999500632E-1,8.914950371E0,1.432950020E0,9.064745224E0
7.758715440E-1,-7.620000243E-1,8.991000175E0,1.432950020E0,9.136305268E0
7.778332840E-1,-7.999500632E-1,9.067950249E0,1.471050024E0,9.221259675E0
7.797950050E-1,-7.999500632E-1,9.220950127E0,1.471050024E0,9.371757013E0
7.817565130E-1,-8.770500422E-1,9.183000565E0,1.471050024E0,9.341343818E0
7.837180840E-1,-8.770500422E-1,9.259950638E0,1.471050024E0,9.417000094E0
7.856797550E-1,-9.150000215E-1,9.259950638E0,1.471050024E0,9.420610332E0
7.876413940E-1,-9.150000215E-1,9.336000443E0,1.510050058E0,9.501493592E0
7.896029610E-1,-9.150000215E-1,9.298050880E0,1.510050058E0,9.464207647E0
7.915645500E-1,-9.150000215E-1,9.336000443E0,1.510050058E0,9.501493592E0
7.935260350E-1,-9.150000215E-1,9.412950516E0,1.548000097E0,9.583171018E0
7.954875500E-1,-9.150000215E-1,9.412950516E0,1.510050058E0,9.577114055E0
7.974491110E-1,-9.529500604E-1,9.528000832E0,1.510050058E0,9.693872541E0
7.994106450E-1,-9.919500351E-1,9.528000832E0,1.548000097E0,9.703765713E0
8.013722290E-1,-9.919500351E-1,9.604950905E0,1.624950051E0,9.791808282E0
8.033337990E-1,-1.068000078E0,9.681000710E0,1.663050056E0,9.880695036E0
8.052953330E-1,-1.183050036E0,9.681000710E0,1.624950051E0,9.887458966E0
8.072568780E-1,-1.260000110E0,9.720000267E0,1.663050056E0,9.941415440E0
8.092183740E-1,-1.222050071E0,9.720000267E0,1.624950051E0,9.930371304E0
8.111798820E-1,-1.260000110E0,9.757950783E0,1.624950051E0,9.972244804E0
8.131414690E-1,-1.297950029E0,9.757950783E0,1.701000094E0,9.989778730E0
8.151030330E-1,-1.260000110E0,9.757950783E0,1.740000129E0,9.991636713E0
8.170645230E-1,-1.375050068E0,9.720000267E0,1.740000129E0,9.969792793E0
8.190260350E-1,-1.413000107E0,9.757950783E0,1.701000094E0,1.000537726E1
8.209875970E-1,-1.413000107E0,9.796050072E0,1.663050056E0,1.003617964E1
8.229491300E-1,-1.452000022E0,9.835050583E0,1.816050053E0,1.010616455E1
8.249105360E-1,-1.489950061E0,9.873000145E0,1.930950046E0,1.016979111E1
8.268719790E-1,-1.605000019E0,9.949950218E0,1.930950046E0,1.026187617E1
8.288335320E-1,-1.605000019E0,9.910950661E0,1.855050087E0,1.021000386E1
8.307950530E-1,-1.642950058E0,9.910950661E0,1.855050087E0,1.021603831E1
8.327566230E-1,-1.567050099E0,9.873000145E0,1.855050087E0,1.016725079E1
8.347181580E-1,-1.567050099E0,9.873000145E0,1.777950048E0,1.015346661E1
8.366798780E-1,-1.567050099E0,9.873000145E0,1.701000094E0,1.014027510E1
8.386415430E-1,-1.567050099E0,9.835050583E0,1.816050053E0,1.012333462E1
8.406030610E-1,-1.605000019E0,9.835050583E0,1.893000126E0,1.014335716E1
8.425646220E-1,-1.605000019E0,9.835050583E0,1.855050087E0,1.013634332E1
8.445263560E-1,-1.567050099E0,9.720000267E0,1.816050053E0,1.001159772E1
8.464880250E-1,-1.605000019E0,9.757950783E0,1.855050087E0,1.006155253E1
8.484497210E-1,-1.605000019E0,9.720000267E0,1.740000129E0,1.000410069E1
8.504114090E-1,-1.567050099E0,9.720000267E0,1.585950017E0,9.972426418E0
8.523730580E-1,-1.413000107E0,9.681000710E0,1.548000097E0,9.905283860E0
8.543347190E-1,-1.413000107E0,9.643050194E0,1.585950017E0,9.874220162E0
8.562962550E-1,-1.413000107E0,9.604950905E0,1.585950017E0,9.837016247E0
8.582578150E-1,-1.413000107E0,9.565950394E0,1.663050056E0,9.811712986E0
8.602193500E-1,-1.452000022E0,9.490050316E0,1.624950051E0,9.737033518E0
8.621808920E-1,-1.375050068E0,9.451050758E0,1.624950051E0,9.687806036E0
8.641421140E-1,-1.297950029E0,9.375000000E0,1.585950017E0,9.596381440E0
8.661034300E-1,-1.336950064E0,9.375000000E0,1.585950017E0,9.601734111E0
8.680648550E-1,-1.336950064E0,9.259950638E0,1.548000097E0,9.483165378E0
8.700262270E-1,-1.297950029E0,9.259950638E0,1.548000097E0,9.477745744E0
8.719879290E-1,-1.297950029E0,9.145050049E0,1.510050058E0,9.359319732E0
8.739495340E-1,-1.336950064E0,9.183000565E0,1.471050024E0,9.395686405E0
8.759109270E-1,-1.336950064E0,9.106050491E0,1.471050024E0,9.320492433E0
8.778723820E-1,-1.336950064E0,9.106050491E0,1.471050024E0,9.320492433E0
8.798339340E-1,-1.336950064E0,9.030000687E0,1.471050024E0,9.246206576E0
8.817954570E-1,-1.297950029E0,8.953050613E0,1.471050024E0,9.165466586E0
8.837566390E-1,-1.413000107E0,8.914950371E0,1.471050024E0,9.145321076E0
8.857179210E-1,-1.489950061E0,8.914950371E0,1.510050058E0,9.163871588E0
8.876795020E-1,-1.567050099E0,8.953050613E0,1.432950020E0,9.201418753E0
8.896409960E-1,-1.452000022E0,8.953050613E0,1.356000066E0,9.170831780E0
8.916023310E-1,-1.336950064E0,8.914950371E0,1.279950023E0,9.105056158E0
8.935637030E-1,-1.336950064E0,8.914950371E0,1.279950023E0,9.105056158E0
8.955249550E-1,-1.413000107E0,8.914950371E0,1.395000100E0,9.133396668E0
8.974862420E-1,-1.452000022E0,8.914950371E0,1.432950020E0,9.145380798E0
8.994476420E-1,-1.489950061E0,8.953050613E0,1.395000100E0,9.182760573E0
9.014090090E-1,-1.489950061E0,8.914950371E0,1.395000100E0,9.145617343E0
9.033707360E-1,-1.528050065E0,8.953050613E0,1.395000100E0,9.189019402E0
9.053323410E-1,-1.528050065E0,8.991000175E0,1.318050027E0,9.214677261E0
9.072940480E-1,-1.528050065E0,8.953050613E0,1.279950023E0,9.172258410E0
9.092557250E-1,-1.605000019E0,8.877000809E0,1.318050027E0,9.116711265E0
9.112170600E-1,-1.758000135E0,8.991000175E0,1.395000100E0,9.266858902E0
9.131784960E-1,-1.681950092E0,9.067950249E0,1.279950023E0,9.311012291E0
9.151401300E-1,-1.528050065E0,9.030000687E0,1.126049995E0,9.227341870E0
9.171016820E-1,-1.489950061E0,9.067950249E0,1.126049995E0,9.258275298E0
9.190633540E-1,-1.567050099E0,9.067950249E0,1.203000069E0,9.280656059E0
9.210249900E-1,-1.642950058E0,9.030000687E0,1.240950108E0,9.261757634E0
9.229861520E-1,-1.642950058E0,8.914950371E0,1.318050027E0,9.160397419E0
9.249474530E-1,-1.795950055E0,8.991000175E0,1.318050027E0,9.262870863E0
9.269089100E-1,-1.834950089E0,8.953050613E0,1.165050030E0,9.213115580E0
9.288703120E-1,-1.642950058E0,8.991000175E0,9.349500537E-1,9.187573164E0
9.308316950E-1,-1.567050099E0,8.991000175E0,8.580000401E-1,9.166782109E0
9.327930830E-1,-1.528050065E0,8.877000809E0,8.200500607E-1,9.044808592E0
9.347548270E-1,-1.567050099E0,8.838000298E0,5.899500251E-1,8.995217413E0
9.367164660E-1,-1.642950058E0,8.838000298E0,8.580000401E-1,9.030265678E0
9.386781410E-1,-1.758000135E0,8.800050735E0,1.050000072E0,9.035151220E0
9.406397920E-1,-1.873050094E0,8.838000298E0,1.087950110E0,9.099571493E0
9.426014920E-1,-1.834950089E0,8.800050735E0,8.580000401E-1,9.030177122E0
9.445631770E-1,-1.758000135E0,8.722949982E0,6.660000086E-1,8.923226819E0
9.465248700E-1,-1.720050097E0,8.722949982E0,5.899500251E-1,8.910469671E0
9.484865610E-1,-1.720050097E0,8.722949982E0,5.130000114E-1,8.905705909E0
9.504479400E-1,-1.795950055E0,8.722949982E0,5.899500251E-1,8.925431867E0
9.524094100E-1,-1.795950055E0,8.722949982E0,6.280500293E-1,8.928031128E0
9.543709140E-1,-1.873050094E0,8.722949982E0,6.280500293E-1,8.943859339E0
9.563324080E-1,-1.873050094E0,8.722949982E0,6.280500293E-1,8.943859339E0
9.582941340E-1,-1.950000048E0,8.685000420E0,5.509500504E-1,8.918255347E0
9.602557920E-1,-2.065050125E0,8.761950493E0,3.600000143E-1,9.009206872E0
9.622173110E-1,-1.911000133E0,8.685000420E0,5.899500251E-1,8.912305809E0
9.641788710E-1,-1.987950087E0,8.722949982E0,7.429500222E-1,8.977403671E0
9.661402700E-1,-2.065050125E0,8.647050858E0,7.429500222E-1,8.921204811E0
9.681017170E-1,-2.140950203E0,8.647050858E0,8.200500607E-1,8.945816810E0
9.700634050E-1,-2.295000076E0,8.608050346E0,7.429500222E-1,8.939660556E0
9.720250230E-1,-2.332950115E0,8.569950104E0,6.280500293E-1,8.903996174E0
9.739865940E-1,-2.332950115E0,8.493000031E0,5.509500504E-1,8.824808877E0
9.759481790E-1,-2.332950115E0,8.455050468E0,5.509500504E-1,8.788292247E0
9.779097090E-1,-2.448000193E0,8.416950226E0,5.130000114E-1,8.780713243E0
9.798712560E-1,-2.524950027E0,8.416950226E0,5.509500504E-1,8.804769713E0
9.818324320E-1,-2.485950232E0,8.377950668E0,5.130000114E-1,8.754037638E0
9.837937170E-1,-2.448000193E0,8.377950668E0,5.130000114E-1,8.743336397E0
9.857554930E-1,-2.410050154E0,8.302050591E0,3.979500234E-1,8.653944186E0
9.877171150E-1,-2.485950232E0,8.340000153E0,5.130000114E-1,8.717724480E0
9.896785950E-1,-2.601000071E0,8.377950668E0,5.899500251E-1,8.792229512E0
9.916401170E-1,-2.793000221E0,8.377950668E0,6.280500293E-1,8.853550388E0
9.936014780E-1,-2.830950022E0,8.377950668E0,5.899500251E-1,8.862977855E0
9.955628860E-1,-2.908050060E0,8.377950668E0,5.899500251E-1,8.887904904E0
9.975243050E-1,-2.946000099E0,8.416950226E0,5.130000114E-1,8.932364564E0
9.994857250E-1,-2.946000099E0,8.493000031E0,5.130000114E-1,9.004062145E0
1.001447105E0,-2.985000134E0,8.493000031E0,5.130000114E-1,9.016897711E0
1.003408497E0,-2.985000134E0,8.532000542E0,4.750500321E-1,9.051570669E0
1.005370060E0,-3.061050177E0,8.569950104E0,5.899500251E-1,9.119326400E0
1.007331572E0,-3.100050211E0,8.608050346E0,7.050000429E-1,9.176375490E0
1.009292881E0,-3.175950050E0,8.685000420E0,6.660000086E-1,9.271431768E0
1.011254256E0,-3.061050177E0,8.722949982E0,6.660000086E-1,9.268410898E0
1.013215821E0,-3.022950172E0,8.722949982E0,6.280500293E-1,9.253244348E0
1.015177331E0,-2.946000099E0,8.838000298E0,6.280500293E-1,9.337216538E0
1.017138695E0,-2.869950056E0,8.877000809E0,7.050000429E-1,9.356002445E0
1.019100102E0,-2.830950022E0,8.914950371E0,7.050000429E-1,9.380172877E0
1.021061527E0,-2.755050182E0,8.914950371E0,7.429500222E-1,9.360481631E0
1.023022946E0,-2.830950022E0,8.877000809E0,7.810500264E-1,9.350158316E0
1.024984640E0,-2.755050182E0,8.953050613E0,8.200500607E-1,9.403185572E0
1.026946254E0,-2.677950144E0,8.953050613E0,6.660000086E-1,9.368675908E0
1.028907645E0,-2.601000071E0,8.991000175E0,7.050000429E-1,9.386176569E0
1.030869102E0,-2.601000071E0,9.030000687E0,6.660000086E-1,9.420704314E0
1.032830624E0,-2.563050032E0,9.030000687E0,7.050000429E-1,9.413137783E0
1.034792148E0,-2.601000071E0,9.067950249E0,7.810500264E-1,9.465884123E0
1.036753689E0,-2.755050182E0,9.067950249E0,8.200500607E-1,9.512649753E0
1.038715225E0,-2.677950144E0,9.067950249E0,9.349500537E-1,9.501224673E0
1.040676899E0,-2.524950027E0,9.145050049E0,9.349500537E-1,9.533176000E0
1.042638533E0,-2.371050119E0,9.145050049E0,9.349500537E-1,9.493574178E0
1.044600216E0,-2.295000076E0,9.106050491E0,8.959500194E-1,9.433446207E0
1.046561898E0,-2.410050154E0,9.106050491E0,9.730500579E-1,9.469705577E0
1.048523278E0,-2.332950115E0,9.145050049E0,1.050000072E0,9.496162214E0
1.050484746E0,-2.256000042E0,9.183000565E0,1.087950110E0,9.518438475E0
1.052446250E0,-2.065050125E0,9.145050049E0,1.126049995E0,9.442688230E0
1.054407744E0,-2.065050125E0,9.106050491E0,1.087950110E0,9.400437384E0
1.056369082E0,-2.026050091E0,9.106050491E0,1.087950110E0,9.391947081E0
1.058330487E0,-2.026050091E0,9.030000687E0,1.087950110E0,9.318230884E0
1.060291912E0,-2.065050125E0,9.145050049E0,1.279950023E0,9.462274804E0
1.062253331E0,-1.911000133E0,9.220950127E0,1.432950020E0,9.525292043E0
1.064214845E0,-1.795950055E0,9.220950127E0,1.318050027E0,9.486232851E0
1.066176331E0,-1.720050097E0,9.259950638E0,1.395000100E0,9.521096756E0
1.068137735E0,-1.681950092E0,9.259950638E0,1.395000100E0,9.514287530E0
1.070099170E0,-1.681950092E0,9.259950638E0,1.395000100E0,9.514287530E0
1.072060680E0,-1.681950092E0,9.183000565E0,1.395000100E0,9.439411039E0
1.074022168E0,-1.642950058E0,9.259950638E0,1.356000066E0,9.501826503E0
1.075983356E0,-1.567050099E0,9.375000000E0,1.471050024E0,9.618225366E0
1.077944632E0,-1.489950061E0,9.375000000E0,1.510050058E0,9.612014740E0
1.079905885E0,-1.452000022E0,9.490050316E0,1.510050058E0,9.718518932E0
1.081867155E0,-1.413000107E0,9.528000832E0,1.510050058E0,9.749852323E0
1.083828334E0,-1.375050068E0,9.604950905E0,1.510050058E0,9.819679005E0
1.085789540E0,-1.413000107E0,9.643050194E0,1.510050058E0,9.862314004E0
1.087750819E0,-1.528050065E0,9.643050194E0,1.510050058E0,9.879453690E0
1.089712076E0,-1.642950058E0,9.757950783E0,1.510050058E0,1.000985212E1
1.091673128E0,-1.528050065E0,9.873000145E0,1.510050058E0,1.010402494E1
1.093634237E0,-1.452000022E0,9.910950661E0,1.510050058E0,1.012993081E1
1.095595488E0,-1.452000022E0,9.988050461E0,1.471050024E0,1.019967863E1
1.097556697E0,-1.605000019E0,9.988050461E0,1.471050024E0,1.022258114E1
1.099518247E0,-1.605000019E0,1.014105034E1,1.471050024E0,1.037212202E1
1.101479697E0,-1.567050099E0,1.021800041E1,1.471050024E0,1.044160747E1
1.103441280E0,-1.642950058E0,1.029495049E1,1.471050024E0,1.052849840E1
1.105402835E0,-1.681950092E0,1.037100029E1,1.471050024E0,1.060898635E1
1.107364192E0,-1.720050097E0,1.044795036E1,1.471050024E0,1.069028659E1
1.109325607E0,-1.720050097E0,1.048605061E1,1.471050024E0,1.072752617E1
1.111286986E0,-1.834950089E0,1.048605061E1,1.432950020E0,1.074139865E1
1.113248376E0,-1.873050094E0,1.060095024E1,1.318050027E0,1.084553911E1
1.115209904E0,-1.873050094E0,1.067805004E1,1.356000066E0,1.092555745E1
1.117171384E0,-1.911000133E0,1.067805004E1,1.318050027E0,1.092748507E1
1.119132933E0,-1.950000048E0,1.071600056E1,1.165050030E0,1.095410926E1
1.121094461E0,-1.950000048E0,1.071600056E1,1.087950110E0,1.094617758E1
1.123055867E0,-1.911000133E0,1.075500011E1,1.011000037E0,1.097014449E1
1.125017309E0,-1.950000048E0,1.079295063E1,9.349500537E-1,1.100747088E1
1.126978863E0,-1.911000133E0,1.079295063E1,8.959500194E-1,1.099738293E1
1.128940384E0,-1.911000133E0,1.079295063E1,8.200500607E-1,1.099145973E1
1.130901881E0,-2.026050091E0,1.071600056E1,6.660000086E-1,1.092616598E1
1.132863386E0,-2.026050091E0,1.075500011E1,5.509500504E-1,1.095803141E1
1.134824750E0,-2.065050125E0,1.071600056E1,5.899500251E-1,1.092909607E1
1.136786155E0,-2.026050091E0,1.075500011E1,5.130000114E-1,1.095618891E1
1.138747760E0,-2.026050091E0,1.075500011E1,5.130000114E-1,1.095618891E1
1.140709307E0,-2.103000164E0,1.071600056E1,3.600000143E-1,1.092633871E1
1.142671385E0,-2.140950203E0,1.063995075E1,3.220500052E-1,1.085798950E1
1.144633307E0,-2.256000042E0,1.063995075E1,2.830500007E-1,1.088017488E1
1.146594781E0,-2.295000076E0,1.056300068E1,2.449500114E-1,1.081221574E1
1.148556386E0,-2.371050119E0,1.052505016E1,1.300500035E-1,1.078960021E1
1.150518071E0,-2.371050119E0,1.052505016E1,5.295000225E-2,1.078894635E1
1.152479716E0,-2.448000193E0,1.044795036E1,1.500000060E-2,1.073091780E1
1.154440922E0,-2.448000193E0,1.041000080E1,-2.205000073E-2,1.069398466E1
1.156402256E0,-2.524950027E0,1.037100029E1,-9.900000691E-2,1.067440025E1
1.158363424E0,-2.601000071E0,1.037100029E1,-1.759500057E-1,1.069363394E1
1.160324641E0,-2.716050148E0,1.037100029E1,-4.440000355E-1,1.072994462E1
1.162285913E0,-2.716050148E0,1.037100029E1,-3.289500177E-1,1.072579990E1
1.164247172E0,-2.755050182E0,1.033305073E1,-1.759500057E-1,1.069547555E1
1.166208399E0,-2.755050182E0,1.025595093E1,-1.759500057E-1,1.062100698E1
1.168169636E0,-2.830950022E0,1.025595093E1,-1.759500057E-1,1.064094760E1
1.170131180E0,-2.869950056E0,1.018005085E1,-1.759500057E-1,1.057832723E1
1.172092634E0,-2.908050060E0,1.014105034E1,-2.520000041E-1,1.055277978E1
1.174053994E0,-2.985000134E0,1.010295010E1,-2.520000041E-1,1.053770992E1
1.176015391E0,-3.100050211E0,1.006500053E1,-3.289500177E-1,1.053673361E1
1.177976593E0,-3.138000250E0,1.002600002E1,-4.060500264E-1,1.051344847E1
1.179937853E0,-3.291000128E0,9.873000145E0,-6.739500165E-1,1.042885527E1
1.181899078E0,-3.175950050E0,1.002600002E1,-2.520000041E-1,1.052002087E1
1.183860314E0,-3.138000250E0,1.010295010E1,1.500000060E-2,1.057907705E1
1.185821773E0,-3.175950050E0,1.010295010E1,-2.205000073E-2,1.059040819E1
1.187783163E0,-3.138000250E0,1.010295010E1,1.500000060E-2,1.057907705E1
1.189744368E0,-3.100050211E0,1.018005085E1,5.295000225E-2,1.064173625E1
1.191705627E0,-3.061050177E0,1.029495049E1,5.295000225E-2,1.074052314E1
1.193666853E0,-3.061050177E0,1.025595093E1,1.680000126E-1,1.070433471E1
1.195628088E0,-3.061050177E0,1.025595093E1,2.070000172E-1,1.070501782E1
1.197589641E0,-3.100050211E0,1.029495049E1,1.680000126E-1,1.075288523E1
1.199551095E0,-3.061050177E0,1.033305073E1,2.449500114E-1,1.077970157E1
1.201512469E0,-3.061050177E0,1.041000080E1,2.830500007E-1,1.085441211E1
1.203473867E0,-3.061050177E0,1.044795036E1,2.070000172E-1,1.088910207E1
1.205435114E0,-3.138000250E0,1.044795036E1,2.070000172E-1,1.091098352E1
1.207396405E0,-3.138000250E0,1.052505016E1,1.300500035E-1,1.098365329E1
1.209357445E0,-3.100050211E0,1.063995075E1,1.680000126E-1,1.108364053E1
1.211318559E0,-3.061050177E0,1.071600056E1,2.449500114E-1,1.114731791E1
1.213279044E0,-3.061050177E0,1.071600056E1,3.600000143E-1,1.115043928E1
1.215239713E0,-3.022950172E0,1.075500011E1,5.130000114E-1,1.118353362E1
1.217201039E0,-2.908050060E0,1.079295063E1,7.429500222E-1,1.120252263E1
1.219162172E0,-2.908050060E0,1.083105087E1,7.810500264E-1,1.124181735E1
1.221123415E0,-2.830950022E0,1.079295063E1,1.011000037E0,1.120375751E1
1.223084629E0,-2.793000221E0,1.079295063E1,1.050000072E0,1.119781826E1
1.225045908E0,-2.716050148E0,1.079295063E1,1.087950110E0,1.118250183E1
1.227007167E0,-2.563050032E0,1.079295063E1,1.240950108E0,1.116230110E1
1.228968349E0,-2.485950232E0,1.071600056E1,1.395000100E0,1.108867178E1
1.230929554E0,-2.410050154E0,1.067805004E1,1.510050058E0,1.105030975E1
1.232890803E0,-2.295000076E0,1.063995075E1,1.701000094E0,1.101675899E1
1.234852029E0,-2.256000042E0,1.056300068E1,1.893000126E0,1.096585469E1
1.236813666E0,-2.371050119E0,1.048605061E1,2.008050203E0,1.093669976E1
1.238775182E0,-2.448000193E0,1.048605061E1,1.969950080E0,1.094671940E1
1.240736365E0,-2.256000042E0,1.041000080E1,2.161050081E0,1.086866093E1
1.242697646E0,-2.103000164E0,1.029495049E1,2.238000154E0,1.074324252E1
1.244659233E0,-1.950000048E0,1.021800041E1,2.275950193E0,1.064847322E1
1.246620726E0,-1.873050094E0,1.010295010E1,2.238000154E0,1.051601455E1
1.248582048E0,-1.720050097E0,9.949950218E0,2.161050081E0,1.032619093E1
1.250543420E0,-1.642950058E0,9.988050461E0,2.430000067E0,1.040986730E1
1.252504491E0,-1.528050065E0,9.835050583E0,2.545050144E0,1.027328756E1
1.254465651E0,-1.375050068E0,9.720000267E0,2.698050022E0,1.018079770E1
1.256427068E0,-1.144950032E0,9.643050194E0,2.889000177E0,1.013141894E1
1.258388413E0,-1.144950032E0,9.528000832E0,3.234000206E0,1.012681923E1
1.260349580E0,-1.144950032E0,9.528000832E0,3.502950191E0,1.021588814E1
1.262310800E0,-1.106999993E0,9.412950516E0,3.579000235E0,1.013105765E1
1.264272392E0,-1.068000078E0,9.336000443E0,3.771000147E0,1.012531336E1
1.266233875E0,-9.919500351E-1,9.259950638E0,3.924000263E0,1.010586111E1
1.268194943E0,-1.030050039E0,9.220950127E0,4.153950214E0,1.016573788E1
1.270156122E0,-9.529500604E-1,9.067950249E0,4.308000088E0,1.008437902E1
1.272117721E0,-8.380500674E-1,8.953050613E0,4.308000088E0,9.970872979E0
1.274079197E0,-7.999500632E-1,8.877000809E0,4.345950127E0,9.916065044E0
1.276040701E0,-6.469500065E-1,8.800050735E0,4.345950127E0,9.835991041E0
1.278002197E0,-5.320500135E-1,8.685000420E0,4.345950127E0,9.726232159E0
1.279963414E0,-3.780000210E-1,8.569950104E0,4.384050369E0,9.633629972E0
1.281924723E0,-3.400500119E-1,8.416950226E0,4.384050369E0,9.496345758E0
1.283886435E0,-1.870500147E-1,8.302050591E0,4.384050369E0,9.390363643E0
1.285848029E0,-1.099500060E-1,8.224950790E0,4.384050369E0,9.321040830E0
1.287809424E0,-3.299999982E-2,8.187000275E0,4.345950127E0,9.269053080E0
1.289770877E0,8.100000024E-2,8.148000717E0,4.345950127E0,9.234920638E0
1.291732438E0,1.189500093E-1,8.032950401E0,4.345950127E0,9.133987287E0
1.293693961E0,2.719500065E-1,7.995000362E0,4.345950127E0,9.103915098E0
1.295655458E0,3.490500152E-1,7.918050289E0,4.116000175E0,8.930779011E0
1.297616963E0,5.020500422E-1,7.879950523E0,4.192950249E0,8.940162542E0
1.299579272E0,8.089500666E-1,7.879950523E0,4.231050014E0,8.980523631E0
1.301541345E0,1.000050068E0,7.879950523E0,4.269000053E0,9.017653899E0
1.303502428E0,1.192050099E0,7.803000450E0,4.345950127E0,9.010831369E0
1.305463804E0,1.306950092E0,7.765050411E0,4.231050014E0,8.939010608E0
1.307425010E0,1.345050097E0,7.765050411E0,4.192950249E0,8.926701487E0
1.309386266E0,1.498950124E0,7.687950134E0,4.231050014E0,8.902427364E0
1.311347807E0,1.690050125E0,7.687950134E0,4.269000053E0,8.954619375E0
1.313309264E0,1.882050037E0,7.612050533E0,4.153950214E0,8.873597244E0
1.315270642E0,1.996950150E0,7.573050499E0,3.963000298E0,8.777486834E0
1.317232040E0,2.149950027E0,7.573050499E0,3.847950220E0,8.762425456E0
1.319193466E0,2.304000139E0,7.573050499E0,3.733050108E0,8.751866864E0
1.321154884E0,2.494950056E0,7.573050499E0,3.502950191E0,8.708991313E0
1.323116443E0,2.572050095E0,7.612050533E0,3.310950041E0,8.690290282E0
1.325077961E0,2.686950207E0,7.612050533E0,3.118950129E0,8.653950811E0
1.327039449E0,2.725050211E0,7.650000572E0,2.851050138E0,8.606793497E0
1.329000953E0,2.764050245E0,7.687950134E0,2.659050226E0,8.591571401E0
1.330962496E0,2.839950085E0,7.726950169E0,2.430000067E0,8.583471076E0
1.332924028E0,2.917050123E0,7.879950523E0,2.161050081E0,8.675997875E0
1.334885388E0,2.917050123E0,7.918050289E0,1.969950080E0,8.665183502E0
1.336846799E0,2.955000162E0,8.032950401E0,1.855050087E0,8.757940907E0
1.338808016E0,2.878050089E0,8.148000717E0,1.855050087E0,8.838229394E0
1.340769310E0,2.839950085E0,8.302050591E0,1.816050053E0,8.960323559E0
1.342730664E0,2.764050245E0,8.455050468E0,1.777950048E0,9.071326174E0
1.344692000E0,2.725050211E0,8.647050858E0,1.855050087E0,9.254112492E0
1.346653573E0,2.610000134E0,8.685000420E0,1.816050053E0,9.248749687E0
1.348615077E0,2.494950056E0,8.914950371E0,1.777950048E0,9.426676099E0
1.350576321E0,2.341950178E0,9.067950249E0,1.816050053E0,9.539941831E0
1.352537631E0,2.149950027E0,9.298050880E0,1.740000129E0,9.700702848E0
1.354499028E0,1.959000111E0,9.451050758E0,1.701000094E0,9.800685853E0
1.356460399E0,1.804950118E0,9.681000710E0,1.701000094E0,9.993649033E0
1.358421786E0,1.651950121E0,9.835050583E0,1.663050056E0,1.011053385E1
1.360383168E0,1.422000051E0,1.002600002E1,1.663050056E0,1.026199279E1
1.362344032E0,1.269000053E0,1.025595093E1,1.663050056E0,1.046712119E1
1.364305035E0,1.077000022E0,1.052505016E1,1.663050056E0,1.070991809E1
1.366266303E0,8.470500112E-1,1.067805004E1,1.624950051E0,1.083414552E1
1.368227494E0,6.550500393E-1,1.087005043E1,1.624950051E0,1.101033830E1
1.370188192E0,3.870000243E-1,1.110000038E1,1.585950017E0,1.121940350E1
1.372149035E0,1.570500135E-1,1.125300026E1,1.510050058E0,1.135495182E1
1.374110872E0,-3.299999982E-2,1.148295021E1,1.510050058E0,1.158186020E1
1.376072418E0,-3.780000210E-1,1.175100040E1,1.471050024E0,1.184875026E1
1.378033956E0,-6.469500065E-1,1.198095036E1,1.471050024E0,1.208824652E1
1.379995496E0,-8.380500674E-1,1.213395023E1,1.395000100E0,1.224259374E1
1.381957168E0,-1.106999993E0,1.240305042E1,1.318050027E0,1.252191537E1
1.383918802E0,-1.336950064E0,1.259400082E1,1.279950023E0,1.272927979E1
1.385880336E0,-1.605000019E0,1.286295033E1,1.240950108E0,1.302196119E1
1.387841924E0,-1.911000133E0,1.301595020E1,1.087950110E0,1.320039835E1
1.389803049E0,-2.140950203E0,1.316895103E1,9.349500537E-1,1.337456806E1
1.391764309E0,-2.448000193E0,1.324605083E1,7.810500264E-1,1.349298361E1
1.393725578E0,-2.677950144E0,1.332300091E1,6.280500293E-1,1.360397798E1
1.395686845E0,-2.946000099E0,1.339905071E1,6.280500293E-1,1.373345999E1
1.397648197E0,-3.214950085E0,1.339905071E1,5.130000114E-1,1.378889528E1
1.399609529E0,-3.445050240E0,1.328400040E1,3.979500234E-1,1.372921709E1
1.401571824E0,-3.598050117E0,1.320795059E1,2.830500007E-1,1.369218904E1
1.403533837E0,-3.904950142E0,1.309305096E1,1.680000126E-1,1.366399806E1
1.405495160E0,-4.057950020E0,1.293900108E1,2.070000172E-1,1.356198940E1
1.407456685E0,-4.210950375E0,1.278600025E1,2.070000172E-1,1.346316287E1
1.409418064E0,-4.441050053E0,1.255605030E1,2.070000172E-1,1.331991643E1
1.411379473E0,-4.518000126E0,1.236405087E1,2.449500114E-1,1.316594393E1
1.413340628E0,-4.555950165E0,1.213395023E1,1.680000126E-1,1.296216240E1
1.415301857E0,-4.555950165E0,1.182795048E1,2.449500114E-1,1.267742462E1
1.417262412E0,-4.518000126E0,1.167405033E1,2.830500007E-1,1.252101807E1
1.419223165E0,-4.594050407E0,1.148295021E1,3.979500234E-1,1.237423973E1
1.421184643E0,-4.633050442E0,1.129095078E1,3.600000143E-1,1.220984545E1
1.423145918E0,-4.747950077E0,1.113795090E1,3.600000143E-1,1.211307476E1
1.425107143E0,-4.824000359E0,1.110000038E1,5.509500504E-1,1.211546672E1
1.427068382E0,-4.939050198E0,1.106100082E1,5.509500504E-1,1.212614951E1
1.429030827E0,-5.016000271E0,1.102305031E1,4.750500321E-1,1.211996573E1
1.430992918E0,-5.053950310E0,1.094595051E1,3.220500052E-1,1.206067836E1
1.432954552E0,-5.245950222E0,1.060095024E1,-4.819500148E-1,1.183775382E1
1.434916314E0,-5.208000183E0,1.033305073E1,-1.363950014E0,1.165141892E1
1.436877138E0,-4.708950043E0,1.044795036E1,-1.369500011E-1,1.146091762E1
1.438838237E0,-4.747950077E0,1.052505016E1,5.509500504E-1,1.155955262E1
1.440800030E0,-4.671000004E0,1.044795036E1,7.050000429E-1,1.146625191E1
1.442761619E0,-4.555950165E0,1.044795036E1,5.899500251E-1,1.141334262E1
1.444723854E0,-4.441050053E0,1.037100029E1,5.130000114E-1,1.129352653E1
1.446685879E0,-4.402950287E0,1.037100029E1,2.449500114E-1,1.126958822E1
1.448647561E0,-4.288050175E0,1.033305073E1,2.449500114E-1,1.119014353E1
1.450609343E0,-4.210950375E0,1.025595093E1,5.295000225E-2,1.108690381E1
1.452570795E0,-4.134000301E0,1.021800041E1,-1.369500011E-1,1.102344076E1
1.454532343E0,-4.096050262E0,1.025595093E1,-3.670500219E-1,1.104974583E1
1.456494268E0,-4.057950020E0,1.018005085E1,-4.440000355E-1,1.096802305E1
1.458456062E0,-4.057950020E0,1.014105034E1,-4.819500148E-1,1.093344119E1
1.460417558E0,-3.943050146E0,1.018005085E1,-5.590500236E-1,1.093131358E1
1.462379141E0,-3.751050234E0,1.018005085E1,-4.819500148E-1,1.085983835E1
1.464340672E0,-3.712950230E0,1.006500053E1,-4.060500264E-1,1.073569335E1
1.466302218E0,-3.598050117E0,1.002600002E1,-4.060500264E-1,1.065980852E1
1.468263803E0,-3.367950201E0,1.002600002E1,-4.060500264E-1,1.058435835E1
1.470225374E0,-3.291000128E0,9.988050461E0,-4.060500264E-1,1.052410141E1
1.472186908E0,-3.175950050E0,9.949950218E0,-3.670500219E-1,1.045097573E1
1.474148453E0,-3.138000250E0,9.873000145E0,-4.060500264E-1,1.036764458E1
1.476109945E0,-3.061050177E0,9.835050583E0,-3.670500219E-1,1.030693814E1
1.478071453E0,-2.869950056E0,9.720000267E0,-4.440000355E-1,1.014456281E1
1.480032821E0,-2.755050182E0,9.643050194E0,-3.289500177E-1,1.003428755E1
1.481994227E0,-2.677950144E0,9.490050316E0,-2.910000086E-1,9.864945665E0
1.483955652E0,-2.563050032E0,9.412950516E0,-4.060500264E-1,9.764104644E0
1.485917071E0,-2.485950232E0,9.336000443E0,-4.060500264E-1,9.669836061E0
1.487878585E0,-2.410050154E0,9.220950127E0,-4.440000355E-1,9.541037628E0
1.489840071E0,-2.371050119E0,9.106050491E0,-4.819500148E-1,9.422011995E0
1.491801489E0,-2.256000042E0,8.914950371E0,-4.440000355E-1,9.206683026E0
1.493762924E0,-2.218050003E0,8.800050735E0,-4.819500148E-1,9.088064402E0
1.495724300E0,-2.179949999E0,8.722949982E0,-4.440000355E-1,9.002176093E0
1.497685694E0,-2.103000164E0,8.608050346E0,-4.060500264E-1,8.870513913E0
1.499647211E0,-2.065050125E0,8.532000542E0,-3.289500177E-1,8.784513269E0
1.501608692E0,-2.065050125E0,8.532000542E0,-3.289500177E-1,8.784513269E0
1.503570106E0,-2.026050091E0,8.340000153E0,-3.670500219E-1,8.590413682E0
1.505531540E0,-2.026050091E0,8.263050079E0,-4.440000355E-1,8.519390331E0
1.507492916E0,-2.026050091E0,8.148000717E0,-6.360000372E-1,8.420171655E0
1.509454309E0,-1.987950087E0,8.032950401E0,-7.120500207E-1,8.305856544E0
1.511415512E0,-1.950000048E0,7.918050289E0,-8.269500136E-1,8.196454532E0
1.513376771E0,-1.987950087E0,7.803000450E0,-7.510500550E-1,8.087202097E0
1.515337811E0,-1.987950087E0,7.687950134E0,-6.739500165E-1,7.969362047E0
1.517298919E0,-1.950000048E0,7.650000572E0,-7.120500207E-1,7.926665388E0
1.519260350E0,-1.987950087E0,7.534950256E0,-7.120500207E-1,7.825243520E0
1.521221687E0,-1.950000048E0,7.534950256E0,-6.360000372E-1,7.809127454E0
1.523183215E0,-1.987950087E0,7.497000217E0,-5.209500194E-1,7.773567182E0
1.525144687E0,-1.987950087E0,7.420050144E0,-5.590500236E-1,7.702053403E0
1.527105922E0,-2.065050125E0,7.381950378E0,-5.590500236E-1,7.685711440E0
1.529067227E0,-2.103000164E0,7.381950378E0,-5.590500236E-1,7.695994933E0
1.531028759E0,-2.140950203E0,7.342950344E0,-5.590500236E-1,7.669101933E0
1.532990225E0,-2.065050125E0,7.381950378E0,-5.209500194E-1,7.683034058E0
1.534951236E0,-2.103000164E0,7.342950344E0,-5.590500236E-1,7.658594282E0
1.536912381E0,-2.103000164E0,7.381950378E0,-5.970000029E-1,7.698844724E0
1.538874017E0,-2.065050125E0,7.342950344E0,-5.970000029E-1,7.651128072E0
1.540835519E0,-2.065050125E0,7.342950344E0,-5.590500236E-1,7.648260502E0
1.542796704E0,-2.140950203E0,7.305000305E0,-6.360000372E-1,7.638795277E0
1.544757982E0,-2.179949999E0,7.305000305E0,-7.120500207E-1,7.656515310E0
1.546719384E0,-2.256000042E0,7.342950344E0,-7.510500550E-1,7.718324438E0
1.548680750E0,-2.179949999E0,7.228050232E0,-7.120500207E-1,7.583133085E0
1.550642089E0,-2.218050003E0,7.228050232E0,-5.209500194E-1,7.578644001E0
1.552603439E0,-2.295000076E0,7.228050232E0,-4.440000355E-1,7.596635541E0
1.554565009E0,-2.448000193E0,7.381950378E0,-5.590500236E-1,7.797335010E0
1.556526514E0,-2.295000076E0,7.497000217E0,-1.057050109E0,7.911345811E0
1.558487744E0,-2.179949999E0,7.458000183E0,-1.441050053E0,7.902567556E0
1.560449054E0,-2.103000164E0,7.342950344E0,-1.594050050E0,7.802725486E0
1.562410631E0,-2.026050091E0,7.152000427E0,-1.516950130E0,7.586641337E0
1.564372129E0,-1.987950087E0,6.997950554E0,-1.171950102E0,7.368631117E0
1.566333496E0,-2.065050125E0,7.075050354E0,-8.659500480E-1,7.420959440E0
1.568294901E0,-2.103000164E0,7.113000393E0,-7.510500550E-1,7.455297477E0
1.570256416E0,-2.140950203E0,7.189950466E0,-7.120500207E-1,7.535653303E0
1.572217899E0,-2.256000042E0,7.228050232E0,-9.040500522E-1,7.625716546E0
1.574179292E0,-2.256000042E0,7.267050266E0,-9.420000315E-1,7.667262864E0
1.576140694E0,-2.295000076E0,7.305000305E0,-9.420000315E-1,7.714753325E0
1.578102075E0,-2.332950115E0,7.342950344E0,-9.810000658E-1,7.766848597E0
1.580063463E0,-2.410050154E0,7.381950378E0,-9.810000658E-1,7.827125543E0
1.582025071E0,-2.371050119E0,7.381950378E0,-1.057050109E0,7.825115015E0
1.583986615E0,-2.332950115E0,7.381950378E0,-1.134000063E0,7.824436323E0
1.585948154E0,-2.332950115E0,7.458000183E0,-1.210950017E0,7.907643322E0
1.587909694E0,-2.295000076E0,7.458000183E0,-1.171950102E0,7.890643771E0
1.589871007E0,-2.256000042E0,7.381950378E0,-1.171950102E0,7.807444820E0
1.591832386E0,-2.218050003E0,7.381950378E0,-1.134000063E0,7.790949451E0
1.593793456E0,-2.179949999E0,7.381950378E0,-1.171950102E0,7.785810197E0
1.595754617E0,-2.140950203E0,7.305000305E0,-1.171950102E0,7.701958470E0
1.597716204E0,-2.065050125E0,7.267050266E0,-1.249050021E0,7.657321826E0
1.599677677E0,-2.026050091E0,7.228050232E0,-1.210950017E0,7.603682599E0
1.601639002E0,-1.911000133E0,7.152000427E0,-1.249050021E0,7.507540048E0
1.603600371E0,-1.911000133E0,7.228050232E0,-1.249050021E0,7.580023590E0
1.605561802E0,-1.795950055E0,7.189950466E0,-1.326000094E0,7.528552355E0
1.607523215E0,-1.834950089E0,7.152000427E0,-1.287000060E0,7.494966384E0
1.609484416E0,-1.795950055E0,7.189950466E0,-1.287000060E0,7.521781269E0
1.611445679E0,-1.795950055E0,7.228050232E0,-1.326000094E0,7.564946993E0
1.613407399E0,-1.720050097E0,7.228050232E0,-1.363950014E0,7.554048063E0
1.615368985E0,-1.642950058E0,7.342950344E0,-1.363950014E0,7.647127846E0
1.617330201E0,-1.681950092E0,7.381950378E0,-1.402050018E0,7.699863100E0
1.619291525E0,-1.720050097E0,7.420050144E0,-1.363950014E0,7.737963306E0
1.621252905E0,-1.642950058E0,7.458000183E0,-1.287000060E0,7.744509073E0
1.623214278E0,-1.720050097E0,7.458000183E0,-1.287000060E0,7.761231102E0
1.625175665E0,-1.720050097E0,7.497000217E0,-1.287000060E0,7.798714878E0
1.627137048E0,-1.642950058E0,7.534950256E0,-1.287000060E0,7.818639870E0
1.629098568E0,-1.681950092E0,7.612050533E0,-1.249050021E0,7.895086788E0
1.631060048E0,-1.720050097E0,7.612050533E0,-1.210950017E0,7.897359407E0
1.633021433E0,-1.720050097E0,7.650000572E0,-1.210950017E0,7.933944859E0
1.634982867E0,-1.720050097E0,7.612050533E0,-1.210950017E0,7.897359407E0
1.636944243E0,-1.758000135E0,7.726950169E0,-1.134000063E0,8.005140819E0
1.638905636E0,-1.758000135E0,7.650000572E0,-1.134000063E0,7.930890831E0
1.640867334E0,-1.795950055E0,7.687950134E0,-1.057050109E0,7.965385666E0
1.642828942E0,-1.795950055E0,7.687950134E0,-1.018950105E0,7.960419159E0
1.644790460E0,-1.795950055E0,7.687950134E0,-1.057050109E0,7.965385666E0
1.646752011E0,-1.873050094E0,7.687950134E0,-9.810000658E-1,7.973409249E0
1.648713726E0,-1.873050094E0,7.726950169E0,-9.420000315E-1,8.006337466E0
1.650675393E0,-1.950000048E0,7.726950169E0,-9.810000658E-1,8.029359889E0
1.652636911E0,-2.026050091E0,7.726950169E0,-8.659500480E-1,8.034955343E0
1.654598472E0,-1.987950087E0,7.726950169E0,-8.659500480E-1,8.025432944E0
1.656560361E0,-2.065050125E0,7.726950169E0,-8.269500136E-1,8.040773424E0
1.658522157E0,-2.103000164E0,7.650000572E0,-9.040500522E-1,7.985137753E0
1.660483833E0,-2.065050125E0,7.497000217E0,-9.420000315E-1,7.833058683E0
1.662445544E0,-2.140950203E0,7.534950256E0,-8.659500480E-1,7.880927142E0
1.664407233E0,-2.256000042E0,7.573050499E0,-7.890000343E-1,7.941231082E0
1.666368929E0,-2.295000076E0,7.534950256E0,-8.269500136E-1,7.919996657E0
1.668330457E0,-2.295000076E0,7.497000217E0,-8.269500136E-1,7.883900300E0
1.670292055E0,-2.332950115E0,7.420050144E0,-8.269500136E-1,7.821997616E0
1.672253538E0,-2.371050119E0,7.420050144E0,-9.420000315E-1,7.846425101E0
1.674215055E0,-2.332950115E0,7.305000305E0,-9.420000315E-1,7.726127734E0
1.676176821E0,-2.371050119E0,7.267050266E0,-9.040500522E-1,7.697350501E0
1.678138514E0,-2.410050154E0,7.228050232E0,-1.057050109E0,7.692230290E0
1.680099847E0,-2.371050119E0,7.152000427E0,-1.096050024E0,7.614086579E0
1.682061285E0,-2.410050154E0,7.152000427E0,-1.057050109E0,7.620814050E0
1.684023155E0,-2.410050154E0,7.075050354E0,-1.057050109E0,7.548644527E0
1.685984899E0,-2.485950232E0,7.075050354E0,-1.096050024E0,7.578760566E0
1.687946448E0,-2.410050154E0,7.075050354E0,-1.018950105E0,7.543403646E0
1.689908055E0,-2.485950232E0,7.075050354E0,-1.057050109E0,7.573218668E0
1.691869770E0,-2.485950232E0,7.075050354E0,-1.096050024E0,7.578760566E0
1.693831447E0,-2.448000193E0,7.075050354E0,-1.057050109E0,7.560846341E0
1.695793142E0,-2.448000193E0,7.152000427E0,-1.057050109E0,7.632900496E0
1.697754832E0,-2.448000193E0,7.267050266E0,-1.096050024E0,7.746228125E0
1.699716660E0,-2.524950027E0,7.381950378E0,-1.134000063E0,7.883813809E0
1.701678447E0,-2.563050032E0,7.497000217E0,-1.134000063E0,8.003761233E0
1.703639939E0,-2.640000105E0,7.573050499E0,-1.096050024E0,8.094567318E0
1.705601521E0,-2.640000105E0,7.726950169E0,-1.171950102E0,8.249171262E0
1.707563231E0,-2.601000071E0,7.957050323E0,-1.171950102E0,8.453006463E0
1.709524904E0,-2.640000105E0,8.187000275E0,-1.096050024E0,8.671672255E0
1.711486599E0,-2.601000071E0,8.340000153E0,-1.096050024E0,8.804665216E0
1.713448288E0,-2.563050032E0,8.569950104E0,-1.057050109E0,9.007254031E0
1.715409981E0,-2.524950027E0,8.761950493E0,-9.810000658E-1,9.171123716E0
1.717371673E0,-2.485950232E0,8.914950371E0,-9.040500522E-1,9.299117978E0
1.719333186E0,-2.448000193E0,9.106050491E0,-7.890000343E-1,9.462313752E0
1.721294752E0,-2.371050119E0,9.336000443E0,-8.269500136E-1,9.667814089E0
1.723256330E0,-2.410050154E0,9.451050758E0,-9.040500522E-1,9.795305441E0
1.725217904E0,-2.371050119E0,9.681000710E0,-9.420000315E-1,1.001154421E1
1.727179558E0,-2.448000193E0,9.796050072E0,-9.810000658E-1,1.014483431E1
1.729141198E0,-2.448000193E0,1.002600002E1,-1.057050109E0,1.037452343E1
1.731102944E0,-2.448000193E0,1.021800041E1,-1.018950105E0,1.055644337E1
1.733064659E0,-2.448000193E0,1.037100029E1,-9.420000315E-1,1.069755654E1
1.735026168E0,-2.524950027E0,1.052505016E1,-8.659500480E-1,1.085826520E1
1.736987738E0,-2.601000071E0,1.067805004E1,-7.510500550E-1,1.101589898E1
1.738949390E0,-2.755050182E0,1.083105087E1,-7.120500207E-1,1.119861508E1
1.740911029E0,-2.908050060E0,1.098495007E1,-7.890000343E-1,1.139071570E1
1.742872416E0,-3.022950172E0,1.110000038E1,-7.120500207E-1,1.152628524E1
1.744833877E0,-3.061050177E0,1.121400070E1,-5.970000029E-1,1.163959831E1
1.746795383E0,-3.175950050E0,1.132905006E1,-5.970000029E-1,1.178093558E1
1.748756875E0,-3.291000128E0,1.148295021E1,-5.209500194E-1,1.195659719E1
1.750718467E0,-3.445050240E0,1.159800053E1,-4.819500148E-1,1.210843769E1
1.752680029E0,-3.559950113E0,1.167405033E1,-5.209500194E-1,1.221589476E1
1.754641698E0,-3.675000191E0,1.178895092E1,-5.590500236E-1,1.236112969E1
1.756603336E0,-3.790050268E0,1.190400028E1,-5.970000029E-1,1.250704253E1
1.758564679E0,-3.828000069E0,1.194300079E1,-6.360000372E-1,1.255760122E1
1.760526108E0,-3.865950108E0,1.201905060E1,-5.970000029E-1,1.263960270E1
1.762487540E0,-3.904950142E0,1.205805016E1,-6.739500165E-1,1.269249455E1
1.764448964E0,-3.904950142E0,1.205805016E1,-7.890000343E-1,1.269912321E1
1.766410521E0,-3.943050146E0,1.205805016E1,-9.040500522E-1,1.271855041E1
1.768372039E0,-3.865950108E0,1.201905060E1,-9.810000658E-1,1.266355040E1
1.770333581E0,-3.865950108E0,1.198095036E1,-1.057050109E0,1.263353065E1
1.772295116E0,-3.751050234E0,1.190400028E1,-1.210950017E0,1.253961724E1
1.774256611E0,-3.675000191E0,1.182795048E1,-1.326000094E0,1.245649691E1
1.776218118E0,-3.675000191E0,1.178895092E1,-1.402050018E0,1.242782099E1
1.778179661E0,-3.559950113E0,1.167405033E1,-1.479000092E0,1.229406919E1
1.780141193E0,-3.483000278E0,1.163595009E1,-1.671000123E0,1.226045949E1
1.782102778E0,-3.406050205E0,1.144395065E1,-1.747050047E0,1.206720218E1
1.784064347E0,-3.367950201E0,1.129095078E1,-1.900950074E0,1.193491806E1
1.786025876E0,-3.330000162E0,1.113795090E1,-1.977000117E0,1.179200495E1
1.787987420E0,-3.214950085E0,1.102305031E1,-2.014950037E0,1.165776847E1
1.789949137E0,-3.214950085E0,1.075500011E1,-2.206950188E0,1.144012940E1
1.791910803E0,-3.175950050E0,1.060095024E1,-2.359950066E0,1.131530685E1
1.793872635E0,-3.175950050E0,1.041000080E1,-2.398950100E0,1.114494222E1
1.795834418E0,-3.175950050E0,1.025595093E1,-2.475000143E0,1.101802223E1
1.797796280E0,-3.214950085E0,9.988050461E0,-2.551950216E0,1.079858815E1
1.799758116E0,-3.214950085E0,9.835050583E0,-2.704950094E0,1.069489967E1
1.801719650E0,-3.175950050E0,9.681000710E0,-2.782050133E0,1.056163985E1
1.803681272E0,-3.253050089E0,9.565950394E0,-2.743950129E0,1.046990946E1
1.805642975E0,-3.291000128E0,9.451050758E0,-2.782050133E0,1.038714808E1
1.807604654E0,-3.367950201E0,9.336000443E0,-2.782050133E0,1.030746311E1
1.809566489E0,-3.406050205E0,9.220950127E0,-2.667000055E0,1.018528294E1
1.811528275E0,-3.483000278E0,9.106050491E0,-2.629050016E0,1.009769035E1
1.813489997E0,-3.559950113E0,9.067950249E0,-2.551950216E0,1.007042285E1
1.815451738E0,-3.636000156E0,8.991000175E0,-2.514000177E0,1.001892101E1
1.817413556E0,-3.751050234E0,8.953050613E0,-2.475000143E0,1.001764038E1
1.819375352E0,-3.981000185E0,8.991000175E0,-2.629050016E0,1.017832750E1
1.821337027E0,-3.943050146E0,8.953050613E0,-2.245050192E0,1.003718138E1
1.823298738E0,-4.057950020E0,9.030000687E0,-1.861950040E0,1.007346657E1
1.825260427E0,-4.249050140E0,9.067950249E0,-1.671000123E0,1.015255585E1
1.827222123E0,-4.402950287E0,9.106050491E0,-1.708950043E0,1.025800356E1
1.829183499E0,-4.555950165E0,9.220950127E0,-1.786050081E0,1.043899315E1
1.831144969E0,-4.671000004E0,9.336000443E0,-1.824000120E0,1.059745827E1
1.833106498E0,-4.863000393E0,9.412950516E0,-1.824000120E0,1.075078540E1
1.835068024E0,-4.978050232E0,9.528000832E0,-1.824000120E0,1.090370398E1
1.837029521E0,-5.016000271E0,9.681000710E0,-1.900950074E0,1.106777505E1
1.838991026E0,-5.092950344E0,9.681000710E0,-1.861950040E0,1.109625053E1
1.840952390E0,-5.053950310E0,9.757950783E0,-1.900950074E0,1.115229252E1
1.842913795E0,-5.016000271E0,9.835050583E0,-1.900950074E0,1.120277153E1
1.844875220E0,-4.978050232E0,9.835050583E0,-1.900950074E0,1.118583100E1
1.846836639E0,-4.978050232E0,9.835050583E0,-1.861950040E0,1.117926930E1
1.848798333E0,-4.863000393E0,9.835050583E0,-1.786050081E0,1.111606800E1
1.850759947E0,-4.824000359E0,9.835050583E0,-1.632000089E0,1.107531596E1
1.852721113E0,-4.747950077E0,9.720000267E0,-1.786050081E0,1.096409641E1
1.854682411E0,-4.671000004E0,9.643050194E0,-1.747050047E0,1.085628122E1
1.856644049E0,-4.479000092E0,9.604950905E0,-1.594050050E0,1.071716004E1
1.858605577E0,-4.363950253E0,9.528000832E0,-1.555950046E0,1.059470822E1
1.860567073E0,-4.555950165E0,9.451050758E0,-2.398950100E0,1.076262068E1
1.862528579E0,-4.134000301E0,9.412950516E0,-1.479000092E0,1.038657967E1
1.864489988E0,-3.943050146E0,9.298050880E0,-9.420000315E-1,1.014340962E1
1.866451426E0,-3.904950142E0,9.259950638E0,-6.739500165E-1,1.007221575E1
1.868412741E0,-3.828000069E0,9.220950127E0,-5.970000029E-1,1.000179558E1
1.870374103E0,-3.712950230E0,9.220950127E0,-6.739500165E-1,9.963238895E0
1.872335535E0,-3.636000156E0,9.183000565E0,-7.890000343E-1,9.908103631E0
1.874296947E0,-3.598050117E0,9.183000565E0,-8.659500480E-1,9.900673386E0
1.876258328E0,-3.520950079E0,9.183000565E0,-5.590500236E-1,9.850742396E0
1.878219718E0,-3.406050205E0,9.106050491E0,-6.360000372E-1,9.742988741E0
1.880181277E0,-3.559950113E0,9.030000687E0,-1.326000094E0,9.796552121E0
1.882142789E0,-3.291000128E0,9.067950249E0,-9.420000315E-1,9.692562490E0
1.884103387E0,-3.022950172E0,9.067950249E0,1.680000126E-1,9.560029993E0
1.886064253E0,-2.985000134E0,8.991000175E0,6.280500293E-1,9.494353943E0
1.888025906E0,-2.985000134E0,9.067950249E0,6.280500293E-1,9.567256365E0
1.889987328E0,-2.908050060E0,9.067950249E0,4.360500276E-1,9.532817867E0
1.891949251E0,-2.908050060E0,9.067950249E0,2.830500007E-1,9.527045406E0
1.893911024E0,-2.793000221E0,9.145050049E0,2.070000172E-1,9.564289814E0
1.895871442E0,-2.716050148E0,9.259950638E0,2.449500114E-1,9.653166047E0
1.897832257E0,-2.677950144E0,9.336000443E0,4.750500321E-1,9.724093468E0
1.899793378E0,-2.601000071E0,9.451050758E0,6.660000086E-1,9.825025080E0
1.901754409E0,-2.524950027E0,9.565950394E0,8.959500194E-1,9.934057882E0
1.903715705E0,-2.485950232E0,9.720000267E0,1.011000037E0,1.008367368E1
1.905676933E0,-2.448000193E0,9.910950661E0,1.203000069E0,1.027943856E1
1.907638300E0,-2.371050119E0,1.006500053E1,1.395000100E0,1.043418131E1
1.909599626E0,-2.295000076E0,1.025595093E1,1.471050024E0,1.061204707E1
1.911561066E0,-2.218050003E0,1.044795036E1,1.510050058E0,1.078701366E1
1.913522472E0,-2.103000164E0,1.067805004E1,1.585950017E0,1.099811801E1
1.915484047E0,-1.987950087E0,1.083105087E1,1.740000129E0,1.114859673E1
1.917445563E0,-1.873050094E0,1.102305031E1,1.969950080E0,1.135326641E1
1.919407285E0,-1.758000135E0,1.125300026E1,2.161050081E0,1.159270101E1
1.921368947E0,-1.642950058E0,1.144395065E1,2.314950228E0,1.179077122E1
1.923330601E0,-1.489950061E0,1.163595009E1,2.467950106E0,1.198774638E1
1.925292257E0,-1.260000110E0,1.186605072E1,2.620950222E0,1.221720672E1
1.927253970E0,-1.030050039E0,1.205805016E1,2.698050022E0,1.239907458E1
1.929215655E0,-8.770500422E-1,1.221105099E1,2.698050022E0,1.253628561E1
1.931177169E0,-6.469500065E-1,1.232595062E1,2.812950134E0,1.265939539E1
1.933138734E0,-4.170000255E-1,1.247895050E1,2.812950134E0,1.279885866E1
1.935099952E0,-1.099500060E-1,1.255605030E1,2.928000212E0,1.289339650E1
1.937061272E0,8.100000024E-2,1.263300037E1,3.004050255E0,1.298551414E1
1.939022976E0,3.109500110E-1,1.263300037E1,3.081000090E0,1.300699619E1
1.940984572E0,5.410500169E-1,1.263300037E1,3.081000090E0,1.301453015E1
1.942946821E0,8.089500666E-1,1.263300037E1,3.118950129E0,1.303744410E1
1.944908879E0,1.039050102E0,1.263300037E1,3.196050167E0,1.307237776E1
1.946869969E0,1.153950095E0,1.255605030E1,3.234000206E0,1.301709481E1
1.948831343E0,1.306950092E0,1.247895050E1,3.234000206E0,1.295727909E1
1.950792895E0,1.345050097E0,1.236405087E1,3.234000206E0,1.285059029E1
1.952754404E0,1.459950089E0,1.217295074E1,3.118950129E0,1.265069302E1
1.954715633E0,1.614000082E0,1.190400028E1,3.043050051E0,1.239235137E1
1.956676944E0,1.651950121E0,1.163595009E1,2.928000212E0,1.211187264E1
1.958638341E0,1.690050125E0,1.148295021E1,3.004050255E0,1.198910893E1
1.960599712E0,1.614000082E0,1.117605019E1,2.965950251E0,1.167501413E1
1.962561094E0,1.575000048E0,1.090800095E1,2.928000212E0,1.140343348E1
1.964522476E0,1.459950089E0,1.056300068E1,2.889000177E0,1.104783959E1
1.966483996E0,1.422000051E0,1.018005085E1,2.698050022E0,1.062708772E1
1.968445476E0,1.306950092E0,9.835050583E0,2.467950106E0,1.022385036E1
1.970406890E0,1.306950092E0,9.451050758E0,2.353049994E0,9.826867418E0
1.972368324E0,1.153950095E0,9.183000565E0,2.275950193E0,9.530952181E0
1.974329883E0,1.114950061E0,8.953050613E0,2.161050081E0,9.277411621E0
1.976291403E0,1.000050068E0,8.722949982E0,2.161050081E0,9.042128841E0
1.978252945E0,8.470500112E-1,8.532000542E0,2.161050081E0,8.842096155E0
1.980214480E0,8.089500666E-1,8.377950668E0,2.008050203E0,8.653133723E0
1.982175299E0,6.940500140E-1,8.302050591E0,2.008050203E0,8.569598301E0
1.984136328E0,5.020500422E-1,8.263050079E0,1.893000126E0,8.491966812E0
1.986098084E0,3.870000243E-1,8.224950790E0,1.816050053E0,8.431940602E0
1.988059630E0,2.719500065E-1,8.263050079E0,1.740000129E0,8.448642132E0
1.990020988E0,2.340000123E-1,8.263050079E0,1.624950051E0,8.424560243E0
1.991982401E0,2.340000123E-1,8.148000717E0,1.624950051E0,8.311746770E0
1.993943781E0,1.570500135E-1,8.187000275E0,1.663050056E0,8.355679128E0
1.995905170E0,1.570500135E-1,8.224950790E0,1.701000094E0,8.400469126E0
1.997866593E0,8.100000024E-2,8.224950790E0,1.701000094E0,8.399391515E0
1.999828009E0,4.050000105E-3,8.224950790E0,1.701000094E0,8.399001919E0
2.001789749E0,-7.200000435E-2,8.224950790E0,1.663050056E0,8.391706322E0
2.003751394E0,-7.200000435E-2,8.224950790E0,1.740000129E0,8.407294449E0
2.005713229E0,-1.480500102E-1,8.224950790E0,1.663050056E0,8.392703366E0
2.007675009E0,-3.019500077E-1,8.263050079E0,1.701000094E0,8.441716161E0
2.009636692E0,-3.780000210E-1,8.302050591E0,1.777950048E0,8.498707808E0
2.011598400E0,-4.930500090E-1,8.340000153E0,1.777950048E0,8.541651318E0
2.013560449E0,-5.320500135E-1,8.340000153E0,1.893000126E0,8.568671381E0
2.015522398E0,-6.079500318E-1,8.416950226E0,1.893000126E0,8.648589701E0
2.017484048E0,-6.850500107E-1,8.532000542E0,1.893000126E0,8.766286342E0
2.019445785E0,-7.620000243E-1,8.608050346E0,1.893000126E0,8.846616544E0
2.021407479E0,-9.150000215E-1,8.647050858E0,1.855050087E0,8.891002441E0
2.023369179E0,-1.106999993E0,8.647050858E0,1.740000129E0,8.889574679E0
2.025330914E0,-1.144950032E0,8.722949982E0,1.777950048E0,8.975626626E0
2.027292639E0,-1.144950032E0,8.800050735E0,1.816050053E0,9.058136746E0
2.029254326E0,-1.183050036E0,8.838000298E0,1.740000129E0,9.085012774E0
2.031216025E0,-1.260000110E0,8.800050735E0,1.701000094E0,9.051071458E0
2.033177536E0,-1.336950064E0,8.838000298E0,1.624950051E0,9.085050765E0
2.035139102E0,-1.260000110E0,8.800050735E0,1.548000097E0,9.023569001E0
2.037100636E0,-1.297950029E0,8.800050735E0,1.510050058E0,9.022517299E0
2.039062179E0,-1.375050068E0,8.838000298E0,1.510050058E0,9.070902002E0
2.041024031E0,-1.297950029E0,8.761950493E0,1.585950017E0,8.998426983E0
2.042985793E0,-1.336950064E0,8.914950371E0,1.585950017E0,9.153087623E0
2.044947474E0,-1.567050099E0,8.991000175E0,1.510050058E0,9.250620593E0
2.046909179E0,-1.528050065E0,8.991000175E0,1.395000100E0,9.225998398E0
2.048870554E0,-1.489950061E0,8.991000175E0,1.356000066E0,9.213944406E0
2.050832025E0,-1.489950061E0,8.953050613E0,1.318050027E0,9.171386064E0
2.052793935E0,-1.413000107E0,8.991000175E0,1.356000066E0,9.201814475E0
2.054755716E0,-1.413000107E0,8.953050613E0,1.356000066E0,9.164737899E0
2.056717709E0,-1.452000022E0,8.914950371E0,1.356000066E0,9.133640039E0
2.058679639E0,-1.413000107E0,8.953050613E0,1.356000066E0,9.164737899E0
2.060641157E0,-1.375050068E0,8.953050613E0,1.240950108E0,9.142638303E0
2.062602795E0,-1.375050068E0,8.914950371E0,1.087950110E0,9.085743681E0
2.064564630E0,-1.336950064E0,8.991000175E0,1.011000037E0,9.145908413E0
2.066526408E0,-1.336950064E0,8.914950371E0,1.011000037E0,9.071157405E0
2.068487896E0,-1.183050036E0,8.953050613E0,1.050000072E0,9.091711765E0
2.070449477E0,-1.068000078E0,8.838000298E0,1.087950110E0,8.968528802E0
2.072411053E0,-9.919500351E-1,8.838000298E0,1.126049995E0,8.964496791E0
2.074372631E0,-9.919500351E-1,8.800050735E0,1.087950110E0,8.922359176E0
2.076334657E0,-9.150000215E-1,8.800050735E0,1.126049995E0,8.918862404E0
2.078296552E0,-9.150000215E-1,8.800050735E0,1.126049995E0,8.918862404E0
2.080258256E0,-7.620000243E-1,8.761950493E0,1.126049995E0,8.866815046E0
2.082220016E0,-4.930500090E-1,8.722949982E0,1.203000069E0,8.819306314E0
2.084181651E0,-3.780000210E-1,8.647050858E0,1.203000069E0,8.738511413E0
2.086143323E0,-3.780000210E-1,8.761950493E0,1.279950023E0,8.863009225E0
2.088104884E0,-3.400500119E-1,8.761950493E0,1.011000037E0,8.826637612E0
2.090066477E0,-2.629500031E-1,8.761950493E0,8.959500194E-1,8.811563175E0
2.092027855E0,-3.780000210E-1,8.838000298E0,8.580000401E-1,8.887592325E0
2.093989275E0,-4.549500346E-1,8.877000809E0,7.429500222E-1,8.919646721E0
2.095951013E0,-4.549500346E-1,8.877000809E0,7.429500222E-1,8.919646721E0
2.097912658E0,-3.780000210E-1,8.877000809E0,8.200500607E-1,8.922808385E0
2.099874359E0,-2.629500031E-1,8.838000298E0,8.580000401E-1,8.883442803E0
2.101836043E0,-2.629500031E-1,8.838000298E0,8.959500194E-1,8.887188442E0
2.103797558E0,-3.019500077E-1,8.877000809E0,9.349500537E-1,8.931206456E0
2.105759122E0,-4.170000255E-1,8.838000298E0,8.580000401E-1,8.889336440E0
2.107720835E0,-4.549500346E-1,8.838000298E0,9.349500537E-1,8.898952770E0
2.109682504E0,-4.170000255E-1,8.761950493E0,8.959500194E-1,8.817504857E0
2.111644380E0,-4.170000255E-1,8.685000420E0,8.959500194E-1,8.741043859E0
2.113606196E0,-3.780000210E-1,8.685000420E0,9.349500537E-1,8.743354500E0
2.115568173E0,-4.170000255E-1,8.685000420E0,8.580000401E-1,8.737235568E0
2.117530110E0,-4.170000255E-1,8.608050346E0,8.959500194E-1,8.664591521E0
2.119491626E0,-4.549500346E-1,8.532000542E0,9.730500579E-1,8.599351091E0
2.121453265E0,-4.930500090E-1,8.455050468E0,1.011000037E0,8.529542650E0
2.123415101E0,-4.930500090E-1,8.493000031E0,1.087950110E0,8.576583427E0
2.125376879E0,-5.320500135E-1,8.455050468E0,1.240950108E0,8.562179209E0
2.127338757E0,-6.850500107E-1,8.455050468E0,1.279950023E0,8.578778701E0
2.129300591E0,-7.230000496E-1,8.377950668E0,1.318050027E0,8.511759063E0
2.131262439E0,-8.380500674E-1,8.416950226E0,1.279950023E0,8.554861254E0
2.133224283E0,-8.380500674E-1,8.377950668E0,1.240950108E0,8.510719270E0
2.135185951E0,-7.620000243E-1,8.416950226E0,1.279950023E0,8.547746323E0
2.137147670E0,-7.999500632E-1,8.493000031E0,1.126049995E0,8.604589369E0
2.139109611E0,-8.380500674E-1,8.532000542E0,1.279950023E0,8.668081288E0
2.141071466E0,-9.529500604E-1,8.493000031E0,1.356000066E0,8.653201692E0
2.143033491E0,-9.919500351E-1,8.569950104E0,1.318050027E0,8.727271368E0
2.144995466E0,-1.068000078E0,8.532000542E0,1.318050027E0,8.699017949E0
2.146957066E0,-1.144950032E0,8.608050346E0,1.356000066E0,8.789094238E0
2.148918776E0,-1.144950032E0,8.685000420E0,1.356000066E0,8.864472858E0
2.150880465E0,-1.297950029E0,8.761950493E0,1.395000100E0,8.966742775E0
2.152842161E0,-1.336950064E0,8.838000298E0,1.318050027E0,9.035205621E0
2.154803717E0,-1.413000107E0,8.877000809E0,1.279950023E0,9.079426453E0
2.156765314E0,-1.452000022E0,8.914950371E0,1.318050027E0,9.128083044E0
2.158726842E0,-1.528050065E0,8.991000175E0,1.318050027E0,9.214677261E0
2.160688391E0,-1.567050099E0,9.067950249E0,1.279950023E0,9.290943966E0
2.162649943E0,-1.605000019E0,9.106050491E0,1.203000069E0,9.324343933E0
2.164611483E0,-1.681950092E0,9.145050049E0,1.318050027E0,9.391387138E0
2.166573155E0,-1.758000135E0,9.259950638E0,1.318050027E0,9.517063947E0
2.168534789E0,-1.834950089E0,9.336000443E0,1.318050027E0,9.605477706E0
2.170496492E0,-1.911000133E0,9.412950516E0,1.318050027E0,9.694989159E0
2.172458174E0,-1.911000133E0,9.451050758E0,1.356000066E0,9.737197652E0
2.174419882E0,-1.987950087E0,9.490050316E0,1.318050027E0,9.785205998E0
2.176381572E0,-2.065050125E0,9.528000832E0,1.279950023E0,9.832878720E0
2.178343625E0,-2.065050125E0,9.528000832E0,1.356000066E0,9.843067004E0
2.180305572E0,-2.103000164E0,9.565950394E0,1.240950108E0,9.872688276E0
2.182267447E0,-2.103000164E0,9.643050194E0,1.240950108E0,9.947410914E0
2.184229344E0,-2.140950203E0,9.681000710E0,1.240950108E0,9.992266994E0
2.186190820E0,-2.179949999E0,9.681000710E0,1.203000069E0,9.996057518E0
2.188152420E0,-2.218050003E0,9.681000710E0,1.240950108E0,1.000906977E1
2.190113948E0,-2.218050003E0,9.643050194E0,1.165050030E0,9.963207537E0
2.192075497E0,-2.256000042E0,9.643050194E0,1.126049995E0,9.967243441E0
2.194036673E0,-2.256000042E0,9.643050194E0,1.165050030E0,9.971724766E0
2.195997959E0,-2.410050154E0,9.720000267E0,1.050000072E0,1.006922276E1
2.197959670E0,-2.256000042E0,9.720000267E0,7.810500264E-1,1.000889507E1
2.199921260E0,-1.987950087E0,9.757950783E0,9.349500537E-1,1.000218379E1
2.201882610E0,-2.103000164E0,9.720000267E0,1.203000069E0,1.001739607E1
2.203844031E0,-2.218050003E0,9.835050583E0,1.165050030E0,1.014915304E1
2.205805409E0,-2.179949999E0,9.796050072E0,1.050000072E0,1.009045485E1
2.207766800E0,-2.140950203E0,9.796050072E0,8.959500194E-1,1.006722361E1
2.209728579E0,-2.140950203E0,9.720000267E0,8.200500607E-1,9.986718934E0
2.211690251E0,-2.218050003E0,9.681000710E0,7.429500222E-1,9.959593129E0
2.213651542E0,-2.140950203E0,9.643050194E0,7.050000429E-1,9.902984897E0
2.215612945E0,-2.026050091E0,9.604950905E0,6.280500293E-1,9.836381840E0
2.217574731E0,-2.026050091E0,9.490050316E0,5.899500251E-1,9.721829817E0
2.219536405E0,-1.987950087E0,9.451050758E0,5.509500504E-1,9.673564593E0
2.221497920E0,-2.026050091E0,9.412950516E0,5.130000114E-1,9.642182605E0
2.223459483E0,-1.987950087E0,9.375000000E0,5.130000114E-1,9.597173519E0
2.225421331E0,-2.065050125E0,9.412950516E0,2.830500007E-1,9.640963994E0
2.227383096E0,-1.950000048E0,9.412950516E0,3.220500052E-1,9.618204292E0
2.229344597E0,-1.950000048E0,9.336000443E0,5.130000114E-1,9.551260307E0
2.231306175E0,-1.950000048E0,9.336000443E0,5.899500251E-1,9.555702249E0
2.233268261E0,-1.911000133E0,9.298050880E0,4.360500276E-1,9.502410816E0
2.235230188E0,-1.911000133E0,9.259950638E0,3.600000143E-1,9.461934651E0
2.237192426E0,-1.873050094E0,9.183000565E0,3.220500052E-1,9.377608023E0
2.239154572E0,-1.911000133E0,9.067950249E0,2.830500007E-1,9.271448674E0
2.241116188E0,-1.911000133E0,8.991000175E0,2.830500007E-1,9.196201551E0
2.243077959E0,-1.873050094E0,9.030000687E0,1.300500035E-1,9.223130816E0
2.245039593E0,-1.758000135E0,9.030000687E0,1.680000126E-1,9.201070638E0
2.247001267E0,-1.720050097E0,9.030000687E0,1.300500035E-1,9.193280032E0
2.248963006E0,-1.681950092E0,8.991000175E0,9.195000678E-2,9.147431064E0
2.250924726E0,-1.642950058E0,8.991000175E0,1.680000126E-1,9.141421829E0
2.252886549E0,-1.681950092E0,8.991000175E0,2.070000172E-1,9.149310863E0
2.254848342E0,-1.642950058E0,8.953050613E0,2.070000172E-1,9.104902481E0
2.256810242E0,-1.642950058E0,8.800050735E0,1.680000126E-1,8.953680910E0
2.258772111E0,-1.681950092E0,8.800050735E0,1.300500035E-1,8.960288057E0
2.260733954E0,-1.681950092E0,8.761950493E0,9.195000678E-2,8.922398072E0
2.262695805E0,-1.642950058E0,8.685000420E0,9.195000678E-2,8.839511977E0
2.264657470E0,-1.681950092E0,8.647050858E0,1.300500035E-1,8.810071376E0
2.266619190E0,-1.681950092E0,8.608050346E0,1.300500035E-1,8.771795705E0
2.268580838E0,-1.720050097E0,8.569950104E0,1.300500035E-1,8.741826475E0
2.270542503E0,-1.758000135E0,8.608050346E0,1.300500035E-1,8.786694956E0
2.272504244E0,-1.720050097E0,8.532000542E0,1.680000126E-1,8.705275962E0
2.274465962E0,-1.758000135E0,8.532000542E0,1.680000126E-1,8.712853822E0
2.276427606E0,-1.834950089E0,8.532000542E0,9.195000678E-2,8.727572966E0
2.278389272E0,-1.795950055E0,8.493000031E0,-2.205000073E-2,8.680839379E0
2.280350952E0,-1.758000135E0,8.493000031E0,1.680000126E-1,8.674666449E0
2.282312639E0,-1.720050097E0,8.493000031E0,2.830500007E-1,8.670048394E0
2.284273433E0,-1.758000135E0,8.455050468E0,2.830500007E-1,8.640518515E0
2.286234488E0,-1.795950055E0,8.455050468E0,3.220500052E-1,8.649683880E0
2.288197009E0,-1.834950089E0,8.493000031E0,2.830500007E-1,8.693572836E0
2.290159101E0,-1.795950055E0,8.493000031E0,2.070000172E-1,8.683279054E0
2.292120873E0,-1.834950089E0,8.532000542E0,2.830500007E-1,8.731677524E0
2.294082762E0,-1.834950089E0,8.569950104E0,2.070000172E-1,8.766637646E0
2.296044285E0,-1.873050094E0,8.532000542E0,2.449500114E-1,8.738612613E0
2.298005916E0,-1.873050094E0,8.569950104E0,2.830500007E-1,8.776814840E0
2.299967798E0,-1.834950089E0,8.608050346E0,2.830500007E-1,8.806003060E0
2.301929607E0,-1.911000133E0,8.608050346E0,2.449500114E-1,8.821023341E0
2.303891405E0,-1.950000048E0,8.569950104E0,2.449500114E-1,8.792414087E0
2.305853214E0,-1.950000048E0,8.608050346E0,2.449500114E-1,8.829554432E0
2.307814931E0,-1.950000048E0,8.685000420E0,2.830500007E-1,8.905720059E0
2.309776675E0,-1.911000133E0,8.647050858E0,2.449500114E-1,8.859086327E0
2.311737592E0,-1.987950087E0,8.722949982E0,2.830500007E-1,8.951084808E0
2.313698752E0,-1.911000133E0,8.685000420E0,3.220500052E-1,8.898588090E0
2.315660364E0,-1.950000048E0,8.722949982E0,3.600000143E-1,8.945499236E0
2.317621869E0,-1.873050094E0,8.685000420E0,3.600000143E-1,8.891971039E0
2.319583909E0,-1.950000048E0,8.722949982E0,3.979500234E-1,8.947106839E0
2.321545792E0,-1.911000133E0,8.761950493E0,3.600000143E-1,8.975148910E0
2.323507498E0,-1.987950087E0,8.800050735E0,3.220500052E-1,9.027544223E0
2.325469256E0,-1.873050094E0,8.761950493E0,4.750500321E-1,8.972500522E0
2.327431073E0,-1.795950055E0,8.761950493E0,8.200500607E-1,8.981630985E0
2.329392903E0,-1.795950055E0,8.761950493E0,8.580000401E-1,8.985175408E0
2.331354708E0,-1.795950055E0,8.838000298E0,8.200500607E-1,9.055836127E0
2.333316521E0,-1.758000135E0,8.838000298E0,8.200500607E-1,9.048386367E0
2.335278552E0,-1.758000135E0,8.838000298E0,8.580000401E-1,9.051904651E0
2.337240519E0,-1.720050097E0,8.877000809E0,8.200500607E-1,9.079217907E0
2.339202359E0,-1.720050097E0,8.914950371E0,8.959500194E-1,9.123466385E0
2.341164227E0,-1.720050097E0,8.953050613E0,8.959500194E-1,9.160699431E0
2.343126294E0,-1.681950092E0,8.953050613E0,1.011000037E0,9.165598315E0
2.345088302E0,-1.681950092E0,8.991000175E0,9.730500579E-1,9.198579601E0
2.347050121E0,-1.681950092E0,8.991000175E0,1.050000072E0,9.207037548E0
2.349011996E0,-1.681950092E0,8.991000175E0,1.050000072E0,9.207037548E0
2.350973773E0,-1.642950058E0,8.991000175E0,1.087950110E0,9.204401365E0
2.352935593E0,-1.567050099E0,9.030000687E0,1.050000072E0,9.224915098E0
2.354897487E0,-1.528050065E0,9.067950249E0,1.087950110E0,9.259929490E0
2.356859360E0,-1.528050065E0,9.067950249E0,1.050000072E0,9.255547464E0
2.358820842E0,-1.489950061E0,9.030000687E0,1.050000072E0,9.212131335E0
2.360782439E0,-1.489950061E0,9.067950249E0,1.011000037E0,9.244987505E0
2.362744127E0,-1.452000022E0,9.067950249E0,1.050000072E0,9.243296270E0
2.364705802E0,-1.413000107E0,9.106050491E0,1.050000072E0,9.274654980E0
2.366667633E0,-1.375050068E0,9.067950249E0,1.050000072E0,9.231521248E0
2.368629418E0,-1.336950064E0,9.106050491E0,1.050000072E0,9.263373639E0
2.370591095E0,-1.336950064E0,9.106050491E0,1.050000072E0,9.263373639E0
2.372552804E0,-1.336950064E0,9.145050049E0,1.087950110E0,9.306073893E0
2.374514668E0,-1.336950064E0,9.106050491E0,1.087950110E0,9.267751964E0
2.376476490E0,-1.297950029E0,9.106050491E0,1.087950110E0,9.262206285E0
2.378438566E0,-1.375050068E0,9.106050491E0,1.126049995E0,9.277871891E0
2.380400567E0,-1.413000107E0,9.145050049E0,1.165050030E0,9.326620571E0
2.382362207E0,-1.375050068E0,9.220950127E0,1.203000069E0,9.400207077E0
2.384323953E0,-1.413000107E0,9.220950127E0,1.318050027E0,9.421239112E0
2.386285776E0,-1.489950061E0,9.220950127E0,1.356000066E0,9.438464314E0
2.388247572E0,-1.489950061E0,9.298050880E0,1.318050027E0,9.508467660E0
2.390209067E0,-1.567050099E0,9.375000000E0,1.395000100E0,9.606887961E0
2.392170651E0,-1.489950061E0,9.412950516E0,1.432950020E0,9.637267992E0
2.394132406E0,-1.528050065E0,9.451050758E0,1.432950020E0,9.680425776E0
2.396094110E0,-1.567050099E0,9.490050316E0,1.471050024E0,9.730400258E0
2.398055936E0,-1.605000019E0,9.565950394E0,1.432950020E0,9.804936397E0
2.400017726E0,-1.758000135E0,9.681000710E0,1.240950108E0,9.917272628E0
2.401979447E0,-1.795950055E0,9.757950783E0,1.318050027E0,1.000901074E1
2.403941189E0,-1.834950089E0,9.681000710E0,1.432950020E0,9.957015734E0
2.405903052E0,-1.950000048E0,9.757950783E0,1.510050058E0,1.006480774E1
2.407864879E0,-1.987950087E0,9.757950783E0,1.510050058E0,1.007222916E1
2.409826670E0,-2.140950203E0,9.757950783E0,1.471050024E0,1.009778488E1
2.411788482E0,-2.332950115E0,9.796050072E0,1.395000100E0,1.016618309E1
2.413750198E0,-2.448000193E0,9.796050072E0,1.279950023E0,1.017809285E1
2.415711943E0,-2.563050032E0,9.757950783E0,1.203000069E0,1.016041525E1
2.417673941E0,-2.755050182E0,9.796050072E0,1.165050030E0,1.024256999E1
2.419635864E0,-2.830950022E0,9.835050583E0,1.087950110E0,1.029204224E1
2.421597669E0,-2.908050060E0,9.873000145E0,1.165050030E0,1.035809966E1
2.423559530E0,-3.061050177E0,9.949950218E0,1.165050030E0,1.047515533E1
2.425521193E0,-3.214950085E0,9.949950218E0,1.165050030E0,1.052115749E1
2.427482914E0,-3.291000128E0,9.949950218E0,1.087950110E0,1.053640482E1
2.429444646E0,-3.291000128E0,1.006500053E1,1.011000037E0,1.063752973E1
2.431406374E0,-3.367950201E0,1.010295010E1,9.730500579E-1,1.069390086E1
2.433368031E0,-3.483000278E0,1.018005085E1,7.810500264E-1,1.078771363E1
2.435329699E0,-3.445050240E0,1.021800041E1,6.280500293E-1,1.080140502E1
2.437291394E0,-3.520950079E0,1.025595093E1,5.899500251E-1,1.085954234E1
2.439253081E0,-3.559950113E0,1.029495049E1,4.750500321E-1,1.090343629E1
2.441214999E0,-3.520950079E0,1.033305073E1,3.979500234E-1,1.092370775E1
2.443176850E0,-3.598050117E0,1.037100029E1,3.220500052E-1,1.098213676E1
2.445139032E0,-3.675000191E0,1.041000080E1,-2.205000073E-2,1.103966618E1
2.447101134E0,-3.520950079E0,1.037100029E1,5.295000225E-2,1.095251296E1
2.449062757E0,-3.445050240E0,1.044795036E1,2.070000172E-1,1.100322166E1
2.451024521E0,-3.367950201E0,1.052505016E1,2.449500114E-1,1.105349583E1
2.452986201E0,-3.214950085E0,1.052505016E1,1.300500035E-1,1.100588470E1
2.454947905E0,-3.214950085E0,1.060095024E1,-1.759500057E-1,1.107912490E1
2.456909886E0,-3.022950172E0,1.063995075E1,-1.369500011E-1,1.106189564E1
2.458871803E0,-2.830950022E0,1.071600056E1,1.500000060E-2,1.108364430E1
2.460833142E0,-2.716050148E0,1.079295063E1,1.500000060E-2,1.112946255E1
2.462794651E0,-2.601000071E0,1.079295063E1,-1.759500057E-1,1.110333027E1
2.464756373E0,-2.448000193E0,1.087005043E1,1.500000060E-2,1.114230346E1
2.466718033E0,-2.256000042E0,1.090800095E1,2.830500007E-1,1.114244758E1
2.468680407E0,-2.218050003E0,1.102305031E1,2.070000172E-1,1.124589849E1
2.470642572E0,-2.065050125E0,1.110000038E1,1.680000126E-1,1.129170778E1
2.472604545E0,-1.873050094E0,1.117605019E1,2.070000172E-1,1.133381063E1
2.474566574E0,-1.720050097E0,1.121400070E1,1.680000126E-1,1.134639185E1
2.476528389E0,-1.720050097E0,1.125300026E1,1.500000060E-2,1.138370819E1
2.478490266E0,-1.567050099E0,1.125300026E1,1.500000060E-2,1.136159698E1
2.480451424E0,-1.452000022E0,1.132905006E1,1.300500035E-1,1.142246000E1
2.482412766E0,-1.375050068E0,1.132905006E1,3.220500052E-1,1.141673571E1
2.484374337E0,-1.336950064E0,1.136805058E1,3.220500052E-1,1.145092684E1
2.486335841E0,-1.375050068E0,1.140600014E1,3.600000143E-1,1.149422472E1
2.488297565E0,-1.375050068E0,1.132905006E1,3.220500052E-1,1.141673571E1
2.490259225E0,-1.297950029E0,1.136805058E1,4.360500276E-1,1.145021344E1
2.492221090E0,-1.336950064E0,1.136805058E1,7.050000429E-1,1.146808765E1
2.494182904E0,-1.297950029E0,1.132905006E1,8.580000401E-1,1.143539303E1
2.496144801E0,-1.336950064E0,1.125300026E1,1.050000072E0,1.138068322E1
2.498106673E0,-1.375050068E0,1.125300026E1,1.240950108E0,1.140441733E1
2.500068471E0,-1.528050065E0,1.125300026E1,1.318050027E0,1.143250662E1
2.502030290E0,-1.528050065E0,1.117605019E1,1.471050024E0,1.137554495E1
2.503992725E0,-1.567050099E0,1.110000038E1,1.510050058E0,1.131131759E1
2.505954980E0,-1.758000135E0,1.113795090E1,1.510050058E0,1.137650060E1
2.507916937E0,-1.911000133E0,1.113795090E1,1.510050058E0,1.140114568E1
2.509878982E0,-2.103000164E0,1.110000038E1,1.548000097E0,1.140302251E1
2.511840749E0,-2.256000042E0,1.106100082E1,1.510050058E0,1.138927243E1
2.513802598E0,-2.524950027E0,1.110000038E1,1.471050024E0,1.147821281E1
2.515764452E0,-2.677950144E0,1.110000038E1,1.548000097E0,1.152292193E1
2.517726299E0,-2.640000105E0,1.106100082E1,1.701000094E0,1.149820599E1
2.519688145E0,-2.716050148E0,1.098495007E1,1.969950080E0,1.148593747E1
2.521649992E0,-2.869950056E0,1.102305031E1,2.238000154E0,1.160831151E1
2.523611702E0,-2.908050060E0,1.102305031E1,2.391000032E0,1.164823053E1
2.525573453E0,-2.908050060E0,1.094595051E1,2.430000067E0,1.158341435E1
2.527535441E0,-2.946000099E0,1.094595051E1,2.467950106E0,1.160101404E1
2.529497365E0,-2.985000134E0,1.090800095E1,2.506050110E0,1.158339318E1
2.531459559E0,-2.946000099E0,1.083105087E1,2.698050022E0,1.154426496E1
2.533421673E0,-2.908050060E0,1.079295063E1,2.965950251E0,1.156466166E1
2.535383655E0,-2.869950056E0,1.079295063E1,3.196050167E0,1.161633046E1
2.537345675E0,-2.946000099E0,1.075500011E1,3.310950041E0,1.163234001E1
2.539307180E0,-2.946000099E0,1.071600056E1,3.310950041E0,1.159629142E1
2.541268833E0,-2.908050060E0,1.071600056E1,3.310950041E0,1.158670847E1
2.543230711E0,-2.908050060E0,1.071600056E1,3.273000240E0,1.157592129E1
2.545192523E0,-2.793000221E0,1.067805004E1,3.388050079E0,1.154558298E1
2.547154375E0,-2.755050182E0,1.060095024E1,3.655950069E0,1.154713897E1
2.549116215E0,-2.640000105E0,1.052505016E1,3.771000147E0,1.148767703E1
2.551077888E0,-2.524950027E0,1.044795036E1,3.733050108E0,1.137851935E1
2.553039607E0,-2.448000193E0,1.037100029E1,3.694050074E0,1.127813628E1
2.555001429E0,-2.295000076E0,1.025595093E1,3.808950186E0,1.117853552E1
2.556963220E0,-2.103000164E0,1.010295010E1,3.733050108E0,1.097396343E1
2.558925076E0,-1.911000133E0,1.002600002E1,3.618000269E0,1.082878220E1
2.560886913E0,-1.834950089E0,9.949950218E0,3.655950069E0,1.075799805E1
2.562848631E0,-1.642950058E0,9.873000145E0,3.579000235E0,1.062942423E1
2.564810381E0,-1.567050099E0,9.835050583E0,3.618000269E0,1.059593280E1
2.566772198E0,-1.336950064E0,9.757950783E0,3.426000118E0,1.042796796E1
2.568733995E0,-1.106999993E0,9.681000710E0,3.273000240E0,1.027909307E1
2.570695895E0,-7.999500632E-1,9.528000832E0,3.426000118E0,1.015678083E1
2.572657764E0,-5.700000525E-1,9.375000000E0,3.733050108E0,1.010698710E1
2.574619597E0,-3.780000210E-1,9.259950638E0,4.039050102E0,1.010957445E1
2.576581448E0,-1.480500102E-1,9.145050049E0,4.308000088E0,1.011003086E1
2.578543113E0,-7.200000435E-2,9.030000687E0,4.498950005E0,1.008893689E1
2.580504833E0,4.200000316E-2,8.953050613E0,4.768050194E0,1.014362765E1
2.582466654E0,2.719500065E-1,8.800050735E0,4.959000111E0,1.010477767E1
2.584428446E0,4.260000288E-1,8.608050346E0,4.921050072E0,9.924552413E0
2.586390707E0,6.940500140E-1,8.455050468E0,4.806000233E0,9.750242155E0
2.588352831E0,9.240000248E-1,8.302050591E0,4.614000320E0,9.542893639E0
2.590314090E0,1.114950061E0,8.110050201E0,4.423050404E0,9.304805360E0
2.592275602E0,1.306950092E0,7.957050323E0,4.153950214E0,9.070726034E0
2.594237324E0,1.345050097E0,7.803000450E0,4.000950336E0,8.871503784E0
2.596198985E0,1.537050128E0,7.726950169E0,3.808950186E0,8.750793308E0
2.598161008E0,1.729050040E0,7.612050533E0,3.655950069E0,8.619680868E0
2.600122918E0,1.804950118E0,7.420050144E0,3.579000235E0,8.433518349E0
2.602084574E0,2.035050154E0,7.342950344E0,3.463950157E0,8.370143343E0
2.604046304E0,2.188950062E0,7.228050232E0,3.196050167E0,8.200667607E0
2.606008034E0,2.111999989E0,6.997950554E0,2.583000183E0,7.752660566E0
2.607969764E0,2.457000017E0,6.997950554E0,2.545050144E0,7.841265285E0
2.609931760E0,2.725050211E0,6.922050476E0,2.620950222E0,7.887335514E0
2.611893682E0,2.839950085E0,6.883050442E0,2.506050110E0,7.856334197E0
2.613855381E0,3.070050240E0,6.844950199E0,2.467950106E0,7.897425494E0
2.615817146E0,3.223050117E0,6.807000160E0,2.353049994E0,7.890509965E0
2.617778960E0,3.262050152E0,6.844950199E0,2.161050081E0,7.884443663E0
2.619740759E0,3.300000191E0,6.883050442E0,2.046000004E0,7.902689457E0
2.621702765E0,3.337950230E0,6.997950554E0,1.893000126E0,7.981019557E0
2.623664730E0,3.262050152E0,7.152000427E0,1.663050056E0,8.034787912E0
2.625626736E0,3.223050117E0,7.305000305E0,1.548000097E0,8.133104316E0
2.627588730E0,3.108000040E0,7.497000217E0,1.432950020E0,8.241239122E0
2.629550912E0,2.992950201E0,7.726950169E0,1.356000066E0,8.396561558E0
2.631513038E0,2.839950085E0,7.918050289E0,1.356000066E0,8.520538307E0
2.633475041E0,2.686950207E0,8.187000275E0,1.395000100E0,8.728843004E0
2.635437064E0,2.533950090E0,8.302050591E0,1.240950108E0,8.768403745E0
2.637398744E0,2.304000139E0,8.569950104E0,1.279950023E0,8.966087970E0
2.639360525E0,2.149950027E0,8.838000298E0,1.318050027E0,9.190744815E0
2.641322382E0,1.920000076E0,9.067950249E0,1.356000066E0,9.367649555E0
2.643284216E0,1.651950121E0,9.259950638E0,1.395000100E0,9.509029935E0
2.645245680E0,1.498950124E0,9.490050316E0,1.432950020E0,9.713972011E0
2.647207238E0,1.345050097E0,9.681000710E0,1.432950020E0,9.878475604E0
2.649168997E0,1.153950095E0,9.910950661E0,1.471050024E0,1.008575887E1
2.651130697E0,1.000050068E0,1.010295010E1,1.471050024E0,1.025834728E1
2.653092389E0,7.699500322E-1,1.029495049E1,1.510050058E0,1.043355547E1
2.655054084E0,6.550500393E-1,1.052505016E1,1.510050058E0,1.065298187E1
2.657014854E0,4.639500082E-1,1.071600056E1,1.471050024E0,1.082644474E1
2.658975910E0,2.719500065E-1,1.090800095E1,1.510050058E0,1.101538436E1
2.660938026E0,1.189500093E-1,1.110000038E1,1.548000097E0,1.120805344E1
2.662899831E0,4.200000316E-2,1.132905006E1,1.548000097E0,1.143439739E1
2.664861370E0,-1.870500147E-1,1.159800053E1,1.624950051E0,1.171277365E1
2.666822987E0,-3.780000210E-1,1.178895092E1,1.548000097E0,1.189615703E1
2.668784866E0,-5.700000525E-1,1.194300079E1,1.510050058E0,1.205157331E1
2.670746672E0,-7.230000496E-1,1.221105099E1,1.471050024E0,1.232057156E1
2.672708301E0,-7.999500632E-1,1.240305042E1,1.471050024E0,1.251557302E1
2.674669982E0,-9.150000215E-1,1.263300037E1,1.318050027E0,1.273448779E1
2.676631675E0,-1.106999993E0,1.278600025E1,1.279950023E0,1.289750067E1
2.678593365E0,-1.260000110E0,1.297800064E1,1.126049995E0,1.308755476E1
2.680554938E0,-1.413000107E0,1.313100052E1,9.730500579E-1,1.324260436E1
2.682516535E0,-1.605000019E0,1.320795059E1,7.429500222E-1,1.332583801E1
2.684478558E0,-1.681950092E0,1.328400040E1,5.899500251E-1,1.340304681E1
2.686440456E0,-1.834950089E0,1.332300091E1,3.979500234E-1,1.345465567E1
2.688402159E0,-1.987950087E0,1.336095047E1,3.979500234E-1,1.351389312E1
2.690363920E0,-2.256000042E0,1.336095047E1,4.360500276E-1,1.355708941E1
2.692325571E0,-2.524950027E0,1.332300091E1,5.130000114E-1,1.356985243E1
2.694287243E0,-2.869950056E0,1.324605083E1,5.899500251E-1,1.356622708E1
2.696249478E0,-2.985000134E0,1.309305096E1,5.130000114E-1,1.343880122E1
2.698211548E0,-3.061050177E0,1.282395077E1,2.830500007E-1,1.318726123E1
2.700173537E0,-3.138000250E0,1.259400082E1,1.680000126E-1,1.298014353E1
2.702135550E0,-3.175950050E0,1.240305042E1,2.070000172E-1,1.280488842E1
2.704097038E0,-3.253050089E0,1.205805016E1,1.300500035E-1,1.248982872E1
2.706058690E0,-3.330000162E0,1.178895092E1,5.295000225E-2,1.225034973E1
2.708020388E0,-3.367950201E0,1.152105045E1,-2.205000073E-2,1.200325699E1
2.709982073E0,-3.367950201E0,1.125300026E1,-1.369500011E-1,1.174699360E1
2.711943767E0,-3.367950201E0,1.098495007E1,1.500000060E-2,1.148966673E1
2.713905458E0,-3.406050205E0,1.071600056E1,9.195000678E-2,1.124465654E1
2.715867281E0,-3.406050205E0,1.052505016E1,5.295000225E-2,1.106257938E1
2.717829068E0,-3.367950201E0,1.033305073E1,9.195000678E-2,1.086846267E1
2.719790610E0,-3.406050205E0,1.010295010E1,9.195000678E-2,1.066204640E1
2.721752224E0,-3.367950201E0,9.910950661E0,9.195000678E-2,1.046797432E1
2.723714064E0,-3.406050205E0,9.796050072E0,-2.205000073E-2,1.037131916E1
2.725675837E0,-3.330000162E0,9.604950905E0,-2.205000073E-2,1.016584818E1
2.727637557E0,-3.214950085E0,9.490050316E0,1.500000060E-2,1.001983952E1
2.729599296E0,-3.214950085E0,9.375000000E0,1.500000060E-2,9.910941128E0
2.731560935E0,-3.253050089E0,9.259950638E0,1.500000060E-2,9.814746339E0
2.733522603E0,-3.253050089E0,9.259950638E0,5.295000225E-2,9.814877707E0
2.735484299E0,-3.291000128E0,9.220950127E0,1.500000060E-2,9.790650034E0
2.737445986E0,-3.291000128E0,9.220950127E0,-2.205000073E-2,9.790663373E0
2.739407739E0,-3.291000128E0,9.259950638E0,1.500000060E-2,9.827389921E0
2.741369462E0,-3.214950085E0,9.259950638E0,-1.369500011E-1,9.803129356E0
2.743331150E0,-3.138000250E0,9.259950638E0,-1.369500011E-1,9.778163769E0
2.745292848E0,-3.100050211E0,9.298050880E0,-1.759500057E-1,9.802806735E0
2.747254539E0,-3.061050177E0,9.375000000E0,-2.520000041E-1,9.865300664E0
2.749216233E0,-2.908050060E0,9.375000000E0,-3.670500219E-1,9.822530523E0
2.751178045E0,-2.908050060E0,9.375000000E0,-4.060500264E-1,9.824065186E0
2.753139832E0,-2.793000221E0,9.412950516E0,-4.440000355E-1,9.828612500E0
2.755101374E0,-2.755050182E0,9.490050316E0,-4.819500148E-1,9.893615735E0
2.757062988E0,-2.677950144E0,9.565950394E0,-5.209500194E-1,9.947372157E0
2.759024333E0,-2.601000071E0,9.643050194E0,-5.590500236E-1,1.000330722E1
2.760985757E0,-2.563050032E0,9.681000710E0,-5.970000029E-1,1.003231824E1
2.762947080E0,-2.371050119E0,9.681000710E0,-6.360000372E-1,9.987399534E0
2.764908440E0,-2.295000076E0,9.757950783E0,-6.360000372E-1,1.004435786E1
2.766869873E0,-2.179949999E0,9.720000267E0,-6.360000372E-1,9.981737486E0
2.768831284E0,-2.140950203E0,9.643050194E0,-5.590500236E-1,9.893665738E0
2.770793024E0,-2.103000164E0,9.681000710E0,-6.360000372E-1,9.927178878E0
2.772754668E0,-1.987950087E0,9.604950905E0,-5.590500236E-1,9.824437101E0
2.774716156E0,-1.911000133E0,9.528000832E0,-5.209500194E-1,9.731706442E0
2.776677714E0,-1.911000133E0,9.412950516E0,-5.590500236E-1,9.621231514E0
2.778639204E0,-1.834950089E0,9.298050880E0,-5.209500194E-1,9.491690099E0
2.780600714E0,-1.720050097E0,9.259950638E0,-5.209500194E-1,9.432743348E0
2.782562256E0,-1.720050097E0,9.106050491E0,-5.209500194E-1,9.281708722E0
2.784523789E0,-1.567050099E0,8.991000175E0,-5.590500236E-1,9.143646269E0
2.786485121E0,-1.528050065E0,8.877000809E0,-5.590500236E-1,9.024888769E0
2.788446532E0,-1.489950061E0,8.800050735E0,-5.590500236E-1,8.942783742E0
2.790408136E0,-1.413000107E0,8.722949982E0,-5.590500236E-1,8.854318868E0
2.792369683E0,-1.375050068E0,8.647050858E0,-5.970000029E-1,8.776027588E0
2.794331536E0,-1.375050068E0,8.608050346E0,-6.739500165E-1,8.743197475E0
2.796293299E0,-1.413000107E0,8.532000542E0,-6.739500165E-1,8.674434343E0
2.798254833E0,-1.375050068E0,8.416950226E0,-5.970000029E-1,8.549398973E0
2.800216411E0,-1.452000022E0,8.416950226E0,-5.590500236E-1,8.559549760E0
2.802177807E0,-1.489950061E0,8.377950668E0,-5.209500194E-1,8.525338557E0
2.804139257E0,-1.567050099E0,8.377950668E0,-6.360000372E-1,8.546940942E0
2.806100990E0,-1.528050065E0,8.377950668E0,-8.659500480E-1,8.560073825E0
2.808062640E0,-1.375050068E0,8.340000153E0,-1.018950105E0,8.513790258E0
2.810024490E0,-1.375050068E0,8.110050201E0,-1.171950102E0,8.308859368E0
2.811986270E0,-1.413000107E0,7.995000362E0,-1.057050109E0,8.187426643E0
2.813948173E0,-1.375050068E0,7.879950523E0,-9.040500522E-1,8.049949654E0
2.815910039E0,-1.528050065E0,7.879950523E0,-8.269500136E-1,8.069225711E0
2.817871703E0,-1.567050099E0,7.803000450E0,-8.659500480E-1,8.005768640E0
2.819833426E0,-1.681950092E0,7.765050411E0,-8.659500480E-1,7.992173264E0
2.821795103E0,-1.758000135E0,7.765050411E0,-9.420000315E-1,8.017102745E0
2.823756800E0,-1.795950055E0,7.765050411E0,-9.420000315E-1,8.025509862E0
2.825718266E0,-1.873050094E0,7.803000450E0,-1.018950105E0,8.089090925E0
2.827679800E0,-1.873050094E0,7.803000450E0,-1.134000063E0,8.104387011E0
2.829641519E0,-1.834950089E0,7.765050411E0,-1.096050024E0,8.053842274E0
2.831603183E0,-1.911000133E0,7.803000450E0,-1.096050024E0,8.108024617E0
2.833564547E0,-1.911000133E0,7.726950169E0,-1.134000063E0,8.040126651E0
2.835526012E0,-1.987950087E0,7.687950134E0,-1.210950017E0,8.032616184E0
2.837487383E0,-1.987950087E0,7.687950134E0,-1.210950017E0,8.032616184E0
2.839448781E0,-2.026050091E0,7.765050411E0,-1.210950017E0,8.115866362E0
2.841410478E0,-2.103000164E0,7.765050411E0,-1.210950017E0,8.135417477E0
2.843372087E0,-2.179949999E0,7.765050411E0,-1.171950102E0,8.149948278E0
2.845333249E0,-2.256000042E0,7.803000450E0,-1.210950017E0,8.212353631E0
2.847294546E0,-2.332950115E0,7.765050411E0,-1.326000094E0,8.215652158E0
2.849256125E0,-2.295000076E0,7.803000450E0,-1.249050021E0,8.228849697E0
2.851217621E0,-2.332950115E0,7.803000450E0,-1.171950102E0,8.228179586E0
2.853178807E0,-2.371050119E0,7.803000450E0,-1.210950017E0,8.244701004E0
2.855140084E0,-2.410050154E0,7.765050411E0,-1.210950017E0,8.220142917E0
2.857101486E0,-2.485950232E0,7.765050411E0,-1.210950017E0,8.242715353E0
2.859062851E0,-2.524950027E0,7.726950169E0,-1.210950017E0,8.218730528E0
2.861024285E0,-2.524950027E0,7.726950169E0,-1.171950102E0,8.213074856E0
2.862985698E0,-2.524950027E0,7.650000572E0,-1.249050021E0,8.152178074E0
2.864947393E0,-2.524950027E0,7.687950134E0,-1.249050021E0,8.187800429E0
2.866909005E0,-2.563050032E0,7.650000572E0,-1.171950102E0,8.152619288E0
2.868870546E0,-2.601000071E0,7.573050499E0,-1.210950017E0,8.098314341E0
2.870832098E0,-2.563050032E0,7.534950256E0,-1.249050021E0,8.056353194E0
2.872793678E0,-2.563050032E0,7.534950256E0,-1.249050021E0,8.056353194E0
2.874755250E0,-2.563050032E0,7.458000183E0,-1.326000094E0,7.996828649E0
2.876716784E0,-2.563050032E0,7.381950378E0,-1.326000094E0,7.925950612E0
2.878678329E0,-2.524950027E0,7.305000305E0,-1.210950017E0,7.823349797E0
2.880639671E0,-2.524950027E0,7.305000305E0,-1.210950017E0,7.823349797E0
2.882601083E0,-2.524950027E0,7.228050232E0,-1.210950017E0,7.751547119E0
2.884562283E0,-2.524950027E0,7.152000427E0,-1.249050021E0,7.686781427E0
2.886523545E0,-2.485950232E0,7.113000393E0,-1.287000060E0,7.644023306E0
2.888485085E0,-2.524950027E0,7.036950111E0,-1.287000060E0,7.586198565E0
2.890446543E0,-2.371050119E0,6.997950554E0,-1.171950102E0,7.481086663E0
2.892408133E0,-2.448000193E0,6.922050476E0,-1.057050109E0,7.417873190E0
2.894369658E0,-2.410050154E0,6.883050442E0,-1.363950014E0,7.419237479E0
2.896330839E0,-2.371050119E0,6.691950321E0,-1.671000123E0,7.293580683E0
2.898292121E0,-2.295000076E0,6.768000126E0,-1.441050053E0,7.290368736E0
2.900253343E0,-2.332950115E0,6.844950199E0,-1.249050021E0,7.338673274E0
2.902214583E0,-2.256000042E0,6.883050442E0,-1.249050021E0,7.350241188E0
2.904176120E0,-2.103000164E0,6.922050476E0,-1.363950014E0,7.361912260E0
2.906137606E0,-2.103000164E0,6.997950554E0,-1.326000094E0,7.426452578E0
2.908098839E0,-1.950000048E0,7.036950111E0,-1.326000094E0,7.421552621E0
2.910060146E0,-1.911000133E0,7.113000393E0,-1.363950014E0,7.490464321E0
2.912021904E0,-1.834950089E0,7.189950466E0,-1.287000060E0,7.531188398E0
2.913983529E0,-1.873050094E0,7.189950466E0,-1.287000060E0,7.540561883E0
2.915945013E0,-1.911000133E0,7.267050266E0,-1.134000063E0,7.599203723E0
2.917906535E0,-1.873050094E0,7.342950344E0,-1.171950102E0,7.668161673E0
2.919868075E0,-1.873050094E0,7.342950344E0,-1.134000063E0,7.662453429E0
2.921829610E0,-1.834950089E0,7.381950378E0,-1.057050109E0,7.679686722E0
2.923791374E0,-1.873050094E0,7.458000183E0,-1.057050109E0,7.761922334E0
2.925753071E0,-1.873050094E0,7.497000217E0,-1.018950105E0,7.794330518E0
2.927714574E0,-1.873050094E0,7.573050499E0,-1.018950105E0,7.867507218E0
2.929676141E0,-1.911000133E0,7.534950256E0,-1.018950105E0,7.840003583E0
2.931637675E0,-1.834950089E0,7.612050533E0,-1.018950105E0,7.896113884E0
2.933599218E0,-1.911000133E0,7.573050499E0,-9.810000658E-1,7.871808972E0
2.935560711E0,-1.911000133E0,7.650000572E0,-9.810000658E-1,7.945866308E0
2.937522218E0,-1.911000133E0,7.573050499E0,-1.057050109E0,7.881647689E0
2.939483780E0,-1.873050094E0,7.612050533E0,-1.134000063E0,7.920706163E0
2.941445312E0,-1.873050094E0,7.650000572E0,-1.096050024E0,7.951864628E0
2.943406897E0,-1.950000048E0,7.687950134E0,-1.057050109E0,8.001526878E0
2.945368466E0,-1.950000048E0,7.726950169E0,-1.134000063E0,8.049485402E0
2.947330180E0,-1.950000048E0,7.803000450E0,-1.134000063E0,8.122516381E0
2.949291851E0,-1.950000048E0,7.842000484E0,-1.096050024E0,8.154802109E0
2.951253503E0,-1.950000048E0,7.879950523E0,-1.057050109E0,8.186175870E0
2.953215160E0,-1.911000133E0,7.918050289E0,-1.134000063E0,8.223952701E0
2.955176678E0,-1.911000133E0,7.957050323E0,-1.096050024E0,8.256385227E0
2.957138237E0,-1.911000133E0,7.995000362E0,-1.134000063E0,8.298066549E0
2.959099772E0,-1.911000133E0,8.071949959E0,-1.210950017E0,8.383000512E0
2.961061314E0,-1.873050094E0,8.110050201E0,-1.326000094E0,8.428493767E0
2.963022915E0,-1.834950089E0,8.148000717E0,-1.326000094E0,8.456668006E0
2.964984485E0,-1.834950089E0,8.224950790E0,-1.363950014E0,8.536815388E0
2.966945794E0,-1.834950089E0,8.302050591E0,-1.402050018E0,8.617240283E0
2.968907179E0,-1.950000048E0,8.340000153E0,-1.326000094E0,8.666970577E0
2.970868743E0,-1.911000133E0,8.493000031E0,-1.441050053E0,8.823808491E0
2.972830254E0,-1.911000133E0,8.532000542E0,-1.479000092E0,8.867603736E0
2.974791797E0,-1.950000048E0,8.608050346E0,-1.516950130E0,8.955566350E0
2.976753331E0,-1.987950087E0,8.722949982E0,-1.632000089E0,9.094241377E0
2.978714736E0,-2.026050091E0,8.761950493E0,-1.671000123E0,9.147070396E0
2.980676179E0,-2.026050091E0,8.838000298E0,-1.671000123E0,9.219944124E0
2.982637688E0,-2.026050091E0,8.877000809E0,-1.708950043E0,9.264261038E0
2.984599177E0,-2.026050091E0,8.991000175E0,-1.708950043E0,9.373551801E0
2.986560556E0,-2.065050125E0,9.067950249E0,-1.786050081E0,9.470064869E0
2.988521992E0,-2.103000164E0,9.145050049E0,-1.824000120E0,9.559368521E0
2.990483682E0,-2.103000164E0,9.183000565E0,-1.900950074E0,9.610604572E0
2.992445297E0,-2.026050091E0,9.298050880E0,-1.939050078E0,9.711773492E0
2.994407003E0,-2.026050091E0,9.375000000E0,-1.977000117E0,9.793060473E0
2.996368682E0,-1.987950087E0,9.375000000E0,-2.092050076E0,9.809140842E0
2.998330377E0,-1.987950087E0,9.490050316E0,-2.053950071E0,9.911191222E0
3.000292067E0,-1.950000048E0,9.643050194E0,-1.900950074E0,1.002020601E1
3.002253445E0,-1.987950087E0,9.681000710E0,-1.900950074E0,1.006416074E1
3.004214915E0,-1.987950087E0,9.835050583E0,-1.824000120E0,1.019838918E1
3.006176644E0,-1.950000048E0,9.873000145E0,-1.861950040E0,1.023452441E1
3.008138297E0,-2.026050091E0,9.988050461E0,-1.900950074E0,1.036723889E1
3.010099642E0,-2.026050091E0,1.002600002E1,-1.977000117E0,1.041796933E1
3.012061074E0,-2.065050125E0,1.006500053E1,-1.939050078E0,1.045603094E1
3.014022629E0,-2.065050125E0,1.006500053E1,-1.977000117E0,1.046313515E1
3.015984148E0,-2.218050003E0,1.006500053E1,-2.130000114E0,1.052429960E1
3.017946186E0,-2.295000076E0,9.949950218E0,-2.169000149E0,1.043901798E1
3.019908072E0,-2.332950115E0,9.949950218E0,-2.130000114E0,1.043939970E1
3.021869746E0,-2.448000193E0,9.835050583E0,-2.092050076E0,1.034879696E1
3.023831472E0,-2.563050032E0,9.757950783E0,-2.053950071E0,1.029589918E1
3.025793338E0,-2.677950144E0,9.720000267E0,-1.900950074E0,1.025979694E1
3.027755162E0,-2.869950056E0,9.565950394E0,-1.861950040E0,1.015927548E1
3.029716833E0,-2.985000134E0,9.451050758E0,-1.824000120E0,1.007767645E1
3.031678549E0,-3.100050211E0,9.336000443E0,-1.708950043E0,9.984574394E0
3.033640271E0,-3.214950085E0,9.259950638E0,-1.555950046E0,9.924896493E0
3.035601968E0,-3.367950201E0,9.183000565E0,-1.516950130E0,9.898066762E0
3.037563524E0,-3.520950079E0,9.106050491E0,-1.441050053E0,9.868833278E0
3.039525122E0,-3.636000156E0,9.067950249E0,-1.402050018E0,9.869851220E0
3.041486605E0,-3.751050234E0,8.991000175E0,-1.249050021E0,9.821842392E0
3.043448122E0,-3.865950108E0,8.877000809E0,-1.249050021E0,9.762522192E0
3.045409663E0,-3.981000185E0,8.877000809E0,-1.287000060E0,9.813555675E0
3.047371197E0,-4.096050262E0,8.838000298E0,-1.363950014E0,9.836068150E0
3.049332781E0,-4.134000301E0,8.838000298E0,-1.441050053E0,9.862901855E0
3.051294350E0,-4.249050140E0,8.800050735E0,-1.479000092E0,9.883458975E0
3.053256019E0,-4.363950253E0,8.877000809E0,-1.555950046E0,1.001330044E1
3.055217658E0,-4.479000092E0,8.914950371E0,-1.977000117E0,1.017085598E1
3.057179215E0,-4.326000214E0,8.914950371E0,-1.671000123E0,1.004902281E1
3.059140804E0,-4.326000214E0,8.991000175E0,-1.479000092E0,1.008661506E1
3.061102334E0,-4.326000214E0,8.991000175E0,-1.516950130E0,1.009224949E1
3.063063881E0,-4.402950287E0,8.991000175E0,-1.671000123E0,1.014969442E1
3.065025552E0,-4.326000214E0,9.067950249E0,-1.747050047E0,1.019775384E1
3.066987187E0,-4.363950253E0,9.030000687E0,-1.939050078E0,1.021493463E1
3.068948885E0,-4.326000214E0,9.030000687E0,-1.977000117E0,1.020606289E1
3.070910567E0,-4.288050175E0,9.067950249E0,-2.092050076E0,1.024654915E1
3.072871902E0,-4.210950375E0,9.030000687E0,-2.169000149E0,1.019693959E1
3.074833338E0,-4.173000336E0,9.067950249E0,-2.245050192E0,1.023141749E1
3.076794938E0,-4.173000336E0,9.067950249E0,-2.245050192E0,1.023141749E1
3.078756490E0,-4.134000301E0,9.030000687E0,-2.322000027E0,1.019914482E1
3.080717943E0,-4.096050262E0,8.991000175E0,-2.398950100E0,1.016713694E1
3.082679453E0,-4.057950020E0,8.991000175E0,-2.475000143E0,1.017008693E1
3.084640681E0,-4.018949986E0,8.953050613E0,-2.514000177E0,1.013061060E1
3.086601992E0,-3.981000185E0,8.953050613E0,-2.629050016E0,1.014482044E1
3.088563568E0,-3.981000185E0,8.953050613E0,-2.667000055E0,1.015472142E1
3.090525067E0,-3.981000185E0,9.030000687E0,-2.743950129E0,1.024297502E1
3.092486665E0,-3.943050146E0,9.067950249E0,-2.704950094E0,1.025144483E1
3.094448197E0,-3.943050146E0,9.030000687E0,-2.743950129E0,1.022828525E1
3.096409557E0,-3.981000185E0,9.067950249E0,-2.743950129E0,1.027644620E1
3.098370968E0,-3.943050146E0,9.067950249E0,-2.704950094E0,1.025144483E1
3.100332482E0,-4.057950020E0,9.145050049E0,-2.667000055E0,1.035431253E1
3.102293966E0,-4.096050262E0,9.183000565E0,-2.629050016E0,1.039312422E1
3.104255380E0,-4.096050262E0,9.259950638E0,-2.437050104E0,1.041458241E1
3.106216814E0,-4.134000301E0,9.336000443E0,-2.398950100E0,1.048836614E1
3.108178324E0,-4.173000336E0,9.451050758E0,-2.322000027E0,1.058904983E1
3.110139812E0,-4.249050140E0,9.490050316E0,-2.206950188E0,1.062949252E1
3.112101359E0,-4.633050442E0,9.565950394E0,-3.012000084E0,1.104738466E1
3.114062889E0,-4.210950375E0,9.643050194E0,-2.169000149E0,1.074360655E1
3.116024245E0,-4.210950375E0,9.720000267E0,-1.363950014E0,1.068039643E1
3.117985655E0,-4.288050175E0,9.835050583E0,-1.210950017E0,1.079731421E1
3.119947214E0,-4.326000214E0,9.835050583E0,-1.326000094E0,1.082593063E1
3.121908730E0,-4.363950253E0,9.910950661E0,-1.402050018E0,1.091955810E1
3.123869958E0,-4.326000214E0,9.949950218E0,-1.594050050E0,1.096616536E1
3.125831271E0,-4.288050175E0,9.988050461E0,-1.708950043E0,1.100313758E1
3.127792977E0,-4.249050140E0,1.002600002E1,-1.671000123E0,1.101668484E1
3.129754571E0,-4.210950375E0,9.988050461E0,-1.747050047E0,1.097931869E1
3.131716146E0,-4.134000301E0,1.010295010E1,-1.516950130E0,1.102092087E1
3.133677727E0,-4.057950020E0,1.002600002E1,-1.555950046E0,1.092742492E1
3.135639213E0,-4.018949986E0,1.010295010E1,-1.441050053E0,1.096805292E1
3.137600727E0,-4.134000301E0,1.002600002E1,-1.786050081E0,1.099093307E1
3.139562163E0,-3.904950142E0,1.006500053E1,-1.516950130E0,1.090201858E1
3.141523602E0,-3.598050117E0,1.010295010E1,-6.360000372E-1,1.074337290E1
3.143485111E0,-3.636000156E0,1.014105034E1,-1.369500011E-1,1.077405005E1
3.145446600E0,-3.598050117E0,1.025595093E1,1.680000126E-1,1.087008363E1
3.147408192E0,-3.712950230E0,1.029495049E1,-1.369500011E-1,1.094489654E1
3.149369754E0,-3.636000156E0,1.041000080E1,-1.759500057E-1,1.102812641E1
3.151331273E0,-3.790050268E0,1.041000080E1,-5.590500236E-1,1.109257115E1
3.153292785E0,-3.598050117E0,1.044795036E1,-4.440000355E-1,1.105905816E1
3.155253472E0,-3.406050205E0,1.056300068E1,2.070000172E-1,1.110049595E1
3.157214401E0,-3.367950201E0,1.067805004E1,4.750500321E-1,1.120667273E1
3.159175998E0,-3.483000278E0,1.079295063E1,5.509500504E-1,1.135440973E1
3.161137399E0,-3.214950085E0,1.090800095E1,6.280500293E-1,1.138924210E1
3.163099215E0,-3.022950172E0,1.110000038E1,1.087950110E0,1.155559915E1
3.165060889E0,-2.985000134E0,1.129095078E1,1.087950110E0,1.172942584E1
3.167022405E0,-2.985000134E0,1.136805058E1,8.200500607E-1,1.178198972E1
3.168983968E0,-2.908050060E0,1.159800053E1,5.509500504E-1,1.196970832E1
3.170945682E0,-2.716050148E0,1.190400028E1,1.087950110E0,1.225829460E1
3.172907351E0,-2.716050148E0,1.205805016E1,1.050000072E0,1.240467662E1
3.174869187E0,-2.677950144E0,1.228800011E1,1.050000072E0,1.262017685E1
3.176830971E0,-2.410050154E0,1.251795101E1,1.203000069E0,1.280447767E1
3.178792514E0,-2.256000042E0,1.286295033E1,1.510050058E0,1.314630284E1
3.180754127E0,-2.295000076E0,1.309305096E1,1.548000097E0,1.338250025E1
3.182715292E0,-2.065050125E0,1.336095047E1,1.624950051E0,1.361689730E1
3.184676589E0,-1.911000133E0,1.362900066E1,1.893000126E0,1.389190520E1
3.186638475E0,-1.795950055E0,1.378200054E1,1.816050053E0,1.401666912E1
3.188600226E0,-1.605000019E0,1.401195049E1,2.046000004E0,1.425120689E1
3.190562043E0,-1.489950061E0,1.412700081E1,2.122950077E0,1.436311317E1
3.192523841E0,-1.222050071E0,1.428105068E1,2.275950193E0,1.451281379E1
3.194485562E0,-1.106999993E0,1.443405056E1,2.506050110E0,1.469175115E1
3.196447305E0,-9.529500604E-1,1.451100063E1,2.583000183E0,1.476987282E1
3.198409307E0,-7.230000496E-1,1.458705044E1,2.736000061E0,1.485901968E1
3.200371230E0,-4.930500090E-1,1.454895115E1,2.773950100E0,1.481924010E1
3.202332929E0,-1.480500102E-1,1.451100063E1,2.851050138E0,1.478916986E1
3.204294693E0,1.189500093E-1,1.451100063E1,2.928000212E0,1.480393440E1
3.206257229E0,3.490500152E-1,1.439595032E1,2.965950251E0,1.470245158E1
3.208219538E0,6.169500351E-1,1.431900024E1,2.965950251E0,1.463595765E1
3.210181522E0,8.470500112E-1,1.412700081E1,2.851050138E0,1.443669396E1
3.212143608E0,1.000050068E0,1.385895061E1,2.736000061E0,1.416179045E1
3.214105232E0,1.153950095E0,1.351395035E1,2.620950222E0,1.381404484E1
3.216066992E0,1.269000053E0,1.324605083E1,2.506050110E0,1.354062447E1
3.218028492E0,1.345050097E0,1.278600025E1,2.430000067E0,1.308418368E1
3.219990069E0,1.384050012E0,1.244100094E1,2.506050110E0,1.276614217E1
3.221951725E0,1.459950089E0,1.201905060E1,2.659050226E0,1.239595013E1
3.223913365E0,1.459950089E0,1.171305084E1,2.545050144E0,1.207494491E1
3.225875066E0,1.422000051E0,1.140600014E1,2.583000183E0,1.178095129E1
3.227836749E0,1.498950124E0,1.094595051E1,2.620950222E0,1.135473752E1
3.229798129E0,1.459950089E0,1.060095024E1,2.430000067E0,1.097344525E1
3.231759598E0,1.498950124E0,1.029495049E1,2.353049994E0,1.066628807E1
3.233721308E0,1.498950124E0,9.910950661E0,2.238000154E0,1.027046441E1
3.235682961E0,1.384050012E0,9.643050194E0,2.200050116E0,9.987203412E0
3.237644796E0,1.345050097E0,9.412950516E0,2.238000154E0,9.768389932E0
3.239606577E0,1.306950092E0,9.145050049E0,2.200050116E0,9.496329788E0
3.241568300E0,1.269000053E0,8.838000298E0,2.161050081E0,9.186443700E0
3.243530040E0,1.192050099E0,8.685000420E0,2.161050081E0,9.028862231E0
3.245491840E0,1.114950061E0,8.455050468E0,2.085000038E0,8.779420096E0
3.247453635E0,1.039050102E0,8.224950790E0,1.930950046E0,8.512227012E0
3.249415175E0,9.619500637E-1,8.032950401E0,1.893000126E0,8.308856092E0
3.251376790E0,8.850000501E-1,7.803000450E0,1.816050053E0,8.060277843E0
3.253338495E0,8.089500666E-1,7.612050533E0,1.663050056E0,7.833482560E0
3.255300173E0,6.940500140E-1,7.420050144E0,1.510050058E0,7.603887213E0
3.257261523E0,6.169500351E-1,7.189950466E0,1.510050058E0,7.372670224E0
3.259222959E0,5.790000558E-1,7.036950111E0,1.510050058E0,7.220398820E0
3.261183614E0,5.020500422E-1,6.960000515E0,1.471050024E0,7.131454942E0
3.263144498E0,3.490500152E-1,6.730050087E0,1.510050058E0,6.906204548E0
3.265106148E0,2.340000123E-1,6.691950321E0,1.510050058E0,6.864197425E0
3.267067573E0,2.340000123E-1,6.654000282E0,1.471050024E0,6.818684912E0
3.269029500E0,1.570500135E-1,6.615000248E0,1.510050058E0,6.786983436E0
3.270991274E0,4.200000316E-2,6.654000282E0,1.548000097E0,6.831821723E0
3.272952908E0,-3.299999982E-2,6.691950321E0,1.510050058E0,6.860287114E0
3.274914584E0,-7.200000435E-2,6.730050087E0,1.510050058E0,6.897753935E0
3.276876144E0,-1.099500060E-1,6.768000126E0,1.471050024E0,6.926897060E0
3.278837738E0,-2.250000089E-1,6.883050442E0,1.510050058E0,7.050337550E0
3.280799432E0,-2.629500031E-1,7.036950111E0,1.585950017E0,7.218244041E0
3.282761106E0,-3.019500077E-1,7.075050354E0,1.471050024E0,7.232668905E0
3.284722982E0,-3.780000210E-1,7.189950466E0,1.510050058E0,7.356529270E0
3.286684798E0,-4.549500346E-1,7.381950378E0,1.471050024E0,7.540832785E0
3.288646245E0,-4.549500346E-1,7.534950256E0,1.432950020E0,7.683475819E0
3.290607801E0,-6.079500318E-1,7.612050533E0,1.240950108E0,7.736463904E0
3.292569196E0,-6.079500318E-1,7.726950169E0,1.126049995E0,7.832199611E0
3.294530642E0,-6.079500318E-1,7.803000450E0,1.165050030E0,7.912885747E0
