"Time (s)","Acceleration x (m/s^2)","Acceleration y (m/s^2)","Acceleration z (m/s^2)","Absolute acceleration (m/s^2)"
3.094698900E-2,-1.987950087E0,9.796050072E0,1.930950046E0,1.018052605E1
3.290495300E-2,-1.950000048E0,9.873000145E0,1.930950046E0,1.024730209E1
3.486583500E-2,-1.950000048E0,9.949950218E0,1.893000126E0,1.031442965E1
3.682509800E-2,-2.026050091E0,9.949950218E0,1.816050053E0,1.031525211E1
3.878483500E-2,-2.410050154E0,9.988050461E0,1.663050056E0,1.040842107E1
4.074419900E-2,-2.179949999E0,9.988050461E0,1.816050053E0,1.038322550E1
4.270367600E-2,-1.987950087E0,9.988050461E0,1.777950048E0,1.033799806E1
4.466340400E-2,-1.795950055E0,9.910950661E0,1.740000129E0,1.022154490E1
4.662305900E-2,-1.758000135E0,9.873000145E0,1.816050053E0,1.019140491E1
4.858275800E-2,-1.720050097E0,9.910950661E0,1.930950046E0,1.024275761E1
5.054244400E-2,-1.720050097E0,9.910950661E0,1.893000126E0,1.023567119E1
5.250205400E-2,-1.720050097E0,9.873000145E0,1.816050053E0,1.018492720E1
5.446171400E-2,-1.795950055E0,9.835050583E0,1.701000094E0,1.014135385E1
5.642123200E-2,-1.681950092E0,9.720000267E0,1.663050056E0,1.000365417E1
5.838079100E-2,-1.758000135E0,9.720000267E0,1.585950017E0,1.000420947E1
6.034032600E-2,-1.758000135E0,9.681000710E0,1.585950017E0,9.966322124E0
6.229986800E-2,-1.795950055E0,9.604950905E0,1.471050024E0,9.881523499E0
6.425945000E-2,-1.873050094E0,9.565950394E0,1.510050058E0,9.863872199E0
6.621902000E-2,-1.834950089E0,9.490050316E0,1.510050058E0,9.783064346E0
6.817868800E-2,-1.873050094E0,9.451050758E0,1.510050058E0,9.752483185E0
7.013832800E-2,-1.911000133E0,9.375000000E0,1.510050058E0,9.686216892E0
7.209785000E-2,-1.911000133E0,9.336000443E0,1.510050058E0,9.648475369E0
7.405740700E-2,-1.950000048E0,9.259950638E0,1.510050058E0,9.582767720E0
7.601712000E-2,-1.987950087E0,9.259950638E0,1.471050024E0,9.584498919E0
7.797678800E-2,-2.065050125E0,9.220950127E0,1.471050024E0,9.563176325E0
7.993630500E-2,-2.065050125E0,9.220950127E0,1.471050024E0,9.563176325E0
8.189586700E-2,-2.218050003E0,9.183000565E0,1.432950020E0,9.555134271E0
8.385540100E-2,-2.256000042E0,9.106050491E0,1.432950020E0,9.490154767E0
8.581494400E-2,-2.371050119E0,9.145050049E0,1.395000100E0,9.549860959E0
8.777432100E-2,-2.448000193E0,9.106050491E0,1.279950023E0,9.515835883E0
8.973373300E-2,-2.563050032E0,9.030000687E0,1.318050027E0,9.478786512E0
9.169347300E-2,-2.640000105E0,9.067950249E0,1.279950023E0,9.530770920E0
9.365311600E-2,-2.755050182E0,9.067950249E0,1.240950108E0,9.558136868E0
9.561263800E-2,-2.677950144E0,8.991000175E0,1.356000066E0,9.478831009E0
9.757219500E-2,-2.869950056E0,8.953050613E0,1.279950023E0,9.488519414E0
9.953174400E-2,-2.985000134E0,8.953050613E0,1.087950110E0,9.500051396E0
1.014913170E-1,-3.100050211E0,8.953050613E0,1.087950110E0,9.536826623E0
1.034510300E-1,-3.214950085E0,8.953050613E0,1.087950110E0,9.574792675E0
1.054107020E-1,-3.175950050E0,8.914950371E0,1.126049995E0,9.530529231E0
1.073701740E-1,-3.330000162E0,8.914950371E0,1.050000072E0,9.574327201E0
1.093297040E-1,-3.330000162E0,8.838000298E0,1.050000072E0,9.502718058E0
1.112896480E-1,-3.445050240E0,8.838000298E0,1.050000072E0,9.543642940E0
1.132494710E-1,-3.483000278E0,8.838000298E0,1.011000037E0,9.553201624E0
1.152092770E-1,-3.520950079E0,8.838000298E0,8.959500194E-1,9.555630024E0
1.171690880E-1,-3.559950113E0,8.800050735E0,8.200500607E-1,9.528201292E0
1.191289840E-1,-3.636000156E0,8.800050735E0,9.349500537E-1,9.567419803E0
1.210888550E-1,-3.598050117E0,8.800050735E0,9.349500537E-1,9.553061771E0
1.230482920E-1,-3.636000156E0,8.722949982E0,9.349500537E-1,9.496551223E0
1.250078570E-1,-3.751050234E0,8.685000420E0,8.959500194E-1,9.502754158E0
1.269674350E-1,-3.675000191E0,8.722949982E0,8.200500607E-1,9.500945473E0
1.289270090E-1,-3.675000191E0,8.685000420E0,8.959500194E-1,9.472992406E0
1.308866770E-1,-3.712950230E0,8.685000420E0,8.580000401E-1,9.484270966E0
1.328463170E-1,-3.751050234E0,8.647050858E0,8.959500194E-1,9.468082849E0
1.348056590E-1,-3.712950230E0,8.647050858E0,8.959500194E-1,9.453053178E0
1.367650880E-1,-3.712950230E0,8.685000420E0,8.959500194E-1,9.487779410E0
1.387248250E-1,-3.712950230E0,8.722949982E0,8.959500194E-1,9.522530243E0
1.406844710E-1,-3.751050234E0,8.685000420E0,8.580000401E-1,9.499251245E0
1.426441710E-1,-3.751050234E0,8.608050346E0,8.580000401E-1,9.428948652E0
1.446038550E-1,-3.712950230E0,8.647050858E0,8.580000401E-1,9.449531841E0
1.465639090E-1,-3.712950230E0,8.722949982E0,8.959500194E-1,9.522530243E0
1.485238550E-1,-3.712950230E0,8.722949982E0,8.580000401E-1,9.519034608E0
1.504833250E-1,-3.751050234E0,8.685000420E0,8.959500194E-1,9.502754158E0
1.524429340E-1,-3.751050234E0,8.761950493E0,9.349500537E-1,9.576862007E0
1.544024600E-1,-3.712950230E0,8.761950493E0,8.580000401E-1,9.554786231E0
1.563620110E-1,-3.712950230E0,8.722949982E0,9.349500537E-1,9.526278780E0
1.583215910E-1,-3.712950230E0,8.722949982E0,8.959500194E-1,9.522530243E0
1.602811630E-1,-3.790050268E0,8.761950493E0,8.580000401E-1,9.585010253E0
1.622408310E-1,-3.636000156E0,8.685000420E0,1.011000037E0,9.469522190E0
1.642004710E-1,-3.636000156E0,8.647050858E0,1.165050030E0,9.452477307E0
1.661599930E-1,-3.636000156E0,8.647050858E0,1.165050030E0,9.452477307E0
1.681195500E-1,-3.598050117E0,8.647050858E0,1.087950110E0,9.428737382E0
1.700794950E-1,-3.598050117E0,8.647050858E0,1.050000072E0,9.424433847E0
1.720393220E-1,-3.598050117E0,8.647050858E0,1.087950110E0,9.428737382E0
1.739991710E-1,-3.559950113E0,8.608050346E0,1.050000072E0,9.374127998E0
1.759590140E-1,-3.559950113E0,8.608050346E0,1.050000072E0,9.374127998E0
1.779186820E-1,-3.598050117E0,8.532000542E0,1.050000072E0,9.318985891E0
1.798784010E-1,-3.520950079E0,8.532000542E0,1.087950110E0,9.293855935E0
1.818380530E-1,-3.483000278E0,8.532000542E0,1.087950110E0,9.279545227E0
1.837977180E-1,-3.445050240E0,8.532000542E0,1.203000069E0,9.279580463E0
1.857572800E-1,-3.445050240E0,8.455050468E0,1.240950108E0,9.213913758E0
1.877168720E-1,-3.483000278E0,8.455050468E0,1.203000069E0,9.223143636E0
1.896767600E-1,-3.483000278E0,8.416950226E0,1.050000072E0,9.169451575E0
1.916365620E-1,-3.445050240E0,8.416950226E0,1.087950110E0,9.159533705E0
1.935961870E-1,-3.330000162E0,8.416950226E0,1.087950110E0,9.116884754E0
1.955558670E-1,-3.367950201E0,8.416950226E0,1.126049995E0,9.135432571E0
1.975157400E-1,-3.367950201E0,8.377950668E0,1.126049995E0,9.099512874E0
1.994755570E-1,-3.367950201E0,8.416950226E0,1.126049995E0,9.135432571E0
2.014354080E-1,-3.367950201E0,8.377950668E0,1.126049995E0,9.099512874E0
2.033952490E-1,-3.330000162E0,8.377950668E0,1.203000069E0,9.095392660E0
2.053550720E-1,-3.367950201E0,8.455050468E0,1.165050030E0,9.175418713E0
2.073149170E-1,-3.291000128E0,8.455050468E0,1.240950108E0,9.157429630E0
2.092748080E-1,-3.291000128E0,8.493000031E0,1.165050030E0,9.182541747E0
2.112346860E-1,-3.253050089E0,8.532000542E0,1.203000069E0,9.210025911E0
2.131943020E-1,-3.214950085E0,8.569950104E0,1.126049995E0,9.222143862E0
2.151539950E-1,-3.214950085E0,8.569950104E0,1.279950023E0,9.242197839E0
2.171136970E-1,-3.253050089E0,8.569950104E0,1.356000066E0,9.266343175E0
2.190733900E-1,-3.291000128E0,8.647050858E0,1.318050027E0,9.345556497E0
2.210329020E-1,-3.291000128E0,8.722949982E0,1.279950023E0,9.410569073E0
2.229924670E-1,-3.291000128E0,8.685000420E0,1.279950023E0,9.375403255E0
2.249520450E-1,-3.253050089E0,8.722949982E0,1.318050027E0,9.402629799E0
2.269116190E-1,-3.175950050E0,8.722949982E0,1.318050027E0,9.376234371E0
2.288711120E-1,-3.175950050E0,8.838000298E0,1.432950020E0,9.500013355E0
2.308306260E-1,-3.367950201E0,8.800050735E0,1.395000100E0,9.525230012E0
2.327905280E-1,-3.330000162E0,8.877000809E0,1.203000069E0,9.557052558E0
2.347503160E-1,-3.253050089E0,8.953050613E0,1.395000100E0,9.627329611E0
2.367098580E-1,-3.175950050E0,8.991000175E0,1.471050024E0,9.648250155E0
2.386694720E-1,-3.100050211E0,8.991000175E0,1.395000100E0,9.612201660E0
2.406291960E-1,-3.061050177E0,9.030000687E0,1.356000066E0,9.630663360E0
2.425888740E-1,-3.138000250E0,9.030000687E0,1.432950020E0,9.666504214E0
2.445487040E-1,-3.100050211E0,9.106050491E0,1.395000100E0,9.719901859E0
2.465084890E-1,-3.100050211E0,9.145050049E0,1.471050024E0,9.767611780E0
2.484680310E-1,-3.061050177E0,9.220950127E0,1.432950020E0,9.820860206E0
2.504276450E-1,-3.061050177E0,9.220950127E0,1.432950020E0,9.820860206E0
2.523876750E-1,-2.985000134E0,9.220950127E0,1.471050024E0,9.803067643E0
2.543475760E-1,-2.946000099E0,9.220950127E0,1.471050024E0,9.791262738E0
2.563069180E-1,-2.908050060E0,9.220950127E0,1.510050058E0,9.785853441E0
2.582664240E-1,-2.908050060E0,9.259950638E0,1.471050024E0,9.816691354E0
2.602259230E-1,-2.908050060E0,9.298050880E0,1.471050024E0,9.852638911E0
2.621854240E-1,-2.869950056E0,9.259950638E0,1.432950020E0,9.799828820E0
2.641451620E-1,-2.755050182E0,9.298050880E0,1.471050024E0,9.808569715E0
2.661048210E-1,-2.677950144E0,9.259950638E0,1.510050058E0,9.756964383E0
2.680645190E-1,-2.755050182E0,9.298050880E0,1.471050024E0,9.808569715E0
2.700242050E-1,-2.716050148E0,9.298050880E0,1.471050024E0,9.797686806E0
2.719838990E-1,-2.677950144E0,9.259950638E0,1.471050024E0,9.751004613E0
2.739435900E-1,-2.677950144E0,9.220950127E0,1.471050024E0,9.713975828E0
2.759031030E-1,-2.563050032E0,9.259950638E0,1.471050024E0,9.720077132E0
2.778626690E-1,-2.524950027E0,9.183000565E0,1.548000097E0,9.648791443E0
2.798226070E-1,-2.524950027E0,9.259950638E0,1.510050058E0,9.716085098E0
2.817824360E-1,-2.524950027E0,9.220950127E0,1.471050024E0,9.672914868E0
2.837418810E-1,-2.485950232E0,9.183000565E0,1.471050024E0,9.626600443E0
2.857014380E-1,-2.448000193E0,9.220950127E0,1.471050024E0,9.653114231E0
2.876610070E-1,-2.485950232E0,9.183000565E0,1.471050024E0,9.626600443E0
2.896205490E-1,-2.371050119E0,9.183000565E0,1.510050058E0,9.603625837E0
2.915797270E-1,-2.448000193E0,9.183000565E0,1.471050024E0,9.616870202E0
2.935390110E-1,-2.410050154E0,9.183000565E0,1.510050058E0,9.613328887E0
2.954986370E-1,-2.371050119E0,9.183000565E0,1.471050024E0,9.597570849E0
2.974581630E-1,-2.410050154E0,9.220950127E0,1.471050024E0,9.643560087E0
2.994176550E-1,-2.371050119E0,9.220950127E0,1.471050024E0,9.633887485E0
3.013771600E-1,-2.371050119E0,9.220950127E0,1.471050024E0,9.633887485E0
3.033368830E-1,-2.295000076E0,9.220950127E0,1.510050058E0,9.621496649E0
3.052965420E-1,-2.371050119E0,9.259950638E0,1.585950017E0,9.689365404E0
3.072560610E-1,-2.371050119E0,9.336000443E0,1.510050058E0,9.750027390E0
3.092156210E-1,-2.371050119E0,9.298050880E0,1.510050058E0,9.713695487E0
3.111753900E-1,-2.371050119E0,9.298050880E0,1.471050024E0,9.707709154E0
3.131350910E-1,-2.371050119E0,9.336000443E0,1.510050058E0,9.750027390E0
3.150946030E-1,-2.410050154E0,9.412950516E0,1.510050058E0,9.833220751E0
3.170541700E-1,-2.410050154E0,9.412950516E0,1.510050058E0,9.833220751E0
3.190137040E-1,-2.410050154E0,9.451050758E0,1.510050058E0,9.869698747E0
3.209732470E-1,-2.371050119E0,9.490050316E0,1.510050058E0,9.897635316E0
3.229327790E-1,-2.371050119E0,9.528000832E0,1.548000097E0,9.939868350E0
3.248923180E-1,-2.485950232E0,9.604950905E0,1.510050058E0,1.003570036E1
3.268523510E-1,-2.524950027E0,9.604950905E0,1.471050024E0,1.003964355E1
3.288122400E-1,-2.640000105E0,9.604950905E0,1.356000066E0,1.005303032E1
3.307718990E-1,-2.601000071E0,9.720000267E0,1.471050024E0,1.016895249E1
3.327316260E-1,-2.448000193E0,9.720000267E0,1.624950051E0,1.015438687E1
3.346913570E-1,-2.485950232E0,9.796050072E0,1.663050056E0,1.024247436E1
3.366510860E-1,-2.485950232E0,9.835050583E0,1.585950017E0,1.026759008E1
3.386107280E-1,-2.485950232E0,9.835050583E0,1.548000097E0,1.026179676E1
3.405703950E-1,-2.485950232E0,9.910950661E0,1.548000097E0,1.033456317E1
3.425297770E-1,-2.524950027E0,9.910950661E0,1.510050058E0,1.033840253E1
3.444892420E-1,-2.485950232E0,9.949950218E0,1.548000097E0,1.037197003E1
3.464488060E-1,-2.485950232E0,9.988050461E0,1.548000097E0,1.040852559E1
3.484083310E-1,-2.485950232E0,9.988050461E0,1.548000097E0,1.040852559E1
3.503676920E-1,-2.448000193E0,1.002600002E1,1.548000097E0,1.043598034E1
3.523271020E-1,-2.524950027E0,9.949950218E0,1.548000097E0,1.038138653E1
3.542866610E-1,-2.563050032E0,9.949950218E0,1.432950020E0,1.037420265E1
3.562461770E-1,-2.448000193E0,1.002600002E1,1.548000097E0,1.043598034E1
3.582057240E-1,-2.332950115E0,9.910950661E0,1.701000094E0,1.032293566E1
3.601652590E-1,-2.295000076E0,9.910950661E0,1.624950051E0,1.030215662E1
3.621247980E-1,-2.256000042E0,9.949950218E0,1.585950017E0,1.032503186E1
3.640843360E-1,-2.218050003E0,9.910950661E0,1.548000097E0,1.027341195E1
3.660442350E-1,-2.140950203E0,9.910950661E0,1.548000097E0,1.025704222E1
3.680040280E-1,-2.218050003E0,9.910950661E0,1.510050058E0,1.026776217E1
3.699634980E-1,-2.103000164E0,9.910950661E0,1.510050058E0,1.024352497E1
3.719230490E-1,-2.103000164E0,9.910950661E0,1.548000097E0,1.024918811E1
3.738822240E-1,-2.026050091E0,9.873000145E0,1.548000097E0,1.019692675E1
3.758415100E-1,-1.987950087E0,9.873000145E0,1.548000097E0,1.018942499E1
3.778012710E-1,-2.026050091E0,9.873000145E0,1.548000097E0,1.019692675E1
3.797608930E-1,-2.026050091E0,9.873000145E0,1.471050024E0,1.018552890E1
3.817204730E-1,-1.987950087E0,9.835050583E0,1.510050058E0,1.014694125E1
3.836800590E-1,-1.950000048E0,9.873000145E0,1.471050024E0,1.017067452E1
3.856395440E-1,-1.911000133E0,9.835050583E0,1.510050058E0,1.013214650E1
3.875990590E-1,-1.873050094E0,9.873000145E0,1.510050058E0,1.016192402E1
3.895587810E-1,-1.873050094E0,9.873000145E0,1.510050058E0,1.016192402E1
3.915184420E-1,-1.834950089E0,9.873000145E0,1.510050058E0,1.015497045E1
3.934780300E-1,-1.834950089E0,9.873000145E0,1.510050058E0,1.015497045E1
3.954376220E-1,-1.834950089E0,9.873000145E0,1.471050024E0,1.014924440E1
3.973972860E-1,-1.834950089E0,9.949950218E0,1.471050024E0,1.022411558E1
3.993569280E-1,-1.873050094E0,9.910950661E0,1.471050024E0,1.019309805E1
4.013168540E-1,-1.834950089E0,9.910950661E0,1.510050058E0,1.019187107E1
4.032766970E-1,-1.795950055E0,9.873000145E0,1.471050024E0,1.014226585E1
4.052364850E-1,-1.795950055E0,9.873000145E0,1.471050024E0,1.014226585E1
4.071963000E-1,-1.795950055E0,9.873000145E0,1.510050058E0,1.014799584E1
4.091558360E-1,-1.834950089E0,9.873000145E0,1.510050058E0,1.015497045E1
4.111154540E-1,-1.834950089E0,9.873000145E0,1.510050058E0,1.015497045E1
4.130752930E-1,-1.795950055E0,9.873000145E0,1.548000097E0,1.015371227E1
4.150350670E-1,-1.758000135E0,9.796050072E0,1.548000097E0,1.007221256E1
4.169946210E-1,-1.911000133E0,9.757950783E0,1.471050024E0,1.005154282E1
4.189542330E-1,-1.911000133E0,9.835050583E0,1.548000097E0,1.013787186E1
4.209138930E-1,-1.795950055E0,9.720000267E0,1.585950017E0,1.001094797E1
4.228735390E-1,-1.795950055E0,9.720000267E0,1.624950051E0,1.001720043E1
4.248330600E-1,-1.758000135E0,9.643050194E0,1.624950051E0,9.935765908E0
4.267926180E-1,-1.795950055E0,9.643050194E0,1.624950051E0,9.942550795E0
4.287522010E-1,-1.795950055E0,9.604950905E0,1.585950017E0,9.899280577E0
4.307117730E-1,-1.950000048E0,9.528000832E0,1.548000097E0,9.847923859E0
4.326714860E-1,-1.987950087E0,9.528000832E0,1.510050058E0,9.849619108E0
4.346311580E-1,-2.140950203E0,9.451050758E0,1.395000100E0,9.790406196E0
4.365906750E-1,-2.065050125E0,9.490050316E0,1.471050024E0,9.822905639E0
4.385502370E-1,-2.065050125E0,9.490050316E0,1.548000097E0,9.834723754E0
4.405099020E-1,-2.140950203E0,9.490050316E0,1.510050058E0,9.845048194E0
4.424695390E-1,-2.140950203E0,9.412950516E0,1.510050058E0,9.770750041E0
4.444292410E-1,-2.140950203E0,9.412950516E0,1.471050024E0,9.764798685E0
4.463889230E-1,-2.256000042E0,9.451050758E0,1.432950020E0,9.821672077E0
4.483486620E-1,-2.332950115E0,9.375000000E0,1.395000100E0,9.761111951E0
4.503083850E-1,-2.410050154E0,9.412950516E0,1.240950108E0,9.795505925E0
4.522683830E-1,-2.524950027E0,9.412950516E0,1.279950023E0,9.829409042E0
4.542283030E-1,-2.677950144E0,9.375000000E0,1.240950108E0,9.828631601E0
4.561881370E-1,-2.755050182E0,9.336000443E0,1.126049995E0,9.798938430E0
4.581479970E-1,-2.869950056E0,9.412950516E0,1.087950110E0,9.900701297E0
4.601076610E-1,-2.869950056E0,9.412950516E0,1.087950110E0,9.900701297E0
4.620673820E-1,-2.985000134E0,9.336000443E0,1.011000037E0,9.853590774E0
4.640267250E-1,-3.061050177E0,9.375000000E0,9.349500537E-1,9.906300257E0
4.659861990E-1,-2.985000134E0,9.412950516E0,1.050000072E0,9.930577192E0
4.679460630E-1,-2.985000134E0,9.375000000E0,9.730500579E-1,9.886742498E0
4.699058120E-1,-3.061050177E0,9.412950516E0,9.349500537E-1,9.942222951E0
4.718656750E-1,-3.138000250E0,9.412950516E0,8.959500194E-1,9.962600535E0
4.738255050E-1,-3.175950050E0,9.490050316E0,8.200500607E-1,1.004092604E1
4.757853840E-1,-3.214950085E0,9.528000832E0,8.200500607E-1,1.008916181E1
4.777452590E-1,-3.330000162E0,9.565950394E0,8.580000401E-1,1.016525809E1
4.797048760E-1,-3.406050205E0,9.604950905E0,8.200500607E-1,1.022392987E1
4.816645690E-1,-3.445050240E0,9.681000710E0,8.580000401E-1,1.031146498E1
4.836244400E-1,-3.483000278E0,9.681000710E0,9.349500537E-1,1.033088560E1
4.855842590E-1,-3.520950079E0,9.720000267E0,1.050000072E0,1.039124607E1
4.875441600E-1,-3.520950079E0,9.796050072E0,1.011000037E0,1.045857579E1
4.895040330E-1,-3.559950113E0,9.873000145E0,1.087950110E0,1.055144597E1
4.914638760E-1,-3.559950113E0,9.910950661E0,1.165050030E0,1.059516538E1
4.934237280E-1,-3.520950079E0,9.835050583E0,1.318050027E0,1.052912937E1
4.953839320E-1,-3.483000278E0,9.910950661E0,1.395000100E0,1.059737039E1
4.973440330E-1,-3.598050117E0,9.988050461E0,1.395000100E0,1.070762074E1
4.993039720E-1,-3.559950113E0,1.002600002E1,1.395000100E0,1.073032835E1
5.012639580E-1,-3.598050117E0,1.006500053E1,1.471050024E0,1.078954070E1
5.032236450E-1,-3.520950079E0,1.006500053E1,1.471050024E0,1.076407513E1
5.051834200E-1,-3.445050240E0,1.006500053E1,1.510050058E0,1.074489917E1
5.071434120E-1,-3.330000162E0,1.006500053E1,1.548000097E0,1.071398344E1
5.091033410E-1,-3.367950201E0,1.014105034E1,1.548000097E0,1.079723552E1
5.110630300E-1,-3.367950201E0,1.021800041E1,1.510050058E0,1.086420140E1
5.130227950E-1,-3.291000128E0,1.025595093E1,1.585950017E0,1.088716900E1
5.149824750E-1,-3.175950050E0,1.021800041E1,1.701000094E0,1.083455548E1
5.169421800E-1,-3.138000250E0,1.018005085E1,1.777950048E0,1.080007348E1
5.189016900E-1,-3.138000250E0,1.025595093E1,1.893000126E0,1.089105250E1
5.208612570E-1,-3.100050211E0,1.025595093E1,2.046000004E0,1.090783923E1
5.228207950E-1,-3.061050177E0,1.025595093E1,1.969950080E0,1.088279656E1
5.247803380E-1,-3.061050177E0,1.029495049E1,2.085000038E0,1.094089845E1
5.267405510E-1,-2.985000134E0,1.025595093E1,2.085000038E0,1.088310527E1
5.287005670E-1,-2.946000099E0,1.025595093E1,2.161050081E0,1.088731296E1
5.306604300E-1,-2.985000134E0,1.025595093E1,2.122950077E0,1.089043949E1
5.326203380E-1,-2.946000099E0,1.021800041E1,2.122950077E0,1.084404749E1
5.345803230E-1,-2.908050060E0,1.021800041E1,2.200050116E0,1.084917085E1
5.365402740E-1,-2.869950056E0,1.021800041E1,2.353049994E0,1.087110804E1
5.384999680E-1,-2.830950022E0,1.018005085E1,2.430000067E0,1.084216831E1
5.404597380E-1,-2.793000221E0,1.014105034E1,2.391000032E0,1.078696590E1
5.424195960E-1,-2.716050148E0,1.014105034E1,2.545050144E0,1.080255112E1
5.443794280E-1,-2.640000105E0,1.006500053E1,2.620950222E0,1.073048071E1
5.463394070E-1,-2.524950027E0,9.988050461E0,2.659050226E0,1.063988124E1
5.482993460E-1,-2.448000193E0,9.949950218E0,2.736000061E0,1.060565465E1
5.502590420E-1,-2.332950115E0,9.835050583E0,2.851050138E0,1.050235036E1
5.522188100E-1,-2.218050003E0,9.835050583E0,2.812950134E0,1.046712254E1
5.541784440E-1,-2.179949999E0,9.757950783E0,2.965950251E0,1.042912491E1
5.561381170E-1,-1.950000048E0,9.681000710E0,3.081000090E0,1.034489422E1
5.580976430E-1,-1.911000133E0,9.604950905E0,3.081000090E0,1.026642903E1
5.600572370E-1,-1.834950089E0,9.528000832E0,3.157950163E0,1.020404287E1
5.620165850E-1,-1.758000135E0,9.451050758E0,3.196050167E0,1.013053116E1
5.639760060E-1,-1.758000135E0,9.412950516E0,3.234000206E0,1.010707471E1
5.659358790E-1,-1.873050094E0,9.259950638E0,3.234000206E0,9.985677734E0
5.678956200E-1,-1.873050094E0,9.336000443E0,3.349050045E0,1.009382767E1
5.698552960E-1,-1.605000019E0,9.183000565E0,3.463950157E0,9.944972354E0
5.718149970E-1,-1.452000022E0,9.106050491E0,3.463950157E0,9.850249251E0
5.737743280E-1,-1.260000110E0,9.067950249E0,3.502950191E0,9.802345741E0
5.757337670E-1,-1.106999993E0,8.991000175E0,3.502950191E0,9.712579121E0
5.776931870E-1,-1.106999993E0,8.877000809E0,3.502950191E0,9.607145902E0
5.796526130E-1,-9.529500604E-1,8.877000809E0,3.502950191E0,9.590616102E0
5.816121250E-1,-8.770500422E-1,8.761950493E0,3.426000118E0,9.448728487E0
5.835716110E-1,-7.999500632E-1,8.722949982E0,3.349050045E0,9.377948213E0
5.855309790E-1,-6.850500107E-1,8.647050858E0,3.273000240E0,9.271100939E0
5.874903820E-1,-6.079500318E-1,8.647050858E0,3.234000206E0,9.252018650E0
5.894497630E-1,-5.700000525E-1,8.608050346E0,3.234000206E0,9.213152998E0
5.914091510E-1,-5.320500135E-1,8.647050858E0,3.157950163E0,9.221020279E0
5.933685440E-1,-4.170000255E-1,8.685000420E0,3.157950163E0,9.250717299E0
5.953279300E-1,-2.629500031E-1,8.685000420E0,3.234000206E0,9.271306937E0
5.972875380E-1,-2.250000089E-1,8.685000420E0,3.310950041E0,9.297432305E0
5.992470810E-1,-1.480500102E-1,8.761950493E0,3.426000118E0,9.409100491E0
6.012065750E-1,-1.099500060E-1,8.800050735E0,3.463950157E0,9.457903184E0
6.031660830E-1,-3.299999982E-2,8.877000809E0,3.502950191E0,9.543211849E0
6.051254330E-1,8.100000024E-2,8.914950371E0,3.463950157E0,9.564614566E0
6.070848390E-1,1.960500032E-1,9.067950249E0,3.463950157E0,9.709021990E0
6.090445790E-1,1.960500032E-1,9.145050049E0,3.426000118E0,9.767694345E0
6.110042210E-1,2.719500065E-1,9.220950127E0,3.463950157E0,9.853873793E0
6.129637430E-1,2.719500065E-1,9.298050880E0,3.349050045E0,9.886548598E0
6.149233000E-1,3.109500110E-1,9.451050758E0,3.349050045E0,1.003170905E1
6.168837450E-1,5.790000558E-1,9.565950394E0,3.463950157E0,1.019026980E1
6.188439230E-1,8.089500666E-1,9.643050194E0,3.463950157E0,1.027821813E1
6.208030370E-1,8.850000501E-1,9.681000710E0,3.426000118E0,1.030739912E1
6.227624630E-1,7.699500322E-1,9.643050194E0,3.310950041E0,1.022465795E1
6.247221550E-1,8.850000501E-1,9.720000267E0,3.310950041E0,1.030650379E1
6.266817690E-1,1.000050068E0,9.681000710E0,3.196050167E0,1.024385726E1
6.286413510E-1,1.000050068E0,9.643050194E0,2.773950100E0,1.008381457E1
6.306009350E-1,9.240000248E-1,9.643050194E0,2.122950077E0,9.917111985E0
6.325604210E-1,1.230000019E0,9.643050194E0,2.238000154E0,9.975467998E0
6.345199350E-1,1.306950092E0,9.604950905E0,2.238000154E0,9.948459434E0
6.364796560E-1,1.345050097E0,9.565950394E0,2.430000067E0,9.960997290E0
6.384393170E-1,1.459950089E0,9.528000832E0,2.467950106E0,9.950127227E0
6.403990200E-1,1.575000048E0,9.565950394E0,2.545050144E0,1.002323861E1
6.423587070E-1,1.575000048E0,9.490050316E0,2.200050116E0,9.868226824E0
6.443180860E-1,1.651950121E0,9.604950905E0,2.122950077E0,9.974514430E0
6.462775550E-1,1.651950121E0,9.528000832E0,2.122950077E0,9.900437166E0
6.482374190E-1,1.651950121E0,9.565950394E0,1.930950046E0,9.897722678E0
6.501971680E-1,1.614000082E0,9.604950905E0,2.085000038E0,9.960286307E0
6.521564920E-1,1.498950124E0,9.565950394E0,2.008050203E0,9.888706894E0
6.541159400E-1,1.345050097E0,9.565950394E0,1.740000129E0,9.815506464E0
6.560756730E-1,1.306950092E0,9.565950394E0,1.893000126E0,9.838647008E0
6.580353220E-1,1.345050097E0,9.604950905E0,2.161050081E0,9.936517453E0
6.599948430E-1,1.306950092E0,9.681000710E0,2.275950193E0,1.003044578E1
6.619544010E-1,1.153950095E0,9.681000710E0,2.161050081E0,9.986166082E0
6.639141100E-1,9.619500637E-1,9.757950783E0,1.930950046E0,9.993573909E0
6.658737790E-1,8.089500666E-1,9.835050583E0,1.740000129E0,1.002049004E1
6.678324400E-1,6.550500393E-1,9.835050583E0,1.585950017E0,9.983613974E0
6.697913960E-1,4.639500082E-1,9.835050583E0,1.510050058E0,9.961110418E0
6.717510330E-1,8.100000024E-2,9.757950783E0,4.360500276E-1,9.768024575E0
6.737104710E-1,4.050000105E-3,9.796050072E0,6.660000086E-1,9.818664340E0
6.756699820E-1,4.050000105E-3,9.835050583E0,1.356000066E0,9.928090076E0
6.776294710E-1,8.100000024E-2,9.835050583E0,1.969950080E0,1.003072701E1
6.795890180E-1,-3.299999982E-2,9.873000145E0,2.314950228E0,1.014081927E1
6.815485480E-1,-2.250000089E-1,9.873000145E0,2.200050116E0,1.011765671E1
6.835079540E-1,-4.549500346E-1,9.835050583E0,1.855050087E0,1.001880284E1
6.854673960E-1,-5.320500135E-1,9.681000710E0,1.548000097E0,9.818409049E0
6.874267710E-1,-7.999500632E-1,9.490050316E0,1.318050027E0,9.614480276E0
6.893861660E-1,-9.150000215E-1,9.412950516E0,1.011000037E0,9.511203054E0
6.913453680E-1,-1.106999993E0,9.451050758E0,8.959500194E-1,9.557747426E0
6.933046270E-1,-1.260000110E0,9.490050316E0,8.580000401E-1,9.611702208E0
6.952640320E-1,-1.375050068E0,9.451050758E0,8.580000401E-1,9.589019095E0
6.972233940E-1,-1.452000022E0,9.375000000E0,8.200500607E-1,9.522153704E0
6.991829320E-1,-1.567050099E0,9.412950516E0,7.810500264E-1,9.574409777E0
7.011424080E-1,-1.720050097E0,9.375000000E0,7.050000429E-1,9.557521771E0
7.031020020E-1,-1.834950089E0,9.336000443E0,6.660000086E-1,9.537898202E0
7.050615620E-1,-1.987950087E0,9.336000443E0,5.130000114E-1,9.559080438E0
7.070209170E-1,-2.179949999E0,9.106050491E0,-4.060500264E-1,9.372150990E0
7.089803330E-1,-2.065050125E0,9.375000000E0,3.600000143E-1,9.606490360E0
7.109396480E-1,-2.256000042E0,9.565950394E0,1.126049995E0,9.892670606E0
7.128990070E-1,-2.410050154E0,9.681000710E0,1.279950023E0,1.005824978E1
7.148586200E-1,-2.485950232E0,9.796050072E0,1.126049995E0,1.016909702E1
7.168181590E-1,-2.601000071E0,9.835050583E0,1.050000072E0,1.022721475E1
7.187789140E-1,-2.677950144E0,9.949950218E0,1.050000072E0,1.035738512E1
7.207393120E-1,-2.793000221E0,9.835050583E0,-1.759500057E-1,1.022545982E1
7.226977930E-1,-2.601000071E0,1.002600002E1,3.600000143E-1,1.036414385E1
7.246568430E-1,-2.640000105E0,1.010295010E1,8.959500194E-1,1.048054997E1
7.266164640E-1,-2.716050148E0,1.021800041E1,8.959500194E-1,1.061071097E1
7.285759180E-1,-2.677950144E0,1.025595093E1,9.349500537E-1,1.064096227E1
7.305364170E-1,-2.716050148E0,1.025595093E1,7.810500264E-1,1.063820929E1
7.324966100E-1,-2.830950022E0,1.010295010E1,-4.060500264E-1,1.049994073E1
7.344553070E-1,-2.601000071E0,1.029495049E1,1.300500035E-1,1.061923349E1
7.364144490E-1,-2.677950144E0,1.037100029E1,9.349500537E-1,1.075189265E1
7.383742350E-1,-2.793000221E0,1.048605061E1,1.011000037E0,1.089863425E1
7.403338320E-1,-2.869950056E0,1.060095024E1,8.580000401E-1,1.101603029E1
7.422945770E-1,-3.100050211E0,1.052505016E1,-9.900000691E-2,1.097254725E1
7.442549860E-1,-2.908050060E0,1.067805004E1,-9.900000691E-2,1.106739847E1
7.462136740E-1,-2.793000221E0,1.079295063E1,8.959500194E-1,1.118442488E1
7.481728530E-1,-2.869950056E0,1.087005043E1,1.087950110E0,1.129505401E1
7.501335790E-1,-3.022950172E0,1.083105087E1,4.750500321E-1,1.125502391E1
7.520938510E-1,-2.946000099E0,1.071600056E1,-9.900000691E-2,1.111401752E1
7.540526790E-1,-2.716050148E0,1.087005043E1,8.200500607E-1,1.123420700E1
7.560119300E-1,-2.755050182E0,1.090800095E1,1.240950108E0,1.131877835E1
7.579715670E-1,-2.830950022E0,1.094595051E1,1.240950108E0,1.137400843E1
7.599310870E-1,-2.830950022E0,1.094595051E1,1.011000037E0,1.135122159E1
7.618916650E-1,-3.138000250E0,1.060095024E1,-3.670500219E-1,1.106173211E1
7.638519330E-1,-2.830950022E0,1.063995075E1,-1.369500011E-1,1.101097568E1
7.658109870E-1,-2.755050182E0,1.071600056E1,8.200500607E-1,1.109483896E1
7.677703960E-1,-2.869950056E0,1.071600056E1,1.087950110E0,1.114687924E1
7.697303110E-1,-2.869950056E0,1.063995075E1,1.011000037E0,1.106649386E1
7.716900820E-1,-2.830950022E0,1.060095024E1,8.959500194E-1,1.100895774E1
7.736510220E-1,-2.755050182E0,1.044795036E1,7.050000429E-1,1.082806508E1
7.756116200E-1,-2.830950022E0,9.988050461E0,-4.819500148E-1,1.039267559E1
7.775710230E-1,-2.524950027E0,9.988050461E0,-5.209500194E-1,1.031542115E1
7.795307760E-1,-2.410050154E0,9.835050583E0,9.195000678E-2,1.012645133E1
7.814895010E-1,-2.448000193E0,9.796050072E0,2.070000172E-1,1.009941340E1
7.834485350E-1,-2.410050154E0,9.835050583E0,7.810500264E-1,1.015611150E1
7.854079790E-1,-2.410050154E0,9.757950783E0,9.349500537E-1,1.009455679E1
7.873673030E-1,-2.448000193E0,9.757950783E0,8.580000401E-1,1.009685458E1
7.893270580E-1,-2.371050119E0,9.720000267E0,1.126049995E0,1.006818119E1
7.912866870E-1,-2.410050154E0,9.796050072E0,1.011000037E0,1.013869123E1
7.932471620E-1,-2.485950232E0,9.720000267E0,6.660000086E-1,1.005494454E1
7.952073850E-1,-2.410050154E0,9.643050194E0,2.830500007E-1,9.943685237E0
7.971671220E-1,-2.371050119E0,9.490050316E0,1.300500035E-1,9.782629844E0
7.991270020E-1,-2.332950115E0,9.298050880E0,-6.105000153E-2,9.586455733E0
8.010863010E-1,-2.256000042E0,9.145050049E0,-1.759500057E-1,9.420851076E0
8.030457710E-1,-2.218050003E0,9.145050049E0,-1.369500011E-1,9.411187041E0
8.050057260E-1,-2.179949999E0,9.067950249E0,5.295000225E-2,9.326452027E0
8.069655380E-1,-2.218050003E0,8.914950371E0,1.500000060E-2,9.186746482E0
8.089251660E-1,-2.026050091E0,8.685000420E0,-9.900000691E-2,8.918739387E0
8.108848480E-1,-1.834950089E0,8.493000031E0,-2.520000041E-1,8.692617290E0
8.128445410E-1,-1.528050065E0,7.918050289E0,-1.210950017E0,8.154560523E0
8.148042310E-1,-1.106999993E0,8.032950401E0,-5.970000029E-1,8.130814851E0
8.167630640E-1,-9.919500351E-1,8.187000275E0,2.070000172E-1,8.249471945E0
8.187221510E-1,-8.770500422E-1,8.302050591E0,4.750500321E-1,8.361754201E0
8.206814050E-1,-8.770500422E-1,8.416950226E0,7.810500264E-1,8.498488514E0
8.226406100E-1,-9.150000215E-1,8.493000031E0,5.509500504E-1,8.559896058E0
8.246002060E-1,-7.620000243E-1,8.569950104E0,3.600000143E-1,8.611288453E0
8.265596870E-1,-5.700000525E-1,8.722949982E0,3.220500052E-1,8.747483790E0
8.285200920E-1,-6.079500318E-1,8.761950493E0,2.070000172E-1,8.785455520E0
8.304802260E-1,-5.700000525E-1,8.761950493E0,5.295000225E-2,8.780630968E0
8.324394830E-1,-6.850500107E-1,8.838000298E0,-2.205000073E-2,8.864537719E0
8.343989970E-1,-6.850500107E-1,8.991000175E0,1.680000126E-1,9.018625265E0
8.363587190E-1,-7.999500632E-1,8.914950371E0,-1.759500057E-1,8.952497898E0
8.383183800E-1,-8.380500674E-1,8.953050613E0,-4.060500264E-1,9.001351000E0
8.402774160E-1,-7.999500632E-1,8.991000175E0,-2.205000073E-2,9.026543661E0
8.422366260E-1,-8.770500422E-1,9.145050049E0,1.300500035E-1,9.187930680E0
8.441962200E-1,-9.529500604E-1,9.183000565E0,1.300500035E-1,9.233229456E0
8.461557010E-1,-1.030050039E0,9.106050491E0,-1.369500011E-1,9.165146695E0
8.481150710E-1,-1.068000078E0,9.067950249E0,-3.670500219E-1,9.138001510E0
8.500744730E-1,-1.030050039E0,8.991000175E0,-5.209500194E-1,9.064793222E0
8.520340040E-1,-1.068000078E0,8.914950371E0,-5.970000029E-1,8.998520616E0
8.539934860E-1,-1.106999993E0,8.838000298E0,-6.360000372E-1,8.929736519E0
8.559528550E-1,-1.183050036E0,8.761950493E0,-6.360000372E-1,8.864303688E0
8.579122570E-1,-1.144950032E0,8.685000420E0,-5.209500194E-1,8.775621447E0
8.598718180E-1,-1.183050036E0,8.647050858E0,-5.209500194E-1,8.743139301E0
8.618313320E-1,-1.222050071E0,8.569950104E0,-5.209500194E-1,8.672303044E0
8.637908750E-1,-1.144950032E0,8.493000031E0,-5.209500194E-1,8.585647851E0
8.657504090E-1,-1.222050071E0,8.455050468E0,-4.819500148E-1,8.556492308E0
8.677099480E-1,-1.222050071E0,8.377950668E0,-3.670500219E-1,8.474561316E0
8.696694860E-1,-1.297950029E0,7.957050323E0,-1.057050109E0,8.131216333E0
8.716290250E-1,-1.183050036E0,7.726950169E0,-1.977000117E0,8.063119481E0
8.735885630E-1,-9.919500351E-1,8.032950401E0,-7.120500207E-1,8.125224443E0
8.755481060E-1,-1.222050071E0,7.995000362E0,-2.140500098E-1,8.090689376E0
8.775076440E-1,-1.260000110E0,8.071949959E0,-9.900000691E-2,8.170298490E0
8.794662820E-1,-1.260000110E0,8.148000717E0,-2.205000073E-2,8.244877329E0
8.814251840E-1,-1.336950064E0,8.302050591E0,4.360500276E-1,8.420309918E0
8.833855520E-1,-1.452000022E0,8.377950668E0,5.130000114E-1,8.518305611E0
8.853454900E-1,-1.720050097E0,8.377950668E0,1.300500035E-1,8.553685915E0
8.873049660E-1,-1.795950055E0,8.302050591E0,-3.289500177E-1,8.500452266E0
8.892645740E-1,-1.795950055E0,8.224950790E0,-5.590500236E-1,8.437285644E0
8.912241000E-1,-1.834950089E0,8.148000717E0,-6.739500165E-1,8.379210353E0
8.931836510E-1,-1.873050094E0,8.187000275E0,-6.360000372E-1,8.422575984E0
8.951430070E-1,-1.873050094E0,8.032950401E0,-5.970000029E-1,8.270007123E0
8.971024200E-1,-1.834950089E0,8.032950401E0,-4.440000355E-1,8.251816164E0
8.990619980E-1,-1.911000133E0,7.995000362E0,-3.289500177E-1,8.226795270E0
9.010215140E-1,-1.950000048E0,7.995000362E0,-3.670500219E-1,8.237551620E0
9.029809220E-1,-1.987950087E0,7.918050289E0,-2.910000086E-1,8.168974656E0
9.049403620E-1,-1.987950087E0,7.918050289E0,-3.289500177E-1,8.170414558E0
9.069002770E-1,-2.026050091E0,7.842000484E0,-3.289500177E-1,8.106174109E0
9.088600520E-1,-2.065050125E0,7.803000450E0,-3.289500177E-1,8.078332511E0
9.108195460E-1,-2.026050091E0,7.803000450E0,-3.670500219E-1,8.070094220E0
9.127791260E-1,-1.987950087E0,7.726950169E0,-4.060500264E-1,7.988903622E0
9.147386570E-1,-1.987950087E0,7.726950169E0,-3.670500219E-1,7.987016350E0
9.166982030E-1,-1.950000048E0,7.726950169E0,-2.910000086E-1,7.974518173E0
9.186577400E-1,-1.950000048E0,7.765050411E0,-3.670500219E-1,8.014563855E0
9.206172800E-1,-1.911000133E0,7.765050411E0,-3.670500219E-1,8.005164278E0
9.225770130E-1,-1.873050094E0,7.803000450E0,-3.289500177E-1,8.031397188E0
9.245366780E-1,-1.834950089E0,7.765050411E0,-3.289500177E-1,7.985690818E0
9.264963750E-1,-1.873050094E0,7.765050411E0,-3.289500177E-1,7.994531422E0
9.284560620E-1,-1.795950055E0,7.765050411E0,-3.670500219E-1,7.978481698E0
9.304155760E-1,-1.873050094E0,7.687950134E0,-3.670500219E-1,7.921339510E0
9.323751410E-1,-1.795950055E0,7.650000572E0,-3.670500219E-1,7.866553952E0
9.343348090E-1,-1.758000135E0,7.650000572E0,-3.670500219E-1,7.857976772E0
9.362944470E-1,-1.795950055E0,7.573050499E0,-4.060500264E-1,7.793677379E0
9.382540150E-1,-1.758000135E0,7.534950256E0,-4.060500264E-1,7.747962085E0
9.402136030E-1,-1.758000135E0,7.497000217E0,-4.819500148E-1,7.715429512E0
9.421731330E-1,-1.758000135E0,7.497000217E0,-4.060500264E-1,7.711060456E0
9.441326800E-1,-1.681950092E0,7.420050144E0,-4.819500148E-1,7.623540914E0
9.460922120E-1,-1.720050097E0,7.420050144E0,-4.819500148E-1,7.632037231E0
9.480517520E-1,-1.642950058E0,7.458000183E0,-5.590500236E-1,7.657257247E0
9.500111100E-1,-1.681950092E0,7.420050144E0,-5.209500194E-1,7.626105768E0
9.519705210E-1,-1.605000019E0,7.381950378E0,-5.209500194E-1,7.572357980E0
9.539300350E-1,-1.605000019E0,7.420050144E0,-6.739500165E-1,7.621507582E0
9.558895190E-1,-1.567050099E0,7.420050144E0,-5.970000029E-1,7.607180763E0
9.578487010E-1,-1.528050065E0,7.420050144E0,-6.360000372E-1,7.602406013E0
9.598079760E-1,-1.528050065E0,7.497000217E0,-7.510500550E-1,7.687914246E0
9.617672440E-1,-1.567050099E0,7.534950256E0,-7.890000343E-1,7.736513584E0
9.637265150E-1,-1.528050065E0,7.573050499E0,-9.040500522E-1,7.778389124E0
9.656858730E-1,-1.528050065E0,7.650000572E0,-9.420000315E-1,7.857786572E0
9.676452050E-1,-1.528050065E0,7.765050411E0,-9.420000315E-1,7.969837448E0
9.696046250E-1,-1.605000019E0,7.765050411E0,-1.018950105E0,7.994391301E0
9.715640320E-1,-1.528050065E0,7.879950523E0,-1.096050024E0,8.101227247E0
9.735235930E-1,-1.567050099E0,7.918050289E0,-1.057050109E0,8.140547975E0
9.754831090E-1,-1.528050065E0,7.918050289E0,-1.096050024E0,8.138291162E0
9.774426070E-1,-1.567050099E0,7.957050323E0,-1.249050021E0,8.205511673E0
9.794021110E-1,-1.567050099E0,8.110050201E0,-1.096050024E0,8.332459777E0
9.813615200E-1,-1.528050065E0,8.148000717E0,-1.018950105E0,8.352431503E0
9.833209570E-1,-1.642950058E0,8.224950790E0,-1.018950105E0,8.449104078E0
9.852805120E-1,-1.642950058E0,8.302050591E0,-1.057050109E0,8.528814914E0
9.872400320E-1,-1.681950092E0,8.340000153E0,-1.096050024E0,8.578221512E0
9.891997540E-1,-1.720050097E0,8.377950668E0,-1.096050024E0,8.622642019E0
9.911594170E-1,-1.795950055E0,8.455050468E0,-1.210950017E0,8.728099161E0
9.931188970E-1,-1.873050094E0,8.532000542E0,-1.210950017E0,8.818715884E0
9.950784580E-1,-1.950000048E0,8.608050346E0,-1.210950017E0,8.908840042E0
9.970381720E-1,-2.065050125E0,8.608050346E0,-1.171950102E0,8.929525734E0
9.989978410E-1,-2.026050091E0,8.722949982E0,-1.171950102E0,9.031511634E0
1.000957313E0,-2.140950203E0,8.761950493E0,-1.171950102E0,9.095543483E0
1.002916843E0,-2.140950203E0,8.761950493E0,-1.210950017E0,9.100650754E0
1.004876207E0,-2.218050003E0,8.877000809E0,-1.210950017E0,9.229696047E0
1.006835617E0,-2.256000042E0,8.877000809E0,-1.171950102E0,9.233858705E0
1.008795356E0,-2.256000042E0,8.877000809E0,-1.096050024E0,9.224532790E0
1.010754999E0,-2.179949999E0,8.877000809E0,-1.096050024E0,9.206228925E0
1.012714700E0,-2.256000042E0,8.877000809E0,-1.057050109E0,9.219980178E0
1.014674384E0,-2.218050003E0,8.838000298E0,-9.810000658E-1,9.164734377E0
1.016634064E0,-2.563050032E0,8.838000298E0,-1.402050018E0,9.308341366E0
1.018593755E0,-2.793000221E0,8.877000809E0,-1.861950040E0,9.490461082E0
1.020553133E0,-2.946000099E0,8.838000298E0,-1.287000060E0,9.404548633E0
1.022512603E0,-3.291000128E0,8.838000298E0,-9.040500522E-1,9.474082415E0
1.024471928E0,-3.406050205E0,8.722949982E0,-9.810000658E-1,9.415593211E0
1.026431295E0,-3.291000128E0,8.722949982E0,-1.096050024E0,9.387324639E0
1.028391042E0,-3.214950085E0,8.722949982E0,-1.210950017E0,9.375081886E0
1.030350678E0,-3.214950085E0,8.761950493E0,-1.326000094E0,9.426874176E0
1.032309885E0,-3.175950050E0,8.838000298E0,-1.326000094E0,9.484470688E0
1.034269218E0,-3.138000250E0,8.914950371E0,-1.249050021E0,9.533284410E0
1.036228566E0,-3.253050089E0,9.067950249E0,-1.249050021E0,9.714431664E0
1.038187909E0,-3.483000278E0,9.145050049E0,-1.287000060E0,9.870136802E0
1.040147516E0,-3.598050117E0,9.183000565E0,-1.326000094E0,9.951469252E0
1.042107052E0,-3.790050268E0,9.259950638E0,-1.402050018E0,1.010331189E1
1.044066726E0,-3.865950108E0,9.298050880E0,-1.402050018E0,1.016686110E1
1.046026360E0,-3.904950142E0,9.259950638E0,-1.402050018E0,1.014697323E1
1.047985928E0,-3.981000185E0,9.259950638E0,-1.402050018E0,1.017648233E1
1.049945516E0,-3.981000185E0,9.298050880E0,-1.326000094E0,1.020099941E1
1.051904996E0,-4.057950020E0,9.259950638E0,-1.287000060E0,1.019166391E1
1.053864511E0,-3.981000185E0,9.259950638E0,-1.171950102E0,1.014734031E1
1.055824233E0,-3.981000185E0,9.298050880E0,-1.134000063E0,1.017782240E1
1.057783894E0,-3.865950108E0,9.336000443E0,-1.096050024E0,1.016404448E1
1.059743277E0,-3.712950230E0,9.336000443E0,-1.057050109E0,1.010268571E1
1.061702742E0,-3.598050117E0,9.375000000E0,-1.018950105E0,1.009330714E1
1.063662602E0,-3.675000191E0,9.412950516E0,-1.018950105E0,1.015615691E1
1.065622350E0,-3.675000191E0,9.375000000E0,-1.096050024E0,1.012904621E1
1.067581673E0,-3.790050268E0,9.412950516E0,-1.210950017E0,1.021932084E1
1.069541121E0,-3.865950108E0,9.375000000E0,-1.210950017E0,1.021286420E1
1.071500719E0,-3.828000069E0,9.375000000E0,-1.171950102E0,1.019400199E1
1.073460273E0,-3.712950230E0,9.336000443E0,-1.096050024E0,1.010684072E1
1.075419944E0,-3.675000191E0,9.336000443E0,-1.096050024E0,1.009296073E1
1.077379581E0,-3.675000191E0,9.336000443E0,-1.057050109E0,1.008880001E1
1.079339104E0,-3.675000191E0,9.259950638E0,-1.057050109E0,1.001846631E1
1.081298660E0,-3.559950113E0,9.259950638E0,-1.134000063E0,9.985283510E0
1.083258060E0,-3.598050117E0,9.298050880E0,-1.096050024E0,1.003000700E1
1.085217506E0,-3.598050117E0,9.259950638E0,-1.134000063E0,9.998930273E0
1.087177205E0,-3.636000156E0,9.220950127E0,-1.210950017E0,9.985630592E0
1.089136822E0,-3.712950230E0,9.220950127E0,-1.287000060E0,1.002338714E1
1.091096348E0,-3.712950230E0,9.220950127E0,-1.249050021E0,1.001858506E1
1.093055901E0,-3.675000191E0,9.220950127E0,-1.249050021E0,1.000458263E1
1.095015437E0,-3.675000191E0,9.183000565E0,-1.249050021E0,9.969616428E0
1.096974978E0,-3.712950230E0,9.145050049E0,-1.326000094E0,9.958725624E0
1.098934516E0,-3.675000191E0,9.183000565E0,-1.326000094E0,9.979549189E0
1.100894055E0,-3.598050117E0,9.145050049E0,-1.479000092E0,9.938075584E0
1.102853458E0,-3.712950230E0,9.183000565E0,-1.594050050E0,1.003267135E1
1.104812901E0,-3.675000191E0,9.183000565E0,-1.594050050E0,1.001868860E1
1.106772590E0,-3.675000191E0,9.220950127E0,-1.632000089E0,1.005957116E1
1.108732206E0,-3.712950230E0,9.259950638E0,-1.632000089E0,1.010920914E1
1.110691598E0,-3.828000069E0,9.220950127E0,-1.747050047E0,1.013566424E1
1.112651055E0,-3.865950108E0,9.220950127E0,-1.747050047E0,1.015005790E1
1.114610606E0,-3.904950142E0,9.298050880E0,-1.747050047E0,1.023496798E1
1.116570130E0,-3.943050146E0,9.259950638E0,-1.747050047E0,1.021501415E1
1.118529851E0,-3.865950108E0,9.220950127E0,-1.747050047E0,1.015005790E1
1.120489514E0,-3.904950142E0,9.220950127E0,-1.747050047E0,1.016497618E1
1.122448866E0,-3.943050146E0,9.298050880E0,-1.671000123E0,1.023687628E1
1.124408299E0,-3.981000185E0,9.259950638E0,-1.824000120E0,1.024314526E1
1.126367676E0,-4.096050262E0,9.259950638E0,-1.900950074E0,1.030232618E1
1.128327069E0,-4.134000301E0,9.298050880E0,-1.939050078E0,1.035874625E1
1.130286407E0,-4.173000336E0,9.220950127E0,-2.014950037E0,1.031987775E1
1.132245761E0,-4.210950375E0,9.220950127E0,-2.014950037E0,1.033528171E1
1.134205200E0,-4.210950375E0,9.183000565E0,-2.014950037E0,1.030143806E1
1.136164610E0,-4.288050175E0,9.220950127E0,-2.014950037E0,1.036693393E1
1.138124171E0,-4.326000214E0,9.259950638E0,-1.977000117E0,1.041006691E1
1.140083687E0,-4.363950253E0,9.183000565E0,-1.900950074E0,1.034336369E1
1.142043185E0,-4.479000092E0,9.259950638E0,-1.900950074E0,1.046048464E1
1.144002689E0,-4.479000092E0,9.220950127E0,-1.861950040E0,1.041893569E1
1.145962058E0,-4.555950165E0,9.298050880E0,-1.786050081E0,1.050715980E1
1.147921463E0,-4.518000126E0,9.298050880E0,-1.594050050E0,1.045978350E1
1.149880709E0,-4.518000126E0,9.375000000E0,-1.594050050E0,1.052824514E1
1.151840002E0,-4.518000126E0,9.451050758E0,-1.441050053E0,1.057408676E1
1.153799582E0,-4.518000126E0,9.528000832E0,-1.402050018E0,1.063770977E1
1.155759077E0,-4.479000092E0,9.643050194E0,-1.287000060E0,1.071009935E1
1.157718587E0,-4.479000092E0,9.757950783E0,-1.249050021E0,1.080921696E1
1.159678086E0,-4.363950253E0,9.835050583E0,-1.134000063E0,1.081934554E1
1.161637272E0,-4.326000214E0,9.949950218E0,-1.171950102E0,1.091280231E1
1.163596549E0,-4.210950375E0,1.002600002E1,-1.096050024E0,1.092950617E1
1.165555637E0,-4.134000301E0,1.014105034E1,-1.057050109E0,1.100219139E1
1.167514780E0,-3.981000185E0,1.029495049E1,-1.210950017E0,1.110408789E1
1.169474025E0,-3.904950142E0,1.029495049E1,-1.057050109E0,1.106128365E1
1.171433240E0,-3.865950108E0,1.037100029E1,-1.018950105E0,1.111492135E1
1.173392789E0,-3.751050234E0,1.048605061E1,-9.420000315E-1,1.117653789E1
1.175352240E0,-3.675000191E0,1.052505016E1,-8.659500480E-1,1.118177879E1
1.177311434E0,-3.636000156E0,1.063995075E1,-8.269500136E-1,1.127443548E1
1.179270703E0,-3.445050240E0,1.067805004E1,-7.510500550E-1,1.124514117E1
1.181230311E0,-3.367950201E0,1.067805004E1,-6.739500165E-1,1.121686453E1
1.183189802E0,-3.138000250E0,1.075500011E1,-5.209500194E-1,1.121554555E1
1.185148989E0,-2.946000099E0,1.075500011E1,-4.440000355E-1,1.116002151E1
1.187108266E0,-2.830950022E0,1.079295063E1,-2.140500098E-1,1.116010209E1
1.189067353E0,-2.716050148E0,1.083105087E1,-2.205000073E-2,1.116642636E1
1.191026496E0,-2.640000105E0,1.083105087E1,9.195000678E-2,1.114852987E1
1.192984972E0,-2.524950027E0,1.087005043E1,1.680000126E-1,1.116071651E1
1.194943646E0,-2.371050119E0,1.083105087E1,3.600000143E-1,1.109338279E1
1.196902971E0,-2.179949999E0,1.083105087E1,5.130000114E-1,1.106015434E1
1.198862106E0,-2.103000164E0,1.083105087E1,7.050000429E-1,1.105582642E1
1.200821219E0,-2.103000164E0,1.083105087E1,6.660000086E-1,1.105340801E1
1.202780339E0,-1.987950087E0,1.090800095E1,7.429500222E-1,1.111253369E1
1.204739962E0,-2.026050091E0,1.090800095E1,7.429500222E-1,1.111941268E1
1.206699428E0,-1.987950087E0,1.094595051E1,7.429500222E-1,1.114978712E1
1.208658574E0,-1.987950087E0,1.098495007E1,7.810500264E-1,1.119067079E1
1.210617814E0,-1.950000048E0,1.102305031E1,8.200500607E-1,1.122419798E1
1.212577087E0,-1.950000048E0,1.106100082E1,8.580000401E-1,1.126429774E1
1.214536351E0,-1.950000048E0,1.110000038E1,8.959500194E-1,1.130554002E1
1.216495873E0,-1.911000133E0,1.110000038E1,1.011000037E0,1.130858307E1
1.218455332E0,-1.873050094E0,1.117605019E1,1.050000072E0,1.138046197E1
1.220414569E0,-1.873050094E0,1.121400070E1,1.126049995E0,1.142497777E1
1.222373872E0,-1.834950089E0,1.121400070E1,1.203000069E0,1.142663830E1
1.224333224E0,-1.795950055E0,1.129095078E1,1.240950108E0,1.150004188E1
1.226292562E0,-1.795950055E0,1.136805058E1,1.318050027E0,1.158426805E1
1.228251649E0,-1.795950055E0,1.144395065E1,1.318050027E0,1.165876061E1
1.230210804E0,-1.758000135E0,1.155900097E1,1.318050027E0,1.176598163E1
1.232170362E0,-1.720050097E0,1.155900097E1,1.356000066E0,1.176468495E1
1.234129802E0,-1.720050097E0,1.167405033E1,1.395000100E0,1.188225773E1
1.236089357E0,-1.642950058E0,1.178895092E1,1.471050024E0,1.199344141E1
1.238048879E0,-1.642950058E0,1.190400028E1,1.510050058E0,1.211134835E1
1.240008106E0,-1.567050099E0,1.194300079E1,1.548000097E0,1.214443157E1
1.241967420E0,-1.489950061E0,1.205805016E1,1.624950051E0,1.225793569E1
1.243926816E0,-1.413000107E0,1.213395023E1,1.624950051E0,1.232354577E1
1.245886187E0,-1.336950064E0,1.217295074E1,1.701000094E0,1.236371977E1
1.247845530E0,-1.260000110E0,1.217295074E1,1.740000129E0,1.236106511E1
1.249804881E0,-1.106999993E0,1.221105099E1,1.740000129E0,1.238397415E1
1.251764077E0,-9.150000215E-1,1.224900055E1,1.701000094E0,1.240034842E1
1.253723329E0,-7.999500632E-1,1.221105099E1,1.777950048E0,1.236571036E1
1.255682735E0,-6.469500065E-1,1.217295074E1,1.855050087E0,1.233046978E1
1.257642096E0,-4.549500346E-1,1.209600067E1,1.855050087E0,1.224587370E1
1.259601170E0,-3.019500077E-1,1.194300079E1,1.893000126E0,1.209586257E1
1.261560329E0,-1.099500060E-1,1.182795048E1,2.008050203E0,1.199769841E1
1.263519736E0,1.189500093E-1,1.167405033E1,2.122950077E0,1.186610792E1
1.265479081E0,2.719500065E-1,1.148295021E1,2.161050081E0,1.168769609E1
1.267439329E0,4.260000288E-1,1.121400070E1,2.200050116E0,1.143571197E1
1.269399312E0,5.790000558E-1,1.102305031E1,2.275950193E0,1.127044047E1
1.271358595E0,6.940500140E-1,1.079295063E1,2.275950193E0,1.105212369E1
1.273318083E0,8.089500666E-1,1.052505016E1,2.238000154E0,1.079072406E1
1.275277446E0,8.470500112E-1,1.029495049E1,2.238000154E0,1.056939657E1
1.277236848E0,8.850000501E-1,9.988050461E0,2.275950193E0,1.028223353E1
1.279196274E0,9.619500637E-1,9.720000267E0,2.275950193E0,1.002914266E1
1.281155692E0,9.619500637E-1,9.412950516E0,2.275950193E0,9.731851551E0
1.283115206E0,9.619500637E-1,9.145050049E0,2.200050116E0,9.455025586E0
1.285074692E0,9.619500637E-1,8.877000809E0,2.200050116E0,9.196016083E0
1.287033730E0,9.240000248E-1,8.569950104E0,2.200050116E0,8.895956460E0
1.288992910E0,8.850000501E-1,8.340000153E0,2.046000004E0,8.632783077E0
1.290952329E0,8.470500112E-1,8.071949959E0,1.893000126E0,8.334105791E0
1.292911677E0,8.470500112E-1,7.842000484E0,1.740000129E0,8.077256079E0
1.294871068E0,8.089500666E-1,7.687950134E0,1.663050056E0,7.907256981E0
1.296830447E0,7.699500322E-1,7.458000183E0,1.624950051E0,7.671704664E0
1.298789603E0,6.940500140E-1,7.342950344E0,1.510050058E0,7.528670291E0
1.300748828E0,7.320000529E-1,7.189950466E0,1.510050058E0,7.383187859E0
1.302707339E0,5.790000558E-1,7.036950111E0,1.432950020E0,7.204668882E0
1.304666059E0,5.020500422E-1,6.997950554E0,1.279950023E0,7.131734590E0
1.306625737E0,3.870000243E-1,6.922050476E0,1.165050030E0,7.030070653E0
1.308585134E0,2.719500065E-1,6.922050476E0,1.126049995E0,7.018313771E0
1.310544310E0,1.570500135E-1,6.922050476E0,1.011000037E0,6.997254360E0
1.312503570E0,4.200000316E-2,6.922050476E0,1.011000037E0,6.995617762E0
1.314463155E0,-7.200000435E-2,6.960000515E0,9.730500579E-1,7.028059304E0
1.316422644E0,-1.480500102E-1,6.960000515E0,1.050000072E0,7.040314348E0
1.318382417E0,-3.400500119E-1,7.036950111E0,1.087950110E0,7.128670025E0
1.320342106E0,-3.780000210E-1,7.113000393E0,1.050000072E0,7.200011025E0
1.322301610E0,-5.700000525E-1,7.152000427E0,1.087950110E0,7.256696605E0
1.324261175E0,-6.850500107E-1,7.228050232E0,1.087950110E0,7.341501149E0
1.326220709E0,-7.999500632E-1,7.381950378E0,1.126049995E0,7.510066583E0
1.328180252E0,-9.529500604E-1,7.458000183E0,1.126049995E0,7.602490983E0
1.330139924E0,-1.068000078E0,7.612050533E0,1.165050030E0,7.774398952E0
1.332099558E0,-1.297950029E0,7.803000450E0,1.203000069E0,8.001168631E0
1.334059056E0,-1.489950061E0,7.957050323E0,1.279950023E0,8.195905874E0
1.336018612E0,-1.605000019E0,8.110050201E0,1.318050027E0,8.371749829E0
1.337978326E0,-1.720050097E0,8.263050079E0,1.395000100E0,8.554682591E0
1.339937994E0,-1.834950089E0,8.416950226E0,1.395000100E0,8.726861877E0
1.341897691E0,-1.950000048E0,8.608050346E0,1.432950020E0,8.941721127E0
1.343857379E0,-2.065050125E0,8.800050735E0,1.471050024E0,9.158019062E0
1.345816928E0,-2.179949999E0,9.030000687E0,1.471050024E0,9.405162549E0
1.347776525E0,-2.332950115E0,9.183000565E0,1.432950020E0,9.582458002E0
1.349736008E0,-2.410050154E0,9.336000443E0,1.432950020E0,9.747953209E0
1.351695525E0,-2.410050154E0,9.412950516E0,1.395000100E0,9.816211308E0
1.353655066E0,-2.524950027E0,9.604950905E0,1.432950020E0,1.003413177E1
1.355614600E0,-2.601000071E0,9.796050072E0,1.432950020E0,1.023626612E1
1.357574345E0,-2.640000105E0,9.873000145E0,1.395000100E0,1.031463803E1
1.359534042E0,-2.601000071E0,9.988050461E0,1.432950020E0,1.042015831E1
1.361493735E0,-2.640000105E0,1.002600002E1,1.471050024E0,1.047159325E1
1.363453429E0,-2.677950144E0,1.014105034E1,1.471050024E0,1.059133170E1
1.365413075E0,-2.755050182E0,1.018005085E1,1.471050024E0,1.064836725E1
1.367372736E0,-2.677950144E0,1.025595093E1,1.432950020E0,1.069622794E1
1.369332313E0,-2.485950232E0,1.029495049E1,1.510050058E0,1.069795332E1
1.371291904E0,-2.410050154E0,1.033305073E1,1.701000094E0,1.074586806E1
1.373251388E0,-2.410050154E0,1.037100029E1,1.816050053E0,1.080111228E1
1.375210904E0,-2.410050154E0,1.029495049E1,1.701000094E0,1.070923660E1
1.377170311E0,-2.332950115E0,1.025595093E1,1.471050024E0,1.062031891E1
1.379129750E0,-2.140950203E0,1.018005085E1,1.471050024E0,1.050624059E1
1.381089304E0,-1.987950087E0,1.014105034E1,1.471050024E0,1.043823911E1
1.383048825E0,-1.758000135E0,1.006500053E1,1.471050024E0,1.032273163E1
1.385008007E0,-1.605000019E0,9.988050461E0,1.624950051E0,1.024585964E1
1.386967289E0,-1.642950058E0,9.873000145E0,1.471050024E0,1.011629403E1
1.388926690E0,-1.528050065E0,9.720000267E0,1.395000100E0,9.937774775E0
1.390886056E0,-1.336950064E0,9.565950394E0,1.318050027E0,9.748440813E0
1.392845435E0,-1.183050036E0,9.451050758E0,1.356000066E0,9.620847364E0
1.394804816E0,-1.030050039E0,9.336000443E0,1.432950020E0,9.501329018E0
1.396764337E0,-9.529500604E-1,9.259950638E0,1.432950020E0,9.418500167E0
1.398723816E0,-8.770500422E-1,9.145050049E0,1.471050024E0,9.304039195E0
1.400683186E0,-8.380500674E-1,9.067950249E0,1.395000100E0,9.212821224E0
1.402642588E0,-8.380500674E-1,8.991000175E0,1.395000100E0,9.137091296E0
1.404601988E0,-7.230000496E-1,8.953050613E0,1.318050027E0,9.078386433E0
1.406561376E0,-6.469500065E-1,8.914950371E0,1.318050027E0,9.035050653E0
1.408520579E0,-6.469500065E-1,8.877000809E0,1.356000066E0,9.003245184E0
1.410479837E0,-6.469500065E-1,8.914950371E0,1.318050027E0,9.035050653E0
1.412438883E0,-6.469500065E-1,8.914950371E0,1.356000066E0,9.040664832E0
1.414397991E0,-6.469500065E-1,8.914950371E0,1.356000066E0,9.040664832E0
1.416357661E0,-6.469500065E-1,8.914950371E0,1.395000100E0,9.046596581E0
1.418317157E0,-5.700000525E-1,8.914950371E0,1.471050024E0,9.053464991E0
1.420276703E0,-5.320500135E-1,8.838000298E0,1.395000100E0,8.963222175E0
1.422236234E0,-5.320500135E-1,8.800050735E0,1.395000100E0,8.925805031E0
1.424195415E0,-4.930500090E-1,8.722949982E0,1.432950020E0,8.853603812E0
1.426154698E0,-4.549500346E-1,8.685000420E0,1.395000100E0,8.808077946E0
1.428114104E0,-4.930500090E-1,8.647050858E0,1.471050024E0,8.785133751E0
1.430073470E0,-4.930500090E-1,8.647050858E0,1.471050024E0,8.785133751E0
1.432032858E0,-4.930500090E-1,8.647050858E0,1.432950020E0,8.778834353E0
1.433992239E0,-4.549500346E-1,8.685000420E0,1.510050058E0,8.827030248E0
1.435951760E0,-5.320500135E-1,8.722949982E0,1.510050058E0,8.868663077E0
1.437911239E0,-4.930500090E-1,8.761950493E0,1.471050024E0,8.898250554E0
1.439870627E0,-5.700000525E-1,8.722949982E0,1.471050024E0,8.864465275E0
1.441830029E0,-4.930500090E-1,8.722949982E0,1.432950020E0,8.853603812E0
1.443789635E0,-5.320500135E-1,8.685000420E0,1.432950020E0,8.818483728E0
1.445749181E0,-5.320500135E-1,8.647050858E0,1.471050024E0,8.787408829E0
1.447708674E0,-5.700000525E-1,8.722949982E0,1.510050058E0,8.871020664E0
1.449668183E0,-5.700000525E-1,8.761950493E0,1.510050058E0,8.909373024E0
1.451627527E0,-5.700000525E-1,8.838000298E0,1.510050058E0,8.984175004E0
1.453586933E0,-5.700000525E-1,8.838000298E0,1.471050024E0,8.977702239E0
1.455546358E0,-6.469500065E-1,8.914950371E0,1.471050024E0,9.058635250E0
1.457505778E0,-7.230000496E-1,8.953050613E0,1.471050024E0,9.101858740E0
1.459465472E0,-7.620000243E-1,9.030000687E0,1.471050024E0,9.180715910E0
1.461425085E0,-8.380500674E-1,9.106050491E0,1.471050024E0,9.262098663E0
1.463384472E0,-8.770500422E-1,9.183000565E0,1.510050058E0,9.347564780E0
1.465343929E0,-8.380500674E-1,9.183000565E0,1.510050058E0,9.343986219E0
1.467303435E0,-8.770500422E-1,9.106050491E0,1.548000097E0,9.278236720E0
1.469262927E0,-8.770500422E-1,9.106050491E0,1.701000094E0,9.304986494E0
1.471222473E0,-9.919500351E-1,9.145050049E0,1.548000097E0,9.328033532E0
1.473182003E0,-9.529500604E-1,9.145050049E0,1.471050024E0,9.311500544E0
1.475141738E0,-9.919500351E-1,9.183000565E0,1.471050024E0,9.352831251E0
1.477101403E0,-9.529500604E-1,9.259950638E0,1.548000097E0,9.436689246E0
1.479060966E0,-9.529500604E-1,9.375000000E0,1.585950017E0,9.555834672E0
1.481020559E0,-1.030050039E0,9.412950516E0,1.624950051E0,9.607554484E0
1.482980267E0,-1.106999993E0,9.412950516E0,1.585950017E0,9.609595405E0
1.484939942E0,-1.106999993E0,9.490050316E0,1.624950051E0,9.691592576E0
1.486899656E0,-1.222050071E0,9.528000832E0,1.585950017E0,9.736089753E0
1.488859345E0,-1.222050071E0,9.565950394E0,1.471050024E0,9.755244819E0
1.490819038E0,-1.222050071E0,9.490050316E0,1.471050024E0,9.680828970E0
1.492778730E0,-1.183050036E0,9.451050758E0,1.471050024E0,9.637736041E0
1.494738379E0,-1.144950032E0,9.336000443E0,1.471050024E0,9.520283767E0
1.496698040E0,-1.222050071E0,9.259950638E0,1.471050024E0,9.455373095E0
1.498657731E0,-1.260000110E0,9.259950638E0,1.471050024E0,9.460352756E0
1.500617417E0,-1.297950029E0,9.298050880E0,1.471050024E0,9.502758159E0
1.502576931E0,-1.413000107E0,9.336000443E0,1.432950020E0,9.550435557E0
1.504536496E0,-1.489950061E0,9.375000000E0,1.432950020E0,9.600204266E0
1.506496030E0,-1.528050065E0,9.412950516E0,1.318050027E0,9.626828672E0
1.508455573E0,-1.528050065E0,9.336000443E0,1.318050027E0,9.551601810E0
1.510414985E0,-1.528050065E0,9.298050880E0,1.432950020E0,9.531108694E0
1.512374429E0,-1.681950092E0,9.412950516E0,1.279950023E0,9.647324271E0
1.514334118E0,-1.720050097E0,9.336000443E0,1.087950110E0,9.555266194E0
1.516293735E0,-1.642950058E0,9.298050880E0,9.730500579E-1,9.492094684E0
1.518253485E0,-1.605000019E0,9.336000443E0,1.087950110E0,9.535227568E0
1.520213196E0,-1.528050065E0,9.336000443E0,1.050000072E0,9.518316102E0
1.522172726E0,-1.605000019E0,9.298050880E0,1.087950110E0,9.498074051E0
1.524132295E0,-1.642950058E0,9.336000443E0,1.165050030E0,9.550786917E0
1.526091648E0,-1.681950092E0,9.259950638E0,1.126049995E0,9.478588002E0
1.528051065E0,-1.758000135E0,9.259950638E0,1.011000037E0,9.479418303E0
1.530010938E0,-1.758000135E0,9.145050049E0,9.730500579E-1,9.363190230E0
1.531970678E0,-1.758000135E0,9.030000687E0,9.730500579E-1,9.250854193E0
1.533930043E0,-1.873050094E0,9.030000687E0,1.087950110E0,9.286165220E0
1.535889521E0,-2.065050125E0,8.914950371E0,7.429500222E-1,9.181108150E0
1.537849204E0,-1.950000048E0,8.877000809E0,5.130000114E-1,9.103121034E0
1.539808827E0,-1.834950089E0,8.838000298E0,4.360500276E-1,9.037003415E0
1.541768397E0,-1.873050094E0,8.761950493E0,5.509500504E-1,8.976839034E0
1.543727983E0,-1.911000133E0,8.722949982E0,6.660000086E-1,8.954626397E0
1.545687546E0,-1.950000048E0,8.761950493E0,5.899500251E-1,8.995683279E0
1.547647093E0,-2.026050091E0,8.761950493E0,5.509500504E-1,9.010005625E0
1.549606404E0,-2.026050091E0,8.685000420E0,4.360500276E-1,8.928843760E0
1.551565785E0,-2.065050125E0,8.722949982E0,3.220500052E-1,8.969838605E0
1.553525214E0,-2.103000164E0,8.608050346E0,3.979500234E-1,8.870146824E0
1.555484629E0,-2.179949999E0,8.647050858E0,5.899500251E-1,8.937097491E0
1.557445094E0,-2.410050154E0,8.647050858E0,2.449500114E-1,8.979968306E0
1.559405249E0,-2.295000076E0,8.647050858E0,9.195000678E-2,8.946897154E0
1.561364638E0,-2.218050003E0,8.608050346E0,5.295000225E-2,8.889380197E0
1.563324251E0,-2.179949999E0,8.647050858E0,1.300500035E-1,8.918552771E0
1.565283776E0,-2.140950203E0,8.569950104E0,2.449500114E-1,8.836725245E0
1.567243327E0,-2.179949999E0,8.493000031E0,2.070000172E-1,8.770751423E0
1.569202553E0,-2.140950203E0,8.416950226E0,1.680000126E-1,8.686595586E0
1.571161871E0,-2.140950203E0,8.302050591E0,2.070000172E-1,8.576162358E0
1.573120681E0,-2.065050125E0,8.187000275E0,1.300500035E-1,8.444425292E0
1.575079640E0,-2.065050125E0,8.032950401E0,3.220500052E-1,8.300387965E0
1.577039863E0,-2.332950115E0,8.263050079E0,3.600000143E-1,8.593616984E0
1.578999715E0,-2.332950115E0,8.377950668E0,1.300500035E-1,8.697679383E0
1.580959341E0,-2.295000076E0,8.569950104E0,-6.105000153E-2,8.872136002E0
1.582919030E0,-2.218050003E0,8.647050858E0,-1.369500011E-1,8.928045119E0
1.584878588E0,-2.218050003E0,8.685000420E0,-6.105000153E-2,8.963967046E0
1.586838184E0,-2.256000042E0,8.608050346E0,-9.900000691E-2,8.899318398E0
1.588798027E0,-2.256000042E0,8.608050346E0,-2.205000073E-2,8.898795040E0
1.590757797E0,-2.410050154E0,8.493000031E0,-3.670500219E-1,8.835955918E0
1.592717328E0,-2.485950232E0,8.416950226E0,1.680000126E-1,8.777996563E0
1.594676939E0,-2.563050032E0,8.340000153E0,2.070000172E-1,8.727409525E0
1.596636285E0,-2.524950027E0,8.263050079E0,1.300500035E-1,8.641196807E0
1.598595708E0,-2.410050154E0,8.187000275E0,1.680000126E-1,8.536014248E0
1.600555265E0,-2.371050119E0,8.148000717E0,9.195000678E-2,8.486474484E0
1.602514783E0,-2.410050154E0,8.224950790E0,5.295000225E-2,8.570936994E0
1.604474136E0,-2.410050154E0,8.224950790E0,-2.205000073E-2,8.570801797E0
1.606433544E0,-2.524950027E0,8.263050079E0,-9.900000691E-2,8.640785280E0
1.608392925E0,-2.601000071E0,8.263050079E0,-9.900000691E-2,8.663313395E0
1.610352314E0,-2.640000105E0,8.302050591E0,-1.759500057E-1,8.713472498E0
1.612311698E0,-2.716050148E0,8.340000153E0,-2.140500098E-1,8.773730584E0
1.614271083E0,-2.793000221E0,8.263050079E0,-1.369500011E-1,8.723393958E0
1.616230652E0,-2.908050060E0,8.263050079E0,-6.105000153E-2,8.760050164E0
1.618190163E0,-3.100050211E0,8.302050591E0,5.295000225E-2,8.862119330E0
1.620149482E0,-3.061050177E0,8.340000153E0,-1.759500057E-1,8.885752030E0
1.622108857E0,-2.946000099E0,8.377950668E0,-2.910000086E-1,8.885586924E0
1.624068242E0,-2.869950056E0,8.377950668E0,-2.910000086E-1,8.860663165E0
1.626027624E0,-2.869950056E0,8.340000153E0,-2.140500098E-1,8.822586541E0
1.627986690E0,-2.946000099E0,8.377950668E0,-2.140500098E-1,8.883399765E0
1.629945852E0,-3.022950172E0,8.455050468E0,-1.759500057E-1,8.980927824E0
1.631905274E0,-3.100050211E0,8.455050468E0,-1.369500011E-1,9.006494603E0
1.633864619E0,-3.214950085E0,8.493000031E0,-1.759500057E-1,9.082836119E0
1.635824191E0,-3.291000128E0,8.493000031E0,-1.759500057E-1,9.110032369E0
1.637783696E0,-3.445050240E0,8.340000153E0,-2.140500098E-1,9.026061772E0
1.639743104E0,-3.520950079E0,8.455050468E0,-2.205000073E-2,9.158900266E0
1.641702510E0,-3.520950079E0,8.493000031E0,-2.520000041E-1,9.197371526E0
1.643662025E0,-3.330000162E0,8.532000542E0,-4.440000355E-1,9.169573074E0
1.645621508E0,-3.175950050E0,8.532000542E0,-4.060500264E-1,9.112989004E0
1.647580742E0,-3.138000250E0,8.532000542E0,-3.289500177E-1,9.096718470E0
1.649540049E0,-3.061050177E0,8.532000542E0,-2.910000086E-1,9.069164373E0
1.651499756E0,-3.061050177E0,8.493000031E0,-2.140500098E-1,9.030331949E0
1.653459350E0,-3.138000250E0,8.455050468E0,-1.759500057E-1,9.020303897E0
1.655418925E0,-3.330000162E0,8.340000153E0,-6.105000153E-2,8.980435999E0
1.657378506E0,-3.406050205E0,8.569950104E0,-2.205000073E-2,9.222023042E0
1.659337992E0,-3.175950050E0,8.493000031E0,-9.900000691E-2,9.067938533E0
1.661297506E0,-2.985000134E0,8.532000542E0,-1.759500057E-1,9.040808451E0
1.663256733E0,-2.908050060E0,8.532000542E0,-6.105000153E-2,9.014184128E0
1.665216044E0,-2.793000221E0,8.493000031E0,1.500000060E-2,8.940476763E0
1.667175081E0,-2.830950022E0,8.532000542E0,5.295000225E-2,8.989555883E0
1.669134198E0,-2.755050182E0,8.608050346E0,1.680000126E-1,9.039748684E0
1.671093763E0,-2.793000221E0,8.608050346E0,2.070000172E-1,9.052194762E0
1.673053196E0,-2.869950056E0,8.608050346E0,2.830500007E-1,9.078285157E0
1.675011684E0,-2.985000134E0,8.569950104E0,4.360500276E-1,9.085395435E0
1.676970473E0,-3.022950172E0,8.761950493E0,4.750500321E-1,9.280930811E0
1.678930138E0,-2.830950022E0,8.722949982E0,3.220500052E-1,9.176483565E0
1.680889547E0,-2.640000105E0,8.877000809E0,3.220500052E-1,9.266847367E0
1.682848749E0,-2.563050032E0,8.877000809E0,5.130000114E-1,9.253839086E0
1.684808011E0,-2.485950232E0,8.953050613E0,5.509500504E-1,9.308093779E0
1.686767389E0,-2.485950232E0,8.953050613E0,7.050000429E-1,9.318481040E0
1.688726720E0,-2.563050032E0,9.067950249E0,7.429500222E-1,9.452455867E0
1.690686159E0,-2.485950232E0,9.067950249E0,8.200500607E-1,9.438228243E0
1.692645567E0,-2.485950232E0,9.145050049E0,8.580000401E-1,9.515674071E0
1.694605263E0,-2.524950027E0,9.183000565E0,8.959500194E-1,9.565855866E0
1.696564874E0,-2.524950027E0,9.220950127E0,9.349500537E-1,9.606009863E0
1.698524202E0,-2.524950027E0,9.298050880E0,9.730500579E-1,9.683798285E0
1.700483626E0,-2.563050032E0,9.298050880E0,9.730500579E-1,9.693802250E0
1.702442869E0,-2.677950144E0,9.220950127E0,1.126049995E0,9.667746728E0
1.704402165E0,-2.755050182E0,9.451050758E0,1.240950108E0,9.922329319E0
1.706361744E0,-2.563050032E0,9.451050758E0,1.087950110E0,9.852675847E0
1.708321240E0,-2.332950115E0,9.528000832E0,1.011000037E0,9.861418618E0
1.710280566E0,-2.218050003E0,9.565950394E0,1.087950110E0,9.879817215E0
1.712239939E0,-2.179949999E0,9.643050194E0,1.087950110E0,9.946066282E0
1.714199685E0,-2.218050003E0,9.681000710E0,1.203000069E0,1.000443550E1
1.716159322E0,-2.218050003E0,9.757950783E0,1.203000069E0,1.007891653E1
1.718118845E0,-2.256000042E0,9.835050583E0,1.165050030E0,1.015751435E1
1.720078401E0,-2.295000076E0,9.910950661E0,1.203000069E0,1.024408012E1
1.722037650E0,-2.410050154E0,9.757950783E0,1.240950108E0,1.012748253E1
1.723996968E0,-2.563050032E0,1.002600002E1,1.395000100E0,1.044202697E1
1.725956318E0,-2.448000193E0,1.006500053E1,1.126049995E0,1.041944957E1
1.727915659E0,-2.179949999E0,1.018005085E1,9.730500579E-1,1.045621555E1
1.729875096E0,-1.987950087E0,1.014105034E1,1.087950110E0,1.039117332E1
1.731834505E0,-1.873050094E0,1.014105034E1,1.050000072E0,1.036589209E1
1.733793872E0,-1.834950089E0,1.018005085E1,1.165050030E0,1.040950617E1
1.735753262E0,-1.834950089E0,1.025595093E1,1.165050030E0,1.048374517E1
1.737713140E0,-1.873050094E0,1.021800041E1,1.203000069E0,1.045767939E1
1.739672875E0,-1.834950089E0,1.018005085E1,1.126049995E0,1.040521339E1
1.741632426E0,-2.065050125E0,1.018005085E1,1.203000069E0,1.045681962E1
1.743592031E0,-2.140950203E0,1.033305073E1,9.349500537E-1,1.059385372E1
1.745551538E0,-1.987950087E0,1.037100029E1,7.429500222E-1,1.058591363E1
1.747511088E0,-1.758000135E0,1.037100029E1,7.429500222E-1,1.054514989E1
1.749470624E0,-1.642950058E0,1.044795036E1,8.200500607E-1,1.060808342E1
1.751430165E0,-1.567050099E0,1.041000080E1,9.730500579E-1,1.057216104E1
1.753389658E0,-1.605000019E0,1.018005085E1,1.126049995E0,1.036713311E1
1.755349165E0,-1.834950089E0,1.041000080E1,1.050000072E0,1.062250717E1
1.757308689E0,-1.758000135E0,1.044795036E1,8.200500607E-1,1.062650993E1
1.759268221E0,-1.567050099E0,1.052505016E1,7.050000429E-1,1.066439647E1
1.761227941E0,-1.489950061E0,1.037100029E1,7.429500222E-1,1.050378850E1
1.763187606E0,-1.567050099E0,1.037100029E1,9.730500579E-1,1.053376094E1
1.765146763E0,-1.642950058E0,1.048605061E1,8.200500607E-1,1.064561057E1
1.767106069E0,-1.605000019E0,1.044795036E1,7.050000429E-1,1.059399438E1
1.769065471E0,-1.528050065E0,1.044795036E1,5.509500504E-1,1.057346442E1
1.771024841E0,-1.567050099E0,1.044795036E1,5.899500251E-1,1.058127373E1
1.772984229E0,-1.605000019E0,1.033305073E1,7.050000429E-1,1.048069594E1
1.774943611E0,-1.642950058E0,1.021800041E1,9.730500579E-1,1.039488546E1
1.776902862E0,-1.987950087E0,1.041000080E1,7.429500222E-1,1.062412523E1
1.778862151E0,-1.911000133E0,1.029495049E1,6.280500293E-1,1.048963173E1
1.780821356E0,-1.911000133E0,1.025595093E1,6.280500293E-1,1.045135866E1
1.782780565E0,-2.026050091E0,1.025595093E1,5.509500504E-1,1.046866536E1
1.784739843E0,-2.026050091E0,1.018005085E1,4.360500276E-1,1.038886201E1
1.786699101E0,-2.065050125E0,1.021800041E1,4.360500276E-1,1.043370040E1
1.788658868E0,-2.140950203E0,1.021800041E1,3.220500052E-1,1.044485119E1
1.790618486E0,-2.179949999E0,1.021800041E1,3.220500052E-1,1.045291493E1
1.792577641E0,-2.295000076E0,1.014105034E1,2.830500007E-1,1.040134821E1
1.794536939E0,-2.371050119E0,1.014105034E1,3.600000143E-1,1.042076680E1
1.796496698E0,-2.410050154E0,1.010295010E1,2.830500007E-1,1.039028680E1
1.798456322E0,-2.563050032E0,1.006500053E1,3.220500052E-1,1.039120674E1
1.800415487E0,-2.563050032E0,9.873000145E0,3.600000143E-1,1.020661341E1
1.802374786E0,-2.755050182E0,9.949950218E0,5.130000114E-1,1.033706824E1
1.804335406E0,-3.022950172E0,1.002600002E1,1.300500035E-1,1.047262227E1
1.806295635E0,-2.985000134E0,9.949950218E0,1.500000060E-2,1.038806816E1
1.808255101E0,-3.022950172E0,1.002600002E1,-6.105000153E-2,1.047199271E1
1.810214791E0,-2.985000134E0,1.006500053E1,1.680000126E-1,1.049965169E1
1.812173402E0,-3.022950172E0,1.006500053E1,2.070000172E-1,1.051119938E1
1.814132329E0,-2.985000134E0,1.010295010E1,4.750500321E-1,1.054540179E1
1.816091961E0,-2.908050060E0,1.018005085E1,6.280500293E-1,1.060587749E1
1.818051394E0,-2.946000099E0,1.018005085E1,5.509500504E-1,1.061206379E1
1.820011086E0,-2.908050060E0,1.018005085E1,5.130000114E-1,1.059968676E1
1.821970702E0,-2.908050060E0,1.025595093E1,3.979500234E-1,1.066769182E1
1.823930407E0,-2.908050060E0,1.033305073E1,3.600000143E-1,1.074049778E1
1.825890086E0,-2.908050060E0,1.041000080E1,4.750500321E-1,1.081898999E1
1.827849637E0,-2.908050060E0,1.044795036E1,4.750500321E-1,1.085550987E1
1.829809232E0,-2.946000099E0,1.048605061E1,5.130000114E-1,1.090409753E1
1.831768895E0,-2.985000134E0,1.056300068E1,5.899500251E-1,1.099250882E1
1.833728538E0,-2.985000134E0,1.048605061E1,7.050000429E-1,1.092540654E1
1.835688419E0,-3.061050177E0,1.052505016E1,9.349500537E-1,1.100094726E1
1.837648230E0,-3.291000128E0,1.075500011E1,6.660000086E-1,1.126695457E1
1.839607728E0,-3.253050089E0,1.075500011E1,5.130000114E-1,1.124791231E1
1.841567314E0,-3.100050211E0,1.067805004E1,7.050000429E-1,1.114127861E1
1.843526844E0,-3.100050211E0,1.071600056E1,9.349500537E-1,1.119451253E1
1.845486391E0,-3.214950085E0,1.087005043E1,8.959500194E-1,1.137086746E1
1.847445748E0,-3.138000250E0,1.090800095E1,7.810500264E-1,1.137723909E1
1.849405160E0,-3.022950172E0,1.094595051E1,9.730500579E-1,1.139731928E1
1.851364714E0,-2.908050060E0,1.098495007E1,1.087950110E0,1.141531947E1
1.853324230E0,-2.946000099E0,1.102305031E1,1.126049995E0,1.146536276E1
1.855283818E0,-2.908050060E0,1.110000038E1,1.203000069E0,1.153750288E1
1.857243384E0,-2.830950022E0,1.110000038E1,1.165050030E0,1.151440958E1
1.859203278E0,-2.830950022E0,1.110000038E1,1.279950023E0,1.152660221E1
1.861163076E0,-2.869950056E0,1.113795090E1,1.395000100E0,1.158605148E1
1.863122872E0,-2.793000221E0,1.106100082E1,1.471050024E0,1.150263351E1
1.865082678E0,-2.755050182E0,1.110000038E1,1.471050024E0,1.153101462E1
1.867042397E0,-2.716050148E0,1.110000038E1,1.548000097E0,1.153183598E1
1.869002141E0,-2.716050148E0,1.106100082E1,1.548000097E0,1.149430172E1
1.870961959E0,-2.677950144E0,1.102305031E1,1.701000094E0,1.147050375E1
1.872921755E0,-2.524950027E0,1.087005043E1,2.046000004E0,1.134546099E1
1.874881264E0,-2.716050148E0,1.087005043E1,2.161050081E0,1.141074328E1
1.876840848E0,-2.755050182E0,1.098495007E1,2.008050203E0,1.150181269E1
1.878800063E0,-2.640000105E0,1.094595051E1,2.085000038E0,1.145122955E1
1.880759386E0,-2.485950232E0,1.090800095E1,2.353049994E0,1.143246594E1
1.882718960E0,-2.448000193E0,1.094595051E1,2.620950222E0,1.151850327E1
1.884678461E0,-2.410050154E0,1.087005043E1,2.812950134E0,1.148385939E1
1.886637796E0,-2.371050119E0,1.087005043E1,2.928000212E0,1.150448001E1
1.888597170E0,-2.295000076E0,1.083105087E1,2.965950251E0,1.146191735E1
1.890556556E0,-2.256000042E0,1.083105087E1,3.004050255E0,1.146409687E1
1.892515938E0,-2.140950203E0,1.079295063E1,3.004050255E0,1.140595323E1
1.894475189E0,-2.103000164E0,1.071600056E1,3.081000090E0,1.134671050E1
1.896434478E0,-1.987950087E0,1.067805004E1,3.196050167E0,1.132198900E1
1.898393878E0,-1.950000048E0,1.060095024E1,3.310950041E0,1.127586078E1
1.900353245E0,-1.834950089E0,1.060095024E1,3.388050079E0,1.127945350E1
1.902312454E0,-1.795950055E0,1.056300068E1,3.463950157E0,1.126061147E1
1.904271709E0,-1.720050097E0,1.052505016E1,3.579000235E0,1.124919979E1
1.906231070E0,-1.567050099E0,1.048605061E1,3.618000269E0,1.120280453E1
1.908190399E0,-1.489950061E0,1.041000080E1,3.694050074E0,1.114603399E1
1.910149414E0,-1.336950064E0,1.041000080E1,3.733050108E0,1.113962366E1
1.912108535E0,-1.297950029E0,1.029495049E1,3.655950069E0,1.100166581E1
1.914067649E0,-1.106999993E0,1.029495049E1,3.694050074E0,1.099351902E1
1.916026766E0,-1.030050039E0,1.021800041E1,3.694050074E0,1.091396085E1
1.917986376E0,-7.999500632E-1,1.010295010E1,3.655950069E0,1.077383366E1
1.919945841E0,-6.850500107E-1,1.006500053E1,3.618000269E0,1.071743697E1
1.921905213E0,-4.549500346E-1,1.002600002E1,3.733050108E0,1.070809596E1
1.923864612E0,-1.870500147E-1,9.910950661E0,3.733050108E0,1.059233656E1
1.925823994E0,4.050000105E-3,9.910950661E0,3.847950220E0,1.063172988E1
1.927783381E0,1.189500093E-1,9.835050583E0,4.000950336E0,1.061837900E1
1.929742944E0,2.719500065E-1,9.720000267E0,4.078050137E0,1.054432809E1
1.931702456E0,4.260000288E-1,9.643050194E0,4.039050102E0,1.046345157E1
1.933662559E0,6.169500351E-1,9.565950394E0,4.078050137E0,1.041722262E1
1.935622475E0,8.089500666E-1,9.451050758E0,3.963000298E0,1.028018152E1
1.937582085E0,1.039050102E0,9.336000443E0,3.886050224E0,1.016572259E1
1.939541785E0,1.192050099E0,9.220950127E0,3.886050224E0,1.007711720E1
1.941501476E0,1.306950092E0,9.145050049E0,3.808950186E0,9.992405139E0
1.943461170E0,1.384050012E0,9.067950249E0,3.808950186E0,9.932342003E0
1.945420566E0,1.269000053E0,8.953050613E0,3.694050074E0,9.767982513E0
1.947380036E0,1.114950061E0,8.877000809E0,3.541050196E0,9.622021279E0
1.949339406E0,1.345050097E0,8.877000809E0,3.808950186E0,9.752866483E0
1.951298805E0,1.614000082E0,8.722949982E0,3.694050074E0,9.609415102E0
1.953258366E0,2.074050188E0,8.685000420E0,3.541050196E0,9.605725010E0
1.955217880E0,2.188950062E0,8.608050346E0,3.388050079E0,9.506256702E0
1.957177403E0,2.380050182E0,8.569950104E0,3.234000206E0,9.464007660E0
1.959136937E0,2.533950090E0,8.532000542E0,3.196050167E0,9.456779207E0
1.961096432E0,2.572050095E0,8.569950104E0,3.118950129E0,9.475617994E0
1.963055939E0,2.649000168E0,8.532000542E0,3.004050255E0,9.425314481E0
1.965015482E0,2.610000134E0,8.493000031E0,2.928000212E0,9.355016593E0
1.966975014E0,2.610000134E0,8.493000031E0,2.812950134E0,9.319647991E0
1.968934575E0,2.572050095E0,8.455050468E0,2.773950100E0,9.262727421E0
1.970894144E0,2.494950056E0,8.493000031E0,2.620950222E0,9.231749854E0
1.972854173E0,2.380050182E0,8.493000031E0,2.545050144E0,9.180030971E0
1.974814067E0,1.575000048E0,8.455050468E0,9.730500579E-1,8.655364232E0
1.976773591E0,1.729050040E0,8.608050346E0,1.432950020E0,8.896150323E0
1.978733223E0,1.729050040E0,8.569950104E0,1.893000126E0,8.945228242E0
1.980692900E0,1.690050125E0,8.647050858E0,2.200050116E0,9.081188164E0
1.982652581E0,1.537050128E0,8.800050735E0,2.238000154E0,9.209346379E0
1.984612455E0,1.498950124E0,8.877000809E0,2.506050110E0,9.344960245E0
1.986572273E0,1.306950092E0,8.914950371E0,2.161050081E0,9.265775527E0
1.988532304E0,1.269000053E0,9.145050049E0,2.238000154E0,9.500049801E0
1.990492273E0,1.153950095E0,9.336000443E0,2.314950228E0,9.687698367E0
1.992451290E0,8.470500112E-1,9.451050758E0,2.085000038E0,9.715301298E0
1.994410617E0,4.639500082E-1,9.643050194E0,1.816050053E0,9.823528106E0
1.996370010E0,2.340000123E-1,9.873000145E0,1.624950051E0,1.000856386E1
1.998329384E0,4.050000105E-3,9.988050461E0,1.585950017E0,1.011317981E1
2.000288815E0,-3.019500077E-1,1.025595093E1,1.585950017E0,1.038224160E1
2.002248230E0,-4.930500090E-1,1.056300068E1,1.624950051E0,1.069862348E1
2.004207621E0,-5.700000525E-1,1.071600056E1,1.585950017E0,1.084770969E1
2.006167012E0,-6.850500107E-1,1.083105087E1,1.548000097E0,1.096253898E1
2.008126215E0,-7.230000496E-1,1.094595051E1,1.510050058E0,1.107324762E1
2.010085473E0,-8.770500422E-1,1.106100082E1,1.510050058E0,1.119800014E1
2.012044834E0,-9.919500351E-1,1.113795090E1,1.471050024E0,1.127838212E1
2.014004164E0,-1.183050036E0,1.125300026E1,1.471050024E0,1.141024147E1
2.015964264E0,-1.375050068E0,1.136805058E1,1.432950020E0,1.154022020E1
2.017924149E0,-1.758000135E0,1.129095078E1,-9.900000691E-2,1.142742031E1
2.019882773E0,-1.605000019E0,1.159800053E1,8.959500194E-1,1.174275810E1
2.021841766E0,-1.642950058E0,1.171305084E1,1.893000126E0,1.197824254E1
2.023801352E0,-1.834950089E0,1.167405033E1,1.740000129E0,1.194479357E1
2.025760764E0,-1.987950087E0,1.163595009E1,1.510050058E0,1.190073658E1
2.027720329E0,-2.026050091E0,1.159800053E1,1.395000100E0,1.185599091E1
2.029679846E0,-2.103000164E0,1.152105045E1,1.126049995E0,1.176542400E1
2.031639254E0,-2.103000164E0,1.152105045E1,9.730500579E-1,1.175176751E1
2.033598694E0,-2.140950203E0,1.144395065E1,8.580000401E-1,1.167406692E1
2.035558024E0,-2.140950203E0,1.132905006E1,6.660000086E-1,1.154879211E1
2.037517386E0,-2.218050003E0,1.129095078E1,6.280500293E-1,1.152387791E1
2.039476838E0,-2.295000076E0,1.110000038E1,5.899500251E-1,1.135011343E1
2.041436250E0,-2.371050119E0,1.090800095E1,7.050000429E-1,1.118496260E1
2.043395586E0,-2.485950232E0,1.083105087E1,8.200500607E-1,1.114289431E1
2.045354944E0,-2.371050119E0,1.075500011E1,7.810500264E-1,1.104092140E1
2.047314377E0,-2.218050003E0,1.063995075E1,8.580000401E-1,1.090249797E1
2.049273788E0,-2.179949999E0,1.048605061E1,7.429500222E-1,1.073598687E1
2.051233937E0,-2.103000164E0,1.033305073E1,3.220500052E-1,1.054979920E1
2.053193836E0,-2.179949999E0,9.988050461E0,-9.810000658E-1,1.027013608E1
2.055152413E0,-1.911000133E0,1.010295010E1,1.500000060E-2,1.028210811E1
2.057111377E0,-1.950000048E0,1.014105034E1,1.126049995E0,1.038804076E1
2.059071148E0,-2.140950203E0,1.006500053E1,1.203000069E0,1.036026605E1
2.061030682E0,-2.140950203E0,1.002600002E1,9.349500537E-1,1.029458478E1
2.062991094E0,-2.140950203E0,9.873000145E0,5.899500251E-1,1.011967592E1
2.064951269E0,-2.218050003E0,9.796050072E0,2.070000172E-1,1.004615309E1
2.066910924E0,-2.256000042E0,9.757950783E0,1.500000060E-2,1.001535644E1
2.068870732E0,-2.218050003E0,9.720000267E0,-1.369500011E-1,9.970802691E0
2.070830405E0,-2.218050003E0,9.681000710E0,-1.759500057E-1,9.933402184E0
2.072790117E0,-2.218050003E0,9.604950905E0,-2.910000086E-1,9.862023560E0
2.074749612E0,-2.256000042E0,9.220950127E0,-1.671000123E0,9.638863981E0
2.076709180E0,-1.911000133E0,9.528000832E0,-7.120500207E-1,9.743805036E0
2.078668128E0,-2.026050091E0,9.528000832E0,1.500000060E-2,9.741042235E0
2.080627257E0,-2.026050091E0,9.604950905E0,3.979500234E-1,9.824374030E0
2.082587405E0,-2.026050091E0,9.643050194E0,8.580000401E-1,9.890877619E0
2.084547255E0,-2.140950203E0,9.451050758E0,2.449500114E-1,9.693607621E0
2.086506360E0,-1.911000133E0,9.565950394E0,5.509500504E-1,9.770510447E0
2.088465698E0,-1.834950089E0,9.643050194E0,1.203000069E0,9.889523145E0
2.090425315E0,-1.911000133E0,9.565950394E0,1.087950110E0,9.815445170E0
2.092384850E0,-1.834950089E0,9.565950394E0,6.660000086E-1,9.763094017E0
2.094345651E0,-1.911000133E0,9.412950516E0,3.220500052E-1,9.610373308E0
2.096306081E0,-1.873050094E0,9.412950516E0,5.295000225E-2,9.597643344E0
2.098265647E0,-1.873050094E0,9.298050880E0,-9.900000691E-2,9.485350169E0
2.100225467E0,-1.950000048E0,9.183000565E0,-2.910000086E-1,9.392267062E0
2.102185452E0,-2.218050003E0,8.647050858E0,-1.977000117E0,9.143290645E0
2.104145389E0,-1.795950055E0,8.838000298E0,-1.363950014E0,9.121186628E0
2.106104860E0,-1.987950087E0,8.877000809E0,-2.910000086E-1,9.101525691E0
2.108064468E0,-2.026050091E0,8.877000809E0,9.195000678E-2,9.105738692E0
2.110022953E0,-2.026050091E0,8.991000175E0,3.979500234E-1,9.225038068E0
2.111981770E0,-1.987950087E0,9.030000687E0,5.509500504E-1,9.262634825E0
2.113941251E0,-1.950000048E0,9.067950249E0,4.360500276E-1,9.285491992E0
2.115900537E0,-1.834950089E0,9.106050491E0,3.979500234E-1,9.297610532E0
2.117860119E0,-1.720050097E0,9.067950249E0,5.509500504E-1,9.246071599E0
2.119819614E0,-1.795950055E0,8.991000175E0,5.130000114E-1,9.182956483E0
2.121779817E0,-1.795950055E0,8.877000809E0,2.449500114E-1,9.060164483E0
2.123739826E0,-1.758000135E0,8.761950493E0,-2.205000073E-2,8.936600423E0
2.125699510E0,-1.758000135E0,8.647050858E0,-2.910000086E-1,8.828744759E0
2.127659290E0,-1.720050097E0,8.532000542E0,-4.060500264E-1,8.713121266E0
2.129618607E0,-1.642950058E0,8.455050468E0,-4.440000355E-1,8.624633288E0
2.131578059E0,-1.642950058E0,8.416950226E0,-4.060500264E-1,8.585406957E0
2.133537422E0,-1.642950058E0,8.302050591E0,-4.819500148E-1,8.476768530E0
2.135496818E0,-1.642950058E0,8.263050079E0,-4.819500148E-1,8.438575551E0
2.137456380E0,-1.605000019E0,8.263050079E0,-4.819500148E-1,8.431269032E0
2.139415893E0,-1.642950058E0,8.224950790E0,-5.590500236E-1,8.406047664E0
2.141375571E0,-1.642950058E0,8.110050201E0,-5.970000029E-1,8.296300872E0
2.143335201E0,-1.642950058E0,8.110050201E0,-6.739500165E-1,8.302192950E0
2.145294964E0,-1.873050094E0,7.458000183E0,-2.130000114E0,7.979159346E0
2.147254677E0,-1.375050068E0,7.650000572E0,-1.632000089E0,7.942083841E0
2.149214501E0,-1.642950058E0,7.803000450E0,-5.590500236E-1,7.993662355E0
2.151174293E0,-1.720050097E0,7.842000484E0,-5.209500194E-1,8.045305019E0
2.153134014E0,-1.795950055E0,8.148000717E0,9.195000678E-2,8.344088152E0
2.155093756E0,-1.795950055E0,8.224950790E0,2.449500114E-1,8.422306846E0
2.157053249E0,-1.873050094E0,8.224950790E0,1.300500035E-1,8.436530398E0
2.159012823E0,-1.950000048E0,8.263050079E0,-2.520000041E-1,8.493762464E0
2.160972355E0,-1.911000133E0,8.224950790E0,-7.120500207E-1,8.474004499E0
2.162931900E0,-1.911000133E0,8.187000275E0,-9.810000658E-1,8.464115792E0
2.164891212E0,-1.834950089E0,8.148000717E0,-1.096050024E0,8.423673971E0
2.166850593E0,-1.873050094E0,8.148000717E0,-1.096050024E0,8.432055384E0
2.168810411E0,-1.834950089E0,8.148000717E0,-1.134000063E0,8.428695846E0
2.170770081E0,-1.795950055E0,8.110050201E0,-1.018950105E0,8.368787856E0
2.172729733E0,-1.795950055E0,8.110050201E0,-9.420000315E-1,8.359767636E0
2.174689391E0,-1.720050097E0,8.110050201E0,-7.890000343E-1,8.327905358E0
2.176648954E0,-1.795950055E0,8.032950401E0,-7.120500207E-1,8.262006051E0
2.178608545E0,-1.758000135E0,8.071949959E0,-7.120500207E-1,8.291800519E0
2.180568222E0,-1.720050097E0,8.110050201E0,-7.120500207E-1,8.320967602E0
2.182527864E0,-1.758000135E0,8.110050201E0,-7.120500207E-1,8.328895123E0
2.184487565E0,-1.720050097E0,8.110050201E0,-7.120500207E-1,8.320967602E0
2.186447249E0,-1.720050097E0,8.148000717E0,-7.120500207E-1,8.357960472E0
2.188406583E0,-1.681950092E0,8.071949959E0,-7.890000343E-1,8.282985772E0
2.190366020E0,-1.681950092E0,8.187000275E0,-6.739500165E-1,8.385114086E0
2.192325810E0,-1.720050097E0,8.148000717E0,-6.360000372E-1,8.351825194E0
2.194285490E0,-1.720050097E0,8.187000275E0,-6.360000372E-1,8.389877346E0
2.196245140E0,-1.720050097E0,8.224950790E0,-5.590500236E-1,8.421456214E0
2.198204799E0,-1.720050097E0,8.263050079E0,-5.970000029E-1,8.461263378E0
2.200164677E0,-1.720050097E0,8.187000275E0,-6.360000372E-1,8.389877346E0
2.202124490E0,-1.605000019E0,8.071949959E0,-9.810000658E-1,8.288230350E0
2.204083847E0,-1.642950058E0,7.458000183E0,-2.245050192E0,7.959981281E0
2.206043338E0,-1.375050068E0,7.650000572E0,-2.092050076E0,8.049220146E0
2.208003064E0,-1.336950064E0,7.918050289E0,-4.819500148E-1,8.044577781E0
2.209962721E0,-1.605000019E0,7.995000362E0,-3.289500177E-1,8.161143545E0
2.211922375E0,-1.567050099E0,8.110050201E0,-2.520000041E-1,8.263901275E0
2.213882030E0,-1.642950058E0,8.110050201E0,-5.590500236E-1,8.293656376E0
2.215841708E0,-1.642950058E0,8.416950226E0,-2.140500098E-1,8.578470342E0
2.217801393E0,-1.720050097E0,8.569950104E0,-1.369500011E-1,8.741931847E0
2.219760727E0,-1.795950055E0,8.608050346E0,-3.670500219E-1,8.801062043E0
2.221720164E0,-1.834950089E0,8.647050858E0,-6.739500165E-1,8.865254592E0
2.223679405E0,-1.834950089E0,8.608050346E0,-9.420000315E-1,8.851719418E0
2.225638703E0,-1.758000135E0,8.608050346E0,-1.096050024E0,8.853836507E0
2.227598253E0,-1.720050097E0,8.569950104E0,-1.096050024E0,8.809310005E0
2.229557749E0,-1.681950092E0,8.569950104E0,-1.018950105E0,8.792682197E0
2.231517430E0,-1.795950055E0,8.608050346E0,-1.018950105E0,8.852244161E0
2.233477057E0,-1.758000135E0,8.493000031E0,-9.810000658E-1,8.728343206E0
2.235436761E0,-1.834950089E0,8.071949959E0,-1.786050081E0,8.468376046E0
2.237396442E0,-1.681950092E0,7.765050411E0,-2.743950129E0,8.405606838E0
2.239356166E0,-1.528050065E0,8.071949959E0,-1.134000063E0,8.293206212E0
2.241315888E0,-1.758000135E0,8.187000275E0,-1.369500011E-1,8.374741386E0
2.243275531E0,-1.795950055E0,8.224950790E0,-1.369500011E-1,8.419857921E0
2.245235198E0,-1.873050094E0,8.377950668E0,1.300500035E-1,8.585760715E0
2.247194714E0,-1.987950087E0,8.377950668E0,-2.205000073E-2,8.610603298E0
2.249154275E0,-2.103000164E0,8.416950226E0,-5.209500194E-1,8.691320367E0
2.251113508E0,-2.140950203E0,8.377950668E0,-1.018950105E0,8.707007780E0
2.253072827E0,-2.140950203E0,8.302050591E0,-1.249050021E0,8.664169766E0
2.255032222E0,-2.140950203E0,8.263050079E0,-1.249050021E0,8.626806497E0
2.256991595E0,-2.065050125E0,8.148000717E0,-1.171950102E0,8.486920216E0
2.258950757E0,-2.065050125E0,8.110050201E0,-9.810000658E-1,8.426132412E0
2.260909981E0,-2.026050091E0,8.110050201E0,-9.810000658E-1,8.416659335E0
2.262869398E0,-2.065050125E0,8.071949959E0,-8.659500480E-1,8.376793995E0
2.264828754E0,-2.065050125E0,7.995000362E0,-8.659500480E-1,8.302670191E0
2.266788009E0,-2.065050125E0,7.995000362E0,-8.659500480E-1,8.302670191E0
2.268747294E0,-2.026050091E0,7.995000362E0,-7.510500550E-1,8.281846772E0
2.270706875E0,-2.103000164E0,7.918050289E0,-7.890000343E-1,8.230470893E0
2.272666369E0,-2.065050125E0,7.879950523E0,-7.510500550E-1,8.180594627E0
2.274625875E0,-2.179949999E0,7.842000484E0,-7.120500207E-1,8.170444837E0
2.276585374E0,-2.140950203E0,7.842000484E0,-7.510500550E-1,8.163621473E0
2.278544919E0,-2.140950203E0,7.842000484E0,-7.510500550E-1,8.163621473E0
2.280504451E0,-2.103000164E0,7.803000450E0,-7.510500550E-1,8.116249251E0
2.282463991E0,-2.026050091E0,7.765050411E0,-7.890000343E-1,8.063709315E0
2.284423528E0,-1.987950087E0,7.803000450E0,-7.510500550E-1,8.087202097E0
2.286383437E0,-2.026050091E0,7.842000484E0,-7.890000343E-1,8.137835807E0
2.288343230E0,-2.065050125E0,7.803000450E0,-7.510500550E-1,8.106498888E0
2.290302771E0,-1.987950087E0,7.803000450E0,-7.890000343E-1,8.090814707E0
2.292262386E0,-1.987950087E0,7.765050411E0,-8.269500136E-1,8.058027039E0
2.294222225E0,-1.950000048E0,7.803000450E0,-8.659500480E-1,8.089449035E0
2.296181999E0,-1.911000133E0,7.842000484E0,-7.890000343E-1,8.109957716E0
2.298141498E0,-1.873050094E0,7.842000484E0,-7.510500550E-1,8.097491243E0
2.300101078E0,-1.834950089E0,7.879950523E0,-7.890000343E-1,8.129156361E0
2.302060969E0,-1.873050094E0,7.879950523E0,-8.659500480E-1,8.145661814E0
2.304020769E0,-1.758000135E0,7.842000484E0,-9.420000315E-1,8.091656205E0
2.305980489E0,-1.834950089E0,7.957050323E0,-1.018950105E0,8.229213267E0
2.307940232E0,-1.834950089E0,7.918050289E0,-1.018950105E0,8.191509112E0
2.309899880E0,-1.758000135E0,7.957050323E0,-9.810000658E-1,8.207775305E0
2.311859549E0,-1.758000135E0,7.879950523E0,-1.096050024E0,8.147730382E0
2.313819065E0,-1.720050097E0,7.918050289E0,-1.096050024E0,8.176516274E0
2.315778626E0,-1.758000135E0,7.918050289E0,-1.171950102E0,8.195093160E0
2.317738205E0,-1.795950055E0,7.957050323E0,-1.171950102E0,8.240967995E0
2.319697778E0,-1.834950089E0,8.071949959E0,-1.210950017E0,8.365991747E0
2.321657262E0,-1.834950089E0,8.110050201E0,-1.249050021E0,8.408334083E0
2.323616775E0,-1.911000133E0,8.224950790E0,-1.287000060E0,8.541551742E0
2.325576542E0,-1.911000133E0,8.224950790E0,-1.326000094E0,8.547515034E0
2.327536234E0,-1.911000133E0,8.263050079E0,-1.363950014E0,8.590126760E0
2.329495747E0,-1.950000048E0,8.302050591E0,-1.402050018E0,8.642470043E0
2.331455313E0,-1.987950087E0,8.377950668E0,-1.363950014E0,8.717933390E0
2.333415017E0,-2.026050091E0,8.416950226E0,-1.441050053E0,8.776477387E0
2.335374687E0,-2.140950203E0,8.493000031E0,-1.516950130E0,8.889086285E0
2.337334339E0,-2.140950203E0,8.493000031E0,-1.555950046E0,8.895824742E0
2.339293997E0,-2.179949999E0,8.532000542E0,-1.555950046E0,8.942493824E0
2.341253559E0,-2.140950203E0,8.569950104E0,-1.632000089E0,8.982824547E0
2.343213150E0,-2.140950203E0,8.608050346E0,-1.632000089E0,9.019180829E0
2.345172873E0,-2.103000164E0,8.569950104E0,-1.516950130E0,8.953646864E0
2.347132547E0,-2.065050125E0,8.532000542E0,-1.516950130E0,8.908456823E0
2.349092199E0,-2.103000164E0,8.569950104E0,-1.555950046E0,8.960336769E0
2.351051857E0,-2.065050125E0,8.608050346E0,-1.555950046E0,8.987988837E0
2.353011734E0,-2.140950203E0,8.608050346E0,-1.594050050E0,9.012391142E0
2.354971547E0,-2.218050003E0,8.647050858E0,-1.708950043E0,9.089100318E0
2.356931071E0,-2.256000042E0,8.685000420E0,-1.671000123E0,9.127486504E0
2.358890689E0,-2.332950115E0,8.722949982E0,-1.671000123E0,9.182851084E0
2.360850528E0,-2.371050119E0,8.800050735E0,-1.671000123E0,9.265798024E0
2.362810302E0,-2.485950232E0,8.877000809E0,-1.708950043E0,9.375585430E0
2.364770161E0,-2.601000071E0,8.877000809E0,-1.671000123E0,9.399924794E0
2.366729995E0,-2.640000105E0,8.953050613E0,-1.671000123E0,9.482560691E0
2.368689709E0,-2.793000221E0,8.953050613E0,-1.632000089E0,9.519526764E0
2.370649458E0,-2.869950056E0,8.953050613E0,-1.632000089E0,9.542387170E0
2.372609141E0,-2.946000099E0,9.030000687E0,-1.671000123E0,9.644276562E0
2.374568843E0,-3.061050177E0,9.030000687E0,-1.632000089E0,9.673384355E0
2.376528668E0,-3.100050211E0,8.991000175E0,-1.555950046E0,9.636875843E0
2.378488456E0,-3.175950050E0,8.953050613E0,-1.632000089E0,9.638838016E0
2.380448158E0,-3.291000128E0,8.991000175E0,-1.671000123E0,9.719105278E0
2.382407900E0,-3.367950201E0,8.914950371E0,-1.594050050E0,9.662319816E0
2.384367898E0,-3.367950201E0,8.914950371E0,-1.479000092E0,9.644006944E0
2.386327821E0,-3.445050240E0,8.914950371E0,-1.402050018E0,9.659733719E0
2.388287700E0,-3.520950079E0,8.914950371E0,-1.363950014E0,9.681621208E0
2.390247592E0,-3.520950079E0,8.914950371E0,-1.363950014E0,9.681621208E0
2.392207400E0,-3.483000278E0,8.877000809E0,-1.363950014E0,9.632901637E0
2.394167222E0,-3.559950113E0,8.877000809E0,-1.326000094E0,9.655706314E0
2.396127117E0,-3.636000156E0,8.800050735E0,-1.210950017E0,9.598322251E0
2.398086990E0,-3.598050117E0,8.838000298E0,-1.134000063E0,9.609483339E0
2.400046652E0,-3.598050117E0,8.800050735E0,-1.057050109E0,9.565783425E0
2.402006376E0,-3.636000156E0,8.838000298E0,-9.420000315E-1,9.603026109E0
2.403966251E0,-3.636000156E0,8.800050735E0,-9.810000658E-1,9.572029629E0
2.405926076E0,-3.712950230E0,8.838000298E0,-9.420000315E-1,9.632425070E0
2.407885566E0,-3.751050234E0,8.800050735E0,-9.420000315E-1,9.612420864E0
2.409845155E0,-3.790050268E0,8.838000298E0,-9.420000315E-1,9.662406240E0
2.411804684E0,-3.790050268E0,8.838000298E0,-9.420000315E-1,9.662406240E0
2.413764231E0,-3.828000069E0,8.877000809E0,-1.018950105E0,9.720750341E0
2.415724148E0,-3.904950142E0,8.877000809E0,-1.018950105E0,9.751309568E0
2.417683942E0,-3.904950142E0,8.914950371E0,-9.810000658E-1,9.781990434E0
2.419643797E0,-3.904950142E0,8.914950371E0,-1.096050024E0,9.794197332E0
2.421603634E0,-4.057950020E0,8.953050613E0,-1.096050024E0,9.890672338E0
2.423563438E0,-4.018949986E0,8.991000175E0,-1.096050024E0,9.909155806E0
2.425523252E0,-4.018949986E0,9.030000687E0,-1.134000063E0,9.948810358E0
2.427482967E0,-4.134000301E0,8.991000175E0,-1.096050024E0,9.956373250E0
2.429442712E0,-4.096050262E0,9.030000687E0,-1.134000063E0,9.980205223E0
2.431402215E0,-4.134000301E0,9.106050491E0,-1.134000063E0,1.006459488E1
2.433361789E0,-4.173000336E0,9.145050049E0,-1.171950102E0,1.012024403E1
2.435321501E0,-4.173000336E0,9.106050491E0,-1.057050109E0,1.007231067E1
2.437281172E0,-4.210950375E0,9.145050049E0,-1.096050024E0,1.012745620E1
2.439240883E0,-4.173000336E0,9.220950127E0,-9.420000315E-1,1.016499961E1
2.441200571E0,-4.210950375E0,9.220950127E0,-9.420000315E-1,1.018063791E1
2.443160400E0,-4.173000336E0,9.259950638E0,-9.040500522E-1,1.019695661E1
2.445120187E0,-4.173000336E0,9.298050880E0,-9.040500522E-1,1.023156823E1
2.447079864E0,-4.134000301E0,9.336000443E0,-9.040500522E-1,1.025027655E1
2.449039573E0,-4.057950020E0,9.336000443E0,-9.420000315E-1,1.022326888E1
2.450999127E0,-4.057950020E0,9.412950516E0,-9.420000315E-1,1.029358829E1
2.452958727E0,-4.057950020E0,9.412950516E0,-1.057050109E0,1.030475379E1
2.454918614E0,-4.018949986E0,9.412950516E0,-1.057050109E0,1.028945826E1
2.456878417E0,-3.981000185E0,9.451050758E0,-1.134000063E0,1.031778460E1
2.458838271E0,-3.904950142E0,9.451050758E0,-1.210950017E0,1.029744609E1
2.460798110E0,-3.865950108E0,9.490050316E0,-1.249050021E0,1.032311732E1
2.462757733E0,-3.865950108E0,9.451050758E0,-1.287000060E0,1.029195316E1
2.464717419E0,-3.790050268E0,9.490050316E0,-1.287000060E0,1.029960704E1
2.466677112E0,-3.751050234E0,9.490050316E0,-1.287000060E0,1.028531973E1
2.468636802E0,-3.751050234E0,9.528000832E0,-1.326000094E0,1.032528227E1
2.470596855E0,-3.712950230E0,9.604950905E0,-1.287000060E0,1.037773821E1
2.472556802E0,-3.712950230E0,9.604950905E0,-1.326000094E0,1.038264694E1
2.474516686E0,-3.712950230E0,9.604950905E0,-1.287000060E0,1.037773821E1
2.476476582E0,-3.712950230E0,9.604950905E0,-1.363950014E0,1.038756184E1
2.478436420E0,-3.712950230E0,9.643050194E0,-1.363950014E0,1.042280078E1
2.480396275E0,-3.675000191E0,9.681000710E0,-1.402050018E0,1.044955240E1
2.482356299E0,-3.712950230E0,9.720000267E0,-1.402050018E0,1.049905466E1
2.484316273E0,-3.636000156E0,9.757950783E0,-1.326000094E0,1.049744621E1
2.486276048E0,-3.712950230E0,9.757950783E0,-1.249050021E0,1.051492886E1
2.488235885E0,-3.636000156E0,9.835050583E0,-1.210950017E0,1.055533595E1
2.490195553E0,-3.675000191E0,9.873000145E0,-1.096050024E0,1.059165161E1
2.492155270E0,-3.636000156E0,9.949950218E0,-9.040500522E-1,1.063199478E1
2.494115317E0,-3.598050117E0,1.006500053E1,-9.040500522E-1,1.072695236E1
2.496075268E0,-3.636000156E0,1.006500053E1,-7.510500550E-1,1.072794524E1
2.498034972E0,-3.636000156E0,1.021800041E1,-6.739500165E-1,1.086656515E1
2.499994741E0,-3.598050117E0,1.029495049E1,-5.970000029E-1,1.092192195E1
2.501954555E0,-3.598050117E0,1.033305073E1,-5.590500236E-1,1.095584040E1
2.503914355E0,-3.598050117E0,1.041000080E1,-5.590500236E-1,1.102844587E1
2.505874389E0,-3.675000191E0,1.052505016E1,-5.590500236E-1,1.116220607E1
2.507834355E0,-3.636000156E0,1.060095024E1,-5.970000029E-1,1.122305895E1
2.509794195E0,-3.636000156E0,1.071600056E1,-7.120500207E-1,1.133843818E1
2.511754063E0,-3.520950079E0,1.071600056E1,-6.739500165E-1,1.129973301E1
2.513713905E0,-3.520950079E0,1.075500011E1,-6.739500165E-1,1.133672464E1
2.515673755E0,-3.520950079E0,1.087005043E1,-6.360000372E-1,1.144375733E1
2.517633644E0,-3.483000278E0,1.090800095E1,-5.590500236E-1,1.146421879E1
2.519593522E0,-3.406050205E0,1.090800095E1,-5.590500236E-1,1.144107511E1
2.521553199E0,-3.330000162E0,1.102305031E1,-4.819500148E-1,1.152513839E1
2.523512924E0,-3.291000128E0,1.106100082E1,-3.670500219E-1,1.154604464E1
2.525472745E0,-3.214950085E0,1.110000038E1,-2.520000041E-1,1.155895395E1
2.527432538E0,-3.138000250E0,1.113795090E1,-1.759500057E-1,1.157289740E1
2.529392033E0,-3.022950172E0,1.113795090E1,-6.105000153E-2,1.154105303E1
2.531351616E0,-2.869950056E0,1.125300026E1,9.195000678E-2,1.161357322E1
2.533310431E0,-2.793000221E0,1.129095078E1,2.070000172E-1,1.163311088E1
2.535269468E0,-2.793000221E0,1.132905006E1,3.220500052E-1,1.167270071E1
2.537228956E0,-2.677950144E0,1.136805058E1,4.750500321E-1,1.168886921E1
2.539188312E0,-2.601000071E0,1.140600014E1,5.509500504E-1,1.171177128E1
2.541147837E0,-2.601000071E0,1.148295021E1,5.899500251E-1,1.178861264E1
2.543107312E0,-2.524950027E0,1.155900097E1,5.899500251E-1,1.184626173E1
2.545066889E0,-2.524950027E0,1.159800053E1,6.660000086E-1,1.188833651E1
2.547026417E0,-2.410050154E0,1.163595009E1,7.429500222E-1,1.190611821E1
2.548986137E0,-2.410050154E0,1.175100040E1,6.660000086E-1,1.201407126E1
2.550945801E0,-2.371050119E0,1.186605072E1,5.899500251E-1,1.211499399E1
2.552905139E0,-2.295000076E0,1.198095036E1,6.280500293E-1,1.221493527E1
2.554864573E0,-2.295000076E0,1.205805016E1,6.660000086E-1,1.229256503E1
2.556824368E0,-2.218050003E0,1.221105099E1,8.200500607E-1,1.243792564E1
2.558784047E0,-2.179949999E0,1.232595062E1,8.580000401E-1,1.254660930E1
2.560743742E0,-2.103000164E0,1.240305042E1,1.011000037E0,1.262063352E1
2.562703432E0,-2.065050125E0,1.251795101E1,1.126049995E0,1.273701371E1
2.564663260E0,-1.950000048E0,1.259400082E1,1.279950023E0,1.280818601E1
2.566623047E0,-1.834950089E0,1.267095089E1,1.395000100E0,1.287889994E1
2.568582917E0,-1.758000135E0,1.274805069E1,1.471050024E0,1.295250358E1
2.570542753E0,-1.720050097E0,1.278600025E1,1.471050024E0,1.298477427E1
2.572502601E0,-1.567050099E0,1.282395077E1,1.510050058E0,1.300729067E1
2.574462446E0,-1.489950061E0,1.286295033E1,1.624950051E0,1.305051359E1
2.576421933E0,-1.375050068E0,1.290105057E1,1.624950051E0,1.307548588E1
2.578381525E0,-1.260000110E0,1.293900108E1,1.740000129E0,1.311613319E1
2.580341244E0,-1.106999993E0,1.297800064E1,1.740000129E0,1.314083521E1
2.582300950E0,-9.529500604E-1,1.293900108E1,1.740000129E0,1.309020486E1
2.584260776E0,-8.380500674E-1,1.297800064E1,1.816050053E0,1.313121725E1
2.586220566E0,-6.079500318E-1,1.290105057E1,1.816050053E0,1.304242105E1
2.588180242E0,-4.930500090E-1,1.282395077E1,1.930950046E0,1.297788040E1
2.590139952E0,-3.400500119E-1,1.274805069E1,1.969950080E0,1.290384182E1
2.592099336E0,-1.870500147E-1,1.267095089E1,2.085000038E0,1.284271036E1
2.594058808E0,4.050000105E-3,1.259400082E1,2.085000038E0,1.276542589E1
2.596018673E0,1.570500135E-1,1.247895050E1,2.122950077E0,1.265921748E1
2.597978422E0,2.340000123E-1,1.236405087E1,2.122950077E0,1.254716808E1
2.599938150E0,3.870000243E-1,1.217295074E1,2.085000038E0,1.235628277E1
2.601897885E0,5.410500169E-1,1.205805016E1,2.085000038E0,1.224894011E1
2.603858295E0,7.699500322E-1,1.178895092E1,2.046000004E0,1.198992506E1
2.605818504E0,8.470500112E-1,1.163595009E1,2.008050203E0,1.183828931E1
2.607778244E0,1.000050068E0,1.132905006E1,1.969950080E0,1.154245116E1
2.609738121E0,1.114950061E0,1.110000038E1,2.085000038E0,1.134902407E1
2.611697601E0,1.230000019E0,1.079295063E1,2.008050203E0,1.104685245E1
2.613657198E0,1.306950092E0,1.048605061E1,2.008050203E0,1.075628381E1
2.615616906E0,1.306950092E0,1.021800041E1,2.008050203E0,1.049513776E1
2.617576581E0,1.306950092E0,9.873000145E0,1.930950046E0,1.014459553E1
2.619536456E0,1.345050097E0,9.643050194E0,2.008050203E0,9.941319954E0
2.621496273E0,1.306950092E0,9.375000000E0,1.969950080E0,9.668476967E0
2.623455945E0,1.306950092E0,9.106050491E0,2.008050203E0,9.415972585E0
2.625415660E0,1.306950092E0,8.800050735E0,1.893000126E0,9.095738616E0
2.627375184E0,1.230000019E0,8.532000542E0,1.893000126E0,8.825609484E0
2.629334785E0,1.192050099E0,8.302050591E0,1.777950048E0,8.573571824E0
2.631294446E0,1.230000019E0,8.071949959E0,1.777950048E0,8.356457536E0
2.633254090E0,1.114950061E0,7.803000450E0,1.701000094E0,8.063704545E0
2.635213611E0,1.077000022E0,7.573050499E0,1.548000097E0,7.804314653E0
2.637173169E0,1.077000022E0,7.342950344E0,1.510050058E0,7.573579073E0
2.639132583E0,1.039050102E0,7.189950466E0,1.471050024E0,7.412084794E0
2.641092029E0,9.619500637E-1,6.997950554E0,1.395000100E0,7.200186467E0
2.643051537E0,9.240000248E-1,6.883050442E0,1.318050027E0,7.068763350E0
2.645011027E0,8.850000501E-1,6.807000160E0,1.240950108E0,6.975559722E0
2.646970754E0,8.089500666E-1,6.730050087E0,1.165050030E0,6.877886009E0
2.648930412E0,6.940500140E-1,6.691950321E0,1.050000072E0,6.809288118E0
2.650889767E0,6.940500140E-1,6.615000248E0,8.959500194E-1,6.711382878E0
2.652849199E0,5.790000558E-1,6.615000248E0,8.200500607E-1,6.690736241E0
2.654808080E0,5.020500422E-1,6.615000248E0,8.200500607E-1,6.684516783E0
2.656767122E0,5.020500422E-1,6.654000282E0,8.580000401E-1,6.727847952E0
2.658726880E0,4.639500082E-1,6.691950321E0,8.580000401E-1,6.762663143E0
2.660686428E0,4.260000288E-1,6.807000160E0,9.349500537E-1,6.884101888E0
2.662646180E0,3.109500110E-1,6.883050442E0,9.349500537E-1,6.953215436E0
2.664605880E0,2.719500065E-1,6.997950554E0,9.349500537E-1,7.065366258E0
2.666565211E0,1.189500093E-1,7.075050354E0,1.011000037E0,7.147909323E0
2.668524651E0,4.200000316E-2,7.189950466E0,1.050000072E0,7.266336894E0
2.670484205E0,-7.200000435E-2,7.342950344E0,1.087950110E0,7.423458709E0
2.672443726E0,-1.870500147E-1,7.458000183E0,1.240950108E0,7.562850759E0
2.674403578E0,-2.629500031E-1,7.612050533E0,1.240950108E0,7.717021005E0
2.676363336E0,-4.170000255E-1,7.765050411E0,1.356000066E0,7.893581765E0
2.678323197E0,-5.700000525E-1,7.918050289E0,1.432950020E0,8.066831237E0
2.680283028E0,-6.469500065E-1,8.110050201E0,1.395000100E0,8.254543225E0
2.682242743E0,-7.620000243E-1,8.263050079E0,1.471050024E0,8.427492440E0
2.684202492E0,-8.770500422E-1,8.455050468E0,1.471050024E0,8.626765522E0
2.686161949E0,-1.030050039E0,8.608050346E0,1.471050024E0,8.793379443E0
2.688121492E0,-1.144950032E0,8.685000420E0,1.471050024E0,8.882799730E0
2.690081389E0,-1.222050071E0,8.838000298E0,1.471050024E0,9.042546312E0
2.692041182E0,-1.297950029E0,9.030000687E0,1.471050024E0,9.240647967E0
2.694000903E0,-1.375050068E0,9.145050049E0,1.510050058E0,9.370323061E0
2.695960646E0,-1.567050099E0,9.259950638E0,1.471050024E0,9.506120134E0
2.697920149E0,-1.567050099E0,9.412950516E0,1.471050024E0,9.655219915E0
2.699879723E0,-1.758000135E0,9.604950905E0,1.510050058E0,9.880581842E0
2.701839389E0,-1.834950089E0,9.720000267E0,1.471050024E0,1.000047175E1
2.703799028E0,-1.950000048E0,9.796050072E0,1.471050024E0,1.009599353E1
2.705758550E0,-1.950000048E0,9.910950661E0,1.471050024E0,1.020751837E1
2.707718107E0,-1.987950087E0,1.006500053E1,1.471050024E0,1.036437019E1
2.709677642E0,-2.103000164E0,1.010295010E1,1.510050058E0,1.042940370E1
2.711637184E0,-2.103000164E0,1.018005085E1,1.510050058E0,1.050410854E1
2.713596407E0,-2.103000164E0,1.014105034E1,1.510050058E0,1.046631563E1
2.715555723E0,-2.065050125E0,1.025595093E1,1.663050056E0,1.059314386E1
2.717515299E0,-2.103000164E0,1.018005085E1,1.510050058E0,1.050410854E1
2.719474798E0,-1.950000048E0,1.021800041E1,1.548000097E0,1.051695474E1
2.721434279E0,-1.834950089E0,1.010295010E1,1.548000097E0,1.038426438E1
2.723393779E0,-1.642950058E0,1.010295010E1,1.585950017E0,1.035780493E1
2.725353504E0,-1.489950061E0,1.002600002E1,1.777950048E0,1.029085682E1
2.727313163E0,-1.528050065E0,1.002600002E1,1.663050056E0,1.027722477E1
2.729272547E0,-1.452000022E0,9.873000145E0,1.510050058E0,1.009280373E1
2.731232012E0,-1.260000110E0,9.835050583E0,1.471050024E0,1.002396171E1
2.733191551E0,-1.030050039E0,9.757950783E0,1.471050024E0,9.921824164E0
2.735151076E0,-9.150000215E-1,9.681000710E0,1.510050058E0,9.840693622E0
2.737110797E0,-7.620000243E-1,9.528000832E0,1.471050024E0,9.670958177E0
2.739070461E0,-7.230000496E-1,9.412950516E0,1.510050058E0,9.560680816E0
2.741030114E0,-6.079500318E-1,9.298050880E0,1.548000097E0,9.445615793E0
2.742989771E0,-7.230000496E-1,9.259950638E0,1.548000097E0,9.416247617E0
2.744949449E0,-6.079500318E-1,9.259950638E0,1.510050058E0,9.401943429E0
2.746909134E0,-5.700000525E-1,9.259950638E0,1.471050024E0,9.393379267E0
2.748868694E0,-4.930500090E-1,9.220950127E0,1.471050024E0,9.350561893E0
2.750828290E0,-3.780000210E-1,9.183000565E0,1.471050024E0,9.307758675E0
2.752787819E0,-3.019500077E-1,9.145050049E0,1.432950020E0,9.261558182E0
2.754747367E0,-1.870500147E-1,9.145050049E0,1.471050024E0,9.264497627E0
2.756706904E0,-2.629500031E-1,9.145050049E0,1.510050058E0,9.272612053E0
2.758666444E0,-1.480500102E-1,9.145050049E0,1.510050058E0,9.270065285E0
2.760626116E0,-1.870500147E-1,9.183000565E0,1.510050058E0,9.308208112E0
2.762585750E0,-1.870500147E-1,9.183000565E0,1.510050058E0,9.308208112E0
2.764545273E0,-1.870500147E-1,9.220950127E0,1.510050058E0,9.345649262E0
2.766504829E0,-7.200000435E-2,9.067950249E0,1.510050058E0,9.193103768E0
2.768464447E0,-3.299999982E-2,9.030000687E0,1.510050058E0,9.155449338E0
2.770424019E0,-7.200000435E-2,9.030000687E0,1.510050058E0,9.155672973E0
2.772383553E0,-1.099500060E-1,8.991000175E0,1.471050024E0,9.111210750E0
2.774343098E0,-1.099500060E-1,9.030000687E0,1.471050024E0,9.149698879E0
2.776302590E0,-1.480500102E-1,9.030000687E0,1.471050024E0,9.150236029E0
2.778262098E0,-1.870500147E-1,9.145050049E0,1.471050024E0,9.264497627E0
2.780221622E0,-2.250000089E-1,9.106050491E0,1.510050058E0,9.233148528E0
2.782181154E0,-2.250000089E-1,9.220950127E0,1.510050058E0,9.346485833E0
2.784140693E0,-3.400500119E-1,9.220950127E0,1.548000097E0,9.356166926E0
2.786100230E0,-3.019500077E-1,9.259950638E0,1.548000097E0,9.393304207E0
2.788059814E0,-3.400500119E-1,9.298050880E0,1.510050058E0,9.426008453E0
2.790019384E0,-3.780000210E-1,9.298050880E0,1.548000097E0,9.433606865E0
2.791978859E0,-3.780000210E-1,9.298050880E0,1.548000097E0,9.433606865E0
2.793938372E0,-3.780000210E-1,9.336000443E0,1.585950017E0,9.477290000E0
2.795897914E0,-4.549500346E-1,9.336000443E0,1.624950051E0,9.487272868E0
2.797857447E0,-5.320500135E-1,9.298050880E0,1.585950017E0,9.447331097E0
2.799817347E0,-5.700000525E-1,9.336000443E0,1.701000094E0,9.506797865E0
2.801777140E0,-6.079500318E-1,9.298050880E0,1.740000129E0,9.478974304E0
2.803736654E0,-6.079500318E-1,9.259950638E0,1.701000094E0,9.434494707E0
2.805696237E0,-6.469500065E-1,9.336000443E0,1.624950051E0,9.498416249E0
2.807656128E0,-5.700000525E-1,9.220950127E0,1.624950051E0,9.380366942E0
2.809615928E0,-4.930500090E-1,9.259950638E0,1.624950051E0,9.414363855E0
2.811575468E0,-4.549500346E-1,9.220950127E0,1.624950051E0,9.374079338E0
2.813535084E0,-5.700000525E-1,9.220950127E0,1.663050056E0,9.387041961E0
2.815494614E0,-6.079500318E-1,9.259950638E0,1.701000094E0,9.434494707E0
2.817454166E0,-6.850500107E-1,9.298050880E0,1.701000094E0,9.477153846E0
2.819414061E0,-7.620000243E-1,9.298050880E0,1.740000129E0,9.490099824E0
2.821373856E0,-7.999500632E-1,9.336000443E0,1.701000094E0,9.523351599E0
2.823333352E0,-8.380500674E-1,9.412950516E0,1.740000129E0,9.609035632E0
2.825292935E0,-8.770500422E-1,9.412950516E0,1.624950051E0,9.592357211E0
2.827252580E0,-8.380500674E-1,9.375000000E0,1.585950017E0,9.545061046E0
2.829212221E0,-8.770500422E-1,9.375000000E0,1.548000097E0,9.542334414E0
2.831171922E0,-9.529500604E-1,9.259950638E0,1.585950017E0,9.442988779E0
2.833131605E0,-1.144950032E0,9.259950638E0,1.624950051E0,9.470905926E0
2.835091344E0,-1.183050036E0,9.375000000E0,1.585950017E0,9.581517095E0
2.837051067E0,-1.144950032E0,9.375000000E0,1.510050058E0,9.564611166E0
2.839010710E0,-1.068000078E0,9.336000443E0,1.510050058E0,9.517446065E0
2.840970376E0,-1.144950032E0,9.336000443E0,1.510050058E0,9.526387879E0
2.842929893E0,-1.030050039E0,9.259950638E0,1.585950017E0,9.451080698E0
2.844889453E0,-1.144950032E0,9.259950638E0,1.585950017E0,9.464292570E0
2.846848988E0,-1.144950032E0,9.336000443E0,1.663050056E0,9.551834919E0
2.848808530E0,-1.222050071E0,9.336000443E0,1.585950017E0,9.548274613E0
2.850768259E0,-1.260000110E0,9.298050880E0,1.548000097E0,9.509871437E0
2.852727957E0,-1.260000110E0,9.259950638E0,1.510050058E0,9.466495512E0
2.854687649E0,-1.297950029E0,9.220950127E0,1.471050024E0,9.427331738E0
2.856647343E0,-1.297950029E0,9.145050049E0,1.471050024E0,9.353106588E0
2.858607035E0,-1.260000110E0,9.030000687E0,1.510050058E0,9.241686202E0
2.860566728E0,-1.375050068E0,8.800050735E0,1.510050058E0,9.033930862E0
2.862526259E0,-1.528050065E0,8.914950371E0,1.548000097E0,9.176468897E0
2.864485824E0,-1.567050099E0,8.914950371E0,1.471050024E0,9.170385723E0
2.866445492E0,-1.452000022E0,8.914950371E0,1.318050027E0,9.128083044E0
2.868405130E0,-1.260000110E0,8.877000809E0,1.318050027E0,9.062339627E0
2.870364698E0,-1.260000110E0,8.800050735E0,1.318050027E0,8.986976638E0
2.872324286E0,-1.336950064E0,8.838000298E0,1.318050027E0,9.035205621E0
2.874283811E0,-1.452000022E0,8.953050613E0,1.165050030E0,9.144548153E0
2.876243358E0,-1.489950061E0,8.914950371E0,1.318050027E0,9.134196580E0
2.878203029E0,-1.605000019E0,8.800050735E0,1.395000100E0,9.053338792E0
2.880162663E0,-1.873050094E0,8.914950371E0,1.432950020E0,9.221605203E0
2.882122186E0,-2.065050125E0,9.220950127E0,1.318050027E0,9.540839016E0
2.884081742E0,-1.987950087E0,9.259950638E0,1.203000069E0,9.547033075E0
2.886041322E0,-1.758000135E0,9.183000565E0,1.050000072E0,9.408536762E0
2.888000894E0,-1.642950058E0,9.106050491E0,9.730500579E-1,9.304099465E0
2.889960562E0,-1.681950092E0,9.067950249E0,1.011000037E0,9.277866075E0
2.891920202E0,-1.720050097E0,8.953050613E0,1.050000072E0,9.177046789E0
2.893879903E0,-1.795950055E0,8.838000298E0,1.087950110E0,9.084014603E0
2.895839586E0,-1.911000133E0,8.608050346E0,1.240950108E0,8.904516239E0
2.897799082E0,-2.140950203E0,8.761950493E0,1.203000069E0,9.099596330E0
2.899758646E0,-2.140950203E0,8.608050346E0,9.349500537E-1,8.919435528E0
2.901718224E0,-1.987950087E0,8.569950104E0,7.050000429E-1,8.825701977E0
2.903677798E0,-1.834950089E0,8.493000031E0,7.429500222E-1,8.720668901E0
2.905637826E0,-1.795950055E0,8.416950226E0,8.200500607E-1,8.645401657E0
2.907597721E0,-1.834950089E0,8.340000153E0,8.580000401E-1,8.582470999E0
2.909557439E0,-1.873050094E0,8.302050591E0,8.580000401E-1,8.553860224E0
2.911517199E0,-1.950000048E0,8.340000153E0,7.429500222E-1,8.597097037E0
2.913476834E0,-1.950000048E0,8.416950226E0,7.050000429E-1,8.668597139E0
2.915436506E0,-1.950000048E0,8.493000031E0,7.429500222E-1,8.745600290E0
2.917396067E0,-1.950000048E0,8.493000031E0,6.660000086E-1,8.739399620E0
2.919355660E0,-1.950000048E0,8.532000542E0,5.899500251E-1,8.771862656E0
2.921315184E0,-1.950000048E0,8.608050346E0,5.509500504E-1,8.843335169E0
2.923274732E0,-1.987950087E0,8.532000542E0,5.130000114E-1,8.775542593E0
2.925234763E0,-2.103000164E0,8.685000420E0,7.810500264E-1,8.970054689E0
2.927194653E0,-2.256000042E0,8.761950493E0,5.130000114E-1,9.062255880E0
2.929154852E0,-1.987950087E0,8.761950493E0,2.830500007E-1,8.989095577E0
2.931114961E0,-1.834950089E0,8.800050735E0,2.830500007E-1,8.993778521E0
2.933073756E0,-1.758000135E0,8.800050735E0,3.220500052E-1,8.979708995E0
2.935032915E0,-1.758000135E0,8.877000809E0,4.750500321E-1,9.061864067E0
2.936992698E0,-1.758000135E0,8.914950371E0,5.509500504E-1,9.103320853E0
2.938952298E0,-1.834950089E0,8.953050613E0,5.130000114E-1,9.153541726E0
2.940912006E0,-1.834950089E0,8.953050613E0,4.750500321E-1,9.151493302E0
2.942871682E0,-1.873050094E0,8.991000175E0,4.360500276E-1,9.194375478E0
2.944831319E0,-1.873050094E0,8.914950371E0,3.600000143E-1,9.116702078E0
2.946790978E0,-1.950000048E0,8.914950371E0,3.600000143E-1,9.132822144E0
2.948751621E0,-1.911000133E0,8.914950371E0,2.830500007E-1,9.121862689E0
2.950711976E0,-1.911000133E0,8.877000809E0,2.070000172E-1,9.082726126E0
2.952671691E0,-1.950000048E0,8.838000298E0,2.830500007E-1,9.054991262E0
2.954631593E0,-2.065050125E0,8.838000298E0,-6.105000153E-2,9.076255196E0
2.956590734E0,-2.026050091E0,8.877000809E0,-2.205000073E-2,9.105301122E0
2.958550112E0,-1.911000133E0,8.761950493E0,3.979500234E-1,8.976751203E0
2.960509812E0,-1.911000133E0,8.647050858E0,5.130000114E-1,8.870545589E0
2.962469418E0,-1.987950087E0,8.647050858E0,4.360500276E-1,8.883331228E0
2.964430071E0,-1.950000048E0,8.608050346E0,3.220500052E-1,8.832029617E0
2.966390418E0,-1.987950087E0,8.569950104E0,1.680000126E-1,8.799103041E0
2.968350310E0,-2.065050125E0,8.493000031E0,9.195000678E-2,8.740934523E0
2.970310339E0,-2.218050003E0,8.416950226E0,2.830500007E-1,8.708898565E0
2.972269973E0,-2.332950115E0,8.532000542E0,9.195000678E-2,8.845685066E0
2.974229723E0,-2.218050003E0,8.493000031E0,-2.205000073E-2,8.777885938E0
2.976189765E0,-1.987950087E0,8.532000542E0,-9.900000691E-2,8.761094669E0
2.978149721E0,-1.911000133E0,8.493000031E0,1.500000060E-2,8.705354446E0
2.980109404E0,-1.911000133E0,8.493000031E0,9.195000678E-2,8.705827119E0
2.982069175E0,-1.950000048E0,8.416950226E0,1.680000126E-1,8.641514641E0
2.984028854E0,-1.987950087E0,8.455050468E0,2.070000172E-1,8.688076483E0
2.985988560E0,-1.987950087E0,8.416950226E0,2.449500114E-1,8.651993826E0
2.987948204E0,-2.103000164E0,8.377950668E0,1.300500035E-1,8.638841363E0
2.989907867E0,-2.179949999E0,8.377950668E0,9.195000678E-2,8.657406898E0
2.991867415E0,-2.332950115E0,8.340000153E0,1.680000126E-1,8.661782887E0
2.993827007E0,-2.448000193E0,8.455050468E0,1.680000126E-1,8.803908642E0
2.995786491E0,-2.332950115E0,8.493000031E0,1.500000060E-2,8.807606415E0
2.997746007E0,-2.065050125E0,8.493000031E0,-1.369500011E-1,8.741523714E0
2.999705414E0,-2.026050091E0,8.493000031E0,-1.369500011E-1,8.732392787E0
3.001664853E0,-1.950000048E0,8.569950104E0,-2.205000073E-2,8.789029023E0
3.003624567E0,-2.065050125E0,8.532000542E0,1.680000126E-1,8.779959525E0
3.005584183E0,-2.140950203E0,8.569950104E0,2.070000172E-1,8.835754725E0
3.007543754E0,-2.179949999E0,8.608050346E0,2.449500114E-1,8.883170226E0
3.009503339E0,-2.410050154E0,8.608050346E0,2.830500007E-1,8.943544589E0
3.011462284E0,-2.563050032E0,8.608050346E0,3.979500234E-1,8.990334835E0
3.013421416E0,-2.563050032E0,8.685000420E0,4.360500276E-1,9.065792706E0
3.015381768E0,-2.410050154E0,8.722949982E0,2.830500007E-1,9.054187729E0
3.017341745E0,-2.179949999E0,8.761950493E0,2.449500114E-1,9.032383902E0
3.019300308E0,-2.256000042E0,8.800050735E0,3.600000143E-1,9.091756109E0
3.021259286E0,-2.218050003E0,8.877000809E0,4.750500321E-1,9.162235628E0
3.023219280E0,-2.256000042E0,8.914950371E0,5.509500504E-1,9.212460163E0
3.025178976E0,-2.295000076E0,9.030000687E0,6.280500293E-1,9.338221704E0
3.027138529E0,-2.332950115E0,9.067950249E0,7.050000429E-1,9.389749891E0
3.029098127E0,-2.371050119E0,9.145050049E0,7.050000429E-1,9.473692212E0
3.031058014E0,-2.448000193E0,9.220950127E0,7.429500222E-1,9.569252892E0
3.033017817E0,-2.448000193E0,9.259950638E0,6.660000086E-1,9.601195070E0
3.034977311E0,-2.410050154E0,9.298050880E0,7.429500222E-1,9.634005743E0
3.036936896E0,-2.485950232E0,9.298050880E0,7.050000429E-1,9.650426094E0
3.038896773E0,-2.524950027E0,9.336000443E0,7.429500222E-1,9.699909878E0
3.040856542E0,-2.601000071E0,9.298050880E0,9.349500537E-1,9.700158924E0
3.042816222E0,-2.485950232E0,9.298050880E0,9.730500579E-1,9.673702763E0
3.044775928E0,-2.295000076E0,9.375000000E0,9.349500537E-1,9.696998605E0
3.046735662E0,-2.218050003E0,9.375000000E0,9.349500537E-1,9.679075494E0
3.048695388E0,-2.295000076E0,9.375000000E0,9.730500579E-1,9.700746196E0
3.050655023E0,-2.295000076E0,9.375000000E0,1.050000072E0,9.708766683E0
3.052614690E0,-2.371050119E0,9.451050758E0,1.050000072E0,9.800343834E0
3.054574430E0,-2.410050154E0,9.451050758E0,1.126049995E0,9.818283494E0
3.056534149E0,-2.448000193E0,9.451050758E0,1.087950110E0,9.823375226E0
3.058493477E0,-2.410050154E0,9.412950516E0,1.087950110E0,9.777300987E0
3.060452920E0,-2.371050119E0,9.412950516E0,1.050000072E0,9.763606722E0
3.062412459E0,-2.371050119E0,9.490050316E0,1.011000037E0,9.833872825E0
3.064371980E0,-2.410050154E0,9.490050316E0,1.050000072E0,9.847430979E0
3.066331522E0,-2.295000076E0,9.565950394E0,1.203000069E0,9.910683198E0
3.068291057E0,-2.371050119E0,9.565950394E0,1.203000069E0,9.928569623E0
3.070250957E0,-2.332950115E0,9.604950905E0,1.126049995E0,9.948151925E0
3.072210750E0,-2.332950115E0,9.681000710E0,1.126049995E0,1.002159766E1
3.074170551E0,-2.256000042E0,9.720000267E0,1.087950110E0,1.003750850E1
3.076130356E0,-2.371050119E0,9.681000710E0,1.126049995E0,1.003053548E1
3.078090030E0,-2.485950232E0,9.873000145E0,1.203000069E0,1.025198954E1
3.080049743E0,-2.371050119E0,9.949950218E0,1.011000037E0,1.027840012E1
3.082009116E0,-2.140950203E0,1.002600002E1,7.810500264E-1,1.028175002E1
3.083968589E0,-1.987950087E0,1.006500053E1,7.810500264E-1,1.028913118E1
3.085928107E0,-1.987950087E0,1.006500053E1,8.200500607E-1,1.029216515E1
3.087887601E0,-1.950000048E0,1.014105034E1,7.810500264E-1,1.035632373E1
3.089847372E0,-1.950000048E0,1.021800041E1,8.580000401E-1,1.043772948E1
3.091807062E0,-1.987950087E0,1.025595093E1,8.580000401E-1,1.048201503E1
3.093766890E0,-1.987950087E0,1.025595093E1,8.200500607E-1,1.047897691E1
3.095726678E0,-2.218050003E0,1.025595093E1,1.087950110E0,1.054930854E1
3.097686390E0,-2.332950115E0,1.041000080E1,7.429500222E-1,1.069405198E1
3.099646131E0,-2.140950203E0,1.044795036E1,5.509500504E-1,1.067927341E1
3.101606174E0,-1.834950089E0,1.044795036E1,5.130000114E-1,1.062025789E1
3.103566129E0,-1.758000135E0,1.044795036E1,5.509500504E-1,1.060913650E1
3.105525958E0,-1.720050097E0,1.052505016E1,6.280500293E-1,1.068315029E1
3.107485824E0,-1.758000135E0,1.041000080E1,7.810500264E-1,1.058625148E1
3.109445477E0,-2.026050091E0,1.041000080E1,1.087950110E0,1.066098640E1
3.111405199E0,-2.218050003E0,1.052505016E1,8.580000401E-1,1.079039345E1
3.113364841E0,-2.026050091E0,1.056300068E1,6.660000086E-1,1.077615044E1
3.115324507E0,-1.834950089E0,1.048605061E1,5.130000114E-1,1.065774217E1
3.117284069E0,-1.795950055E0,1.048605061E1,6.280500293E-1,1.065725766E1
3.119243661E0,-1.795950055E0,1.044795036E1,5.509500504E-1,1.061549101E1
3.121203661E0,-1.834950089E0,1.033305073E1,6.280500293E-1,1.051348781E1
3.123163558E0,-2.103000164E0,1.041000080E1,8.200500607E-1,1.065191102E1
3.125123216E0,-2.256000042E0,1.044795036E1,5.899500251E-1,1.070501023E1
3.127082944E0,-2.103000164E0,1.044795036E1,3.600000143E-1,1.066357710E1
3.129042855E0,-2.065050125E0,1.037100029E1,3.600000143E-1,1.058072205E1
3.131002712E0,-2.026050091E0,1.037100029E1,3.220500052E-1,1.057195546E1
3.132962512E0,-2.026050091E0,1.041000080E1,3.600000143E-1,1.061143702E1
3.134922329E0,-2.065050125E0,1.041000080E1,3.600000143E-1,1.061895234E1
3.136881820E0,-2.179949999E0,1.025595093E1,3.600000143E-1,1.049124928E1
3.138841406E0,-2.371050119E0,1.033305073E1,3.979500234E-1,1.060906123E1
3.140802017E0,-2.524950027E0,1.041000080E1,9.195000678E-2,1.071223339E1
3.142762327E0,-2.410050154E0,1.044795036E1,-1.369500011E-1,1.072318814E1
3.144721748E0,-2.256000042E0,1.041000080E1,-1.759500057E-1,1.065310336E1
3.146681420E0,-2.140950203E0,1.037100029E1,-1.369500011E-1,1.059056514E1
3.148640936E0,-2.218050003E0,1.018005085E1,5.295000225E-2,1.041902034E1
3.150600497E0,-2.485950232E0,1.037100029E1,1.680000126E-1,1.066610611E1
3.152559896E0,-2.371050119E0,1.041000080E1,1.500000060E-2,1.067662027E1
3.154519343E0,-2.295000076E0,1.029495049E1,-1.369500011E-1,1.054854427E1
3.156478751E0,-2.295000076E0,1.041000080E1,-1.369500011E-1,1.066085819E1
3.158438146E0,-2.179949999E0,1.041000080E1,-1.369500011E-1,1.063668435E1
3.160398069E0,-2.065050125E0,1.037100029E1,-1.369500011E-1,1.057548270E1
3.162357837E0,-2.103000164E0,1.033305073E1,5.295000225E-2,1.054501545E1
3.164317517E0,-2.026050091E0,1.044795036E1,5.295000225E-2,1.064271344E1
3.166277223E0,-1.911000133E0,1.041000080E1,9.195000678E-2,1.058435133E1
3.168236881E0,-1.873050094E0,1.044795036E1,1.300500035E-1,1.061531424E1
3.170196544E0,-1.834950089E0,1.052505016E1,9.195000678E-2,1.068420224E1
3.172156106E0,-1.758000135E0,1.052505016E1,5.295000225E-2,1.067099101E1
3.174115698E0,-1.681950092E0,1.052505016E1,1.680000126E-1,1.065991844E1
3.176075541E0,-1.642950058E0,1.056300068E1,1.300500035E-1,1.069079891E1
3.178035311E0,-1.528050065E0,1.056300068E1,9.195000678E-2,1.067334883E1
3.179994807E0,-1.489950061E0,1.060095024E1,5.295000225E-2,1.070527444E1
3.181954386E0,-1.375050068E0,1.060095024E1,9.195000678E-2,1.069015264E1
3.183913963E0,-1.336950064E0,1.063995075E1,2.070000172E-1,1.072561590E1
3.185873540E0,-1.336950064E0,1.071600056E1,2.449500114E-1,1.080185650E1
3.187833206E0,-1.375050068E0,1.075500011E1,9.195000678E-2,1.084293526E1
3.189792846E0,-1.413000107E0,1.087005043E1,1.300500035E-1,1.096227525E1
3.191751453E0,-1.297950029E0,1.083105087E1,6.660000086E-1,1.092885599E1
3.193710372E0,-1.260000110E0,1.063995075E1,1.165050030E0,1.077745303E1
3.195669835E0,-1.528050065E0,1.083105087E1,1.240950108E0,1.100847661E1
3.197629139E0,-1.605000019E0,1.098495007E1,9.730500579E-1,1.114414552E1
3.199588718E0,-1.452000022E0,1.094595051E1,8.580000401E-1,1.107512080E1
3.201548216E0,-1.413000107E0,1.083105087E1,1.087950110E0,1.097687878E1
3.203507718E0,-1.567050099E0,1.102305031E1,1.165050030E0,1.119466952E1
3.205467249E0,-1.567050099E0,1.106100082E1,1.240950108E0,1.124016648E1
3.207426475E0,-1.528050065E0,1.110000038E1,1.356000066E0,1.128643795E1
3.209385790E0,-1.528050065E0,1.110000038E1,1.471050024E0,1.130083774E1
3.211345546E0,-1.605000019E0,1.106100082E1,1.510050058E0,1.127838710E1
3.213305172E0,-1.681950092E0,1.110000038E1,1.624950051E0,1.134369548E1
3.215264641E0,-1.758000135E0,1.113795090E1,1.740000129E0,1.140929950E1
3.217224164E0,-1.834950089E0,1.110000038E1,1.855050087E0,1.140255503E1
3.219183749E0,-1.873050094E0,1.117605019E1,2.008050203E0,1.150846124E1
3.221143316E0,-1.911000133E0,1.113795090E1,2.085000038E0,1.149143580E1
3.223102671E0,-1.873050094E0,1.113795090E1,2.391000032E0,1.154465885E1
3.225062088E0,-1.873050094E0,1.113795090E1,2.620950222E0,1.159446622E1
3.227022007E0,-1.720050097E0,1.106100082E1,2.928000212E0,1.157054436E1
3.228981778E0,-1.758000135E0,1.106100082E1,3.118950129E0,1.162601194E1
3.230941278E0,-1.834950089E0,1.117605019E1,3.234000206E0,1.177836563E1
3.232900857E0,-1.720050097E0,1.113795090E1,3.310950041E0,1.174627229E1
3.234860388E0,-1.567050099E0,1.117605019E1,3.463950157E0,1.180502836E1
3.236819934E0,-1.489950061E0,1.113795090E1,3.579000235E0,1.179335169E1
3.238779490E0,-1.452000022E0,1.113795090E1,3.694050074E0,1.182405430E1
3.240739030E0,-1.336950064E0,1.110000038E1,3.733050108E0,1.178698889E1
3.242698747E0,-1.260000110E0,1.106100082E1,3.771000147E0,1.175388368E1
3.244658412E0,-1.144950032E0,1.102305031E1,3.808950186E0,1.171864541E1
3.246617930E0,-1.068000078E0,1.102305031E1,3.808950186E0,1.171137754E1
3.248577491E0,-9.529500604E-1,1.098495007E1,3.847950220E0,1.167835445E1
3.250537031E0,-7.620000243E-1,1.083105087E1,3.963000298E0,1.155844619E1
3.252496573E0,-7.230000496E-1,1.083105087E1,3.963000298E0,1.155594061E1
3.254456290E0,-6.079500318E-1,1.087005043E1,3.924000263E0,1.157261326E1
3.256415956E0,-5.320500135E-1,1.079295063E1,3.924000263E0,1.149646200E1
3.258375653E0,-4.170000255E-1,1.075500011E1,4.000950336E0,1.148266172E1
3.260335340E0,-3.019500077E-1,1.067805004E1,4.116000175E0,1.144785499E1
3.262295003E0,-1.870500147E-1,1.060095024E1,4.153950214E0,1.138729275E1
3.264254664E0,-3.299999982E-2,1.052505016E1,4.231050014E0,1.134370108E1
3.266214046E0,4.200000316E-2,1.044795036E1,4.153950214E0,1.124351961E1
3.268173510E0,1.570500135E-1,1.037100029E1,4.116000175E0,1.115902187E1
3.270133015E0,2.340000123E-1,1.033305073E1,4.116000175E0,1.112511352E1
3.272092508E0,3.870000243E-1,1.018005085E1,4.116000175E0,1.098747750E1
3.274053001E0,5.020500422E-1,1.014105034E1,4.153950214E0,1.097033539E1
3.276013201E0,6.169500351E-1,1.006500053E1,4.153950214E0,1.090596926E1
3.277972582E0,7.699500322E-1,9.988050461E0,4.192950249E0,1.085977932E1
3.279932203E0,9.240000248E-1,9.796050072E0,4.153950214E0,1.068043423E1
3.281891727E0,8.850000501E-1,9.643050194E0,4.039050102E0,1.049216698E1
3.283851280E0,1.077000022E0,9.604950905E0,4.078050137E0,1.049025757E1
3.285810874E0,1.306950092E0,9.412950516E0,4.039050102E0,1.032597122E1
3.287770446E0,1.306950092E0,9.298050880E0,3.963000298E0,1.019152786E1
3.289729800E0,1.306950092E0,9.259950638E0,3.886050224E0,1.012700305E1
