"Time (s)","Acceleration x (m/s^2)","Acceleration y (m/s^2)","Acceleration z (m/s^2)","Absolute acceleration (m/s^2)"
2.682792700E-2,-2.640000105E0,9.145050049E0,1.203000069E0,9.594203985E0
2.878653800E-2,-2.830950022E0,9.067950249E0,1.279950023E0,9.585419751E0
3.074785000E-2,-2.793000221E0,9.030000687E0,8.200500607E-1,9.487583714E0
3.270744400E-2,-2.755050182E0,9.145050049E0,1.203000069E0,9.626497342E0
3.466754200E-2,-2.793000221E0,9.183000565E0,1.165050030E0,9.668799883E0
3.662758900E-2,-2.830950022E0,9.259950638E0,1.240950108E0,9.762219062E0
3.858763800E-2,-2.908050060E0,9.298050880E0,1.165050030E0,9.811617955E0
4.054763000E-2,-2.985000134E0,9.336000443E0,1.050000072E0,9.857668599E0
4.250763800E-2,-2.985000134E0,9.412950516E0,1.087950110E0,9.934661476E0
4.446741100E-2,-3.022950172E0,9.490050316E0,1.240950108E0,1.003689394E1
4.642725300E-2,-3.061050177E0,9.565950394E0,1.240950108E0,1.012014784E1
4.838714900E-2,-3.100050211E0,9.643050194E0,1.240950108E0,1.020483638E1
5.034702600E-2,-3.100050211E0,9.720000267E0,1.318050027E0,1.028717514E1
5.230700200E-2,-3.214950085E0,9.757950783E0,1.395000100E0,1.036819815E1
5.426694900E-2,-3.175950050E0,9.796050072E0,1.432950020E0,1.039724009E1
5.622695800E-2,-3.253050089E0,9.796050072E0,1.203000069E0,1.039192672E1
5.818694900E-2,-3.138000250E0,9.835050583E0,1.279950023E0,1.040257360E1
6.014693600E-2,-3.138000250E0,9.949950218E0,1.510050058E0,1.054176485E1
6.210693400E-2,-3.100050211E0,1.002600002E1,1.471050024E0,1.059693238E1
6.406711500E-2,-3.100050211E0,1.006500053E1,1.510050058E0,1.063930441E1
6.602724200E-2,-3.100050211E0,1.014105034E1,1.471050024E0,1.070584894E1
6.798758100E-2,-3.061050177E0,1.018005085E1,1.471050024E0,1.073160993E1
6.994785700E-2,-3.061050177E0,1.025595093E1,1.510050058E0,1.080901516E1
7.190765400E-2,-3.061050177E0,1.033305073E1,1.510050058E0,1.088219724E1
7.386757500E-2,-3.061050177E0,1.029495049E1,1.471050024E0,1.084066519E1
7.582758700E-2,-3.061050177E0,1.033305073E1,1.510050058E0,1.088219724E1
7.778757300E-2,-3.061050177E0,1.037100029E1,1.510050058E0,1.091823825E1
7.974757500E-2,-2.946000099E0,1.037100029E1,1.585950017E0,1.089733000E1
8.170757300E-2,-2.908050060E0,1.037100029E1,1.585950017E0,1.088713184E1
8.366760400E-2,-2.985000134E0,1.037100029E1,1.510050058E0,1.089716128E1
8.562763500E-2,-2.908050060E0,1.033305073E1,1.471050024E0,1.083479029E1
8.758763100E-2,-2.830950022E0,1.033305073E1,1.510050058E0,1.081972581E1
8.954763700E-2,-2.716050148E0,1.029495049E1,1.548000097E0,1.075914672E1
9.150741100E-2,-2.677950144E0,1.029495049E1,1.510050058E0,1.074419255E1
9.346725300E-2,-2.677950144E0,1.025595093E1,1.471050024E0,1.070139872E1
9.542715400E-2,-2.677950144E0,1.018005085E1,1.432950020E0,1.062347392E1
9.738703000E-2,-2.601000071E0,1.018005085E1,1.395000100E0,1.059927648E1
9.934682700E-2,-2.524950027E0,1.014105034E1,1.395000100E0,1.054335335E1
1.013066470E-1,-2.524950027E0,1.014105034E1,1.318050027E0,1.053344818E1
1.032663180E-1,-2.485950232E0,1.010295010E1,1.318050027E0,1.048745942E1
1.052260320E-1,-2.485950232E0,1.010295010E1,1.279950023E0,1.048273921E1
1.071855850E-1,-2.448000193E0,1.006500053E1,1.240950108E0,1.043249241E1
1.091451860E-1,-2.448000193E0,9.988050461E0,1.203000069E0,1.035379477E1
1.111050280E-1,-2.448000193E0,9.988050461E0,1.203000069E0,1.035379477E1
1.130647990E-1,-2.448000193E0,9.988050461E0,1.126049995E0,1.034513632E1
1.150246580E-1,-2.410050154E0,1.002600002E1,1.087950110E0,1.036883087E1
1.169844910E-1,-2.448000193E0,9.949950218E0,1.087950110E0,1.030426367E1
1.189445240E-1,-2.448000193E0,9.910950661E0,1.050000072E0,1.026265794E1
1.209044950E-1,-2.485950232E0,9.910950661E0,1.011000037E0,1.026786310E1
1.228643210E-1,-2.448000193E0,9.910950661E0,1.011000037E0,1.025874110E1
1.248241900E-1,-2.485950232E0,9.910950661E0,1.011000037E0,1.026786310E1
1.267840320E-1,-2.524950027E0,9.910950661E0,9.730500579E-1,1.027371121E1
1.287438820E-1,-2.524950027E0,9.873000145E0,8.959500194E-1,1.023006505E1
1.307037860E-1,-2.485950232E0,9.949950218E0,8.580000401E-1,1.029162873E1
1.326636640E-1,-2.563050032E0,9.910950661E0,8.580000401E-1,1.027289309E1
1.346238200E-1,-2.563050032E0,9.949950218E0,8.200500607E-1,1.030743503E1
1.365838950E-1,-2.563050032E0,9.949950218E0,8.200500607E-1,1.030743503E1
1.385437480E-1,-2.485950232E0,9.949950218E0,8.580000401E-1,1.029162873E1
1.405036660E-1,-2.524950027E0,9.988050461E0,9.349500537E-1,1.034459551E1
1.424635000E-1,-2.524950027E0,1.002600002E1,9.349500537E-1,1.038124177E1
1.444233590E-1,-2.524950027E0,1.002600002E1,9.730500579E-1,1.038474244E1
1.463833370E-1,-2.563050032E0,1.006500053E1,9.730500579E-1,1.043169630E1
1.483432800E-1,-2.563050032E0,1.010295010E1,9.730500579E-1,1.046831660E1
1.503032900E-1,-2.563050032E0,1.006500053E1,1.011000037E0,1.043530461E1
1.522632800E-1,-2.563050032E0,1.014105034E1,1.011000037E0,1.050867492E1
1.542229810E-1,-2.524950027E0,1.010295010E1,1.050000072E0,1.046649289E1
1.561827570E-1,-2.524950027E0,1.010295010E1,1.011000037E0,1.046265236E1
1.581425690E-1,-2.601000071E0,1.018005085E1,1.011000037E0,1.055560314E1
1.601023710E-1,-2.640000105E0,1.014105034E1,1.126049995E0,1.053937812E1
1.620620450E-1,-2.601000071E0,1.021800041E1,1.126049995E0,1.060380698E1
1.640217570E-1,-2.677950144E0,1.025595093E1,1.165050030E0,1.066364328E1
1.659816620E-1,-2.677950144E0,1.018005085E1,1.165050030E0,1.059066541E1
1.679414850E-1,-2.716050148E0,1.021800041E1,1.203000069E0,1.064103707E1
1.699013800E-1,-2.793000221E0,1.021800041E1,1.279950023E0,1.066989478E1
1.718612540E-1,-2.793000221E0,1.021800041E1,1.318050027E0,1.067453224E1
1.738212760E-1,-2.830950022E0,1.021800041E1,1.240950108E0,1.067528771E1
1.757812540E-1,-2.869950056E0,1.021800041E1,1.356000066E0,1.069966737E1
1.777413930E-1,-2.908050060E0,1.025595093E1,1.395000100E0,1.075115389E1
1.797014850E-1,-2.908050060E0,1.021800041E1,1.395000100E0,1.071495744E1
1.816615150E-1,-2.946000099E0,1.021800041E1,1.395000100E0,1.072531931E1
1.836215640E-1,-3.022950172E0,1.021800041E1,1.432950020E0,1.075170247E1
1.855819150E-1,-3.022950172E0,1.025595093E1,1.432950020E0,1.078777563E1
1.875421770E-1,-3.061050177E0,1.029495049E1,1.471050024E0,1.084066519E1
1.895021330E-1,-3.100050211E0,1.029495049E1,1.510050058E0,1.085709759E1
1.914621790E-1,-3.061050177E0,1.029495049E1,1.510050058E0,1.084602622E1
1.934223050E-1,-3.061050177E0,1.029495049E1,1.585950017E0,1.085685365E1
1.953824080E-1,-3.022950172E0,1.037100029E1,1.740000129E0,1.094182230E1
1.973425700E-1,-3.022950172E0,1.037100029E1,1.816050053E0,1.095417329E1
1.993027150E-1,-2.985000134E0,1.037100029E1,1.893000126E0,1.095679343E1
2.012628640E-1,-2.946000099E0,1.037100029E1,2.008050203E0,1.096671460E1
2.032230480E-1,-2.908050060E0,1.037100029E1,2.122950077E0,1.097822022E1
2.051833770E-1,-2.908050060E0,1.041000080E1,2.314950228E0,1.105368112E1
2.071436630E-1,-2.869950056E0,1.044795036E1,2.506050110E0,1.112099669E1
2.091035700E-1,-2.793000221E0,1.041000080E1,2.545050144E0,1.107457661E1
2.110635890E-1,-2.716050148E0,1.044795036E1,2.736000061E0,1.113652960E1
2.130238100E-1,-2.677950144E0,1.044795036E1,2.812950134E0,1.114646905E1
2.149839710E-1,-2.601000071E0,1.041000080E1,2.928000212E0,1.112234253E1
2.169440800E-1,-2.524950027E0,1.048605061E1,3.043050051E0,1.120681862E1
2.189042040E-1,-2.410050154E0,1.048605061E1,3.196050167E0,1.122409621E1
2.208640020E-1,-2.332950115E0,1.048605061E1,3.310950041E0,1.124109887E1
2.228238960E-1,-2.256000042E0,1.052505016E1,3.388050079E0,1.128472864E1
2.247837490E-1,-2.179949999E0,1.052505016E1,3.463950157E0,1.129282133E1
2.267436040E-1,-2.179949999E0,1.056300068E1,3.618000269E0,1.137625120E1
2.287034920E-1,-2.065050125E0,1.052505016E1,3.655950069E0,1.133168495E1
2.306633710E-1,-1.950000048E0,1.048605061E1,3.694050074E0,1.128741615E1
2.326230320E-1,-1.911000133E0,1.044795036E1,3.808950186E0,1.128360270E1
2.345827570E-1,-1.834950089E0,1.037100029E1,3.847950220E0,1.121300182E1
2.365424100E-1,-1.681950092E0,1.037100029E1,3.924000263E0,1.121536362E1
2.385021080E-1,-1.605000019E0,1.029495049E1,3.963000298E0,1.114752896E1
2.404622940E-1,-1.489950061E0,1.025595093E1,4.039050102E0,1.112287761E1
2.424223370E-1,-1.413000107E0,1.018005085E1,4.116000175E0,1.107119967E1
2.443823310E-1,-1.336950064E0,1.014105034E1,4.116000175E0,1.102586935E1
2.463423390E-1,-1.222050071E0,1.006500053E1,4.116000175E0,1.094253625E1
2.483021570E-1,-1.106999993E0,9.949950218E0,4.116000175E0,1.082443605E1
2.502620310E-1,-1.068000078E0,9.910950661E0,4.116000175E0,1.078466618E1
2.522216920E-1,-9.529500604E-1,9.796050072E0,4.192950249E0,1.069820277E1
2.541814160E-1,-9.150000215E-1,9.757950783E0,4.269000053E0,1.069014453E1
2.561411020E-1,-8.380500674E-1,9.681000710E0,4.384050369E0,1.066039400E1
2.581008000E-1,-7.230000496E-1,9.565950394E0,4.423050404E0,1.056378298E1
2.600606470E-1,-6.469500065E-1,9.565950394E0,4.537950039E0,1.060749461E1
2.620204670E-1,-5.320500135E-1,9.412950516E0,4.614000320E0,1.049646196E1
2.639804980E-1,-5.320500135E-1,9.336000443E0,4.653000355E0,1.044482617E1
2.659404670E-1,-3.780000210E-1,9.259950638E0,4.690950394E0,1.038723185E1
2.679001130E-1,-2.629500031E-1,9.145050049E0,4.690950394E0,1.028134712E1
2.698598530E-1,-1.870500147E-1,9.030000687E0,4.653000355E0,1.016003506E1
2.718197570E-1,-7.200000435E-2,8.914950371E0,4.653000355E0,1.005643756E1
2.737796160E-1,4.200000316E-2,8.800050735E0,4.729050159E0,9.990323937E0
2.757395950E-1,8.100000024E-2,8.685000420E0,4.614000320E0,9.834876321E0
2.776995390E-1,1.960500032E-1,8.569950104E0,4.576050282E0,9.717135204E0
2.796592340E-1,2.719500065E-1,8.493000031E0,4.423050404E0,9.579581473E0
2.816190020E-1,3.870000243E-1,8.377950668E0,4.308000088E0,9.428610246E0
2.835797080E-1,4.639500082E-1,8.302050591E0,4.231050014E0,9.329580797E0
2.855401450E-1,5.790000558E-1,8.263050079E0,4.116000175E0,9.249578105E0
2.875000710E-1,6.169500351E-1,8.148000717E0,4.039050102E0,9.115068226E0
2.894601470E-1,6.169500351E-1,8.110050201E0,3.963000298E0,9.047591557E0
2.914190980E-1,5.410500169E-1,8.071949959E0,3.924000263E0,8.991489828E0
2.933783780E-1,4.639500082E-1,8.032950401E0,3.847950220E0,8.919095395E0
2.953382700E-1,5.020500422E-1,8.032950401E0,3.733050108E0,8.872204320E0
2.972979860E-1,5.020500422E-1,7.957050323E0,3.694050074E0,8.787076308E0
2.992573600E-1,5.020500422E-1,7.918050289E0,3.655950069E0,8.735762447E0
3.012168340E-1,3.490500152E-1,7.765050411E0,3.579000235E0,8.557282658E0
3.031768790E-1,2.340000123E-1,7.765050411E0,3.579000235E0,8.553362296E0
3.051367560E-1,3.870000243E-1,7.765050411E0,3.579000235E0,8.558914627E0
3.070973720E-1,5.020500422E-1,7.687950134E0,3.541050196E0,8.479131323E0
3.090577650E-1,5.790000558E-1,7.650000572E0,3.502950191E0,8.433766055E0
3.110176540E-1,7.320000529E-1,7.650000572E0,3.463950157E0,8.429548240E0
3.129776900E-1,7.699500322E-1,7.612050533E0,3.349050045E0,8.351782599E0
3.149375030E-1,7.699500322E-1,7.612050533E0,3.081000090E0,8.247951135E0
3.168973820E-1,8.850000501E-1,7.726950169E0,2.928000212E0,8.310365169E0
3.188570740E-1,1.039050102E0,7.687950134E0,2.812950134E0,8.252084030E0
3.208168300E-1,1.000050068E0,7.726950169E0,2.583000183E0,8.208395031E0
3.227766450E-1,9.619500637E-1,7.765050411E0,2.391000032E0,8.181579124E0
3.247364430E-1,8.850000501E-1,7.879950523E0,2.238000154E0,8.239265139E0
3.266955770E-1,5.790000558E-1,7.918050289E0,2.085000038E0,8.208409505E0
3.286549060E-1,5.020500422E-1,8.187000275E0,2.046000004E0,8.453705919E0
3.306146790E-1,5.020500422E-1,8.224950790E0,1.969950080E0,8.472459682E0
3.325743080E-1,4.260000288E-1,8.340000153E0,1.893000126E0,8.562740685E0
3.345340110E-1,3.870000243E-1,8.455050468E0,1.930950046E0,8.681371753E0
3.364936930E-1,3.870000243E-1,8.532000542E0,1.930950046E0,8.756333156E0
3.384536120E-1,3.109500110E-1,8.608050346E0,1.893000126E0,8.819221630E0
3.404134620E-1,2.719500065E-1,8.722949982E0,1.893000126E0,8.930132287E0
3.423733080E-1,2.340000123E-1,8.838000298E0,1.893000126E0,9.041485207E0
3.443331560E-1,1.960500032E-1,8.914950371E0,1.777950048E0,9.092627898E0
3.462928220E-1,1.189500093E-1,9.067950249E0,1.855050087E0,9.256515632E0
3.482525410E-1,8.100000024E-2,9.145050049E0,1.777950048E0,9.316630709E0
3.502122290E-1,4.050000105E-3,9.259950638E0,1.816050053E0,9.436352050E0
3.521719260E-1,-3.299999982E-2,9.336000443E0,1.855050087E0,9.518571536E0
3.541319470E-1,-1.099500060E-1,9.412950516E0,1.816050053E0,9.587166641E0
3.560918620E-1,-1.480500102E-1,9.490050316E0,1.855050087E0,9.670790279E0
3.580515620E-1,-2.250000089E-1,9.565950394E0,1.855050087E0,9.746755499E0
3.600113250E-1,-3.400500119E-1,9.681000710E0,1.930950046E0,9.877549131E0
3.619710050E-1,-4.549500346E-1,9.720000267E0,2.008050203E0,9.935675636E0
3.639307100E-1,-5.320500135E-1,9.796050072E0,2.122950077E0,1.003755903E1
3.658907420E-1,-6.469500065E-1,9.835050583E0,2.161050081E0,1.009043615E1
3.678506590E-1,-6.850500107E-1,9.796050072E0,2.161050081E0,1.005495042E1
3.698103130E-1,-7.999500632E-1,9.796050072E0,2.122950077E0,1.005531870E1
3.717700450E-1,-9.150000215E-1,9.796050072E0,2.085000038E0,1.005718883E1
3.737295950E-1,-1.030050039E0,9.796050072E0,2.238000154E0,1.010110117E1
3.756891990E-1,-1.222050071E0,9.796050072E0,2.353049994E0,1.014853919E1
3.776489110E-1,-1.297950029E0,9.835050583E0,2.275950193E0,1.017805696E1
3.796085870E-1,-1.375050068E0,9.910950661E0,2.161050081E0,1.023659334E1
3.815682820E-1,-1.489950061E0,9.910950661E0,2.085000038E0,1.023689989E1
3.835279720E-1,-1.489950061E0,9.949950218E0,2.046000004E0,1.026681920E1
3.854878000E-1,-1.642950058E0,9.949950218E0,1.930950046E0,1.026788013E1
3.874475870E-1,-1.758000135E0,1.006500053E1,1.930950046E0,1.039823871E1
3.894074770E-1,-1.911000133E0,1.010295010E1,1.855050087E0,1.044809710E1
3.913673130E-1,-1.987950087E0,1.018005085E1,1.740000129E0,1.051727062E1
3.933271610E-1,-2.103000164E0,1.021800041E1,1.701000094E0,1.056993583E1
3.952870060E-1,-2.256000042E0,1.029495049E1,1.624950051E0,1.066377064E1
3.972467180E-1,-2.410050154E0,9.910950661E0,1.011000037E0,1.024975150E1
3.992064690E-1,-2.485950232E0,1.029495049E1,8.959500194E-1,1.062867256E1
4.011666720E-1,-2.524950027E0,1.029495049E1,1.585950017E0,1.071805092E1
4.031267560E-1,-2.640000105E0,1.033305073E1,1.855050087E0,1.082509809E1
4.050868770E-1,-2.755050182E0,1.044795036E1,1.969950080E0,1.098319952E1
4.070469870E-1,-2.869950056E0,1.041000080E1,1.930950046E0,1.096965351E1
4.090067890E-1,-3.022950172E0,1.048605061E1,1.893000126E0,1.107605230E1
4.109666810E-1,-3.022950172E0,1.056300068E1,1.777950048E0,1.112997383E1
4.129265040E-1,-3.138000250E0,1.056300068E1,1.663050056E0,1.114404614E1
4.148863580E-1,-3.291000128E0,1.056300068E1,1.585950017E0,1.117689146E1
4.168463820E-1,-3.406050205E0,1.056300068E1,1.510050058E0,1.120082196E1
4.188063560E-1,-3.520950079E0,1.060095024E1,1.471050024E0,1.126681959E1
4.207661820E-1,-3.636000156E0,1.060095024E1,1.471050024E0,1.130330179E1
4.227260510E-1,-3.712950230E0,1.060095024E1,1.395000100E0,1.131866470E1
4.246859080E-1,-3.790050268E0,1.056300068E1,1.318050027E0,1.129950089E1
4.266457580E-1,-3.751050234E0,1.037100029E1,1.011000037E0,1.107475264E1
4.286056030E-1,-3.598050117E0,1.002600002E1,-6.105000153E-2,1.065224710E1
4.305654500E-1,-3.483000278E0,1.021800041E1,3.220500052E-1,1.080011757E1
4.325249810E-1,-3.636000156E0,1.033305073E1,1.165050030E0,1.101588744E1
4.344846040E-1,-3.751050234E0,1.044795036E1,1.510050058E0,1.120313777E1
4.364446020E-1,-3.943050146E0,1.048605061E1,1.510050058E0,1.130420952E1
4.384045050E-1,-3.981000185E0,1.041000080E1,1.510050058E0,1.124707652E1
4.403639820E-1,-3.981000185E0,1.037100029E1,1.356000066E0,1.119127989E1
4.423235840E-1,-3.981000185E0,1.025595093E1,1.203000069E0,1.106707283E1
4.442833360E-1,-3.943050146E0,1.021800041E1,1.050000072E0,1.100262137E1
4.462430440E-1,-3.828000069E0,1.018005085E1,1.011000037E0,1.092287237E1
4.482027530E-1,-3.790050268E0,1.006500053E1,1.011000037E0,1.080235335E1
4.501624490E-1,-3.751050234E0,1.010295010E1,1.050000072E0,1.082785660E1
4.521220960E-1,-3.636000156E0,9.988050461E0,1.165050030E0,1.069294116E1
4.540817570E-1,-3.483000278E0,9.835050583E0,9.730500579E-1,1.047885191E1
4.560413200E-1,-3.445050240E0,9.796050072E0,6.660000086E-1,1.040550451E1
4.580009110E-1,-3.291000128E0,9.681000710E0,5.509500504E-1,1.023992200E1
4.599606340E-1,-3.061050177E0,9.490050316E0,5.509500504E-1,9.986722643E0
4.619203080E-1,-2.908050060E0,9.336000443E0,6.660000086E-1,9.801082360E0
4.638799600E-1,-2.793000221E0,9.298050880E0,7.429500222E-1,9.736866803E0
4.658396180E-1,-2.677950144E0,9.145050049E0,8.580000401E-1,9.567628830E0
4.677991360E-1,-2.601000071E0,9.145050049E0,9.349500537E-1,9.553600021E0
4.697586950E-1,-2.563050032E0,9.106050491E0,8.580000401E-1,9.498712812E0
4.717185890E-1,-2.563050032E0,9.067950249E0,7.810500264E-1,9.455526761E0
4.736783850E-1,-2.524950027E0,9.067950249E0,7.429500222E-1,9.442196201E0
4.756382400E-1,-2.485950232E0,9.030000687E0,7.050000429E-1,9.392437704E0
4.775980780E-1,-2.448000193E0,9.030000687E0,4.750500321E-1,9.367992841E0
4.795577460E-1,-2.410050154E0,8.991000175E0,4.360500276E-1,9.318613927E0
4.815174640E-1,-2.256000042E0,8.991000175E0,3.600000143E-1,9.276703097E0
4.834780470E-1,-2.179949999E0,8.991000175E0,2.070000172E-1,9.253816248E0
4.854383800E-1,-2.065050125E0,9.030000687E0,1.680000126E-1,9.264640761E0
4.873980090E-1,-2.026050091E0,8.991000175E0,1.300500035E-1,9.217368178E0
4.893578440E-1,-1.911000133E0,9.030000687E0,1.500000060E-2,9.230008608E0
4.913175120E-1,-1.834950089E0,8.953050613E0,1.500000060E-2,9.139167474E0
4.932772290E-1,-1.642950058E0,8.455050468E0,-4.440000355E-1,8.624633288E0
4.952368930E-1,-1.452000022E0,8.416950226E0,-1.057050109E0,8.606434227E0
4.971965890E-1,-1.413000107E0,8.800050735E0,-3.670500219E-1,8.920324432E0
4.991556950E-1,-1.375050068E0,9.067950249E0,5.130000114E-1,9.185948694E0
5.011149740E-1,-1.489950061E0,9.106050491E0,8.580000401E-1,9.266945063E0
5.030750970E-1,-1.489950061E0,9.145050049E0,8.959500194E-1,9.308846224E0
5.050349720E-1,-1.452000022E0,9.298050880E0,7.810500264E-1,9.443097658E0
5.069959300E-1,-1.452000022E0,9.220950127E0,3.979500234E-1,9.343050333E0
5.089565770E-1,-1.413000107E0,9.220950127E0,2.070000172E-1,9.330880963E0
5.109166020E-1,-1.336950064E0,9.145050049E0,1.500000060E-2,9.242272495E0
5.128768100E-1,-1.222050071E0,9.145050049E0,-9.900000691E-2,9.226870963E0
5.148370000E-1,-1.183050036E0,9.067950249E0,-2.205000073E-2,9.144824509E0
5.167971950E-1,-1.144950032E0,8.991000175E0,-6.105000153E-2,9.063813868E0
5.187570830E-1,-1.030050039E0,8.991000175E0,1.500000060E-2,9.049823879E0
5.207170850E-1,-9.919500351E-1,9.030000687E0,1.300500035E-1,9.085251250E0
5.226771290E-1,-1.030050039E0,8.991000175E0,2.070000172E-1,9.052178536E0
5.246371600E-1,-9.529500604E-1,8.914950371E0,1.680000126E-1,8.967311634E0
5.265971560E-1,-8.770500422E-1,8.914950371E0,2.070000172E-1,8.960379785E0
5.285571620E-1,-8.770500422E-1,8.877000809E0,2.449500114E-1,8.923584518E0
5.305165220E-1,-9.529500604E-1,8.838000298E0,2.449500114E-1,8.892601621E0
5.324761090E-1,-9.529500604E-1,8.838000298E0,2.830500007E-1,8.893732646E0
5.344361790E-1,-9.529500604E-1,8.838000298E0,3.220500052E-1,8.895059262E0
5.363961070E-1,-9.919500351E-1,8.800050735E0,3.220500052E-1,8.861634952E0
5.383558050E-1,-9.919500351E-1,8.722949982E0,3.600000143E-1,8.786547744E0
5.403155700E-1,-1.030050039E0,8.722949982E0,3.220500052E-1,8.789458213E0
5.422752350E-1,-1.030050039E0,8.800050735E0,3.600000143E-1,8.867440219E0
5.442349400E-1,-1.068000078E0,8.722949982E0,3.220500052E-1,8.793986397E0
5.461951700E-1,-1.144950032E0,8.761950493E0,3.220500052E-1,8.842307573E0
5.481552460E-1,-1.144950032E0,8.722949982E0,3.600000143E-1,8.805132990E0
5.501161340E-1,-1.260000110E0,8.685000420E0,3.220500052E-1,8.781830605E0
5.520767840E-1,-1.260000110E0,8.685000420E0,2.830500007E-1,8.780486881E0
5.540362350E-1,-1.336950064E0,8.647050858E0,2.070000172E-1,8.752243884E0
5.559960610E-1,-1.413000107E0,8.685000420E0,9.195000678E-2,8.799673653E0
5.579557750E-1,-1.489950061E0,8.647050858E0,5.295000225E-2,8.774636370E0
5.599155220E-1,-1.413000107E0,8.493000031E0,1.500000060E-2,8.609752832E0
5.618752050E-1,-1.413000107E0,8.187000275E0,-1.369500011E-1,8.309169519E0
5.638349070E-1,-1.375050068E0,7.803000450E0,-1.326000094E0,8.033421125E0
5.657939910E-1,-1.413000107E0,8.148000717E0,-5.590500236E-1,8.288487312E0
5.677532710E-1,-1.452000022E0,8.263050079E0,3.600000143E-1,8.397374631E0
5.697130780E-1,-1.567050099E0,8.455050468E0,8.580000401E-1,8.641741058E0
5.716727300E-1,-1.758000135E0,8.493000031E0,8.580000401E-1,8.715375957E0
5.736325650E-1,-1.795950055E0,8.455050468E0,7.810500264E-1,8.678902821E0
5.755923460E-1,-1.873050094E0,8.377950668E0,4.750500321E-1,8.597909431E0
5.775531090E-1,-1.950000048E0,8.340000153E0,1.300500035E-1,8.565921768E0
5.795135810E-1,-1.950000048E0,8.302050591E0,-6.105000153E-2,8.528204459E0
5.814730060E-1,-1.987950087E0,8.263050079E0,-1.369500011E-1,8.499923380E0
5.834327370E-1,-2.065050125E0,8.187000275E0,-1.759500057E-1,8.445256889E0
5.853925570E-1,-1.950000048E0,8.224950790E0,-2.140500098E-1,8.455656870E0
5.873523510E-1,-2.026050091E0,8.148000717E0,-2.910000086E-1,8.401159186E0
5.893118960E-1,-1.987950087E0,8.110050201E0,-2.910000086E-1,8.355210400E0
5.912715110E-1,-1.987950087E0,8.110050201E0,-2.520000041E-1,8.353943010E0
5.932313510E-1,-1.987950087E0,8.071949959E0,-2.520000041E-1,8.316960123E0
5.951911250E-1,-1.987950087E0,8.032950401E0,-2.910000086E-1,8.280393632E0
5.971509830E-1,-1.950000048E0,7.957050323E0,-2.910000086E-1,8.197672294E0
5.991108170E-1,-1.950000048E0,7.957050323E0,-2.910000086E-1,8.197672294E0
6.010704760E-1,-1.987950087E0,7.918050289E0,-2.910000086E-1,8.168974656E0
6.030301940E-1,-1.987950087E0,7.879950523E0,-2.140500098E-1,8.129660707E0
6.049895660E-1,-2.026050091E0,7.842000484E0,-2.520000041E-1,8.103416228E0
6.069490400E-1,-1.987950087E0,7.842000484E0,-2.910000086E-1,8.095282463E0
6.089087690E-1,-1.950000048E0,7.803000450E0,-2.520000041E-1,8.046913707E0
6.108684230E-1,-1.950000048E0,7.765050411E0,-2.910000086E-1,8.011441136E0
6.128282760E-1,-1.950000048E0,7.687950134E0,-2.910000086E-1,7.936734748E0
6.147880570E-1,-1.873050094E0,7.650000572E0,-3.289500177E-1,7.882831568E0
6.167477350E-1,-1.873050094E0,7.573050499E0,-2.910000086E-1,7.806669682E0
6.187074440E-1,-1.795950055E0,7.534950256E0,-4.060500264E-1,7.756660918E0
6.206671330E-1,-1.758000135E0,7.458000183E0,-4.440000355E-1,7.675250305E0
6.226268280E-1,-1.720050097E0,7.458000183E0,-4.819500148E-1,7.668938315E0
6.245865500E-1,-1.720050097E0,7.458000183E0,-5.590500236E-1,7.674169401E0
6.265462740E-1,-1.681950092E0,7.458000183E0,-6.360000372E-1,7.671715512E0
6.285063210E-1,-1.720050097E0,7.420050144E0,-6.739500165E-1,7.646562960E0
6.304662740E-1,-1.605000019E0,7.420050144E0,-7.120500207E-1,7.624971110E0
6.324260580E-1,-1.642950058E0,7.381950378E0,-7.890000343E-1,7.603617385E0
6.343858910E-1,-1.642950058E0,7.420050144E0,-7.510500550E-1,7.636786315E0
6.363455590E-1,-1.605000019E0,7.420050144E0,-7.510500550E-1,7.628711909E0
6.383052760E-1,-1.605000019E0,7.420050144E0,-7.120500207E-1,7.624971110E0
6.402650080E-1,-1.642950058E0,7.497000217E0,-6.739500165E-1,7.704447143E0
6.422247350E-1,-1.642950058E0,7.497000217E0,-6.739500165E-1,7.704447143E0
6.441847370E-1,-1.681950092E0,7.573050499E0,-5.590500236E-1,7.777698046E0
6.461446580E-1,-1.720050097E0,7.650000572E0,-4.819500148E-1,7.855784933E0
6.481043120E-1,-1.720050097E0,7.650000572E0,-4.440000355E-1,7.853548059E0
6.500640450E-1,-1.720050097E0,7.687950134E0,-4.060500264E-1,7.888474265E0
6.520237760E-1,-1.720050097E0,7.765050411E0,-4.060500264E-1,7.963633395E0
6.539835070E-1,-1.795950055E0,7.765050411E0,-4.060500264E-1,7.980370988E0
6.559433270E-1,-1.795950055E0,7.803000450E0,-3.289500177E-1,8.013766951E0
6.579031200E-1,-1.834950089E0,7.879950523E0,-2.520000041E-1,8.094699876E0
6.598627960E-1,-1.834950089E0,7.842000484E0,-3.289500177E-1,8.060534817E0
6.618225070E-1,-1.873050094E0,7.918050289E0,-3.289500177E-1,8.143220809E0
6.637822400E-1,-1.950000048E0,7.995000362E0,-3.289500177E-1,8.235941907E0
6.657419660E-1,-1.950000048E0,8.032950401E0,-3.289500177E-1,8.272786740E0
6.677016540E-1,-1.987950087E0,8.032950401E0,-3.289500177E-1,8.281814162E0
6.696613530E-1,-2.026050091E0,8.110050201E0,-3.289500177E-1,8.365763644E0
6.716212070E-1,-2.026050091E0,8.148000717E0,-3.670500219E-1,8.404137099E0
6.735809950E-1,-1.987950087E0,8.148000717E0,-3.670500219E-1,8.395033469E0
6.755406720E-1,-2.026050091E0,8.187000275E0,-3.670500219E-1,8.441953458E0
6.775003820E-1,-2.026050091E0,8.224950790E0,-3.289500177E-1,8.477198983E0
6.794602950E-1,-2.026050091E0,8.263050079E0,-3.670500219E-1,8.515726704E0
6.814201490E-1,-2.103000164E0,8.302050591E0,-2.910000086E-1,8.569208523E0
6.833798290E-1,-2.065050125E0,8.302050591E0,-4.060500264E-1,8.564657182E0
6.853395500E-1,-2.103000164E0,8.340000153E0,-4.819500148E-1,8.614550949E0
6.872993710E-1,-2.103000164E0,8.340000153E0,-5.209500194E-1,8.616820827E0
6.892591630E-1,-2.179949999E0,8.455050468E0,-6.360000372E-1,8.754687685E0
6.912188400E-1,-2.179949999E0,8.532000542E0,-6.739500165E-1,8.831841476E0
6.931785500E-1,-2.256000042E0,8.493000031E0,-7.120500207E-1,8.816325819E0
6.951380540E-1,-2.256000042E0,8.569950104E0,-7.120500207E-1,8.890477839E0
6.970976220E-1,-2.256000042E0,8.685000420E0,-7.510500550E-1,9.004601305E0
6.990571550E-1,-2.256000042E0,8.722949982E0,-8.269500136E-1,9.047830618E0
7.010166990E-1,-2.218050003E0,8.685000420E0,-8.659500480E-1,9.005489858E0
7.029764150E-1,-2.256000042E0,8.800050735E0,-8.269500136E-1,9.122185893E0
7.049360810E-1,-2.179949999E0,8.914950371E0,-8.269500136E-1,9.214790743E0
7.068960180E-1,-2.140950203E0,8.877000809E0,-8.659500480E-1,9.172495877E0
7.088558650E-1,-2.103000164E0,8.914950371E0,-8.659500480E-1,9.200479297E0
7.108157120E-1,-2.026050091E0,8.914950371E0,-8.269500136E-1,9.179600504E0
7.127755590E-1,-1.987950087E0,8.953050613E0,-7.510500550E-1,9.201800749E0
7.147352250E-1,-1.987950087E0,8.953050613E0,-8.659500480E-1,9.211890703E0
7.166949440E-1,-1.987950087E0,9.030000687E0,-8.269500136E-1,9.283140862E0
7.186550440E-1,-1.950000048E0,9.067950249E0,-7.890000343E-1,9.308745509E0
7.206149950E-1,-2.065050125E0,9.106050491E0,-8.659500480E-1,9.377337418E0
7.225744640E-1,-2.103000164E0,9.259950638E0,-8.269500136E-1,9.531691446E0
7.245340740E-1,-2.140950203E0,9.259950638E0,-8.659500480E-1,9.543595919E0
7.264939600E-1,-2.179949999E0,9.259950638E0,-9.420000315E-1,9.559614630E0
7.284537650E-1,-2.256000042E0,9.375000000E0,-9.040500522E-1,9.684909276E0
7.304137990E-1,-2.332950115E0,9.490050316E0,-9.810000658E-1,9.821714329E0
7.323737650E-1,-2.371050119E0,9.565950394E0,-1.018950105E0,9.907953619E0
7.343335460E-1,-2.485950232E0,9.681000710E0,-9.810000658E-1,1.004311129E1
7.362933820E-1,-2.524950027E0,9.681000710E0,-9.810000658E-1,1.005283584E1
7.382535890E-1,-2.601000071E0,9.720000267E0,-1.018950105E0,1.011344975E1
7.402136880E-1,-2.640000105E0,9.757950783E0,-9.810000658E-1,1.015625744E1
7.421733600E-1,-2.640000105E0,9.757950783E0,-1.018950105E0,1.015999328E1
7.441331550E-1,-2.677950144E0,9.757950783E0,-9.420000315E-1,1.016249893E1
7.460929640E-1,-2.716050148E0,9.757950783E0,-9.810000658E-1,1.017629073E1
7.480527690E-1,-2.755050182E0,9.796050072E0,-9.420000315E-1,1.021960188E1
7.500126670E-1,-2.793000221E0,9.796050072E0,-9.040500522E-1,1.022647318E1
7.519725380E-1,-2.830950022E0,9.757950783E0,-8.659500480E-1,1.019714426E1
7.539325310E-1,-2.830950022E0,9.796050072E0,-8.659500480E-1,1.023360858E1
7.558924770E-1,-2.869950056E0,9.757950783E0,-9.040500522E-1,1.021134287E1
7.578521720E-1,-2.869950056E0,9.681000710E0,-7.890000343E-1,1.012822339E1
7.598119400E-1,-2.869950056E0,9.681000710E0,-7.510500550E-1,1.012533773E1
7.617717540E-1,-2.830950022E0,9.643050194E0,-7.510500550E-1,1.007803410E1
7.637315540E-1,-2.869950056E0,9.643050194E0,-6.360000372E-1,1.008114708E1
7.656914190E-1,-2.908050060E0,9.604950905E0,-5.970000029E-1,1.005327042E1
7.676512890E-1,-2.869950056E0,9.565950394E0,-5.209500194E-1,1.000077043E1
7.696109520E-1,-2.869950056E0,9.528000832E0,-4.819500148E-1,9.962514190E0
7.715706760E-1,-2.830950022E0,9.528000832E0,-3.670500219E-1,9.946446782E0
7.735305420E-1,-2.830950022E0,9.528000832E0,-4.060500264E-1,9.947962329E0
7.754903660E-1,-2.869950056E0,9.451050758E0,-3.670500219E-1,9.884012317E0
7.774502020E-1,-2.869950056E0,9.490050316E0,-3.289500177E-1,9.919973611E0
7.794100440E-1,-2.830950022E0,9.490050316E0,-3.289500177E-1,9.908760828E0
7.813697120E-1,-2.869950056E0,9.490050316E0,-2.910000086E-1,9.918787694E0
7.833294310E-1,-2.869950056E0,9.528000832E0,-2.520000041E-1,9.954040244E0
7.852890740E-1,-2.908050060E0,9.565950394E0,-2.910000086E-1,1.000244186E1
7.872487390E-1,-2.908050060E0,9.604950905E0,-2.910000086E-1,1.003974691E1
7.892082650E-1,-2.908050060E0,9.604950905E0,-2.910000086E-1,1.003974691E1
7.911678250E-1,-2.908050060E0,9.643050194E0,-3.670500219E-1,1.007868533E1
7.931275840E-1,-2.946000099E0,9.720000267E0,-4.060500264E-1,1.016475275E1
7.950872840E-1,-2.908050060E0,9.681000710E0,-3.670500219E-1,1.011500151E1
7.970469760E-1,-2.908050060E0,9.757950783E0,-4.060500264E-1,1.019015384E1
7.990066710E-1,-2.908050060E0,9.796050072E0,-4.060500264E-1,1.022664308E1
8.009663430E-1,-2.830950022E0,9.835050583E0,-4.060500264E-1,1.024243011E1
8.029260360E-1,-2.908050060E0,9.873000145E0,-4.440000355E-1,1.030194268E1
8.048859080E-1,-2.908050060E0,9.910950661E0,-4.819500148E-1,1.034001808E1
8.068457270E-1,-2.946000099E0,9.949950218E0,-4.819500148E-1,1.038810386E1
8.088052180E-1,-2.908050060E0,9.949950218E0,-4.819500148E-1,1.037740528E1
8.107648060E-1,-2.946000099E0,9.988050461E0,-5.590500236E-1,1.042845173E1
8.127245490E-1,-2.985000134E0,1.002600002E1,-5.209500194E-1,1.047388615E1
8.146842220E-1,-2.985000134E0,1.002600002E1,-5.590500236E-1,1.047585028E1
8.166438740E-1,-3.061050177E0,1.002600002E1,-6.360000372E-1,1.050215219E1
8.186035320E-1,-3.022950172E0,1.002600002E1,-7.510500550E-1,1.049871327E1
8.205632290E-1,-3.061050177E0,1.006500053E1,-8.659500480E-1,1.055576304E1
8.225229150E-1,-3.100050211E0,1.002600002E1,-9.420000315E-1,1.053652466E1
8.244826080E-1,-3.100050211E0,1.002600002E1,-1.018950105E0,1.054368280E1
8.264422990E-1,-3.175950050E0,1.006500053E1,-1.096050024E0,1.061094813E1
8.284018580E-1,-3.253050089E0,1.010295010E1,-1.096050024E0,1.067020436E1
8.303614550E-1,-3.291000128E0,1.006500053E1,-1.134000063E0,1.064992365E1
8.323213430E-1,-3.330000162E0,1.002600002E1,-1.171950102E0,1.062934827E1
8.342811450E-1,-3.406050205E0,9.988050461E0,-1.210950017E0,1.062208689E1
8.362407840E-1,-3.406050205E0,9.988050461E0,-1.249050021E0,1.062649782E1
8.382004640E-1,-3.520950079E0,9.988050461E0,-1.249050021E0,1.066388144E1
8.401602030E-1,-3.559950113E0,9.949950218E0,-1.249050021E0,1.064118791E1
8.421199240E-1,-3.636000156E0,9.988050461E0,-1.287000060E0,1.070691451E1
8.440797460E-1,-3.636000156E0,9.949950218E0,-1.249050021E0,1.066687079E1
8.460395390E-1,-3.712950230E0,9.949950218E0,-1.249050021E0,1.069334535E1
8.479994390E-1,-3.751050234E0,9.910950661E0,-1.210950017E0,1.066600773E1
8.499593080E-1,-3.790050268E0,9.910950661E0,-1.210950017E0,1.067978576E1
8.519191070E-1,-3.828000069E0,9.949950218E0,-1.096050024E0,1.071710873E1
8.538789260E-1,-3.865950108E0,9.988050461E0,-1.134000063E0,1.076998971E1
8.558385960E-1,-3.904950142E0,1.006500053E1,-1.018950105E0,1.084394442E1
8.577983100E-1,-3.904950142E0,1.014105034E1,-9.810000658E-1,1.091109063E1
8.597583200E-1,-3.943050146E0,1.018005085E1,-8.659500480E-1,1.095129898E1
8.617182700E-1,-4.018949986E0,1.025595093E1,-6.739500165E-1,1.103588225E1
8.636777840E-1,-4.018949986E0,1.033305073E1,-5.209500194E-1,1.109933715E1
8.656374260E-1,-3.981000185E0,1.041000080E1,-4.060500264E-1,1.115263896E1
8.675969470E-1,-3.943050146E0,1.048605061E1,-3.289500177E-1,1.120772546E1
8.695565030E-1,-3.943050146E0,1.063995075E1,-3.670500219E-1,1.135301379E1
8.715162270E-1,-3.865950108E0,1.071600056E1,-2.520000041E-1,1.139481207E1
8.734758950E-1,-3.790050268E0,1.079295063E1,-2.910000086E-1,1.144276826E1
8.754357720E-1,-3.675000191E0,1.087005043E1,-2.140500098E-1,1.147647333E1
8.773955870E-1,-3.598050117E0,1.094595051E1,-2.140500098E-1,1.152413184E1
8.793556190E-1,-3.520950079E0,1.098495007E1,-2.520000041E-1,1.153818536E1
8.813155870E-1,-3.367950201E0,1.090800095E1,-2.520000041E-1,1.141889124E1
8.832755580E-1,-3.100050211E0,1.083105087E1,1.500000060E-2,1.126597529E1
8.852355220E-1,-3.138000250E0,1.090800095E1,-9.900000691E-2,1.135082954E1
8.871952130E-1,-3.138000250E0,1.102305031E1,-1.369500011E-1,1.146182529E1
8.891549840E-1,-3.061050177E0,1.106100082E1,-1.759500057E-1,1.147809766E1
8.911147970E-1,-2.985000134E0,1.102305031E1,-2.205000073E-2,1.142008538E1
8.930745970E-1,-2.908050060E0,1.102305031E1,1.500000060E-2,1.140020255E1
8.950344560E-1,-2.869950056E0,1.098495007E1,9.195000678E-2,1.135403876E1
8.969942940E-1,-2.830950022E0,1.106100082E1,1.300500035E-1,1.141827177E1
8.989540080E-1,-2.830950022E0,1.087005043E1,-1.759500057E-1,1.123402122E1
9.009137580E-1,-2.716050148E0,1.075500011E1,-1.326000094E0,1.117162621E1
9.028727190E-1,-2.410050154E0,1.079295063E1,-2.205000073E-2,1.105877983E1
9.048319120E-1,-2.371050119E0,1.098495007E1,1.011000037E0,1.128331191E1
9.067914750E-1,-2.448000193E0,1.102305031E1,1.356000066E0,1.137273403E1
9.087509530E-1,-2.485950232E0,1.102305031E1,1.356000066E0,1.138096318E1
9.107106370E-1,-2.410050154E0,1.098495007E1,1.165050030E0,1.130640576E1
9.126702600E-1,-2.410050154E0,1.102305031E1,8.959500194E-1,1.131895341E1
9.146299650E-1,-2.371050119E0,1.106100082E1,5.509500504E-1,1.132568602E1
9.165896450E-1,-2.332950115E0,1.106100082E1,3.220500052E-1,1.130893946E1
9.185504710E-1,-2.256000042E0,1.102305031E1,2.449500114E-1,1.125420698E1
9.205109580E-1,-2.179949999E0,1.106100082E1,2.830500007E-1,1.127732409E1
9.224697490E-1,-2.140950203E0,1.098495007E1,3.220500052E-1,1.119627223E1
9.244290370E-1,-2.103000164E0,1.098495007E1,4.750500321E-1,1.119452590E1
9.263886170E-1,-2.065050125E0,1.098495007E1,5.509500504E-1,1.119093856E1
9.283481120E-1,-1.987950087E0,1.102305031E1,6.660000086E-1,1.122065683E1
9.303076240E-1,-1.987950087E0,1.098495007E1,6.660000086E-1,1.118322983E1
9.322671550E-1,-1.873050094E0,1.098495007E1,6.660000086E-1,1.116337765E1
9.342267390E-1,-1.911000133E0,1.098495007E1,6.660000086E-1,1.116980776E1
9.361863080E-1,-1.834950089E0,1.098495007E1,6.660000086E-1,1.115704826E1
9.381460220E-1,-1.795950055E0,1.094595051E1,7.810500264E-1,1.111977105E1
9.401056930E-1,-1.681950092E0,1.098495007E1,8.200500607E-1,1.114318474E1
9.420655380E-1,-1.681950092E0,1.102305031E1,7.810500264E-1,1.117795300E1
9.440253220E-1,-1.642950058E0,1.106100082E1,8.959500194E-1,1.121818838E1
9.459850000E-1,-1.567050099E0,1.106100082E1,8.580000401E-1,1.120435403E1
9.479447090E-1,-1.605000019E0,1.110000038E1,9.730500579E-1,1.125756901E1
9.499043990E-1,-1.642950058E0,1.113795090E1,9.730500579E-1,1.130044519E1
9.518640940E-1,-1.605000019E0,1.117605019E1,1.011000037E0,1.133588302E1
9.538238190E-1,-1.528050065E0,1.113795090E1,1.087950110E0,1.129480069E1
9.557835120E-1,-1.452000022E0,1.117605019E1,1.165050030E0,1.133003722E1
9.577433840E-1,-1.413000107E0,1.121400070E1,1.203000069E0,1.136651179E1
9.597032030E-1,-1.336950064E0,1.121400070E1,1.279950023E0,1.136571684E1
9.616630540E-1,-1.260000110E0,1.117605019E1,1.356000066E0,1.132830235E1
9.636228950E-1,-1.222050071E0,1.121400070E1,1.432950020E0,1.137104058E1
9.655827520E-1,-1.106999993E0,1.113795090E1,1.432950020E0,1.128418118E1
9.675425970E-1,-1.068000078E0,1.110000038E1,1.432950020E0,1.124295239E1
9.695023100E-1,-9.919500351E-1,1.106100082E1,1.432950020E0,1.119745729E1
9.714620610E-1,-9.150000215E-1,1.102305031E1,1.432950020E0,1.115339450E1
9.734218770E-1,-9.150000215E-1,1.098495007E1,1.471050024E0,1.112071676E1
9.753816740E-1,-8.380500674E-1,1.094595051E1,1.471050024E0,1.107610711E1
9.773415570E-1,-7.999500632E-1,1.079295063E1,1.510050058E0,1.092739468E1
9.793013950E-1,-7.230000496E-1,1.063995075E1,1.510050058E0,1.077086497E1
9.812611080E-1,-7.230000496E-1,1.048605061E1,1.510050058E0,1.061886235E1
9.832208580E-1,-6.469500065E-1,1.033305073E1,1.548000097E0,1.046837074E1
9.851808550E-1,-5.700000525E-1,1.021800041E1,1.548000097E0,1.035030129E1
9.871407790E-1,-4.549500346E-1,1.002600002E1,1.548000097E0,1.015499681E1
9.891007920E-1,-3.780000210E-1,9.835050583E0,1.663050056E0,9.981825458E0
9.910607790E-1,-3.400500119E-1,9.643050194E0,1.701000094E0,9.797828962E0
9.930207810E-1,-3.400500119E-1,9.490050316E0,1.701000094E0,9.647284091E0
9.949807790E-1,-3.400500119E-1,9.259950638E0,1.777950048E0,9.435222636E0
9.969406450E-1,-3.780000210E-1,9.030000687E0,1.777950048E0,9.211129290E0
9.989005500E-1,-4.170000255E-1,8.838000298E0,1.701000094E0,9.009857912E0
1.000860327E0,-4.170000255E-1,8.569950104E0,1.701000094E0,8.747075804E0
1.002820152E0,-4.549500346E-1,8.302050591E0,1.701000094E0,8.486720501E0
1.004780361E0,-4.549500346E-1,8.110050201E0,1.624950051E0,8.283740488E0
1.006740458E0,-4.930500090E-1,7.918050289E0,1.624950051E0,8.098091217E0
1.008700666E0,-4.549500346E-1,7.687950134E0,1.585950017E0,7.863001606E0
1.010660842E0,-5.320500135E-1,7.573050499E0,1.548000097E0,7.747933620E0
1.012620813E0,-5.320500135E-1,7.381950378E0,1.624950051E0,7.577382878E0
1.014580844E0,-4.930500090E-1,7.189950466E0,1.548000097E0,7.371213626E0
1.016540839E0,-5.700000525E-1,7.036950111E0,1.548000097E0,7.227715492E0
1.018500844E0,-5.700000525E-1,6.844950199E0,1.510050058E0,7.032673351E0
1.020460843E0,-6.079500318E-1,6.807000160E0,1.471050024E0,6.990625337E0
1.022420844E0,-6.469500065E-1,6.654000282E0,1.471050024E0,6.845308776E0
1.024380968E0,-6.850500107E-1,6.577050209E0,1.471050024E0,6.774280120E0
1.026341063E0,-7.230000496E-1,6.462000370E0,1.432950020E0,6.658342407E0
1.028300733E0,-7.620000243E-1,6.424050331E0,1.395000100E0,6.617786033E0
1.030260527E0,-8.380500674E-1,6.385050297E0,1.356000066E0,6.581028141E0
1.032220696E0,-7.999500632E-1,6.346950531E0,1.356000066E0,6.539299452E0
1.034180755E0,-8.380500674E-1,6.309000492E0,1.279950023E0,6.491847748E0
1.036140431E0,-7.999500632E-1,6.309000492E0,1.279950023E0,6.487039338E0
1.038100219E0,-7.999500632E-1,6.346950531E0,1.240950108E0,6.516414529E0
1.040060390E0,-8.380500674E-1,6.385050297E0,1.165050030E0,6.544351517E0
1.042020448E0,-9.150000215E-1,6.499950409E0,1.087950110E0,6.653586687E0
1.043980304E0,-1.030050039E0,6.615000248E0,1.087950110E0,6.782541324E0
1.045940219E0,-1.106999993E0,6.768000126E0,1.087950110E0,6.943695711E0
1.047900416E0,-1.297950029E0,6.922050476E0,1.050000072E0,7.120530684E0
1.049860496E0,-1.413000107E0,7.113000393E0,1.126049995E0,7.338891775E0
1.051820528E0,-1.642950058E0,7.267050266E0,1.165050030E0,7.540997682E0
1.053780575E0,-1.642950058E0,7.420050144E0,1.203000069E0,7.694390047E0
1.055740386E0,-1.681950092E0,7.534950256E0,1.165050030E0,7.807802063E0
1.057700267E0,-1.681950092E0,7.687950134E0,1.318050027E0,7.979397800E0
1.059660412E0,-1.720050097E0,7.879950523E0,1.395000100E0,8.185243910E0
1.061620486E0,-1.720050097E0,8.032950401E0,1.510050058E0,8.352671169E0
1.063580159E0,-1.795950055E0,8.224950790E0,1.510050058E0,8.553099046E0
1.065539949E0,-1.795950055E0,8.377950668E0,1.624950051E0,8.721006632E0
1.067499939E0,-1.834950089E0,8.569950104E0,1.777950048E0,8.942717316E0
1.069459870E0,-1.911000133E0,8.722949982E0,1.777950048E0,9.105102101E0
1.071419868E0,-2.026050091E0,8.877000809E0,1.930950046E0,9.307770432E0
1.073379856E0,-2.103000164E0,9.030000687E0,2.046000004E0,9.494716326E0
1.075340084E0,-2.103000164E0,9.220950127E0,2.046000004E0,9.676499726E0
1.077300241E0,-2.179949999E0,9.412950516E0,2.161050081E0,9.900805869E0
1.079260350E0,-2.218050003E0,9.565950394E0,2.238000154E0,1.007153402E1
1.081220474E0,-2.295000076E0,9.796050072E0,2.275950193E0,1.031550152E1
1.083180312E0,-2.371050119E0,9.910950661E0,2.314950228E0,1.045025436E1
1.085140238E0,-2.410050154E0,1.006500053E1,2.467950106E0,1.063970654E1
1.087100205E0,-2.448000193E0,1.025595093E1,2.467950106E0,1.082903560E1
1.089060159E0,-2.524950027E0,1.037100029E1,2.583000183E0,1.098202666E1
1.091019988E0,-2.524950027E0,1.044795036E1,2.620950222E0,1.106365308E1
1.092979853E0,-2.485950232E0,1.052505016E1,2.698050022E0,1.114612504E1
1.094939745E0,-2.485950232E0,1.060095024E1,2.736000061E0,1.122701166E1
1.096899626E0,-2.448000193E0,1.063995075E1,2.736000061E0,1.125552990E1
1.098859467E0,-2.448000193E0,1.071600056E1,2.773950100E0,1.133667376E1
1.100819320E0,-2.410050154E0,1.071600056E1,2.773950100E0,1.132853957E1
1.102779120E0,-2.332950115E0,1.063995075E1,2.773950100E0,1.124037399E1
1.104738935E0,-2.295000076E0,1.063995075E1,2.773950100E0,1.123255877E1
1.106698826E0,-2.256000042E0,1.060095024E1,2.773950100E0,1.118769330E1
1.108658698E0,-2.218050003E0,1.052505016E1,2.583000183E0,1.106202137E1
1.110618496E0,-2.103000164E0,1.044795036E1,2.506050110E0,1.094817627E1
1.112578315E0,-2.065050125E0,1.041000080E1,2.391000032E0,1.087885241E1
1.114538165E0,-1.911000133E0,1.029495049E1,2.314950228E0,1.072366176E1
1.116498005E0,-1.911000133E0,1.025595093E1,2.275950193E0,1.067784624E1
1.118458081E0,-1.758000135E0,1.014105034E1,2.046000004E0,1.049369251E1
1.120418053E0,-1.720050097E0,1.002600002E1,1.930950046E0,1.035412077E1
1.122377924E0,-1.642950058E0,9.949950218E0,1.816050053E0,1.024689377E1
1.124337825E0,-1.489950061E0,9.835050583E0,1.740000129E0,1.009830538E1
1.126297841E0,-1.452000022E0,9.757950783E0,1.663050056E0,1.000458110E1
1.128257823E0,-1.336950064E0,9.681000710E0,1.624950051E0,9.907051674E0
1.130217582E0,-1.336950064E0,9.604950905E0,1.585950017E0,9.826380555E0
1.132177420E0,-1.183050036E0,9.528000832E0,1.624950051E0,9.737703523E0
1.134136907E0,-1.144950032E0,9.412950516E0,1.585950017E0,9.614041057E0
1.136096497E0,-1.068000078E0,9.336000443E0,1.548000097E0,9.523540976E0
1.138056431E0,-9.919500351E-1,9.259950638E0,1.548000097E0,9.440707335E0
1.140016264E0,-8.380500674E-1,9.145050049E0,1.663050056E0,9.332738280E0
1.141976248E0,-7.999500632E-1,9.030000687E0,1.624950051E0,9.209847728E0
1.143936187E0,-6.850500107E-1,8.991000175E0,1.624950051E0,9.162305405E0
1.145895883E0,-6.079500318E-1,8.953050613E0,1.855050087E0,9.163401626E0
1.147855651E0,-6.469500065E-1,8.914950371E0,1.701000094E0,9.098806831E0
1.149815825E0,-5.700000525E-1,8.877000809E0,1.510050058E0,9.022543688E0
1.151775880E0,-4.930500090E-1,8.838000298E0,1.471050024E0,8.973145254E0
1.153735696E0,-4.549500346E-1,8.761950493E0,1.471050024E0,8.896220779E0
1.155695579E0,-4.549500346E-1,8.838000298E0,1.510050058E0,8.977609925E0
1.157655598E0,-4.930500090E-1,8.838000298E0,1.471050024E0,8.973145254E0
1.159615577E0,-4.170000255E-1,8.800050735E0,1.471050024E0,8.931896223E0
1.161575266E0,-3.780000210E-1,8.800050735E0,1.471050024E0,8.930160421E0
1.163535040E0,-4.170000255E-1,8.877000809E0,1.548000097E0,9.020606226E0
1.165495044E0,-4.170000255E-1,8.838000298E0,1.701000094E0,9.009857912E0
1.167455004E0,-3.400500119E-1,8.800050735E0,1.663050056E0,8.962268822E0
1.169415011E0,-3.019500077E-1,8.800050735E0,1.548000097E0,8.940266834E0
1.171375004E0,-3.019500077E-1,8.685000420E0,1.510050058E0,8.820468087E0
1.173334961E0,-2.629500031E-1,8.685000420E0,1.510050058E0,8.819219136E0
1.175294929E0,-2.629500031E-1,8.722949982E0,1.510050058E0,8.856593604E0
1.177254993E0,-3.400500119E-1,8.722949982E0,1.432950020E0,8.846402441E0
1.179215018E0,-3.400500119E-1,8.761950493E0,1.395000100E0,8.878819501E0
1.181174970E0,-4.170000255E-1,8.800050735E0,1.395000100E0,8.919686499E0
1.183134944E0,-3.780000210E-1,8.838000298E0,1.432950020E0,8.961388231E0
1.185094992E0,-4.930500090E-1,8.991000175E0,1.510050058E0,9.130248280E0
1.187055018E0,-5.320500135E-1,9.030000687E0,1.624950051E0,9.190454411E0
1.189015164E0,-5.700000525E-1,9.067950249E0,1.663050056E0,9.236793668E0
1.190975264E0,-5.320500135E-1,8.991000175E0,1.663050056E0,9.158979029E0
1.192934888E0,-4.930500090E-1,9.067950249E0,1.701000094E0,9.239276018E0
1.194894651E0,-5.320500135E-1,9.106050491E0,1.855050087E0,9.308299715E0
1.196854691E0,-5.320500135E-1,9.106050491E0,1.855050087E0,9.308299715E0
1.198814649E0,-5.320500135E-1,9.106050491E0,1.893000126E0,9.315937003E0
1.200774498E0,-5.700000525E-1,9.106050491E0,1.893000126E0,9.318181426E0
1.202734396E0,-6.079500318E-1,9.145050049E0,1.969950080E0,9.374553160E0
1.204694593E0,-6.850500107E-1,9.183000565E0,2.008050203E0,9.424916896E0
1.206654702E0,-7.620000243E-1,9.183000565E0,2.085000038E0,9.447505944E0
1.208614819E0,-7.999500632E-1,9.220950127E0,2.085000038E0,9.487521621E0
1.210574933E0,-7.620000243E-1,9.220950127E0,1.969950080E0,9.459771064E0
1.212534920E0,-8.380500674E-1,9.220950127E0,1.969950080E0,9.466200530E0
1.214494940E0,-8.380500674E-1,9.259950638E0,1.893000126E0,9.488543787E0
1.216454621E0,-8.380500674E-1,9.220950127E0,1.930950046E0,9.458161409E0
1.218414401E0,-8.770500422E-1,9.259950638E0,1.969950080E0,9.507712969E0
1.220374257E0,-8.770500422E-1,9.298050880E0,2.008050203E0,9.552760469E0
1.222334091E0,-9.150000215E-1,9.259950638E0,1.969950080E0,9.511288776E0
1.224293896E0,-9.529500604E-1,9.220950127E0,1.969950080E0,9.477063805E0
1.226253709E0,-9.529500604E-1,9.183000565E0,1.930950046E0,9.432082552E0
1.228213605E0,-9.529500604E-1,9.220950127E0,1.930950046E0,9.469033907E0
1.230173476E0,-1.030050039E0,9.145050049E0,2.008050203E0,9.419405984E0
1.232133814E0,-1.106999993E0,9.183000565E0,2.008050203E0,9.464946591E0
1.234094015E0,-1.106999993E0,9.067950249E0,2.008050203E0,9.353364973E0
1.236054012E0,-1.068000078E0,9.106050491E0,2.085000038E0,9.402553104E0
1.238014079E0,-1.144950032E0,9.030000687E0,2.008050203E0,9.321163479E0
1.239974202E0,-1.183050036E0,8.991000175E0,2.008050203E0,9.288162206E0
1.241934308E0,-1.222050071E0,8.991000175E0,2.046000004E0,9.301484105E0
1.243894336E0,-1.260000110E0,8.991000175E0,2.122950077E0,9.323765412E0
1.245854387E0,-1.336950064E0,8.991000175E0,2.085000038E0,9.325917906E0
1.247814346E0,-1.375050068E0,8.953050613E0,2.046000004E0,9.286226036E0
1.249774323E0,-1.413000107E0,8.991000175E0,2.046000004E0,9.328492347E0
1.251734867E0,-1.489950061E0,8.991000175E0,2.008050203E0,9.332218437E0
1.253695244E0,-1.795950055E0,8.761950493E0,3.600000143E-1,8.951358168E0
1.255654820E0,-1.528050065E0,8.991000175E0,1.126049995E0,9.189178949E0
1.257614631E0,-1.452000022E0,9.030000687E0,2.122950077E0,9.389149775E0
1.259574858E0,-1.567050099E0,8.991000175E0,2.583000183E0,9.485020828E0
1.261534952E0,-1.642950058E0,8.953050613E0,2.467950106E0,9.431181151E0
1.263495161E0,-1.681950092E0,8.914950371E0,2.314950228E0,9.362921060E0
1.265455336E0,-1.720050097E0,8.953050613E0,2.008050203E0,9.335306810E0
1.267415622E0,-1.834950089E0,8.914950371E0,1.740000129E0,9.266659721E0
1.269375875E0,-1.911000133E0,8.953050613E0,1.548000097E0,9.284683145E0
1.271335637E0,-1.950000048E0,8.953050613E0,1.471050024E0,9.280280365E0
1.273295554E0,-2.065050125E0,8.953050613E0,1.471050024E0,9.305134898E0
1.275255433E0,-2.103000164E0,8.953050613E0,1.432950020E0,9.307688797E0
1.277215323E0,-2.218050003E0,8.991000175E0,1.471050024E0,9.376663487E0
1.279175296E0,-2.256000042E0,8.953050613E0,1.395000100E0,9.337701899E0
1.281135244E0,-2.218050003E0,8.953050613E0,1.318050027E0,9.317409349E0
1.283095079E0,-2.256000042E0,8.877000809E0,1.240950108E0,9.242869507E0
1.285054944E0,-2.256000042E0,8.877000809E0,1.165050030E0,9.232985493E0
1.287014787E0,-2.218050003E0,8.800050735E0,1.165050030E0,9.149753020E0
1.288974636E0,-2.218050003E0,8.722949982E0,1.165050030E0,9.075623602E0
1.290934886E0,-2.332950115E0,8.722949982E0,1.087950110E0,9.094841838E0
1.292895019E0,-2.371050119E0,8.722949982E0,1.050000072E0,9.100232700E0
1.294854992E0,-2.371050119E0,8.722949982E0,1.011000037E0,9.095815309E0
1.296815016E0,-2.410050154E0,8.685000420E0,8.580000401E-1,9.053934951E0
1.298775012E0,-2.410050154E0,8.685000420E0,8.200500607E-1,9.050417456E0
1.300735016E0,-2.448000193E0,8.647050858E0,7.429500222E-1,9.017547794E0
1.302695149E0,-2.448000193E0,8.569950104E0,6.660000086E-1,8.937578293E0
1.304655244E0,-2.448000193E0,8.532000542E0,7.050000429E-1,8.904199192E0
1.306615274E0,-2.410050154E0,8.455050468E0,6.280500293E-1,8.814230937E0
1.308575323E0,-2.448000193E0,8.455050468E0,5.509500504E-1,8.819531128E0
1.310534954E0,-2.410050154E0,8.377950668E0,5.130000114E-1,8.732786964E0
1.312494708E0,-2.448000193E0,8.377950668E0,4.750500321E-1,8.741191845E0
1.314454524E0,-2.448000193E0,8.455050468E0,3.979500234E-1,8.811296590E0
1.316414321E0,-2.448000193E0,8.416950226E0,3.600000143E-1,8.773104129E0
1.318374557E0,-2.485950232E0,8.377950668E0,3.600000143E-1,8.746405317E0
1.320334650E0,-2.524950027E0,8.377950668E0,3.600000143E-1,8.757569871E0
1.322294500E0,-2.485950232E0,8.416950226E0,3.220500052E-1,8.782295592E0
1.324254421E0,-2.448000193E0,8.377950668E0,3.600000143E-1,8.735694726E0
1.326215290E0,-2.448000193E0,8.340000153E0,3.600000143E-1,8.699305001E0
1.328175881E0,-2.448000193E0,8.340000153E0,2.449500114E-1,8.695303790E0
1.330135826E0,-2.448000193E0,8.340000153E0,2.070000172E-1,8.694317483E0
1.332095960E0,-2.371050119E0,8.340000153E0,2.449500114E-1,8.673954215E0
1.334056072E0,-2.410050154E0,8.302050591E0,2.449500114E-1,8.648259146E0
1.336016191E0,-2.332950115E0,8.263050079E0,2.830500007E-1,8.590737463E0
1.337975674E0,-2.410050154E0,8.302050591E0,3.220500052E-1,8.650786205E0
1.339935344E0,-2.410050154E0,8.302050591E0,3.220500052E-1,8.650786205E0
1.341895926E0,-2.448000193E0,8.263050079E0,3.220500052E-1,8.624060399E0
1.343856251E0,-2.485950232E0,8.302050591E0,3.220500052E-1,8.672237818E0
1.345816196E0,-2.448000193E0,8.302050591E0,3.220500052E-1,8.661435514E0
1.347776253E0,-2.410050154E0,8.302050591E0,3.220500052E-1,8.650786205E0
1.349736377E0,-2.448000193E0,8.302050591E0,3.979500234E-1,8.664589614E0
1.351696481E0,-2.448000193E0,8.302050591E0,4.750500321E-1,8.668472846E0
1.353656713E0,-2.448000193E0,8.340000153E0,3.220500052E-1,8.697817180E0
1.355616890E0,-2.410050154E0,8.340000153E0,3.600000143E-1,8.688702107E0
1.357577175E0,-2.410050154E0,8.340000153E0,4.360500276E-1,8.692185221E0
1.359537428E0,-2.410050154E0,8.377950668E0,5.509500504E-1,8.735098460E0
1.361497566E0,-2.371050119E0,8.377950668E0,6.280500293E-1,8.729626734E0
1.363457738E0,-2.410050154E0,8.416950226E0,7.429500222E-1,8.786658499E0
1.365417759E0,-2.410050154E0,8.455050468E0,8.580000401E-1,8.833594072E0
1.367377820E0,-2.448000193E0,8.455050468E0,7.810500264E-1,8.836889866E0
1.369337629E0,-2.410050154E0,8.455050468E0,8.580000401E-1,8.833594072E0
1.371297512E0,-2.485950232E0,8.532000542E0,8.200500607E-1,8.924542784E0
1.373257892E0,-2.485950232E0,8.532000542E0,8.959500194E-1,8.931836778E0
1.375218126E0,-2.448000193E0,8.569950104E0,8.959500194E-1,8.957649031E0
1.377178072E0,-2.448000193E0,8.647050858E0,9.349500537E-1,9.035392912E0
1.379138113E0,-2.448000193E0,8.685000420E0,9.349500537E-1,9.071718075E0
1.381098240E0,-2.485950232E0,8.722949982E0,8.959500194E-1,9.114413386E0
1.383058342E0,-2.485950232E0,8.722949982E0,8.200500607E-1,9.107265618E0
1.385018371E0,-2.485950232E0,8.800050735E0,7.810500264E-1,9.177738319E0
1.386978421E0,-2.448000193E0,8.800050735E0,7.429500222E-1,9.164364278E0
1.388938417E0,-2.485950232E0,8.838000298E0,6.660000086E-1,9.205093906E0
1.390898426E0,-2.485950232E0,8.877000809E0,5.899500251E-1,9.237376951E0
1.392858603E0,-2.410050154E0,8.800050735E0,5.899500251E-1,9.143154583E0
1.394818731E0,-2.410050154E0,8.838000298E0,5.130000114E-1,9.175061853E0
1.396779070E0,-2.563050032E0,8.838000298E0,7.810500264E-1,9.235232204E0
1.398739347E0,-2.563050032E0,8.877000809E0,7.810500264E-1,9.272562104E0
1.400699660E0,-2.601000071E0,8.877000809E0,6.280500293E-1,9.271504277E0
1.402659962E0,-2.524950027E0,8.800050735E0,6.280500293E-1,9.176639495E0
1.404620092E0,-2.563050032E0,8.800050735E0,7.050000429E-1,9.192776701E0
1.406580272E0,-2.448000193E0,8.761950493E0,5.130000114E-1,9.111950965E0
1.408540555E0,-2.448000193E0,8.722949982E0,4.750500321E-1,9.072388542E0
1.410500808E0,-2.371050119E0,8.685000420E0,5.509500504E-1,9.019681642E0
1.412460811E0,-2.332950115E0,8.608050346E0,4.360500276E-1,8.929239981E0
1.414420887E0,-2.371050119E0,8.685000420E0,6.280500293E-1,9.024719264E0
1.416381189E0,-2.448000193E0,8.685000420E0,8.200500607E-1,9.060597074E0
1.418341424E0,-2.524950027E0,8.647050858E0,8.200500607E-1,9.045404539E0
1.420301249E0,-2.524950027E0,8.647050858E0,8.200500607E-1,9.045404539E0
1.422261195E0,-2.601000071E0,8.647050858E0,8.200500607E-1,9.066927374E0
1.424220979E0,-2.601000071E0,8.608050346E0,8.580000401E-1,9.033266087E0
1.426180810E0,-2.640000105E0,8.647050858E0,8.580000401E-1,9.081698803E0
1.428140883E0,-2.640000105E0,8.608050346E0,8.580000401E-1,9.044572703E0
1.430100885E0,-2.677950144E0,8.685000420E0,9.730500579E-1,9.140430826E0
1.432060661E0,-2.640000105E0,8.685000420E0,1.011000037E0,9.133507208E0
1.434020503E0,-2.677950144E0,8.761950493E0,1.126049995E0,9.230990305E0
1.435980720E0,-2.755050182E0,8.761950493E0,1.126049995E0,9.253651525E0
1.437940851E0,-2.716050148E0,8.838000298E0,1.126049995E0,9.314245340E0
1.439901144E0,-2.640000105E0,8.838000298E0,1.126049995E0,9.292353760E0
1.441861390E0,-2.677950144E0,8.838000298E0,1.203000069E0,9.312833908E0
1.443821529E0,-2.677950144E0,8.877000809E0,1.240950108E0,9.354812532E0
1.445781699E0,-2.601000071E0,8.953050613E0,1.126049995E0,9.390969345E0
1.447741836E0,-2.563050032E0,8.991000175E0,1.165050030E0,9.421499413E0
1.449701993E0,-2.524950027E0,9.030000687E0,1.240950108E0,9.458131010E0
1.451662011E0,-2.485950232E0,9.067950249E0,1.279950023E0,9.489254045E0
1.453622070E0,-2.524950027E0,9.067950249E0,1.318050027E0,9.504754086E0
1.455582374E0,-2.410050154E0,9.183000565E0,1.356000066E0,9.590337705E0
1.457542606E0,-2.332950115E0,9.183000565E0,1.240950108E0,9.555632516E0
1.459502452E0,-2.410050154E0,9.220950127E0,1.395000100E0,9.632252502E0
1.461462397E0,-2.524950027E0,9.298050880E0,1.471050024E0,9.746440940E0
1.463422360E0,-2.524950027E0,9.451050758E0,1.510050058E0,9.898382911E0
1.465382318E0,-2.485950232E0,9.490050316E0,1.471050024E0,9.919929018E0
1.467342370E0,-2.485950232E0,9.451050758E0,1.510050058E0,9.888506468E0
1.469302395E0,-2.485950232E0,9.643050194E0,1.510050058E0,1.007217041E1
1.471262512E0,-2.332950115E0,9.720000267E0,1.471050024E0,1.010371464E1
1.473222612E0,-2.295000076E0,9.757950783E0,1.471050024E0,1.013156538E1
1.475182461E0,-2.179949999E0,9.835050583E0,1.471050024E0,1.018058889E1
1.477142383E0,-2.218050003E0,9.873000145E0,1.510050058E0,1.023113527E1
1.479102171E0,-2.295000076E0,9.873000145E0,1.548000097E0,1.025375353E1
1.481061998E0,-2.218050003E0,1.002600002E1,1.548000097E0,1.038444638E1
1.483021850E0,-2.140950203E0,1.014105034E1,1.471050024E0,1.046845537E1
1.484981692E0,-2.065050125E0,1.021800041E1,1.471050024E0,1.052786553E1
1.486941584E0,-2.140950203E0,1.025595093E1,1.471050024E0,1.057980082E1
1.488901462E0,-2.140950203E0,1.025595093E1,1.395000100E0,1.056949490E1
1.490861663E0,-2.026050091E0,1.041000080E1,1.395000100E0,1.069668271E1
1.492821769E0,-1.987950087E0,1.048605061E1,1.395000100E0,1.076360665E1
1.494781724E0,-2.026050091E0,1.056300068E1,1.432950020E0,1.085058561E1
1.496741743E0,-2.103000164E0,1.052505016E1,1.432950020E0,1.082832565E1
1.498701695E0,-2.065050125E0,1.063995075E1,1.432950020E0,1.093280978E1
1.500661666E0,-2.026050091E0,1.071600056E1,1.432950020E0,1.099958602E1
1.502621491E0,-1.950000048E0,1.079295063E1,1.395000100E0,1.105605304E1
1.504581359E0,-1.987950087E0,1.071600056E1,1.395000100E0,1.098774949E1
1.506541201E0,-2.026050091E0,1.079295063E1,1.432950020E0,1.107456582E1
1.508501051E0,-2.026050091E0,1.087005043E1,1.432950020E0,1.114971843E1
1.510461121E0,-2.026050091E0,1.087005043E1,1.471050024E0,1.115467900E1
1.512421126E0,-2.065050125E0,1.079295063E1,1.395000100E0,1.107692379E1
1.514381126E0,-2.103000164E0,1.083105087E1,1.279950023E0,1.110731942E1
1.516341128E0,-2.140950203E0,1.083105087E1,1.356000066E0,1.112358157E1
1.518301108E0,-2.140950203E0,1.087005043E1,1.395000100E0,1.116636420E1
1.520261108E0,-2.218050003E0,1.083105087E1,1.356000066E0,1.113867788E1
1.522221063E0,-2.256000042E0,1.079295063E1,1.356000066E0,1.110927791E1
1.524181031E0,-2.371050119E0,1.083105087E1,1.356000066E0,1.117015120E1
1.526140676E0,-2.410050154E0,1.083105087E1,1.318050027E0,1.117395457E1
1.528100416E0,-2.448000193E0,1.075500011E1,1.279950023E0,1.110409854E1
1.530060475E0,-2.524950027E0,1.075500011E1,1.165050030E0,1.110867866E1
1.532020429E0,-2.563050032E0,1.075500011E1,1.165050030E0,1.111740053E1
1.533980303E0,-2.677950144E0,1.075500011E1,1.165050030E0,1.114445091E1
1.535940200E0,-2.755050182E0,1.071600056E1,1.087950110E0,1.111785073E1
1.537900171E0,-2.793000221E0,1.056300068E1,8.959500194E-1,1.096268945E1
1.539860121E0,-2.793000221E0,1.056300068E1,8.200500607E-1,1.095674750E1
1.541819926E0,-2.869950056E0,1.056300068E1,8.200500607E-1,1.097661509E1
1.543779791E0,-2.908050060E0,1.052505016E1,7.050000429E-1,1.094214152E1
1.545739678E0,-2.946000099E0,1.048605061E1,6.660000086E-1,1.091236592E1
1.547699559E0,-3.061050177E0,1.033305073E1,7.050000429E-1,1.079995327E1
1.549659400E0,-3.138000250E0,1.037100029E1,6.660000086E-1,1.085579332E1
1.551619253E0,-3.138000250E0,1.037100029E1,6.280500293E-1,1.085353120E1
1.553579282E0,-3.175950050E0,1.037100029E1,5.509500504E-1,1.086037991E1
1.555539256E0,-3.291000128E0,1.025595093E1,6.280500293E-1,1.078933075E1
1.557499036E0,-3.367950201E0,1.014105034E1,7.050000429E-1,1.070892224E1
1.559458873E0,-3.445050240E0,1.010295010E1,7.429500222E-1,1.069999750E1
1.561419080E0,-3.445050240E0,1.006500053E1,5.130000114E-1,1.065062326E1
1.563379179E0,-3.483000278E0,9.988050461E0,4.750500321E-1,1.058858421E1
1.565339177E0,-3.520950079E0,9.873000145E0,5.130000114E-1,1.049458862E1
1.567299195E0,-3.559950113E0,9.873000145E0,6.280500293E-1,1.051398229E1
1.569259416E0,-3.559950113E0,9.873000145E0,6.280500293E-1,1.051398229E1
1.571219578E0,-3.559950113E0,9.757950783E0,6.280500293E-1,1.040602206E1
1.573179551E0,-3.559950113E0,9.796050072E0,6.280500293E-1,1.044175697E1
1.575139580E0,-3.559950113E0,9.796050072E0,5.899500251E-1,1.043953461E1
1.577099409E0,-3.520950079E0,9.796050072E0,5.130000114E-1,1.042222891E1
1.579059286E0,-3.520950079E0,9.835050583E0,4.750500321E-1,1.045710199E1
1.581019441E0,-3.483000278E0,9.796050072E0,5.130000114E-1,1.040946958E1
1.582979515E0,-3.520950079E0,9.873000145E0,5.130000114E-1,1.049458862E1
1.584939143E0,-3.483000278E0,9.873000145E0,4.750500321E-1,1.048012859E1
1.586898901E0,-3.445050240E0,9.873000145E0,4.360500276E-1,1.046587993E1
1.588858774E0,-3.406050205E0,9.949950218E0,4.360500276E-1,1.052581716E1
1.590818636E0,-3.445050240E0,9.949950218E0,4.360500276E-1,1.053850180E1
1.592778480E0,-3.406050205E0,9.988050461E0,4.750500321E-1,1.056352226E1
1.594738330E0,-3.406050205E0,1.002600002E1,4.360500276E-1,1.059773533E1
1.596698310E0,-3.367950201E0,1.002600002E1,5.509500504E-1,1.059090699E1
1.598658251E0,-3.406050205E0,1.010295010E1,5.509500504E-1,1.067587582E1
1.600618091E0,-3.367950201E0,1.010295010E1,5.899500251E-1,1.066586753E1
1.602577954E0,-3.406050205E0,1.014105034E1,6.660000086E-1,1.071847172E1
1.604537617E0,-3.367950201E0,1.018005085E1,8.200500607E-1,1.075402278E1
1.606497339E0,-3.367950201E0,1.018005085E1,9.730500579E-1,1.076677065E1
1.608457205E0,-3.406050205E0,1.021800041E1,1.011000037E0,1.081807892E1
1.610417029E0,-3.330000162E0,1.021800041E1,1.087950110E0,1.080185488E1
1.612376745E0,-3.406050205E0,1.025595093E1,1.203000069E0,1.087349606E1
1.614336493E0,-3.406050205E0,1.021800041E1,1.203000069E0,1.083770823E1
1.616296176E0,-3.406050205E0,1.025595093E1,1.203000069E0,1.087349606E1
1.618255878E0,-3.367950201E0,1.029495049E1,1.203000069E0,1.089845417E1
1.620215748E0,-3.367950201E0,1.029495049E1,1.318050027E0,1.091175283E1
1.622175568E0,-3.445050240E0,1.025595093E1,1.279950023E0,1.089454784E1
1.624135618E0,-3.445050240E0,1.029495049E1,1.356000066E0,1.094043476E1
1.626095587E0,-3.445050240E0,1.025595093E1,1.432950020E0,1.091358082E1
1.628055592E0,-3.445050240E0,1.025595093E1,1.471050024E0,1.091864867E1
1.630015587E0,-3.406050205E0,1.025595093E1,1.471050024E0,1.090640617E1
1.631975363E0,-3.445050240E0,1.018005085E1,1.548000097E0,1.085808965E1
1.633935204E0,-3.483000278E0,1.018005085E1,1.740000129E0,1.089918927E1
1.635894760E0,-3.520950079E0,1.014105034E1,1.816050053E0,1.088742528E1
1.637854382E0,-3.520950079E0,1.006500053E1,1.893000126E0,1.082980954E1
1.639814221E0,-3.598050117E0,9.988050461E0,2.008050203E0,1.080460005E1
1.641773996E0,-3.598050117E0,9.949950218E0,2.046000004E0,1.077652959E1
1.643733675E0,-3.559950113E0,9.835050583E0,2.275950193E0,1.070427083E1
1.645693382E0,-3.445050240E0,9.757950783E0,2.391000032E0,1.062086888E1
1.647653472E0,-3.406050205E0,9.757950783E0,2.545050144E0,1.064406228E1
1.649613453E0,-3.367950201E0,9.720000267E0,2.620950222E0,1.061559578E1
1.651573637E0,-3.253050089E0,9.681000710E0,2.773950100E0,1.058295369E1
1.653533761E0,-3.175950050E0,9.565950394E0,2.812950134E0,1.046454749E1
1.655493380E0,-3.061050177E0,9.490050316E0,3.043050051E0,1.042550895E1
1.657453147E0,-2.946000099E0,9.412950516E0,3.157950163E0,1.035640880E1
1.659412846E0,-2.830950022E0,9.375000000E0,3.273000240E0,1.032557183E1
1.661372551E0,-2.716050148E0,9.375000000E0,3.388050079E0,1.033181672E1
1.663332601E0,-2.677950144E0,9.259950638E0,3.426000118E0,1.023013097E1
1.665292549E0,-2.563050032E0,9.220950127E0,3.579000235E0,1.021784661E1
1.667252558E0,-2.410050154E0,9.145050049E0,3.655950069E0,1.013934184E1
1.669212549E0,-2.295000076E0,9.145050049E0,3.847950220E0,1.018359890E1
1.671172356E0,-2.218050003E0,9.067950249E0,3.963000298E0,1.014163887E1
1.673132228E0,-2.065050125E0,9.030000687E0,4.078050137E0,1.012105910E1
1.675092070E0,-1.911000133E0,8.914950371E0,4.153950214E0,1.001915985E1
1.677051921E0,-1.834950089E0,8.914950371E0,4.269000053E0,1.005324542E1
1.679011541E0,-1.642950058E0,8.877000809E0,4.308000088E0,1.000296421E1
1.680971228E0,-1.528050065E0,8.838000298E0,4.384050369E0,9.983240150E0
1.682931471E0,-1.452000022E0,8.838000298E0,4.345950127E0,9.955191401E0
1.684891544E0,-1.260000110E0,8.800050735E0,4.384050369E0,9.912032630E0
1.686851352E0,-1.030050039E0,8.800050735E0,4.461000443E0,9.919799442E0
1.688811238E0,-9.529500604E-1,8.761950493E0,4.576050282E0,9.930766659E0
1.690770942E0,-7.999500632E-1,8.722949982E0,4.653000355E0,9.918678782E0
1.692730700E0,-6.469500065E-1,8.685000420E0,4.768050194E0,9.928850852E0
1.694690725E0,-4.170000255E-1,8.685000420E0,4.806000233E0,9.934825592E0
1.696650683E0,-3.019500077E-1,8.647050858E0,4.806000233E0,9.897489610E0
1.698610645E0,-1.099500060E-1,8.647050858E0,4.959000111E0,9.968714041E0
1.700570606E0,-3.299999982E-2,8.647050858E0,5.035950184E0,1.000666637E1
1.702530299E0,1.960500032E-1,8.608050346E0,5.074050426E0,9.994145992E0
1.704490070E0,3.490500152E-1,8.532000542E0,5.188950062E0,9.992100475E0
1.706450993E0,5.410500169E-1,8.455050468E0,5.304000378E0,9.995650732E0
1.708411558E0,7.320000529E-1,8.455050468E0,5.341950417E0,1.002796773E1
1.710371147E0,8.850000501E-1,8.416950226E0,5.380950451E0,1.002910285E1
1.712331022E0,1.077000022E0,8.340000153E0,5.419050217E0,1.000408101E1
1.714291177E0,1.306950092E0,8.224950790E0,5.533950329E0,9.999126976E0
1.716251250E0,1.345050097E0,8.148000717E0,5.496000290E0,9.919934205E0
1.718211265E0,1.459950089E0,8.110050201E0,5.496000290E0,9.905068789E0
1.720171310E0,1.614000082E0,8.071949959E0,5.457000256E0,9.876245450E0
1.722131122E0,1.729050040E0,7.995000362E0,5.457000256E0,9.833030897E0
1.724091003E0,1.882050037E0,7.995000362E0,5.341950417E0,9.797886374E0
1.726050798E0,2.035050154E0,7.957050323E0,5.266050339E0,9.756401240E0
1.728010618E0,2.111999989E0,7.918050289E0,5.151000023E0,9.679300882E0
1.729970698E0,2.227050066E0,7.918050289E0,4.996950150E0,9.624177013E0
1.731930698E0,2.380050182E0,7.842000484E0,4.882050037E0,9.539183562E0
1.733890158E0,2.494950056E0,7.803000450E0,4.614000320E0,9.402158835E0
1.735849777E0,2.533950090E0,7.765050411E0,4.423050404E0,9.288718201E0
1.737809302E0,2.725050211E0,7.726950169E0,4.116000175E0,9.169139273E0
1.739768854E0,2.802000046E0,7.687950134E0,3.771000147E0,9.009784883E0
1.741729055E0,2.917050123E0,7.650000572E0,3.388050079E0,8.860619251E0
1.743689073E0,2.955000162E0,7.612050533E0,2.965950251E0,8.687473751E0
1.745648755E0,3.070050240E0,7.687950134E0,2.583000183E0,8.671889972E0
1.747608536E0,3.031950235E0,7.650000572E0,2.122950077E0,8.498361490E0
1.749568393E0,3.031950235E0,7.687950134E0,1.816050053E0,8.461402797E0
1.751528227E0,2.992950201E0,7.765050411E0,1.510050058E0,8.457778075E0
1.753488056E0,2.725050211E0,7.497000217E0,5.130000114E-1,7.993377254E0
1.755447900E0,2.457000017E0,7.765050411E0,5.130000114E-1,8.160638822E0
1.757407702E0,2.380050182E0,7.842000484E0,7.429500222E-1,8.228826478E0
1.759367517E0,2.341950178E0,8.071949959E0,9.730500579E-1,8.460965263E0
1.761327234E0,2.227050066E0,8.148000717E0,1.165050030E0,8.526840520E0
1.763286979E0,2.035050154E0,8.263050079E0,1.165050030E0,8.589340331E0
1.765246972E0,1.804950118E0,8.416950226E0,1.318050027E0,8.708625144E0
1.767206895E0,1.614000082E0,8.569950104E0,1.395000100E0,8.831481548E0
1.769166774E0,1.459950089E0,8.647050858E0,1.432950020E0,8.885735116E0
1.771126666E0,1.269000053E0,8.761950493E0,1.395000100E0,8.962597997E0
1.773086504E0,1.192050099E0,8.838000298E0,1.510050058E0,9.044970087E0
1.775046358E0,9.619500637E-1,9.030000687E0,1.624950051E0,9.225330509E0
1.777006002E0,8.470500112E-1,9.183000565E0,1.816050053E0,9.399097344E0
1.778965690E0,6.169500351E-1,9.336000443E0,1.969950080E0,9.561497525E0
1.780924527E0,5.020500422E-1,9.490050316E0,2.200050116E0,9.754656824E0
1.782883613E0,2.719500065E-1,9.643050194E0,2.353049994E0,9.929713899E0
1.784843363E0,1.570500135E-1,9.757950783E0,2.314950228E0,1.003001808E1
1.786802919E0,-7.200000435E-2,9.910950661E0,2.314950228E0,1.017797237E1
1.788762812E0,-2.629500031E-1,1.010295010E1,2.353049994E0,1.037668481E1
1.790722640E0,-4.170000255E-1,1.029495049E1,2.506050110E0,1.060378148E1
1.792682265E0,-6.079500318E-1,1.048605061E1,2.583000183E0,1.081659607E1
1.794641950E0,-7.620000243E-1,1.067805004E1,2.659050226E0,1.103050066E1
1.796601687E0,-9.529500604E-1,1.083105087E1,2.659050226E0,1.119331608E1
1.798561409E0,-1.144950032E0,1.102305031E1,2.736000061E0,1.141508848E1
1.800521457E0,-1.336950064E0,1.125300026E1,2.812950134E0,1.167604979E1
1.802481409E0,-1.489950061E0,1.144395065E1,2.889000177E0,1.189664994E1
1.804441417E0,-1.681950092E0,1.163595009E1,2.928000212E0,1.211600082E1
1.806401409E0,-1.873050094E0,1.182795048E1,2.928000212E0,1.232809452E1
1.808361410E0,-2.103000164E0,1.201905060E1,2.965950251E0,1.255695217E1
1.810321409E0,-2.256000042E0,1.201905060E1,2.812950134E0,1.254829877E1
1.812281409E0,-2.485950232E0,1.213395023E1,2.736000061E0,1.268457304E1
1.814241409E0,-2.640000105E0,1.224900055E1,2.620950222E0,1.280144504E1
1.816201409E0,-2.830950022E0,1.236405087E1,2.545050144E0,1.293682001E1
1.818161409E0,-3.022950172E0,1.244100094E1,2.275950193E0,1.300371798E1
1.820121409E0,-3.214950085E0,1.255605030E1,2.046000004E0,1.312160124E1
1.822081409E0,-3.520950079E0,1.270905018E1,2.008050203E0,1.333976430E1
1.824041715E0,-3.828000069E0,1.290105057E1,1.969950080E0,1.360041888E1
1.826001938E0,-4.057950020E0,1.290105057E1,1.585950017E0,1.361687562E1
1.827961946E0,-4.249050140E0,1.297800064E1,1.356000066E0,1.372303406E1
1.829922017E0,-4.518000126E0,1.301595020E1,1.011000037E0,1.381482558E1
1.831882184E0,-4.671000004E0,1.301595020E1,7.810500264E-1,1.385074871E1
1.833842323E0,-4.939050198E0,1.290105057E1,9.730500579E-1,1.384839879E1
1.835802605E0,-5.284050465E0,1.282395077E1,8.200500607E-1,1.389414930E1
1.837762852E0,-5.629050255E0,1.274805069E1,8.959500194E-1,1.396430197E1
1.839723891E0,-5.668050289E0,1.263300037E1,3.979500234E-1,1.385199829E1
1.841684698E0,-5.553000450E0,1.240305042E1,1.680000126E-1,1.359042670E1
1.843644606E0,-5.476050377E0,1.217295074E1,-2.205000073E-2,1.334797152E1
1.845604777E0,-5.323050022E0,1.182795048E1,-1.759500057E-1,1.297174747E1
1.847564508E0,-5.131050110E0,1.152105045E1,-1.369500011E-1,1.261273301E1
1.849524378E0,-4.863000393E0,1.110000038E1,-9.900000691E-2,1.211893487E1
1.851484084E0,-4.708950043E0,1.075500011E1,1.500000060E-2,1.174071816E1
1.853443839E0,-4.594050407E0,1.052505016E1,1.300500035E-1,1.148472434E1
1.855402980E0,-4.479000092E0,1.037100029E1,2.449500114E-1,1.129951722E1
1.857362301E0,-4.402950287E0,1.014105034E1,4.360500276E-1,1.106422220E1
1.859322436E0,-4.326000214E0,9.949950218E0,6.660000086E-1,1.087011238E1
1.861282319E0,-4.363950253E0,9.796050072E0,7.050000429E-1,1.074726402E1
1.863242160E0,-4.555950165E0,9.681000710E0,8.580000401E-1,1.073380737E1
1.865202013E0,-4.594050407E0,9.528000832E0,7.810500264E-1,1.060651395E1
1.867162172E0,-4.594050407E0,9.412950516E0,8.200500607E-1,1.050625617E1
1.869122242E0,-4.441050053E0,9.375000000E0,8.580000401E-1,1.040911690E1
1.871082414E0,-4.288050175E0,9.336000443E0,8.200500607E-1,1.030634565E1
1.873042553E0,-4.210950375E0,9.259950638E0,8.200500607E-1,1.020545300E1
1.875002530E0,-4.173000336E0,9.183000565E0,7.810500264E-1,1.011689035E1
1.876962555E0,-4.018949986E0,9.183000565E0,7.050000429E-1,1.004870556E1
1.878922551E0,-3.981000185E0,9.145050049E0,5.509500504E-1,9.989186595E0
1.880882555E0,-3.865950108E0,9.145050049E0,4.750500321E-1,9.939979032E0
1.882842419E0,-3.751050234E0,9.183000565E0,4.750500321E-1,9.930939017E0
1.884802325E0,-3.636000156E0,9.220950127E0,5.509500504E-1,9.927233468E0
1.886762295E0,-3.598050117E0,9.259950638E0,5.509500504E-1,9.949683232E0
1.888722246E0,-3.520950079E0,9.375000000E0,4.360500276E-1,1.002386423E1
1.890682976E0,-3.445050240E0,9.336000443E0,3.220500052E-1,9.956555209E0
1.892643477E0,-3.367950201E0,9.336000443E0,2.070000172E-1,9.927076197E0
1.894603408E0,-3.291000128E0,9.336000443E0,1.300500035E-1,9.899924197E0
1.896563527E0,-3.214950085E0,9.336000443E0,9.195000678E-2,9.874475334E0
1.898523506E0,-3.138000250E0,9.375000000E0,5.295000225E-2,9.886378218E0
1.900483527E0,-3.100050211E0,9.375000000E0,-2.205000073E-2,9.874280861E0
1.902443298E0,-2.985000134E0,9.375000000E0,-2.205000073E-2,9.838767047E0
1.904403142E0,-2.830950022E0,9.298050880E0,1.500000060E-2,9.719478031E0
1.906362808E0,-2.755050182E0,9.336000443E0,-6.105000153E-2,9.734214548E0
1.908322527E0,-2.601000071E0,9.259950638E0,-6.105000153E-2,9.618503745E0
1.910282574E0,-2.485950232E0,9.183000565E0,1.500000060E-2,9.513552067E0
1.912242525E0,-2.295000076E0,9.145050049E0,1.500000060E-2,9.428636738E0
1.914202354E0,-2.256000042E0,9.145050049E0,9.195000678E-2,9.419656649E0
1.916162219E0,-2.103000164E0,9.145050049E0,1.300500035E-1,9.384639742E0
1.918122121E0,-1.987950087E0,9.067950249E0,2.070000172E-1,9.285608018E0
1.920082001E0,-1.950000048E0,9.030000687E0,2.830500007E-1,9.242485049E0
1.922041077E0,-1.834950089E0,8.991000175E0,3.220500052E-1,9.181984654E0
1.924000388E0,-1.720050097E0,8.953050613E0,3.979500234E-1,9.125461733E0
1.925960144E0,-1.720050097E0,8.953050613E0,4.360500276E-1,9.127202597E0
1.927919770E0,-1.642950058E0,8.838000298E0,3.979500234E-1,8.998216400E0
1.929879869E0,-1.452000022E0,8.838000298E0,3.979500234E-1,8.965317482E0
1.931839837E0,-1.413000107E0,8.761950493E0,3.979500234E-1,8.884070574E0
1.933799664E0,-1.336950064E0,8.722949982E0,3.220500052E-1,8.830685594E0
1.935759532E0,-1.260000110E0,8.722949982E0,3.600000143E-1,8.820830838E0
1.937719508E0,-1.183050036E0,8.722949982E0,3.600000143E-1,8.810168204E0
1.939679453E0,-1.144950032E0,8.685000420E0,3.600000143E-1,8.767539157E0
1.941639661E0,-1.068000078E0,8.685000420E0,3.600000143E-1,8.757822587E0
1.943599779E0,-1.030050039E0,8.647050858E0,3.600000143E-1,8.715623422E0
1.945560345E0,-9.919500351E-1,8.608050346E0,2.830500007E-1,8.669637417E0
1.947520779E0,-9.529500604E-1,8.608050346E0,2.449500114E-1,8.664100940E0
1.949480165E0,-9.150000215E-1,8.647050858E0,2.449500114E-1,8.698776585E0
1.951439858E0,-8.770500422E-1,8.608050346E0,2.070000172E-1,8.655090788E0
1.953399754E0,-8.380500674E-1,8.608050346E0,1.680000126E-1,8.650380494E0
1.955359573E0,-8.770500422E-1,8.647050858E0,1.680000126E-1,8.693039130E0
1.957319380E0,-9.150000215E-1,8.569950104E0,1.300500035E-1,8.619639367E0
1.959279190E0,-9.150000215E-1,8.569950104E0,1.300500035E-1,8.619639367E0
1.961238862E0,-8.770500422E-1,8.569950104E0,9.195000678E-2,8.615202630E0
1.963198575E0,-9.150000215E-1,8.493000031E0,-2.205000073E-2,8.542175411E0
1.965158279E0,-8.770500422E-1,8.532000542E0,-6.105000153E-2,8.577177690E0
1.967118006E0,-9.529500604E-1,8.493000031E0,-9.900000691E-2,8.546868686E0
1.969077694E0,-9.919500351E-1,8.416950226E0,-1.369500011E-1,8.476306464E0
1.971037393E0,-9.919500351E-1,8.340000153E0,-9.900000691E-2,8.399367144E0
1.972997084E0,-9.919500351E-1,8.263050079E0,-1.759500057E-1,8.324236895E0
1.974956777E0,-9.919500351E-1,8.224950790E0,-1.759500057E-1,8.286418936E0
1.976916642E0,-1.068000078E0,8.110050201E0,-3.289500177E-1,8.186681046E0
1.978876429E0,-1.144950032E0,7.995000362E0,-3.670500219E-1,8.084903654E0
1.980836106E0,-1.222050071E0,7.995000362E0,-3.670500219E-1,8.096181995E0
1.982795815E0,-1.222050071E0,7.879950523E0,-4.060500264E-1,7.984478897E0
1.984755549E0,-1.336950064E0,7.803000450E0,-3.289500177E-1,7.923538327E0
1.986715275E0,-1.375050068E0,7.726950169E0,-4.440000355E-1,7.860894200E0
1.988674904E0,-1.452000022E0,7.650000572E0,-4.060500264E-1,7.797159062E0
1.990634571E0,-1.528050065E0,7.573050499E0,-4.819500148E-1,7.740691615E0
1.992594627E0,-1.681950092E0,7.534950256E0,-5.209500194E-1,7.737946782E0
1.994554569E0,-1.681950092E0,7.497000217E0,-5.209500194E-1,7.700997162E0
1.996514264E0,-1.642950058E0,7.497000217E0,-4.440000355E-1,7.687745650E0
1.998474032E0,-1.720050097E0,7.342950344E0,-5.590500236E-1,7.562408943E0
2.000433706E0,-1.834950089E0,7.342950344E0,-5.209500194E-1,7.586656082E0
2.002393412E0,-1.873050094E0,7.305000305E0,-5.590500236E-1,7.562002581E0
2.004353281E0,-2.026050091E0,7.228050232E0,-5.590500236E-1,7.527424929E0
2.006313102E0,-2.140950203E0,7.189950466E0,-5.209500194E-1,7.520002952E0
2.008272774E0,-2.179949999E0,7.189950466E0,-5.590500236E-1,7.533930358E0
2.010232489E0,-2.295000076E0,7.113000393E0,-6.360000372E-1,7.501086320E0
2.012192002E0,-2.448000193E0,7.036950111E0,-7.120500207E-1,7.484543209E0
2.014151571E0,-2.485950232E0,6.997950554E0,-7.510500550E-1,7.464270674E0
2.016111238E0,-2.563050032E0,6.883050442E0,-7.890000343E-1,7.387024428E0
2.018070876E0,-2.677950144E0,6.807000160E0,-8.269500136E-1,7.361420683E0
2.020030399E0,-2.755050182E0,6.730050087E0,-7.890000343E-1,7.314806678E0
2.021989955E0,-2.830950022E0,6.730050087E0,-9.040500522E-1,7.356980270E0
2.023949714E0,-2.830950022E0,6.577050209E0,-8.269500136E-1,7.208031202E0
2.025909414E0,-2.755050182E0,6.538950443E0,-8.269500136E-1,7.143669976E0
2.027869061E0,-2.755050182E0,6.462000370E0,-7.510500550E-1,7.064830251E0
2.029828724E0,-2.640000105E0,6.499950409E0,-7.510500550E-1,7.055709182E0
2.031788286E0,-2.563050032E0,6.462000370E0,-7.510500550E-1,6.992192105E0
2.033747878E0,-2.371050119E0,6.499950409E0,-8.269500136E-1,6.968147552E0
2.035707745E0,-2.179949999E0,6.577050209E0,-7.890000343E-1,6.973685719E0
2.037667515E0,-2.103000164E0,6.615000248E0,-7.510500550E-1,6.981755807E0
2.039627240E0,-2.103000164E0,6.654000282E0,-7.510500550E-1,7.018718233E0
2.041586978E0,-1.987950087E0,6.768000126E0,-6.739500165E-1,7.086041199E0
2.043546842E0,-2.026050091E0,6.922050476E0,-5.970000029E-1,7.237131391E0
2.045506669E0,-1.987950087E0,6.960000515E0,-5.590500236E-1,7.259895980E0
2.047466339E0,-2.026050091E0,7.075050354E0,-5.209500194E-1,7.377845580E0
2.049426055E0,-1.950000048E0,7.152000427E0,-5.209500194E-1,7.431352449E0
2.051385878E0,-1.950000048E0,7.228050232E0,-4.819500148E-1,7.501965486E0
2.053345669E0,-1.950000048E0,7.228050232E0,-5.590500236E-1,7.507312919E0
2.055305525E0,-1.911000133E0,7.305000305E0,-4.819500148E-1,7.566189714E0
2.057265361E0,-1.873050094E0,7.381950378E0,-4.819500148E-1,7.631106333E0
2.059225075E0,-1.873050094E0,7.381950378E0,-4.819500148E-1,7.631106333E0
2.061184825E0,-1.834950089E0,7.420050144E0,-4.819500148E-1,7.658750668E0
2.063144686E0,-1.873050094E0,7.458000183E0,-4.819500148E-1,7.704697217E0
2.065104515E0,-1.834950089E0,7.497000217E0,-4.440000355E-1,7.731053623E0
2.067064320E0,-1.795950055E0,7.573050499E0,-4.440000355E-1,7.795746692E0
2.069024132E0,-1.758000135E0,7.612050533E0,-4.440000355E-1,7.825024845E0
2.070984043E0,-1.758000135E0,7.612050533E0,-4.440000355E-1,7.825024845E0
2.072943915E0,-1.795950055E0,7.650000572E0,-4.819500148E-1,7.872751817E0
2.074903713E0,-1.758000135E0,7.650000572E0,-5.209500194E-1,7.866667792E0
2.076863532E0,-1.681950092E0,7.650000572E0,-5.209500194E-1,7.850022534E0
2.078823607E0,-1.681950092E0,7.650000572E0,-5.970000029E-1,7.855435944E0
2.080783607E0,-1.681950092E0,7.612050533E0,-5.590500236E-1,7.815676961E0
2.082743387E0,-1.642950058E0,7.612050533E0,-5.970000029E-1,7.810186119E0
2.084703228E0,-1.681950092E0,7.650000572E0,-5.970000029E-1,7.855435944E0
2.086663254E0,-1.605000019E0,7.650000572E0,-6.360000372E-1,7.842386745E0
2.088623226E0,-1.642950058E0,7.726950169E0,-5.970000029E-1,7.922212621E0
2.090583276E0,-1.605000019E0,7.765050411E0,-6.360000372E-1,7.954654549E0
2.092543303E0,-1.605000019E0,7.765050411E0,-7.120500207E-1,7.961095916E0
2.094503278E0,-1.605000019E0,7.842000484E0,-7.120500207E-1,8.036168981E0
2.096463252E0,-1.642950058E0,7.918050289E0,-7.120500207E-1,8.117993626E0
2.098423122E0,-1.720050097E0,7.957050323E0,-7.890000343E-1,8.178981797E0
2.100383022E0,-1.834950089E0,7.995000362E0,-8.269500136E-1,8.244447765E0
2.102342993E0,-1.834950089E0,8.071949959E0,-9.040500522E-1,8.327107809E0
2.104302943E0,-1.911000133E0,8.263050079E0,-9.040500522E-1,8.529198357E0
2.106262777E0,-1.950000048E0,8.302050591E0,-8.659500480E-1,8.571838407E0
2.108222642E0,-1.911000133E0,8.416950226E0,-9.040500522E-1,8.678379982E0
2.110182664E0,-1.987950087E0,8.532000542E0,-9.040500522E-1,8.807058833E0
2.112142640E0,-1.987950087E0,8.532000542E0,-9.040500522E-1,8.807058833E0
2.114102150E0,-1.987950087E0,8.608050346E0,-1.018950105E0,8.893184785E0
2.116061796E0,-2.026050091E0,8.685000420E0,-1.134000063E0,8.989998187E0
2.118021675E0,-2.065050125E0,8.685000420E0,-1.134000063E0,8.998867732E0
2.119981486E0,-2.065050125E0,8.722949982E0,-1.210950017E0,9.045478890E0
2.121941473E0,-2.140950203E0,8.800050735E0,-1.210950017E0,9.137338817E0
2.123901409E0,-2.179949999E0,8.877000809E0,-1.171950102E0,9.215573362E0
2.125861420E0,-2.295000076E0,8.953050613E0,-1.134000063E0,9.311825642E0
2.127821409E0,-2.371050119E0,9.030000687E0,-1.057050109E0,9.395751487E0
2.129781426E0,-2.410050154E0,9.067950249E0,-1.057050109E0,9.442108789E0
2.131741424E0,-2.485950232E0,9.145050049E0,-1.057050109E0,9.535682665E0
2.133700885E0,-2.601000071E0,9.183000565E0,-9.810000658E-1,9.594532915E0
2.135660503E0,-2.601000071E0,9.298050880E0,-1.018950105E0,9.708615290E0
2.137620388E0,-2.677950144E0,9.298050880E0,-9.420000315E-1,9.721755562E0
2.139580194E0,-2.677950144E0,9.375000000E0,-7.890000343E-1,9.781848651E0
2.141540091E0,-2.716050148E0,9.375000000E0,-8.269500136E-1,9.795478535E0
2.143499962E0,-2.830950022E0,9.451050758E0,-7.890000343E-1,9.897431966E0
2.145459760E0,-2.830950022E0,9.490050316E0,-6.360000372E-1,9.923700372E0
2.147419579E0,-2.908050060E0,9.490050316E0,-5.209500194E-1,9.939275581E0
2.149379609E0,-2.985000134E0,9.565950394E0,-4.060500264E-1,1.002908318E1
2.151339577E0,-3.022950172E0,9.565950394E0,-3.670500219E-1,1.003894220E1
2.153299627E0,-3.061050177E0,9.604950905E0,-2.520000041E-1,1.008407725E1
2.155259621E0,-3.175950050E0,9.604950905E0,-1.369500011E-1,1.011733640E1
2.157219443E0,-3.367950201E0,9.681000710E0,-7.120500207E-1,1.027481769E1
2.159179316E0,-3.253050089E0,9.720000267E0,-4.819500148E-1,1.026123852E1
2.161139381E0,-3.253050089E0,9.796050072E0,-6.105000153E-2,1.032224099E1
2.163099390E0,-3.330000162E0,9.796050072E0,5.295000225E-2,1.034670488E1
2.165059359E0,-3.520950079E0,9.835050583E0,1.300500035E-1,1.044711551E1
2.167019330E0,-3.559950113E0,9.910950661E0,-2.205000073E-2,1.053093890E1
2.168979378E0,-3.636000156E0,9.910950661E0,-6.105000153E-2,1.055704349E1
2.170939404E0,-3.712950230E0,9.988050461E0,-1.759500057E-1,1.065730312E1
2.172899401E0,-3.828000069E0,1.002600002E1,-2.520000041E-1,1.073488542E1
2.174859406E0,-3.865950108E0,1.006500053E1,-3.670500219E-1,1.078816628E1
2.176819558E0,-3.943050146E0,1.010295010E1,-4.440000355E-1,1.085423333E1
2.178779654E0,-4.057950020E0,1.018005085E1,-5.209500194E-1,1.097140750E1
2.180739504E0,-4.057950020E0,1.018005085E1,-5.209500194E-1,1.097140750E1
2.182699426E0,-4.057950020E0,1.018005085E1,-5.970000029E-1,1.097528144E1
2.184659259E0,-4.057950020E0,1.021800041E1,-5.970000029E-1,1.101049044E1
2.186619118E0,-4.057950020E0,1.018005085E1,-5.970000029E-1,1.097528144E1
2.188579521E0,-4.057950020E0,1.018005085E1,-7.120500207E-1,1.098214045E1
2.190539751E0,-4.057950020E0,1.025595093E1,-7.510500550E-1,1.105511483E1
2.192499848E0,-4.018949986E0,1.018005085E1,-6.739500165E-1,1.096538202E1
2.194459984E0,-4.018949986E0,1.025595093E1,-7.120500207E-1,1.103827449E1
2.196420320E0,-4.018949986E0,1.025595093E1,-6.739500165E-1,1.103588225E1
2.198380597E0,-4.018949986E0,1.037100029E1,-7.120500207E-1,1.114525106E1
2.200340735E0,-3.943050146E0,1.041000080E1,-7.120500207E-1,1.115449579E1
2.202300911E0,-3.943050146E0,1.044795036E1,-7.890000343E-1,1.119508072E1
2.204260745E0,-3.943050146E0,1.052505016E1,-7.890000343E-1,1.126706912E1
2.206220680E0,-3.904950142E0,1.056300068E1,-8.659500480E-1,1.129493198E1
2.208180645E0,-3.904950142E0,1.060095024E1,-9.420000315E-1,1.133649618E1
2.210140601E0,-3.904950142E0,1.067805004E1,-9.810000658E-1,1.141191261E1
2.212100688E0,-3.904950142E0,1.075500011E1,-1.171950102E0,1.150183160E1
2.214060712E0,-3.865950108E0,1.083105087E1,-1.287000060E0,1.157210449E1
2.216020843E0,-3.865950108E0,1.090800095E1,-1.402050018E0,1.165743536E1
2.217980943E0,-3.790050268E0,1.094595051E1,-1.479000092E0,1.167757487E1
2.219940612E0,-3.790050268E0,1.102305031E1,-1.555950046E0,1.175980866E1
2.221900407E0,-3.828000069E0,1.113795090E1,-1.555950046E0,1.187975232E1
2.223860256E0,-4.096050262E0,1.102305031E1,-2.590050220E0,1.204132991E1
2.225820092E0,-3.828000069E0,1.132905006E1,-2.475000143E0,1.221173966E1
2.227780120E0,-3.751050234E0,1.152105045E1,-1.096050024E0,1.216578428E1
2.229740092E0,-3.828000069E0,1.163595009E1,-6.360000372E-1,1.226594534E1
2.231699917E0,-3.865950108E0,1.167405033E1,-4.060500264E-1,1.230422277E1
2.233659786E0,-3.904950142E0,1.178895092E1,-2.520000041E-1,1.242141310E1
2.235619607E0,-3.981000185E0,1.182795048E1,-1.759500057E-1,1.248117516E1
2.237579426E0,-3.981000185E0,1.194300079E1,-1.369500011E-1,1.258977306E1
2.239539456E0,-3.981000185E0,1.194300079E1,-6.105000153E-2,1.258917621E1
2.241499424E0,-4.057950020E0,1.201905060E1,1.500000060E-2,1.268561235E1
2.243459430E0,-4.018949986E0,1.209600067E1,9.195000678E-2,1.274651505E1
2.245419424E0,-4.018949986E0,1.213395023E1,1.680000126E-1,1.278330674E1
2.247378705E0,-4.057950020E0,1.221105099E1,2.449500114E-1,1.286999320E1
2.249338195E0,-3.981000185E0,1.224900055E1,3.220500052E-1,1.288371426E1
2.251298462E0,-4.018949986E0,1.224900055E1,4.360500276E-1,1.289884154E1
2.253258501E0,-3.981000185E0,1.224900055E1,4.360500276E-1,1.288706780E1
2.255218540E0,-3.904950142E0,1.228800011E1,5.130000114E-1,1.290374950E1
2.257178579E0,-3.828000069E0,1.228800011E1,5.509500504E-1,1.288223882E1
2.259138922E0,-3.675000191E0,1.232595062E1,6.660000086E-1,1.287937270E1
2.261099183E0,-3.598050117E0,1.232595062E1,7.810500264E-1,1.286409976E1
2.263059320E0,-3.406050205E0,1.224900055E1,8.959500194E-1,1.274527045E1
2.265019493E0,-3.330000162E0,1.232595062E1,1.050000072E0,1.281095078E1
2.266979643E0,-3.214950085E0,1.236405087E1,1.165050030E0,1.282821108E1
2.268939800E0,-3.138000250E0,1.240305042E1,1.318050027E0,1.286156916E1
2.270899773E0,-3.061050177E0,1.236405087E1,1.471050024E0,1.282200336E1
2.272859800E0,-2.946000099E0,1.247895050E1,1.510050058E0,1.291059152E1
2.274819975E0,-2.830950022E0,1.251795101E1,1.548000097E0,1.292709093E1
2.276780106E0,-2.677950144E0,1.251795101E1,1.663050056E0,1.290876640E1
2.278740220E0,-2.563050032E0,1.251795101E1,1.663050056E0,1.288542038E1
2.280700339E0,-2.485950232E0,1.251795101E1,1.701000094E0,1.287526495E1
2.282659953E0,-2.410050154E0,1.251795101E1,1.740000129E0,1.286604212E1
2.284619719E0,-2.140950203E0,1.236405087E1,1.701000094E0,1.266281260E1
2.286579578E0,-2.103000164E0,1.236405087E1,1.740000129E0,1.266175201E1
2.288539409E0,-2.103000164E0,1.244100094E1,1.740000129E0,1.273690365E1
2.290499483E0,-1.987950087E0,1.240305042E1,1.663050056E0,1.267096448E1
2.292459486E0,-1.873050094E0,1.236405087E1,1.663050056E0,1.261522120E1
2.294419301E0,-1.720050097E0,1.232595062E1,1.624950051E0,1.255101963E1
2.296379175E0,-1.567050099E0,1.213395023E1,1.701000094E0,1.235240040E1
2.298338971E0,-1.452000022E0,1.217295074E1,1.777950048E0,1.238749935E1
2.300298790E0,-1.413000107E0,1.209600067E1,1.777950048E0,1.230735178E1
2.302258640E0,-1.375050068E0,1.201905060E1,1.816050053E0,1.223300363E1
2.304218481E0,-1.297950029E0,1.190400028E1,1.816050053E0,1.211147946E1
2.306178203E0,-1.222050071E0,1.186605072E1,1.893000126E0,1.207807996E1
2.308137953E0,-1.144950032E0,1.186605072E1,1.893000126E0,1.207052276E1
2.310097815E0,-1.068000078E0,1.171305084E1,1.816050053E0,1.190101769E1
2.312057644E0,-1.068000078E0,1.171305084E1,1.893000126E0,1.191300271E1
2.314017673E0,-9.919500351E-1,1.163595009E1,1.930950046E0,1.183671692E1
2.315977644E0,-8.770500422E-1,1.148295021E1,1.930950046E0,1.167715421E1
2.317937591E0,-7.999500632E-1,1.140600014E1,2.008050203E0,1.160900620E1
2.319897555E0,-7.999500632E-1,1.136805058E1,2.008050203E0,1.157172241E1
2.321857426E0,-7.999500632E-1,1.129095078E1,1.930950046E0,1.148277221E1
2.323817324E0,-6.469500065E-1,1.117605019E1,1.930950046E0,1.136007087E1
2.325777521E0,-6.079500318E-1,1.106100082E1,1.893000126E0,1.123827353E1
2.327737630E0,-4.170000255E-1,1.094595051E1,1.816050053E0,1.110341206E1
2.329697744E0,-3.019500077E-1,1.071600056E1,1.855050087E0,1.087957042E1
2.331657890E0,-1.870500147E-1,1.060095024E1,1.893000126E0,1.077026384E1
2.333617821E0,-3.299999982E-2,1.044795036E1,1.855050087E0,1.061140738E1
2.335577815E0,8.100000024E-2,1.021800041E1,1.969950080E0,1.040647859E1
2.337537636E0,1.960500032E-1,1.002600002E1,1.969950080E0,1.021958000E1
2.339497508E0,3.109500110E-1,9.796050072E0,1.930950046E0,9.989387118E0
2.341457510E0,3.870000243E-1,9.565950394E0,2.008050203E0,9.782098015E0
2.343417487E0,5.410500169E-1,9.375000000E0,2.046000004E0,9.610904023E0
2.345378077E0,6.169500351E-1,9.145050049E0,2.161050081E0,9.417149526E0
2.347338487E0,5.790000558E-1,8.914950371E0,2.238000154E0,9.209789676E0
2.349298057E0,6.940500140E-1,8.722949982E0,2.275950193E0,9.041654223E0
2.351257873E0,6.940500140E-1,8.493000031E0,2.353049994E0,8.840226197E0
2.353217844E0,7.699500322E-1,8.224950790E0,2.430000067E0,8.610896520E0
2.355177780E0,7.320000529E-1,7.995000362E0,2.430000067E0,8.388131806E0
2.357137657E0,7.699500322E-1,7.803000450E0,2.391000032E0,8.197348366E0
2.359097551E0,6.940500140E-1,7.534950256E0,2.391000032E0,7.935619821E0
2.361057389E0,6.550500393E-1,7.381950378E0,2.391000032E0,7.787115197E0
2.363017243E0,6.169500351E-1,7.113000393E0,2.467950106E0,7.554216019E0
2.364976122E0,5.790000558E-1,6.922050476E0,2.391000032E0,7.346217055E0
2.366935301E0,4.639500082E-1,6.691950321E0,2.314950228E0,7.096227397E0
2.368895081E0,3.870000243E-1,6.499950409E0,2.200050116E0,6.873088451E0
2.370854684E0,3.490500152E-1,6.346950531E0,2.122950077E0,6.701681430E0
2.372814572E0,2.340000123E-1,6.193950176E0,1.969950080E0,6.503881772E0
2.374774376E0,1.960500032E-1,6.040050507E0,1.930950046E0,6.344226809E0
2.376734067E0,8.100000024E-2,5.887050152E0,1.701000094E0,6.128402876E0
2.378693811E0,-3.299999982E-2,5.695050240E0,1.585950017E0,5.911846047E0
2.380653494E0,-7.200000435E-2,5.619000435E0,1.471050024E0,5.808815547E0
2.382613195E0,-1.870500147E-1,5.542050362E0,1.432950020E0,5.727360271E0
2.384573245E0,-3.019500077E-1,5.503950119E0,1.356000066E0,5.676563828E0
2.386533193E0,-3.780000210E-1,5.464950085E0,1.240950108E0,5.616806977E0
2.388492973E0,-4.930500090E-1,5.464950085E0,1.279950023E0,5.634452041E0
2.390452806E0,-6.079500318E-1,5.503950119E0,1.126049995E0,5.650757360E0
2.392412519E0,-7.620000243E-1,5.619000435E0,1.087950110E0,5.773858793E0
2.394372267E0,-9.150000215E-1,5.772000313E0,1.087950110E0,5.944480473E0
2.396332309E0,-9.919500351E-1,5.925000191E0,1.126049995E0,6.112084810E0
2.398292265E0,-1.106999993E0,6.117000103E0,1.087950110E0,6.310845798E0
2.400252259E0,-1.260000110E0,6.309000492E0,1.126049995E0,6.531391588E0
2.402212251E0,-1.375050068E0,6.462000370E0,1.165050030E0,6.708617819E0
2.404172073E0,-1.452000022E0,6.691950321E0,1.279950023E0,6.966259773E0
2.406131945E0,-1.567050099E0,6.883050442E0,1.279950023E0,7.174280553E0
2.408092101E0,-1.681950092E0,7.075050354E0,1.318050027E0,7.390706969E0
2.410052174E0,-1.758000135E0,7.342950344E0,1.432950020E0,7.685234544E0
2.412012387E0,-1.873050094E0,7.534950256E0,1.432950020E0,7.895387120E0
2.413972559E0,-1.950000048E0,7.842000484E0,1.510050058E0,8.220688716E0
2.415932890E0,-2.026050091E0,8.071949959E0,1.624950051E0,8.479488061E0
2.417893174E0,-2.140950203E0,8.377950668E0,1.624950051E0,8.798533278E0
2.419853262E0,-2.179949999E0,8.569950104E0,1.777950048E0,9.019829996E0
2.421813407E0,-2.218050003E0,8.914950371E0,1.893000126E0,9.379740690E0
2.423773173E0,-2.256000042E0,9.106050491E0,2.085000038E0,9.610250616E0
2.425733070E0,-2.295000076E0,9.412950516E0,2.238000154E0,9.943807493E0
2.427692908E0,-2.332950115E0,9.643050194E0,2.391000032E0,1.020529051E1
2.429652763E0,-2.295000076E0,9.873000145E0,2.545050144E0,1.045085822E1
2.431612607E0,-2.332950115E0,1.018005085E1,2.659050226E0,1.077713504E1
2.433572455E0,-2.295000076E0,1.037100029E1,2.773950100E0,1.097813607E1
2.435532345E0,-2.179949999E0,1.056300068E1,2.812950134E0,1.114638299E1
2.437492222E0,-2.140950203E0,1.071600056E1,2.889000177E0,1.130321449E1
2.439452379E0,-2.065050125E0,1.098495007E1,2.889000177E0,1.154469064E1
2.441412453E0,-2.026050091E0,1.110000038E1,2.889000177E0,1.164736921E1
2.443372666E0,-2.026050091E0,1.125300026E1,3.043050051E0,1.183195028E1
2.445332838E0,-2.065050125E0,1.136805058E1,2.965950251E0,1.192869929E1
2.447292805E0,-1.950000048E0,1.144395065E1,2.773950100E0,1.193571556E1
2.449252835E0,-1.911000133E0,1.144395065E1,2.620950222E0,1.189475969E1
2.451212963E0,-1.795950055E0,1.144395065E1,2.545050144E0,1.186030031E1
2.453173063E0,-1.681950092E0,1.129095078E1,2.467950106E0,1.167926810E1
2.455133226E0,-1.605000019E0,1.129095078E1,2.391000032E0,1.165240214E1
2.457093371E0,-1.413000107E0,1.117605019E1,2.200050116E0,1.147784333E1
2.459053527E0,-1.144950032E0,1.106100082E1,2.046000004E0,1.130675753E1
2.461013679E0,-8.770500422E-1,1.094595051E1,1.969950080E0,1.115633240E1
2.462973654E0,-7.620000243E-1,1.079295063E1,2.046000004E0,1.101156407E1
2.464933681E0,-5.700000525E-1,1.063995075E1,2.046000004E0,1.084986489E1
2.466893720E0,-5.320500135E-1,1.052505016E1,2.046000004E0,1.073526312E1
2.468853756E0,-4.549500346E-1,1.029495049E1,2.008050203E0,1.049882139E1
2.470813751E0,-4.170000255E-1,1.010295010E1,1.855050087E0,1.028030644E1
2.472773758E0,-3.400500119E-1,9.988050461E0,1.816050053E0,1.015750086E1
2.474733891E0,-2.250000089E-1,9.835050583E0,1.740000129E0,9.990317584E0
2.476693987E0,-1.099500060E-1,9.720000267E0,1.816050053E0,9.888808421E0
2.478653972E0,1.189500093E-1,9.565950394E0,1.816050053E0,9.737535306E0
2.480613989E0,1.189500093E-1,9.490050316E0,1.816050053E0,9.662983074E0
2.482573851E0,1.570500135E-1,9.375000000E0,1.777950048E0,9.543395417E0
2.484533758E0,1.189500093E-1,9.220950127E0,1.816050053E0,9.398835467E0
2.486493548E0,4.050000105E-3,9.067950249E0,1.930950046E0,9.271262384E0
2.488453373E0,4.050000105E-3,9.030000687E0,1.816050053E0,9.210807055E0
2.490413088E0,4.050000105E-3,8.991000175E0,1.740000129E0,9.157821848E0
2.492372835E0,8.100000024E-2,8.838000298E0,1.740000129E0,9.008019244E0
2.494332867E0,8.100000024E-2,8.877000809E0,1.740000129E0,9.046286797E0
2.496292823E0,8.100000024E-2,8.761950493E0,1.816050053E0,8.948540397E0
2.498252606E0,8.100000024E-2,8.761950493E0,1.893000126E0,8.964473599E0
2.500212440E0,4.050000105E-3,8.761950493E0,2.008050203E0,8.989107768E0
2.502172287E0,-7.200000435E-2,8.761950493E0,2.085000038E0,9.006896558E0
2.504132130E0,-1.480500102E-1,8.761950493E0,2.046000004E0,8.998878333E0
2.506092003E0,-1.480500102E-1,8.800050735E0,2.008050203E0,9.027462399E0
2.508051881E0,-1.480500102E-1,8.761950493E0,1.930950046E0,8.973419823E0
2.510011857E0,-1.480500102E-1,8.722949982E0,1.855050087E0,8.919248063E0
2.511971804E0,-2.250000089E-1,8.685000420E0,1.855050087E0,8.883753042E0
2.513931813E0,-2.250000089E-1,8.647050858E0,1.893000126E0,8.854691582E0
2.515891804E0,-3.780000210E-1,8.569950104E0,1.893000126E0,8.784667226E0
2.517852065E0,-4.549500346E-1,8.532000542E0,1.930950046E0,8.759599355E0
2.519812222E0,-4.549500346E-1,8.532000542E0,1.930950046E0,8.759599355E0
2.521771971E0,-5.700000525E-1,8.569950104E0,1.893000126E0,8.795020996E0
2.523731840E0,-6.469500065E-1,8.532000542E0,2.008050203E0,8.788961439E0
2.525691726E0,-6.850500107E-1,8.608050346E0,2.046000004E0,8.874341683E0
2.527651607E0,-8.380500674E-1,8.608050346E0,2.046000004E0,8.887461657E0
2.529611792E0,-7.620000243E-1,8.569950104E0,2.085000038E0,8.852791310E0
2.531571867E0,-7.999500632E-1,8.493000031E0,2.085000038E0,8.781696578E0
2.533531900E0,-9.150000215E-1,8.455050468E0,2.161050081E0,8.774693209E0
2.535491946E0,-8.380500674E-1,8.455050468E0,2.008050203E0,8.730548205E0
2.537452072E0,-7.999500632E-1,8.569950104E0,2.085000038E0,8.856138552E0
2.539412175E0,-7.620000243E-1,8.493000031E0,2.085000038E0,8.778320951E0
2.541372503E0,-7.999500632E-1,8.455050468E0,2.085000038E0,8.744999925E0
2.543332775E0,-7.999500632E-1,8.532000542E0,2.238000154E0,8.856839055E0
2.545292955E0,-8.380500674E-1,8.569950104E0,2.314950228E0,8.916578226E0
2.547253162E0,-9.150000215E-1,8.569950104E0,2.314950228E0,8.924139419E0
2.549213666E0,-9.150000215E-1,8.569950104E0,2.353049994E0,8.934098393E0
2.551174083E0,-1.030050039E0,8.569950104E0,2.353049994E0,8.946613445E0
2.553134357E0,-9.919500351E-1,8.647050858E0,2.314950228E0,9.006355976E0
2.555094652E0,-1.030050039E0,8.647050858E0,2.353049994E0,9.020495324E0
2.557054782E0,-1.030050039E0,8.647050858E0,2.353049994E0,9.020495324E0
2.559014960E0,-1.030050039E0,8.722949982E0,2.353049994E0,9.093277942E0
2.560975153E0,-1.030050039E0,8.685000420E0,2.353049994E0,9.056880238E0
2.562935342E0,-9.919500351E-1,8.685000420E0,2.391000032E0,9.062564665E0
2.564895486E0,-9.919500351E-1,8.685000420E0,2.314950228E0,9.042797782E0
2.566855647E0,-9.150000215E-1,8.685000420E0,2.353049994E0,9.044517765E0
2.568815800E0,-9.529500604E-1,8.722949982E0,2.467950106E0,9.115302953E0
2.570775955E0,-9.529500604E-1,8.722949982E0,2.430000067E0,9.105101346E0
2.572736109E0,-9.529500604E-1,8.800050735E0,2.430000067E0,9.178992706E0
2.574696263E0,-9.919500351E-1,8.800050735E0,2.506050110E0,9.203539807E0
2.576656402E0,-1.030050039E0,8.877000809E0,2.353049994E0,9.241157434E0
2.578616556E0,-1.068000078E0,8.953050613E0,2.275950193E0,9.299338081E0
2.580576665E0,-1.068000078E0,9.030000687E0,2.275950193E0,9.373445783E0
2.582536787E0,-1.144950032E0,9.067950249E0,2.275950193E0,9.419054176E0
2.584496945E0,-1.183050036E0,9.106050491E0,2.314950228E0,9.469886879E0
2.586457093E0,-1.183050036E0,9.145050049E0,2.275950193E0,9.497973314E0
2.588417273E0,-1.222050071E0,9.183000565E0,2.200050116E0,9.521613637E0
2.590377457E0,-1.260000110E0,9.183000565E0,2.161050081E0,9.517627703E0
2.592337427E0,-1.222050071E0,9.106050491E0,2.122950077E0,9.429765583E0
2.594297459E0,-1.336950064E0,9.067950249E0,2.085000038E0,9.400126720E0
2.596257948E0,-1.297950029E0,8.991000175E0,2.122950077E0,9.328969689E0
2.598218303E0,-1.260000110E0,9.067950249E0,1.969950080E0,9.364615598E0
2.600178230E0,-1.260000110E0,9.067950249E0,1.816050053E0,9.333453797E0
2.602138292E0,-1.260000110E0,9.067950249E0,1.855050087E0,9.341120533E0
2.604098326E0,-1.260000110E0,9.067950249E0,1.855050087E0,9.341120533E0
2.606058368E0,-1.260000110E0,9.030000687E0,1.893000126E0,9.311925803E0
2.608018316E0,-1.297950029E0,8.953050613E0,1.893000126E0,9.242577511E0
2.609978292E0,-1.413000107E0,8.877000809E0,1.930950046E0,9.193817528E0
2.611938470E0,-1.452000022E0,8.877000809E0,1.969950080E0,9.208156750E0
2.613898592E0,-1.489950061E0,8.800050735E0,1.701000094E0,9.085936685E0
2.615858797E0,-1.528050065E0,8.838000298E0,1.585950017E0,9.108261289E0
2.617818977E0,-1.605000019E0,8.722949982E0,1.510050058E0,8.997006870E0
2.619779083E0,-1.605000019E0,8.722949982E0,1.510050058E0,8.997006870E0
2.621739210E0,-1.681950092E0,8.722949982E0,1.548000097E0,9.017489495E0
2.623699228E0,-1.758000135E0,8.800050735E0,1.510050058E0,9.100093879E0
2.625659282E0,-1.758000135E0,8.800050735E0,1.510050058E0,9.100093879E0
2.627619451E0,-1.873050094E0,8.800050735E0,1.471050024E0,9.116643997E0
2.629579587E0,-1.950000048E0,8.838000298E0,1.471050024E0,9.169336815E0
2.631539744E0,-2.103000164E0,8.838000298E0,1.471050024E0,9.203088999E0
2.633499895E0,-2.103000164E0,8.800050735E0,1.395000100E0,9.154754389E0
2.635459675E0,-2.103000164E0,8.800050735E0,1.395000100E0,9.154754389E0
2.637419574E0,-2.179949999E0,8.761950493E0,1.432950020E0,9.142062360E0
2.639379726E0,-2.256000042E0,8.800050735E0,1.432950020E0,9.196943780E0
2.641339803E0,-2.295000076E0,8.761950493E0,1.318050027E0,9.152926180E0
2.643299656E0,-2.295000076E0,8.685000420E0,1.240950108E0,9.068418540E0
2.645259574E0,-2.485950232E0,8.761950493E0,7.050000429E-1,9.135028739E0
2.647219957E0,-2.410050154E0,8.761950493E0,8.959500194E-1,9.131420734E0
2.649180197E0,-2.410050154E0,8.838000298E0,1.203000069E0,9.239361459E0
2.651140651E0,-2.640000105E0,8.722949982E0,3.979500234E-1,9.122380235E0
2.653101043E0,-2.448000193E0,8.800050735E0,8.200500607E-1,9.170936702E0
2.655061157E0,-2.410050154E0,8.761950493E0,1.395000100E0,9.193810062E0
2.657021353E0,-2.485950232E0,8.722949982E0,1.432950020E0,9.182763783E0
2.658981495E0,-2.601000071E0,8.647050858E0,1.356000066E0,9.131014515E0
2.660941656E0,-2.677950144E0,8.608050346E0,1.126049995E0,9.085039149E0
2.662901809E0,-2.716050148E0,8.569950104E0,9.730500579E-1,9.042554927E0
2.664861964E0,-2.716050148E0,8.455050468E0,7.810500264E-1,8.914866571E0
2.666821937E0,-2.755050182E0,8.416950226E0,7.050000429E-1,8.884389550E0
2.668781964E0,-2.716050148E0,8.340000153E0,6.660000086E-1,8.796367828E0
2.670742134E0,-2.716050148E0,8.340000153E0,5.899500251E-1,8.790936923E0
2.672702265E0,-2.755050182E0,8.263050079E0,5.130000114E-1,8.725334786E0
2.674662108E0,-2.716050148E0,8.187000275E0,5.130000114E-1,8.641010989E0
2.676622036E0,-2.716050148E0,8.110050201E0,5.130000114E-1,8.568139336E0
2.678582543E0,-2.716050148E0,8.071949959E0,4.360500276E-1,8.527804182E0
2.680542880E0,-2.677950144E0,8.032950401E0,3.220500052E-1,8.473690184E0
2.682503733E0,-2.755050182E0,7.957050323E0,2.070000172E-1,8.423051725E0
2.684464428E0,-2.830950022E0,7.957050323E0,1.680000126E-1,8.447316253E0
2.686424535E0,-2.793000221E0,7.879950523E0,5.295000225E-2,8.360458970E0
2.688384814E0,-2.793000221E0,7.879950523E0,1.500000060E-2,8.360304748E0
2.690345082E0,-2.755050182E0,7.879950523E0,9.195000678E-2,8.348196006E0
2.692305353E0,-2.830950022E0,7.765050411E0,9.195000678E-2,8.265515151E0
2.694265546E0,-2.830950022E0,7.765050411E0,1.300500035E-1,8.266026792E0
2.696225752E0,-2.908050060E0,7.765050411E0,1.680000126E-1,8.293430355E0
2.698185897E0,-2.908050060E0,7.765050411E0,2.449500114E-1,8.295345897E0
2.700146060E0,-2.985000134E0,7.842000484E0,2.830500007E-1,8.395672379E0
2.702105491E0,-2.946000099E0,7.842000484E0,3.979500234E-1,8.386551878E0
2.704065137E0,-2.985000134E0,7.879950523E0,4.360500276E-1,8.437652853E0
2.706025197E0,-3.022950172E0,7.957050323E0,4.360500276E-1,8.523087306E0
2.707985135E0,-3.022950172E0,8.032950401E0,5.130000114E-1,8.598237547E0
2.709945461E0,-3.022950172E0,8.071949959E0,5.130000114E-1,8.634684296E0
2.711905673E0,-3.022950172E0,8.187000275E0,4.360500276E-1,8.738154317E0
2.713865863E0,-3.100050211E0,8.263050079E0,4.750500321E-1,8.838211383E0
2.715826060E0,-3.022950172E0,8.340000153E0,5.509500504E-1,8.888046819E0
2.717786370E0,-3.061050177E0,8.416950226E0,5.509500504E-1,8.973217107E0
2.719746658E0,-3.022950172E0,8.455050468E0,5.130000114E-1,8.993846518E0
2.721706970E0,-3.214950085E0,8.532000542E0,7.810500264E-1,9.151009586E0
2.723667274E0,-3.138000250E0,8.761950493E0,6.280500293E-1,9.328090311E0
2.725627763E0,-2.946000099E0,8.838000298E0,5.509500504E-1,9.332347604E0
2.727588197E0,-2.869950056E0,8.877000809E0,6.280500293E-1,9.350518890E0
2.729548634E0,-2.830950022E0,8.914950371E0,5.509500504E-1,9.369854006E0
2.731509060E0,-2.793000221E0,8.991000175E0,7.050000429E-1,9.441184219E0
2.733469347E0,-2.908050060E0,8.991000175E0,8.580000401E-1,9.488466861E0
2.735429675E0,-3.061050177E0,9.067950249E0,1.050000072E0,9.628096907E0
2.737389979E0,-2.830950022E0,9.145050049E0,9.349500537E-1,9.618749920E0
2.739350291E0,-2.640000105E0,9.183000565E0,8.200500607E-1,9.590077269E0
2.741310413E0,-2.524950027E0,9.145050049E0,9.349500537E-1,9.533176000E0
2.743270594E0,-2.485950232E0,9.183000565E0,1.050000072E0,9.571308587E0
2.745230743E0,-2.524950027E0,9.145050049E0,1.165050030E0,9.558486000E0
2.747190901E0,-2.601000071E0,9.067950249E0,1.203000069E0,9.510001695E0
2.749150738E0,-2.793000221E0,9.106050491E0,1.395000100E0,9.626371646E0
2.751110670E0,-2.524950027E0,9.145050049E0,1.279950023E0,9.573170065E0
2.753070880E0,-2.332950115E0,9.183000565E0,1.203000069E0,9.550778229E0
2.755030995E0,-2.256000042E0,9.145050049E0,1.165050030E0,9.490986153E0
2.756991156E0,-2.256000042E0,9.145050049E0,1.279950023E0,9.505774490E0
2.758951303E0,-2.218050003E0,9.183000565E0,1.279950023E0,9.533389599E0
2.760911593E0,-2.218050003E0,9.220950127E0,1.395000100E0,9.586015457E0
2.762871841E0,-2.256000042E0,9.220950127E0,1.395000100E0,9.594867519E0
2.764831829E0,-2.256000042E0,9.220950127E0,1.395000100E0,9.594867519E0
2.766791872E0,-2.295000076E0,9.259950638E0,1.432950020E0,9.647126874E0
2.768751865E0,-2.218050003E0,9.220950127E0,1.395000100E0,9.586015457E0
2.770711872E0,-2.140950203E0,9.259950638E0,1.432950020E0,9.611643946E0
2.772671736E0,-2.103000164E0,9.259950638E0,1.471050024E0,9.609020953E0
2.774631642E0,-2.371050119E0,9.106050491E0,1.471050024E0,9.523970936E0
2.776591447E0,-2.295000076E0,9.259950638E0,1.471050024E0,9.652859646E0
2.778551271E0,-1.987950087E0,9.259950638E0,1.395000100E0,9.573121572E0
2.780511165E0,-1.720050097E0,9.220950127E0,1.279950023E0,9.466930106E0
2.782471038E0,-1.720050097E0,9.145050049E0,1.318050027E0,9.398285408E0
2.784431015E0,-1.873050094E0,9.183000565E0,1.395000100E0,9.475328031E0
2.786390961E0,-1.720050097E0,9.259950638E0,1.356000066E0,9.515460805E0
2.788350970E0,-1.567050099E0,9.259950638E0,1.240950108E0,9.473240681E0
2.790310961E0,-1.567050099E0,9.259950638E0,1.165050030E0,9.463597276E0
2.792270829E0,-1.567050099E0,9.220950127E0,1.165050030E0,9.425439450E0
2.794230733E0,-1.642950058E0,9.298050880E0,1.165050030E0,9.513694164E0
2.796190748E0,-1.681950092E0,9.298050880E0,1.087950110E0,9.511379591E0
2.798150731E0,-1.795950055E0,9.375000000E0,1.087950110E0,9.607273133E0
2.800111015E0,-1.795950055E0,9.375000000E0,1.011000037E0,9.598863614E0
2.802071235E0,-1.950000048E0,9.451050758E0,1.050000072E0,9.707077870E0
2.804031198E0,-2.026050091E0,9.528000832E0,1.011000037E0,9.793354884E0
2.805991237E0,-2.140950203E0,9.490050316E0,1.050000072E0,9.785050992E0
2.807951095E0,-1.950000048E0,9.643050194E0,9.730500579E-1,9.886240116E0
2.809911006E0,-1.873050094E0,9.720000267E0,8.959500194E-1,9.939288117E0
2.811871161E0,-1.987950087E0,9.720000267E0,1.050000072E0,9.976615202E0
2.813831240E0,-1.987950087E0,9.796050072E0,1.087950110E0,1.005475897E1
2.815791092E0,-1.950000048E0,9.910950661E0,1.050000072E0,1.015538987E1
2.817751011E0,-2.026050091E0,9.949950218E0,1.050000072E0,1.020827549E1
2.819710979E0,-2.065050125E0,1.006500053E1,1.126049995E0,1.033618190E1
2.821670932E0,-2.103000164E0,1.018005085E1,1.050000072E0,1.044789669E1
2.823630826E0,-2.140950203E0,1.021800041E1,1.087950110E0,1.049642013E1
2.825590724E0,-2.218050003E0,1.037100029E1,1.126049995E0,1.066514798E1
2.827550695E0,-2.179949999E0,1.044795036E1,1.011000037E0,1.072072618E1
2.829510645E0,-2.256000042E0,1.041000080E1,1.087950110E0,1.070706721E1
2.831470654E0,-2.332950115E0,1.052505016E1,1.165050030E0,1.084327804E1
2.833430645E0,-2.332950115E0,1.060095024E1,1.165050030E0,1.091696587E1
2.835390697E0,-2.295000076E0,1.063995075E1,1.165050030E0,1.094682232E1
2.837350727E0,-2.448000193E0,1.063995075E1,1.165050030E0,1.097991797E1
2.839310902E0,-2.410050154E0,1.067805004E1,1.126049995E0,1.100441198E1
2.841271034E0,-2.448000193E0,1.071600056E1,1.279950023E0,1.106632933E1
2.843231012E0,-2.448000193E0,1.075500011E1,1.203000069E0,1.109549195E1
2.845191036E0,-2.563050032E0,1.071600056E1,1.318050027E0,1.109680807E1
2.847151397E0,-2.640000105E0,1.067805004E1,1.240950108E0,1.106934101E1
2.849111655E0,-2.601000071E0,1.067805004E1,1.126049995E0,1.104780262E1
2.851071747E0,-2.601000071E0,1.056300068E1,8.959500194E-1,1.091535209E1
2.853031888E0,-2.755050182E0,1.056300068E1,1.011000037E0,1.096309290E1
2.854991864E0,-2.830950022E0,1.060095024E1,1.011000037E0,1.101891760E1
2.856951888E0,-2.830950022E0,1.060095024E1,9.349500537E-1,1.101220031E1
2.858911404E0,-2.946000099E0,1.060095024E1,9.730500579E-1,1.104562760E1
2.860871185E0,-2.946000099E0,1.052505016E1,8.580000401E-1,1.096320034E1
2.862831221E0,-3.022950172E0,1.044795036E1,8.959500194E-1,1.091332309E1
2.864791183E0,-3.138000250E0,1.041000080E1,7.050000429E-1,1.089551226E1
2.866751145E0,-3.214950085E0,1.037100029E1,7.050000429E-1,1.088074336E1
2.868711107E0,-3.253050089E0,1.037100029E1,4.750500321E-1,1.087959808E1
2.870671709E0,-3.214950085E0,1.025595093E1,2.830500007E-1,1.075176966E1
2.872632116E0,-3.253050089E0,1.014105034E1,9.195000678E-2,1.065043152E1
2.874592183E0,-3.253050089E0,1.029495049E1,2.449500114E-1,1.079946021E1
2.876552349E0,-3.291000128E0,1.033305073E1,2.070000172E-1,1.084644957E1
2.878512320E0,-3.291000128E0,1.029495049E1,1.680000126E-1,1.080948247E1
2.880472349E0,-3.253050089E0,1.025595093E1,9.195000678E-2,1.075989401E1
2.882432029E0,-3.291000128E0,1.021800041E1,5.295000225E-2,1.073503693E1
2.884391811E0,-3.214950085E0,1.029495049E1,-2.205000073E-2,1.078528608E1
2.886351802E0,-3.138000250E0,1.025595093E1,-2.205000073E-2,1.072530005E1
2.888311732E0,-3.061050177E0,1.025595093E1,-6.105000153E-2,1.070319040E1
2.890271789E0,-2.946000099E0,1.033305073E1,-2.205000073E-2,1.074482853E1
2.892231809E0,-2.869950056E0,1.029495049E1,9.195000678E-2,1.068789379E1
2.894190715E0,-2.755050182E0,1.033305073E1,1.680000126E-1,1.069534772E1
2.896149954E0,-2.601000071E0,1.037100029E1,3.979500234E-1,1.069958937E1
2.898110039E0,-2.485950232E0,1.037100029E1,5.509500504E-1,1.067900471E1
2.900069876E0,-2.371050119E0,1.041000080E1,8.200500607E-1,1.070805666E1
2.902029589E0,-2.332950115E0,1.048605061E1,1.050000072E0,1.079362838E1
2.903989339E0,-2.371050119E0,1.056300068E1,1.279950023E0,1.090124461E1
2.905949336E0,-2.371050119E0,1.052505016E1,1.471050024E0,1.088864306E1
2.907909260E0,-2.332950115E0,1.063995075E1,1.510050058E0,1.099688408E1
2.909869139E0,-2.371050119E0,1.075500011E1,1.585950017E0,1.112686585E1
2.911829031E0,-2.410050154E0,1.075500011E1,1.663050056E0,1.114648396E1
2.913788825E0,-2.410050154E0,1.075500011E1,1.701000094E0,1.115220922E1
2.915748647E0,-2.410050154E0,1.083105087E1,1.663050056E0,1.121988147E1
2.917708662E0,-2.410050154E0,1.090800095E1,1.701000094E0,1.129983308E1
2.919668631E0,-2.410050154E0,1.087005043E1,1.663050056E0,1.125753408E1
2.921628097E0,-2.448000193E0,1.083105087E1,1.663050056E0,1.122809438E1
2.923587710E0,-2.448000193E0,1.087005043E1,1.585950017E0,1.125459634E1
2.925547955E0,-2.524950027E0,1.087005043E1,1.510050058E0,1.126115537E1
2.927508015E0,-2.601000071E0,1.090800095E1,1.548000097E0,1.132015858E1
2.929467681E0,-2.640000105E0,1.087005043E1,1.471050024E0,1.128235725E1
2.931427469E0,-2.716050148E0,1.090800095E1,1.471050024E0,1.133690439E1
2.933387279E0,-2.793000221E0,1.090800095E1,1.510050058E0,1.136070359E1
2.935347082E0,-2.908050060E0,1.090800095E1,1.471050024E0,1.138442919E1
2.937307116E0,-2.830950022E0,1.098495007E1,1.432950020E0,1.143401730E1
2.939267082E0,-2.985000134E0,1.079295063E1,1.240950108E0,1.126667503E1
2.941226909E0,-3.022950172E0,1.075500011E1,1.510050058E0,1.127335382E1
2.943186777E0,-2.985000134E0,1.075500011E1,1.701000094E0,1.129042314E1
2.945146799E0,-2.946000099E0,1.063995075E1,1.816050053E0,1.118863291E1
2.947106775E0,-2.946000099E0,1.060095024E1,2.085000038E0,1.119849489E1
2.949066600E0,-2.985000134E0,1.056300068E1,2.238000154E0,1.120249320E1
2.951026469E0,-3.022950172E0,1.048605061E1,2.467950106E0,1.118866671E1
2.952986142E0,-2.985000134E0,1.037100029E1,2.583000183E0,1.109683571E1
2.954945897E0,-2.946000099E0,1.033305073E1,2.773950100E0,1.109710111E1
2.956905578E0,-2.946000099E0,1.025595093E1,2.965950251E0,1.107521137E1
2.958865281E0,-2.869950056E0,1.018005085E1,3.081000090E0,1.101646995E1
2.960825106E0,-2.869950056E0,1.010295010E1,3.273000240E0,1.100085199E1
2.962784895E0,-2.793000221E0,1.002600002E1,3.426000118E0,1.095714395E1
2.964744579E0,-2.716050148E0,9.988050461E0,3.541050196E0,1.093970369E1
2.966704320E0,-2.677950144E0,9.873000145E0,3.618000269E0,1.085069006E1
2.968664004E0,-2.563050032E0,9.835050583E0,3.771000147E0,1.084056675E1
2.970623705E0,-2.448000193E0,9.720000267E0,3.886050224E0,1.075046494E1
2.972583350E0,-2.371050119E0,9.681000710E0,4.000950336E0,1.074017025E1
2.974543012E0,-2.295000076E0,9.604950905E0,4.116000175E0,1.069876463E1
2.976502709E0,-2.179949999E0,9.451050758E0,4.308000088E0,1.061288873E1
2.978462395E0,-2.065050125E0,9.336000443E0,4.345950127E0,1.050298142E1
2.980422269E0,-1.950000048E0,9.298050880E0,4.461000443E0,1.049555979E1
2.982382087E0,-1.873050094E0,9.220950127E0,4.576050282E0,1.046300502E1
2.984341938E0,-1.681950092E0,9.106050491E0,4.653000355E0,1.036337416E1
2.986301780E0,-1.605000019E0,9.030000687E0,4.729050159E0,1.031895600E1
2.988261691E0,-1.413000107E0,8.914950371E0,4.729050159E0,1.019003557E1
2.990221568E0,-1.297950029E0,8.800050735E0,4.729050159E0,1.007419886E1
2.992181410E0,-1.144950032E0,8.761950493E0,4.729050159E0,1.002230525E1
2.994141262E0,-9.529500604E-1,8.722949982E0,4.690950394E0,9.950024412E0
2.996100927E0,-7.999500632E-1,8.647050858E0,4.690950394E0,9.869975898E0
2.998060647E0,-6.469500065E-1,8.608050346E0,4.653000355E0,9.806502301E0
3.000020468E0,-5.700000525E-1,8.532000542E0,4.729050159E0,9.771583736E0
3.001980260E0,-4.170000255E-1,8.532000542E0,4.806000233E0,9.801355034E0
3.003940116E0,-3.019500077E-1,8.455050468E0,4.806000233E0,9.730194781E0
3.005899953E0,-1.480500102E-1,8.340000153E0,4.806000233E0,9.626793837E0
3.007859846E0,4.050000105E-3,8.302050591E0,4.806000233E0,9.592794100E0
3.009819722E0,1.960500032E-1,8.263050079E0,4.806000233E0,9.561070571E0
3.011779874E0,4.200000316E-2,8.071949959E0,4.690950394E0,9.336121022E0
3.013739948E0,8.100000024E-2,8.187000275E0,4.614000320E0,9.398006887E0
3.015700881E0,3.490500152E-1,8.148000717E0,4.729050159E0,9.427389194E0
3.017661563E0,6.169500351E-1,8.071949959E0,4.729050159E0,9.375548992E0
3.019621627E0,8.850000501E-1,8.071949959E0,4.653000355E0,9.358953656E0
3.021581873E0,1.000050068E0,8.032950401E0,4.729050159E0,9.375089744E0
3.023541966E0,1.192050099E0,8.032950401E0,4.729050159E0,9.397509830E0
3.025502104E0,1.345050097E0,7.995000362E0,4.768050194E0,9.405503347E0
3.027462304E0,1.459950089E0,7.995000362E0,4.653000355E0,9.364929117E0
3.029422486E0,1.690050125E0,7.918050289E0,4.576050282E0,9.300108923E0
3.031382411E0,1.804950118E0,7.803000450E0,4.537950039E0,9.205305617E0
3.033342411E0,2.035050154E0,7.842000484E0,4.498950005E0,9.267089720E0
3.035302455E0,2.111999989E0,7.842000484E0,4.308000088E0,9.193279083E0
3.037262486E0,2.188950062E0,7.879950523E0,4.153950214E0,9.172809003E0
3.039222616E0,2.304000139E0,7.918050289E0,3.963000298E0,9.149279118E0
3.041182717E0,2.341950178E0,7.918050289E0,3.847950220E0,9.109718542E0
3.043142701E0,2.380050182E0,7.918050289E0,3.618000269E0,9.024970094E0
3.045102719E0,2.419050217E0,7.995000362E0,3.426000118E0,9.028250747E0
3.047063109E0,2.419050217E0,8.032950401E0,3.234000206E0,8.991042956E0
3.049023271E0,2.419050217E0,8.148000717E0,2.965950251E0,9.002143107E0
3.050983244E0,2.457000017E0,8.148000717E0,2.698050022E0,8.927835051E0
3.052943273E0,2.457000017E0,8.224950790E0,2.545050144E0,8.953432014E0
3.054903447E0,2.457000017E0,8.263050079E0,2.275950193E0,8.915985362E0
3.056863578E0,2.419050217E0,8.377950668E0,1.969950080E0,8.939942095E0
3.058823861E0,2.341950178E0,8.416950226E0,1.893000126E0,8.939420072E0
3.060784107E0,2.304000139E0,8.569950104E0,1.740000129E0,9.043232932E0
3.062744425E0,2.111999989E0,8.685000420E0,1.663050056E0,9.091507671E0
3.064704722E0,1.959000111E0,8.800050735E0,1.585950017E0,9.153895992E0
3.066664537E0,1.690050125E0,8.991000175E0,1.548000097E0,9.278505153E0
3.068624493E0,1.537050128E0,9.183000565E0,1.585950017E0,9.444853621E0
3.070584307E0,1.306950092E0,9.412950516E0,1.585950017E0,9.634676612E0
3.072544172E0,1.230000019E0,9.643050194E0,1.663050056E0,9.862406024E0
3.074504509E0,9.240000248E-1,9.873000145E0,1.663050056E0,1.005463293E1
3.076464708E0,7.320000529E-1,9.873000145E0,1.432950020E0,1.000326455E1
3.078423774E0,6.169500351E-1,9.451050758E0,6.660000086E-1,9.494553375E0
3.080383172E0,1.570500135E-1,9.720000267E0,1.087950110E0,9.781958155E0
3.082343643E0,-1.099500060E-1,1.006500053E1,1.701000094E0,1.020831652E1
3.084303794E0,-3.019500077E-1,1.021800041E1,2.238000154E0,1.046457600E1
3.086263769E0,-4.549500346E-1,1.037100029E1,2.545050144E0,1.068840057E1
3.088223796E0,-7.230000496E-1,1.048605061E1,2.698050022E0,1.085170311E1
3.090183971E0,-8.380500674E-1,1.071600056E1,2.812950134E0,1.111070134E1
3.092144102E0,-9.529500604E-1,1.083105087E1,2.812950134E0,1.123087108E1
3.094104112E0,-1.183050036E0,1.098495007E1,2.659050226E0,1.136394665E1
3.096064167E0,-1.375050068E0,1.113795090E1,2.545050144E0,1.150747553E1
3.098024157E0,-1.605000019E0,1.132905006E1,2.430000067E0,1.169736298E1
3.099984167E0,-1.758000135E0,1.144395065E1,2.200050116E0,1.178536345E1
3.101944120E0,-1.911000133E0,1.163595009E1,2.238000154E0,1.200232897E1
3.103904090E0,-2.218050003E0,1.190400028E1,2.275950193E0,1.232091384E1
3.105863750E0,-2.410050154E0,1.213395023E1,2.275950193E0,1.257859449E1
3.107823522E0,-2.640000105E0,1.224900055E1,2.275950193E0,1.273528815E1
3.109783695E0,-2.869950056E0,1.240305042E1,2.122950077E0,1.290655609E1
3.111743751E0,-3.061050177E0,1.251795101E1,2.046000004E0,1.304818921E1
3.113703607E0,-3.330000162E0,1.259400082E1,1.930950046E0,1.316914294E1
3.115663522E0,-3.559950113E0,1.267095089E1,1.816050053E0,1.328624398E1
3.117623677E0,-3.712950230E0,1.278600025E1,1.740000129E0,1.342741235E1
3.119583789E0,-3.943050146E0,1.290105057E1,1.701000094E0,1.359699053E1
3.121543905E0,-4.173000336E0,1.297800064E1,1.585950017E0,1.372434588E1
3.123504020E0,-4.363950253E0,1.301595020E1,1.510050058E0,1.381083896E1
3.125464181E0,-4.479000092E0,1.297800064E1,1.395000100E0,1.379985390E1
3.127424328E0,-4.555950165E0,1.293900108E1,1.165050030E0,1.376705388E1
3.129384150E0,-4.633050442E0,1.282395077E1,1.087950110E0,1.367854178E1
3.131344080E0,-4.708950043E0,1.270905018E1,9.730500579E-1,1.358826675E1
3.133304046E0,-4.786050320E0,1.255605030E1,1.087950110E0,1.348125781E1
3.135264001E0,-4.747950077E0,1.236405087E1,1.165050030E0,1.329549267E1
3.137223874E0,-4.555950165E0,1.209600067E1,8.580000401E-1,1.295399854E1
3.139183772E0,-4.363950253E0,1.182795048E1,5.899500251E-1,1.262111387E1
3.141143974E0,-4.210950375E0,1.159800053E1,4.750500321E-1,1.234793067E1
3.143104083E0,-4.134000301E0,1.136805058E1,5.509500504E-1,1.210892556E1
3.145064065E0,-4.134000301E0,1.113795090E1,7.810500264E-1,1.190604669E1
3.147024085E0,-4.210950375E0,1.087005043E1,8.580000401E-1,1.168872377E1
3.148983856E0,-4.249050140E0,1.067805004E1,7.429500222E-1,1.151638635E1
3.150943700E0,-4.173000336E0,1.048605061E1,6.280500293E-1,1.130334623E1
3.152903764E0,-4.134000301E0,1.033305073E1,5.509500504E-1,1.114295481E1
3.154863736E0,-4.134000301E0,1.010295010E1,5.130000114E-1,1.092807065E1
3.156823741E0,-4.057950020E0,9.949950218E0,4.750500321E-1,1.075612106E1
3.158783736E0,-4.018949986E0,9.873000145E0,5.130000114E-1,1.067198481E1
3.160743558E0,-3.943050146E0,9.796050072E0,5.509500504E-1,1.057420387E1
3.162703431E0,-3.981000185E0,9.835050583E0,5.509500504E-1,1.062450603E1
3.164663516E0,-3.981000185E0,9.796050072E0,5.509500504E-1,1.058841374E1
3.166623525E0,-3.943050146E0,9.720000267E0,4.750500321E-1,1.050008201E1
3.168583884E0,-3.790050268E0,9.643050194E0,4.360500276E-1,1.037029593E1
3.170544140E0,-3.712950230E0,9.565950394E0,4.750500321E-1,1.027224800E1
3.172504232E0,-3.712950230E0,9.490050316E0,3.979500234E-1,1.019830469E1
3.174464373E0,-3.559950113E0,9.451050758E0,3.979500234E-1,1.010712469E1
3.176424554E0,-3.520950079E0,9.375000000E0,3.979500234E-1,1.002227912E1
3.178384736E0,-3.406050205E0,9.298050880E0,4.360500276E-1,9.911865001E0
3.180344706E0,-3.406050205E0,9.183000565E0,3.979500234E-1,9.802399787E0
3.182304738E0,-3.291000128E0,9.067950249E0,3.979500234E-1,9.654883105E0
3.184264867E0,-3.253050089E0,9.030000687E0,3.220500052E-1,9.603487048E0
3.186224967E0,-3.175950050E0,8.877000809E0,3.220500052E-1,9.433531591E0
3.188184951E0,-3.061050177E0,8.838000298E0,2.830500007E-1,9.357371145E0
3.190144969E0,-2.908050060E0,8.761950493E0,5.130000114E-1,9.246172214E0
3.192104966E0,-2.869950056E0,8.761950493E0,5.509500504E-1,9.236446055E0
3.194064969E0,-2.830950022E0,8.647050858E0,5.130000114E-1,9.113118872E0
3.196025734E0,-2.716050148E0,8.532000542E0,3.220500052E-1,8.959669517E0
3.197986275E0,-2.640000105E0,8.416950226E0,2.830500007E-1,8.825801321E0
3.199946359E0,-2.601000071E0,8.302050591E0,2.449500114E-1,8.703404270E0
3.201906580E0,-2.524950027E0,8.263050079E0,1.300500035E-1,8.641196807E0
3.203866722E0,-2.371050119E0,8.187000275E0,1.680000126E-1,8.525085112E0
3.205826887E0,-2.371050119E0,8.148000717E0,1.680000126E-1,8.487639151E0
3.207786813E0,-2.295000076E0,8.071949959E0,2.070000172E-1,8.394417817E0
3.209746810E0,-2.179949999E0,7.995000362E0,1.680000126E-1,8.288572663E0
3.211706855E0,-2.140950203E0,7.879950523E0,1.300500035E-1,8.166651763E0
3.213666885E0,-2.103000164E0,7.803000450E0,9.195000678E-2,8.081947817E0
3.215627196E0,-2.065050125E0,7.803000450E0,1.300500035E-1,8.072679917E0
3.217587424E0,-1.987950087E0,7.726950169E0,1.300500035E-1,7.979637677E0
3.219547431E0,-2.026050091E0,7.765050411E0,1.300500035E-1,8.026070014E0
3.221507503E0,-1.987950087E0,7.687950134E0,1.300500035E-1,7.941878608E0
3.223467445E0,-1.987950087E0,7.650000572E0,1.300500035E-1,7.905148152E0
3.225427426E0,-1.911000133E0,7.612050533E0,2.070000172E-1,7.850992538E0
3.227387608E0,-1.950000048E0,7.612050533E0,2.070000172E-1,7.860576475E0
3.229347731E0,-1.873050094E0,7.612050533E0,2.449500114E-1,7.842935068E0
3.231307711E0,-1.911000133E0,7.612050533E0,2.070000172E-1,7.850992538E0
3.233267733E0,-1.834950089E0,7.573050499E0,2.070000172E-1,7.794933271E0
3.235227544E0,-1.834950089E0,7.573050499E0,2.070000172E-1,7.794933271E0
3.237187421E0,-1.911000133E0,7.612050533E0,2.070000172E-1,7.850992538E0
3.239146586E0,-1.834950089E0,7.650000572E0,2.449500114E-1,7.870803713E0
3.241105959E0,-1.758000135E0,7.650000572E0,3.220500052E-1,7.856003401E0
3.243066381E0,-1.720050097E0,7.687950134E0,2.449500114E-1,7.881824034E0
3.245026496E0,-1.681950092E0,7.687950134E0,2.070000172E-1,7.872508011E0
3.246986302E0,-1.681950092E0,7.687950134E0,9.195000678E-2,7.870323258E0
3.248946195E0,-1.720050097E0,7.726950169E0,-2.205000073E-2,7.916111258E0
3.250906212E0,-1.758000135E0,7.842000484E0,-2.205000073E-2,8.036667361E0
3.252866193E0,-1.758000135E0,7.918050289E0,-6.105000153E-2,8.111091909E0
3.254826196E0,-1.758000135E0,7.879950523E0,-1.759500057E-1,8.075589336E0
3.256786193E0,-1.758000135E0,7.918050289E0,-2.520000041E-1,8.114775959E0
3.258746213E0,-1.758000135E0,8.032950401E0,-2.140500098E-1,8.225854000E0
3.260706212E0,-1.642950058E0,7.995000362E0,-2.140500098E-1,8.164871897E0
3.262665898E0,-1.642950058E0,8.071949959E0,-2.910000086E-1,8.242593162E0
3.264625676E0,-1.681950092E0,8.110050201E0,-2.910000086E-1,8.287734997E0
3.266585353E0,-1.642950058E0,8.148000717E0,-2.140500098E-1,8.314747019E0
3.268545060E0,-1.642950058E0,8.148000717E0,-2.140500098E-1,8.314747019E0
3.270505104E0,-1.605000019E0,8.187000275E0,-2.140500098E-1,8.345586616E0
3.272465053E0,-1.528050065E0,8.263050079E0,-1.369500011E-1,8.404266114E0
3.274424703E0,-1.528050065E0,8.263050079E0,-1.369500011E-1,8.404266114E0
3.276384440E0,-1.489950061E0,8.263050079E0,-9.900000691E-2,8.396889233E0
3.278344439E0,-1.489950061E0,8.302050591E0,-1.369500011E-1,8.435801710E0
3.280304361E0,-1.452000022E0,8.302050591E0,-6.105000153E-2,8.428290169E0
3.282264389E0,-1.413000107E0,8.302050591E0,-2.205000073E-2,8.421466589E0
3.284224376E0,-1.413000107E0,8.340000153E0,-9.900000691E-2,8.459431000E0
3.286184199E0,-1.336950064E0,8.263050079E0,-9.900000691E-2,8.371095095E0
