"Time (s)","Acceleration x (m/s^2)","Acceleration y (m/s^2)","Acceleration z (m/s^2)","Absolute acceleration (m/s^2)"
3.483852200E-2,2.719500065E-1,9.067950249E0,5.899500251E-1,9.091189116E0
3.679778000E-2,3.109500110E-1,9.145050049E0,5.899500251E-1,9.169333200E0
3.875982900E-2,4.260000288E-1,9.220950127E0,5.509500504E-1,9.247212727E0
4.072019800E-2,4.639500082E-1,9.220950127E0,5.899500251E-1,9.251443773E0
4.268106000E-2,4.260000288E-1,9.298050880E0,5.509500504E-1,9.324096319E0
4.464178200E-2,5.020500422E-1,9.336000443E0,7.050000429E-1,9.376032400E0
4.660253600E-2,4.260000288E-1,9.375000000E0,6.660000086E-1,9.408275986E0
4.856335200E-2,4.639500082E-1,9.451050758E0,6.280500293E-1,9.483251388E0
5.052414900E-2,5.020500422E-1,9.451050758E0,6.280500293E-1,9.485191697E0
5.248487000E-2,4.639500082E-1,9.490050316E0,6.660000086E-1,9.524697403E0
5.444561300E-2,4.639500082E-1,9.490050316E0,6.660000086E-1,9.524697403E0
5.640734500E-2,5.020500422E-1,9.528000832E0,5.899500251E-1,9.559440105E0
5.836877800E-2,9.240000248E-1,9.183000565E0,6.280500293E-1,9.250714689E0
6.032866900E-2,6.940500140E-1,9.412950516E0,7.050000429E-1,9.464796242E0
6.228901100E-2,5.020500422E-1,9.604950905E0,6.660000086E-1,9.641093929E0
6.425057300E-2,5.410500169E-1,9.528000832E0,5.899500251E-1,9.561567654E0
6.621177800E-2,7.320000529E-1,9.604950905E0,5.509500504E-1,9.648546622E0
6.817249300E-2,7.320000529E-1,9.643050194E0,6.660000086E-1,9.693698836E0
7.013333800E-2,6.940500140E-1,9.681000710E0,5.899500251E-1,9.723760651E0
7.209431800E-2,8.089500666E-1,9.681000710E0,5.899500251E-1,9.732636641E0
7.405525900E-2,8.470500112E-1,9.681000710E0,5.509500504E-1,9.733592061E0
7.601635900E-2,8.089500666E-1,9.720000267E0,4.750500321E-1,9.765166559E0
7.797741300E-2,8.850000501E-1,9.720000267E0,4.360500276E-1,9.769942165E0
7.993845000E-2,9.240000248E-1,9.681000710E0,5.130000114E-1,9.738517330E0
8.189949200E-2,9.619500637E-1,9.720000267E0,5.899500251E-1,9.785284572E0
8.386044000E-2,1.000050068E0,9.681000710E0,4.750500321E-1,9.744103212E0
8.582141500E-2,1.000050068E0,9.643050194E0,3.979500234E-1,9.702931588E0
8.778246300E-2,1.000050068E0,9.643050194E0,3.979500234E-1,9.702931588E0
8.974349000E-2,1.039050102E0,9.681000710E0,5.509500504E-1,9.752176465E0
9.170426100E-2,1.077000022E0,9.604950905E0,4.750500321E-1,9.676811637E0
9.366510700E-2,1.039050102E0,9.604950905E0,3.600000143E-1,9.667693986E0
9.562617700E-2,1.114950061E0,9.528000832E0,3.600000143E-1,9.599766325E0
9.758718200E-2,1.077000022E0,9.451050758E0,3.979500234E-1,9.520538520E0
9.954809200E-2,1.077000022E0,9.604950905E0,5.509500504E-1,9.680834514E0
1.015090300E-1,1.039050102E0,9.490050316E0,5.130000114E-1,9.560536027E0
1.034699890E-1,1.039050102E0,9.451050758E0,3.979500234E-1,9.516320180E0
1.054309460E-1,1.000050068E0,9.451050758E0,3.979500234E-1,9.512140916E0
1.073919990E-1,1.039050102E0,9.451050758E0,4.750500321E-1,9.519855991E0
1.093530230E-1,9.619500637E-1,9.336000443E0,3.979500234E-1,9.393860570E0
1.113136150E-1,8.850000501E-1,9.298050880E0,3.220500052E-1,9.345624188E0
1.132743330E-1,9.619500637E-1,9.298050880E0,4.360500276E-1,9.357843647E0
1.152353670E-1,8.470500112E-1,9.298050880E0,3.979500234E-1,9.345031199E0
1.171962540E-1,7.699500322E-1,9.259950638E0,4.750500321E-1,9.304041133E0
1.191571830E-1,8.089500666E-1,9.259950638E0,5.130000114E-1,9.309363836E0
1.211181000E-1,6.940500140E-1,9.298050880E0,5.130000114E-1,9.338020380E0
1.230790240E-1,7.320000529E-1,9.259950638E0,6.280500293E-1,9.310046011E0
1.250399460E-1,8.089500666E-1,9.259950638E0,5.899500251E-1,9.313921143E0
1.270010640E-1,6.550500393E-1,9.259950638E0,6.660000086E-1,9.306950756E0
1.289621140E-1,6.550500393E-1,9.298050880E0,7.050000429E-1,9.347719818E0
1.309233760E-1,7.320000529E-1,9.336000443E0,7.050000429E-1,9.391152932E0
1.328845760E-1,6.940500140E-1,9.336000443E0,7.429500222E-1,9.391197177E0
1.348459470E-1,6.550500393E-1,9.336000443E0,7.429500222E-1,9.388395473E0
1.368072680E-1,6.550500393E-1,9.375000000E0,7.050000429E-1,9.424263399E0
1.387675970E-1,6.169500351E-1,9.375000000E0,8.200500607E-1,9.430998592E0
1.407282070E-1,5.410500169E-1,9.490050316E0,8.200500607E-1,9.540768953E0
1.426899040E-1,5.020500422E-1,9.565950394E0,8.200500607E-1,9.614153279E0
1.446512820E-1,5.790000558E-1,9.604950905E0,8.959500194E-1,9.664007936E0
1.466121280E-1,5.020500422E-1,9.643050194E0,8.580000401E-1,9.694154700E0
1.485731300E-1,5.790000558E-1,9.720000267E0,8.580000401E-1,9.774958329E0
1.505340450E-1,6.169500351E-1,9.757950783E0,8.200500607E-1,9.811764007E0
1.524949820E-1,5.790000558E-1,9.796050072E0,9.349500537E-1,9.857584373E0
1.544557220E-1,5.790000558E-1,9.873000145E0,8.959500194E-1,9.930463200E0
1.564165200E-1,6.169500351E-1,9.949950218E0,9.349500537E-1,1.001280522E1
1.583776440E-1,6.550500393E-1,9.949950218E0,1.087950110E0,1.003066475E1
1.603386720E-1,6.169500351E-1,1.002600002E1,9.349500537E-1,1.008838121E1
1.622992130E-1,5.020500422E-1,1.018005085E1,1.087950110E0,1.025032317E1
1.642599000E-1,5.410500169E-1,1.025595093E1,1.087950110E0,1.032767641E1
1.662208620E-1,5.410500169E-1,1.037100029E1,1.165050030E0,1.045024994E1
1.681817440E-1,5.410500169E-1,1.033305073E1,1.203000069E0,1.041690365E1
1.701427190E-1,5.410500169E-1,1.048605061E1,1.240950108E0,1.057307664E1
1.721036670E-1,5.410500169E-1,1.056300068E1,1.240950108E0,1.064939790E1
1.740653310E-1,5.790000558E-1,1.060095024E1,1.203000069E0,1.068468981E1
1.760267680E-1,5.790000558E-1,1.063995075E1,1.203000069E0,1.072338576E1
1.779877840E-1,5.790000558E-1,1.067805004E1,1.318050027E0,1.077465775E1
1.799489240E-1,5.790000558E-1,1.079295063E1,1.356000066E0,1.089319790E1
1.819099450E-1,5.020500422E-1,1.087005043E1,1.356000066E0,1.096580078E1
1.838710010E-1,5.790000558E-1,1.090800095E1,1.395000100E0,1.101207296E1
1.858309950E-1,5.410500169E-1,1.094595051E1,1.432950020E0,1.105259759E1
1.877913030E-1,4.639500082E-1,1.106100082E1,1.471050024E0,1.116803371E1
1.897525110E-1,5.020500422E-1,1.106100082E1,1.395000100E0,1.115992019E1
1.917134550E-1,5.410500169E-1,1.102305031E1,1.318050027E0,1.111474827E1
1.936751410E-1,5.410500169E-1,1.102305031E1,1.356000066E0,1.111931245E1
1.956366090E-1,5.790000558E-1,1.110000038E1,1.356000066E0,1.119749908E1
1.975979260E-1,5.790000558E-1,1.110000038E1,1.395000100E0,1.120228882E1
1.995592940E-1,5.790000558E-1,1.106100082E1,1.356000066E0,1.115884028E1
2.015205010E-1,6.550500393E-1,1.102305031E1,1.356000066E0,1.112544223E1
2.034817560E-1,6.169500351E-1,1.106100082E1,1.318050027E0,1.115632657E1
2.054426220E-1,5.790000558E-1,1.106100082E1,1.318050027E0,1.115429228E1
2.074036020E-1,6.169500351E-1,1.106100082E1,1.279950023E0,1.115188946E1
2.093645210E-1,6.940500140E-1,1.110000038E1,1.279950023E0,1.119508758E1
2.113254860E-1,6.940500140E-1,1.102305031E1,1.240950108E0,1.111437361E1
2.132863570E-1,7.699500322E-1,1.098495007E1,1.279950023E0,1.108603730E1
2.152472550E-1,8.089500666E-1,1.098495007E1,1.240950108E0,1.108438024E1
2.172080470E-1,8.850000501E-1,1.090800095E1,1.165050030E0,1.100568268E1
2.191688710E-1,9.240000248E-1,1.090800095E1,1.240950108E0,1.101717831E1
2.211303100E-1,9.619500637E-1,1.087005043E1,1.165050030E0,1.097454718E1
2.230915660E-1,1.000050068E0,1.087005043E1,1.126049995E0,1.097388195E1
2.250524780E-1,1.077000022E0,1.079295063E1,1.087950110E0,1.090097921E1
2.270134910E-1,1.077000022E0,1.075500011E1,1.050000072E0,1.085967111E1
2.289743980E-1,1.114950061E0,1.075500011E1,1.050000072E0,1.086350041E1
2.309353370E-1,1.192050099E0,1.071600056E1,1.011000037E0,1.082939391E1
2.328962710E-1,1.230000019E0,1.071600056E1,9.730500579E-1,1.083016133E1
2.348571970E-1,1.306950092E0,1.071600056E1,9.730500579E-1,1.083917030E1
2.368178940E-1,1.269000053E0,1.071600056E1,8.200500607E-1,1.082199202E1
2.387786590E-1,1.269000053E0,1.071600056E1,7.050000429E-1,1.081388247E1
2.407394730E-1,1.306950092E0,1.067805004E1,7.050000429E-1,1.078081149E1
2.427002720E-1,1.306950092E0,1.067805004E1,7.429500222E-1,1.078335968E1
2.446610090E-1,1.345050097E0,1.067805004E1,7.429500222E-1,1.078804371E1
2.466217840E-1,1.384050012E0,1.075500011E1,7.050000429E-1,1.086658396E1
2.485828670E-1,1.384050012E0,1.079295063E1,5.899500251E-1,1.089731246E1
2.505438590E-1,1.384050012E0,1.083105087E1,6.280500293E-1,1.093717076E1
2.525045910E-1,1.345050097E0,1.090800095E1,3.979500234E-1,1.099781836E1
2.544653990E-1,1.384050012E0,1.102305031E1,4.750500321E-1,1.111975292E1
2.564263220E-1,1.345050097E0,1.106100082E1,6.660000086E-1,1.116236780E1
2.583872240E-1,1.345050097E0,1.106100082E1,7.429500222E-1,1.116722319E1
2.603479720E-1,1.306950092E0,1.110000038E1,7.050000429E-1,1.119889066E1
2.623087650E-1,1.306950092E0,1.113795090E1,8.200500607E-1,1.124431193E1
2.642692150E-1,1.269000053E0,1.117605019E1,7.429500222E-1,1.127237480E1
2.662297650E-1,1.230000019E0,1.117605019E1,8.200500607E-1,1.127339700E1
2.681908860E-1,1.114950061E0,1.113795090E1,8.959500194E-1,1.122941629E1
2.701518400E-1,1.077000022E0,1.117605019E1,9.349500537E-1,1.126668356E1
2.721125780E-1,1.000050068E0,1.117605019E1,9.730500579E-1,1.126281600E1
2.740733800E-1,9.240000248E-1,1.121400070E1,1.087950110E0,1.130447802E1
2.760338280E-1,9.240000248E-1,1.117605019E1,1.126049995E0,1.127057507E1
2.779943800E-1,8.850000501E-1,1.117605019E1,1.126049995E0,1.126744476E1
2.799553020E-1,7.699500322E-1,1.117605019E1,1.165050030E0,1.126295975E1
2.819161290E-1,6.940500140E-1,1.117605019E1,1.087950110E0,1.125030838E1
2.838768890E-1,5.790000558E-1,1.121400070E1,1.011000037E0,1.127435913E1
2.858376690E-1,5.790000558E-1,1.121400070E1,1.203000069E0,1.129319538E1
2.877975800E-1,4.639500082E-1,1.113795090E1,1.356000066E0,1.122977898E1
2.897577460E-1,2.719500065E-1,1.113795090E1,1.395000100E0,1.122826488E1
2.917186220E-1,2.340000123E-1,1.113795090E1,1.395000100E0,1.122740983E1
2.936792870E-1,1.189500093E-1,1.110000038E1,1.432950020E0,1.119274333E1
2.956398950E-1,4.050000105E-3,1.106100082E1,1.395000100E0,1.114862238E1
2.976005200E-1,-3.299999982E-2,1.110000038E1,1.395000100E0,1.118736442E1
2.995614480E-1,-7.200000435E-2,1.106100082E1,1.395000100E0,1.114885413E1
3.015222870E-1,-1.480500102E-1,1.102305031E1,1.471050024E0,1.112175998E1
3.034829100E-1,-1.480500102E-1,1.094595051E1,1.471050024E0,1.104534923E1
3.054435970E-1,-2.629500031E-1,1.090800095E1,1.471050024E0,1.100988717E1
3.074043800E-1,-2.629500031E-1,1.087005043E1,1.471050024E0,1.097228906E1
3.093651340E-1,-2.629500031E-1,1.083105087E1,1.510050058E0,1.093896964E1
3.113260860E-1,-2.629500031E-1,1.083105087E1,1.548000097E0,1.094427293E1
3.132869800E-1,-2.250000089E-1,1.079295063E1,1.585950017E0,1.091117069E1
3.152475490E-1,-1.480500102E-1,1.079295063E1,1.777950048E0,1.093941536E1
3.172082130E-1,-1.099500060E-1,1.071600056E1,1.777950048E0,1.086305037E1
3.191689540E-1,-7.200000435E-2,1.071600056E1,1.855050087E0,1.087561781E1
3.211296720E-1,-3.299999982E-2,1.060095024E1,1.855050087E0,1.076208371E1
3.230906300E-1,4.050000105E-3,1.056300068E1,2.046000004E0,1.075932692E1
3.250515180E-1,8.100000024E-2,1.048605061E1,2.275950193E0,1.073050640E1
3.270123270E-1,1.960500032E-1,1.041000080E1,2.391000032E0,1.068285699E1
3.289731500E-1,1.960500032E-1,1.037100029E1,2.506050110E0,1.067128717E1
3.309342690E-1,3.109500110E-1,1.029495049E1,2.620950222E0,1.062789139E1
3.328953020E-1,2.719500065E-1,1.018005085E1,2.659050226E0,1.052510999E1
3.348562070E-1,-1.870500147E-1,1.006500053E1,2.545050144E0,1.038347262E1
3.368171500E-1,5.410500169E-1,1.014105034E1,2.812950134E0,1.053785204E1
3.387787900E-1,9.619500637E-1,9.988050461E0,2.965950251E0,1.046342969E1
3.407402250E-1,1.153950095E0,9.949950218E0,3.118950129E0,1.049099424E1
3.427008810E-1,1.306950092E0,9.910950661E0,3.196050167E0,1.049522740E1
3.446617650E-1,1.384050012E0,9.835050583E0,3.234000206E0,1.044521765E1
3.466224700E-1,1.498950124E0,9.835050583E0,3.273000240E0,1.047318490E1
3.485832270E-1,1.651950121E0,9.757950783E0,3.273000240E0,1.042396629E1
3.505440020E-1,1.843950033E0,9.681000710E0,3.349050045E0,1.040855718E1
3.525047680E-1,1.996950150E0,9.643050194E0,3.388050079E0,1.041417833E1
3.544657180E-1,2.265000105E0,9.604950905E0,3.426000118E0,1.044618515E1
3.564266140E-1,2.457000017E0,9.451050758E0,3.463950157E0,1.036137830E1
3.583875420E-1,2.725050211E0,9.412950516E0,3.502950191E0,1.040673801E1
3.603484600E-1,2.839950085E0,9.336000443E0,3.463950157E0,1.035495878E1
3.623092310E-1,3.147000074E0,9.220950127E0,3.463950157E0,1.034062287E1
3.642700590E-1,3.415050268E0,9.183000565E0,3.388050079E0,1.036672325E1
3.662311780E-1,3.529950142E0,9.067950249E0,3.310950041E0,1.027865068E1
3.681922110E-1,3.760050297E0,8.877000809E0,3.310950041E0,1.019320910E1
3.701534300E-1,3.798000097E0,8.838000298E0,3.310950041E0,1.017336936E1
3.721145950E-1,3.721950293E0,8.877000809E0,3.310950041E0,1.017921645E1
3.740757220E-1,3.952050209E0,8.722949982E0,3.349050045E0,1.014518080E1
3.760368470E-1,4.297049999E0,8.608050346E0,3.388050079E0,1.020010063E1
3.779979160E-1,4.411950111E0,8.569950104E0,3.388050079E0,1.021705593E1
3.799590010E-1,4.488000393E0,8.532000542E0,3.426000118E0,1.023106337E1
3.819198960E-1,4.488000393E0,8.416950226E0,3.234000206E0,1.007203832E1
3.838808470E-1,4.680000305E0,8.224950790E0,2.965950251E0,9.917110428E0
3.858415700E-1,4.872000217E0,8.263050079E0,2.965950251E0,1.004048025E1
3.878023710E-1,4.987050056E0,8.110050201E0,2.928000212E0,9.960761405E0
3.897634490E-1,5.215950012E0,7.957050323E0,2.928000212E0,9.954595402E0
3.917244460E-1,5.178000450E0,7.918050289E0,2.812950134E0,9.870151848E0
3.936853570E-1,5.331000328E0,7.803000450E0,2.659050226E0,9.817175186E0
3.956462940E-1,5.407950401E0,7.765050411E0,2.583000183E0,9.808864632E0
3.976074040E-1,5.485050201E0,7.650000572E0,2.430000067E0,9.721789176E0
3.995684560E-1,5.599950314E0,7.573050499E0,2.391000032E0,9.717377142E0
4.015294030E-1,5.599950314E0,7.534950256E0,2.161050081E0,9.633538100E0
4.034903810E-1,5.715000153E0,7.458000183E0,1.969950080E0,9.600192539E0
4.054512490E-1,5.715000153E0,7.458000183E0,1.855050087E0,9.577275411E0
4.074121500E-1,5.715000153E0,7.458000183E0,1.663050056E0,9.541945764E0
4.093734260E-1,5.830050468E0,7.420050144E0,1.585950017E0,9.568796688E0
4.113345990E-1,5.791050434E0,7.534950256E0,1.510050058E0,9.622473262E0
4.132957060E-1,5.676000118E0,7.497000217E0,1.432950020E0,9.511852362E0
4.152568320E-1,5.638050079E0,7.650000572E0,1.471050024E0,9.616345752E0
4.172177200E-1,5.560950279E0,7.687950134E0,1.318050027E0,9.579457247E0
4.191786780E-1,5.407950401E0,7.842000484E0,1.279950023E0,9.611512431E0
4.211398960E-1,5.331000328E0,7.957050323E0,1.165050030E0,9.648396547E0
4.231010470E-1,5.178000450E0,8.071949959E0,1.087950110E0,9.651512847E0
4.250617970E-1,4.450050354E0,8.302050591E0,2.449500114E-1,9.422685003E0
4.270226640E-1,4.909950256E0,8.263050079E0,4.360500276E-1,9.621629164E0
4.289835510E-1,4.756950378E0,8.302050591E0,7.050000429E-1,9.594250673E0
4.309444320E-1,4.756950378E0,8.377950668E0,8.959500194E-1,9.675813182E0
4.329053670E-1,4.603050232E0,8.532000542E0,1.087950110E0,9.755344183E0
4.348662830E-1,4.450050354E0,8.647050858E0,1.087950110E0,9.785605353E0
4.368268480E-1,4.258049965E0,8.800050735E0,1.165050030E0,9.845264040E0
4.387875160E-1,4.066950321E0,8.991000175E0,1.240950108E0,9.945759209E0
4.407483460E-1,3.798000097E0,9.145050049E0,1.126049995E0,9.966179495E0
4.427091290E-1,3.607050180E0,9.298050880E0,1.011000037E0,1.002430458E1
4.446699300E-1,3.453000069E0,9.375000000E0,1.011000037E0,1.004171079E1
4.466307020E-1,3.262050152E0,9.451050758E0,9.730500579E-1,1.004540482E1
4.485912910E-1,2.992950201E0,9.490050316E0,7.429500222E-1,9.978515954E0
4.505519330E-1,2.802000046E0,9.528000832E0,5.130000114E-1,9.944705783E0
4.525125440E-1,2.572050095E0,9.643050194E0,4.750500321E-1,9.991472928E0
4.544731640E-1,2.419050217E0,9.757950783E0,4.360500276E-1,1.006278028E1
4.564337550E-1,2.265000105E0,9.910950661E0,5.899500251E-1,1.018357548E1
4.583943710E-1,2.111999989E0,1.006500053E1,5.509500504E-1,1.029894779E1
4.603553000E-1,1.920000076E0,1.018005085E1,5.130000114E-1,1.037222274E1
4.623161380E-1,1.729050040E0,1.025595093E1,4.750500321E-1,1.041152323E1
4.642776610E-1,1.422000051E0,1.044795036E1,-1.369500011E-1,1.054516506E1
4.662389840E-1,1.575000048E0,1.056300068E1,3.220500052E-1,1.068463030E1
4.681987770E-1,1.459950089E0,1.063995075E1,7.810500264E-1,1.076801028E1
4.701590050E-1,1.269000053E0,1.071600056E1,7.810500264E-1,1.081910663E1
4.721204070E-1,1.039050102E0,1.083105087E1,4.360500276E-1,1.088950999E1
4.740814650E-1,9.619500637E-1,1.087005043E1,9.195000678E-2,1.091291891E1
4.760412850E-1,1.192050099E0,1.083105087E1,4.750500321E-1,1.090680150E1
4.780014670E-1,1.114950061E0,1.098495007E1,7.050000429E-1,1.106387214E1
4.799626770E-1,9.240000248E-1,1.113795090E1,6.280500293E-1,1.119384532E1
4.819236000E-1,8.470500112E-1,1.125300026E1,4.750500321E-1,1.129482984E1
4.838843440E-1,6.169500351E-1,1.125300026E1,-9.900000691E-2,1.127033465E1
4.858451400E-1,3.490500152E-1,1.148295021E1,-3.289500177E-1,1.149296261E1
4.878057240E-1,6.940500140E-1,1.155900097E1,9.195000678E-2,1.158018409E1
4.897663710E-1,5.020500422E-1,1.163595009E1,2.070000172E-1,1.164861527E1
4.917265700E-1,5.020500422E-1,1.171305084E1,2.830500007E-1,1.172722182E1
4.936869040E-1,5.410500169E-1,1.178895092E1,5.509500504E-1,1.181421368E1
4.956488740E-1,2.719500065E-1,1.190400028E1,2.449500114E-1,1.190962552E1
4.976103640E-1,1.570500135E-1,1.194300079E1,1.680000126E-1,1.194521480E1
4.995704250E-1,2.719500065E-1,1.201905060E1,3.220500052E-1,1.202643963E1
5.015309040E-1,2.719500065E-1,1.201905060E1,3.220500052E-1,1.202643963E1
5.034924880E-1,1.189500093E-1,1.209600067E1,2.070000172E-1,1.209835651E1
5.054537490E-1,-3.299999982E-2,1.205805016E1,-6.105000153E-2,1.205824986E1
5.074146150E-1,-4.549500346E-1,1.209600067E1,-9.420000315E-1,1.214115216E1
5.093755970E-1,-2.250000089E-1,1.213395023E1,-9.810000658E-1,1.217562049E1
5.113366440E-1,-1.099500060E-1,1.213395023E1,-6.360000372E-1,1.215110420E1
5.132976720E-1,-1.099500060E-1,1.213395023E1,-5.209500194E-1,1.214562580E1
5.152584430E-1,-3.299999982E-2,1.221105099E1,-4.440000355E-1,1.221916492E1
5.172192890E-1,1.189500093E-1,1.217295074E1,-3.670500219E-1,1.217906419E1
5.191801790E-1,1.570500135E-1,1.209600067E1,-2.910000086E-1,1.210051974E1
5.211410560E-1,1.570500135E-1,1.205805016E1,-2.140500098E-1,1.206097242E1
5.231018530E-1,1.960500032E-1,1.205805016E1,-1.759500057E-1,1.206092731E1
5.250626740E-1,2.340000123E-1,1.198095036E1,-9.900000691E-2,1.198364420E1
5.270237930E-1,2.340000123E-1,1.194300079E1,-1.369500011E-1,1.194607799E1
5.289848250E-1,2.719500065E-1,1.182795048E1,-1.759500057E-1,1.183238470E1
5.309456860E-1,3.109500110E-1,1.178895092E1,-1.369500011E-1,1.179384623E1
5.329065970E-1,3.490500152E-1,1.167405033E1,-2.140500098E-1,1.168122872E1
5.348672060E-1,3.490500152E-1,1.163595009E1,-2.910000086E-1,1.164482080E1
5.368279040E-1,4.260000288E-1,1.144395065E1,-4.440000355E-1,1.146048073E1
5.387890610E-1,3.870000243E-1,1.140600014E1,-5.209500194E-1,1.142444734E1
5.407500720E-1,5.020500422E-1,1.121400070E1,-5.590500236E-1,1.123914600E1
5.427107560E-1,4.639500082E-1,1.113795090E1,-7.120500207E-1,1.117032744E1
5.446715360E-1,5.020500422E-1,1.098495007E1,-6.739500165E-1,1.101705001E1
5.466328880E-1,4.639500082E-1,1.083105087E1,-6.360000372E-1,1.085962286E1
5.485940720E-1,5.790000558E-1,1.060095024E1,-6.739500165E-1,1.063811993E1
5.505545910E-1,6.169500351E-1,1.041000080E1,-6.739500165E-1,1.045002166E1
5.525153050E-1,6.550500393E-1,1.021800041E1,-6.360000372E-1,1.025870942E1
5.544753630E-1,6.550500393E-1,9.988050461E0,-6.360000372E-1,1.002969285E1
5.564356130E-1,5.410500169E-1,9.757950783E0,-7.120500207E-1,9.798844515E0
5.583966500E-1,5.020500422E-1,9.604950905E0,-7.510500550E-1,9.647342241E0
5.603574570E-1,5.020500422E-1,9.375000000E0,-6.739500165E-1,9.412591985E0
5.623185600E-1,3.109500110E-1,9.259950638E0,-7.510500550E-1,9.295560871E0
5.642795910E-1,2.719500065E-1,9.106050491E0,-7.510500550E-1,9.141016822E0
5.662400910E-1,1.960500032E-1,9.030000687E0,-8.269500136E-1,9.069905971E0
5.682007470E-1,1.960500032E-1,8.914950371E0,-9.040500522E-1,8.962816645E0
5.701615790E-1,1.960500032E-1,8.838000298E0,-1.057050109E0,8.903147746E0
5.721223600E-1,1.189500093E-1,8.722949982E0,-1.210950017E0,8.807406283E0
5.740832720E-1,1.189500093E-1,8.685000420E0,-1.249050021E0,8.775164235E0
5.760441390E-1,8.100000024E-2,8.569950104E0,-1.326000094E0,8.672305462E0
5.780048930E-1,2.340000123E-1,8.569950104E0,-1.402050018E0,8.687033155E0
5.799656800E-1,2.340000123E-1,8.455050468E0,-1.363950014E0,8.567554731E0
5.819266700E-1,2.340000123E-1,8.340000153E0,-1.210950017E0,8.430703321E0
5.838876010E-1,2.340000123E-1,8.263050079E0,-1.057050109E0,8.333673113E0
5.858484790E-1,2.340000123E-1,8.224950790E0,-1.057050109E0,8.295898170E0
5.878093720E-1,1.960500032E-1,8.187000275E0,-1.134000063E0,8.267488448E0
5.897702990E-1,2.719500065E-1,8.187000275E0,-1.287000060E0,8.292002138E0
5.917312160E-1,2.719500065E-1,8.148000717E0,-1.249050021E0,8.247666243E0
5.936921850E-1,3.109500110E-1,8.071949959E0,-1.363950014E0,8.192278419E0
5.956531390E-1,2.719500065E-1,8.032950401E0,-1.326000094E0,8.146196978E0
5.976143780E-1,2.719500065E-1,7.957050323E0,-1.249050021E0,8.059077653E0
5.995755290E-1,2.719500065E-1,7.957050323E0,-1.134000063E0,8.042049664E0
6.015365940E-1,2.719500065E-1,7.957050323E0,-1.057050109E0,8.031560346E0
6.034976850E-1,1.960500032E-1,7.995000362E0,-1.171950102E0,8.082817172E0
6.054586240E-1,1.960500032E-1,8.032950401E0,-1.249050021E0,8.131841963E0
6.074196080E-1,2.340000123E-1,7.995000362E0,-1.249050021E0,8.095363658E0
6.093803400E-1,1.960500032E-1,8.032950401E0,-1.363950014E0,8.150281430E0
6.113411460E-1,1.960500032E-1,8.148000717E0,-1.402050018E0,8.270072282E0
6.133017290E-1,2.719500065E-1,8.110050201E0,-1.402050018E0,8.234841549E0
6.152623770E-1,2.719500065E-1,8.187000275E0,-1.594050050E0,8.345173807E0
6.172231210E-1,3.490500152E-1,8.187000275E0,-1.632000089E0,8.355371548E0
6.191838370E-1,3.870000243E-1,8.340000153E0,-1.671000123E0,8.514553011E0
6.211448550E-1,3.870000243E-1,8.340000153E0,-1.594050050E0,8.499786299E0
6.231057740E-1,3.490500152E-1,8.340000153E0,-1.555950046E0,8.491078789E0
6.250665180E-1,2.340000123E-1,8.416950226E0,-1.555950046E0,8.562755845E0
6.270273140E-1,2.719500065E-1,8.455050468E0,-1.516950130E0,8.594357040E0
6.289885730E-1,1.570500135E-1,8.455050468E0,-1.479000092E0,8.584869504E0
6.309496970E-1,1.189500093E-1,8.532000542E0,-1.402050018E0,8.647249655E0
6.329106130E-1,1.570500135E-1,8.569950104E0,-1.287000060E0,8.667472448E0
6.348716030E-1,8.100000024E-2,8.532000542E0,-1.363950014E0,8.640714894E0
6.368326490E-1,4.200000316E-2,8.493000031E0,-1.363950014E0,8.601928456E0
6.387936780E-1,4.200000316E-2,8.455050468E0,-1.402050018E0,8.570611803E0
6.407548080E-1,4.050000105E-3,8.455050468E0,-1.402050018E0,8.570509849E0
6.427159090E-1,-7.200000435E-2,8.455050468E0,-1.363950014E0,8.564661235E0
6.446770070E-1,-1.099500060E-1,8.377950668E0,-1.402050018E0,8.495168666E0
6.466380890E-1,-2.250000089E-1,8.416950226E0,-1.441050053E0,8.542382651E0
6.485991190E-1,-3.019500077E-1,8.340000153E0,-1.363950014E0,8.456189212E0
6.505601650E-1,-4.930500090E-1,8.263050079E0,-1.441050053E0,8.402244949E0
6.525212460E-1,-5.700000525E-1,8.263050079E0,-1.441050053E0,8.407111390E0
6.544823170E-1,-5.700000525E-1,8.187000275E0,-1.363950014E0,8.319388992E0
6.564432560E-1,-6.079500318E-1,8.224950790E0,-1.402050018E0,8.365713538E0
6.584042370E-1,-5.700000525E-1,8.148000717E0,-1.402050018E0,8.287373528E0
6.603651050E-1,-5.700000525E-1,8.148000717E0,-1.402050018E0,8.287373528E0
6.623260070E-1,-5.320500135E-1,8.148000717E0,-1.441050053E0,8.291538950E0
6.642866180E-1,-5.700000525E-1,8.110050201E0,-1.441050053E0,8.256781430E0
6.662473140E-1,-6.469500065E-1,8.110050201E0,-1.555950046E0,8.283262589E0
6.682080950E-1,-6.469500065E-1,8.071949959E0,-1.632000089E0,8.260650382E0
6.701688510E-1,-7.999500632E-1,8.032950401E0,-1.479000092E0,8.207049014E0
6.721297580E-1,-7.620000243E-1,7.957050323E0,-1.516950130E0,8.136118951E0
6.740906200E-1,-7.620000243E-1,7.957050323E0,-1.516950130E0,8.136118951E0
6.760515990E-1,-7.999500632E-1,7.918050289E0,-1.555950046E0,8.109033298E0
6.780125430E-1,-8.380500674E-1,7.842000484E0,-1.594050050E0,8.046135412E0
6.799732890E-1,-8.380500674E-1,7.765050411E0,-1.594050050E0,7.971156213E0
6.819340890E-1,-9.150000215E-1,7.687950134E0,-1.594050050E0,7.904606117E0
6.838950320E-1,-9.150000215E-1,7.650000572E0,-1.632000089E0,7.875478276E0
6.858559330E-1,-9.150000215E-1,7.573050499E0,-1.594050050E0,7.792901543E0
6.878166800E-1,-9.150000215E-1,7.534950256E0,-1.594050050E0,7.755881379E0
6.897774730E-1,-9.529500604E-1,7.458000183E0,-1.479000092E0,7.662722872E0
6.917383720E-1,-8.770500422E-1,7.420050144E0,-1.516950130E0,7.624139205E0
6.936992400E-1,-8.380500674E-1,7.420050144E0,-1.594050050E0,7.635474289E0
6.956599940E-1,-7.230000496E-1,7.458000183E0,-1.594050050E0,7.660645623E0
6.976207810E-1,-5.320500135E-1,7.497000217E0,-1.671000123E0,7.699372110E0
6.995815910E-1,-3.400500119E-1,7.573050499E0,-1.786050081E0,7.788241314E0
7.015423940E-1,-3.019500077E-1,7.687950134E0,-1.786050081E0,7.898463519E0
7.035032880E-1,-2.629500031E-1,7.726950169E0,-1.786050081E0,7.935041053E0
7.054641590E-1,-3.400500119E-1,7.803000450E0,-1.824000120E0,8.020562728E0
7.074247760E-1,-3.019500077E-1,7.803000450E0,-1.786050081E0,8.010490917E0
7.093854680E-1,-2.250000089E-1,7.842000484E0,-1.786050081E0,8.045966163E0
7.113464300E-1,-1.870500147E-1,7.879950523E0,-1.786050081E0,8.081991268E0
7.133073120E-1,-2.250000089E-1,7.957050323E0,-1.786050081E0,8.158140091E0
7.152680580E-1,-2.250000089E-1,7.957050323E0,-1.747050047E0,8.149690713E0
7.172288480E-1,-2.250000089E-1,7.957050323E0,-1.708950043E0,8.141608263E0
7.191897930E-1,-2.250000089E-1,7.995000362E0,-1.671000123E0,8.170856577E0
7.211506920E-1,-1.870500147E-1,8.071949959E0,-1.632000089E0,8.237401783E0
7.231116190E-1,-1.870500147E-1,8.110050201E0,-1.632000089E0,8.274740254E0
7.250725380E-1,-2.250000089E-1,8.071949959E0,-1.671000123E0,8.246165324E0
7.270332330E-1,-2.629500031E-1,8.110050201E0,-1.671000123E0,8.284581968E0
7.289939970E-1,-2.629500031E-1,8.110050201E0,-1.671000123E0,8.284581968E0
7.309547660E-1,-2.250000089E-1,8.110050201E0,-1.671000123E0,8.283464292E0
7.329155330E-1,-2.629500031E-1,8.148000717E0,-1.671000123E0,8.321736586E0
7.348761690E-1,-3.019500077E-1,8.110050201E0,-1.708950043E0,8.293648071E0
7.368368430E-1,-2.629500031E-1,8.148000717E0,-1.671000123E0,8.321736586E0
7.387977580E-1,-2.250000089E-1,8.148000717E0,-1.632000089E0,8.312879464E0
7.407586050E-1,-3.780000210E-1,8.110050201E0,-1.632000089E0,8.281257306E0
7.427193620E-1,-3.019500077E-1,8.110050201E0,-1.632000089E0,8.278134595E0
7.446801460E-1,-3.780000210E-1,8.110050201E0,-1.671000123E0,8.289031288E0
7.466407770E-1,-4.170000255E-1,8.110050201E0,-1.594050050E0,8.275735547E0
7.486014530E-1,-4.549500346E-1,8.071949959E0,-1.516950130E0,8.225843019E0
7.505622180E-1,-5.320500135E-1,8.110050201E0,-1.555950046E0,8.275081391E0
7.525229710E-1,-4.549500346E-1,8.110050201E0,-1.632000089E0,8.285126317E0
7.544837430E-1,-5.700000525E-1,8.071949959E0,-1.594050050E0,8.247561564E0
7.564445090E-1,-6.079500318E-1,8.071949959E0,-1.632000089E0,8.257687550E0
7.584052790E-1,-6.850500107E-1,8.071949959E0,-1.671000123E0,8.271512018E0
7.603660480E-1,-6.850500107E-1,8.032950401E0,-1.708950043E0,8.241243590E0
7.623269570E-1,-7.620000243E-1,8.032950401E0,-1.747050047E0,8.255974809E0
7.642878220E-1,-7.999500632E-1,7.995000362E0,-1.786050081E0,8.231034309E0
7.662482150E-1,-7.999500632E-1,8.110050201E0,-1.786050081E0,8.342829812E0
7.682087470E-1,-8.380500674E-1,8.071949959E0,-1.786050081E0,8.309553475E0
7.701697810E-1,-8.770500422E-1,8.110050201E0,-1.824000120E0,8.358774281E0
7.721306680E-1,-9.529500604E-1,8.187000275E0,-1.861950040E0,8.449967175E0
7.740916990E-1,-9.919500351E-1,8.302050591E0,-1.900950074E0,8.574474915E0
7.760527110E-1,-9.919500351E-1,8.302050591E0,-1.939050078E0,8.583002044E0
7.780134850E-1,-1.068000078E0,8.340000153E0,-1.977000117E0,8.637404481E0
7.799743290E-1,-1.068000078E0,8.416950226E0,-2.014950037E0,8.720418506E0
7.819352640E-1,-9.919500351E-1,8.493000031E0,-2.092050076E0,8.802936323E0
7.838961730E-1,-9.919500351E-1,8.569950104E0,-2.206950188E0,8.904978315E0
7.858568740E-1,-9.919500351E-1,8.685000420E0,-2.245050192E0,9.025156371E0
7.878176360E-1,-9.150000215E-1,8.838000298E0,-2.206950188E0,9.155222741E0
7.897784510E-1,-8.380500674E-1,8.953050613E0,-2.206950188E0,9.259053533E0
7.917392500E-1,-7.230000496E-1,9.106050491E0,-2.284050226E0,9.415931715E0
7.937003300E-1,-6.079500318E-1,9.145050049E0,-2.206950188E0,9.427203868E0
7.956613270E-1,-5.700000525E-1,9.220950127E0,-2.206950188E0,9.498497272E0
7.976222240E-1,-6.079500318E-1,9.298050880E0,-2.206950188E0,9.575697497E0
7.995831610E-1,-4.930500090E-1,9.412950516E0,-2.130000114E0,9.663520901E0
8.015439460E-1,-4.170000255E-1,9.490050316E0,-2.092050076E0,9.726850340E0
8.035047760E-1,-3.780000210E-1,9.565950394E0,-2.092050076E0,9.799334899E0
8.054658490E-1,-3.019500077E-1,9.720000267E0,-2.130000114E0,9.955223729E0
8.074268510E-1,-3.400500119E-1,9.796050072E0,-2.092050076E0,1.002271942E1
8.093877370E-1,-3.019500077E-1,9.873000145E0,-2.092050076E0,1.009673111E1
8.113486740E-1,-3.400500119E-1,9.988050461E0,-2.053950071E0,1.020272007E1
8.133094600E-1,-4.549500346E-1,1.010295010E1,-2.169000149E0,1.034316885E1
8.152702900E-1,-5.320500135E-1,1.021800041E1,-2.206950188E0,1.046715046E1
8.172310480E-1,-5.700000525E-1,1.033305073E1,-2.206950188E0,1.058146807E1
8.191918280E-1,-6.469500065E-1,1.041000080E1,-2.206950188E0,1.066101731E1
8.211526300E-1,-6.079500318E-1,1.044795036E1,-2.206950188E0,1.069578885E1
8.231134010E-1,-7.230000496E-1,1.052505016E1,-2.206950188E0,1.077822059E1
8.250741700E-1,-7.620000243E-1,1.060095024E1,-2.245050192E0,1.086282838E1
8.270349390E-1,-7.999500632E-1,1.067805004E1,-2.169000149E0,1.092543978E1
8.289962030E-1,-7.999500632E-1,1.075500011E1,-2.130000114E0,1.099303634E1
8.309573220E-1,-7.999500632E-1,1.079295063E1,-2.169000149E0,1.103776540E1
8.329179980E-1,-7.999500632E-1,1.083105087E1,-2.053950071E0,1.105306718E1
8.348788280E-1,-7.999500632E-1,1.087005043E1,-2.053950071E0,1.109128610E1
8.368397660E-1,-8.380500674E-1,1.087005043E1,-2.053950071E0,1.109409911E1
8.388006720E-1,-9.150000215E-1,1.087005043E1,-1.939050078E0,1.107949171E1
8.407615980E-1,-9.919500351E-1,1.087005043E1,-1.977000117E0,1.109281257E1
8.427225180E-1,-9.919500351E-1,1.087005043E1,-2.092050076E0,1.111389377E1
8.446832730E-1,-9.919500351E-1,1.098495007E1,-2.130000114E0,1.123343195E1
8.466440690E-1,-1.106999993E0,1.094595051E1,-2.206950188E0,1.122095854E1
8.486046990E-1,-1.068000078E0,1.090800095E1,-2.284050226E0,1.119562389E1
8.505653770E-1,-1.030050039E0,1.090800095E1,-2.359950066E0,1.120780318E1
8.525261150E-1,-9.919500351E-1,1.090800095E1,-2.475000143E0,1.122916182E1
8.544868360E-1,-1.068000078E0,1.087005043E1,-2.475000143E0,1.119929668E1
8.564473180E-1,-1.030050039E0,1.090800095E1,-2.514000177E0,1.124124925E1
8.584078570E-1,-1.030050039E0,1.083105087E1,-2.551950216E0,1.117520094E1
8.603684390E-1,-9.919500351E-1,1.079295063E1,-2.551950216E0,1.113481918E1
8.623290090E-1,-1.030050039E0,1.075500011E1,-2.667000055E0,1.112851831E1
8.642894530E-1,-1.068000078E0,1.075500011E1,-2.667000055E0,1.113209508E1
8.662499340E-1,-1.068000078E0,1.071600056E1,-2.743950129E0,1.111317031E1
8.682107970E-1,-1.068000078E0,1.075500011E1,-2.782050133E0,1.116021750E1
8.701715480E-1,-1.106999993E0,1.075500011E1,-2.820000172E0,1.117353469E1
8.721323200E-1,-1.106999993E0,1.067805004E1,-2.896950245E0,1.111928606E1
8.740930860E-1,-1.144950032E0,1.067805004E1,-2.935050249E0,1.113311202E1
8.760536770E-1,-1.260000110E0,1.063995075E1,-2.935050249E0,1.110903561E1
8.780143190E-1,-1.297950029E0,1.071600056E1,-2.820000172E0,1.115660088E1
8.799748850E-1,-1.336950064E0,1.071600056E1,-2.782050133E0,1.115167729E1
8.819354730E-1,-1.452000022E0,1.075500011E1,-2.743950129E0,1.119408745E1
8.838960920E-1,-1.489950061E0,1.079295063E1,-2.667000055E0,1.121697926E1
8.858567010E-1,-1.528050065E0,1.087005043E1,-2.551950216E0,1.126966651E1
8.878173180E-1,-1.605000019E0,1.094595051E1,-2.398950100E0,1.132010685E1
8.897779320E-1,-1.758000135E0,1.106100082E1,-2.322000027E0,1.143800629E1
8.917385390E-1,-1.795950055E0,1.110000038E1,-2.206950188E0,1.145888625E1
8.936991540E-1,-1.911000133E0,1.113795090E1,-2.169000149E0,1.150697325E1
8.956598150E-1,-1.911000133E0,1.125300026E1,-2.053950071E0,1.159744141E1
8.976204620E-1,-1.911000133E0,1.132905006E1,-2.014950037E0,1.166444686E1
8.995812520E-1,-1.911000133E0,1.132905006E1,-1.939050078E0,1.165157552E1
9.015420000E-1,-1.911000133E0,1.144395065E1,-1.861950040E0,1.175086320E1
9.035030880E-1,-1.911000133E0,1.152105045E1,-1.824000120E0,1.182004659E1
9.054640770E-1,-1.950000048E0,1.163595009E1,-1.824000120E0,1.193837556E1
9.074246750E-1,-1.873050094E0,1.163595009E1,-1.632000089E0,1.189819631E1
9.093853870E-1,-1.834950089E0,1.175100040E1,-1.632000089E0,1.200485221E1
9.113461650E-1,-1.758000135E0,1.178895092E1,-1.555950046E0,1.202043713E1
9.133069230E-1,-1.642950058E0,1.186605072E1,-1.441050053E0,1.206561519E1
9.152675040E-1,-1.528050065E0,1.194300079E1,-1.287000060E0,1.210894604E1
9.172281450E-1,-1.489950061E0,1.201905060E1,-1.171950102E0,1.216762078E1
9.191887110E-1,-1.336950064E0,1.201905060E1,-1.057050109E0,1.213929025E1
9.211492990E-1,-1.222050071E0,1.217295074E1,-8.659500480E-1,1.226474646E1
9.231097390E-1,-1.068000078E0,1.217295074E1,-8.269500136E-1,1.224766101E1
9.250702220E-1,-8.380500674E-1,1.228800011E1,-5.970000029E-1,1.233100497E1
9.270310290E-1,-6.850500107E-1,1.236405087E1,-5.209500194E-1,1.239396774E1
9.289917480E-1,-5.320500135E-1,1.244100094E1,-4.060500264E-1,1.245899106E1
9.309523920E-1,-3.400500119E-1,1.251795101E1,-2.910000086E-1,1.252594957E1
9.329130580E-1,-1.480500102E-1,1.255605030E1,-1.759500057E-1,1.255815577E1
9.348739790E-1,4.050000105E-3,1.267095089E1,-1.369500011E-1,1.267169161E1
9.368348250E-1,2.340000123E-1,1.274805069E1,-1.369500011E-1,1.275093360E1
9.387961910E-1,3.870000243E-1,1.286295033E1,-6.105000153E-2,1.286891554E1
9.407573880E-1,6.169500351E-1,1.290105057E1,-9.900000691E-2,1.291617335E1
9.427184000E-1,8.850000501E-1,1.297800064E1,-9.900000691E-2,1.300851747E1
9.446794670E-1,1.077000022E0,1.297800064E1,-6.105000153E-2,1.302275535E1
9.466398700E-1,1.269000053E0,1.297800064E1,-6.105000153E-2,1.304003792E1
9.486004670E-1,1.345050097E0,1.305405045E1,-6.105000153E-2,1.312330446E1
9.505612500E-1,1.459950089E0,1.320795059E1,-2.205000073E-2,1.328841222E1
9.525219890E-1,1.690050125E0,1.328400040E1,1.500000060E-2,1.339108513E1
9.544827200E-1,1.843950033E0,1.332300091E1,5.295000225E-2,1.345010441E1
9.564434530E-1,2.188950062E0,1.324605083E1,9.195000678E-2,1.342601281E1
9.584039130E-1,2.341950178E0,1.336095047E1,1.680000126E-1,1.356569026E1
9.603644530E-1,2.494950056E0,1.343700027E1,2.070000172E-1,1.366823329E1
9.623246940E-1,2.764050245E0,1.336095047E1,2.449500114E-1,1.364606067E1
9.642850100E-1,2.955000162E0,1.324605083E1,3.600000143E-1,1.357643137E1
9.662456760E-1,3.070050240E0,1.332300091E1,4.360500276E-1,1.367909724E1
9.682062390E-1,3.184950113E0,1.320795059E1,6.660000086E-1,1.360284610E1
9.701669090E-1,3.337950230E0,1.309305096E1,6.280500293E-1,1.352643123E1
9.721275470E-1,3.415050268E0,1.286295033E1,6.660000086E-1,1.332522478E1
9.740884600E-1,3.529950142E0,1.274805069E1,7.810500264E-1,1.325078803E1
9.760493020E-1,3.607050180E0,1.255605030E1,8.580000401E-1,1.309203476E1
9.780102390E-1,3.682950258E0,1.236405087E1,9.730500579E-1,1.293756943E1
9.799711480E-1,3.682950258E0,1.209600067E1,1.050000072E0,1.268778369E1
9.819317590E-1,3.760050297E0,1.178895092E1,1.165050030E0,1.242878448E1
9.838924580E-1,3.798000097E0,1.148295021E1,1.203000069E0,1.215442962E1
9.858530330E-1,3.760050297E0,1.110000038E1,1.279950023E0,1.178924335E1
9.878136310E-1,3.721950293E0,1.071600056E1,1.395000100E0,1.142941850E1
9.897744280E-1,3.721950293E0,1.044795036E1,1.471050024E0,1.118823350E1
9.917351670E-1,3.721950293E0,1.010295010E1,1.471050024E0,1.086676138E1
9.936961220E-1,3.682950258E0,9.796050072E0,1.510050058E0,1.057388154E1
9.956570130E-1,3.568050146E0,9.451050758E0,1.510050058E0,1.021438170E1
9.976178320E-1,3.453000069E0,9.145050049E0,1.510050058E0,9.891177940E0
9.995786550E-1,3.415050268E0,8.914950371E0,1.624950051E0,9.683974965E0
1.001539415E0,3.415050268E0,8.647050858E0,1.548000097E0,9.424986004E0
1.003500193E0,3.300000191E0,8.377950668E0,1.548000097E0,9.136539988E0
1.005461140E0,3.147000074E0,8.187000275E0,1.548000097E0,8.906564280E0
1.007422037E0,3.031950235E0,7.957050323E0,1.548000097E0,8.654691004E0
1.009382950E0,2.917050123E0,7.765050411E0,1.548000097E0,8.438097748E0
1.011343869E0,2.878050089E0,7.573050499E0,1.548000097E0,8.248064650E0
1.013304928E0,2.764050245E0,7.342950344E0,1.510050058E0,7.989940218E0
1.015265945E0,2.572050095E0,7.189950466E0,1.471050024E0,7.776555637E0
1.017226673E0,2.494950056E0,7.075050354E0,1.471050024E0,7.644939599E0
1.019187486E0,2.380050182E0,6.997950554E0,1.471050024E0,7.536573426E0
1.021148083E0,2.341950178E0,6.844950199E0,1.432950020E0,7.375053873E0
1.023108732E0,2.227050066E0,6.768000126E0,1.432950020E0,7.267662861E0
1.025069385E0,2.188950062E0,6.691950321E0,1.432950020E0,7.185196395E0
1.027030037E0,2.074050188E0,6.691950321E0,1.432950020E0,7.151029929E0
1.028990782E0,1.959000111E0,6.730050087E0,1.395000100E0,7.146837125E0
1.030951499E0,1.996950150E0,6.807000160E0,1.395000100E0,7.229736258E0
1.032912153E0,1.882050037E0,6.807000160E0,1.395000100E0,7.198846352E0
1.034872819E0,1.767000079E0,6.922050476E0,1.432950020E0,7.286317165E0
1.036833605E0,1.767000079E0,7.036950111E0,1.471050024E0,7.403036156E0
1.038794355E0,1.729050040E0,7.113000393E0,1.395000100E0,7.451873181E0
1.040755084E0,1.651950121E0,7.228050232E0,1.395000100E0,7.544512883E0
1.042715819E0,1.537050128E0,7.342950344E0,1.356000066E0,7.623659163E0
1.044676593E0,1.459950089E0,7.497000217E0,1.395000100E0,7.764180047E0
1.046637355E0,1.459950089E0,7.612050533E0,1.432950020E0,7.882138881E0
1.048598306E0,1.459950089E0,7.687950134E0,1.432950020E0,7.955462104E0
1.050559201E0,1.537050128E0,7.803000450E0,1.471050024E0,8.087850598E0
1.052519950E0,1.498950124E0,7.842000484E0,1.432950020E0,8.111545403E0
1.054480742E0,1.498950124E0,7.918050289E0,1.471050024E0,8.191847168E0
1.056441681E0,1.459950089E0,7.995000362E0,1.432950020E0,8.252565105E0
1.058402581E0,1.422000051E0,8.148000717E0,1.471050024E0,8.400951613E0
1.060363374E0,1.384050012E0,8.263050079E0,1.395000100E0,8.493504361E0
1.062324198E0,1.384050012E0,8.340000153E0,1.395000100E0,8.568385044E0
1.064285092E0,1.345050097E0,8.455050468E0,1.356000066E0,8.668089430E0
1.066245966E0,1.306950092E0,8.608050346E0,1.356000066E0,8.811661903E0
1.068206763E0,1.306950092E0,8.647050858E0,1.356000066E0,8.849765153E0
1.070167583E0,1.269000053E0,8.722949982E0,1.318050027E0,8.912770242E0
1.072128658E0,1.269000053E0,8.761950493E0,1.356000066E0,8.956610617E0
1.074089658E0,1.306950092E0,8.800050735E0,1.318050027E0,8.993679301E0
1.076050434E0,1.306950092E0,8.877000809E0,1.240950108E0,9.058102399E0
1.078011275E0,1.269000053E0,8.953050613E0,1.203000069E0,9.122208372E0
1.079972225E0,1.269000053E0,8.953050613E0,1.203000069E0,9.122208372E0
1.081933133E0,1.306950092E0,8.991000175E0,1.203000069E0,9.164791971E0
1.083893880E0,1.306950092E0,9.067950249E0,1.126049995E0,9.230592010E0
1.085854674E0,1.306950092E0,9.145050049E0,1.126049995E0,9.306344477E0
1.087815214E0,1.306950092E0,9.183000565E0,1.126049995E0,9.343639896E0
1.089775828E0,1.306950092E0,9.259950638E0,1.203000069E0,9.428786429E0
1.091736668E0,1.384050012E0,9.298050880E0,1.165050030E0,9.472417125E0
1.093697441E0,1.422000051E0,9.412950516E0,1.165050030E0,9.590780110E0
1.095657985E0,1.459950089E0,9.451050758E0,1.087950110E0,9.624835071E0
1.097618597E0,1.537050128E0,9.490050316E0,1.087950110E0,9.675082095E0
1.099579078E0,1.575000048E0,9.565950394E0,1.126049995E0,9.759919092E0
1.101539597E0,1.614000082E0,9.565950394E0,1.126049995E0,9.766288537E0
1.103499883E0,1.651950121E0,9.565950394E0,1.087950110E0,9.768315186E0
1.105460227E0,1.729050040E0,9.604950905E0,1.087950110E0,9.819792837E0
1.107420843E0,1.729050040E0,9.681000710E0,1.165050030E0,9.902965735E0
1.109381379E0,1.804950118E0,9.681000710E0,1.126049995E0,9.911993153E0
1.111342189E0,1.882050037E0,9.720000267E0,1.087950110E0,9.960128161E0
1.113302918E0,2.035050154E0,9.757950783E0,1.087950110E0,1.002709669E1
1.115263575E0,2.035050154E0,9.835050583E0,1.050000072E0,1.009812603E1
1.117224243E0,2.149950027E0,9.835050583E0,1.050000072E0,1.012190719E1
1.119184849E0,2.265000105E0,9.796050072E0,1.165050030E0,1.012176684E1
1.121145473E0,2.341950178E0,9.757950783E0,1.126049995E0,1.009803559E1
1.123106042E0,2.380050182E0,9.720000267E0,1.087950110E0,1.006611541E1
1.125066627E0,2.457000017E0,9.565950394E0,1.165050030E0,9.944928235E0
1.127026946E0,2.457000017E0,9.565950394E0,1.050000072E0,9.932107338E0
1.128987333E0,2.457000017E0,9.528000832E0,1.011000037E0,9.891499887E0
1.130947942E0,2.380050182E0,9.528000832E0,1.011000037E0,9.872667309E0
1.132908485E0,2.380050182E0,9.565950394E0,9.349500537E-1,9.901826973E0
1.134868799E0,2.380050182E0,9.528000832E0,9.349500537E-1,9.865169554E0
1.136829180E0,2.494950056E0,9.490050316E0,8.959500194E-1,9.853352588E0
1.138789803E0,2.533950090E0,9.565950394E0,9.730500579E-1,9.943597760E0
1.140750345E0,2.494950056E0,9.528000832E0,8.959500194E-1,9.889909103E0
1.142711018E0,2.419050217E0,9.490050316E0,8.959500194E-1,9.834408238E0
1.144671653E0,2.304000139E0,9.565950394E0,8.959500194E-1,9.880210019E0
1.146632401E0,2.149950027E0,9.490050316E0,9.730500579E-1,9.779067774E0
1.148593115E0,2.149950027E0,9.490050316E0,9.349500537E-1,9.775350210E0
1.150553560E0,2.074050188E0,9.490050316E0,1.011000037E0,9.766517304E0
1.152514098E0,1.996950150E0,9.412950516E0,9.349500537E-1,9.667759767E0
1.154474546E0,1.959000111E0,9.375000000E0,9.349500537E-1,9.623016057E0
1.156435021E0,1.959000111E0,9.412950516E0,8.580000401E-1,9.652848435E0
1.158395975E0,1.920000076E0,9.375000000E0,9.730500579E-1,9.618931942E0
1.160356788E0,1.804950118E0,9.336000443E0,9.349500537E-1,9.554730807E0
1.162317556E0,1.767000079E0,9.298050880E0,9.349500537E-1,9.510529484E0
1.164278334E0,1.767000079E0,9.298050880E0,1.011000037E0,9.518306600E0
1.166238966E0,1.690050125E0,9.298050880E0,9.730500579E-1,9.500360310E0
1.168199641E0,1.690050125E0,9.298050880E0,1.011000037E0,9.504322210E0
1.170160381E0,1.729050040E0,9.298050880E0,1.087950110E0,9.519821409E0
1.172121101E0,1.614000082E0,9.259950638E0,1.087950110E0,9.462310369E0
1.174081681E0,1.651950121E0,9.220950127E0,1.126049995E0,9.435192051E0
1.176042315E0,1.537050128E0,9.106050491E0,1.050000072E0,9.294362743E0
1.178002971E0,1.537050128E0,9.106050491E0,1.087950110E0,9.298726477E0
1.179963620E0,1.422000051E0,9.067950249E0,1.126049995E0,9.247583168E0
1.181924050E0,1.384050012E0,8.914950371E0,1.165050030E0,9.096662911E0
1.183884545E0,1.306950092E0,9.030000687E0,1.165050030E0,9.198172238E0
1.185845001E0,1.306950092E0,8.991000175E0,1.087950110E0,9.150400983E0
1.187805468E0,1.306950092E0,8.953050613E0,1.050000072E0,9.108662579E0
1.189766424E0,1.306950092E0,8.953050613E0,1.087950110E0,9.113115234E0
1.191727236E0,1.269000053E0,8.953050613E0,1.126049995E0,9.112379767E0
1.193687999E0,1.230000019E0,8.953050613E0,1.050000072E0,9.097940178E0
1.195648776E0,1.230000019E0,8.953050613E0,1.165050030E0,9.111934861E0
1.197609708E0,1.269000053E0,8.953050613E0,1.087950110E0,9.107750099E0
1.199570605E0,1.269000053E0,8.991000175E0,1.165050030E0,9.154550063E0
1.201531713E0,1.230000019E0,9.067950249E0,1.203000069E0,9.229725398E0
1.203492759E0,1.192050099E0,9.030000687E0,1.126049995E0,9.177684045E0
1.205453347E0,1.230000019E0,9.067950249E0,1.126049995E0,9.220011407E0
1.207414069E0,1.192050099E0,9.106050491E0,1.165050030E0,9.257347383E0
1.209374879E0,1.192050099E0,9.183000565E0,1.165050030E0,9.333050111E0
1.211335639E0,1.230000019E0,9.183000565E0,1.165050030E0,9.337973066E0
1.213296186E0,1.192050099E0,9.106050491E0,1.126049995E0,9.252520067E0
1.215256795E0,1.192050099E0,9.183000565E0,1.087950110E0,9.323739499E0
1.217217456E0,1.230000019E0,9.106050491E0,1.087950110E0,9.252928782E0
1.219178101E0,1.230000019E0,9.145050049E0,1.126049995E0,9.295850097E0
1.221139038E0,1.269000053E0,9.183000565E0,1.165050030E0,9.343190145E0
1.223099913E0,1.306950092E0,9.183000565E0,1.240950108E0,9.358182253E0
1.225060485E0,1.306950092E0,9.106050491E0,1.318050027E0,9.293305653E0
1.227021146E0,1.306950092E0,9.183000565E0,1.356000066E0,9.374132178E0
1.228981887E0,1.306950092E0,9.106050491E0,1.432950020E0,9.310296443E0
1.230942605E0,1.306950092E0,9.145050049E0,1.395000100E0,9.342702190E0
1.232903613E0,1.306950092E0,9.259950638E0,1.395000100E0,9.455201195E0
1.234864533E0,1.306950092E0,9.259950638E0,1.356000066E0,9.449525942E0
1.236825233E0,1.306950092E0,9.336000443E0,1.356000066E0,9.524062105E0
1.238785997E0,1.306950092E0,9.336000443E0,1.395000100E0,9.529692969E0
1.240746452E0,1.306950092E0,9.451050758E0,1.395000100E0,9.642432487E0
1.242706997E0,1.306950092E0,9.490050316E0,1.356000066E0,9.675118073E0
1.244667785E0,1.269000053E0,9.490050316E0,1.318050027E0,9.664816191E0
1.246628515E0,1.269000053E0,9.528000832E0,1.356000066E0,9.707311531E0
1.248589246E0,1.306950092E0,9.604950905E0,1.318050027E0,9.782661003E0
1.250549976E0,1.306950092E0,9.604950905E0,1.356000066E0,9.787846372E0
1.252510618E0,1.306950092E0,9.565950394E0,1.356000066E0,9.749577512E0
1.254471286E0,1.306950092E0,9.565950394E0,1.279950023E0,9.739291429E0
1.256431887E0,1.269000053E0,9.604950905E0,1.279950023E0,9.772600221E0
1.258392512E0,1.306950092E0,9.643050194E0,1.203000069E0,9.805291671E0
1.260353305E0,1.345050097E0,9.604950905E0,1.165050030E0,9.768397167E0
1.262314048E0,1.306950092E0,9.681000710E0,1.011000037E0,9.820998644E0
1.264274598E0,1.230000019E0,9.757950783E0,1.203000069E0,9.908466717E0
1.266235204E0,1.230000019E0,9.796050072E0,1.203000069E0,9.945989454E0
1.268196045E0,1.269000053E0,9.757950783E0,1.203000069E0,9.913383569E0
1.270156817E0,1.269000053E0,9.757950783E0,1.087950110E0,9.900080811E0
1.272117542E0,1.269000053E0,9.643050194E0,9.730500579E-1,9.774743198E0
1.274078281E0,1.230000019E0,9.681000710E0,1.050000072E0,9.815150276E0
1.276038920E0,1.192050099E0,9.643050194E0,1.011000037E0,9.768905852E0
1.277999589E0,1.230000019E0,9.528000832E0,9.349500537E-1,9.652452098E0
1.279960348E0,1.192050099E0,9.565950394E0,8.200500607E-1,9.674754388E0
1.281921067E0,1.192050099E0,9.490050316E0,8.200500607E-1,9.599714607E0
1.283881711E0,1.077000022E0,9.451050758E0,8.200500607E-1,9.547500803E0
1.285842377E0,1.077000022E0,9.490050316E0,7.429500222E-1,9.579820394E0
1.287802758E0,1.077000022E0,9.490050316E0,7.810500264E-1,9.582850473E0
1.289763223E0,1.000050068E0,9.490050316E0,8.200500607E-1,9.577767863E0
1.291723848E0,1.114950061E0,9.336000443E0,8.580000401E-1,9.441407838E0
1.293684437E0,1.114950061E0,9.259950638E0,8.580000401E-1,9.366213937E0
1.295645102E0,1.153950095E0,9.220950127E0,7.810500264E-1,9.325639989E0
1.297605744E0,1.114950061E0,9.220950127E0,7.050000429E-1,9.314830108E0
1.299566311E0,1.114950061E0,9.220950127E0,6.660000086E-1,9.311959562E0
1.301526900E0,1.114950061E0,9.298050880E0,5.509500504E-1,9.380853361E0
1.303487559E0,1.114950061E0,9.375000000E0,5.899500251E-1,9.459480941E0
1.305448201E0,1.153950095E0,9.412950516E0,6.280500293E-1,9.504193026E0
1.307408768E0,1.153950095E0,9.451050758E0,6.660000086E-1,9.544501939E0
1.309369357E0,1.192050099E0,9.412950516E0,6.660000086E-1,9.511476061E0
1.311330336E0,1.153950095E0,9.375000000E0,7.429500222E-1,9.474924831E0
1.313291201E0,1.077000022E0,9.298050880E0,7.050000429E-1,9.386730223E0
1.315251624E0,1.077000022E0,9.259950638E0,6.280500293E-1,9.343503717E0
1.317212188E0,1.077000022E0,9.220950127E0,5.509500504E-1,9.299967540E0
1.319172632E0,1.000050068E0,9.145050049E0,5.509500504E-1,9.216050482E0
1.321133111E0,9.240000248E-1,9.145050049E0,5.509500504E-1,9.208108514E0
1.323093704E0,9.240000248E-1,9.145050049E0,4.750500321E-1,9.203879018E0
1.325054263E0,9.240000248E-1,9.030000687E0,3.979500234E-1,9.085871046E0
1.327014745E0,8.470500112E-1,9.106050491E0,5.130000114E-1,9.159738986E0
1.328975256E0,7.320000529E-1,9.030000687E0,4.360500276E-1,9.070108936E0
1.330935709E0,7.320000529E-1,8.991000175E0,3.979500234E-1,9.029522272E0
1.332896179E0,7.320000529E-1,8.953050613E0,3.220500052E-1,8.988695988E0
1.334857179E0,6.940500140E-1,8.914950371E0,2.830500007E-1,8.946405023E0
1.336818023E0,6.550500393E-1,8.914950371E0,2.449500114E-1,8.942339245E0
1.338777867E0,5.020500422E-1,8.953050613E0,2.449500114E-1,8.970460971E0
1.340737981E0,4.639500082E-1,8.914950371E0,2.070000172E-1,8.929414243E0
1.342698366E0,4.639500082E-1,8.953050613E0,1.680000126E-1,8.966637547E0
1.344658672E0,4.260000288E-1,8.991000175E0,1.680000126E-1,9.002654286E0
1.346619115E0,3.870000243E-1,8.991000175E0,2.070000172E-1,9.001705515E0
1.348579518E0,3.870000243E-1,8.953050613E0,2.070000172E-1,8.963801276E0
1.350539630E0,4.639500082E-1,8.914950371E0,1.500000060E-2,8.927027205E0
1.352499827E0,3.490500152E-1,8.914950371E0,2.070000172E-1,8.924182037E0
1.354460333E0,2.719500065E-1,8.953050613E0,1.300500035E-1,8.958123972E0
1.356420749E0,2.340000123E-1,8.953050613E0,2.830500007E-1,8.960579702E0
1.358381084E0,1.570500135E-1,8.991000175E0,1.680000126E-1,8.993940897E0
1.360341443E0,1.960500032E-1,8.914950371E0,9.195000678E-2,8.917579858E0
1.362302071E0,1.960500032E-1,8.953050613E0,1.300500035E-1,8.956141127E0
1.364262610E0,1.960500032E-1,8.914950371E0,1.300500035E-1,8.918054088E0
1.366223104E0,1.960500032E-1,8.991000175E0,1.300500035E-1,8.994077649E0
1.368183612E0,1.960500032E-1,8.914950371E0,1.300500035E-1,8.918054088E0
1.370144200E0,2.719500065E-1,8.953050613E0,9.195000678E-2,8.957651863E0
1.372104764E0,2.719500065E-1,8.877000809E0,9.195000678E-2,8.881641457E0
1.374065204E0,2.719500065E-1,8.914950371E0,2.070000172E-1,8.921499085E0
1.376025684E0,2.340000123E-1,8.991000175E0,1.680000126E-1,8.995613607E0
1.377986186E0,2.340000123E-1,8.953050613E0,2.070000172E-1,8.958499891E0
1.379946682E0,3.870000243E-1,8.953050613E0,1.300500035E-1,8.962354451E0
1.381907318E0,5.410500169E-1,8.761950493E0,1.680000126E-1,8.780246897E0
1.383867912E0,5.790000558E-1,8.838000298E0,1.500000060E-2,8.856958582E0
1.385828662E0,3.870000243E-1,9.067950249E0,2.070000172E-1,9.078564850E0
1.387789369E0,3.490500152E-1,9.145050049E0,1.680000126E-1,9.153250806E0
1.389750015E0,3.870000243E-1,9.106050491E0,1.300500035E-1,9.115198164E0
1.391710679E0,4.639500082E-1,9.106050491E0,5.295000225E-2,9.118015621E0
1.393671286E0,4.639500082E-1,9.145050049E0,9.195000678E-2,9.157272782E0
1.395631909E0,5.020500422E-1,9.067950249E0,1.680000126E-1,9.083391435E0
1.397592314E0,4.260000288E-1,9.030000687E0,1.680000126E-1,9.041604527E0
1.399552804E0,5.410500169E-1,9.145050049E0,1.680000126E-1,9.162581488E0
1.401513035E0,5.790000558E-1,9.145050049E0,2.449500114E-1,9.166634168E0
1.403473342E0,6.550500393E-1,9.067950249E0,3.979500234E-1,9.100284418E0
1.405434009E0,8.850000501E-1,8.953050613E0,4.750500321E-1,9.009218218E0
1.407394571E0,8.850000501E-1,8.953050613E0,4.750500321E-1,9.009218218E0
1.409354165E0,7.320000529E-1,9.106050491E0,6.280500293E-1,9.156987849E0
1.411314039E0,5.410500169E-1,9.259950638E0,7.050000429E-1,9.302496761E0
1.413275682E0,5.020500422E-1,9.259950638E0,6.660000086E-1,9.297434919E0
1.415236807E0,6.169500351E-1,9.298050880E0,7.429500222E-1,9.348066766E0
1.417197290E0,6.169500351E-1,9.220950127E0,7.050000429E-1,9.268418077E0
1.419157962E0,6.169500351E-1,9.259950638E0,7.429500222E-1,9.310171207E0
1.421118563E0,5.790000558E-1,9.336000443E0,8.200500607E-1,9.389815090E0
1.423079188E0,6.169500351E-1,9.336000443E0,9.730500579E-1,9.406825077E0
1.425039621E0,6.550500393E-1,9.298050880E0,9.730500579E-1,9.371748350E0
1.427000111E0,6.169500351E-1,9.375000000E0,1.087950110E0,9.458059409E0
1.428959892E0,6.169500351E-1,9.375000000E0,1.050000072E0,9.453769222E0
1.430919881E0,5.410500169E-1,9.412950516E0,1.126049995E0,9.495491621E0
1.432880748E0,5.410500169E-1,9.490050316E0,1.087950110E0,9.567519300E0
1.434841350E0,5.020500422E-1,9.528000832E0,1.011000037E0,9.594632623E0
1.436802328E0,5.020500422E-1,9.528000832E0,1.050000072E0,9.598820461E0
1.438763196E0,4.639500082E-1,9.643050194E0,1.011000037E0,9.706996844E0
1.440723589E0,5.020500422E-1,9.720000267E0,1.011000037E0,9.785324752E0
1.442684121E0,5.020500422E-1,9.796050072E0,1.011000037E0,9.860870769E0
1.444645145E0,5.410500169E-1,9.949950218E0,9.730500579E-1,1.001204629E1
1.446606032E0,5.410500169E-1,9.988050461E0,1.011000037E0,1.005365646E1
1.448566782E0,5.790000558E-1,1.010295010E1,1.011000037E0,1.016990476E1
1.450527573E0,6.169500351E-1,1.018005085E1,9.730500579E-1,1.024504217E1
1.452488293E0,7.699500322E-1,1.029495049E1,9.730500579E-1,1.036945779E1
1.454449034E0,7.320000529E-1,1.037100029E1,9.730500579E-1,1.044223623E1
1.456409668E0,8.470500112E-1,1.052505016E1,9.349500537E-1,1.060039180E1
1.458370337E0,9.240000248E-1,1.060095024E1,8.959500194E-1,1.067879434E1
1.460330583E0,9.619500637E-1,1.067805004E1,8.200500607E-1,1.075260818E1
1.462290953E0,1.039050102E0,1.075500011E1,8.200500607E-1,1.083614944E1
1.464251250E0,1.077000022E0,1.083105087E1,8.200500607E-1,1.091531375E1
1.466211568E0,1.114950061E0,1.087005043E1,7.810500264E-1,1.095496002E1
1.468172024E0,1.230000019E0,1.098495007E1,7.810500264E-1,1.108115820E1
1.470132460E0,1.269000053E0,1.106100082E1,7.050000429E-1,1.115585610E1
1.472092882E0,1.306950092E0,1.110000038E1,6.660000086E-1,1.119650316E1
1.474053308E0,1.345050097E0,1.113795090E1,6.280500293E-1,1.123643879E1
1.476013775E0,1.345050097E0,1.121400070E1,6.660000086E-1,1.131399697E1
1.477974229E0,1.345050097E0,1.125300026E1,5.899500251E-1,1.134844552E1
1.479934928E0,1.422000051E0,1.132905006E1,4.750500321E-1,1.142782272E1
1.481895548E0,1.498950124E0,1.136805058E1,4.750500321E-1,1.147628415E1
1.483856298E0,1.575000048E0,1.132905006E1,4.360500276E-1,1.144631557E1
1.485817010E0,1.575000048E0,1.132905006E1,3.979500234E-1,1.144492747E1
1.487777430E0,1.575000048E0,1.136805058E1,3.220500052E-1,1.148115479E1
1.489737935E0,1.651950121E0,1.125300026E1,3.600000143E-1,1.137930376E1
1.491699294E0,1.575000048E0,1.129095078E1,2.830500007E-1,1.140378498E1
1.493660399E0,1.575000048E0,1.132905006E1,2.830500007E-1,1.144150855E1
1.495620571E0,1.575000048E0,1.132905006E1,3.220500052E-1,1.144253978E1
1.497581017E0,1.651950121E0,1.121400070E1,2.449500114E-1,1.133766958E1
1.499540940E0,1.614000082E0,1.117605019E1,3.220500052E-1,1.129658401E1
1.501501017E0,1.651950121E0,1.113795090E1,3.220500052E-1,1.126439548E1
1.503462278E0,1.614000082E0,1.110000038E1,3.600000143E-1,1.122250439E1
1.505423182E0,1.575000048E0,1.098495007E1,2.830500007E-1,1.110089503E1
1.507383794E0,1.614000082E0,1.090800095E1,2.449500114E-1,1.102948237E1
1.509344492E0,1.537050128E0,1.090800095E1,2.070000172E-1,1.101770651E1
1.511305273E0,1.459950089E0,1.075500011E1,1.300500035E-1,1.085441821E1
1.513266029E0,1.422000051E0,1.071600056E1,1.300500035E-1,1.081071992E1
1.515226211E0,1.384050012E0,1.067805004E1,1.300500035E-1,1.076815955E1
1.517186564E0,1.459950089E0,1.063995075E1,1.300500035E-1,1.074043385E1
1.519147088E0,1.384050012E0,1.060095024E1,9.195000678E-2,1.069131401E1
1.521107562E0,1.306950092E0,1.048605061E1,9.195000678E-2,1.056758396E1
1.523068157E0,1.306950092E0,1.044795036E1,-2.205000073E-2,1.052940034E1
1.525028716E0,1.306950092E0,1.044795036E1,-2.205000073E-2,1.052940034E1
1.526989355E0,1.306950092E0,1.041000080E1,-6.105000153E-2,1.049189984E1
1.528949961E0,1.269000053E0,1.029495049E1,-9.900000691E-2,1.037333927E1
1.530910578E0,1.192050099E0,1.033305073E1,-1.369500011E-1,1.040248413E1
1.532871191E0,1.230000019E0,1.033305073E1,-1.759500057E-1,1.040748749E1
1.534831807E0,1.306950092E0,1.033305073E1,-1.759500057E-1,1.041686202E1
1.536792422E0,1.269000053E0,1.033305073E1,-1.759500057E-1,1.041216869E1
1.538752908E0,1.269000053E0,1.037100029E1,-1.759500057E-1,1.044983093E1
1.540713429E0,1.269000053E0,1.037100029E1,-9.900000691E-2,1.044881855E1
1.542673880E0,1.306950092E0,1.048605061E1,-9.900000691E-2,1.056764765E1
1.544634352E0,1.269000053E0,1.056300068E1,-9.900000691E-2,1.063941472E1
1.546594991E0,1.230000019E0,1.063995075E1,-9.900000691E-2,1.071126757E1
1.548555581E0,1.230000019E0,1.071600056E1,-6.105000153E-2,1.078653304E1
1.550516138E0,1.192050099E0,1.079295063E1,-1.759500057E-1,1.086000576E1
1.552476718E0,1.192050099E0,1.087005043E1,-1.759500057E-1,1.093663285E1
1.554437339E0,1.192050099E0,1.098495007E1,-1.759500057E-1,1.105084023E1
1.556397947E0,1.192050099E0,1.110000038E1,-2.140500098E-1,1.116587701E1
1.558358249E0,1.114950061E0,1.117605019E1,-2.205000073E-2,1.123154921E1
1.560318641E0,1.077000022E0,1.125300026E1,9.195000678E-2,1.130479538E1
1.562278714E0,1.039050102E0,1.148295021E1,1.680000126E-1,1.153108818E1
1.564238877E0,1.000050068E0,1.163595009E1,3.600000143E-1,1.168439278E1
1.566199253E0,1.000050068E0,1.175100040E1,5.899500251E-1,1.180822390E1
1.568159567E0,9.619500637E-1,1.194300079E1,7.429500222E-1,1.200469036E1
1.570120234E0,8.850000501E-1,1.209600067E1,6.280500293E-1,1.214458333E1
1.572080798E0,1.000050068E0,1.217295074E1,9.730500579E-1,1.225265916E1
1.574041243E0,1.039050102E0,1.221105099E1,1.395000100E0,1.233431865E1
1.576001723E0,9.619500637E-1,1.224900055E1,1.471050024E0,1.237446365E1
1.577962001E0,8.850000501E-1,1.228800011E1,1.510050058E0,1.241202735E1
1.579922338E0,8.089500666E-1,1.236405087E1,1.548000097E0,1.248681137E1
1.581882820E0,6.940500140E-1,1.244100094E1,1.777950048E0,1.258655299E1
1.583843260E0,7.320000529E-1,1.240305042E1,1.893000126E0,1.256801231E1
1.585803154E0,6.550500393E-1,1.240305042E1,2.085000038E0,1.259412464E1
1.587763199E0,4.639500082E-1,1.236405087E1,2.353049994E0,1.259451657E1
1.589724091E0,4.639500082E-1,1.232595062E1,2.583000183E0,1.260222989E1
1.591684735E0,3.490500152E-1,1.224900055E1,2.773950100E0,1.256402203E1
1.593645347E0,2.719500065E-1,1.213395023E1,2.889000177E0,1.247609823E1
1.595605968E0,2.719500065E-1,1.205805016E1,2.965950251E0,1.242044247E1
1.597566412E0,1.960500032E-1,1.186605072E1,3.081000090E0,1.226108302E1
1.599526901E0,1.960500032E-1,1.171305084E1,3.196050167E0,1.214284696E1
1.601487402E0,1.570500135E-1,1.152105045E1,3.349050045E0,1.199897514E1
1.603447899E0,1.960500032E-1,1.132905006E1,3.463950157E0,1.184840756E1
1.605408670E0,1.570500135E-1,1.106100082E1,3.541050196E0,1.161505232E1
1.607369361E0,2.340000123E-1,1.087005043E1,3.694050074E0,1.148297689E1
1.609329829E0,2.719500065E-1,1.071600056E1,3.771000147E0,1.136340912E1
1.611290363E0,3.490500152E-1,1.056300068E1,3.886050224E0,1.126055974E1
1.613250586E0,4.260000288E-1,1.041000080E1,4.000950336E0,1.116051954E1
1.615210901E0,5.020500422E-1,1.018005085E1,4.078050137E0,1.097797716E1
1.617172333E0,5.410500169E-1,1.002600002E1,4.231050014E0,1.089565032E1
1.619133437E0,6.550500393E-1,9.835050583E0,4.384050369E0,1.078782685E1
1.621093818E0,7.699500322E-1,9.604950905E0,4.576050282E0,1.066715244E1
1.623054391E0,9.240000248E-1,9.451050758E0,4.614000320E0,1.055770503E1
1.625014967E0,1.077000022E0,9.298050880E0,4.614000320E0,1.043564460E1
1.626975542E0,1.153950095E0,9.145050049E0,4.576050282E0,1.029095610E1
1.628935985E0,1.230000019E0,8.991000175E0,4.461000443E0,1.011194883E1
1.630896467E0,1.230000019E0,8.953050613E0,4.269000053E0,9.994717444E0
1.632857118E0,1.269000053E0,8.800050735E0,4.192950249E0,9.830162047E0
1.634817710E0,1.422000051E0,8.685000420E0,3.963000298E0,9.651771226E0
1.636778150E0,1.729050040E0,8.493000031E0,4.078050137E0,9.578682398E0
1.638738635E0,1.843950033E0,8.340000153E0,4.078050137E0,9.465001172E0
1.640699136E0,2.111999989E0,8.224950790E0,4.231050014E0,9.487472987E0
1.642659633E0,2.265000105E0,8.148000717E0,4.345950127E0,9.508281846E0
1.644620288E0,2.419050217E0,8.032950401E0,4.345950127E0,9.448141542E0
1.646580883E0,2.572050095E0,7.842000484E0,4.384050369E0,9.345175810E0
1.648541458E0,2.610000134E0,7.765050411E0,4.498950005E0,9.346050488E0
1.650502039E0,2.686950207E0,7.687950134E0,4.384050369E0,9.249009478E0
1.652462659E0,2.917050123E0,7.765050411E0,4.269000053E0,9.328963006E0
1.654423268E0,3.070050240E0,7.726950169E0,4.078050137E0,9.260748366E0
1.656383724E0,3.300000191E0,7.687950134E0,4.000950336E0,9.273736147E0
1.658344212E0,3.453000069E0,7.650000572E0,3.886050224E0,9.249167777E0
1.660304669E0,3.607050180E0,7.687950134E0,3.733050108E0,9.276370593E0
1.662265135E0,3.721950293E0,7.726950169E0,3.579000235E0,9.293434003E0
1.664225775E0,3.913050175E0,7.842000484E0,3.273000240E0,9.355290687E0
1.666186364E0,4.105050087E0,7.879950523E0,3.081000090E0,9.404127712E0
1.668146675E0,4.219950199E0,7.995000362E0,2.851050138E0,9.479266711E0
1.670107064E0,4.372950077E0,8.110050201E0,2.545050144E0,9.558916617E0
1.672067717E0,4.488000393E0,8.224950790E0,2.238000154E0,9.633307206E0
1.674028293E0,4.603050232E0,8.569950104E0,2.008050203E0,9.932994606E0
1.675989050E0,4.642050266E0,8.761950493E0,1.855050087E0,1.008769636E1
1.677949754E0,4.756950378E0,8.991000175E0,1.585950017E0,1.029475102E1
1.679910225E0,4.833000183E0,9.145050049E0,1.471050024E0,1.044767052E1
1.681870761E0,4.872000217E0,9.451050758E0,1.471050024E0,1.073418533E1
1.683831210E0,4.833000183E0,9.681000710E0,1.395000100E0,1.090988959E1
1.685791684E0,4.795050144E0,9.988050461E0,1.203000069E0,1.114454427E1
1.687752099E0,4.564949989E0,1.025595093E1,8.959500194E-1,1.126170610E1
1.689712531E0,4.756950378E0,1.052505016E1,1.050000072E0,1.159774797E1
1.691673234E0,4.795050144E0,1.067805004E1,1.318050027E0,1.177924083E1
1.693633849E0,4.717950344E0,1.090800095E1,1.356000066E0,1.196170039E1
1.695594285E0,4.680000305E0,1.113795090E1,1.395000100E0,1.216151217E1
1.697554774E0,4.717950344E0,1.129095078E1,1.471050024E0,1.232512122E1
1.699515006E0,4.564949989E0,1.152105045E1,1.471050024E0,1.247947756E1
1.701475313E0,4.335000038E0,1.171305084E1,1.432950020E0,1.257144109E1
1.703435860E0,4.182000160E0,1.182795048E1,1.395000100E0,1.262281914E1
1.705396326E0,4.143000126E0,1.194300079E1,1.356000066E0,1.271371127E1
1.707356743E0,4.027950287E0,1.198095036E1,1.395000100E0,1.271666545E1
1.709317174E0,3.874950171E0,1.201905060E1,1.395000100E0,1.270507148E1
1.711277640E0,3.682950258E0,1.205805016E1,1.356000066E0,1.268067160E1
1.713238095E0,3.568050146E0,1.213395023E1,1.203000069E0,1.270476050E1
1.715198408E0,3.453000069E0,1.209600067E1,1.165050030E0,1.263304331E1
1.717158774E0,3.300000191E0,1.205805016E1,9.730500579E-1,1.253927435E1
1.719119251E0,3.108000040E0,1.209600067E1,8.580000401E-1,1.251834896E1
1.721079696E0,2.917050123E0,1.209600067E1,8.200500607E-1,1.246975925E1
1.723040116E0,2.610000134E0,1.198095036E1,5.509500504E-1,1.227431538E1
1.725000544E0,2.341950178E0,1.194300079E1,5.130000114E-1,1.218126297E1
1.726960836E0,2.227050066E0,1.182795048E1,5.130000114E-1,1.204671464E1
1.728921164E0,1.996950150E0,1.178895092E1,4.750500321E-1,1.196632133E1
1.730881512E0,1.804950118E0,1.167405033E1,6.280500293E-1,1.182944390E1
1.732841854E0,1.614000082E0,1.155900097E1,6.660000086E-1,1.169012642E1
1.734802292E0,1.384050012E0,1.144395065E1,6.280500293E-1,1.154443796E1
1.736762701E0,1.230000019E0,1.136805058E1,6.660000086E-1,1.145377798E1
1.738723370E0,1.114950061E0,1.132905006E1,5.509500504E-1,1.139710643E1
1.740683950E0,9.619500637E-1,1.117605019E1,3.220500052E-1,1.122199456E1
1.742644392E0,7.320000529E-1,1.113795090E1,2.449500114E-1,1.116466635E1
1.744604875E0,5.410500169E-1,1.110000038E1,1.300500035E-1,1.111393974E1
1.746565153E0,2.340000123E-1,1.113795090E1,1.680000126E-1,1.114167538E1
1.748525491E0,8.100000024E-2,1.113795090E1,1.300500035E-1,1.113900463E1
1.750486153E0,-3.299999982E-2,1.102305031E1,-1.369500011E-1,1.102395040E1
1.752446720E0,-7.200000435E-2,1.102305031E1,-6.105000153E-2,1.102345450E1
1.754407388E0,-2.250000089E-1,1.113795090E1,5.295000225E-2,1.114034914E1
1.756368027E0,-3.019500077E-1,1.113795090E1,5.295000225E-2,1.114216890E1
1.758328640E0,-3.780000210E-1,1.117605019E1,1.500000060E-2,1.118245084E1
1.760289260E0,-3.780000210E-1,1.117605019E1,-1.759500057E-1,1.118382494E1
1.762249669E0,-5.320500135E-1,1.110000038E1,-4.060500264E-1,1.112016017E1
1.764210126E0,-5.700000525E-1,1.106100082E1,-4.819500148E-1,1.108615872E1
1.766170768E0,-5.320500135E-1,1.098495007E1,-5.590500236E-1,1.101202716E1
1.768131355E0,-5.320500135E-1,1.090800095E1,-4.819500148E-1,1.093159813E1
1.770091975E0,-5.320500135E-1,1.087005043E1,-2.520000041E-1,1.088598078E1
1.772052586E0,-5.700000525E-1,1.083105087E1,-1.759500057E-1,1.084746613E1
1.774013023E0,-5.700000525E-1,1.087005043E1,-2.140500098E-1,1.088708932E1
1.775973511E0,-5.700000525E-1,1.083105087E1,-9.900000691E-2,1.084649086E1
1.777933833E0,-6.469500065E-1,1.087005043E1,-1.369500011E-1,1.089014674E1
1.779894203E0,-6.079500318E-1,1.087005043E1,-2.140500098E-1,1.088914216E1
1.781855040E0,-7.230000496E-1,1.090800095E1,-5.590500236E-1,1.094622084E1
1.783815740E0,-6.079500318E-1,1.083105087E1,-5.590500236E-1,1.086249526E1
1.785776361E0,-5.320500135E-1,1.083105087E1,-5.970000029E-1,1.086053172E1
1.787736991E0,-4.170000255E-1,1.087005043E1,-5.209500194E-1,1.089051304E1
1.789697738E0,-3.019500077E-1,1.071600056E1,-4.440000355E-1,1.072944443E1
1.791658451E0,-2.250000089E-1,1.075500011E1,-4.819500148E-1,1.076814414E1
1.793619230E0,-2.250000089E-1,1.063995075E1,-4.819500148E-1,1.065323673E1
1.795579990E0,-7.200000435E-2,1.056300068E1,-6.360000372E-1,1.058237513E1
1.797540621E0,-3.299999982E-2,1.052505016E1,-7.120500207E-1,1.054916040E1
1.799501294E0,1.189500093E-1,1.044795036E1,-7.510500550E-1,1.047558552E1
1.801461900E0,3.109500110E-1,1.029495049E1,-5.590500236E-1,1.031480646E1
1.803422525E0,3.490500152E-1,1.025595093E1,-4.060500264E-1,1.026991928E1
1.805383094E0,3.490500152E-1,1.014105034E1,-6.739500165E-1,1.016941230E1
1.807343679E0,4.639500082E-1,1.002600002E1,-6.739500165E-1,1.005933073E1
1.809305230E0,6.169500351E-1,9.988050461E0,-5.209500194E-1,1.002063712E1
1.811266508E0,7.699500322E-1,9.796050072E0,-6.360000372E-1,9.846822640E0
1.813226830E0,6.940500140E-1,9.681000710E0,-9.420000315E-1,9.751453441E0
1.815187433E0,8.089500666E-1,9.565950394E0,-9.420000315E-1,9.646199832E0
1.817148185E0,8.089500666E-1,9.412950516E0,-1.057050109E0,9.506597317E0
1.819108893E0,1.000050068E0,9.298050880E0,-9.420000315E-1,9.399000711E0
1.821069358E0,1.039050102E0,9.220950127E0,-8.659500480E-1,9.319625306E0
1.823029895E0,1.114950061E0,9.067950249E0,-9.420000315E-1,9.184671982E0
1.824990658E0,1.230000019E0,8.877000809E0,-7.120500207E-1,8.990053317E0
1.826951354E0,1.269000053E0,8.722949982E0,-7.120500207E-1,8.843485328E0
1.828911957E0,1.306950092E0,8.532000542E0,-6.739500165E-1,8.657791890E0
1.830872587E0,1.345050097E0,8.377950668E0,-6.360000372E-1,8.509037149E0
1.832833211E0,1.345050097E0,8.224950790E0,-7.120500207E-1,8.364567562E0
1.834793860E0,1.345050097E0,8.032950401E0,-6.739500165E-1,8.172616505E0
1.836754426E0,1.306950092E0,7.879950523E0,-6.739500165E-1,8.015980752E0
1.838715016E0,1.306950092E0,7.726950169E0,-6.739500165E-1,7.865626871E0
1.840675455E0,1.306950092E0,7.612050533E0,-7.890000343E-1,7.763630138E0
1.842635939E0,1.306950092E0,7.497000217E0,-9.420000315E-1,7.668148073E0
1.844596256E0,1.306950092E0,7.420050144E0,-1.018950105E0,7.602862750E0
1.846556626E0,1.269000053E0,7.228050232E0,-1.018950105E0,7.409003348E0
1.848517102E0,1.269000053E0,7.152000427E0,-1.018950105E0,7.334829961E0
1.850477547E0,1.192050099E0,7.113000393E0,-1.171950102E0,7.306793077E0
1.852437832E0,1.114950061E0,6.997950554E0,-1.402050018E0,7.223584280E0
1.854398164E0,1.269000053E0,6.997950554E0,-1.402050018E0,7.248959742E0
1.856358842E0,1.230000019E0,7.036950111E0,-1.287000060E0,7.258645609E0
1.858319408E0,1.230000019E0,6.960000515E0,-1.171950102E0,7.164354420E0
1.860279987E0,1.153950095E0,6.997950554E0,-9.810000658E-1,7.159977228E0
1.862240562E0,1.077000022E0,6.997950554E0,-8.269500136E-1,7.128470195E0
1.864201230E0,1.114950061E0,6.997950554E0,-7.890000343E-1,7.130003271E0
1.866161870E0,1.077000022E0,6.960000515E0,-7.510500550E-1,7.082768696E0
1.868122482E0,1.039050102E0,6.960000515E0,-7.120500207E-1,7.073064931E0
1.870083103E0,9.619500637E-1,6.997950554E0,-7.510500550E-1,7.103572064E0
1.872043357E0,8.850000501E-1,6.997950554E0,-9.040500522E-1,7.111388299E0
1.874003718E0,8.470500112E-1,7.036950111E0,-9.810000658E-1,7.155314229E0
1.875964196E0,8.470500112E-1,7.075050354E0,-1.018950105E0,7.198061583E0
1.877924639E0,8.089500666E-1,7.113000393E0,-1.096050024E0,7.242271774E0
1.879885230E0,8.089500666E-1,7.189950466E0,-1.057050109E0,7.312123006E0
1.881845784E0,7.320000529E-1,7.228050232E0,-1.057050109E0,7.341518179E0
1.883806590E0,6.550500393E-1,7.189950466E0,-1.096050024E0,7.302451911E0
1.885767322E0,7.320000529E-1,7.228050232E0,-1.134000063E0,7.352991934E0
1.887727738E0,6.550500393E-1,7.305000305E0,-1.249050021E0,7.439909003E0
1.889688247E0,6.550500393E-1,7.342950344E0,-1.287000060E0,7.483607383E0
1.891648701E0,6.550500393E-1,7.381950378E0,-1.363950014E0,7.535425773E0
1.893609171E0,6.550500393E-1,7.458000183E0,-1.210950017E0,7.584013267E0
1.895569675E0,6.550500393E-1,7.573050499E0,-1.096050024E0,7.679942062E0
1.897530169E0,6.940500140E-1,7.726950169E0,-1.096050024E0,7.835099871E0
1.899490760E0,7.320000529E-1,7.765050411E0,-1.057050109E0,7.870780577E0
1.901451322E0,7.320000529E-1,7.842000484E0,-1.171950102E0,7.962804953E0
1.903411975E0,7.699500322E-1,7.918050289E0,-1.287000060E0,8.058828239E0
1.905372581E0,7.320000529E-1,7.957050323E0,-1.363950014E0,8.106221905E0
1.907333198E0,7.699500322E-1,7.995000362E0,-1.441050053E0,8.160237687E0
1.909293812E0,8.089500666E-1,8.032950401E0,-1.479000092E0,8.207931142E0
1.911254473E0,7.699500322E-1,8.071949959E0,-1.441050053E0,8.235643535E0
1.913215120E0,7.320000529E-1,8.110050201E0,-1.555950046E0,8.290338889E0
1.915175700E0,7.320000529E-1,8.110050201E0,-1.632000089E0,8.304948082E0
1.917136290E0,8.089500666E-1,8.148000717E0,-1.594050050E0,8.341781072E0
1.919096730E0,7.320000529E-1,8.110050201E0,-1.555950046E0,8.290338889E0
1.921057214E0,7.699500322E-1,8.187000275E0,-1.516950130E0,8.361873848E0
1.923017850E0,7.699500322E-1,8.148000717E0,-1.516950130E0,8.323693678E0
1.924978442E0,7.699500322E-1,8.224950790E0,-1.594050050E0,8.413301024E0
1.926939256E0,6.550500393E-1,8.187000275E0,-1.671000123E0,8.381426219E0
1.928899995E0,6.169500351E-1,8.148000717E0,-1.671000123E0,8.340430711E0
1.930860995E0,6.940500140E-1,8.148000717E0,-1.671000123E0,8.346488035E0
1.932821918E0,6.550500393E-1,8.110050201E0,-1.671000123E0,8.306277520E0
1.934782797E0,5.410500169E-1,8.110050201E0,-1.671000123E0,8.298065485E0
1.936743689E0,6.169500351E-1,8.110050201E0,-1.555950046E0,8.280973503E0
1.938704132E0,6.169500351E-1,8.032950401E0,-1.632000089E0,8.220239886E0
1.940664699E0,5.790000558E-1,8.032950401E0,-1.594050050E0,8.210026113E0
1.942624602E0,4.639500082E-1,7.957050323E0,-1.555950046E0,8.121014715E0
1.944584699E0,4.260000288E-1,7.957050323E0,-1.555950046E0,8.118935055E0
1.946545402E0,3.490500152E-1,7.957050323E0,-1.555950046E0,8.115261321E0
1.948505928E0,3.490500152E-1,7.918050289E0,-1.516950130E0,8.069603088E0
1.950466514E0,3.870000243E-1,7.918050289E0,-1.479000092E0,8.064287363E0
1.952427082E0,3.870000243E-1,7.918050289E0,-1.594050050E0,8.086178638E0
1.954387751E0,5.020500422E-1,7.995000362E0,-1.555950046E0,8.160457437E0
1.956348390E0,4.639500082E-1,8.071949959E0,-1.555950046E0,8.233626558E0
1.958308822E0,3.870000243E-1,8.071949959E0,-1.555950046E0,8.229649185E0
1.960269315E0,3.490500152E-1,8.071949959E0,-1.479000092E0,8.213747824E0
1.962229909E0,3.490500152E-1,8.071949959E0,-1.516950130E0,8.220666016E0
1.964190470E0,2.719500065E-1,8.187000275E0,-1.479000092E0,8.323963694E0
1.966150781E0,2.719500065E-1,8.148000717E0,-1.479000092E0,8.285608835E0
1.968111165E0,2.340000123E-1,8.148000717E0,-1.441050053E0,8.277759174E0
1.970071774E0,2.340000123E-1,8.148000717E0,-1.402050018E0,8.271058937E0
1.972032317E0,1.960500032E-1,8.110050201E0,-1.363950014E0,8.226281634E0
1.973992571E0,1.189500093E-1,8.148000717E0,-1.287000060E0,8.249874784E0
1.975952920E0,1.189500093E-1,8.148000717E0,-1.057050109E0,8.217141822E0
1.977913265E0,8.100000024E-2,8.148000717E0,-1.287000060E0,8.249414879E0
1.979873612E0,8.100000024E-2,8.187000275E0,-1.326000094E0,8.294082876E0
1.981833913E0,4.050000105E-3,8.148000717E0,-1.326000094E0,8.255192811E0
1.983794228E0,4.050000105E-3,8.187000275E0,-1.326000094E0,8.293688332E0
1.985754704E0,-3.299999982E-2,8.224950790E0,-1.287000060E0,8.325099018E0
1.987715139E0,-3.299999982E-2,8.224950790E0,-1.249050021E0,8.319316706E0
1.989675920E0,-3.299999982E-2,8.224950790E0,-1.326000094E0,8.331217243E0
1.991636600E0,-7.200000435E-2,8.187000275E0,-1.249050021E0,8.282045850E0
1.993597251E0,-7.200000435E-2,8.224950790E0,-1.326000094E0,8.331463002E0
1.995557910E0,-1.099500060E-1,8.187000275E0,-1.363950014E0,8.300567580E0
1.997518338E0,-1.480500102E-1,8.224950790E0,-1.441050053E0,8.351548333E0
1.999478833E0,-1.870500147E-1,8.148000717E0,-1.441050053E0,8.276565027E0
2.001439244E0,-1.480500102E-1,8.148000717E0,-1.363950014E0,8.262698962E0
2.003399679E0,-1.870500147E-1,8.187000275E0,-1.441050053E0,8.314961603E0
2.005360324E0,-1.099500060E-1,8.148000717E0,-1.402050018E0,8.268479240E0
2.007320908E0,-1.480500102E-1,8.224950790E0,-1.363950014E0,8.338590645E0
2.009281219E0,-1.099500060E-1,8.224950790E0,-1.326000094E0,8.331877385E0
2.011241607E0,-1.099500060E-1,8.263050079E0,-1.287000060E0,8.363399714E0
2.013201856E0,-7.200000435E-2,8.263050079E0,-1.326000094E0,8.369077420E0
2.015162146E0,-7.200000435E-2,8.302050591E0,-1.402050018E0,8.419915217E0
2.017122501E0,-7.200000435E-2,8.377950668E0,-1.402050018E0,8.494762248E0
2.019082836E0,-1.480500102E-1,8.455050468E0,-1.402050018E0,8.571787531E0
2.021043479E0,-1.480500102E-1,8.532000542E0,-1.479000092E0,8.660507683E0
2.023004014E0,-1.099500060E-1,8.647050858E0,-1.516950130E0,8.779790159E0
2.024964509E0,-1.480500102E-1,8.761950493E0,-1.555950046E0,8.900262681E0
2.026925016E0,-1.870500147E-1,8.914950371E0,-1.594050050E0,9.058273753E0
2.028885470E0,-1.870500147E-1,8.991000175E0,-1.632000089E0,9.139830204E0
2.030845939E0,-1.870500147E-1,9.145050049E0,-1.708950043E0,9.305237146E0
2.032806345E0,-1.480500102E-1,9.220950127E0,-1.786050081E0,9.393498546E0
2.034766776E0,-1.480500102E-1,9.298050880E0,-1.824000120E0,9.476425772E0
2.036727467E0,-7.200000435E-2,9.375000000E0,-1.861950040E0,9.558382026E0
2.038688082E0,4.050000105E-3,9.412950516E0,-1.861950040E0,9.595338022E0
2.040648698E0,8.100000024E-2,9.412950516E0,-1.708950043E0,9.567168268E0
2.042609313E0,1.960500032E-1,9.336000443E0,-1.632000089E0,9.479597257E0
2.044570104E0,3.109500110E-1,9.298050880E0,-1.632000089E0,9.445309120E0
2.046530846E0,3.490500152E-1,9.220950127E0,-1.632000089E0,9.370762052E0
2.048491620E0,4.639500082E-1,9.259950638E0,-1.671000123E0,9.420943522E0
2.050452385E0,4.639500082E-1,9.336000443E0,-1.632000089E0,9.488918704E0
2.052413155E0,3.870000243E-1,9.451050758E0,-1.671000123E0,9.605434444E0
2.054373923E0,3.870000243E-1,9.528000832E0,-1.747050047E0,9.694573365E0
2.056334688E0,3.490500152E-1,9.604950905E0,-1.747050047E0,9.768781995E0
2.058295457E0,3.109500110E-1,9.720000267E0,-1.747050047E0,9.880651748E0
2.060255867E0,2.340000123E-1,9.796050072E0,-1.708950043E0,9.946751392E0
2.062216382E0,1.960500032E-1,9.949950218E0,-1.708950043E0,1.009754699E1
2.064176834E0,4.200000316E-2,1.006500053E1,-1.824000120E0,1.022902616E1
2.066137305E0,-3.299999982E-2,1.014105034E1,-1.708950043E0,1.028408971E1
2.068097894E0,-1.099500060E-1,1.021800041E1,-1.555950046E0,1.033637277E1
2.070058452E0,-1.870500147E-1,1.033305073E1,-1.516950130E0,1.044548049E1
2.072018943E0,-3.019500077E-1,1.037100029E1,-1.516950130E0,1.048570258E1
2.073979454E0,-4.170000255E-1,1.048605061E1,-1.632000089E0,1.062047883E1
2.075939907E0,-4.170000255E-1,1.044795036E1,-1.479000092E0,1.056035023E1
2.077900377E0,-4.930500090E-1,1.048605061E1,-1.516950130E0,1.060667211E1
2.079860842E0,-6.079500318E-1,1.056300068E1,-1.441050053E0,1.067816519E1
2.081821305E0,-6.469500065E-1,1.056300068E1,-1.516950130E0,1.069096185E1
2.083781766E0,-7.230000496E-1,1.056300068E1,-1.555950046E0,1.070143415E1
2.085742228E0,-7.230000496E-1,1.056300068E1,-1.632000089E0,1.071275579E1
2.087703004E0,-7.999500632E-1,1.063995075E1,-1.516950130E0,1.077727284E1
2.089663688E0,-8.770500422E-1,1.060095024E1,-1.479000092E0,1.073949738E1
2.091624097E0,-8.770500422E-1,1.067805004E1,-1.824000120E0,1.086816203E1
2.093584598E0,-9.150000215E-1,1.067805004E1,-1.861950040E0,1.087772199E1
2.095545098E0,-9.919500351E-1,1.075500011E1,-1.786050081E0,1.094732694E1
2.097505598E0,-9.150000215E-1,1.079295063E1,-1.824000120E0,1.098416974E1
2.099466053E0,-9.529500604E-1,1.087005043E1,-1.900950074E0,1.107608782E1
2.101426521E0,-9.529500604E-1,1.094595051E1,-1.939050078E0,1.115714397E1
2.103387146E0,-9.919500351E-1,1.106100082E1,-2.053950071E0,1.129373344E1
2.105347735E0,-9.919500351E-1,1.110000038E1,-2.169000149E0,1.135334906E1
2.107308536E0,-9.150000215E-1,1.117605019E1,-2.322000027E0,1.145133210E1
2.109269274E0,-9.529500604E-1,1.121400070E1,-2.398950100E0,1.150725368E1
2.111230184E0,-9.529500604E-1,1.125300026E1,-2.514000177E0,1.156971588E1
2.113191043E0,-9.529500604E-1,1.125300026E1,-2.551950216E0,1.157802136E1
2.115151663E0,-9.919500351E-1,1.129095078E1,-2.704950094E0,1.165273742E1
2.117112353E0,-9.529500604E-1,1.129095078E1,-2.782050133E0,1.166762556E1
2.119073134E0,-1.030050039E0,1.125300026E1,-2.859000206E0,1.165610999E1
2.121033889E0,-9.529500604E-1,1.125300026E1,-2.896950245E0,1.165892145E1
2.122994437E0,-9.919500351E-1,1.125300026E1,-3.088950157E0,1.171134462E1
2.124955045E0,-1.030050039E0,1.121400070E1,-3.127050161E0,1.168731182E1
2.126915846E0,-1.030050039E0,1.117605019E1,-3.204000235E0,1.167179157E1
2.128876587E0,-1.068000078E0,1.113795090E1,-3.357000113E0,1.168178172E1
2.130837406E0,-1.106999993E0,1.106100082E1,-3.433950186E0,1.163456927E1
2.132798202E0,-1.222050071E0,1.102305031E1,-3.472050190E0,1.162136726E1
2.134758968E0,-1.183050036E0,1.098495007E1,-3.549000263E0,1.160448785E1
2.136719743E0,-1.260000110E0,1.094595051E1,-3.586950064E0,1.158739158E1
2.138680480E0,-1.297950029E0,1.087005043E1,-3.549000263E0,1.150817420E1
2.140641218E0,-1.375050068E0,1.087005043E1,-3.510000229E0,1.150516669E1
2.142602036E0,-1.413000107E0,1.079295063E1,-3.472050190E0,1.142538775E1
2.144562831E0,-1.528050065E0,1.083105087E1,-3.433950186E0,1.146466807E1
2.146523417E0,-1.567050099E0,1.075500011E1,-3.357000113E0,1.137519772E1
2.148484064E0,-1.681950092E0,1.075500011E1,-3.319050074E0,1.138046910E1
2.150444989E0,-1.681950092E0,1.079295063E1,-3.204000235E0,1.138342466E1
2.152405832E0,-1.795950055E0,1.079295063E1,-3.088950157E0,1.136902955E1
2.154366589E0,-1.795950055E0,1.079295063E1,-3.012000084E0,1.134836395E1
2.156327372E0,-1.873050094E0,1.087005043E1,-2.896950245E0,1.140432522E1
2.158288139E0,-1.911000133E0,1.094595051E1,-2.820000172E0,1.146377577E1
2.160248910E0,-1.987950087E0,1.102305031E1,-2.743950129E0,1.153207900E1
2.162209504E0,-1.911000133E0,1.106100082E1,-2.590050220E0,1.151980993E1
2.164170146E0,-1.950000048E0,1.117605019E1,-2.551950216E0,1.162837254E1
2.166130801E0,-1.987950087E0,1.121400070E1,-2.514000177E0,1.166301651E1
2.168091452E0,-1.950000048E0,1.129095078E1,-2.514000177E0,1.173065499E1
2.170052377E0,-1.911000133E0,1.129095078E1,-2.437050104E0,1.170797609E1
2.172013221E0,-1.795950055E0,1.132905006E1,-2.475000143E0,1.173449776E1
2.173973876E0,-1.795950055E0,1.129095078E1,-2.514000177E0,1.170603276E1
2.175934564E0,-1.681950092E0,1.136805058E1,-2.475000143E0,1.175530330E1
2.177895346E0,-1.605000019E0,1.136805058E1,-2.475000143E0,1.174454021E1
2.179856100E0,-1.489950061E0,1.140600014E1,-2.475000143E0,1.176615553E1
2.181817053E0,-1.413000107E0,1.136805058E1,-2.475000143E0,1.171984509E1
2.183777947E0,-1.336950064E0,1.132905006E1,-2.475000143E0,1.167306457E1
2.185738836E0,-1.222050071E0,1.125300026E1,-2.437050104E0,1.157854198E1
2.187699723E0,-1.068000078E0,1.121400070E1,-2.322000027E0,1.150157033E1
2.189660336E0,-9.919500351E-1,1.113795090E1,-2.245050192E0,1.140518152E1
2.191621030E0,-8.770500422E-1,1.113795090E1,-2.169000149E0,1.138102494E1
2.193581587E0,-7.999500632E-1,1.113795090E1,-2.092050076E0,1.136092179E1
2.195542184E0,-7.230000496E-1,1.094595051E1,-2.169000149E0,1.118217882E1
2.197502778E0,-6.469500065E-1,1.090800095E1,-2.092050076E0,1.112563268E1
2.199463389E0,-5.320500135E-1,1.087005043E1,-1.939050078E0,1.105445561E1
2.201424005E0,-5.320500135E-1,1.079295063E1,-1.747050047E0,1.094637129E1
2.203384620E0,-5.320500135E-1,1.079295063E1,-1.671000123E0,1.093449139E1
2.205345416E0,-4.170000255E-1,1.079295063E1,-1.516950130E0,1.090700738E1
2.207306158E0,-4.549500346E-1,1.071600056E1,-1.441050053E0,1.082202720E1
2.209266972E0,-4.170000255E-1,1.071600056E1,-1.363950014E0,1.081050029E1
2.211227769E0,-3.780000210E-1,1.067805004E1,-1.171950102E0,1.074881871E1
2.213188489E0,-3.400500119E-1,1.067805004E1,-1.096050024E0,1.073953967E1
2.215149232E0,-3.019500077E-1,1.063995075E1,-9.810000658E-1,1.068934455E1
2.217110005E0,-2.250000089E-1,1.063995075E1,-9.040500522E-1,1.068065932E1
2.219070769E0,-1.480500102E-1,1.060095024E1,-7.510500550E-1,1.062855310E1
2.221031544E0,-1.099500060E-1,1.056300068E1,-6.739500165E-1,1.058504988E1
2.222992312E0,-3.299999982E-2,1.056300068E1,-6.739500165E-1,1.058453027E1
2.224953082E0,8.100000024E-2,1.056300068E1,-4.819500148E-1,1.057429998E1
2.226913851E0,1.189500093E-1,1.060095024E1,-2.910000086E-1,1.060561060E1
2.228874665E0,1.570500135E-1,1.067805004E1,-9.900000691E-2,1.067966378E1
2.230835466E0,2.340000123E-1,1.063995075E1,-2.205000073E-2,1.064254642E1
2.232796250E0,3.490500152E-1,1.071600056E1,2.449500114E-1,1.072448154E1
2.234757026E0,4.260000288E-1,1.071600056E1,2.070000172E-1,1.072646228E1
2.236718153E0,5.790000558E-1,1.079295063E1,2.070000172E-1,1.081045204E1
2.238679177E0,6.940500140E-1,1.079295063E1,3.220500052E-1,1.082003720E1
2.240639859E0,7.699500322E-1,1.090800095E1,5.130000114E-1,1.094716752E1
2.242600641E0,9.619500637E-1,1.094595051E1,4.750500321E-1,1.099840229E1
2.244561408E0,1.114950061E0,1.098495007E1,4.360500276E-1,1.104999462E1
2.246522179E0,1.230000019E0,1.113795090E1,5.509500504E-1,1.121919766E1
2.248482992E0,1.306950092E0,1.113795090E1,5.509500504E-1,1.122789449E1
2.250443793E0,1.422000051E0,1.121400070E1,5.899500251E-1,1.131918446E1
2.252404378E0,1.651950121E0,1.129095078E1,6.660000086E-1,1.143057587E1
2.254365026E0,1.767000079E0,1.136805058E1,7.050000429E-1,1.152613935E1
2.256326130E0,1.920000076E0,1.144395065E1,7.810500264E-1,1.163015245E1
2.258287101E0,2.074050188E0,1.148295021E1,7.810500264E-1,1.169486506E1
2.260248017E0,2.227050066E0,1.152105045E1,8.200500607E-1,1.176294341E1
2.262208949E0,2.494950056E0,1.155900097E1,9.730500579E-1,1.186516353E1
2.264170094E0,2.572050095E0,1.148295021E1,1.011000037E0,1.181083013E1
2.266131177E0,2.725050211E0,1.140600014E1,1.050000072E0,1.177392194E1
2.268092074E0,2.839950085E0,1.132905006E1,1.165050030E0,1.173754802E1
2.270053026E0,2.992950201E0,1.125300026E1,1.240950108E0,1.171015469E1
2.272014303E0,3.108000040E0,1.110000038E1,1.279950023E0,1.159775602E1
2.273975485E0,3.262050152E0,1.098495007E1,1.356000066E0,1.153901362E1
2.275936679E0,3.376950264E0,1.083105087E1,1.471050024E0,1.144025543E1
2.277897870E0,3.415050268E0,1.063995075E1,1.395000100E0,1.126131190E1
2.279858779E0,3.529950142E0,1.041000080E1,1.471050024E0,1.109020527E1
2.281819781E0,3.607050180E0,1.025595093E1,1.510050058E0,1.097613737E1
2.283780870E0,3.645000219E0,1.006500053E1,1.510050058E0,1.081066666E1
2.285741933E0,3.721950293E0,9.796050072E0,1.510050058E0,1.058752861E1
2.287702653E0,3.721950293E0,9.643050194E0,1.510050058E0,1.044612762E1
2.289663473E0,3.721950293E0,9.412950516E0,1.510050058E0,1.023409999E1
2.291624371E0,3.607050180E0,9.220950127E0,1.510050058E0,1.001583663E1
2.293585244E0,3.529950142E0,9.030000687E0,1.510050058E0,9.812324474E0
2.295546221E0,3.529950142E0,8.800050735E0,1.510050058E0,9.601129732E0
2.297507168E0,3.492000103E0,8.647050858E0,1.510050058E0,9.446999758E0
2.299468402E0,3.453000069E0,8.455050468E0,1.471050024E0,9.250679763E0
2.301429552E0,3.415050268E0,8.302050591E0,1.471050024E0,9.096735707E0
2.303390288E0,3.376950264E0,8.148000717E0,1.471050024E0,8.941906785E0
2.305351156E0,3.300000191E0,7.995000362E0,1.432950020E0,8.767176160E0
2.307312223E0,3.184950113E0,7.842000484E0,1.471050024E0,8.590975905E0
2.309273231E0,3.031950235E0,7.726950169E0,1.471050024E0,8.429855830E0
2.311233960E0,2.955000162E0,7.534950256E0,1.395000100E0,8.213009595E0
2.313194771E0,2.878050089E0,7.420050144E0,1.471050024E0,8.093472965E0
2.315155717E0,2.878050089E0,7.342950344E0,1.432950020E0,8.015948966E0
2.317116620E0,2.839950085E0,7.228050232E0,1.395000100E0,7.890250434E0
2.319077547E0,2.839950085E0,7.152000427E0,1.395000100E0,7.820642677E0
2.321038466E0,2.802000046E0,7.075050354E0,1.432950020E0,7.743441582E0
2.322999435E0,2.764050245E0,7.036950111E0,1.471050024E0,7.702118462E0
2.324960389E0,2.572050095E0,7.113000393E0,1.471050024E0,7.705465882E0
2.326921128E0,2.533950090E0,7.152000427E0,1.471050024E0,7.728906866E0
2.328881930E0,2.457000017E0,7.189950466E0,1.471050024E0,7.739265144E0
2.330843053E0,2.341950178E0,7.267050266E0,1.510050058E0,7.782994372E0
2.332804082E0,2.341950178E0,7.305000305E0,1.510050058E0,7.818440463E0
2.334764943E0,2.341950178E0,7.381950378E0,1.510050058E0,7.890384858E0
2.336725853E0,2.304000139E0,7.458000183E0,1.510050058E0,7.950499013E0
2.338686472E0,2.265000105E0,7.534950256E0,1.471050024E0,8.004354378E0
2.340647170E0,2.265000105E0,7.650000572E0,1.471050024E0,8.112750606E0
2.342608085E0,2.188950062E0,7.765050411E0,1.510050058E0,8.207786635E0
2.344568937E0,2.074050188E0,7.918050289E0,1.471050024E0,8.316320865E0
2.346529917E0,2.111999989E0,8.032950401E0,1.471050024E0,8.435213351E0
2.348490860E0,2.074050188E0,8.071949959E0,1.471050024E0,8.462981064E0
2.350451596E0,2.074050188E0,8.187000275E0,1.510050058E0,8.579563442E0
2.352412396E0,2.227050066E0,8.302050591E0,1.510050058E0,8.727201567E0
2.354373160E0,2.188950062E0,8.455050468E0,1.624950051E0,8.883684116E0
2.356333935E0,1.882050037E0,8.647050858E0,1.585950017E0,8.990485990E0
2.358294837E0,1.614000082E0,8.877000809E0,1.585950017E0,9.160861154E0
2.360255702E0,1.422000051E0,8.953050613E0,1.585950017E0,9.202958051E0
2.362216301E0,1.459950089E0,9.106050491E0,1.548000097E0,9.351358945E0
2.364176992E0,1.422000051E0,9.220950127E0,1.585950017E0,9.463785862E0
2.366137773E0,1.384050012E0,9.336000443E0,1.585950017E0,9.570357159E0
2.368098528E0,1.345050097E0,9.565950394E0,1.510050058E0,9.777362521E0
2.370059121E0,1.306950092E0,9.720000267E0,1.510050058E0,9.923042624E0
2.372019761E0,1.306950092E0,9.835050583E0,1.510050058E0,1.003576553E1
2.373980562E0,1.192050099E0,9.988050461E0,1.510050058E0,1.017164621E1
2.375941308E0,1.039050102E0,1.002600002E1,1.471050024E0,1.018647583E1
2.377902037E0,9.240000248E-1,1.014105034E1,1.471050024E0,1.028876408E1
2.379862771E0,8.470500112E-1,1.021800041E1,1.395000100E0,1.034751426E1
2.381823366E0,8.850000501E-1,1.021800041E1,1.318050027E0,1.034060024E1
2.383784002E0,9.240000248E-1,1.025595093E1,1.279950023E0,1.037673251E1
2.385744466E0,9.240000248E-1,1.033305073E1,1.240950108E0,1.044823768E1
2.387704958E0,9.619500637E-1,1.029495049E1,1.318050027E0,1.042346436E1
2.389665234E0,8.470500112E-1,1.037100029E1,1.318050027E0,1.048867945E1
2.391625573E0,6.169500351E-1,1.037100029E1,1.279950023E0,1.046788166E1
2.393586415E0,6.550500393E-1,1.037100029E1,1.203000069E0,1.046106814E1
2.395547110E0,6.550500393E-1,1.037100029E1,1.240950108E0,1.046550021E1
2.397507873E0,6.169500351E-1,1.041000080E1,1.279950023E0,1.050652255E1
2.399468629E0,6.550500393E-1,1.033305073E1,1.165050030E0,1.041913478E1
2.401429086E0,7.320000529E-1,1.033305073E1,1.165050030E0,1.042425551E1
2.403389631E0,7.699500322E-1,1.033305073E1,1.203000069E0,1.043129760E1
2.405350393E0,8.089500666E-1,1.029495049E1,1.165050030E0,1.039219646E1
2.407311091E0,7.320000529E-1,1.029495049E1,1.165050030E0,1.038648984E1
2.409271896E0,7.320000529E-1,1.018005085E1,1.087950110E0,1.026415583E1
2.411232653E0,8.089500666E-1,1.010295010E1,1.050000072E0,1.018952899E1
2.413193425E0,7.699500322E-1,1.006500053E1,1.050000072E0,1.014886984E1
2.415154192E0,8.470500112E-1,9.988050461E0,9.730500579E-1,1.007102141E1
2.417114647E0,9.240000248E-1,9.835050583E0,9.349500537E-1,9.922506116E0
2.419075194E0,8.850000501E-1,9.796050072E0,8.580000401E-1,9.873296621E0
2.421035775E0,9.240000248E-1,9.720000267E0,7.429500222E-1,9.792045546E0
2.422996346E0,9.619500637E-1,9.643050194E0,7.429500222E-1,9.719348728E0
2.424956835E0,1.000050068E0,9.565950394E0,6.660000086E-1,9.641113166E0
2.426917348E0,1.039050102E0,9.490050316E0,6.280500293E-1,9.567399174E0
2.428877979E0,1.039050102E0,9.451050758E0,5.899500251E-1,9.526280837E0
2.430838576E0,1.077000022E0,9.412950516E0,5.509500504E-1,9.490369456E0
2.432799011E0,1.077000022E0,9.375000000E0,5.509500504E-1,9.452729765E0
2.434759497E0,1.114950061E0,9.375000000E0,5.130000114E-1,9.454993794E0
2.436719774E0,1.114950061E0,9.375000000E0,4.360500276E-1,9.451131057E0
2.438680112E0,1.230000019E0,9.336000443E0,4.360500276E-1,9.426767417E0
2.440640729E0,1.269000053E0,9.336000443E0,3.979500234E-1,9.430250772E0
2.442601264E0,1.306950092E0,9.336000443E0,3.220500052E-1,9.432536192E0
2.444562254E0,1.306950092E0,9.259950638E0,3.979500234E-1,9.360190627E0
2.446523110E0,1.345050097E0,9.220950127E0,4.360500276E-1,9.328730923E0
2.448484045E0,1.422000051E0,9.220950127E0,3.220500052E-1,9.335508641E0
2.450444956E0,1.384050012E0,9.145050049E0,3.220500052E-1,9.254796110E0
2.452405567E0,1.384050012E0,9.067950249E0,4.360500276E-1,9.183324876E0
2.454366266E0,1.384050012E0,9.067950249E0,3.979500234E-1,9.181594653E0
2.456327176E0,1.422000051E0,9.030000687E0,4.360500276E-1,9.151673955E0
2.458288028E0,1.384050012E0,9.030000687E0,4.360500276E-1,9.145854059E0
2.460248784E0,1.384050012E0,9.030000687E0,5.130000114E-1,9.149845673E0
2.462209569E0,1.384050012E0,9.030000687E0,4.750500321E-1,9.147796421E0
2.464170379E0,1.384050012E0,9.067950249E0,5.509500504E-1,9.189497380E0
2.466131182E0,1.459950089E0,9.067950249E0,5.899500251E-1,9.203652373E0
2.468091951E0,1.384050012E0,8.991000175E0,6.280500293E-1,9.118559394E0
2.470052727E0,1.345050097E0,8.991000175E0,5.899500251E-1,9.110174803E0
2.472013495E0,1.345050097E0,9.067950249E0,6.280500293E-1,9.188652149E0
2.473974266E0,1.384050012E0,9.106050491E0,6.660000086E-1,9.234679529E0
2.475934855E0,1.345050097E0,9.145050049E0,7.050000429E-1,9.270281831E0
2.477895497E0,1.345050097E0,9.145050049E0,7.050000429E-1,9.270281831E0
2.479856417E0,1.306950092E0,9.183000565E0,8.200500607E-1,9.311718424E0
2.481817259E0,1.306950092E0,9.259950638E0,7.429500222E-1,9.381192840E0
2.483777882E0,1.306950092E0,9.220950127E0,7.810500264E-1,9.345805419E0
2.485738569E0,1.230000019E0,9.220950127E0,7.810500264E-1,9.335355399E0
2.487699126E0,1.306950092E0,9.298050880E0,8.580000401E-1,9.428575332E0
2.489659722E0,1.306950092E0,9.336000443E0,8.200500607E-1,9.462637313E0
2.491620336E0,1.269000053E0,9.298050880E0,7.810500264E-1,9.416695304E0
2.493580947E0,1.230000019E0,9.336000443E0,8.959500194E-1,9.459203494E0
2.495541608E0,1.230000019E0,9.375000000E0,7.810500264E-1,9.487547849E0
2.497502255E0,1.306950092E0,9.336000443E0,7.810500264E-1,9.459337289E0
2.499463045E0,1.269000053E0,9.298050880E0,7.810500264E-1,9.416695304E0
2.501423793E0,1.306950092E0,9.298050880E0,8.200500607E-1,9.425197654E0
2.503384377E0,1.269000053E0,9.298050880E0,9.730500579E-1,9.434560813E0
2.505345016E0,1.306950092E0,9.375000000E0,9.730500579E-1,9.515543598E0
2.507305807E0,1.306950092E0,9.336000443E0,9.730500579E-1,9.477122412E0
2.509266553E0,1.306950092E0,9.375000000E0,9.349500537E-1,9.511723038E0
2.511227147E0,1.306950092E0,9.412950516E0,8.959500194E-1,9.545390636E0
2.513187785E0,1.306950092E0,9.375000000E0,8.959500194E-1,9.507968762E0
2.515148521E0,1.306950092E0,9.451050758E0,8.959500194E-1,9.582964334E0
2.517109235E0,1.306950092E0,9.490050316E0,8.580000401E-1,9.617969516E0
2.519069835E0,1.306950092E0,9.490050316E0,8.200500607E-1,9.614658374E0
2.521030468E0,1.269000053E0,9.412950516E0,8.959500194E-1,9.540268601E0
2.522991620E0,1.269000053E0,9.412950516E0,7.810500264E-1,9.530164620E0
2.524952620E0,1.230000019E0,9.375000000E0,8.200500607E-1,9.490838064E0
2.526913396E0,1.269000053E0,9.375000000E0,8.580000401E-1,9.499323671E0
2.528874237E0,1.306950092E0,9.451050758E0,8.200500607E-1,9.576166304E0
2.530835308E0,1.306950092E0,9.451050758E0,8.959500194E-1,9.582964334E0
2.532796312E0,1.269000053E0,9.451050758E0,8.200500607E-1,9.571060739E0
2.534757267E0,1.269000053E0,9.490050316E0,7.810500264E-1,9.606323713E0
2.536718237E0,1.306950092E0,9.528000832E0,8.200500607E-1,9.652118964E0
2.538679157E0,1.306950092E0,9.565950394E0,7.050000429E-1,9.680524290E0
2.540640088E0,1.306950092E0,9.528000832E0,6.660000086E-1,9.640252818E0
2.542600830E0,1.269000053E0,9.528000832E0,5.899500251E-1,9.630223363E0
2.544561627E0,1.269000053E0,9.490050316E0,6.280500293E-1,9.595095777E0
2.546522346E0,1.269000053E0,9.528000832E0,5.509500504E-1,9.627912907E0
2.548483088E0,1.230000019E0,9.528000832E0,5.130000114E-1,9.620751993E0
2.550443697E0,1.192050099E0,9.490050316E0,5.130000114E-1,9.578371858E0
2.552404334E0,1.114950061E0,9.451050758E0,4.360500276E-1,9.526574080E0
2.554364946E0,1.114950061E0,9.451050758E0,3.979500234E-1,9.524906209E0
2.556325565E0,1.153950095E0,9.336000443E0,3.979500234E-1,9.415459060E0
2.558286899E0,1.192050099E0,9.220950127E0,3.600000143E-1,9.304649627E0
2.560248024E0,1.114950061E0,9.183000565E0,2.830500007E-1,9.254767977E0
2.562208893E0,1.039050102E0,9.030000687E0,3.220500052E-1,9.095287446E0
2.564169852E0,1.039050102E0,8.991000175E0,2.449500114E-1,9.054154283E0
2.566130769E0,1.039050102E0,8.953050613E0,2.070000172E-1,9.015519364E0
2.568091699E0,1.039050102E0,8.953050613E0,1.680000126E-1,9.014708226E0
2.570052665E0,1.000050068E0,8.953050613E0,9.195000678E-2,9.009199200E0
2.572013620E0,9.619500637E-1,8.991000175E0,1.300500035E-1,9.043248591E0
2.573974539E0,9.240000248E-1,8.914950371E0,9.195000678E-2,8.963178619E0
2.575935468E0,8.470500112E-1,8.877000809E0,1.500000060E-2,8.917334920E0
2.577896209E0,7.699500322E-1,8.800050735E0,5.295000225E-2,8.833828145E0
2.579857006E0,7.320000529E-1,8.877000809E0,1.500000060E-2,8.907142776E0
2.581817545E0,6.940500140E-1,8.838000298E0,5.295000225E-2,8.865368486E0
2.583778160E0,6.550500393E-1,8.685000420E0,-6.105000153E-2,8.709882315E0
2.585738073E0,6.550500393E-1,8.685000420E0,-1.759500057E-1,8.711445417E0
2.587698179E0,5.410500169E-1,8.800050735E0,9.195000678E-2,8.817147094E0
2.589658881E0,3.870000243E-1,8.877000809E0,-2.205000073E-2,8.885459953E0
2.591619408E0,3.490500152E-1,8.838000298E0,-2.205000073E-2,8.844917827E0
2.593580264E0,3.109500110E-1,8.877000809E0,-1.369500011E-1,8.883500919E0
2.595541023E0,2.719500065E-1,8.800050735E0,-6.105000153E-2,8.804463462E0
2.597501780E0,3.109500110E-1,8.761950493E0,-9.900000691E-2,8.768025282E0
2.599462548E0,2.340000123E-1,8.761950493E0,-9.900000691E-2,8.765633659E0
2.601423498E0,1.960500032E-1,8.685000420E0,-6.105000153E-2,8.687427409E0
2.603384394E0,1.189500093E-1,8.608050346E0,-6.105000153E-2,8.609088626E0
2.605345143E0,1.570500135E-1,8.647050858E0,-1.369500011E-1,8.649561176E0
2.607305935E0,8.100000024E-2,8.685000420E0,-1.369500011E-1,8.686457770E0
2.609267191E0,4.200000316E-2,8.722949982E0,-9.900000691E-2,8.723612863E0
2.611228345E0,4.050000105E-3,8.722949982E0,-9.900000691E-2,8.723512698E0
2.613189410E0,4.050000105E-3,8.838000298E0,-9.900000691E-2,8.838555689E0
2.615150501E0,-7.200000435E-2,8.800050735E0,-6.105000153E-2,8.800557031E0
2.617111576E0,-7.200000435E-2,8.838000298E0,-6.105000153E-2,8.838504419E0
2.619072655E0,-7.200000435E-2,8.877000809E0,-2.205000073E-2,8.877320179E0
2.621033657E0,-7.200000435E-2,8.953050613E0,-6.105000153E-2,8.953548257E0
2.622994703E0,-1.099500060E-1,8.953050613E0,-6.105000153E-2,8.953933850E0
2.624955964E0,-1.099500060E-1,8.991000175E0,-2.205000073E-2,8.991699470E0
2.626917162E0,-7.200000435E-2,9.106050491E0,-6.105000153E-2,9.106539774E0
2.628878264E0,-7.200000435E-2,9.106050491E0,-6.105000153E-2,9.106539774E0
2.630839395E0,4.050000105E-3,9.220950127E0,5.295000225E-2,9.221103044E0
2.632800792E0,4.050000105E-3,9.298050880E0,5.295000225E-2,9.298202530E0
2.634762100E0,1.570500135E-1,9.183000565E0,-1.369500011E-1,9.185364412E0
2.636722959E0,1.189500093E-1,9.412950516E0,5.295000225E-2,9.413850977E0
2.638683949E0,4.050000105E-3,9.490050316E0,1.500000060E-2,9.490063035E0
2.640644906E0,8.100000024E-2,9.565950394E0,5.295000225E-2,9.566439862E0
2.642605872E0,4.200000316E-2,9.643050194E0,1.300500035E-1,9.644018563E0
2.644566966E0,1.189500093E-1,9.643050194E0,5.295000225E-2,9.643929171E0
2.646528023E0,1.960500032E-1,9.565950394E0,1.500000060E-2,9.567970921E0
2.648489239E0,2.340000123E-1,9.643050194E0,1.500000060E-2,9.645900582E0
2.650450408E0,2.340000123E-1,9.643050194E0,-2.205000073E-2,9.645914122E0
2.652411515E0,3.109500110E-1,9.643050194E0,1.500000060E-2,9.648074002E0
2.654372641E0,3.109500110E-1,9.643050194E0,5.295000225E-2,9.648207639E0
2.656334540E0,3.870000243E-1,9.643050194E0,1.500000060E-2,9.650824372E0
2.658296230E0,5.790000558E-1,9.565950394E0,1.500000060E-2,9.583468735E0
2.660257248E0,7.699500322E-1,9.451050758E0,5.295000225E-2,9.482509541E0
2.662218463E0,6.550500393E-1,9.565950394E0,1.680000126E-1,9.589823851E0
2.664179336E0,5.790000558E-1,9.643050194E0,1.300500035E-1,9.661292414E0
2.666140309E0,7.320000529E-1,9.681000710E0,2.070000172E-1,9.710841767E0
2.668100288E0,8.089500666E-1,9.720000267E0,3.600000143E-1,9.760246176E0
2.670060583E0,8.470500112E-1,9.643050194E0,3.600000143E-1,9.686873116E0
2.672021613E0,8.850000501E-1,9.643050194E0,2.449500114E-1,9.686673456E0
2.673982427E0,1.000050068E0,9.643050194E0,3.220500052E-1,9.700115122E0
2.675943685E0,9.619500637E-1,9.604950905E0,2.449500114E-1,9.656108446E0
2.677904812E0,1.077000022E0,9.565950394E0,3.979500234E-1,9.634609499E0
2.679865571E0,1.153950095E0,9.490050316E0,4.360500276E-1,9.569890044E0
2.681826434E0,1.192050099E0,9.412950516E0,5.509500504E-1,9.504113152E0
2.683787321E0,1.459950089E0,9.067950249E0,3.979500234E-1,9.193342167E0
2.685748201E0,1.230000019E0,9.375000000E0,7.050000429E-1,9.481590062E0
2.687709312E0,1.077000022E0,9.451050758E0,7.050000429E-1,9.538307740E0
2.689670355E0,1.114950061E0,9.451050758E0,5.899500251E-1,9.534857897E0
2.691631064E0,1.192050099E0,9.412950516E0,5.899500251E-1,9.506453696E0
2.693591881E0,1.192050099E0,9.412950516E0,7.050000429E-1,9.514286411E0
2.695552821E0,1.192050099E0,9.375000000E0,6.660000086E-1,9.473920226E0
2.697513725E0,1.114950061E0,9.451050758E0,6.280500293E-1,9.537291068E0
2.699474517E0,1.269000053E0,9.336000443E0,7.050000429E-1,9.448189798E0
2.701435342E0,1.306950092E0,9.298050880E0,8.580000401E-1,9.428575332E0
2.703396112E0,1.306950092E0,9.298050880E0,9.349500537E-1,9.435888952E0
2.705356891E0,1.422000051E0,9.067950249E0,7.810500264E-1,9.211940349E0
2.707317838E0,1.269000053E0,9.336000443E0,9.730500579E-1,9.471963461E0
2.709278735E0,1.192050099E0,9.412950516E0,9.349500537E-1,9.534083724E0
2.711239663E0,1.192050099E0,9.528000832E0,9.349500537E-1,9.647689614E0
2.713200581E0,1.192050099E0,9.528000832E0,8.580000401E-1,9.640536674E0
2.715161441E0,1.230000019E0,9.490050316E0,7.429500222E-1,9.598225345E0
2.717122332E0,1.192050099E0,9.604950905E0,7.050000429E-1,9.704282064E0
2.719083485E0,1.192050099E0,9.604950905E0,7.050000429E-1,9.704282064E0
2.721044561E0,1.153950095E0,9.604950905E0,7.810500264E-1,9.705499567E0
2.723005594E0,1.153950095E0,9.681000710E0,8.959500194E-1,9.790612953E0
2.724966640E0,1.192050099E0,9.757950783E0,8.580000401E-1,9.867864561E0
2.726927956E0,1.230000019E0,9.796050072E0,9.730500579E-1,9.920802562E0
2.728889186E0,1.269000053E0,9.873000145E0,8.200500607E-1,9.987941485E0
2.730850058E0,1.306950092E0,9.910950661E0,7.429500222E-1,1.002432224E1
2.732811035E0,1.306950092E0,9.949950218E0,7.810500264E-1,1.006576709E1
2.734771904E0,1.345050097E0,9.988050461E0,8.959500194E-1,1.011795623E1
2.736732804E0,1.422000051E0,1.002600002E1,8.580000401E-1,1.016262391E1
2.738693716E0,1.306950092E0,1.018005085E1,1.011000037E0,1.031327663E1
2.740654634E0,1.306950092E0,1.025595093E1,8.580000401E-1,1.037443069E1
2.742615424E0,1.306950092E0,1.037100029E1,7.810500264E-1,1.048216603E1
2.744576251E0,1.269000053E0,1.048605061E1,7.429500222E-1,1.058865398E1
2.746537550E0,1.230000019E0,1.056300068E1,6.660000086E-1,1.065520715E1
2.748498711E0,1.192050099E0,1.067805004E1,5.899500251E-1,1.076056584E1
2.750459539E0,1.192050099E0,1.071600056E1,6.660000086E-1,1.080264817E1
2.752420472E0,1.039050102E0,1.071600056E1,5.130000114E-1,1.077847216E1
2.754381393E0,1.000050068E0,1.079295063E1,5.130000114E-1,1.085131570E1
2.756342318E0,8.470500112E-1,1.087005043E1,5.509500504E-1,1.091691513E1
2.758303285E0,7.699500322E-1,1.090800095E1,5.509500504E-1,1.094901154E1
2.760264239E0,6.940500140E-1,1.094595051E1,5.130000114E-1,1.097992290E1
2.762225337E0,5.790000558E-1,1.102305031E1,4.750500321E-1,1.104846377E1
2.764186393E0,4.639500082E-1,1.106100082E1,3.220500052E-1,1.107540993E1
2.766146934E0,3.490500152E-1,1.102305031E1,4.360500276E-1,1.103719229E1
2.768107626E0,2.719500065E-1,1.106100082E1,4.750500321E-1,1.107453695E1
2.770068588E0,1.960500032E-1,1.110000038E1,5.130000114E-1,1.111357787E1
2.772029470E0,8.100000024E-2,1.110000038E1,3.979500234E-1,1.110742696E1
2.773990562E0,4.050000105E-3,1.110000038E1,3.600000143E-1,1.110583742E1
2.775951605E0,-7.200000435E-2,1.106100082E1,2.830500007E-1,1.106485610E1
2.777913544E0,-1.099500060E-1,1.106100082E1,2.070000172E-1,1.106348396E1
2.779875220E0,-1.480500102E-1,1.102305031E1,2.070000172E-1,1.102598775E1
2.781836061E0,-2.250000089E-1,1.102305031E1,9.195000678E-2,1.102572981E1
2.783797146E0,-1.870500147E-1,1.094595051E1,9.195000678E-2,1.094793474E1
2.785758316E0,-1.480500102E-1,1.094595051E1,1.500000060E-2,1.094696197E1
2.787719489E0,-1.870500147E-1,1.087005043E1,-9.900000691E-2,1.087211042E1
2.789680551E0,-1.480500102E-1,1.087005043E1,-1.759500057E-1,1.087248240E1
2.791641645E0,-1.480500102E-1,1.079295063E1,-2.140500098E-1,1.079608816E1
2.793602539E0,-1.480500102E-1,1.075500011E1,-2.520000041E-1,1.075897069E1
2.795563491E0,4.050000105E-3,1.079295063E1,-2.140500098E-1,1.079507374E1
2.797524769E0,4.200000316E-2,1.071600056E1,-2.140500098E-1,1.071822044E1
2.799485951E0,1.189500093E-1,1.071600056E1,-2.140500098E-1,1.071879818E1
2.801446876E0,1.960500032E-1,1.071600056E1,-2.910000086E-1,1.072174354E1
2.803407876E0,2.719500065E-1,1.071600056E1,-2.910000086E-1,1.072339992E1
2.805368965E0,4.639500082E-1,1.067805004E1,-3.289500177E-1,1.069318523E1
2.807330028E0,5.410500169E-1,1.071600056E1,-3.289500177E-1,1.073469195E1
2.809291852E0,7.320000529E-1,1.067805004E1,-3.670500219E-1,1.070940253E1
2.811253436E0,8.089500666E-1,1.075500011E1,-3.670500219E-1,1.079162422E1
2.813214022E0,8.850000501E-1,1.075500011E1,-3.289500177E-1,1.079636331E1
2.815174900E0,1.077000022E0,1.079295063E1,-3.670500219E-1,1.085276177E1
2.817135830E0,1.153950095E0,1.083105087E1,-2.910000086E-1,1.089623535E1
2.819096744E0,1.230000019E0,1.083105087E1,-2.520000041E-1,1.090358047E1
2.821057479E0,1.269000053E0,1.083105087E1,-1.759500057E-1,1.090655686E1
2.823018274E0,1.306950092E0,1.087005043E1,-9.900000691E-2,1.094878605E1
2.824979264E0,1.306950092E0,1.090800095E1,-1.369500011E-1,1.098687210E1
2.826940196E0,1.384050012E0,1.094595051E1,-6.105000153E-2,1.103327486E1
2.828901297E0,1.345050097E0,1.094595051E1,1.500000060E-2,1.102829168E1
2.830862349E0,1.384050012E0,1.090800095E1,5.295000225E-2,1.099558469E1
2.832823426E0,1.422000051E0,1.098495007E1,2.070000172E-1,1.107854057E1
2.834784499E0,1.345050097E0,1.098495007E1,2.449500114E-1,1.106970136E1
2.836744992E0,1.306950092E0,1.094595051E1,3.220500052E-1,1.102840275E1
2.838705655E0,1.306950092E0,1.098495007E1,3.979500234E-1,1.106958042E1
2.840666667E0,1.306950092E0,1.098495007E1,5.509500504E-1,1.107613617E1
2.842627576E0,1.306950092E0,1.102305031E1,5.899500251E-1,1.111592541E1
2.844588836E0,1.269000053E0,1.110000038E1,6.660000086E-1,1.119213678E1
2.846549980E0,1.230000019E0,1.106100082E1,7.429500222E-1,1.115395060E1
2.848510911E0,1.192050099E0,1.113795090E1,7.810500264E-1,1.122875651E1
2.850471905E0,1.114950061E0,1.117605019E1,8.580000401E-1,1.126425210E1
2.852432950E0,1.077000022E0,1.125300026E1,8.200500607E-1,1.133412661E1
2.854393980E0,1.077000022E0,1.132905006E1,8.959500194E-1,1.141534191E1
2.856354945E0,1.000050068E0,1.140600014E1,9.349500537E-1,1.148786625E1
2.858315919E0,8.470500112E-1,1.140600014E1,1.011000037E0,1.148200566E1
2.860276788E0,7.320000529E-1,1.144395065E1,9.730500579E-1,1.150854713E1
2.862237688E0,6.940500140E-1,1.144395065E1,1.087950110E0,1.151648156E1
2.864198300E0,6.550500393E-1,1.144395065E1,1.203000069E0,1.152563691E1
2.866158996E0,5.790000558E-1,1.144395065E1,1.203000069E0,1.152156486E1
2.868119552E0,5.410500169E-1,1.140600014E1,1.356000066E0,1.149905694E1
2.870080150E0,4.639500082E-1,1.144395065E1,1.471050024E0,1.154743453E1
2.872041128E0,4.260000288E-1,1.144395065E1,1.471050024E0,1.154597206E1
2.874001994E0,3.870000243E-1,1.136805058E1,1.510050058E0,1.147443219E1
2.875962972E0,4.260000288E-1,1.136805058E1,1.701000094E0,1.150249761E1
2.877923917E0,3.490500152E-1,1.129095078E1,1.855050087E0,1.144764675E1
2.879884630E0,3.490500152E-1,1.129095078E1,2.046000004E0,1.148013595E1
2.881845558E0,4.260000288E-1,1.117605019E1,2.200050116E0,1.139849965E1
2.883806435E0,3.870000243E-1,1.117605019E1,2.430000067E0,1.144372173E1
2.885767327E0,4.260000288E-1,1.113795090E1,2.620950222E0,1.145010071E1
2.887728075E0,3.490500152E-1,1.106100082E1,2.659050226E0,1.138148159E1
2.889688866E0,3.870000243E-1,1.106100082E1,2.812950134E0,1.141964083E1
2.891649617E0,4.639500082E-1,1.102305031E1,2.928000212E0,1.141473052E1
2.893610390E0,4.639500082E-1,1.090800095E1,3.043050051E0,1.133401464E1
2.895571383E0,4.260000288E-1,1.083105087E1,3.157950163E0,1.129007477E1
2.897532311E0,5.410500169E-1,1.075500011E1,3.273000240E0,1.125501191E1
2.899493774E0,6.169500351E-1,1.060095024E1,3.310950041E0,1.112309146E1
2.901455081E0,7.699500322E-1,1.044795036E1,3.502950191E0,1.104640891E1
2.903416092E0,7.320000529E-1,1.029495049E1,3.579000235E0,1.092387625E1
2.905377209E0,6.940500140E-1,1.018005085E1,3.579000235E0,1.081315788E1
2.907337873E0,8.850000501E-1,1.002600002E1,3.579000235E0,1.068237540E1
2.909298670E0,9.619500637E-1,9.835050583E0,3.771000147E0,1.057705110E1
2.911259299E0,1.153950095E0,9.720000267E0,3.771000147E0,1.048953994E1
2.913219978E0,1.230000019E0,9.604950905E0,3.886050224E0,1.043404851E1
2.915180882E0,1.230000019E0,9.451050758E0,3.771000147E0,1.024966841E1
2.917141730E0,1.306950092E0,9.298050880E0,3.694050074E0,1.008998883E1
2.919102666E0,1.345050097E0,9.220950127E0,3.733050108E0,1.003846323E1
2.921063576E0,1.498950124E0,9.030000687E0,3.694050074E0,9.870854564E0
2.923024368E0,1.767000079E0,8.914950371E0,3.694050074E0,9.810435023E0
2.924985194E0,2.035050154E0,8.800050735E0,3.694050074E0,9.758500296E0
2.926945949E0,2.304000139E0,8.685000420E0,3.771000147E0,9.744644223E0
2.928906728E0,2.494950056E0,8.532000542E0,3.924000263E0,9.716871260E0
2.930867675E0,2.686950207E0,8.493000031E0,4.000950336E0,9.765160241E0
2.932828572E0,2.725050211E0,8.377950668E0,4.078050137E0,9.708061030E0
2.934789680E0,3.108000040E0,8.302050591E0,4.000950336E0,9.725806488E0
2.936750726E0,3.300000191E0,8.148000717E0,3.963000298E0,9.642887965E0
2.938711564E0,3.300000191E0,8.071949959E0,3.886050224E0,9.547133797E0
2.940672477E0,3.607050180E0,8.032950401E0,3.847950220E0,9.609673462E0
2.942633267E0,3.682950258E0,7.918050289E0,3.847950220E0,9.542869793E0
2.944594093E0,3.874950171E0,7.842000484E0,3.808950186E0,9.540456590E0
2.946555032E0,4.066950321E0,7.726950169E0,3.771000147E0,9.511376658E0
2.948515937E0,4.297049999E0,7.726950169E0,3.579000235E0,9.538324815E0
2.950476805E0,4.411950111E0,7.650000572E0,3.541050196E0,9.514559844E0
2.952437694E0,4.564949989E0,7.573050499E0,3.426000118E0,9.483002640E0
2.954398622E0,4.795050144E0,7.534950256E0,3.426000118E0,9.565848528E0
2.956359538E0,4.948050022E0,7.497000217E0,3.388050079E0,9.600369504E0
2.958320148E0,5.178000450E0,7.497000217E0,3.388050079E0,9.720883924E0
2.960280848E0,5.215950012E0,7.497000217E0,3.349050045E0,9.727655575E0
2.962241952E0,5.370000362E0,7.497000217E0,3.081000090E0,9.722884228E0
2.964202932E0,5.523000240E0,7.342950344E0,2.889000177E0,9.631654761E0
2.966163666E0,5.560950279E0,7.497000217E0,2.698050022E0,9.716411590E0
2.968124472E0,5.523000240E0,7.497000217E0,2.583000183E0,9.663355207E0
2.970085235E0,5.599950314E0,7.612050533E0,2.314950228E0,9.729427085E0
2.972046011E0,5.599950314E0,7.687950134E0,2.122950077E0,9.745303372E0
2.974007013E0,5.676000118E0,7.765050411E0,1.930950046E0,9.810277943E0
2.975967942E0,5.676000118E0,7.879950523E0,1.816050053E0,9.879708264E0
2.977928685E0,5.715000153E0,7.995000362E0,1.701000094E0,9.973698354E0
2.979889482E0,5.638050079E0,8.302050591E0,1.701000094E0,1.017865679E1
2.981850202E0,5.523000240E0,8.532000542E0,1.585950017E0,1.028658361E1
2.983810944E0,5.407950401E0,8.761950493E0,1.548000097E0,1.041220478E1
2.985771702E0,5.293050289E0,8.953050613E0,1.548000097E0,1.051521759E1
2.987732465E0,5.178000450E0,9.220950127E0,1.471050024E0,1.067715309E1
2.989693281E0,5.025000095E0,9.336000443E0,1.510050058E0,1.070942489E1
2.991654081E0,4.948050022E0,9.528000832E0,1.510050058E0,1.084187484E1
2.993615161E0,4.795050144E0,9.796050072E0,1.471050024E0,1.100541190E1
2.995576158E0,4.564949989E0,9.988050461E0,1.471050024E0,1.107988757E1
2.997536884E0,4.564949989E0,1.010295010E1,1.471050024E0,1.118357533E1
2.999497693E0,4.488000393E0,1.021800041E1,1.432950020E0,1.125180100E1
3.001458680E0,4.335000038E0,1.048605061E1,1.471050024E0,1.144174247E1
3.003419614E0,4.182000160E0,1.063995075E1,1.432950020E0,1.152176302E1
3.005380356E0,4.105050087E0,1.063995075E1,1.432950020E0,1.149405646E1
3.007341155E0,3.990000248E0,1.083105087E1,1.395000100E0,1.162659840E1
3.009301880E0,3.798000097E0,1.087005043E1,1.356000066E0,1.159403024E1
3.011262654E0,3.760050297E0,1.094595051E1,1.240950108E0,1.164009312E1
3.013223556E0,3.682950258E0,1.098495007E1,1.279950023E0,1.165639407E1
3.015184421E0,3.568050146E0,1.106100082E1,1.279950023E0,1.169251868E1
3.017145355E0,3.376950264E0,1.117605019E1,1.203000069E0,1.173691186E1
3.019106268E0,3.184950113E0,1.129095078E1,1.011000037E0,1.177504130E1
3.021067243E0,2.955000162E0,1.132905006E1,9.349500537E-1,1.174536219E1
3.023028196E0,2.878050089E0,1.132905006E1,9.349500537E-1,1.172623892E1
3.024988889E0,2.764050245E0,1.144395065E1,1.087950110E0,1.182318129E1
3.026949659E0,2.572050095E0,1.148295021E1,1.087950110E0,1.181766570E1
3.028910607E0,2.457000017E0,1.152105045E1,9.730500579E-1,1.182024869E1
3.030871503E0,2.074050188E0,1.159800053E1,5.899500251E-1,1.179675131E1
3.032832412E0,1.959000111E0,1.155900097E1,3.220500052E-1,1.172825226E1
3.034793331E0,1.882050037E0,1.159800053E1,5.899500251E-1,1.176451315E1
3.036753940E0,1.804950118E0,1.155900097E1,5.899500251E-1,1.171393996E1
3.038714640E0,1.498950124E0,1.152105045E1,4.750500321E-1,1.162785997E1
3.040676141E0,1.306950092E0,1.152105045E1,2.449500114E-1,1.159753088E1
3.042637408E0,1.077000022E0,1.155900097E1,-1.369500011E-1,1.160987458E1
3.044598273E0,1.000050068E0,1.148295021E1,-1.759500057E-1,1.152775798E1
3.046559256E0,8.850000501E-1,1.155900097E1,-9.900000691E-2,1.159325362E1
3.048519267E0,7.320000529E-1,1.152105045E1,-2.205000073E-2,1.154430222E1
3.050479563E0,5.410500169E-1,1.152105045E1,-6.105000153E-2,1.153390939E1
3.052440368E0,3.490500152E-1,1.152105045E1,-9.900000691E-2,1.152676192E1
3.054401023E0,1.570500135E-1,1.152105045E1,-9.900000691E-2,1.152254613E1
3.056361838E0,-1.099500060E-1,1.144395065E1,-4.819500148E-1,1.145462227E1
3.058322619E0,-7.200000435E-2,1.144395065E1,-3.670500219E-1,1.145006185E1
3.060283567E0,-1.870500147E-1,1.140600014E1,-1.369500011E-1,1.140835580E1
3.062244466E0,-3.780000210E-1,1.140600014E1,-1.369500011E-1,1.141308365E1
3.064205214E0,-7.620000243E-1,1.148295021E1,-4.440000355E-1,1.151676715E1
3.066166006E0,-7.999500632E-1,1.155900097E1,-2.910000086E-1,1.159030218E1
3.068127137E0,-9.150000215E-1,1.159800053E1,-9.900000691E-2,1.163445926E1
3.070088037E0,-9.919500351E-1,1.163595009E1,-9.900000691E-2,1.167857441E1
3.072048964E0,-1.183050036E0,1.159800053E1,-3.289500177E-1,1.166282263E1
3.074009883E0,-1.222050071E0,1.155900097E1,-5.590500236E-1,1.163685725E1
3.075970628E0,-1.144950032E0,1.155900097E1,-6.739500165E-1,1.163510303E1
3.077931424E0,-1.183050036E0,1.148295021E1,-7.890000343E-1,1.157066437E1
3.079892188E0,-1.222050071E0,1.155900097E1,-9.040500522E-1,1.165852548E1
3.081852962E0,-1.183050036E0,1.155900097E1,-7.510500550E-1,1.164363289E1
3.083813909E0,-1.222050071E0,1.155900097E1,-6.360000372E-1,1.164080778E1
3.085774806E0,-1.260000110E0,1.163595009E1,-5.590500236E-1,1.171731504E1
3.087735734E0,-1.297950029E0,1.167405033E1,-5.970000029E-1,1.176114511E1
3.089696653E0,-1.183050036E0,1.163595009E1,-5.209500194E-1,1.170753308E1
3.091657926E0,-1.106999993E0,1.159800053E1,-5.590500236E-1,1.166411600E1
3.093619071E0,-9.919500351E-1,1.152105045E1,-6.360000372E-1,1.158115126E1
3.095579777E0,-8.770500422E-1,1.144395065E1,-6.360000372E-1,1.149511720E1
3.097540612E0,-7.620000243E-1,1.136805058E1,-6.360000372E-1,1.141129765E1
3.099501415E0,-7.230000496E-1,1.132905006E1,-7.120500207E-1,1.137440634E1
3.101462227E0,-5.320500135E-1,1.125300026E1,-7.890000343E-1,1.129316666E1
3.103422958E0,-4.170000255E-1,1.125300026E1,-8.269500136E-1,1.129104735E1
3.105383703E0,-3.019500077E-1,1.117605019E1,-9.040500522E-1,1.121662062E1
3.107344475E0,-1.870500147E-1,1.102305031E1,-1.018950105E0,1.107162522E1
3.109305239E0,-3.299999982E-2,1.090800095E1,-9.810000658E-1,1.095207445E1
3.111266189E0,4.200000316E-2,1.075500011E1,-1.057050109E0,1.080690272E1
3.113227085E0,1.189500093E-1,1.056300068E1,-1.134000063E0,1.062436297E1
3.115187694E0,1.960500032E-1,1.041000080E1,-1.171950102E0,1.047759607E1
3.117148390E0,2.340000123E-1,1.021800041E1,-1.096050024E0,1.027928082E1
3.119109170E0,2.340000123E-1,1.010295010E1,-1.134000063E0,1.016908613E1
3.121069926E0,3.490500152E-1,9.949950218E0,-1.096050024E0,1.001622039E1
3.123030878E0,4.260000288E-1,9.720000267E0,-1.134000063E0,9.795194605E0
3.124991773E0,5.410500169E-1,9.565950394E0,-1.057050109E0,9.639372230E0
3.126953242E0,6.169500351E-1,9.336000443E0,-1.018950105E0,9.411683745E0
3.128914542E0,6.169500351E-1,9.183000565E0,-9.420000315E-1,9.251783113E0
3.130874996E0,5.790000558E-1,8.991000175E0,-9.810000658E-1,9.062874067E0
3.132835698E0,6.169500351E-1,8.838000298E0,-9.810000658E-1,8.913654567E0
3.134796523E0,6.169500351E-1,8.647050858E0,-9.810000658E-1,8.724361123E0
3.136757311E0,5.790000558E-1,8.532000542E0,-1.057050109E0,8.616706403E0
3.138717893E0,5.790000558E-1,8.416950226E0,-1.057050109E0,8.502802309E0
3.140678539E0,6.940500140E-1,8.263050079E0,-1.171950102E0,8.374554858E0
3.142639328E0,8.850000501E-1,8.148000717E0,-1.326000094E0,8.302494627E0
3.144600075E0,9.240000248E-1,8.187000275E0,-1.326000094E0,8.345000048E0
3.146561029E0,9.240000248E-1,8.187000275E0,-1.287000060E0,8.338891935E0
3.148521922E0,8.850000501E-1,8.110050201E0,-1.210950017E0,8.247577784E0
3.150482802E0,8.089500666E-1,8.071949959E0,-1.171950102E0,8.196599502E0
3.152443689E0,8.089500666E-1,8.032950401E0,-1.134000063E0,8.152830705E0
3.154404617E0,7.699500322E-1,7.957050323E0,-1.096050024E0,8.069002327E0
3.156365533E0,7.699500322E-1,7.918050289E0,-1.134000063E0,8.035813560E0
3.158326502E0,6.940500140E-1,7.918050289E0,-1.287000060E0,8.051931132E0
3.160287456E0,9.240000248E-1,7.765050411E0,-1.249050021E0,7.918958889E0
3.162248714E0,7.699500322E-1,7.765050411E0,-1.134000063E0,7.885099054E0
3.164209865E0,8.470500112E-1,7.650000572E0,-1.057050109E0,7.768999769E0
3.166170570E0,8.850000501E-1,7.687950134E0,-9.040500522E-1,7.791348333E0
3.168131405E0,7.320000529E-1,7.687950134E0,-7.890000343E-1,7.762919708E0
3.170092208E0,7.320000529E-1,7.612050533E0,-9.040500522E-1,7.700418423E0
3.172053020E0,6.169500351E-1,7.612050533E0,-1.018950105E0,7.704686884E0
3.174012915E0,5.410500169E-1,7.612050533E0,-1.171950102E0,7.720719881E0
3.175973054E0,5.020500422E-1,7.573050499E0,-1.134000063E0,7.673923654E0
3.177934111E0,4.639500082E-1,7.534950256E0,-1.326000094E0,7.664789705E0
3.179894899E0,3.870000243E-1,7.497000217E0,-1.287000060E0,7.616505133E0
3.181855666E0,3.870000243E-1,7.534950256E0,-1.249050021E0,7.647572840E0
3.183816439E0,3.109500110E-1,7.534950256E0,-1.287000060E0,7.650394397E0
3.185777042E0,1.570500135E-1,7.497000217E0,-1.287000060E0,7.608287989E0
3.187737685E0,1.570500135E-1,7.497000217E0,-1.363950014E0,7.621682006E0
3.189698429E0,1.570500135E-1,7.573050499E0,-1.363950014E0,7.696500387E0
3.191659144E0,1.570500135E-1,7.612050533E0,-1.402050018E0,7.741687302E0
3.193619744E0,1.189500093E-1,7.612050533E0,-1.363950014E0,7.734198217E0
3.195580377E0,1.570500135E-1,7.612050533E0,-1.402050018E0,7.741687302E0
3.197541202E0,4.200000316E-2,7.650000572E0,-1.441050053E0,7.784657861E0
3.199501947E0,8.100000024E-2,7.687950134E0,-1.479000092E0,7.829340939E0
3.201462406E0,8.100000024E-2,7.765050411E0,-1.441050053E0,7.898050022E0
3.203422949E0,4.200000316E-2,7.765050411E0,-1.479000092E0,7.904758893E0
3.205383396E0,4.200000316E-2,7.803000450E0,-1.479000092E0,7.942041381E0
3.207343872E0,4.200000316E-2,7.803000450E0,-1.479000092E0,7.942041381E0
3.209304841E0,4.050000105E-3,7.765050411E0,-1.555950046E0,7.919406849E0
3.211265654E0,-3.299999982E-2,7.803000450E0,-1.516950130E0,7.949153585E0
3.213226101E0,4.050000105E-3,7.842000484E0,-1.555950046E0,7.994871390E0
3.215186656E0,-3.299999982E-2,7.842000484E0,-1.594050050E0,8.002440638E0
3.217147281E0,4.200000316E-2,7.803000450E0,-1.594050050E0,7.964268679E0
3.219107885E0,4.050000105E-3,7.803000450E0,-1.594050050E0,7.964158963E0
3.221068696E0,4.050000105E-3,7.879950523E0,-1.555950046E0,8.032099178E0
3.223029437E0,-1.480500102E-1,7.879950523E0,-1.555950046E0,8.033462491E0
3.224990032E0,-7.200000435E-2,7.842000484E0,-1.632000089E0,8.010342058E0
3.226950670E0,-1.099500060E-1,7.803000450E0,-1.555950046E0,7.957379316E0
3.228911416E0,-7.200000435E-2,7.842000484E0,-1.516950130E0,7.987696370E0
3.230872130E0,-1.099500060E-1,7.803000450E0,-1.555950046E0,7.957379316E0
3.232832973E0,-1.870500147E-1,7.765050411E0,-1.671000123E0,7.945013342E0
3.234793764E0,-1.099500060E-1,7.726950169E0,-1.747050047E0,7.922754053E0
3.236754530E0,-1.099500060E-1,7.726950169E0,-1.632000089E0,7.898181576E0
3.238715304E0,-1.870500147E-1,7.687950134E0,-1.555950046E0,7.846052862E0
3.240676028E0,-2.629500031E-1,7.650000572E0,-1.632000089E0,7.826562192E0
3.242636766E0,-3.019500077E-1,7.612050533E0,-1.594050050E0,7.783025292E0
3.244597380E0,-2.250000089E-1,7.612050533E0,-1.708950043E0,7.804770885E0
3.246558017E0,-1.870500147E-1,7.573050499E0,-1.747050047E0,7.774205132E0
3.248518988E0,-1.099500060E-1,7.573050499E0,-1.786050081E0,7.781590953E0
3.250479861E0,-7.200000435E-2,7.573050499E0,-1.708950043E0,7.763812730E0
3.252440658E0,-7.200000435E-2,7.612050533E0,-1.671000123E0,7.793634501E0
3.254401478E0,-1.099500060E-1,7.650000572E0,-1.708950043E0,7.839330839E0
3.256362397E0,-1.870500147E-1,7.650000572E0,-1.708950043E0,7.840791204E0
3.258323270E0,-1.480500102E-1,7.687950134E0,-1.747050047E0,7.885345899E0
3.260284067E0,-1.870500147E-1,7.726950169E0,-1.747050047E0,7.924199044E0
3.262244887E0,-2.250000089E-1,7.726950169E0,-1.632000089E0,7.900620748E0
3.264205647E0,-1.480500102E-1,7.765050411E0,-1.671000123E0,7.944190840E0
3.266166425E0,-1.870500147E-1,7.803000450E0,-1.632000089E0,7.974034614E0
3.268127312E0,-1.870500147E-1,7.803000450E0,-1.632000089E0,7.974034614E0
3.270088178E0,-1.870500147E-1,7.803000450E0,-1.632000089E0,7.974034614E0
3.272048977E0,-2.250000089E-1,7.879950523E0,-1.594050050E0,8.042713523E0
3.274009795E0,-1.870500147E-1,7.879950523E0,-1.555950046E0,8.034275854E0
3.275970376E0,-1.870500147E-1,7.879950523E0,-1.555950046E0,8.034275854E0
3.277931026E0,-1.870500147E-1,7.918050289E0,-1.479000092E0,8.057167577E0
3.279892009E0,-2.250000089E-1,7.918050289E0,-1.516950130E0,8.065189588E0
3.281852884E0,-2.250000089E-1,7.957050323E0,-1.555950046E0,8.110872666E0
3.283813636E0,-2.250000089E-1,7.957050323E0,-1.555950046E0,8.110872666E0
3.285774425E0,-1.870500147E-1,7.957050323E0,-1.555950046E0,8.109908637E0
3.287735145E0,-2.629500031E-1,7.995000362E0,-1.555950046E0,8.149242544E0
3.289695886E0,-2.629500031E-1,7.995000362E0,-1.516950130E0,8.141886219E0
3.291656685E0,-2.629500031E-1,7.957050323E0,-1.555950046E0,8.112014121E0
3.293617480E0,-2.629500031E-1,7.918050289E0,-1.555950046E0,8.073762669E0
3.295578426E0,-3.019500077E-1,7.918050289E0,-1.555950046E0,8.075126917E0
3.297539327E0,-3.400500119E-1,7.918050289E0,-1.632000089E0,8.091636341E0
3.299500074E0,-3.019500077E-1,7.879950523E0,-1.632000089E0,8.052839148E0
3.301460867E0,-4.170000255E-1,7.879950523E0,-1.708950043E0,8.073909804E0
