"Time (s)","Acceleration x (m/s^2)","Acceleration y (m/s^2)","Acceleration z (m/s^2)","Absolute acceleration (m/s^2)"
3.489330600E-2,-2.677950144E0,9.106050491E0,-1.479000092E0,9.606196635E0
3.685362500E-2,-2.755050182E0,9.220950127E0,-1.479000092E0,9.736717312E0
3.881661300E-2,-2.793000221E0,9.145050049E0,-1.479000092E0,9.675754849E0
4.077790300E-2,-2.830950022E0,9.183000565E0,-1.479000092E0,9.722613777E0
4.273969000E-2,-2.869950056E0,9.259950638E0,-1.516950130E0,9.812463342E0
4.470115300E-2,-2.946000099E0,9.298050880E0,-1.479000092E0,9.865095439E0
4.666273400E-2,-3.022950172E0,9.336000443E0,-1.441050053E0,9.918455387E0
4.862431000E-2,-3.061050177E0,9.336000443E0,-1.441050053E0,9.930133821E0
5.058588800E-2,-3.061050177E0,9.412950516E0,-1.479000092E0,1.000805210E1
5.254759900E-2,-3.138000250E0,9.451050758E0,-1.479000092E0,1.006761378E1
5.450927100E-2,-3.175950050E0,9.451050758E0,-1.402050018E0,1.006850353E1
5.647088800E-2,-3.214950085E0,9.451050758E0,-1.441050053E0,1.008637149E1
5.843254600E-2,-3.214950085E0,9.490050316E0,-1.441050053E0,1.012292370E1
6.039446900E-2,-3.253050089E0,9.490050316E0,-1.402050018E0,1.012961668E1
6.235631400E-2,-3.291000128E0,9.604950905E0,-1.402050018E0,1.024946379E1
6.431798100E-2,-3.291000128E0,9.643050194E0,-1.441050053E0,1.029056481E1
6.627970000E-2,-3.291000128E0,9.643050194E0,-1.402050018E0,1.028517589E1
6.824150700E-2,-3.291000128E0,9.681000710E0,-1.363950014E0,1.031565879E1
7.020329900E-2,-3.330000162E0,9.720000267E0,-1.441050053E0,1.037515935E1
7.216461500E-2,-3.291000128E0,9.757950783E0,-1.441050053E0,1.039831287E1
7.412607000E-2,-3.291000128E0,9.835050583E0,-1.441050053E0,1.047069850E1
7.608748700E-2,-3.253050089E0,9.835050583E0,-1.402050018E0,1.045353046E1
7.804891600E-2,-3.291000128E0,9.949950218E0,-1.363950014E0,1.056846965E1
8.001058400E-2,-3.330000162E0,9.949950218E0,-1.326000094E0,1.057585395E1
8.197219800E-2,-3.367950201E0,1.002600002E1,-1.249050021E0,1.065006530E1
8.393377000E-2,-3.367950201E0,1.010295010E1,-1.249050021E0,1.072253772E1
8.589535400E-2,-3.406050205E0,1.025595093E1,-1.171950102E0,1.087010462E1
8.785684000E-2,-3.483000278E0,1.033305073E1,-1.171950102E0,1.096707323E1
8.981835400E-2,-3.483000278E0,1.044795036E1,-1.096050024E0,1.106762320E1
9.177968200E-2,-3.520950079E0,1.056300068E1,-1.057050109E0,1.118442791E1
9.374108900E-2,-3.520950079E0,1.075500011E1,-1.096050024E0,1.136962808E1
9.570282900E-2,-3.559950113E0,1.083105087E1,-1.057050109E0,1.144998964E1
9.766447200E-2,-3.636000156E0,1.090800095E1,-1.057050109E0,1.154652921E1
9.962585800E-2,-3.598050117E0,1.098495007E1,-1.057050109E0,1.160743070E1
1.015873200E-1,-3.636000156E0,1.110000038E1,-1.134000063E0,1.173526573E1
1.035490500E-1,-3.712950230E0,1.113795090E1,-1.210950017E0,1.180281109E1
1.055107020E-1,-3.675000191E0,1.121400070E1,-1.249050021E0,1.186674193E1
1.074720420E-1,-3.675000191E0,1.121400070E1,-1.210950017E0,1.186279217E1
1.094334740E-1,-3.712950230E0,1.125300026E1,-1.210950017E0,1.191144048E1
1.113951640E-1,-3.675000191E0,1.125300026E1,-1.249050021E0,1.190360312E1
1.133567790E-1,-3.636000156E0,1.125300026E1,-1.249050021E0,1.189162049E1
1.153183510E-1,-3.598050117E0,1.117605019E1,-1.249050021E0,1.180720917E1
1.172799350E-1,-3.483000278E0,1.117605019E1,-1.210950017E0,1.176867829E1
1.192412400E-1,-3.445050240E0,1.102305031E1,-1.171950102E0,1.160816421E1
1.212026270E-1,-3.367950201E0,1.098495007E1,-1.134000063E0,1.154548278E1
1.231642360E-1,-3.214950085E0,1.083105087E1,-1.096050024E0,1.135116261E1
1.251257790E-1,-3.175950050E0,1.071600056E1,-1.210950017E0,1.124214066E1
1.270872730E-1,-3.138000250E0,1.048605061E1,-1.861950040E0,1.110275465E1
1.290487810E-1,-2.755050182E0,1.044795036E1,-7.510500550E-1,1.083116081E1
1.310101900E-1,-2.677950144E0,1.044795036E1,-9.900000691E-2,1.078614318E1
1.329716280E-1,-2.640000105E0,1.041000080E1,1.500000060E-2,1.073955037E1
1.349333620E-1,-2.563050032E0,1.037100029E1,-1.759500057E-1,1.068446680E1
1.368950100E-1,-2.485950232E0,1.033305073E1,-3.670500219E-1,1.063421890E1
1.388566950E-1,-2.410050154E0,1.033305073E1,-5.590500236E-1,1.062510311E1
1.408183800E-1,-2.371050119E0,1.025595093E1,-6.360000372E-1,1.054565807E1
1.427798940E-1,-2.295000076E0,1.025595093E1,-6.360000372E-1,1.052882001E1
1.447414590E-1,-2.256000042E0,1.025595093E1,-5.970000029E-1,1.051810223E1
1.467031720E-1,-2.179949999E0,1.021800041E1,-5.209500194E-1,1.046093224E1
1.486648410E-1,-2.103000164E0,1.029495049E1,-4.440000355E-1,1.051692689E1
1.506263970E-1,-2.065050125E0,1.021800041E1,-3.289500177E-1,1.042977337E1
1.525879590E-1,-2.026050091E0,1.018005085E1,-2.910000086E-1,1.038378521E1
1.545496280E-1,-2.026050091E0,1.018005085E1,-1.369500011E-1,1.038061027E1
1.565112650E-1,-2.026050091E0,1.018005085E1,-2.205000073E-2,1.037973027E1
1.584727880E-1,-2.026050091E0,1.021800041E1,1.300500035E-1,1.041774085E1
1.604343440E-1,-1.987950087E0,1.021800041E1,2.449500114E-1,1.041246745E1
1.623951930E-1,-1.911000133E0,1.021800041E1,4.360500276E-1,1.040430649E1
1.643562570E-1,-1.950000048E0,1.029495049E1,5.509500504E-1,1.049247595E1
1.663176950E-1,-1.834950089E0,1.037100029E1,6.660000086E-1,1.055311541E1
1.682790240E-1,-1.834950089E0,1.044795036E1,8.580000401E-1,1.064250312E1
1.702403740E-1,-1.758000135E0,1.060095024E1,1.050000072E0,1.079690746E1
1.722017170E-1,-1.720050097E0,1.075500011E1,1.203000069E0,1.095791079E1
1.741631590E-1,-1.605000019E0,1.094595051E1,1.395000100E0,1.115060011E1
1.761245680E-1,-1.567050099E0,1.110000038E1,1.432950020E0,1.130128312E1
1.780863090E-1,-1.489950061E0,1.121400070E1,1.510050058E0,1.141288807E1
1.800479520E-1,-1.375050068E0,1.144395065E1,1.548000097E0,1.162974950E1
1.820098340E-1,-1.336950064E0,1.163595009E1,1.701000094E0,1.183537795E1
1.839716450E-1,-1.222050071E0,1.182795048E1,1.816050053E0,1.202879282E1
1.859330920E-1,-1.106999993E0,1.201905060E1,1.777950048E0,1.220016937E1
1.878946460E-1,-1.030050039E0,1.217295074E1,1.777950048E0,1.234515449E1
1.898560460E-1,-9.150000215E-1,1.232595062E1,1.816050053E0,1.249257066E1
1.918174920E-1,-7.999500632E-1,1.251795101E1,1.855050087E0,1.267991437E1
1.937790450E-1,-6.850500107E-1,1.267095089E1,1.855050087E0,1.282433237E1
1.957405670E-1,-5.320500135E-1,1.278600025E1,1.893000126E0,1.293631822E1
1.977022430E-1,-3.400500119E-1,1.293900108E1,1.855050087E0,1.307572537E1
1.996638740E-1,-1.870500147E-1,1.297800064E1,1.930950046E0,1.312219709E1
2.016254430E-1,4.050000105E-3,1.301595020E1,1.816050053E0,1.314203233E1
2.035870300E-1,4.050000105E-3,1.274805069E1,1.165050030E0,1.280117785E1
2.055483350E-1,8.100000024E-2,1.247895050E1,1.395000100E0,1.255694198E1
2.075097230E-1,1.189500093E-1,1.228800011E1,1.395000100E0,1.236750262E1
2.094718720E-1,4.639500082E-1,1.221105099E1,1.777950048E0,1.234852713E1
2.114337980E-1,6.940500140E-1,1.213395023E1,2.467950106E0,1.240182371E1
2.133952260E-1,9.240000248E-1,1.205805016E1,2.773950100E0,1.240746343E1
2.153568000E-1,1.192050099E0,1.198095036E1,2.812950134E0,1.236433756E1
2.173183320E-1,1.306950092E0,1.182795048E1,2.698050022E0,1.220196726E1
2.192798760E-1,1.384050012E0,1.171305084E1,2.620950222E0,1.208224046E1
2.212417830E-1,1.498950124E0,1.152105045E1,2.545050144E0,1.189364264E1
2.232035770E-1,1.537050128E0,1.129095078E1,2.314950228E0,1.162785823E1
2.251649370E-1,1.729050040E0,1.106100082E1,2.085000038E0,1.138782589E1
2.271264250E-1,1.804950118E0,1.071600056E1,1.893000126E0,1.103059211E1
2.290877920E-1,1.882050037E0,1.041000080E1,1.816050053E0,1.073351139E1
2.310491940E-1,1.843950033E0,1.006500053E1,1.777950048E0,1.038583140E1
2.330105940E-1,1.804950118E0,9.796050072E0,1.816050053E0,1.012514097E1
2.349719820E-1,1.767000079E0,9.490050316E0,1.855050087E0,9.829778996E0
2.369337260E-1,1.614000082E0,9.259950638E0,1.816050053E0,9.573386019E0
2.388953650E-1,1.575000048E0,9.106050491E0,1.855050087E0,9.425602979E0
2.408568870E-1,1.498950124E0,8.914950371E0,1.701000094E0,9.198727787E0
2.428184440E-1,1.498950124E0,8.761950493E0,1.663050056E0,9.043470761E0
2.447798140E-1,1.459950089E0,8.647050858E0,1.510050058E0,8.898493916E0
2.467412280E-1,1.498950124E0,8.493000031E0,1.471050024E0,8.748822159E0
2.487029670E-1,1.422000051E0,8.416950226E0,1.471050024E0,8.662050763E0
2.506646110E-1,1.498950124E0,8.302050591E0,1.432950020E0,8.557116409E0
2.526260870E-1,1.422000051E0,8.224950790E0,1.395000100E0,8.462737437E0
2.545876130E-1,1.422000051E0,8.187000275E0,1.318050027E0,8.413460258E0
2.565496920E-1,1.384050012E0,8.110050201E0,1.356000066E0,8.338299880E0
2.585116100E-1,1.306950092E0,8.032950401E0,1.318050027E0,8.244614398E0
2.604732650E-1,1.306950092E0,7.918050289E0,1.356000066E0,8.138941891E0
2.624349970E-1,1.306950092E0,7.879950523E0,1.395000100E0,8.108499496E0
2.643968610E-1,1.269000053E0,7.879950523E0,1.395000100E0,8.102469171E0
2.663586870E-1,1.192050099E0,7.842000484E0,1.471050024E0,8.067338050E0
2.683207270E-1,1.039050102E0,7.842000484E0,1.432950020E0,8.039274997E0
2.702826970E-1,1.000050068E0,7.842000484E0,1.471050024E0,8.041210102E0
2.722443870E-1,8.850000501E-1,7.842000484E0,1.471050024E0,8.027713551E0
2.742061600E-1,8.470500112E-1,7.879950523E0,1.471050024E0,8.060713501E0
2.761676580E-1,7.699500322E-1,7.957050323E0,1.432950020E0,8.121626602E0
2.781292370E-1,6.550500393E-1,7.957050323E0,1.471050024E0,8.118357505E0
2.800900660E-1,5.790000558E-1,8.032950401E0,1.471050024E0,8.187033736E0
2.820511020E-1,4.260000288E-1,8.148000717E0,1.471050024E0,8.290680303E0
2.840130860E-1,3.109500110E-1,8.148000717E0,1.471050024E0,8.285565386E0
2.859747930E-1,2.340000123E-1,8.187000275E0,1.510050058E0,8.328384038E0
2.879366180E-1,1.570500135E-1,8.302050591E0,1.510050058E0,8.439725108E0
2.898984080E-1,1.189500093E-1,8.340000153E0,1.548000097E0,8.483280966E0
2.918600800E-1,4.050000105E-3,8.416950226E0,1.548000097E0,8.558117305E0
2.938217900E-1,-1.099500060E-1,8.493000031E0,1.510050058E0,8.626899194E0
2.957838390E-1,-3.019500077E-1,8.455050468E0,1.510050058E0,8.594143553E0
2.977457880E-1,-4.170000255E-1,8.532000542E0,1.471050024E0,8.667924229E0
2.997074370E-1,-5.320500135E-1,8.647050858E0,1.471050024E0,8.787408829E0
3.016691740E-1,-6.469500065E-1,8.685000420E0,1.471050024E0,8.832426890E0
3.036308760E-1,-7.620000243E-1,8.722949982E0,1.432950020E0,8.872645951E0
3.055926080E-1,-9.150000215E-1,8.761950493E0,1.432950020E0,8.925376588E0
3.075544720E-1,-1.030050039E0,8.838000298E0,1.395000100E0,9.006513067E0
3.095162980E-1,-9.919500351E-1,8.838000298E0,1.395000100E0,9.002235245E0
3.114781040E-1,-1.068000078E0,8.914950371E0,1.432950020E0,9.092321488E0
3.134399160E-1,-9.919500351E-1,8.953050613E0,1.471050024E0,9.127161023E0
3.154010720E-1,-9.529500604E-1,8.991000175E0,1.471050024E0,9.160250332E0
3.173624340E-1,-9.529500604E-1,9.030000687E0,1.510050058E0,9.204850754E0
3.193241370E-1,-1.068000078E0,9.145050049E0,1.471050024E0,9.323977302E0
3.212857400E-1,-1.030050039E0,9.220950127E0,1.471050024E0,9.394195681E0
3.232474920E-1,-1.068000078E0,9.220950127E0,1.432950020E0,9.392544446E0
3.252092010E-1,-9.919500351E-1,9.259950638E0,1.395000100E0,9.416829401E0
3.271710860E-1,-9.529500604E-1,9.336000443E0,1.395000100E0,9.487625802E0
3.291329090E-1,-8.770500422E-1,9.336000443E0,1.432950020E0,9.485961564E0
3.310947150E-1,-7.620000243E-1,9.375000000E0,1.471050024E0,9.520255102E0
3.330565260E-1,-6.079500318E-1,9.375000000E0,1.510050058E0,9.515276108E0
3.350181980E-1,-5.700000525E-1,9.375000000E0,1.510050058E0,9.512926797E0
3.369799110E-1,-4.930500090E-1,9.375000000E0,1.471050024E0,9.502510799E0
3.389414140E-1,-3.780000210E-1,9.375000000E0,1.471050024E0,9.497236292E0
3.409029830E-1,-2.629500031E-1,9.412950516E0,1.548000097E0,9.543012335E0
3.428645160E-1,-1.870500147E-1,9.451050758E0,1.585950017E0,9.585018811E0
3.448260600E-1,-1.099500060E-1,9.451050758E0,1.585950017E0,9.583824231E0
3.467876410E-1,4.050000105E-3,9.451050758E0,1.548000097E0,9.576987060E0
3.487492110E-1,8.100000024E-2,9.451050758E0,1.585950017E0,9.583535824E0
3.507106820E-1,1.570500135E-1,9.490050316E0,1.548000097E0,9.616757458E0
3.526721950E-1,3.109500110E-1,9.490050316E0,1.548000097E0,9.620501505E0
3.546335570E-1,4.639500082E-1,9.451050758E0,1.548000097E0,9.588217475E0
3.565949640E-1,5.410500169E-1,9.451050758E0,1.585950017E0,9.598454720E0
3.585569290E-1,5.790000558E-1,9.451050758E0,1.471050024E0,9.582358252E0
3.605187310E-1,6.169500351E-1,9.528000832E0,1.585950017E0,9.678773923E0
3.624801500E-1,7.699500322E-1,9.565950394E0,1.701000094E0,9.746467632E0
3.644417030E-1,8.470500112E-1,9.490050316E0,1.740000129E0,9.685357462E0
3.664032830E-1,8.850000501E-1,9.604950905E0,1.701000094E0,9.794473355E0
3.683648550E-1,9.240000248E-1,9.604950905E0,1.701000094E0,9.798074262E0
3.703265680E-1,9.240000248E-1,9.681000710E0,1.663050056E0,9.866168774E0
3.722882390E-1,1.000050068E0,9.643050194E0,1.585950017E0,9.823632456E0
3.742497510E-1,9.619500637E-1,9.720000267E0,1.548000097E0,9.889391155E0
3.762113130E-1,9.240000248E-1,9.720000267E0,1.548000097E0,9.885771874E0
3.781728470E-1,9.240000248E-1,9.720000267E0,1.510050058E0,9.879900425E0
3.801343900E-1,8.850000501E-1,9.757950783E0,1.585950017E0,9.925525982E0
3.820958830E-1,9.240000248E-1,9.757950783E0,1.548000097E0,9.923088422E0
3.840573900E-1,7.320000529E-1,9.796050072E0,1.585950017E0,9.950560715E0
3.860180330E-1,5.410500169E-1,9.835050583E0,1.548000097E0,9.970820397E0
3.879789290E-1,4.260000288E-1,9.873000145E0,1.624950051E0,1.001489244E1
3.899404410E-1,3.490500152E-1,9.796050072E0,1.740000129E0,9.955502668E0
3.919017730E-1,2.719500065E-1,9.796050072E0,1.740000129E0,9.953097722E0
3.938633020E-1,2.340000123E-1,9.757950783E0,1.816050053E0,9.928262551E0
3.958247730E-1,1.189500093E-1,9.681000710E0,1.855050087E0,9.857846350E0
3.977866780E-1,4.200000316E-2,9.565950394E0,1.816050053E0,9.736899339E0
3.997484600E-1,-3.299999982E-2,9.528000832E0,1.855050087E0,9.706961403E0
4.017103180E-1,-1.099500060E-1,9.490050316E0,1.893000126E0,9.677633671E0
4.036721530E-1,-1.099500060E-1,9.412950516E0,1.893000126E0,9.602040194E0
4.056341810E-1,-1.099500060E-1,9.336000443E0,1.816050053E0,9.511626100E0
4.075961530E-1,-1.870500147E-1,9.336000443E0,1.855050087E0,9.520352031E0
4.095576580E-1,-1.870500147E-1,9.298050880E0,1.855050087E0,9.483140235E0
4.115193030E-1,-3.019500077E-1,9.259950638E0,1.816050053E0,9.441180933E0
4.134807780E-1,-3.400500119E-1,9.298050880E0,1.740000129E0,9.465568374E0
4.154423030E-1,-3.780000210E-1,9.375000000E0,1.701000094E0,9.535560305E0
4.174037090E-1,-4.549500346E-1,9.412950516E0,1.701000094E0,9.576221503E0
4.193651500E-1,-5.320500135E-1,9.451050758E0,1.701000094E0,9.617631672E0
4.213266400E-1,-6.469500065E-1,9.528000832E0,1.740000129E0,9.707159451E0
4.232881290E-1,-7.230000496E-1,9.565950394E0,1.624950051E0,9.729881740E0
4.252496760E-1,-6.850500107E-1,9.604950905E0,1.663050056E0,9.771904159E0
4.272112060E-1,-7.620000243E-1,9.604950905E0,1.663050056E0,9.777599982E0
4.291726120E-1,-7.620000243E-1,9.565950394E0,1.624950051E0,9.732857424E0
4.311340540E-1,-8.380500674E-1,9.565950394E0,1.701000094E0,9.752083684E0
4.330958020E-1,-8.380500674E-1,9.528000832E0,1.701000094E0,9.714861249E0
4.350574500E-1,-8.380500674E-1,9.490050316E0,1.701000094E0,9.677643527E0
4.370191050E-1,-8.380500674E-1,9.451050758E0,1.740000129E0,9.646361428E0
4.389807580E-1,-8.380500674E-1,9.412950516E0,1.740000129E0,9.609035632E0
4.409423230E-1,-7.999500632E-1,9.412950516E0,1.740000129E0,9.605787733E0
4.429039140E-1,-8.380500674E-1,9.451050758E0,1.740000129E0,9.646361428E0
4.448654030E-1,-8.770500422E-1,9.375000000E0,1.740000129E0,9.575355984E0
4.468269190E-1,-8.770500422E-1,9.298050880E0,1.701000094E0,9.492964146E0
4.487881010E-1,-9.529500604E-1,9.336000443E0,1.701000094E0,9.537422052E0
4.507493810E-1,-8.770500422E-1,9.259950638E0,1.663050056E0,9.448896130E0
4.527110070E-1,-9.150000215E-1,9.220950127E0,1.624950051E0,9.407635673E0
4.546725320E-1,-9.150000215E-1,9.145050049E0,1.585950017E0,9.326542923E0
4.566344440E-1,-9.529500604E-1,9.067950249E0,1.548000097E0,9.248358764E0
4.585962350E-1,-9.919500351E-1,8.953050613E0,1.548000097E0,9.139878799E0
4.605578660E-1,-9.529500604E-1,8.991000175E0,1.510050058E0,9.166594196E0
4.625195440E-1,-7.999500632E-1,8.953050613E0,1.510050058E0,9.114674244E0
4.644812830E-1,-6.469500065E-1,8.914950371E0,1.510050058E0,9.065050226E0
4.664430040E-1,-6.850500107E-1,8.838000298E0,1.471050024E0,8.985740423E0
4.684046740E-1,-7.620000243E-1,8.838000298E0,1.471050024E0,8.991934245E0
4.703663720E-1,-7.999500632E-1,8.914950371E0,1.471050024E0,9.070846068E0
4.723281970E-1,-7.620000243E-1,8.914950371E0,1.510050058E0,9.073986738E0
4.742899850E-1,-7.620000243E-1,8.991000175E0,1.395000100E0,9.130430081E0
4.762514820E-1,-8.380500674E-1,9.067950249E0,1.203000069E0,9.185709488E0
4.782130640E-1,-7.230000496E-1,8.991000175E0,1.356000066E0,9.121378701E0
4.801746440E-1,-6.850500107E-1,8.991000175E0,1.510050058E0,9.142627021E0
4.821362220E-1,-7.230000496E-1,9.030000687E0,1.471050024E0,9.177561204E0
4.840978870E-1,-7.620000243E-1,9.067950249E0,1.471050024E0,9.218045016E0
4.860595270E-1,-7.999500632E-1,9.067950249E0,1.432950020E0,9.215258411E0
4.880212290E-1,-9.529500604E-1,9.030000687E0,1.356000066E0,9.180836694E0
4.899829120E-1,-1.068000078E0,9.067950249E0,1.318050027E0,9.225269739E0
4.919444750E-1,-9.150000215E-1,9.067950249E0,1.356000066E0,9.214319450E0
4.939060390E-1,-8.770500422E-1,9.106050491E0,1.279950023E0,9.237296379E0
4.958675730E-1,-8.380500674E-1,9.067950249E0,1.240950108E0,9.190756596E0
4.978291160E-1,-9.529500604E-1,9.067950249E0,8.580000401E-1,9.158165733E0
4.997905180E-1,-8.380500674E-1,9.030000687E0,1.050000072E0,9.129388833E0
5.017519620E-1,-7.620000243E-1,8.953050613E0,1.356000066E0,9.087161025E0
5.037136900E-1,-8.770500422E-1,8.953050613E0,1.510050058E0,9.121764261E0
5.056753070E-1,-9.529500604E-1,8.991000175E0,1.432950020E0,9.154209072E0
5.076370570E-1,-9.919500351E-1,8.991000175E0,1.318050027E0,9.141077885E0
5.095987680E-1,-1.030050039E0,9.030000687E0,1.240950108E0,9.172887912E0
5.115602780E-1,-1.030050039E0,8.991000175E0,1.165050030E0,9.124496085E0
5.135218470E-1,-1.068000078E0,9.030000687E0,9.730500579E-1,9.144854454E0
5.154833750E-1,-1.068000078E0,9.106050491E0,9.349500537E-1,9.216013852E0
5.174449190E-1,-1.068000078E0,9.106050491E0,8.959500194E-1,9.212139065E0
5.194060960E-1,-1.106999993E0,9.106050491E0,8.959500194E-1,9.216741885E0
5.213673810E-1,-1.183050036E0,9.106050491E0,8.959500194E-1,9.226184985E0
5.233287810E-1,-1.260000110E0,9.030000687E0,8.580000401E-1,9.157765925E0
5.252901480E-1,-1.297950029E0,8.991000175E0,9.349500537E-1,9.132189772E0
5.272515100E-1,-1.336950064E0,9.030000687E0,8.580000401E-1,9.168670129E0
5.292128610E-1,-1.183050036E0,9.067950249E0,7.050000429E-1,9.171932957E0
5.311744760E-1,-1.144950032E0,9.030000687E0,6.280500293E-1,9.123939380E0
5.331360130E-1,-1.106999993E0,9.067950249E0,6.660000086E-1,9.159515637E0
5.350975520E-1,-1.183050036E0,9.067950249E0,7.050000429E-1,9.171932957E0
5.370590900E-1,-1.222050071E0,9.106050491E0,7.050000429E-1,9.214694080E0
5.390206680E-1,-1.260000110E0,9.106050491E0,6.660000086E-1,9.216903593E0
5.409822060E-1,-1.297950029E0,9.067950249E0,6.660000086E-1,9.184549635E0
5.429435650E-1,-1.375050068E0,9.030000687E0,6.280500293E-1,9.155660650E0
5.449049770E-1,-1.452000022E0,8.991000175E0,5.899500251E-1,9.126578179E0
5.468666710E-1,-1.489950061E0,8.991000175E0,5.899500251E-1,9.132692723E0
5.488282830E-1,-1.489950061E0,8.953050613E0,5.899500251E-1,9.095334381E0
5.507898840E-1,-1.605000019E0,8.914950371E0,5.509500504E-1,9.075015765E0
5.527514680E-1,-1.795950055E0,8.800050735E0,5.509500504E-1,8.998326261E0
5.547138990E-1,-1.950000048E0,8.838000298E0,3.220500052E-1,9.056294256E0
5.566760810E-1,-1.834950089E0,8.838000298E0,2.449500114E-1,9.029800197E0
5.586366090E-1,-1.642950058E0,8.800050735E0,4.750500321E-1,8.964700239E0
5.605976220E-1,-1.642950058E0,8.800050735E0,6.660000086E-1,8.976844315E0
5.625593940E-1,-1.642950058E0,8.761950493E0,6.280500293E-1,8.936750426E0
5.645209370E-1,-1.720050097E0,8.761950493E0,5.130000114E-1,8.943909536E0
5.664827000E-1,-1.795950055E0,8.722949982E0,3.979500234E-1,8.914799897E0
5.684443990E-1,-1.834950089E0,8.685000420E0,3.220500052E-1,8.882566652E0
5.704058660E-1,-1.950000048E0,8.685000420E0,3.220500052E-1,8.907044890E0
5.723674010E-1,-2.218050003E0,8.569950104E0,4.360500276E-1,8.863065509E0
5.743287790E-1,-2.218050003E0,8.761950493E0,5.130000114E-1,9.052883036E0
5.762901890E-1,-2.065050125E0,8.761950493E0,4.750500321E-1,9.014537203E0
5.782523340E-1,-1.987950087E0,8.722949982E0,2.830500007E-1,8.951084808E0
5.802142640E-1,-2.026050091E0,8.722949982E0,2.830500007E-1,8.959623466E0
5.821747900E-1,-2.065050125E0,8.685000420E0,3.220500052E-1,8.932937955E0
5.841357280E-1,-2.140950203E0,8.722949982E0,3.220500052E-1,8.987615944E0
5.860976270E-1,-2.256000042E0,8.722949982E0,3.600000143E-1,9.017149915E0
5.880592210E-1,-2.640000105E0,8.800050735E0,-2.140500098E-1,9.190011475E0
5.900199850E-1,-2.371050119E0,8.838000298E0,2.449500114E-1,9.153804042E0
5.919809920E-1,-2.140950203E0,8.838000298E0,7.050000429E-1,9.120906868E0
5.939424410E-1,-2.179949999E0,8.877000809E0,7.810500264E-1,9.174059325E0
5.959037600E-1,-2.256000042E0,8.914950371E0,6.660000086E-1,9.220055982E0
5.978655650E-1,-2.295000076E0,8.953050613E0,5.899500251E-1,9.261327209E0
5.998272250E-1,-2.332950115E0,9.030000687E0,4.360500276E-1,9.336686150E0
6.017888790E-1,-2.410050154E0,9.030000687E0,3.979500234E-1,9.354550677E0
6.037505350E-1,-2.410050154E0,9.106050491E0,3.220500052E-1,9.425084270E0
6.057128180E-1,-2.410050154E0,9.145050049E0,2.449500114E-1,9.460458903E0
6.076749180E-1,-2.448000193E0,9.183000565E0,2.830500007E-1,9.507908372E0
6.096356590E-1,-2.563050032E0,9.183000565E0,3.979500234E-1,9.542279028E0
6.115967850E-1,-2.677950144E0,9.183000565E0,3.600000143E-1,9.572278535E0
6.135587080E-1,-2.601000071E0,9.298050880E0,4.750500321E-1,9.666675958E0
6.155203980E-1,-2.410050154E0,9.259950638E0,5.130000114E-1,9.582181201E0
6.174820910E-1,-2.256000042E0,9.259950638E0,3.600000143E-1,9.537600433E0
6.194437830E-1,-2.140950203E0,9.298050880E0,3.220500052E-1,9.546786588E0
6.214058810E-1,-2.218050003E0,9.259950638E0,3.600000143E-1,9.528695170E0
6.233678600E-1,-2.218050003E0,9.298050880E0,2.830500007E-1,9.563138256E0
6.253286030E-1,-2.218050003E0,9.336000443E0,3.220500052E-1,9.601268993E0
6.272897080E-1,-2.179949999E0,9.375000000E0,3.979500234E-1,9.633336453E0
6.292516350E-1,-2.140950203E0,9.336000443E0,3.600000143E-1,9.585101567E0
6.312133210E-1,-2.140950203E0,9.375000000E0,3.979500234E-1,9.624586069E0
6.331745150E-1,-2.332950115E0,9.336000443E0,3.600000143E-1,9.629805840E0
6.351358570E-1,-2.256000042E0,9.412950516E0,4.750500321E-1,9.691173620E0
6.370976080E-1,-1.987950087E0,9.375000000E0,5.509500504E-1,9.599276874E0
6.390592390E-1,-1.758000135E0,9.375000000E0,4.360500276E-1,9.548367876E0
6.410207180E-1,-1.758000135E0,9.336000443E0,5.899500251E-1,9.518377476E0
6.429822410E-1,-1.720050097E0,9.298050880E0,5.899500251E-1,9.474194612E0
6.449436470E-1,-1.681950092E0,9.298050880E0,5.899500251E-1,9.467351653E0
6.469050880E-1,-1.681950092E0,9.298050880E0,6.660000086E-1,9.472394750E0
6.488671380E-1,-1.720050097E0,9.336000443E0,5.509500504E-1,9.509102090E0
6.508290090E-1,-1.758000135E0,9.298050880E0,5.899500251E-1,9.481157929E0
6.527901760E-1,-1.720050097E0,9.336000443E0,5.899500251E-1,9.511441406E0
6.547515490E-1,-1.720050097E0,9.336000443E0,6.660000086E-1,9.516461139E0
6.567127750E-1,-1.642950058E0,9.375000000E0,7.429500222E-1,9.546825893E0
6.586740300E-1,-1.642950058E0,9.336000443E0,7.429500222E-1,9.508531111E0
6.606357510E-1,-1.605000019E0,9.375000000E0,7.050000429E-1,9.537487883E0
6.625973350E-1,-1.605000019E0,9.336000443E0,7.050000429E-1,9.499155456E0
6.645585070E-1,-1.567050099E0,9.336000443E0,7.050000429E-1,9.492817039E0
6.665197990E-1,-1.567050099E0,9.336000443E0,7.810500264E-1,9.498767784E0
6.684812620E-1,-1.605000019E0,9.259950638E0,7.429500222E-1,9.427337143E0
6.704426620E-1,-1.795950055E0,9.220950127E0,7.810500264E-1,9.426632325E0
6.724041790E-1,-1.605000019E0,9.336000443E0,8.959500194E-1,9.515232827E0
6.743656620E-1,-1.375050068E0,9.259950638E0,7.429500222E-1,9.390922385E0
6.763272100E-1,-1.260000110E0,9.220950127E0,7.810500264E-1,9.339355473E0
6.782887390E-1,-1.375050068E0,9.259950638E0,7.429500222E-1,9.390922385E0
6.802502650E-1,-1.222050071E0,9.298050880E0,7.810500264E-1,9.410483287E0
6.822118020E-1,-1.260000110E0,9.259950638E0,8.580000401E-1,9.384585775E0
6.841732070E-1,-1.222050071E0,9.259950638E0,8.580000401E-1,9.379565889E0
6.861346500E-1,-1.183050036E0,9.298050880E0,8.580000401E-1,9.412200680E0
6.880960240E-1,-1.144950032E0,9.298050880E0,8.200500607E-1,9.404102448E0
6.900574190E-1,-1.183050036E0,9.298050880E0,8.580000401E-1,9.412200680E0
6.920190960E-1,-1.336950064E0,9.412950516E0,2.830500007E-1,9.511634465E0
6.939807050E-1,-1.183050036E0,9.336000443E0,6.280500293E-1,9.431593635E0
6.959422320E-1,-1.068000078E0,9.336000443E0,1.050000072E0,9.455370357E0
6.979037840E-1,-1.068000078E0,9.336000443E0,1.165050030E0,9.468836782E0
6.998650040E-1,-1.030050039E0,9.412950516E0,1.203000069E0,9.545252729E0
7.018263220E-1,-1.106999993E0,9.412950516E0,1.087950110E0,9.540058796E0
7.037880380E-1,-1.144950032E0,9.451050758E0,8.580000401E-1,9.558736061E0
7.057496330E-1,-1.144950032E0,9.565950394E0,8.959500194E-1,9.675796812E0
7.077109820E-1,-1.144950032E0,9.565950394E0,8.580000401E-1,9.672356568E0
7.096724040E-1,-1.183050036E0,9.565950394E0,8.959500194E-1,9.680379164E0
7.116336470E-1,-1.260000110E0,9.681000710E0,9.349500537E-1,9.807319033E0
7.135949430E-1,-1.222050071E0,9.720000267E0,9.349500537E-1,9.841033643E0
7.155564630E-1,-1.183050036E0,9.720000267E0,9.349500537E-1,9.836266781E0
7.175179270E-1,-1.183050036E0,9.796050072E0,8.959500194E-1,9.907821700E0
7.194795230E-1,-1.222050071E0,9.835050583E0,8.580000401E-1,9.947753033E0
7.214410810E-1,-1.297950029E0,9.835050583E0,9.349500537E-1,9.964287523E0
7.234025720E-1,-1.297950029E0,9.910950661E0,9.349500537E-1,1.003921057E1
7.253640830E-1,-1.297950029E0,9.949950218E0,8.580000401E-1,1.007086628E1
7.273256390E-1,-1.260000110E0,1.002600002E1,8.200500607E-1,1.013808457E1
7.292871720E-1,-1.375050068E0,1.010295010E1,7.050000429E-1,1.022043974E1
7.312483520E-1,-1.452000022E0,1.021800041E1,4.360500276E-1,1.032985847E1
7.332096350E-1,-1.375050068E0,1.014105034E1,8.959500194E-1,1.027299329E1
7.351714420E-1,-1.375050068E0,1.025595093E1,1.165050030E0,1.041309914E1
7.371330950E-1,-1.452000022E0,1.025595093E1,1.126049995E0,1.041925247E1
7.390947650E-1,-1.567050099E0,1.029495049E1,1.011000037E0,1.046249361E1
7.410564180E-1,-1.605000019E0,1.037100029E1,8.959500194E-1,1.053263493E1
7.430178030E-1,-1.681950092E0,1.041000080E1,7.810500264E-1,1.057388821E1
7.449792670E-1,-1.758000135E0,1.041000080E1,7.429500222E-1,1.058350868E1
7.469406380E-1,-1.795950055E0,1.052505016E1,6.660000086E-1,1.069792847E1
7.489020360E-1,-1.834950089E0,1.060095024E1,6.660000086E-1,1.077918104E1
7.508634180E-1,-1.911000133E0,1.060095024E1,7.050000429E-1,1.079486418E1
7.528248050E-1,-1.911000133E0,1.060095024E1,6.280500293E-1,1.079011188E1
7.547859640E-1,-1.987950087E0,1.071600056E1,6.280500293E-1,1.091691625E1
7.567471900E-1,-2.065050125E0,1.071600056E1,5.899500251E-1,1.092909607E1
7.587084200E-1,-2.140950203E0,1.075500011E1,4.750500321E-1,1.097630939E1
7.606696490E-1,-2.140950203E0,1.079295063E1,5.509500504E-1,1.101703213E1
7.626311050E-1,-2.256000042E0,1.083105087E1,4.360500276E-1,1.107209731E1
7.645924950E-1,-2.332950115E0,1.083105087E1,3.600000143E-1,1.108530195E1
7.665540590E-1,-2.410050154E0,1.087005043E1,3.979500234E-1,1.114112662E1
7.685155720E-1,-2.448000193E0,1.087005043E1,4.360500276E-1,1.115082243E1
7.704774760E-1,-2.524950027E0,1.094595051E1,2.830500007E-1,1.123696233E1
7.724392650E-1,-2.485950232E0,1.094595051E1,2.449500114E-1,1.122736753E1
7.744008810E-1,-2.563050032E0,1.087005043E1,2.070000172E-1,1.117005241E1
7.763625590E-1,-2.563050032E0,1.090800095E1,2.449500114E-1,1.120775226E1
7.783238940E-1,-2.601000071E0,1.087005043E1,2.449500114E-1,1.117958846E1
7.802853290E-1,-2.563050032E0,1.090800095E1,2.449500114E-1,1.120775226E1
7.822467500E-1,-2.601000071E0,1.087005043E1,2.449500114E-1,1.117958846E1
7.842081750E-1,-2.563050032E0,1.087005043E1,2.070000172E-1,1.117005241E1
7.861695520E-1,-2.601000071E0,1.087005043E1,3.220500052E-1,1.118154345E1
7.881309440E-1,-2.563050032E0,1.087005043E1,2.449500114E-1,1.117082013E1
7.900924610E-1,-2.563050032E0,1.087005043E1,2.449500114E-1,1.117082013E1
7.920539420E-1,-2.601000071E0,1.090800095E1,2.070000172E-1,1.121572713E1
7.940153110E-1,-2.524950027E0,1.087005043E1,1.680000126E-1,1.116071651E1
7.959767130E-1,-2.485950232E0,1.087005043E1,2.070000172E-1,1.115261377E1
7.979377940E-1,-2.448000193E0,1.087005043E1,1.680000126E-1,1.114355981E1
7.998989590E-1,-2.410050154E0,1.083105087E1,1.680000126E-1,1.109721716E1
8.018605600E-1,-2.485950232E0,1.079295063E1,2.070000172E-1,1.107748080E1
8.038220340E-1,-2.601000071E0,1.079295063E1,1.680000126E-1,1.110320713E1
8.057833590E-1,-2.524950027E0,1.090800095E1,9.195000678E-2,1.119679919E1
8.077447280E-1,-2.410050154E0,1.083105087E1,1.500000060E-2,1.109595556E1
8.097061050E-1,-2.371050119E0,1.087005043E1,5.295000225E-2,1.112576643E1
8.116674860E-1,-2.332950115E0,1.090800095E1,1.680000126E-1,1.115595648E1
8.136281960E-1,-2.256000042E0,1.087005043E1,2.449500114E-1,1.110439251E1
8.155891030E-1,-2.218050003E0,1.087005043E1,3.220500052E-1,1.109871427E1
8.175507490E-1,-2.140950203E0,1.090800095E1,3.600000143E-1,1.112194913E1
8.195121780E-1,-2.103000164E0,1.087005043E1,4.360500276E-1,1.108019610E1
8.214735210E-1,-2.026050091E0,1.083105087E1,5.509500504E-1,1.103268272E1
8.234348820E-1,-2.065050125E0,1.083105087E1,5.130000114E-1,1.103808244E1
8.253963150E-1,-2.026050091E0,1.083105087E1,5.130000114E-1,1.103085269E1
8.273577260E-1,-2.026050091E0,1.079295063E1,5.509500504E-1,1.099528118E1
8.293192410E-1,-2.103000164E0,1.087005043E1,9.195000678E-2,1.107199444E1
8.312807260E-1,-1.911000133E0,1.083105087E1,3.979500234E-1,1.100554173E1
8.332420940E-1,-1.834950089E0,1.075500011E1,7.810500264E-1,1.093833207E1
8.352034970E-1,-1.758000135E0,1.075500011E1,8.959500194E-1,1.093450129E1
8.371650580E-1,-1.720050097E0,1.067805004E1,8.580000401E-1,1.084967691E1
8.391265720E-1,-1.720050097E0,1.067805004E1,8.200500607E-1,1.084674177E1
8.410879800E-1,-1.567050099E0,1.060095024E1,8.580000401E-1,1.075043981E1
8.430494200E-1,-1.605000019E0,1.060095024E1,7.810500264E-1,1.075017257E1
8.450109790E-1,-1.567050099E0,1.056300068E1,7.810500264E-1,1.070713167E1
8.469725000E-1,-1.567050099E0,1.052505016E1,9.349500537E-1,1.068206247E1
8.489341760E-1,-1.605000019E0,1.041000080E1,8.580000401E-1,1.056789032E1
8.508958070E-1,-1.681950092E0,1.041000080E1,9.349500537E-1,1.058636880E1
8.528573760E-1,-1.642950058E0,1.037100029E1,1.011000037E0,1.054888871E1
8.548189630E-1,-1.642950058E0,1.037100029E1,1.087950110E0,1.055654145E1
8.567802990E-1,-1.605000019E0,1.033305073E1,1.240950108E0,1.053033331E1
8.587417180E-1,-1.605000019E0,1.025595093E1,1.279950023E0,1.045938940E1
8.607032760E-1,-1.605000019E0,1.033305073E1,1.395000100E0,1.054959657E1
8.626647930E-1,-1.528050065E0,1.025595093E1,1.432950020E0,1.046770329E1
8.646262910E-1,-1.567050099E0,1.021800041E1,1.471050024E0,1.044160747E1
8.665877950E-1,-1.642950058E0,1.018005085E1,1.471050024E0,1.041617532E1
8.685493380E-1,-1.567050099E0,1.021800041E1,1.510050058E0,1.044717328E1
8.705108700E-1,-1.567050099E0,1.018005085E1,1.585950017E0,1.042133959E1
8.724724550E-1,-1.605000019E0,1.018005085E1,1.740000129E0,1.045165350E1
8.744340240E-1,-1.567050099E0,1.014105034E1,1.855050087E0,1.042773987E1
8.763956930E-1,-1.642950058E0,1.014105034E1,2.008050203E0,1.046768611E1
8.783573320E-1,-1.642950058E0,1.006500053E1,2.161050081E0,1.042466585E1
8.803188680E-1,-1.681950092E0,1.002600002E1,2.275950193E0,1.041775321E1
8.822804250E-1,-1.681950092E0,9.988050461E0,2.391000032E0,1.040706439E1
8.842421390E-1,-1.605000019E0,9.910950661E0,2.467950106E0,1.033894317E1
8.862038070E-1,-1.605000019E0,9.910950661E0,2.620950222E0,1.037652871E1
8.881653240E-1,-1.528050065E0,9.873000145E0,2.773950100E0,1.036850365E1
8.901268860E-1,-1.489950061E0,9.873000145E0,2.928000212E0,1.040525196E1
8.920882900E-1,-1.413000107E0,9.796050072E0,3.004050255E0,1.034328208E1
8.940497370E-1,-1.336950064E0,9.720000267E0,3.043050051E0,1.027258460E1
8.960112900E-1,-1.260000110E0,9.681000710E0,3.196050167E0,1.027249296E1
8.979728120E-1,-1.144950032E0,9.604950905E0,3.234000206E0,1.019925241E1
8.999343090E-1,-1.068000078E0,9.565950394E0,3.310950041E0,1.017892044E1
9.018958140E-1,-9.150000215E-1,9.490050316E0,3.388050079E0,1.011816008E1
9.038572230E-1,-8.380500674E-1,9.412950516E0,3.388050079E0,1.003916574E1
9.058186610E-1,-6.850500107E-1,9.336000443E0,3.463950157E0,9.981440200E0
9.077803500E-1,-6.079500318E-1,9.298050880E0,3.463950157E0,9.940940806E0
9.097419660E-1,-5.320500135E-1,9.183000565E0,3.349050045E0,9.789111951E0
9.117034920E-1,-7.620000243E-1,8.953050613E0,3.196050167E0,9.536901803E0
9.136650450E-1,-9.150000215E-1,8.914950371E0,3.234000206E0,9.527450996E0
9.156266010E-1,-3.780000210E-1,8.877000809E0,3.196050167E0,9.442391860E0
9.175881730E-1,1.189500093E-1,8.722949982E0,3.196050167E0,9.290788027E0
9.195504270E-1,3.870000243E-1,8.608050346E0,3.310950041E0,9.230963653E0
9.215124810E-1,6.169500351E-1,8.608050346E0,3.310950041E0,9.243459757E0
9.234739320E-1,8.089500666E-1,8.532000542E0,3.349050045E0,9.201389550E0
9.254355600E-1,8.850000501E-1,8.455050468E0,3.310950041E0,9.123239210E0
9.273970780E-1,1.114950061E0,8.455050468E0,3.273000240E0,9.134742615E0
9.293586320E-1,1.230000019E0,8.416950226E0,3.157950163E0,9.073621128E0
9.313203010E-1,1.306950092E0,8.377950668E0,3.081000090E0,9.021681523E0
9.332819370E-1,1.345050097E0,8.416950226E0,3.043050051E0,9.050655472E0
9.352435050E-1,1.422000051E0,8.340000153E0,3.043050051E0,8.990986614E0
9.372050930E-1,1.498950124E0,8.340000153E0,3.043050051E0,9.003477530E0
9.391669520E-1,1.651950121E0,8.340000153E0,3.196050167E0,9.082911340E0
9.411287210E-1,1.729050040E0,8.340000153E0,3.196050167E0,9.097249763E0
9.430902210E-1,1.843950033E0,8.302050591E0,3.273000240E0,9.112448974E0
9.450518000E-1,2.035050154E0,8.263050079E0,3.310950041E0,9.131364406E0
9.470133310E-1,2.149950027E0,8.224950790E0,3.310950041E0,9.123293857E0
9.489748760E-1,2.304000139E0,8.224950790E0,3.310950041E0,9.160819959E0
9.509365880E-1,2.380050182E0,8.187000275E0,3.310950041E0,9.146256204E0
9.528982540E-1,2.533950090E0,8.148000717E0,3.273000240E0,9.139110970E0
9.548595910E-1,2.649000168E0,8.148000717E0,3.157950163E0,9.131252204E0
9.568210250E-1,2.725050211E0,8.110050201E0,3.118950129E0,9.106407789E0
9.587824460E-1,2.802000046E0,8.071949959E0,3.043050051E0,9.070156228E0
9.607438710E-1,2.802000046E0,8.032950401E0,2.889000177E0,8.984754779E0
9.627054140E-1,2.917050123E0,8.032950401E0,2.851050138E0,9.009215308E0
9.646669320E-1,3.031950235E0,8.032950401E0,2.773950100E0,9.023071181E0
9.666288350E-1,2.802000046E0,7.842000484E0,2.122950077E0,8.593898585E0
9.685906250E-1,2.572050095E0,7.879950523E0,1.701000094E0,8.461823873E0
9.705522560E-1,2.878050089E0,7.918050289E0,1.969950080E0,8.652132455E0
9.725139340E-1,2.955000162E0,7.879950523E0,2.200050116E0,8.698612919E0
9.744756330E-1,2.992950201E0,7.918050289E0,2.238000154E0,8.755679070E0
9.764373220E-1,2.992950201E0,7.995000362E0,2.275950193E0,8.835028635E0
9.783988810E-1,2.955000162E0,8.071949959E0,2.122950077E0,8.854113119E0
9.803604780E-1,2.878050089E0,8.148000717E0,1.930950046E0,8.854470966E0
9.823221410E-1,2.839950085E0,8.187000275E0,1.816050053E0,8.853831248E0
9.842837840E-1,2.764050245E0,8.302050591E0,1.701000094E0,8.913889111E0
9.862451250E-1,2.649000168E0,8.416950226E0,1.624950051E0,8.972330559E0
9.882065550E-1,2.494950056E0,8.608050346E0,1.471050024E0,9.082251633E0
9.901679320E-1,2.419050217E0,8.761950493E0,1.471050024E0,9.208016538E0
9.921293240E-1,2.341950178E0,8.953050613E0,1.471050024E0,9.370476727E0
9.940907510E-1,2.188950062E0,9.145050049E0,1.432950020E0,9.511928749E0
9.960521680E-1,2.111999989E0,9.375000000E0,1.471050024E0,9.721890615E0
9.980134980E-1,1.996950150E0,9.451050758E0,1.471050024E0,9.771087888E0
9.999748580E-1,1.843950033E0,9.604950905E0,1.471050024E0,9.890360043E0
1.001936246E0,1.575000048E0,9.757950783E0,1.471050024E0,9.993108465E0
1.003897625E0,1.384050012E0,9.949950218E0,1.432950020E0,1.014743561E1
1.005859236E0,1.269000053E0,1.002600002E1,1.356000066E0,1.019655696E1
1.007820779E0,1.114950061E0,1.029495049E1,1.395000100E0,1.044869104E1
1.009782268E0,8.470500112E-1,1.048605061E1,1.471050024E0,1.062255803E1
1.011743776E0,6.169500351E-1,1.067805004E1,1.471050024E0,1.079654427E1
1.013704599E0,4.260000288E-1,1.087005043E1,1.510050058E0,1.098270110E1
1.015665622E0,1.960500032E-1,1.094595051E1,1.471050024E0,1.104609688E1
1.017627113E0,4.050000105E-3,1.121400070E1,1.432950020E0,1.130518350E1
1.019588466E0,-2.629500031E-1,1.144395065E1,1.356000066E0,1.152700679E1
1.021550352E0,-4.930500090E-1,1.155900097E1,1.165050030E0,1.162802405E1
1.023512081E0,-6.850500107E-1,1.167405033E1,1.087950110E0,1.174463197E1
1.025473633E0,-8.380500674E-1,1.186605072E1,1.087950110E0,1.194525525E1
1.027435237E0,-9.529500604E-1,1.194300079E1,8.959500194E-1,1.201441252E1
1.029396898E0,-1.183050036E0,1.194300079E1,8.580000401E-1,1.203208375E1
1.031358543E0,-1.336950064E0,1.201905060E1,8.200500607E-1,1.212095272E1
1.033319894E0,-1.489950061E0,1.198095036E1,5.509500504E-1,1.208580442E1
1.035281324E0,-1.528050065E0,1.198095036E1,3.220500052E-1,1.208229385E1
1.037242746E0,-1.567050099E0,1.205805016E1,5.509500504E-1,1.217192530E1
1.039204170E0,-1.720050097E0,1.217295074E1,7.050000429E-1,1.231407029E1
1.041165548E0,-1.795950055E0,1.209600067E1,6.280500293E-1,1.224471787E1
1.043126940E0,-1.873050094E0,1.205805016E1,5.899500251E-1,1.221691169E1
1.045088273E0,-1.987950087E0,1.205805016E1,4.750500321E-1,1.223005281E1
1.047049627E0,-2.140950203E0,1.194300079E1,4.360500276E-1,1.214121392E1
1.049010881E0,-2.256000042E0,1.182795048E1,3.979500234E-1,1.204775136E1
1.050972165E0,-2.410050154E0,1.171305084E1,4.360500276E-1,1.196637127E1
1.052933701E0,-2.448000193E0,1.159800053E1,4.360500276E-1,1.186155389E1
1.054895163E0,-2.563050032E0,1.144395065E1,3.600000143E-1,1.173298053E1
1.056857255E0,-2.640000105E0,1.144395065E1,2.449500114E-1,1.174706804E1
1.058819163E0,-2.793000221E0,1.075500011E1,-9.040500522E-1,1.114846107E1
1.060780459E0,-2.716050148E0,1.071600056E1,-8.269500136E-1,1.108573149E1
1.062741935E0,-2.640000105E0,1.079295063E1,1.500000060E-2,1.111114795E1
1.064702583E0,-2.793000221E0,1.083105087E1,6.280500293E-1,1.120298889E1
1.066663473E0,-2.985000134E0,1.087005043E1,6.280500293E-1,1.128993662E1
1.068625347E0,-3.022950172E0,1.090800095E1,4.360500276E-1,1.132752630E1
1.070586933E0,-2.908050060E0,1.094595051E1,3.979500234E-1,1.133264982E1
1.072549139E0,-3.100050211E0,1.098495007E1,3.600000143E-1,1.141967772E1
1.074511163E0,-3.214950085E0,1.090800095E1,-2.205000073E-2,1.137193365E1
1.076472619E0,-3.253050089E0,1.087005043E1,-2.520000041E-1,1.134917773E1
1.078434242E0,-3.214950085E0,1.090800095E1,-2.910000086E-1,1.137563491E1
1.080395940E0,-3.175950050E0,1.094595051E1,-2.520000041E-1,1.140017523E1
1.082357620E0,-3.175950050E0,1.083105087E1,-3.289500177E-1,1.129187893E1
1.084319360E0,-3.100050211E0,1.075500011E1,-4.819500148E-1,1.120324125E1
1.086281082E0,-3.022950172E0,1.075500011E1,-3.289500177E-1,1.117660339E1
1.088242725E0,-3.061050177E0,1.067805004E1,-4.060500264E-1,1.111555925E1
1.090204391E0,-3.022950172E0,1.071600056E1,-4.060500264E-1,1.114162341E1
1.092165953E0,-3.061050177E0,1.063995075E1,-3.289500177E-1,1.107640683E1
1.094127545E0,-3.022950172E0,1.060095024E1,-2.910000086E-1,1.102737751E1
1.096089254E0,-2.946000099E0,1.060095024E1,-3.289500177E-1,1.100760059E1
1.098050928E0,-2.908050060E0,1.048605061E1,-4.060500264E-1,1.088939342E1
1.100012444E0,-2.869950056E0,1.041000080E1,-3.289500177E-1,1.080337624E1
1.101974007E0,-2.908050060E0,1.041000080E1,-4.440000355E-1,1.081767109E1
1.103935501E0,-2.869950056E0,1.037100029E1,-4.440000355E-1,1.076993019E1
1.105897012E0,-2.869950056E0,1.029495049E1,-4.819500148E-1,1.069835944E1
1.107858599E0,-2.830950022E0,1.021800041E1,-5.970000029E-1,1.061970901E1
1.109820164E0,-2.793000221E0,1.014105034E1,-6.360000372E-1,1.053784837E1
1.111781654E0,-2.640000105E0,1.002600002E1,-5.970000029E-1,1.038492590E1
1.113743166E0,-2.448000193E0,9.988050461E0,-5.590500236E-1,1.029885401E1
1.115704883E0,-2.371050119E0,9.873000145E0,-4.060500264E-1,1.016183483E1
1.117666543E0,-2.332950115E0,9.796050072E0,-3.670500219E-1,1.007670477E1
1.119628241E0,-2.256000042E0,9.681000710E0,-2.520000041E-1,9.943581595E0
1.121589928E0,-2.179949999E0,9.604950905E0,-2.140500098E-1,9.851552227E0
1.123551621E0,-2.103000164E0,9.490050316E0,-2.910000086E-1,9.724625735E0
1.125513312E0,-2.065050125E0,9.412950516E0,-3.670500219E-1,9.643795682E0
1.127475211E0,-1.950000048E0,9.298050880E0,-5.970000029E-1,9.519068198E0
1.129437063E0,-1.873050094E0,9.183000565E0,-6.360000372E-1,9.393631463E0
1.131398504E0,-1.834950089E0,9.067950249E0,-8.269500136E-1,9.288627986E0
1.133360065E0,-1.795950055E0,8.991000175E0,-7.890000343E-1,9.202501932E0
1.135321600E0,-1.795950055E0,8.838000298E0,-7.510500550E-1,9.049848731E0
1.137283142E0,-1.681950092E0,8.761950493E0,-6.360000372E-1,8.944564193E0
1.139244518E0,-1.681950092E0,8.647050858E0,-5.590500236E-1,8.826833043E0
1.141205930E0,-1.567050099E0,8.608050346E0,-4.060500264E-1,8.758941340E0
1.143167354E0,-1.528050065E0,8.569950104E0,-2.520000041E-1,8.708759141E0
1.145128774E0,-1.567050099E0,8.532000542E0,-4.060500264E-1,8.684213026E0
1.147090288E0,-1.489950061E0,8.416950226E0,-5.209500194E-1,8.563666925E0
1.149051774E0,-1.528050065E0,8.302050591E0,-6.739500165E-1,8.468364047E0
1.151013201E0,-1.528050065E0,8.263050079E0,-7.890000343E-1,8.440109873E0
1.152974636E0,-1.528050065E0,8.187000275E0,-8.269500136E-1,8.369334312E0
1.154936507E0,-1.452000022E0,8.224950790E0,-9.420000315E-1,8.405086771E0
1.156898250E0,-1.489950061E0,8.110050201E0,-7.890000343E-1,8.283440499E0
1.158859619E0,-1.452000022E0,8.071949959E0,-8.269500136E-1,8.243089623E0
1.160821098E0,-1.413000107E0,8.032950401E0,-8.269500136E-1,8.198091716E0
1.162782601E0,-1.489950061E0,7.957050323E0,-9.040500522E-1,8.145668022E0
1.164744096E0,-1.413000107E0,7.879950523E0,-9.420000315E-1,8.060865562E0
1.166705463E0,-1.413000107E0,7.803000450E0,-9.040500522E-1,7.981271316E0
1.168666867E0,-1.336950064E0,7.726950169E0,-9.040500522E-1,7.893700075E0
1.170628427E0,-1.336950064E0,7.687950134E0,-9.040500522E-1,7.855527941E0
1.172589942E0,-1.336950064E0,7.650000572E0,-8.269500136E-1,7.809852147E0
1.174551350E0,-1.260000110E0,7.573050499E0,-8.269500136E-1,7.721563343E0
1.176512790E0,-1.260000110E0,7.612050533E0,-8.269500136E-1,7.759817003E0
1.178474299E0,-1.297950029E0,7.573050499E0,-8.659500480E-1,7.732117280E0
1.180435788E0,-1.297950029E0,7.573050499E0,-7.890000343E-1,7.723877860E0
1.182397021E0,-1.297950029E0,7.534950256E0,-8.269500136E-1,7.690513375E0
1.184358329E0,-1.297950029E0,7.573050499E0,-7.510500550E-1,7.720093544E0
1.186320221E0,-1.297950029E0,7.612050533E0,-7.890000343E-1,7.762120113E0
1.188281942E0,-1.336950064E0,7.612050533E0,-7.510500550E-1,7.764974242E0
1.190243495E0,-1.336950064E0,7.612050533E0,-8.659500480E-1,7.776928589E0
1.192205098E0,-1.297950029E0,7.726950169E0,-9.040500522E-1,7.887188326E0
1.194166580E0,-1.336950064E0,7.765050411E0,-8.659500480E-1,7.926746675E0
1.196128098E0,-1.336950064E0,7.765050411E0,-9.420000315E-1,7.935414760E0
1.198089639E0,-1.297950029E0,7.803000450E0,-9.040500522E-1,7.961708158E0
1.200051173E0,-1.260000110E0,7.879950523E0,-9.040500522E-1,8.031097498E0
1.202012578E0,-1.222050071E0,7.918050289E0,-9.420000315E-1,8.066987716E0
1.203974021E0,-1.260000110E0,7.918050289E0,-9.040500522E-1,8.068483572E0
1.205935575E0,-1.260000110E0,7.918050289E0,-1.018950105E0,8.082164312E0
1.207897096E0,-1.297950029E0,7.995000362E0,-9.810000658E-1,8.158864272E0
1.209858638E0,-1.297950029E0,7.957050323E0,-1.018950105E0,8.126351177E0
1.211820173E0,-1.260000110E0,8.032950401E0,-1.057050109E0,8.199588243E0
1.213781712E0,-1.260000110E0,8.032950401E0,-1.018950105E0,8.194763678E0
1.215743250E0,-1.336950064E0,8.032950401E0,-1.057050109E0,8.211764887E0
1.217704609E0,-1.336950064E0,7.995000362E0,-1.134000063E0,8.184950972E0
1.219666021E0,-1.336950064E0,8.032950401E0,-1.057050109E0,8.211764887E0
1.221627387E0,-1.375050068E0,8.071949959E0,-1.096050024E0,8.261262887E0
1.223588776E0,-1.336950064E0,8.071949959E0,-1.096050024E0,8.255006800E0
1.225550474E0,-1.413000107E0,8.071949959E0,-1.057050109E0,8.262584364E0
1.227512082E0,-1.413000107E0,7.918050289E0,-1.210950017E0,8.133786918E0
1.229473610E0,-1.336950064E0,7.918050289E0,-1.134000063E0,8.109803450E0
1.231435161E0,-1.336950064E0,7.957050323E0,-1.018950105E0,8.132671433E0
1.233396701E0,-1.375050068E0,7.995000362E0,-1.018950105E0,8.176127005E0
1.235358242E0,-1.413000107E0,7.918050289E0,-1.057050109E0,8.112302054E0
1.237319645E0,-1.452000022E0,7.918050289E0,-1.171950102E0,8.134942623E0
1.239281088E0,-1.489950061E0,7.879950523E0,-1.171950102E0,8.104754066E0
1.241242642E0,-1.489950061E0,7.842000484E0,-1.249050021E0,8.079421312E0
1.243204163E0,-1.452000022E0,7.765050411E0,-1.249050021E0,7.997777060E0
1.245165889E0,-1.489950061E0,7.687950134E0,-1.171950102E0,7.918206583E0
1.247127552E0,-1.528050065E0,7.687950134E0,-1.171950102E0,7.925464107E0
1.249089430E0,-1.567050099E0,7.612050533E0,-1.249050021E0,7.871409359E0
1.251051245E0,-1.642950058E0,7.573050499E0,-1.210950017E0,7.843263268E0
1.253013052E0,-1.642950058E0,7.534950256E0,-1.287000060E0,7.818639870E0
1.254974862E0,-1.642950058E0,7.497000217E0,-1.287000060E0,7.782073394E0
1.256936390E0,-1.681950092E0,7.420050144E0,-1.287000060E0,7.716376702E0
1.258898007E0,-1.758000135E0,7.420050144E0,-1.287000060E0,7.733309626E0
1.260859711E0,-1.758000135E0,7.342950344E0,-1.287000060E0,7.659363772E0
1.262821390E0,-1.834950089E0,7.342950344E0,-1.249050021E0,7.671120358E0
1.264783265E0,-1.795950055E0,7.342950344E0,-1.326000094E0,7.674805053E0
1.266745082E0,-1.834950089E0,7.381950378E0,-1.287000060E0,7.714700407E0
1.268706903E0,-1.873050094E0,7.381950378E0,-1.249050021E0,7.717618415E0
1.270668713E0,-1.950000048E0,7.342950344E0,-1.287000060E0,7.705698482E0
1.272630205E0,-1.950000048E0,7.342950344E0,-1.249050021E0,7.699451013E0
1.274591790E0,-2.026050091E0,7.342950344E0,-1.210950017E0,7.712988958E0
1.276553366E0,-2.065050125E0,7.305000305E0,-1.171950102E0,7.681206189E0
1.278514944E0,-2.103000164E0,7.305000305E0,-1.210950017E0,7.697534611E0
1.280476486E0,-2.140950203E0,7.228050232E0,-1.363950014E0,7.660857496E0
1.282438031E0,-2.140950203E0,7.267050266E0,-1.287000060E0,7.684403458E0
1.284399568E0,-2.256000042E0,7.228050232E0,-1.249050021E0,7.674266890E0
1.286361108E0,-2.218050003E0,7.267050266E0,-1.249050021E0,7.699992944E0
1.288322601E0,-2.295000076E0,7.305000305E0,-1.326000094E0,7.770992926E0
1.290284108E0,-2.371050119E0,7.305000305E0,-1.326000094E0,7.793791399E0
1.292245517E0,-2.448000193E0,7.342950344E0,-1.287000060E0,7.846527503E0
1.294206954E0,-2.371050119E0,7.420050144E0,-1.287000060E0,7.895276560E0
1.296168464E0,-2.410050154E0,7.420050144E0,-1.287000060E0,7.907076264E0
1.298129952E0,-2.448000193E0,7.458000183E0,-1.287000060E0,7.954297004E0
1.300091499E0,-2.410050154E0,7.497000217E0,-1.287000060E0,7.979330997E0
1.302053029E0,-2.410050154E0,7.497000217E0,-1.287000060E0,7.979330997E0
1.304014933E0,-2.295000076E0,7.534950256E0,-1.287000060E0,7.981157176E0
1.305976725E0,-2.332950115E0,7.573050499E0,-1.326000094E0,8.034427568E0
1.307938086E0,-2.410050154E0,7.573050499E0,-1.363950014E0,8.063485304E0
1.309899574E0,-2.371050119E0,7.573050499E0,-1.441050053E0,8.065333086E0
1.311861075E0,-2.332950115E0,7.573050499E0,-1.441050053E0,8.054214757E0
1.313822572E0,-2.256000042E0,7.612050533E0,-1.516950130E0,8.082944217E0
1.315784118E0,-2.332950115E0,7.687950134E0,-1.594050050E0,8.190740447E0
1.317745649E0,-2.371050119E0,7.687950134E0,-1.708950043E0,8.224777577E0
1.319707009E0,-2.371050119E0,7.765050411E0,-1.824000120E0,8.321349830E0
1.321668420E0,-2.371050119E0,7.726950169E0,-1.900950074E0,8.303086701E0
1.323629844E0,-2.371050119E0,7.650000572E0,-1.977000117E0,8.249419185E0
1.325591264E0,-2.332950115E0,7.687950134E0,-2.130000114E0,8.311686591E0
1.327552944E0,-2.332950115E0,7.650000572E0,-2.245050192E0,8.306949823E0
1.329514558E0,-2.371050119E0,7.687950134E0,-2.130000114E0,8.322460960E0
1.331476130E0,-2.332950115E0,7.687950134E0,-2.169000149E0,8.321766348E0
1.333437714E0,-2.218050003E0,7.726950169E0,-2.053950071E0,8.297241446E0
1.335399200E0,-2.218050003E0,7.803000450E0,-2.014950037E0,8.358623421E0
1.337360714E0,-2.179949999E0,7.879950523E0,-2.014950037E0,8.420559714E0
1.339322057E0,-2.179949999E0,7.957050323E0,-2.014950037E0,8.492753117E0
1.341283464E0,-2.256000042E0,8.032950401E0,-2.130000114E0,8.611314001E0
1.343244845E0,-2.256000042E0,8.148000717E0,-2.169000149E0,8.728345406E0
1.345206233E0,-2.332950115E0,8.263050079E0,-2.284050226E0,8.884679977E0
1.347167841E0,-2.332950115E0,8.416950226E0,-2.284050226E0,9.027989410E0
1.349129385E0,-2.410050154E0,8.569950104E0,-2.284050226E0,9.190716618E0
1.351091098E0,-2.410050154E0,8.722949982E0,-2.206950188E0,9.314978650E0
1.353052765E0,-2.448000193E0,8.877000809E0,-2.053950071E0,9.434646745E0
1.355014417E0,-2.563050032E0,9.106050491E0,-1.939050078E0,9.656567518E0
1.356976074E0,-2.563050032E0,9.259950638E0,-1.861950040E0,9.786867182E0
1.358937817E0,-2.563050032E0,9.451050758E0,-1.708950043E0,9.940427363E0
1.360899534E0,-2.640000105E0,9.720000267E0,-1.594050050E0,1.019749976E1
1.362861028E0,-2.640000105E0,9.949950218E0,-1.479000092E0,1.039993034E1
1.364822598E0,-2.640000105E0,1.010295010E1,-1.402050018E0,1.053588845E1
1.366784490E0,-2.640000105E0,1.029495049E1,-1.326000094E0,1.071045668E1
1.368746288E0,-2.716050148E0,1.044795036E1,-1.363950014E0,1.088103648E1
1.370707918E0,-2.640000105E0,1.067805004E1,-1.287000060E0,1.107459807E1
1.372669598E0,-2.677950144E0,1.075500011E1,-1.326000094E0,1.116242450E1
1.374631355E0,-2.677950144E0,1.087005043E1,-1.287000060E0,1.126879685E1
1.376593076E0,-2.716050148E0,1.102305031E1,-1.326000094E0,1.142991001E1
1.378554584E0,-2.677950144E0,1.113795090E1,-1.249050021E0,1.152325879E1
1.380516155E0,-2.755050182E0,1.125300026E1,-1.210950017E0,1.164846412E1
1.382477867E0,-2.755050182E0,1.136805058E1,-1.249050021E0,1.176363045E1
1.384439538E0,-2.793000221E0,1.140600014E1,-1.287000060E0,1.181330007E1
1.386401419E0,-2.793000221E0,1.140600014E1,-1.326000094E0,1.181761252E1
1.388363235E0,-2.716050148E0,1.148295021E1,-1.249050021E0,1.186571531E1
1.390324682E0,-2.677950144E0,1.140600014E1,-1.249050021E0,1.178254565E1
1.392286237E0,-2.793000221E0,1.140600014E1,-1.210950017E0,1.180525685E1
1.394247817E0,-2.755050182E0,1.132905006E1,-1.249050021E0,1.172594571E1
1.396209389E0,-2.755050182E0,1.129095078E1,-1.402050018E0,1.170647749E1
1.398170888E0,-2.793000221E0,1.125300026E1,-1.441050053E0,1.168364200E1
1.400132401E0,-2.869950056E0,1.117605019E1,-1.555950046E0,1.164309631E1
1.402093808E0,-2.869950056E0,1.102305031E1,-1.555950046E0,1.149631384E1
1.404055247E0,-2.908050060E0,1.094595051E1,-1.632000089E0,1.144264008E1
1.406016937E0,-2.908050060E0,1.079295063E1,-1.594050050E0,1.129094921E1
1.407978553E0,-2.946000099E0,1.071600056E1,-1.632000089E0,1.123276497E1
1.409940133E0,-2.946000099E0,1.060095024E1,-1.632000089E0,1.112306104E1
1.411901718E0,-2.946000099E0,1.048605061E1,-1.632000089E0,1.101360968E1
1.413863248E0,-2.985000134E0,1.041000080E1,-1.632000089E0,1.095179286E1
1.415824795E0,-2.985000134E0,1.033305073E1,-1.671000123E0,1.088459483E1
1.417786511E0,-2.985000134E0,1.018005085E1,-1.632000089E0,1.073345636E1
1.419748177E0,-3.022950172E0,1.006500053E1,-1.632000089E0,1.063512519E1
1.421709870E0,-3.100050211E0,1.002600002E1,-1.671000123E0,1.062653420E1
1.423671558E0,-3.100050211E0,9.949950218E0,-1.671000123E0,1.055481227E1
1.425633072E0,-3.100050211E0,9.873000145E0,-1.786050081E0,1.050125793E1
1.427594637E0,-3.100050211E0,9.835050583E0,-1.786050081E0,1.046558676E1
1.429556171E0,-3.175950050E0,9.796050072E0,-1.747050047E0,1.044516345E1
1.431517714E0,-3.175950050E0,9.835050583E0,-1.786050081E0,1.048831986E1
1.433479207E0,-3.253050089E0,9.835050583E0,-1.786050081E0,1.051192322E1
1.435440714E0,-3.367950201E0,9.835050583E0,-1.747050047E0,1.054151281E1
1.437402257E0,-3.445050240E0,9.873000145E0,-1.671000123E0,1.058946384E1
1.439363789E0,-3.559950113E0,9.910950661E0,-1.594050050E0,1.065087712E1
1.441325194E0,-3.636000156E0,1.006500053E1,-1.479000092E0,1.080334088E1
1.443286637E0,-3.751050234E0,1.018005085E1,-1.479000092E0,1.094948649E1
1.445248141E0,-3.865950108E0,1.025595093E1,-1.326000094E0,1.104030688E1
1.447209630E0,-3.943050146E0,1.044795036E1,-1.287000060E0,1.124116010E1
1.449171177E0,-4.057950020E0,1.060095024E1,-1.210950017E0,1.141549405E1
1.451132707E0,-4.096050262E0,1.071600056E1,-1.210950017E0,1.153588729E1
1.453094113E0,-4.134000301E0,1.090800095E1,-1.287000060E0,1.173587714E1
1.455055555E0,-4.249050140E0,1.102305031E1,-1.287000060E0,1.188353627E1
1.457017094E0,-4.288050175E0,1.113795090E1,-1.287000060E0,1.200406988E1
1.458978615E0,-4.288050175E0,1.125300026E1,-1.287000060E0,1.211089420E1
1.460940517E0,-4.363950253E0,1.132905006E1,-1.249050021E0,1.220457140E1
1.462902307E0,-4.363950253E0,1.144395065E1,-1.249050021E0,1.231130352E1
1.464863578E0,-4.288050175E0,1.144395065E1,-1.249050021E0,1.228460446E1
1.466825002E0,-4.249050140E0,1.140600014E1,-1.210950017E0,1.223183004E1
1.468786539E0,-4.210950375E0,1.148295021E1,-1.018950105E0,1.227308062E1
1.470748057E0,-4.096050262E0,1.152105045E1,-9.810000658E-1,1.226680857E1
1.472709780E0,-4.018949986E0,1.152105045E1,-8.659500480E-1,1.223259711E1
1.474671442E0,-3.981000185E0,1.152105045E1,-7.890000343E-1,1.221496979E1
1.476632825E0,-3.828000069E0,1.155900097E1,-6.739500165E-1,1.219501113E1
1.478594290E0,-3.751050234E0,1.159800053E1,-5.590500236E-1,1.220231662E1
1.480555661E0,-3.636000156E0,1.163595009E1,-4.440000355E-1,1.219889207E1
1.482517060E0,-3.520950079E0,1.163595009E1,-3.289500177E-1,1.216144038E1
1.484478801E0,-3.406050205E0,1.167405033E1,-2.910000086E-1,1.216426365E1
1.486440442E0,-3.330000162E0,1.167405033E1,-9.900000691E-2,1.214010516E1
1.488402098E0,-3.175950050E0,1.167405033E1,-2.205000073E-2,1.209837163E1
1.490363750E0,-3.022950172E0,1.171305084E1,5.295000225E-2,1.209696621E1
1.492325300E0,-2.908050060E0,1.171305084E1,5.295000225E-2,1.206876625E1
1.494286891E0,-2.755050182E0,1.178895092E1,9.195000678E-2,1.210694512E1
1.496248420E0,-2.716050148E0,1.182795048E1,5.295000225E-2,1.213590312E1
1.498209968E0,-2.601000071E0,1.178895092E1,5.295000225E-2,1.207258750E1
1.500171505E0,-2.448000193E0,1.178895092E1,1.300500035E-1,1.204113706E1
1.502133045E0,-2.332950115E0,1.186605072E1,1.680000126E-1,1.209438051E1
1.504094537E0,-2.371050119E0,1.198095036E1,1.680000126E-1,1.221446987E1
1.506056044E0,-2.179949999E0,1.198095036E1,2.070000172E-1,1.217941716E1
1.508017407E0,-2.103000164E0,1.201905060E1,2.449500114E-1,1.220410535E1
1.509978813E0,-2.065050125E0,1.198095036E1,2.830500007E-1,1.216090954E1
1.511939833E0,-1.950000048E0,1.205805016E1,3.220500052E-1,1.221895208E1
1.513900967E0,-1.834950089E0,1.209600067E1,4.360500276E-1,1.224215723E1
1.515862629E0,-1.758000135E0,1.209600067E1,5.509500504E-1,1.223549520E1
1.517824129E0,-1.681950092E0,1.205805016E1,5.509500504E-1,1.218725054E1
1.519785809E0,-1.528050065E0,1.209600067E1,6.280500293E-1,1.220830111E1
1.521747436E0,-1.489950061E0,1.205805016E1,7.429500222E-1,1.217244838E1
1.523708825E0,-1.336950064E0,1.205805016E1,7.810500264E-1,1.215705755E1
1.525670284E0,-1.183050036E0,1.201905060E1,9.349500537E-1,1.211327026E1
1.527632156E0,-1.030050039E0,1.201905060E1,1.050000072E0,1.210871919E1
1.529593903E0,-9.150000215E-1,1.201905060E1,1.087950110E0,1.210282768E1
1.531555452E0,-6.469500065E-1,1.198095036E1,1.165050030E0,1.205483543E1
1.533517059E0,-4.930500090E-1,1.194300079E1,1.279950023E0,1.202150732E1
1.535478225E0,-2.629500031E-1,1.186605072E1,1.279950023E0,1.193777929E1
1.537439520E0,-3.299999982E-2,1.182795048E1,1.356000066E0,1.190547091E1
1.539400924E0,1.570500135E-1,1.171305084E1,1.395000100E0,1.179687459E1
1.541362292E0,3.490500152E-1,1.163595009E1,1.432950020E0,1.172904583E1
1.543324536E0,6.169500351E-1,1.152105045E1,1.395000100E0,1.162158579E1
1.545286523E0,8.089500666E-1,1.144395065E1,1.395000100E0,1.155700792E1
1.547248166E0,1.039050102E0,1.132905006E1,1.471050024E0,1.147131155E1
1.549209910E0,1.192050099E0,1.121400070E1,1.510050058E0,1.137783136E1
1.551171453E0,1.306950092E0,1.110000038E1,1.510050058E0,1.127822584E1
1.553133059E0,1.422000051E0,1.098495007E1,1.585950017E0,1.118956878E1
1.555094586E0,1.575000048E0,1.087005043E1,1.740000129E0,1.112053155E1
1.557056136E0,1.767000079E0,1.079295063E1,1.855050087E0,1.109284830E1
1.559017627E0,1.882050037E0,1.075500011E1,1.893000126E0,1.108131713E1
1.560979136E0,1.959000111E0,1.060095024E1,1.969950080E0,1.095894752E1
1.562940359E0,1.996950150E0,1.056300068E1,1.930950046E0,1.092215003E1
1.564901669E0,2.149950027E0,1.044795036E1,1.969950080E0,1.084724183E1
1.566863246E0,2.188950062E0,1.033305073E1,2.046000004E0,1.075869675E1
1.568824744E0,2.227050066E0,1.021800041E1,2.046000004E0,1.065614379E1
1.570786244E0,2.227050066E0,1.006500053E1,2.046000004E0,1.050952443E1
1.572747744E0,2.188950062E0,9.910950661E0,2.085000038E0,1.036174071E1
1.574709270E0,2.149950027E0,9.757950783E0,2.085000038E0,1.020720891E1
1.576670802E0,2.149950027E0,9.565950394E0,2.161050081E0,1.003991183E1
1.578632207E0,2.111999989E0,9.375000000E0,2.200050116E0,9.858569342E0
1.580593650E0,2.035050154E0,9.145050049E0,2.122950077E0,9.606262882E0
1.582555339E0,1.959000111E0,8.953050613E0,2.122950077E0,9.407534945E0
1.584516956E0,2.035050154E0,8.722949982E0,2.122950077E0,9.205335547E0
1.586478487E0,1.920000076E0,8.608050346E0,2.161050081E0,9.080477328E0
1.588440040E0,1.843950033E0,8.340000153E0,2.200050116E0,8.820202650E0
1.590401576E0,1.767000079E0,8.263050079E0,2.122950077E0,8.712473984E0
1.592363117E0,1.690050125E0,8.110050201E0,2.122950077E0,8.551964729E0
1.594324834E0,1.690050125E0,7.918050289E0,2.046000004E0,8.350922453E0
1.596286499E0,1.651950121E0,7.842000484E0,2.008050203E0,8.261850666E0
1.598248047E0,1.575000048E0,7.765050411E0,1.893000126E0,8.146169806E0
1.600209640E0,1.575000048E0,7.650000572E0,1.893000126E0,8.036577840E0
1.602171348E0,1.459950089E0,7.573050499E0,1.816050053E0,7.923420090E0
1.604133023E0,1.384050012E0,7.534950256E0,1.816050053E0,7.873316175E0
1.606094674E0,1.306950092E0,7.420050144E0,1.740000129E0,7.732584505E0
1.608056332E0,1.306950092E0,7.381950378E0,1.740000129E0,7.696032119E0
1.610017900E0,1.269000053E0,7.342950344E0,1.740000129E0,7.652246816E0
1.611979491E0,1.192050099E0,7.305000305E0,1.701000094E0,7.594564781E0
1.613941020E0,1.230000019E0,7.228050232E0,1.740000129E0,7.535596237E0
1.615902568E0,1.153950095E0,7.228050232E0,1.701000094E0,7.514633211E0
1.617864420E0,1.114950061E0,7.228050232E0,1.624950051E0,7.491881370E0
1.619826182E0,1.039050102E0,7.267050266E0,1.701000094E0,7.535452608E0
1.621787697E0,1.039050102E0,7.267050266E0,1.701000094E0,7.535452608E0
1.623749275E0,9.619500637E-1,7.342950344E0,1.701000094E0,7.598530713E0
1.625710985E0,8.089500666E-1,7.381950378E0,1.663050056E0,7.610080623E0
1.627672657E0,6.550500393E-1,7.420050144E0,1.624950051E0,7.624086658E0
1.629633453E0,5.790000558E-1,7.458000183E0,1.548000097E0,7.638933963E0
1.631594505E0,5.410500169E-1,7.497000217E0,1.471050024E0,7.659094957E0
1.633556306E0,4.260000288E-1,7.573050499E0,1.471050024E0,7.726354772E0
1.635517888E0,3.870000243E-1,7.612050533E0,1.471050024E0,7.762542787E0
1.637479465E0,3.109500110E-1,7.650000572E0,1.471050024E0,7.796357280E0
1.639441044E0,3.109500110E-1,7.726950169E0,1.510050058E0,7.879257579E0
1.641402755E0,2.719500065E-1,7.803000450E0,1.471050024E0,7.945109251E0
1.643364427E0,2.340000123E-1,7.879950523E0,1.471050024E0,8.019499014E0
1.645326438E0,1.570500135E-1,8.032950401E0,1.510050058E0,8.175157982E0
1.647288350E0,8.100000024E-2,8.187000275E0,1.471050024E0,8.318504834E0
1.649250005E0,-7.200000435E-2,8.263050079E0,1.432950020E0,8.386687449E0
1.651211736E0,-3.299999982E-2,8.302050591E0,1.356000066E0,8.412126318E0
1.653173601E0,4.050000105E-3,8.302050591E0,1.356000066E0,8.412062564E0
1.655135427E0,-7.200000435E-2,8.377950668E0,1.318050027E0,8.481302805E0
1.657097341E0,-1.099500060E-1,8.493000031E0,1.356000066E0,8.601271691E0
1.659059215E0,-1.099500060E-1,8.608050346E0,1.240950108E0,8.697734012E0
1.661021057E0,-7.200000435E-2,8.647050858E0,1.240950108E0,8.735938971E0
1.662982909E0,-7.200000435E-2,8.722949982E0,1.240950108E0,8.811072441E0
1.664944709E0,-1.099500060E-1,8.800050735E0,1.279950023E0,8.893326375E0
1.666906524E0,-1.480500102E-1,8.838000298E0,1.126049995E0,8.910676554E0
1.668868195E0,-1.099500060E-1,8.914950371E0,1.126049995E0,8.986457462E0
1.670829909E0,-1.480500102E-1,8.991000175E0,1.165050030E0,9.067378041E0
1.672791642E0,-1.099500060E-1,9.067950249E0,1.165050030E0,9.143147833E0
1.674753369E0,-1.099500060E-1,9.106050491E0,1.087950110E0,9.171470983E0
1.676715056E0,-3.299999982E-2,9.145050049E0,1.126049995E0,9.214174840E0
1.678676755E0,-3.299999982E-2,9.183000565E0,1.240950108E0,9.266528235E0
1.680638581E0,8.100000024E-2,9.220950127E0,1.279950023E0,9.309712901E0
1.682600369E0,8.100000024E-2,9.183000565E0,1.356000066E0,9.282930386E0
1.684561730E0,4.200000316E-2,9.106050491E0,1.356000066E0,9.206555041E0
1.686523217E0,-7.200000435E-2,9.067950249E0,1.240950108E0,9.152751656E0
1.688484539E0,-7.200000435E-2,9.220950127E0,1.203000069E0,9.299371721E0
1.690445909E0,4.050000105E-3,9.183000565E0,1.279950023E0,9.271773716E0
1.692407896E0,8.100000024E-2,9.183000565E0,1.432950020E0,9.294482564E0
1.694369691E0,8.100000024E-2,9.183000565E0,1.471050024E0,9.300432707E0
1.696331681E0,1.960500032E-1,9.183000565E0,1.510050058E0,9.308393317E0
1.698293614E0,2.340000123E-1,9.220950127E0,1.548000097E0,9.352912998E0
1.700255311E0,2.340000123E-1,9.259950638E0,1.548000097E0,9.391365509E0
1.702217078E0,2.719500065E-1,9.298050880E0,1.548000097E0,9.429952878E0
1.704178698E0,3.109500110E-1,9.298050880E0,1.585950017E0,9.437461393E0
1.706140371E0,3.490500152E-1,9.336000443E0,1.624950051E0,9.482784551E0
1.708101931E0,3.490500152E-1,9.375000000E0,1.663050056E0,9.527759254E0
1.710063525E0,3.870000243E-1,9.375000000E0,1.701000094E0,9.535921316E0
1.712025368E0,3.490500152E-1,9.412950516E0,1.663050056E0,9.565103701E0
1.713987138E0,4.260000288E-1,9.528000832E0,1.585950017E0,9.668480404E0
1.715948997E0,4.260000288E-1,9.604950905E0,1.663050056E0,9.757166259E0
1.717910830E0,3.490500152E-1,9.681000710E0,1.663050056E0,9.829005348E0
1.719872319E0,3.490500152E-1,9.796050072E0,1.624950051E0,9.936040237E0
1.721833909E0,3.109500110E-1,9.835050583E0,1.624950051E0,9.973232803E0
1.723795439E0,2.719500065E-1,9.949950218E0,1.663050056E0,1.009164019E1
1.725756986E0,2.340000123E-1,1.006500053E1,1.624950051E0,1.019801228E1
1.727718937E0,1.960500032E-1,1.010295010E1,1.624950051E0,1.023467141E1
1.729680763E0,8.100000024E-2,1.021800041E1,1.548000097E0,1.033491160E1
1.731642748E0,1.189500093E-1,1.029495049E1,1.548000097E0,1.041136201E1
1.733604686E0,4.200000316E-2,1.041000080E1,1.585950017E0,1.053020029E1
1.735566563E0,4.050000105E-3,1.041000080E1,1.548000097E0,1.052446851E1
1.737528458E0,4.050000105E-3,1.044795036E1,1.548000097E0,1.056200679E1
1.739490674E0,4.050000105E-3,1.037100029E1,1.548000097E0,1.048589375E1
1.741452782E0,4.050000105E-3,1.033305073E1,1.548000097E0,1.044836150E1
1.743414765E0,1.189500093E-1,1.029495049E1,1.548000097E0,1.041136201E1
1.745376784E0,1.189500093E-1,1.021800041E1,1.548000097E0,1.033527870E1
1.747338420E0,1.189500093E-1,1.018005085E1,1.585950017E0,1.030353444E1
1.749300169E0,1.570500135E-1,1.010295010E1,1.548000097E0,1.022206289E1
1.751261642E0,1.189500093E-1,1.006500053E1,1.548000097E0,1.018404091E1
1.753223217E0,1.570500135E-1,9.988050461E0,1.510050058E0,1.010277526E1
1.755184929E0,1.570500135E-1,9.949950218E0,1.548000097E0,1.007087277E1
1.757146600E0,1.960500032E-1,9.835050583E0,1.548000097E0,9.958060046E0
1.759108252E0,1.960500032E-1,9.873000145E0,1.548000097E0,9.995542595E0
1.761069909E0,2.340000123E-1,9.757950783E0,1.548000097E0,9.882745761E0
1.763031847E0,1.960500032E-1,9.720000267E0,1.548000097E0,9.844447425E0
1.764993692E0,1.960500032E-1,9.643050194E0,1.548000097E0,9.768477719E0
1.766955674E0,1.570500135E-1,9.720000267E0,1.510050058E0,9.837851446E0
1.768917615E0,1.960500032E-1,9.604950905E0,1.510050058E0,9.724904558E0
1.770879310E0,8.100000024E-2,9.528000832E0,1.471050024E0,9.641231717E0
1.772841078E0,4.200000316E-2,9.528000832E0,1.471050024E0,9.640982939E0
1.774802882E0,4.050000105E-3,9.528000832E0,1.471050024E0,9.640892304E0
1.776764682E0,4.050000105E-3,9.412950516E0,1.395000100E0,9.515759512E0
1.778726402E0,4.200000316E-2,9.490050316E0,1.432950020E0,9.597716643E0
1.780688145E0,4.050000105E-3,9.412950516E0,1.432950020E0,9.521396934E0
1.782650008E0,-7.200000435E-2,9.336000443E0,1.432950020E0,9.445603952E0
1.784611835E0,-1.099500060E-1,9.298050880E0,1.432950020E0,9.408463474E0
1.786573465E0,-1.099500060E-1,9.220950127E0,1.432950020E0,9.332274964E0
1.788535150E0,-1.480500102E-1,9.183000565E0,1.432950020E0,9.295308706E0
1.790496528E0,-2.250000089E-1,9.145050049E0,1.395000100E0,9.253571780E0
1.792457996E0,-3.019500077E-1,9.145050049E0,1.395000100E0,9.255762501E0
1.794419546E0,-3.780000210E-1,9.067950249E0,1.356000066E0,9.176564821E0
1.796381071E0,-4.930500090E-1,8.914950371E0,1.240950108E0,9.014399347E0
1.798343102E0,-4.170000255E-1,9.067950249E0,1.203000069E0,9.156900125E0
1.800304989E0,-3.780000210E-1,9.030000687E0,1.240950108E0,9.122705387E0
1.802266694E0,-3.780000210E-1,9.030000687E0,1.087950110E0,9.103155050E0
1.804228453E0,-4.549500346E-1,8.991000175E0,8.959500194E-1,9.046976850E0
1.806190448E0,-4.170000255E-1,8.991000175E0,1.087950110E0,9.066179384E0
1.808152374E0,-4.549500346E-1,9.030000687E0,1.395000100E0,9.148437966E0
1.810114054E0,-4.549500346E-1,9.030000687E0,1.395000100E0,9.148437966E0
1.812075819E0,-4.930500090E-1,9.067950249E0,1.279950023E0,9.171100920E0
1.814037633E0,-5.700000525E-1,9.030000687E0,1.240950108E0,9.132675929E0
1.815999432E0,-6.469500065E-1,9.067950249E0,1.087950110E0,9.155867052E0
1.817961286E0,-6.469500065E-1,9.030000687E0,1.011000037E0,9.109422473E0
1.819923124E0,-7.230000496E-1,9.030000687E0,8.580000401E-1,9.099439848E0
1.821884823E0,-8.380500674E-1,9.030000687E0,5.899500251E-1,9.087974546E0
1.823846573E0,-7.230000496E-1,9.030000687E0,7.050000429E-1,9.086290031E0
1.825808615E0,-7.230000496E-1,9.030000687E0,8.200500607E-1,9.095939950E0
1.827770571E0,-7.230000496E-1,8.991000175E0,9.349500537E-1,9.068348517E0
1.829732174E0,-7.999500632E-1,8.953050613E0,9.730500579E-1,9.041231211E0
1.831693880E0,-8.770500422E-1,8.877000809E0,8.200500607E-1,8.957836917E0
1.833655929E0,-8.770500422E-1,8.953050613E0,7.050000429E-1,9.023489188E0
1.835617878E0,-9.529500604E-1,8.953050613E0,5.899500251E-1,9.022930241E0
1.837579528E0,-1.030050039E0,8.991000175E0,5.130000114E-1,9.064339813E0
1.839541265E0,-1.030050039E0,9.030000687E0,3.600000143E-1,9.095686642E0
1.841502814E0,-1.068000078E0,9.067950249E0,3.600000143E-1,9.137721045E0
1.843464419E0,-1.068000078E0,9.183000565E0,3.600000143E-1,9.251903780E0
1.845426232E0,-1.068000078E0,9.220950127E0,3.979500234E-1,9.291119934E0
1.847388004E0,-1.106999993E0,9.220950127E0,4.360500276E-1,9.297392637E0
1.849349908E0,-1.106999993E0,9.220950127E0,3.979500234E-1,9.295683646E0
1.851311774E0,-1.106999993E0,9.220950127E0,4.360500276E-1,9.297392637E0
1.853273618E0,-1.106999993E0,9.220950127E0,3.220500052E-1,9.292743751E0
1.855235468E0,-1.106999993E0,9.220950127E0,3.220500052E-1,9.292743751E0
1.857197987E0,-1.106999993E0,9.183000565E0,3.220500052E-1,9.255088577E0
1.859160311E0,-1.106999993E0,9.145050049E0,2.830500007E-1,9.216154658E0
1.861121175E0,-1.144950032E0,9.183000565E0,2.830500007E-1,9.258430064E0
1.863082467E0,-1.183050036E0,9.106050491E0,2.830500007E-1,9.186940744E0
1.865044272E0,-1.260000110E0,9.145050049E0,2.449500114E-1,9.234692262E0
1.867005926E0,-1.183050036E0,9.183000565E0,3.220500052E-1,9.264492591E0
1.868967586E0,-1.183050036E0,9.106050491E0,3.600000143E-1,9.189633450E0
1.870929240E0,-1.222050071E0,9.106050491E0,3.600000143E-1,9.194735556E0
1.872891525E0,-1.183050036E0,9.030000687E0,2.830500007E-1,9.111566116E0
1.874853625E0,-1.222050071E0,8.991000175E0,2.830500007E-1,9.078083930E0
1.876815383E0,-1.222050071E0,8.953050613E0,1.680000126E-1,9.037629427E0
1.878777242E0,-1.222050071E0,8.953050613E0,1.680000126E-1,9.037629427E0
1.880738742E0,-1.144950032E0,8.953050613E0,1.300500035E-1,9.026900845E0
1.882700367E0,-1.222050071E0,8.953050613E0,9.195000678E-2,9.036535645E0
1.884661891E0,-1.222050071E0,8.953050613E0,1.680000126E-1,9.037629427E0
1.886623444E0,-1.297950029E0,8.914950371E0,2.449500114E-1,9.012270241E0
1.888585159E0,-1.297950029E0,8.991000175E0,2.070000172E-1,9.086561915E0
1.890546827E0,-1.297950029E0,8.914950371E0,2.449500114E-1,9.012270241E0
1.892508285E0,-1.297950029E0,8.953050613E0,2.070000172E-1,9.049013127E0
1.894469815E0,-1.336950064E0,8.877000809E0,2.070000172E-1,8.979500423E0
1.896431534E0,-1.413000107E0,8.914950371E0,2.449500114E-1,9.029557571E0
1.898393197E0,-1.413000107E0,8.877000809E0,1.680000126E-1,8.990324614E0
1.900355075E0,-1.413000107E0,8.800050735E0,2.070000172E-1,8.915173092E0
1.902316890E0,-1.452000022E0,8.800050735E0,2.070000172E-1,8.921437441E0
1.904278427E0,-1.452000022E0,8.800050735E0,2.070000172E-1,8.921437441E0
1.906240045E0,-1.452000022E0,8.761950493E0,2.449500114E-1,8.884823071E0
1.908201704E0,-1.605000019E0,8.722949982E0,2.070000172E-1,8.871794094E0
1.910163351E0,-1.720050097E0,8.647050858E0,2.070000172E-1,8.818895048E0
1.912125276E0,-1.795950055E0,8.608050346E0,2.449500114E-1,8.796815780E0
1.914087120E0,-1.681950092E0,8.685000420E0,2.449500114E-1,8.849756432E0
1.916048547E0,-1.567050099E0,8.608050346E0,1.680000126E-1,8.751137114E0
1.918010107E0,-1.605000019E0,8.647050858E0,2.070000172E-1,8.797179241E0
1.919971507E0,-1.642950058E0,8.647050858E0,1.300500035E-1,8.802709039E0
1.921932954E0,-1.605000019E0,8.647050858E0,1.680000126E-1,8.796347969E0
1.923894507E0,-1.605000019E0,8.647050858E0,1.680000126E-1,8.796347969E0
1.925856028E0,-1.605000019E0,8.685000420E0,1.680000126E-1,8.833656171E0
1.927817556E0,-1.605000019E0,8.722949982E0,1.300500035E-1,8.870332263E0
1.929779091E0,-1.642950058E0,8.722949982E0,-2.205000073E-2,8.876352149E0
1.931740946E0,-1.605000019E0,8.800050735E0,9.195000678E-2,8.945690181E0
1.933702707E0,-1.567050099E0,8.761950493E0,1.680000126E-1,8.902564038E0
1.935664254E0,-1.605000019E0,8.761950493E0,1.680000126E-1,8.909322393E0
1.937625863E0,-1.567050099E0,8.838000298E0,1.680000126E-1,8.977422753E0
1.939587418E0,-1.489950061E0,8.838000298E0,1.300500035E-1,8.963655139E0
1.941548969E0,-1.489950061E0,8.914950371E0,1.680000126E-1,9.040161243E0
1.943510280E0,-1.489950061E0,8.953050613E0,1.300500035E-1,9.077112948E0
1.945471661E0,-1.375050068E0,9.030000687E0,2.070000172E-1,9.136439356E0
1.947433225E0,-1.375050068E0,9.067950249E0,1.680000126E-1,9.173151498E0
1.949394736E0,-1.413000107E0,9.106050491E0,9.195000678E-2,9.215485861E0
1.951355419E0,-1.260000110E0,9.183000565E0,2.830500007E-1,9.273360607E0
1.953316348E0,-1.106999993E0,9.183000565E0,5.130000114E-1,9.263698903E0
1.955278125E0,-1.068000078E0,9.220950127E0,6.660000086E-1,9.306454825E0
1.957239654E0,-1.068000078E0,9.259950638E0,5.899500251E-1,9.339986671E0
1.959201015E0,-9.919500351E-1,9.259950638E0,5.509500504E-1,9.329212006E0
1.961162425E0,-9.529500604E-1,9.298050880E0,5.130000114E-1,9.360824376E0
1.963124136E0,-9.919500351E-1,9.336000443E0,4.750500321E-1,9.400560710E0
1.965085779E0,-9.529500604E-1,9.412950516E0,3.600000143E-1,9.467911662E0
1.967046985E0,-8.380500674E-1,9.375000000E0,6.280500293E-1,9.433313297E0
1.969008319E0,-7.620000243E-1,9.412950516E0,9.349500537E-1,9.489911119E0
1.970970252E0,-8.770500422E-1,9.412950516E0,1.011000037E0,9.507627215E0
1.972932010E0,-9.150000215E-1,9.451050758E0,9.349500537E-1,9.541159106E0
1.974893831E0,-9.150000215E-1,9.412950516E0,8.580000401E-1,9.496158514E0
1.976855630E0,-8.770500422E-1,9.451050758E0,9.730500579E-1,9.541404699E0
1.978817350E0,-9.150000215E-1,9.490050316E0,1.087950110E0,9.595932236E0
1.980779094E0,-9.150000215E-1,9.490050316E0,1.203000069E0,9.609656040E0
1.982740732E0,-9.150000215E-1,9.528000832E0,1.203000069E0,9.647136054E0
1.984702401E0,-9.919500351E-1,9.528000832E0,1.240950108E0,9.659540459E0
1.986663897E0,-1.068000078E0,9.490050316E0,1.240950108E0,9.630245912E0
1.988625458E0,-1.030050039E0,9.490050316E0,1.318050027E0,9.636353769E0
1.990587037E0,-1.106999993E0,9.565950394E0,1.356000066E0,9.724792651E0
1.992548610E0,-1.106999993E0,9.565950394E0,1.471050024E0,9.741501121E0
1.994510144E0,-1.144950032E0,9.604950905E0,1.471050024E0,9.784169900E0
1.996471689E0,-1.222050071E0,9.681000710E0,1.471050024E0,9.868088431E0
1.998433702E0,-1.183050036E0,9.681000710E0,1.471050024E0,9.863334644E0
2.000395591E0,-1.183050036E0,9.757950783E0,1.471050024E0,9.938873127E0
2.002357251E0,-1.183050036E0,9.720000267E0,1.471050024E0,9.901616068E0
2.004318978E0,-1.183050036E0,9.835050583E0,1.395000100E0,1.000369195E1
2.006280843E0,-1.183050036E0,9.910950661E0,1.395000100E0,1.007832207E1
2.008242668E0,-1.183050036E0,9.988050461E0,1.279950023E0,1.013898572E1
2.010204219E0,-1.183050036E0,1.010295010E1,1.203000069E0,1.024287153E1
2.012165839E0,-1.183050036E0,1.014105034E1,1.126049995E0,1.027173296E1
2.014127498E0,-1.183050036E0,1.025595093E1,1.087950110E0,1.038112577E1
2.016089145E0,-1.260000110E0,1.037100029E1,1.050000072E0,1.049989273E1
2.018050710E0,-1.297950029E0,1.044795036E1,9.730500579E-1,1.057313423E1
2.020012300E0,-1.375050068E0,1.056300068E1,9.349500537E-1,1.069307615E1
2.021974139E0,-1.375050068E0,1.067805004E1,8.959500194E-1,1.080343657E1
2.023935909E0,-1.336950064E0,1.075500011E1,8.959500194E-1,1.087475008E1
2.025897768E0,-1.297950029E0,1.087005043E1,9.730500579E-1,1.099042752E1
2.027859601E0,-1.336950064E0,1.090800095E1,9.730500579E-1,1.103262192E1
2.029821449E0,-1.336950064E0,1.094595051E1,9.730500579E-1,1.107014428E1
2.031783293E0,-1.336950064E0,1.098495007E1,9.349500537E-1,1.110543538E1
2.033744789E0,-1.297950029E0,1.102305031E1,9.349500537E-1,1.113851175E1
2.035706381E0,-1.336950064E0,1.098495007E1,9.349500537E-1,1.110543538E1
2.037667730E0,-1.336950064E0,1.098495007E1,8.959500194E-1,1.110222004E1
2.039629151E0,-1.413000107E0,1.094595051E1,9.730500579E-1,1.107958610E1
2.041590753E0,-1.413000107E0,1.094595051E1,1.011000037E0,1.108298348E1
2.043552302E0,-1.452000022E0,1.094595051E1,8.580000401E-1,1.107512080E1
2.045514019E0,-1.452000022E0,1.087005043E1,8.200500607E-1,1.099721704E1
2.047475687E0,-1.336950064E0,1.079295063E1,9.349500537E-1,1.091555543E1
2.049437204E0,-1.375050068E0,1.071600056E1,9.730500579E-1,1.084759222E1
2.051398766E0,-1.413000107E0,1.067805004E1,9.349500537E-1,1.081163510E1
2.053360480E0,-1.489950061E0,1.060095024E1,9.349500537E-1,1.074589358E1
2.055322149E0,-1.528050065E0,1.052505016E1,8.580000401E-1,1.066994761E1
2.057283841E0,-1.489950061E0,1.048605061E1,8.200500607E-1,1.062307350E1
2.059245529E0,-1.413000107E0,1.044795036E1,7.050000429E-1,1.056661067E1
2.061207222E0,-1.413000107E0,1.037100029E1,6.660000086E-1,1.048798228E1
2.063168914E0,-1.375050068E0,1.037100029E1,5.899500251E-1,1.047838016E1
2.065130563E0,-1.297950029E0,1.037100029E1,4.750500321E-1,1.046269534E1
2.067092224E0,-1.375050068E0,1.033305073E1,3.979500234E-1,1.043173352E1
2.069054160E0,-1.413000107E0,1.025595093E1,2.830500007E-1,1.035669909E1
2.071016005E0,-1.413000107E0,1.021800041E1,3.220500052E-1,1.032026249E1
2.072978392E0,-1.452000022E0,1.018005085E1,2.830500007E-1,1.028697510E1
2.074940620E0,-1.489950061E0,1.010295010E1,2.449500114E-1,1.021516286E1
2.076902402E0,-1.681950092E0,1.006500053E1,9.195000678E-2,1.020498146E1
2.078864315E0,-1.720050097E0,1.006500053E1,1.680000126E-1,1.021229808E1
2.080826163E0,-1.681950092E0,1.010295010E1,1.680000126E-1,1.024337741E1
2.082788021E0,-1.681950092E0,1.006500053E1,1.680000126E-1,1.020595002E1
2.084749865E0,-1.720050097E0,1.002600002E1,9.195000678E-2,1.017289062E1
2.086711713E0,-1.642950058E0,1.006500053E1,1.300500035E-1,1.019904082E1
2.088672838E0,-1.605000019E0,1.006500053E1,2.449500114E-1,1.019510968E1
2.090634175E0,-1.528050065E0,1.010295010E1,3.600000143E-1,1.022419374E1
2.092595894E0,-1.489950061E0,1.018005085E1,3.600000143E-1,1.029480386E1
2.094557524E0,-1.413000107E0,1.025595093E1,3.600000143E-1,1.035908774E1
2.096520084E0,-1.413000107E0,1.037100029E1,2.830500007E-1,1.047064151E1
2.098482371E0,-1.375050068E0,1.044795036E1,1.300500035E-1,1.053884920E1
2.100443647E0,-1.336950064E0,1.060095024E1,1.500000060E-2,1.068493362E1
2.102405219E0,-1.375050068E0,1.067805004E1,-6.105000153E-2,1.076639413E1
2.104366752E0,-1.336950064E0,1.083105087E1,-6.105000153E-2,1.091342410E1
2.106328296E0,-1.375050068E0,1.094595051E1,-6.105000153E-2,1.103214949E1
2.108290012E0,-1.413000107E0,1.106100082E1,-6.105000153E-2,1.115105536E1
2.110251678E0,-1.375050068E0,1.113795090E1,-2.205000073E-2,1.122253087E1
2.112213331E0,-1.375050068E0,1.125300026E1,5.295000225E-2,1.133682412E1
2.114174988E0,-1.413000107E0,1.136805058E1,1.680000126E-1,1.145676076E1
2.116135950E0,-1.413000107E0,1.144395065E1,2.830500007E-1,1.153432673E1
2.118097127E0,-1.413000107E0,1.155900097E1,4.360500276E-1,1.165320610E1
2.120058772E0,-1.413000107E0,1.155900097E1,6.280500293E-1,1.166196894E1
2.122020279E0,-1.413000107E0,1.163595009E1,7.429500222E-1,1.174495119E1
2.123981958E0,-1.375050068E0,1.167405033E1,8.959500194E-1,1.178884813E1
2.125943586E0,-1.297950029E0,1.175100040E1,9.730500579E-1,1.186244120E1
2.127905081E0,-1.260000110E0,1.178895092E1,1.050000072E0,1.190249823E1
2.129866636E0,-1.260000110E0,1.182795048E1,1.087950110E0,1.194452378E1
2.131827856E0,-1.297950029E0,1.186605072E1,1.318050027E0,1.200937508E1
2.133789175E0,-1.336950064E0,1.182795048E1,1.356000066E0,1.198025810E1
2.135750885E0,-1.413000107E0,1.186605072E1,1.432950020E0,1.203549229E1
2.137712480E0,-1.567050099E0,1.186605072E1,1.471050024E0,1.205913736E1
2.139674208E0,-1.642950058E0,1.186605072E1,1.510050058E0,1.207405051E1
2.141635884E0,-1.720050097E0,1.182795048E1,1.510050058E0,1.204737465E1
2.143597759E0,-1.758000135E0,1.186605072E1,1.585950017E0,1.209995709E1
2.145559576E0,-1.834950089E0,1.178895092E1,1.624950051E0,1.204104930E1
2.147521248E0,-1.795950055E0,1.167405033E1,1.816050053E0,1.195018517E1
2.149482963E0,-1.795950055E0,1.163595009E1,2.161050081E0,1.197041806E1
2.151444555E0,-1.758000135E0,1.152105045E1,2.430000067E0,1.190504382E1
2.153406156E0,-1.720050097E0,1.144395065E1,2.583000183E0,1.185725385E1
2.155367818E0,-1.642950058E0,1.132905006E1,2.583000183E0,1.173535471E1
2.157329462E0,-1.642950058E0,1.121400070E1,2.659050226E0,1.164146231E1
2.159291207E0,-1.528050065E0,1.113795090E1,2.773950100E0,1.157945104E1
2.161252923E0,-1.452000022E0,1.102305031E1,2.928000212E0,1.149735306E1
2.163214786E0,-1.413000107E0,1.102305031E1,2.928000212E0,1.149249288E1
2.165176610E0,-1.336950064E0,1.087005043E1,2.812950134E0,1.130743650E1
2.167138416E0,-1.144950032E0,1.075500011E1,2.928000212E0,1.120509363E1
2.169100228E0,-1.068000078E0,1.063995075E1,3.043050051E0,1.111797328E1
2.171061944E0,-9.919500351E-1,1.052505016E1,3.349050045E0,1.108948971E1
2.173023689E0,-9.529500604E-1,1.041000080E1,3.618000269E0,1.106192372E1
2.174985576E0,-9.150000215E-1,1.029495049E1,3.808950186E0,1.101505025E1
2.176947404E0,-8.380500674E-1,1.014105034E1,3.886050224E0,1.089241095E1
2.178909074E0,-7.999500632E-1,1.002600002E1,3.963000298E0,1.081045642E1
2.180870790E0,-6.469500065E-1,9.910950661E0,4.078050137E0,1.073666523E1
2.182832433E0,-4.549500346E-1,9.720000267E0,4.039050102E0,1.053562103E1
2.184794098E0,-1.480500102E-1,9.604950905E0,4.078050137E0,1.043587532E1
2.186756168E0,4.200000316E-2,9.490050316E0,4.000950336E0,1.029904960E1
2.188718110E0,1.960500032E-1,9.336000443E0,3.963000298E0,1.014419594E1
2.190680346E0,3.870000243E-1,9.220950127E0,4.000950336E0,1.005899070E1
2.192642495E0,7.320000529E-1,9.145050049E0,3.963000298E0,9.993654778E0
2.194603930E0,9.619500637E-1,9.030000687E0,4.000950336E0,9.923399817E0
2.196565574E0,1.192050099E0,8.877000809E0,3.924000263E0,9.778543085E0
2.198527273E0,1.306950092E0,8.761950493E0,3.847950220E0,9.658499670E0
2.200488956E0,1.459950089E0,8.685000420E0,3.771000147E0,9.580246795E0
2.202450650E0,1.729050040E0,8.608050346E0,3.771000147E0,9.555552674E0
2.204412341E0,1.920000076E0,8.532000542E0,3.808950186E0,9.538843486E0
2.206374033E0,2.149950027E0,8.416950226E0,3.886050224E0,9.516760088E0
2.208335725E0,2.341950178E0,8.302050591E0,3.963000298E0,9.492847097E0
2.210297563E0,2.457000017E0,8.263050079E0,3.924000263E0,9.471674813E0
2.212259351E0,2.533950090E0,8.187000275E0,3.963000298E0,9.442099762E0
2.214220893E0,2.649000168E0,8.110050201E0,4.000950336E0,9.423254202E0
2.216182507E0,2.725050211E0,8.032950401E0,4.000950336E0,9.378794933E0
2.218144347E0,2.839950085E0,7.995000362E0,4.000950336E0,9.380455792E0
2.220106120E0,2.992950201E0,7.957050323E0,3.924000263E0,9.363235489E0
2.222068014E0,3.070050240E0,7.879950523E0,3.808950186E0,9.275070363E0
2.224029879E0,3.108000040E0,7.765050411E0,3.541050196E0,9.082659777E0
2.225991363E0,3.070050240E0,7.534950256E0,2.773950100E0,8.596248193E0
2.227952958E0,3.300000191E0,7.534950256E0,2.736000061E0,8.668977619E0
2.229914847E0,3.492000103E0,7.420050144E0,2.773950100E0,8.657136248E0
2.231876649E0,3.607050180E0,7.458000183E0,2.736000061E0,8.724578733E0
2.233838264E0,3.682950258E0,7.458000183E0,2.736000061E0,8.756231248E0
2.235799944E0,3.837000132E0,7.458000183E0,2.506050110E0,8.753549217E0
2.237761278E0,3.874950171E0,7.497000217E0,2.238000154E0,8.730916090E0
2.239722714E0,3.952050209E0,7.534950256E0,2.085000038E0,8.760216971E0
2.241684135E0,3.874950171E0,7.650000572E0,2.008050203E0,8.807384016E0
2.243645560E0,3.798000097E0,7.726950169E0,1.930950046E0,8.823782167E0
2.245607122E0,3.682950258E0,7.803000450E0,2.008050203E0,8.859074684E0
2.247568640E0,3.568050146E0,7.918050289E0,2.008050203E0,8.913964766E0
2.249530317E0,3.529950142E0,8.071949959E0,1.855050087E0,9.003229141E0
2.251491947E0,3.492000103E0,8.187000275E0,1.855050087E0,9.091878191E0
2.253453650E0,3.337950230E0,8.302050591E0,1.701000094E0,9.108202735E0
2.255415332E0,3.262050152E0,8.455050468E0,1.624950051E0,9.207025159E0
2.257376652E0,3.108000040E0,8.608050346E0,1.548000097E0,9.281944802E0
2.259338088E0,2.955000162E0,8.722949982E0,1.510050058E0,9.332852379E0
2.261299823E0,2.802000046E0,8.991000175E0,1.471050024E0,9.531698515E0
2.263261471E0,2.610000134E0,9.145050049E0,1.432950020E0,9.617556179E0
2.265223216E0,2.419050217E0,9.375000000E0,1.471050024E0,9.793182176E0
2.267184932E0,2.265000105E0,9.643050194E0,1.471050024E0,1.001412156E1
2.269146608E0,2.074050188E0,9.873000145E0,1.471050024E0,1.019518534E1
2.271108305E0,1.882050037E0,1.006500053E1,1.510050058E0,1.035019803E1
2.273069636E0,1.729050040E0,1.025595093E1,1.624950051E0,1.052685167E1
2.275031074E0,1.614000082E0,1.044795036E1,1.585950017E0,1.069017776E1
2.276992809E0,1.422000051E0,1.060095024E1,1.740000129E0,1.083650454E1
2.278954457E0,1.384050012E0,1.071600056E1,1.777950048E0,1.095031364E1
2.280916370E0,1.306950092E0,1.079295063E1,1.855050087E0,1.102892165E1
2.282878182E0,1.230000019E0,1.098495007E1,1.855050087E0,1.120817732E1
2.284840034E0,1.000050068E0,1.110000038E1,1.701000094E0,1.127401924E1
2.286801874E0,8.089500666E-1,1.117605019E1,1.624950051E0,1.132249799E1
2.288762641E0,5.410500169E-1,1.129095078E1,1.471050024E0,1.139922334E1
2.290723723E0,2.719500065E-1,1.144395065E1,1.471050024E0,1.154131498E1
2.292685685E0,8.100000024E-2,1.159800053E1,1.318050027E0,1.167293592E1
2.294647399E0,-1.480500102E-1,1.163595009E1,1.126049995E0,1.169124638E1
2.296609268E0,-4.170000255E-1,1.167405033E1,1.050000072E0,1.172859072E1
2.298571091E0,-5.700000525E-1,1.171305084E1,1.011000037E0,1.177041126E1
2.300532942E0,-6.469500065E-1,1.171305084E1,8.959500194E-1,1.176506824E1
2.302494784E0,-7.620000243E-1,1.167405033E1,8.580000401E-1,1.173031369E1
2.304456660E0,-7.999500632E-1,1.171305084E1,7.429500222E-1,1.176381974E1
2.306418505E0,-9.150000215E-1,1.171305084E1,7.429500222E-1,1.177220284E1
2.308380172E0,-1.106999993E0,1.171305084E1,6.660000086E-1,1.178408100E1
2.310341892E0,-1.297950029E0,1.163595009E1,6.660000086E-1,1.172704416E1
2.312303399E0,-1.528050065E0,1.155900097E1,6.280500293E-1,1.167646724E1
2.314264968E0,-1.605000019E0,1.155900097E1,5.899500251E-1,1.168480079E1
2.316226861E0,-1.720050097E0,1.140600014E1,5.899500251E-1,1.155004123E1
2.318188659E0,-1.873050094E0,1.136805058E1,5.130000114E-1,1.153273860E1
2.320150468E0,-2.065050125E0,1.132905006E1,4.360500276E-1,1.152397271E1
2.322112274E0,-2.218050003E0,1.125300026E1,3.220500052E-1,1.147403490E1
2.324075028E0,-2.218050003E0,1.121400070E1,2.449500114E-1,1.143387765E1
2.326037505E0,-2.332950115E0,1.121400070E1,2.449500114E-1,1.145672154E1
2.327999090E0,-2.485950232E0,1.117605019E1,1.680000126E-1,1.145042664E1
2.329960950E0,-2.524950027E0,1.117605019E1,9.195000678E-2,1.145809431E1
2.331922748E0,-2.640000105E0,1.106100082E1,9.195000678E-2,1.137206202E1
2.333884565E0,-2.716050148E0,1.106100082E1,9.195000678E-2,1.138995709E1
2.335846281E0,-2.830950022E0,1.098495007E1,1.500000060E-2,1.134388077E1
2.337808026E0,-2.869950056E0,1.090800095E1,-2.205000073E-2,1.127925459E1
2.339769630E0,-2.946000099E0,1.087005043E1,-2.205000073E-2,1.126221111E1
2.341731300E0,-2.985000134E0,1.083105087E1,-6.105000153E-2,1.123501740E1
2.343692861E0,-2.985000134E0,1.079295063E1,-1.369500011E-1,1.119896265E1
2.345654454E0,-3.022950172E0,1.071600056E1,-1.759500057E-1,1.113561198E1
2.347616297E0,-3.022950172E0,1.067805004E1,-1.759500057E-1,1.109909631E1
2.349578067E0,-2.985000134E0,1.063995075E1,-2.140500098E-1,1.105280938E1
2.351539778E0,-2.946000099E0,1.056300068E1,-2.140500098E-1,1.096821395E1
2.353501517E0,-2.908050060E0,1.048605061E1,-2.140500098E-1,1.088392530E1
2.355463335E0,-2.830950022E0,1.041000080E1,-1.759500057E-1,1.078950199E1
2.357425130E0,-2.716050148E0,1.029495049E1,-1.369500011E-1,1.064808383E1
2.359386626E0,-2.716050148E0,1.033305073E1,-1.759500057E-1,1.068549597E1
2.361348209E0,-2.640000105E0,1.029495049E1,-1.369500011E-1,1.062893980E1
2.363309594E0,-2.563050032E0,1.025595093E1,-9.900000691E-2,1.057182841E1
2.365271045E0,-2.485950232E0,1.029495049E1,-1.369500011E-1,1.059172835E1
2.367232733E0,-2.485950232E0,1.029495049E1,-2.520000041E-1,1.059384057E1
2.369194351E0,-2.371050119E0,1.041000080E1,-3.670500219E-1,1.068291725E1
2.371155877E0,-2.332950115E0,1.041000080E1,-4.819500148E-1,1.067909400E1
2.373117430E0,-2.140950203E0,1.037100029E1,-5.590500236E-1,1.060442604E1
2.375079195E0,-2.065050125E0,1.041000080E1,-3.670500219E-1,1.061919368E1
2.377040895E0,-2.103000164E0,1.037100029E1,-4.440000355E-1,1.059138295E1
2.379002721E0,-2.065050125E0,1.037100029E1,-5.209500194E-1,1.058742027E1
2.380964510E0,-2.065050125E0,1.033305073E1,-4.440000355E-1,1.054672961E1
2.382926007E0,-1.987950087E0,1.033305073E1,-4.060500264E-1,1.053037319E1
2.384887589E0,-1.950000048E0,1.025595093E1,-4.819500148E-1,1.045080406E1
2.386848940E0,-1.834950089E0,1.014105034E1,-4.060500264E-1,1.031372001E1
2.388810358E0,-1.720050097E0,1.002600002E1,-5.209500194E-1,1.018580570E1
2.390772097E0,-1.642950058E0,9.988050461E0,-5.209500194E-1,1.013567096E1
2.392733741E0,-1.567050099E0,9.873000145E0,-4.440000355E-1,1.000644362E1
2.394695262E0,-1.489950061E0,9.835050583E0,-4.819500148E-1,9.958938044E0
2.396656820E0,-1.452000022E0,9.873000145E0,-3.670500219E-1,9.985948210E0
2.398618379E0,-1.375050068E0,9.757950783E0,-4.440000355E-1,9.864355134E0
2.400579952E0,-1.336950064E0,9.681000710E0,-4.060500264E-1,9.781313145E0
2.402541845E0,-1.336950064E0,9.643050194E0,-4.060500264E-1,9.743753339E0
2.404503644E0,-1.260000110E0,9.604950905E0,-4.440000355E-1,9.697412964E0
2.406465319E0,-1.183050036E0,9.565950394E0,-4.440000355E-1,9.649049194E0
2.408427031E0,-1.183050036E0,9.412950516E0,-4.060500264E-1,9.495689623E0
2.410388549E0,-1.144950032E0,9.336000443E0,-3.670500219E-1,9.413104725E0
2.412350117E0,-1.106999993E0,9.220950127E0,-4.440000355E-1,9.297768886E0
2.414311830E0,-1.068000078E0,9.106050491E0,-4.440000355E-1,9.179211064E0
2.416273500E0,-9.919500351E-1,9.067950249E0,-3.670500219E-1,9.129425628E0
2.418235017E0,-9.150000215E-1,8.991000175E0,-4.819500148E-1,9.050280935E0
2.420196579E0,-9.529500604E-1,8.838000298E0,-5.209500194E-1,8.904479322E0
2.422158293E0,-8.770500422E-1,8.761950493E0,-5.590500236E-1,8.823464747E0
2.424119962E0,-9.150000215E-1,8.685000420E0,-6.360000372E-1,8.756195143E0
2.426081614E0,-8.770500422E-1,8.569950104E0,-7.510500550E-1,8.647389071E0
2.428043271E0,-9.150000215E-1,8.493000031E0,-7.120500207E-1,8.571772850E0
2.430004969E0,-8.770500422E-1,8.455050468E0,-5.970000029E-1,8.521355773E0
2.431966654E0,-9.150000215E-1,8.377950668E0,-7.510500550E-1,8.461167687E0
2.433928357E0,-9.529500604E-1,8.224950790E0,-8.659500480E-1,8.325130558E0
2.435890048E0,-9.150000215E-1,8.187000275E0,-7.890000343E-1,8.275670341E0
2.437851740E0,-9.150000215E-1,8.187000275E0,-5.970000029E-1,8.259576717E0
2.439813432E0,-9.529500604E-1,8.187000275E0,-5.970000029E-1,8.263866911E0
2.441775125E0,-1.030050039E0,8.187000275E0,-5.970000029E-1,8.273112207E0
2.443736817E0,-1.068000078E0,8.187000275E0,-6.360000372E-1,8.280826874E0
2.445698025E0,-1.068000078E0,8.148000717E0,-7.120500207E-1,8.248488048E0
2.447659367E0,-1.144950032E0,8.110050201E0,-7.890000343E-1,8.228386592E0
2.449620893E0,-1.144950032E0,8.110050201E0,-8.659500480E-1,8.236121316E0
2.451582365E0,-1.183050036E0,8.071949959E0,-8.269500136E-1,8.199989625E0
2.453543781E0,-1.144950032E0,8.071949959E0,-9.040500522E-1,8.202718648E0
2.455505214E0,-1.260000110E0,8.032950401E0,-9.420000315E-1,8.185551691E0
2.457466738E0,-1.222050071E0,8.032950401E0,-9.040500522E-1,8.175512524E0
2.459428226E0,-1.260000110E0,7.957050323E0,-9.040500522E-1,8.106759934E0
2.461389594E0,-1.222050071E0,7.995000362E0,-9.040500522E-1,8.138227305E0
2.463350997E0,-1.222050071E0,7.995000362E0,-9.420000315E-1,8.142530395E0
2.465312737E0,-1.183050036E0,7.957050323E0,-9.810000658E-1,8.104111202E0
2.467274379E0,-1.222050071E0,7.995000362E0,-9.810000658E-1,8.147134361E0
2.469235887E0,-1.183050036E0,7.918050289E0,-9.040500522E-1,8.056825322E0
2.471197444E0,-1.260000110E0,7.918050289E0,-9.040500522E-1,8.068483572E0
2.473158844E0,-1.183050036E0,7.842000484E0,-9.420000315E-1,7.986485024E0
2.475120290E0,-1.183050036E0,7.842000484E0,-8.269500136E-1,7.973733461E0
2.477081843E0,-1.297950029E0,7.879950523E0,-9.420000315E-1,8.041496042E0
2.479043365E0,-1.297950029E0,7.765050411E0,-1.057050109E0,7.943427289E0
2.481004692E0,-1.297950029E0,7.612050533E0,-1.249050021E0,7.822283142E0
2.482966070E0,-1.260000110E0,7.381950378E0,-1.671000123E0,7.672876454E0
2.484927320E0,-1.222050071E0,7.342950344E0,-1.287000060E0,7.554382522E0
2.486888608E0,-1.106999993E0,7.497000217E0,-5.590500236E-1,7.598881377E0
2.488850008E0,-1.222050071E0,7.458000183E0,-5.590500236E-1,7.578107286E0
2.490811375E0,-1.222050071E0,7.497000217E0,-7.510500550E-1,7.632987280E0
2.492772873E0,-1.222050071E0,7.534950256E0,-8.659500480E-1,7.682366252E0
2.494734350E0,-1.222050071E0,7.534950256E0,-9.420000315E-1,7.691309758E0
2.496696080E0,-1.260000110E0,7.458000183E0,-1.134000063E0,7.648223529E0
2.498657735E0,-1.222050071E0,7.458000183E0,-1.171950102E0,7.647786618E0
2.500619434E0,-1.222050071E0,7.420050144E0,-1.134000063E0,7.605031667E0
2.502581120E0,-1.183050036E0,7.420050144E0,-1.057050109E0,7.587760306E0
2.504542630E0,-1.222050071E0,7.420050144E0,-1.134000063E0,7.605031667E0
2.506504195E0,-1.222050071E0,7.381950378E0,-1.210950017E0,7.579775571E0
2.508465772E0,-1.183050036E0,7.381950378E0,-1.287000060E0,7.586116789E0
2.510427346E0,-1.144950032E0,7.342950344E0,-1.287000060E0,7.542294047E0
2.512389059E0,-1.144950032E0,7.305000305E0,-1.441050053E0,7.533297106E0
2.514350731E0,-1.068000078E0,7.189950466E0,-1.402050018E0,7.402820822E0
2.516312368E0,-1.030050039E0,7.113000393E0,-1.402050018E0,7.322671775E0
2.518274026E0,-1.030050039E0,7.075050354E0,-1.402050018E0,7.285813946E0
2.520235544E0,-1.030050039E0,7.036950111E0,-1.363950014E0,7.241548839E0
2.522197103E0,-9.919500351E-1,6.960000515E0,-1.287000060E0,7.147163157E0
2.524158457E0,-1.030050039E0,6.960000515E0,-1.249050021E0,7.145819492E0
2.526119872E0,-9.919500351E-1,6.960000515E0,-1.287000060E0,7.147163157E0
2.528081495E0,-9.919500351E-1,6.997950554E0,-1.287000060E0,7.184124580E0
2.530043043E0,-9.919500351E-1,7.036950111E0,-1.210950017E0,7.208954965E0
2.532004581E0,-8.380500674E-1,7.113000393E0,-1.171950102E0,7.257449245E0
2.533966122E0,-7.999500632E-1,7.152000427E0,-1.249050021E0,7.304187578E0
2.535927794E0,-8.380500674E-1,7.267050266E0,-1.326000094E0,7.434421547E0
2.537889427E0,-8.380500674E-1,7.305000305E0,-1.210950017E0,7.451963320E0
2.539850960E0,-8.770500422E-1,7.420050144E0,-1.134000063E0,7.557269154E0
2.541812516E0,-8.770500422E-1,7.458000183E0,-1.018950105E0,7.578208418E0
2.543774231E0,-9.150000215E-1,7.534950256E0,-9.420000315E-1,7.648533485E0
2.545735899E0,-9.529500604E-1,7.497000217E0,-9.420000315E-1,7.615805285E0
2.547697416E0,-9.529500604E-1,7.497000217E0,-1.018950105E0,7.625705567E0
2.549658978E0,-1.030050039E0,7.534950256E0,-9.420000315E-1,7.663148342E0
2.551620561E0,-1.106999993E0,7.573050499E0,-9.810000658E-1,7.716145668E0
2.553582135E0,-1.144950032E0,7.650000572E0,-9.040500522E-1,7.787857589E0
2.555543668E0,-1.106999993E0,7.612050533E0,-8.659500480E-1,7.740712615E0
2.557505214E0,-1.144950032E0,7.612050533E0,-8.659500480E-1,7.746230915E0
2.559466930E0,-1.260000110E0,7.650000572E0,-9.040500522E-1,7.805601548E0
2.561428596E0,-1.375050068E0,7.650000572E0,-9.420000315E-1,7.829472237E0
2.563390428E0,-1.336950064E0,7.650000572E0,-9.810000658E-1,7.827662828E0
2.565352212E0,-1.336950064E0,7.726950169E0,-9.810000658E-1,7.902882734E0
2.567313709E0,-1.489950061E0,7.765050411E0,-1.018950105E0,7.972089964E0
2.569275291E0,-1.489950061E0,7.726950169E0,-1.134000063E0,7.950576472E0
2.571236642E0,-1.528050065E0,7.803000450E0,-1.210950017E0,8.042894564E0
2.573198060E0,-1.489950061E0,7.803000450E0,-1.171950102E0,8.029958546E0
2.575159483E0,-1.605000019E0,7.842000484E0,-1.171950102E0,8.089898868E0
2.577120904E0,-1.681950092E0,7.879950523E0,-1.287000060E0,8.159592240E0
2.579082283E0,-1.681950092E0,7.842000484E0,-1.326000094E0,8.129219148E0
2.581043675E0,-1.605000019E0,7.842000484E0,-1.363950014E0,8.119935733E0
2.583005238E0,-1.720050097E0,7.803000450E0,-1.479000092E0,8.126058677E0
2.584966750E0,-1.758000135E0,7.842000484E0,-1.479000092E0,8.171595765E0
2.586928128E0,-1.795950055E0,7.803000450E0,-1.441050053E0,8.135654730E0
2.588889536E0,-1.834950089E0,7.879950523E0,-1.555950046E0,8.239031656E0
2.590851095E0,-1.834950089E0,7.918050289E0,-1.632000089E0,8.290113781E0
2.592812610E0,-1.834950089E0,7.957050323E0,-1.632000089E0,8.327371492E0
2.594774468E0,-1.911000133E0,8.032950401E0,-1.594050050E0,8.409590312E0
2.596736226E0,-1.873050094E0,8.032950401E0,-1.632000089E0,8.408331172E0
2.598697588E0,-1.873050094E0,8.148000717E0,-1.671000123E0,8.525870850E0
2.600659069E0,-1.873050094E0,8.224950790E0,-1.708950043E0,8.606895050E0
2.602620437E0,-1.758000135E0,8.302050591E0,-1.747050047E0,8.664109438E0
2.604581838E0,-1.795950055E0,8.416950226E0,-1.824000120E0,8.797582858E0
2.606543579E0,-1.834950089E0,8.608050346E0,-1.861950040E0,8.996245358E0
2.608505221E0,-1.834950089E0,8.722949982E0,-1.939050078E0,9.122325001E0
2.610466922E0,-1.873050094E0,8.800050735E0,-1.939050078E0,9.203756016E0
2.612428606E0,-1.911000133E0,8.914950371E0,-1.977000117E0,9.329351054E0
2.614390076E0,-1.911000133E0,8.991000175E0,-1.977000117E0,9.402049517E0
2.616351608E0,-1.950000048E0,9.106050491E0,-1.977000117E0,9.520041239E0
2.618312832E0,-1.987950087E0,9.220950127E0,-1.900950074E0,9.622446569E0
2.620274146E0,-1.911000133E0,9.259950638E0,-1.824000120E0,9.629412431E0
2.622235512E0,-1.987950087E0,9.336000443E0,-1.824000120E0,9.718015551E0
2.624196883E0,-1.911000133E0,9.451050758E0,-1.786050081E0,9.806337585E0
2.626158091E0,-1.950000048E0,9.451050758E0,-1.747050047E0,9.806989573E0
2.628119347E0,-1.911000133E0,9.528000832E0,-1.708950043E0,9.866875473E0
2.630080752E0,-1.950000048E0,9.643050194E0,-1.671000123E0,9.979136167E0
2.632042114E0,-2.026050091E0,9.720000267E0,-1.671000123E0,1.006854138E1
2.634003629E0,-2.065050125E0,9.835050583E0,-1.632000089E0,1.018116282E1
2.635965105E0,-2.179949999E0,9.949950218E0,-1.555950046E0,1.030410947E1
2.637926475E0,-2.295000076E0,9.988050461E0,-1.555950046E0,1.036576856E1
2.639887876E0,-2.410050154E0,1.010295010E1,-1.441050053E0,1.048592236E1
2.641849437E0,-2.485950232E0,1.018005085E1,-1.363950014E0,1.056757983E1
2.643810951E0,-2.677950144E0,1.029495049E1,-1.326000094E0,1.071987401E1
2.645772489E0,-2.716050148E0,1.041000080E1,-1.287000060E0,1.083519332E1
2.647734023E0,-2.830950022E0,1.044795036E1,-1.249050021E0,1.089651645E1
2.649695383E0,-2.908050060E0,1.048605061E1,-1.171950102E0,1.094474666E1
2.651656794E0,-3.022950172E0,1.056300068E1,-1.134000063E0,1.104541386E1
2.653618398E0,-3.061050177E0,1.060095024E1,-1.096050024E0,1.108834974E1
2.655579946E0,-3.214950085E0,1.063995075E1,-1.018950105E0,1.116166275E1
2.657541618E0,-3.291000128E0,1.079295063E1,-9.810000658E-1,1.132611258E1
2.659503254E0,-3.330000162E0,1.083105087E1,-1.018950105E0,1.137711841E1
2.661464777E0,-3.367950201E0,1.087005043E1,-1.057050109E0,1.142884245E1
2.663426333E0,-3.406050205E0,1.094595051E1,-1.096050024E0,1.151591665E1
2.665387913E0,-3.367950201E0,1.098495007E1,-1.134000063E0,1.154548278E1
2.667349485E0,-3.406050205E0,1.102305031E1,-1.210950017E0,1.160065585E1
2.669311188E0,-3.406050205E0,1.098495007E1,-1.210950017E0,1.156445874E1
2.671272859E0,-3.330000162E0,1.106100082E1,-1.287000060E0,1.162286580E1
2.673234511E0,-3.330000162E0,1.106100082E1,-1.326000094E0,1.162724888E1
2.675196169E0,-3.253050089E0,1.106100082E1,-1.441050053E0,1.161915227E1
2.677158046E0,-3.175950050E0,1.102305031E1,-1.555950046E0,1.157649677E1
2.679119859E0,-3.100050211E0,1.106100082E1,-1.555950046E0,1.159211073E1
2.681081407E0,-3.061050177E0,1.094595051E1,-1.632000089E0,1.148247730E1
2.683043025E0,-2.985000134E0,1.087005043E1,-1.747050047E0,1.140703318E1
2.685004505E0,-2.908050060E0,1.079295063E1,-1.861950040E0,1.133187524E1
2.686966025E0,-2.830950022E0,1.067805004E1,-1.900950074E0,1.120931050E1
2.688927611E0,-2.755050182E0,1.048605061E1,-1.977000117E0,1.102071179E1
2.690889177E0,-2.716050148E0,1.037100029E1,-2.092050076E0,1.092296887E1
2.692850896E0,-2.716050148E0,1.021800041E1,-2.053950071E0,1.077047686E1
2.694812567E0,-2.640000105E0,1.010295010E1,-2.092050076E0,1.064968895E1
2.696774219E0,-2.563050032E0,9.988050461E0,-2.169000149E0,1.053731176E1
2.698735876E0,-2.524950027E0,9.873000145E0,-2.092050076E0,1.040327727E1
2.700697259E0,-2.485950232E0,9.796050072E0,-2.092050076E0,1.032081485E1
2.702658723E0,-2.524950027E0,9.796050072E0,-2.092050076E0,1.033027798E1
2.704620273E0,-2.448000193E0,9.720000267E0,-2.092050076E0,1.023952067E1
2.706581797E0,-2.448000193E0,9.643050194E0,-1.977000117E0,1.014345363E1
2.708543159E0,-2.524950027E0,9.604950905E0,-1.977000117E0,1.012615346E1
2.710504569E0,-2.485950232E0,9.604950905E0,-1.900950074E0,1.010191277E1
2.712465724E0,-2.524950027E0,9.681000710E0,-1.861950040E0,1.017664018E1
2.714426953E0,-2.524950027E0,9.681000710E0,-1.747050047E0,1.015624592E1
2.716388544E0,-2.563050032E0,9.757950783E0,-1.671000123E0,1.022639088E1
2.718350028E0,-2.601000071E0,9.873000145E0,-1.632000089E0,1.033947569E1
2.720311397E0,-2.677950144E0,9.988050461E0,-1.594050050E0,1.046296156E1
2.722272800E0,-2.716050148E0,1.018005085E1,-1.441050053E0,1.063423664E1
2.724234046E0,-2.793000221E0,1.029495049E1,-1.441050053E0,1.076399001E1
2.726195338E0,-2.830950022E0,1.044795036E1,-1.326000094E0,1.090560503E1
2.728156908E0,-2.830950022E0,1.060095024E1,-1.287000060E0,1.104766008E1
2.730118403E0,-2.869950056E0,1.071600056E1,-1.287000060E0,1.116806386E1
2.732079949E0,-2.946000099E0,1.087005043E1,-1.249050021E0,1.133124172E1
2.734041480E0,-2.908050060E0,1.102305031E1,-1.249050021E0,1.146841398E1
2.736003020E0,-2.908050060E0,1.110000038E1,-1.326000094E0,1.155097571E1
2.737964557E0,-2.869950056E0,1.117605019E1,-1.210950017E0,1.160203047E1
2.739926042E0,-2.869950056E0,1.125300026E1,-1.326000094E0,1.168866564E1
2.741887549E0,-2.793000221E0,1.136805058E1,-1.326000094E0,1.178098894E1
2.743848912E0,-2.716050148E0,1.140600014E1,-1.249050021E0,1.179126344E1
2.745810318E0,-2.716050148E0,1.144395065E1,-1.249050021E0,1.182797789E1
2.747771699E0,-2.755050182E0,1.148295021E1,-1.096050024E0,1.185958569E1
2.749733087E0,-2.640000105E0,1.152105045E1,-1.057050109E0,1.186682599E1
2.751694695E0,-2.563050032E0,1.155900097E1,-1.057050109E0,1.188684499E1
2.753656239E0,-2.563050032E0,1.159800053E1,-9.810000658E-1,1.191827180E1
2.755617778E0,-2.563050032E0,1.167405033E1,-9.040500522E-1,1.198624141E1
2.757579318E0,-2.485950232E0,1.163595009E1,-7.510500550E-1,1.192222124E1
2.759540990E0,-2.410050154E0,1.163595009E1,-6.739500165E-1,1.190201180E1
2.761502624E0,-2.371050119E0,1.167405033E1,-5.590500236E-1,1.192551327E1
2.763463993E0,-2.371050119E0,1.163595009E1,-4.819500148E-1,1.188484282E1
2.765425453E0,-2.218050003E0,1.167405033E1,-4.060500264E-1,1.188983068E1
2.767387184E0,-2.140950203E0,1.163595009E1,-3.670500219E-1,1.183696447E1
2.769348836E0,-2.065050125E0,1.167405033E1,-2.520000041E-1,1.185796724E1
2.771310176E0,-2.026050091E0,1.163595009E1,-1.369500011E-1,1.181181479E1
2.773271607E0,-1.950000048E0,1.163595009E1,-9.900000691E-2,1.179862855E1
2.775233298E0,-1.911000133E0,1.163595009E1,1.500000060E-2,1.179183959E1
2.777194913E0,-1.987950087E0,1.152105045E1,-3.289500177E-1,1.169592909E1
2.779155403E0,-1.758000135E0,1.144395065E1,-2.140500098E-1,1.158017221E1
2.781116222E0,-1.567050099E0,1.155900097E1,6.280500293E-1,1.168163500E1
2.783077702E0,-1.605000019E0,1.163595009E1,8.959500194E-1,1.178024134E1
2.785038989E0,-1.642950058E0,1.171305084E1,7.429500222E-1,1.185102610E1
2.787000381E0,-1.605000019E0,1.175100040E1,4.750500321E-1,1.186961280E1
2.788961749E0,-1.605000019E0,1.175100040E1,3.220500052E-1,1.186447436E1
2.790923858E0,-1.528050065E0,1.182795048E1,3.220500052E-1,1.193059369E1
2.792885749E0,-1.413000107E0,1.186605072E1,2.830500007E-1,1.195323581E1
2.794846327E0,-1.297950029E0,1.194300079E1,3.600000143E-1,1.201871633E1
2.796807289E0,-1.183050036E0,1.201905060E1,4.750500321E-1,1.208647414E1
2.798768935E0,-1.106999993E0,1.217295074E1,6.280500293E-1,1.223930658E1
2.800730374E0,-9.529500604E-1,1.224900055E1,7.429500222E-1,1.230845656E1
2.802692065E0,-8.380500674E-1,1.232595062E1,8.580000401E-1,1.238416532E1
2.804653682E0,-7.620000243E-1,1.240305042E1,9.730500579E-1,1.246447473E1
2.806615432E0,-6.469500065E-1,1.247895050E1,1.126049995E0,1.254634363E1
2.808577143E0,-4.930500090E-1,1.251795101E1,1.203000069E0,1.258528526E1
2.810538673E0,-4.549500346E-1,1.255605030E1,1.203000069E0,1.262175059E1
2.812500242E0,-2.629500031E-1,1.263300037E1,1.165050030E0,1.268933342E1
2.814461955E0,-1.099500060E-1,1.263300037E1,1.126049995E0,1.268356322E1
2.816423625E0,-7.200000435E-2,1.255605030E1,1.203000069E0,1.261375409E1
2.818385277E0,8.100000024E-2,1.251795101E1,1.240950108E0,1.257957136E1
2.820346935E0,2.340000123E-1,1.244100094E1,1.240950108E0,1.250492773E1
2.822308677E0,2.719500065E-1,1.236405087E1,1.279950023E0,1.243310028E1
2.824270394E0,5.410500169E-1,1.217295074E1,1.356000066E0,1.226018765E1
2.826232758E0,6.550500393E-1,1.201905060E1,1.471050024E0,1.212644449E1
2.828194933E0,8.089500666E-1,1.182795048E1,1.510050058E0,1.195136243E1
2.830156363E0,9.240000248E-1,1.171305084E1,1.510050058E0,1.184607898E1
2.832118012E0,1.114950061E0,1.152105045E1,1.510050058E0,1.167295885E1
2.834079021E0,1.230000019E0,1.121400070E1,1.548000097E0,1.138696694E1
2.836040228E0,1.306950092E0,1.094595051E1,1.510050058E0,1.112664380E1
2.838001958E0,1.306950092E0,1.071600056E1,1.585950017E0,1.091127967E1
2.839963534E0,1.306950092E0,1.048605061E1,1.585950017E0,1.068553290E1
2.841924932E0,1.345050097E0,1.006500053E1,1.585950017E0,1.027757914E1
2.843886382E0,1.422000051E0,9.873000145E0,1.624950051E0,1.010636822E1
2.845847903E0,1.345050097E0,9.528000832E0,1.624950051E0,9.758710072E0
2.847809394E0,1.384050012E0,9.375000000E0,1.585950017E0,9.608405533E0
2.849770806E0,1.537050128E0,9.145050049E0,1.585950017E0,9.407959447E0
2.851732242E0,1.614000082E0,8.914950371E0,1.510050058E0,9.184856426E0
2.853693797E0,1.729050040E0,8.647050858E0,1.510050058E0,8.946583356E0
2.855655317E0,1.690050125E0,8.416950226E0,1.471050024E0,8.710069386E0
2.857616690E0,1.651950121E0,8.224950790E0,1.471050024E0,8.517202761E0
2.859578099E0,1.575000048E0,7.957050323E0,1.432950020E0,8.237027423E0
2.861539479E0,1.614000082E0,7.842000484E0,1.432950020E0,8.133591680E0
2.863500868E0,1.614000082E0,7.573050499E0,1.318050027E0,7.854511188E0
2.865462207E0,1.614000082E0,7.420050144E0,1.203000069E0,7.688260504E0
2.867423560E0,1.614000082E0,7.267050266E0,1.126049995E0,7.528811621E0
2.869384949E0,1.537050128E0,7.152000427E0,1.126049995E0,7.401460788E0
2.871346327E0,1.537050128E0,6.997950554E0,1.087950110E0,7.246893851E0
2.873307579E0,1.498950124E0,6.922050476E0,1.011000037E0,7.154282308E0
2.875268868E0,1.498950124E0,6.883050442E0,9.730500579E-1,7.111262987E0
2.877230448E0,1.459950089E0,6.844950199E0,9.730500579E-1,7.066231238E0
2.879191943E0,1.459950089E0,6.883050442E0,9.730500579E-1,7.103144660E0
2.881153124E0,1.345050097E0,6.883050442E0,1.050000072E0,7.091406299E0
2.883114401E0,1.384050012E0,6.922050476E0,1.050000072E0,7.136727358E0
2.885075579E0,1.345050097E0,6.997950554E0,9.730500579E-1,7.192169223E0
2.887036786E0,1.306950092E0,7.113000393E0,1.011000037E0,7.302397840E0
2.888998065E0,1.306950092E0,7.228050232E0,1.087950110E0,7.425393198E0
2.890959322E0,1.269000053E0,7.342950344E0,1.050000072E0,7.525409028E0
2.892920703E0,1.192050099E0,7.420050144E0,1.165050030E0,7.604963455E0
2.894882034E0,1.153950095E0,7.458000183E0,1.203000069E0,7.642027003E0
2.896843428E0,1.039050102E0,7.612050533E0,1.240950108E0,7.782216625E0
2.898804803E0,1.039050102E0,7.726950169E0,1.240950108E0,7.894640029E0
2.900766189E0,9.619500637E-1,7.842000484E0,1.356000066E0,8.016299377E0
2.902727572E0,9.240000248E-1,7.879950523E0,1.356000066E0,8.048983319E0
2.904689016E0,9.240000248E-1,8.032950401E0,1.395000100E0,8.205369795E0
2.906650432E0,8.850000501E-1,8.110050201E0,1.432950020E0,8.283084276E0
2.908610731E0,6.550500393E-1,8.302050591E0,1.395000100E0,8.443882984E0
2.910571357E0,5.020500422E-1,8.302050591E0,1.432950020E0,8.439753789E0
2.912532285E0,4.639500082E-1,8.532000542E0,1.395000100E0,8.657731119E0
2.914493125E0,3.490500152E-1,8.608050346E0,1.356000066E0,8.721187010E0
2.916454302E0,3.490500152E-1,8.722949982E0,1.356000066E0,8.834615355E0
2.918415370E0,2.719500065E-1,8.914950371E0,1.395000100E0,9.027531346E0
2.920376809E0,1.960500032E-1,8.991000175E0,1.432950020E0,9.106583636E0
2.922338140E0,1.960500032E-1,9.030000687E0,1.471050024E0,9.151138518E0
2.924299309E0,1.960500032E-1,9.106050491E0,1.471050024E0,9.226189860E0
2.926260526E0,4.200000316E-2,9.220950127E0,1.548000097E0,9.350079654E0
2.928221762E0,-1.480500102E-1,9.412950516E0,1.471050024E0,9.528354758E0
2.930182990E0,-1.870500147E-1,9.451050758E0,1.395000100E0,9.555279872E0
2.932144401E0,-2.250000089E-1,9.528000832E0,1.318050027E0,9.621365845E0
2.934105759E0,-2.629500031E-1,9.604950905E0,1.240950108E0,9.688352892E0
2.936067148E0,-3.400500119E-1,9.681000710E0,1.203000069E0,9.761384016E0
2.938028528E0,-4.170000255E-1,9.720000267E0,1.240950108E0,9.807764851E0
2.939989785E0,-4.170000255E-1,9.796050072E0,1.240950108E0,9.883139339E0
2.941951074E0,-3.780000210E-1,9.796050072E0,1.356000066E0,9.896677079E0
2.943912474E0,-3.780000210E-1,9.796050072E0,1.395000100E0,9.902096056E0
2.945873841E0,-3.780000210E-1,9.873000145E0,1.318050027E0,9.967761622E0
2.947835005E0,-3.780000210E-1,9.757950783E0,1.279950023E0,9.848794828E0
2.949796228E0,-3.780000210E-1,9.757950783E0,1.240950108E0,9.843802348E0
2.951758019E0,-2.250000089E-1,9.681000710E0,1.165050030E0,9.753447663E0
2.953719630E0,-1.870500147E-1,9.681000710E0,1.087950110E0,9.743736341E0
2.955680977E0,-2.250000089E-1,9.643050194E0,1.126049995E0,9.711180702E0
2.957642402E0,-1.870500147E-1,9.528000832E0,1.126049995E0,9.596133396E0
2.959604003E0,-3.299999982E-2,9.451050758E0,1.087950110E0,9.513521161E0
2.961565553E0,4.050000105E-3,9.412950516E0,1.126049995E0,9.480065528E0
2.963527205E0,8.100000024E-2,9.375000000E0,1.087950110E0,9.438263688E0
2.965488841E0,8.100000024E-2,9.336000443E0,9.730500579E-1,9.386921310E0
2.967450543E0,1.189500093E-1,9.298050880E0,9.349500537E-1,9.345695848E0
2.969412226E0,1.570500135E-1,9.298050880E0,8.580000401E-1,9.338874608E0
2.971373245E0,2.340000123E-1,9.336000443E0,8.580000401E-1,9.378263397E0
2.973334459E0,2.340000123E-1,9.298050880E0,8.580000401E-1,9.340485547E0
2.975295877E0,2.340000123E-1,9.298050880E0,7.810500264E-1,9.333731586E0
2.977257231E0,3.490500152E-1,9.336000443E0,7.810500264E-1,9.375114896E0
2.979218756E0,3.490500152E-1,9.298050880E0,7.429500222E-1,9.334214526E0
2.981180231E0,4.639500082E-1,9.298050880E0,7.429500222E-1,9.339217019E0
2.983141826E0,5.020500422E-1,9.298050880E0,7.050000429E-1,9.338245525E0
2.985103385E0,5.410500169E-1,9.259950638E0,7.429500222E-1,9.305449783E0
2.987065766E0,5.790000558E-1,9.220950127E0,7.050000429E-1,9.265969316E0
2.989027913E0,6.550500393E-1,9.183000565E0,8.200500607E-1,9.242784863E0
2.990989033E0,6.940500140E-1,9.183000565E0,7.810500264E-1,9.242253185E0
2.992950454E0,7.320000529E-1,9.145050049E0,7.429500222E-1,9.204332632E0
2.994911832E0,7.320000529E-1,9.145050049E0,7.810500264E-1,9.207486281E0
2.996873223E0,7.699500322E-1,9.106050491E0,7.810500264E-1,9.171860103E0
2.998834761E0,6.550500393E-1,9.106050491E0,7.810500264E-1,9.162929949E0
3.000796273E0,5.790000558E-1,9.106050491E0,7.810500264E-1,9.157807366E0
3.002757772E0,5.410500169E-1,9.030000687E0,7.810500264E-1,9.079850586E0
3.004719275E0,5.790000558E-1,8.991000175E0,8.200500607E-1,9.046867266E0
3.006680098E0,5.410500169E-1,8.953050613E0,7.810500264E-1,9.003326582E0
3.008641121E0,5.020500422E-1,8.914950371E0,7.050000429E-1,8.956864374E0
3.010602608E0,4.260000288E-1,8.877000809E0,7.429500222E-1,8.918216981E0
3.012563961E0,3.490500152E-1,8.877000809E0,7.810500264E-1,8.918128639E0
3.014525712E0,3.870000243E-1,8.838000298E0,8.200500607E-1,8.884396456E0
3.016487346E0,4.260000288E-1,8.838000298E0,8.580000401E-1,8.889763178E0
3.018448869E0,3.490500152E-1,8.838000298E0,9.349500537E-1,8.894167571E0
3.020410425E0,3.490500152E-1,8.877000809E0,9.730500579E-1,8.936990863E0
3.022372079E0,2.719500065E-1,8.838000298E0,9.730500579E-1,8.895562516E0
3.024333715E0,2.719500065E-1,8.838000298E0,9.349500537E-1,8.891475562E0
3.026295417E0,1.960500032E-1,8.914950371E0,9.730500579E-1,8.970039138E0
3.028257100E0,1.189500093E-1,8.914950371E0,9.349500537E-1,8.964631661E0
3.030218434E0,1.570500135E-1,8.953050613E0,1.011000037E0,9.011320717E0
3.032179871E0,8.100000024E-2,8.991000175E0,1.011000037E0,9.048025543E0
3.034141582E0,4.200000316E-2,8.991000175E0,1.087950110E0,9.056681710E0
3.036103230E0,8.100000024E-2,9.067950249E0,1.126049995E0,9.137957721E0
3.038065110E0,8.100000024E-2,9.067950249E0,1.279950023E0,9.158196044E0
3.040026922E0,4.200000316E-2,9.145050049E0,1.356000066E0,9.245130641E0
3.041988279E0,4.200000316E-2,9.183000565E0,1.395000100E0,9.288449206E0
3.043949770E0,-7.200000435E-2,9.220950127E0,1.471050024E0,9.337831301E0
3.045911441E0,-2.250000089E-1,9.106050491E0,1.318050027E0,9.203696889E0
3.047873066E0,-1.099500060E-1,9.375000000E0,1.395000100E0,9.478857488E0
3.049834455E0,4.200000316E-2,9.451050758E0,1.432950020E0,9.559156354E0
3.051795914E0,8.100000024E-2,9.528000832E0,1.395000100E0,9.629921398E0
3.053757420E0,4.050000105E-3,9.643050194E0,1.318050027E0,9.732712331E0
3.055718912E0,4.050000105E-3,9.796050072E0,1.356000066E0,9.889456486E0
3.057680435E0,4.050000105E-3,9.873000145E0,1.395000100E0,9.971066821E0
3.059641965E0,4.200000316E-2,9.949950218E0,1.395000100E0,1.004735282E1
3.061603685E0,-3.299999982E-2,1.002600002E1,1.432950020E0,1.012793717E1
3.063565350E0,4.050000105E-3,1.006500053E1,1.395000100E0,1.016121437E1
3.065527047E0,4.200000316E-2,1.002600002E1,1.356000066E0,1.011737005E1
3.067488734E0,4.200000316E-2,1.002600002E1,1.165050030E0,1.009355151E1
3.069450248E0,1.189500093E-1,1.006500053E1,1.318050027E0,1.015163242E1
3.071411813E0,1.960500032E-1,1.006500053E1,1.432950020E0,1.016838321E1
3.073373167E0,2.340000123E-1,1.006500053E1,1.432950020E0,1.016918569E1
3.075334583E0,1.960500032E-1,1.002600002E1,1.432950020E0,1.012978074E1
3.077295827E0,1.570500135E-1,1.002600002E1,1.318050027E0,1.011348590E1
3.079257121E0,1.960500032E-1,1.002600002E1,1.240950108E0,1.010440841E1
3.081218686E0,1.960500032E-1,1.002600002E1,1.240950108E0,1.010440841E1
3.083180182E0,1.960500032E-1,9.988050461E0,1.279950023E0,1.007163639E1
3.085141728E0,1.570500135E-1,9.949950218E0,1.126049995E0,1.001469733E1
3.087103259E0,1.960500032E-1,9.949950218E0,1.126049995E0,1.001538484E1
3.089065159E0,1.960500032E-1,9.949950218E0,1.087950110E0,1.001117278E1
3.091026951E0,1.960500032E-1,9.988050461E0,1.165050030E0,1.005768011E1
3.092988418E0,1.960500032E-1,9.949950218E0,1.126049995E0,1.001538484E1
3.094950001E0,1.570500135E-1,9.910950661E0,1.087950110E0,9.971722176E0
3.096911711E0,1.570500135E-1,9.873000145E0,1.011000037E0,9.925871128E0
3.098873384E0,1.189500093E-1,9.796050072E0,9.349500537E-1,9.841284353E0
3.100835079E0,1.189500093E-1,9.757950783E0,8.580000401E-1,9.796321588E0
3.102796768E0,8.100000024E-2,9.720000267E0,8.580000401E-1,9.758131494E0
3.104758417E0,4.050000105E-3,9.604950905E0,8.959500194E-1,9.646648367E0
3.106720078E0,-3.299999982E-2,9.565950394E0,7.050000429E-1,9.591950844E0
3.108681415E0,-3.299999982E-2,9.490050316E0,7.050000429E-1,9.516258144E0
3.110642847E0,4.050000105E-3,9.490050316E0,6.280500293E-1,9.510810598E0
3.112604448E0,-7.200000435E-2,9.412950516E0,5.899500251E-1,9.431694569E0
3.114565999E0,-1.099500060E-1,9.412950516E0,5.509500504E-1,9.429701606E0
3.116527721E0,-1.870500147E-1,9.412950516E0,5.130000114E-1,9.428774795E0
3.118489389E0,-2.629500031E-1,9.375000000E0,4.360500276E-1,9.388818207E0
3.120451942E0,-3.019500077E-1,9.451050758E0,3.220500052E-1,9.461355635E0
3.122414235E0,-3.400500119E-1,9.412950516E0,2.449500114E-1,9.422275305E0
3.124375510E0,-3.780000210E-1,9.336000443E0,1.680000126E-1,9.345159832E0
3.126337083E0,-4.930500090E-1,9.298050880E0,1.680000126E-1,9.312629730E0
3.128298735E0,-4.930500090E-1,9.220950127E0,5.295000225E-2,9.234274376E0
3.130260374E0,-5.700000525E-1,9.145050049E0,9.195000678E-2,9.163257895E0
3.132222256E0,-7.230000496E-1,9.067950249E0,1.500000060E-2,9.096739844E0
3.134184066E0,-7.620000243E-1,8.991000175E0,5.295000225E-2,9.023388050E0
3.136145424E0,-7.999500632E-1,8.953050613E0,-2.205000073E-2,8.988744161E0
3.138106914E0,-8.380500674E-1,8.914950371E0,-2.205000073E-2,8.954281335E0
3.140068775E0,-8.770500422E-1,8.877000809E0,-1.759500057E-1,8.921957103E0
3.142030528E0,-8.770500422E-1,8.800050735E0,-2.140500098E-1,8.846238021E0
3.143992211E0,-9.529500604E-1,8.722949982E0,-2.520000041E-1,8.778466506E0
3.145953914E0,-9.919500351E-1,8.685000420E0,-2.910000086E-1,8.746306544E0
3.147915649E0,-1.068000078E0,8.608050346E0,-2.910000086E-1,8.678930576E0
3.149877374E0,-1.030050039E0,8.569950104E0,-3.289500177E-1,8.637896502E0
3.151839376E0,-1.144950032E0,8.569950104E0,-3.289500177E-1,8.652350170E0
3.153801297E0,-1.144950032E0,8.532000542E0,-3.670500219E-1,8.616302544E0
3.155762951E0,-1.260000110E0,8.416950226E0,-3.670500219E-1,8.518648784E0
3.157724684E0,-1.297950029E0,8.416950226E0,-4.060500264E-1,8.526112948E0
3.159686593E0,-1.260000110E0,8.416950226E0,-3.289500177E-1,8.517092197E0
3.161648451E0,-1.222050071E0,8.377950668E0,-5.209500194E-1,8.482620627E0
3.163609882E0,-1.222050071E0,8.377950668E0,-5.590500236E-1,8.485045710E0
3.165571444E0,-1.260000110E0,8.340000153E0,-5.590500236E-1,8.453149694E0
3.167533157E0,-1.260000110E0,8.263050079E0,-3.670500219E-1,8.366619545E0
3.169494826E0,-1.297950029E0,8.302050591E0,-2.520000041E-1,8.406677244E0
3.171456388E0,-1.336950064E0,8.263050079E0,-2.520000041E-1,8.374302125E0
3.173417982E0,-1.336950064E0,8.263050079E0,-2.910000086E-1,8.375566434E0
3.175379340E0,-1.375050068E0,8.302050591E0,-2.910000086E-1,8.420183353E0
3.177340761E0,-1.452000022E0,8.263050079E0,-2.520000041E-1,8.393438192E0
3.179302318E0,-1.375050068E0,8.263050079E0,-2.910000086E-1,8.381732536E0
3.181263835E0,-1.413000107E0,8.263050079E0,-2.520000041E-1,8.386779472E0
3.183225558E0,-1.489950061E0,8.148000717E0,-2.140500098E-1,8.285872572E0
3.185187220E0,-1.605000019E0,8.263050079E0,-1.759500057E-1,8.419321830E0
3.187148880E0,-1.528050065E0,8.263050079E0,-1.759500057E-1,8.404992089E0
3.189110536E0,-1.567050099E0,8.263050079E0,-1.369500011E-1,8.411444462E0
3.191072233E0,-1.567050099E0,8.263050079E0,-2.140500098E-1,8.413052956E0
3.193033918E0,-1.605000019E0,8.263050079E0,-1.759500057E-1,8.419321830E0
3.194995478E0,-1.605000019E0,8.377950668E0,-1.369500011E-1,8.531403036E0
3.196957074E0,-1.567050099E0,8.340000153E0,-6.105000153E-2,8.486163778E0
3.198918795E0,-1.642950058E0,8.455050468E0,-6.105000153E-2,8.613413401E0
3.200880470E0,-1.605000019E0,8.532000542E0,5.295000225E-2,8.681812138E0
3.202841941E0,-1.567050099E0,8.569950104E0,-2.205000073E-2,8.712070764E0
3.204803472E0,-1.567050099E0,8.685000420E0,9.195000678E-2,8.825719977E0
3.206765011E0,-1.605000019E0,8.761950493E0,5.295000225E-2,8.907895666E0
3.208726547E0,-1.528050065E0,8.800050735E0,9.195000678E-2,8.932204921E0
3.210688134E0,-1.452000022E0,8.877000809E0,1.680000126E-1,8.996536635E0
3.212649672E0,-1.413000107E0,8.991000175E0,1.680000126E-1,9.102904891E0
3.214610896E0,-1.413000107E0,9.030000687E0,3.600000143E-1,9.146971177E0
3.216572212E0,-1.413000107E0,9.106050491E0,2.830500007E-1,9.219373198E0
3.218533022E0,-1.375050068E0,9.145050049E0,3.220500052E-1,9.253454452E0
3.220493981E0,-1.336950064E0,9.220950127E0,3.220500052E-1,9.322932635E0
3.222455448E0,-1.260000110E0,9.298050880E0,3.220500052E-1,9.388560415E0
3.224416759E0,-1.144950032E0,9.375000000E0,5.130000114E-1,9.458578360E0
3.226378022E0,-1.030050039E0,9.412950516E0,7.429500222E-1,9.498242744E0
3.228339299E0,-9.919500351E-1,9.412950516E0,7.429500222E-1,9.494186485E0
3.230300701E0,-9.529500604E-1,9.451050758E0,8.200500607E-1,9.534304188E0
3.232262066E0,-8.380500674E-1,9.490050316E0,8.580000401E-1,9.565539555E0
3.234223765E0,-7.999500632E-1,9.565950394E0,8.959500194E-1,9.641060807E0
3.236185369E0,-7.620000243E-1,9.565950394E0,9.349500537E-1,9.641689819E0
3.238146897E0,-6.850500107E-1,9.604950905E0,1.011000037E0,9.682277443E0
3.240108448E0,-6.469500065E-1,9.604950905E0,1.011000037E0,9.679656361E0
3.242070164E0,-5.700000525E-1,9.604950905E0,1.126049995E0,9.687516221E0
3.244031831E0,-5.320500135E-1,9.604950905E0,1.087950110E0,9.681001732E0
3.245993340E0,-4.549500346E-1,9.681000710E0,1.203000069E0,9.766061818E0
3.247954901E0,-3.400500119E-1,9.643050194E0,1.203000069E0,9.723747231E0
3.249916255E0,-3.019500077E-1,9.720000267E0,1.240950108E0,9.803547122E0
3.251877670E0,-3.019500077E-1,9.681000710E0,1.356000066E0,9.780167929E0
3.253839229E0,-2.629500031E-1,9.720000267E0,1.432950020E0,9.828575362E0
3.255800745E0,-2.250000089E-1,9.757950783E0,1.432950020E0,9.865169752E0
3.257762112E0,-1.480500102E-1,9.720000267E0,1.432950020E0,9.826172691E0
3.259723520E0,-1.870500147E-1,9.720000267E0,1.432950020E0,9.826837673E0
3.261684944E0,-1.099500060E-1,9.681000710E0,1.432950020E0,9.787094027E0
3.263646364E0,-1.099500060E-1,9.757950783E0,1.471050024E0,9.868823671E0
3.265607699E0,-7.200000435E-2,9.720000267E0,1.471050024E0,9.830949973E0
3.267569059E0,-1.099500060E-1,9.757950783E0,1.510050058E0,9.874712333E0
3.269530521E0,-7.200000435E-2,9.757950783E0,1.510050058E0,9.874362696E0
3.271491932E0,4.050000105E-3,9.757950783E0,1.510050058E0,9.874101025E0
3.273453268E0,4.050000105E-3,9.796050072E0,1.471050024E0,9.905887218E0
3.275414626E0,4.050000105E-3,9.796050072E0,1.471050024E0,9.905887218E0
3.277376059E0,4.050000105E-3,9.873000145E0,1.432950020E0,9.976446964E0
3.279337470E0,4.200000316E-2,9.873000145E0,1.471050024E0,9.982078142E0
3.281298985E0,4.050000105E-3,9.910950661E0,1.471050024E0,1.001952831E1
3.283260470E0,4.050000105E-3,9.910950661E0,1.471050024E0,1.001952831E1
3.285221659E0,-3.299999982E-2,9.910950661E0,1.318050027E0,9.998264243E0
3.287182934E0,-3.299999982E-2,9.988050461E0,1.395000100E0,1.008505163E1
3.289144336E0,4.050000105E-3,9.988050461E0,1.432950020E0,1.009031784E1
3.291105701E0,-7.200000435E-2,9.988050461E0,1.395000100E0,1.008525465E1
3.293066901E0,4.050000105E-3,1.010295010E1,1.279950023E0,1.018370704E1
3.295028156E0,8.100000024E-2,1.014105034E1,1.279950023E0,1.022182640E1
