"Time (s)","Acceleration x (m/s^2)","Acceleration y (m/s^2)","Acceleration z (m/s^2)","Absolute acceleration (m/s^2)"
3.218686400E-2,6.550500393E-1,8.377950668E0,-1.759500057E-1,8.405361763E0
3.414611500E-2,6.550500393E-1,8.340000153E0,-1.369500011E-1,8.366806344E0
3.610809500E-2,6.940500140E-1,8.263050079E0,-1.759500057E-1,8.294013530E0
3.806847600E-2,6.940500140E-1,8.187000275E0,-1.759500057E-1,8.218250259E0
4.002932600E-2,6.550500393E-1,8.148000717E0,-1.369500011E-1,8.175436474E0
4.199042000E-2,6.169500351E-1,8.187000275E0,-1.369500011E-1,8.211355317E0
4.395145700E-2,6.169500351E-1,8.110050201E0,-2.910000086E-1,8.138686787E0
4.591236200E-2,6.169500351E-1,8.148000717E0,-2.140500098E-1,8.174127503E0
4.787330600E-2,6.169500351E-1,8.224950790E0,-1.369500011E-1,8.249193788E0
4.983327900E-2,5.790000558E-1,8.187000275E0,-6.105000153E-2,8.207675777E0
5.179353600E-2,5.020500422E-1,8.263050079E0,-9.900000691E-2,8.278879867E0
5.375458300E-2,4.639500082E-1,8.148000717E0,-3.670500219E-1,8.169448636E0
5.571539100E-2,3.490500152E-1,7.650000572E0,-1.594050050E0,7.822105869E0
5.767655900E-2,8.089500666E-1,7.995000362E0,-6.739500165E-1,8.064033707E0
5.963762100E-2,6.550500393E-1,7.957050323E0,1.680000126E-1,7.985735058E0
6.159780100E-2,4.639500082E-1,8.187000275E0,2.830500007E-1,8.205019221E0
6.355823900E-2,3.490500152E-1,8.493000031E0,1.680000126E-1,8.501829770E0
6.551919800E-2,2.719500065E-1,8.608050346E0,5.295000225E-2,8.612507839E0
6.748000500E-2,1.570500135E-1,8.608050346E0,-2.520000041E-1,8.613170118E0
6.944094800E-2,2.340000123E-1,8.722949982E0,-4.440000355E-1,8.737376518E0
7.140185100E-2,2.719500065E-1,8.761950493E0,-4.440000355E-1,8.777406751E0
7.336277800E-2,1.960500032E-1,8.838000298E0,-4.819500148E-1,8.853302247E0
7.532369700E-2,1.570500135E-1,8.838000298E0,-6.739500165E-1,8.865050625E0
7.728466600E-2,8.100000024E-2,8.953050613E0,-8.269500136E-1,8.991525044E0
7.924562000E-2,1.570500135E-1,8.991000175E0,-6.360000372E-1,9.014834713E0
8.120667300E-2,1.189500093E-1,9.106050491E0,-4.819500148E-1,9.119571288E0
8.316769700E-2,1.189500093E-1,9.106050491E0,-5.209500194E-1,9.121715495E0
8.512900900E-2,4.200000316E-2,9.106050491E0,-5.970000029E-1,9.125696059E0
8.709023600E-2,4.200000316E-2,9.106050491E0,-7.510500550E-1,9.137067130E0
8.905122900E-2,-1.099500060E-1,9.106050491E0,-7.890000343E-1,9.140829591E0
9.101230100E-2,-1.870500147E-1,9.030000687E0,-8.659500480E-1,9.073354925E0
9.297360300E-2,-2.250000089E-1,8.991000175E0,-7.510500550E-1,9.025119686E0
9.493483700E-2,-2.250000089E-1,8.914950371E0,-9.040500522E-1,8.963496618E0
9.689584300E-2,-2.250000089E-1,8.914950371E0,-7.890000343E-1,8.952624541E0
9.885691600E-2,-3.400500119E-1,8.877000809E0,-7.510500550E-1,8.915203506E0
1.008179930E-1,-3.400500119E-1,8.800050735E0,-7.120500207E-1,8.835357502E0
1.027790680E-1,-4.549500346E-1,8.761950493E0,-7.120500207E-1,8.802600252E0
1.047398310E-1,-4.930500090E-1,8.722949982E0,-7.510500550E-1,8.769095214E0
1.067006850E-1,-5.700000525E-1,8.685000420E0,-7.120500207E-1,8.732762884E0
1.086616190E-1,-6.079500318E-1,8.647050858E0,-7.120500207E-1,8.697592023E0
1.106225300E-1,-7.230000496E-1,8.569950104E0,-7.510500550E-1,8.633125161E0
1.125835800E-1,-7.620000243E-1,8.569950104E0,-7.510500550E-1,8.636478739E0
1.145445960E-1,-7.999500632E-1,8.569950104E0,-8.269500136E-1,8.646838220E0
1.165055050E-1,-8.770500422E-1,8.532000542E0,-8.659500480E-1,8.620563758E0
1.184664450E-1,-9.150000215E-1,8.455050468E0,-9.420000315E-1,8.556428433E0
1.204274090E-1,-9.919500351E-1,8.455050468E0,-9.810000658E-1,8.569375965E0
1.223883660E-1,-1.068000078E0,8.455050468E0,-9.420000315E-1,8.574139412E0
1.243493030E-1,-1.106999993E0,8.416950226E0,-9.420000315E-1,8.541537575E0
1.263102330E-1,-1.144950032E0,8.377950668E0,-9.810000658E-1,8.512539522E0
1.282711550E-1,-1.144950032E0,8.340000153E0,-1.018950105E0,8.479668180E0
1.302320790E-1,-1.222050071E0,8.302050591E0,-1.057050109E0,8.457825094E0
1.321933620E-1,-1.222050071E0,8.263050079E0,-1.018950105E0,8.414847729E0
1.341545390E-1,-1.260000110E0,8.187000275E0,-1.057050109E0,8.350564574E0
1.361156330E-1,-1.336950064E0,8.187000275E0,-1.018950105E0,8.357790874E0
1.380767280E-1,-1.336950064E0,8.110050201E0,-1.057050109E0,8.287201257E0
1.400378020E-1,-1.336950064E0,8.071949959E0,-1.018950105E0,8.245124070E0
1.419988820E-1,-1.336950064E0,8.032950401E0,-1.018950105E0,8.206947480E0
1.439599580E-1,-1.260000110E0,8.032950401E0,-1.057050109E0,8.199588243E0
1.459210360E-1,-1.336950064E0,7.957050323E0,-1.057050109E0,8.137532811E0
1.478820720E-1,-1.336950064E0,7.918050289E0,-1.018950105E0,8.094517600E0
1.498431170E-1,-1.297950029E0,7.879950523E0,-1.096050024E0,8.060993747E0
1.518041980E-1,-1.336950064E0,7.879950523E0,-1.096050024E0,8.067365207E0
1.537652690E-1,-1.336950064E0,7.879950523E0,-1.096050024E0,8.067365207E0
1.557262130E-1,-1.297950029E0,7.842000484E0,-1.096050024E0,8.023900020E0
1.576871940E-1,-1.336950064E0,7.765050411E0,-1.134000063E0,7.960489904E0
1.596483010E-1,-1.260000110E0,7.842000484E0,-1.134000063E0,8.023124579E0
1.616093610E-1,-1.260000110E0,7.803000450E0,-1.134000063E0,7.985009233E0
1.635705760E-1,-1.222050071E0,7.879950523E0,-1.210950017E0,8.065570443E0
1.655317450E-1,-1.222050071E0,7.879950523E0,-1.249050021E0,8.071378605E0
1.674928070E-1,-1.260000110E0,7.879950523E0,-1.171950102E0,8.065648614E0
1.694539010E-1,-1.222050071E0,7.957050323E0,-1.249050021E0,8.146666937E0
1.714148250E-1,-1.222050071E0,7.957050323E0,-1.287000060E0,8.152571703E0
1.733758090E-1,-1.222050071E0,8.032950401E0,-1.326000094E0,8.232859453E0
1.753368560E-1,-1.144950032E0,8.032950401E0,-1.402050018E0,8.234375931E0
1.772978840E-1,-1.183050036E0,8.032950401E0,-1.402050018E0,8.239759935E0
1.792591500E-1,-1.260000110E0,8.148000717E0,-1.441050053E0,8.369835197E0
1.812203460E-1,-1.260000110E0,8.110050201E0,-1.441050053E0,8.332895043E0
1.831810480E-1,-1.260000110E0,8.110050201E0,-1.516950130E0,8.346355627E0
1.851418910E-1,-1.297950029E0,8.187000275E0,-1.516950130E0,8.426908417E0
1.871028270E-1,-1.297950029E0,8.187000275E0,-1.594050050E0,8.441128084E0
1.890637360E-1,-1.336950064E0,8.263050079E0,-1.708950043E0,8.543181043E0
1.910247070E-1,-1.260000110E0,8.187000275E0,-1.786050081E0,8.473756467E0
1.929856590E-1,-1.375050068E0,8.187000275E0,-1.747050047E0,8.483508711E0
1.949465780E-1,-1.375050068E0,8.187000275E0,-1.786050081E0,8.491625938E0
1.969075070E-1,-1.375050068E0,8.148000717E0,-1.786050081E0,8.454031776E0
1.988685630E-1,-1.452000022E0,8.187000275E0,-1.786050081E0,8.504425463E0
2.008295820E-1,-1.413000107E0,8.187000275E0,-1.861950040E0,8.514129477E0
2.027905350E-1,-1.489950061E0,8.187000275E0,-1.786050081E0,8.510986992E0
2.047515070E-1,-1.489950061E0,8.148000717E0,-1.861950040E0,8.489801224E0
2.067124000E-1,-1.528050065E0,8.148000717E0,-1.900950074E0,8.505202165E0
2.086733000E-1,-1.567050099E0,8.187000275E0,-1.939050078E0,8.558185247E0
2.106344060E-1,-1.567050099E0,8.187000275E0,-2.014950037E0,8.575700739E0
2.125954520E-1,-1.681950092E0,8.187000275E0,-2.014950037E0,8.597438762E0
2.145562200E-1,-1.681950092E0,8.224950790E0,-2.092050076E0,8.651904134E0
2.165170690E-1,-1.720050097E0,8.263050079E0,-2.092050076E0,8.695587529E0
2.184779630E-1,-1.758000135E0,8.340000153E0,-2.130000114E0,8.785389434E0
2.204388410E-1,-1.873050094E0,8.416950226E0,-2.206950188E0,8.900786307E0
2.223995920E-1,-1.911000133E0,8.532000542E0,-2.169000149E0,9.008413645E0
2.243603810E-1,-1.911000133E0,8.569950104E0,-2.206950188E0,9.053540491E0
2.263213260E-1,-1.950000048E0,8.608050346E0,-2.245050192E0,9.107210403E0
2.282822250E-1,-2.026050091E0,8.722949982E0,-2.322000027E0,9.251292854E0
2.302432120E-1,-2.026050091E0,8.800050735E0,-2.322000027E0,9.324025742E0
2.322041630E-1,-2.140950203E0,8.838000298E0,-2.322000027E0,9.385392968E0
2.341652620E-1,-2.103000164E0,8.914950371E0,-2.359950066E0,9.458769165E0
2.361263170E-1,-2.140950203E0,8.953050613E0,-2.322000027E0,9.493812047E0
2.380872180E-1,-2.179949999E0,8.991000175E0,-2.284050226E0,9.529278650E0
2.400481650E-1,-2.218050003E0,8.991000175E0,-2.245050192E0,9.528802671E0
2.420090840E-1,-2.179949999E0,9.067950249E0,-2.169000149E0,9.575200539E0
2.439700110E-1,-2.218050003E0,9.106050491E0,-2.206950188E0,9.628630770E0
2.459309340E-1,-2.179949999E0,9.145050049E0,-2.130000114E0,9.639555118E0
2.478918580E-1,-2.179949999E0,9.183000565E0,-2.130000114E0,9.675566229E0
2.498526000E-1,-2.179949999E0,9.183000565E0,-2.092050076E0,9.667282704E0
2.518133960E-1,-2.103000164E0,9.183000565E0,-2.092050076E0,9.650221893E0
2.537746210E-1,-2.103000164E0,9.220950127E0,-2.053950071E0,9.678183808E0
2.557357450E-1,-2.026050091E0,9.220950127E0,-1.977000117E0,9.645689694E0
2.576969940E-1,-2.026050091E0,9.183000565E0,-1.900950074E0,9.594060117E0
2.596582060E-1,-1.987950087E0,9.220950127E0,-1.861950040E0,9.614817977E0
2.616196200E-1,-1.950000048E0,9.220950127E0,-1.747050047E0,9.585437147E0
2.635809750E-1,-1.950000048E0,9.220950127E0,-1.671000123E0,9.571868304E0
2.655420500E-1,-1.911000133E0,9.298050880E0,-1.479000092E0,9.606930465E0
2.675032080E-1,-1.987950087E0,9.412950516E0,-1.363950014E0,9.716786640E0
2.694638660E-1,-1.911000133E0,9.490050316E0,-1.171950102E0,9.751227797E0
2.714246700E-1,-1.911000133E0,9.528000832E0,-1.096050024E0,9.779368436E0
2.733854770E-1,-1.950000048E0,9.643050194E0,-1.134000063E0,9.903376867E0
2.753462830E-1,-1.950000048E0,9.720000267E0,-1.171950102E0,9.982703663E0
2.773075660E-1,-1.987950087E0,9.796050072E0,-1.249050021E0,1.007346358E1
2.792686920E-1,-2.026050091E0,9.910950661E0,-1.249050021E0,1.019273996E1
2.812297620E-1,-2.026050091E0,9.988050461E0,-1.287000060E0,1.027240966E1
2.831908480E-1,-2.026050091E0,1.010295010E1,-1.287000060E0,1.038416336E1
2.851517880E-1,-2.026050091E0,1.018005085E1,-1.287000060E0,1.045919134E1
2.871127710E-1,-2.026050091E0,1.021800041E1,-1.249050021E0,1.049154599E1
2.890738580E-1,-1.987950087E0,1.029495049E1,-1.249050021E0,1.055926498E1
2.910349180E-1,-1.987950087E0,1.029495049E1,-1.210950017E0,1.055482596E1
2.929961780E-1,-2.026050091E0,1.033305073E1,-1.171950102E0,1.059482342E1
2.949573790E-1,-2.026050091E0,1.044795036E1,-1.134000063E0,1.070282682E1
2.969182550E-1,-2.026050091E0,1.044795036E1,-1.134000063E0,1.070282682E1
2.988792270E-1,-2.026050091E0,1.044795036E1,-1.096050024E0,1.069887244E1
3.008401660E-1,-2.065050125E0,1.056300068E1,-1.171950102E0,1.082658221E1
3.028010980E-1,-2.103000164E0,1.060095024E1,-1.171950102E0,1.087088877E1
3.047625140E-1,-2.140950203E0,1.063995075E1,-1.171950102E0,1.091630372E1
3.067237880E-1,-2.140950203E0,1.067805004E1,-1.249050021E0,1.096195906E1
3.086848320E-1,-2.179949999E0,1.067805004E1,-1.249050021E0,1.096964268E1
3.106459440E-1,-2.256000042E0,1.071600056E1,-1.363950014E0,1.103551375E1
3.126068660E-1,-2.179949999E0,1.071600056E1,-1.516950130E0,1.104019871E1
3.145678530E-1,-2.218050003E0,1.063995075E1,-1.555950046E0,1.097949354E1
3.165289440E-1,-2.179949999E0,1.063995075E1,-1.671000123E0,1.098876587E1
3.184900050E-1,-2.218050003E0,1.060095024E1,-1.671000123E0,1.095865563E1
3.204510840E-1,-2.218050003E0,1.048605061E1,-1.708950043E0,1.085345629E1
3.224121580E-1,-2.179949999E0,1.041000080E1,-1.786050081E0,1.078472408E1
3.243732160E-1,-2.179949999E0,1.025595093E1,-1.900950074E0,1.065599937E1
3.263342920E-1,-2.140950203E0,1.018005085E1,-1.977000117E0,1.058893916E1
3.282955500E-1,-2.103000164E0,1.010295010E1,-1.900950074E0,1.049313211E1
3.302567540E-1,-2.026050091E0,9.988050461E0,-1.977000117E0,1.038145271E1
3.322178100E-1,-2.026050091E0,9.873000145E0,-1.977000117E0,1.027081011E1
3.341789100E-1,-1.911000133E0,9.796050072E0,-1.861950040E0,1.015289990E1
3.361401320E-1,-1.911000133E0,9.681000710E0,-1.824000120E0,1.003497248E1
3.381013070E-1,-1.873050094E0,9.643050194E0,-1.632000089E0,9.957919360E0
3.400622330E-1,-1.834950089E0,9.604950905E0,-1.516950130E0,9.895618294E0
3.420232320E-1,-1.873050094E0,9.565950394E0,-1.441050053E0,9.853544989E0
3.439841420E-1,-1.873050094E0,9.565950394E0,-1.287000060E0,9.832196740E0
3.459450790E-1,-1.795950055E0,9.565950394E0,-1.171950102E0,9.803382609E0
3.479059900E-1,-1.795950055E0,9.490050316E0,-1.057050109E0,9.716164188E0
3.498669150E-1,-1.795950055E0,9.604950905E0,-9.810000658E-1,9.820533571E0
3.518281520E-1,-1.834950089E0,9.681000710E0,-8.659500480E-1,9.891343996E0
3.537892970E-1,-1.795950055E0,9.720000267E0,-8.269500136E-1,9.919056816E0
3.557500480E-1,-1.758000135E0,9.796050072E0,-8.269500136E-1,9.986841733E0
3.577109150E-1,-1.873050094E0,9.910950661E0,-7.510500550E-1,1.011431341E1
3.596723770E-1,-1.834950089E0,1.002600002E1,-7.510500550E-1,1.022016607E1
3.616336400E-1,-1.758000135E0,1.006500053E1,-7.890000343E-1,1.024779592E1
3.635946860E-1,-1.795950055E0,1.014105034E1,-8.269500136E-1,1.033199811E1
3.655557960E-1,-1.758000135E0,1.025595093E1,-7.890000343E-1,1.043540200E1
3.675169110E-1,-1.720050097E0,1.037100029E1,-8.269500136E-1,1.054514418E1
3.694780250E-1,-1.720050097E0,1.048605061E1,-9.420000315E-1,1.066785797E1
3.714390320E-1,-1.642950058E0,1.056300068E1,-9.420000315E-1,1.073143198E1
3.734000840E-1,-1.605000019E0,1.060095024E1,-9.810000658E-1,1.076654690E1
3.753611640E-1,-1.489950061E0,1.063995075E1,-9.420000315E-1,1.078498341E1
3.773222360E-1,-1.452000022E0,1.071600056E1,-9.040500522E-1,1.085164865E1
3.792833580E-1,-1.413000107E0,1.075500011E1,-8.659500480E-1,1.088193302E1
3.812444660E-1,-1.336950064E0,1.079295063E1,-7.120500207E-1,1.089872626E1
3.832056970E-1,-1.297950029E0,1.079295063E1,-5.590500236E-1,1.088508128E1
3.851668750E-1,-1.144950032E0,1.079295063E1,-5.209500194E-1,1.086600583E1
3.871279810E-1,-1.106999993E0,1.075500011E1,-4.440000355E-1,1.082093399E1
3.890891080E-1,-1.030050039E0,1.075500011E1,-2.520000041E-1,1.080715201E1
3.910503100E-1,-9.529500604E-1,1.079295063E1,-2.140500098E-1,1.083705285E1
3.930114900E-1,-9.529500604E-1,1.075500011E1,-2.140500098E-1,1.079925732E1
3.949724060E-1,-8.770500422E-1,1.079295063E1,-1.369500011E-1,1.082939312E1
3.969334060E-1,-7.620000243E-1,1.079295063E1,-1.369500011E-1,1.082068310E1
3.988944500E-1,-7.230000496E-1,1.079295063E1,-1.759500057E-1,1.081857064E1
4.008554810E-1,-7.999500632E-1,1.075500011E1,-2.140500098E-1,1.078683294E1
4.028163870E-1,-6.850500107E-1,1.075500011E1,-1.369500011E-1,1.077766562E1
4.047773300E-1,-6.850500107E-1,1.079295063E1,-2.140500098E-1,1.081678761E1
4.067384390E-1,-6.850500107E-1,1.079295063E1,-2.910000086E-1,1.081858391E1
4.086995240E-1,-6.079500318E-1,1.083105087E1,-2.520000041E-1,1.085102623E1
4.106607800E-1,-6.079500318E-1,1.087005043E1,-2.910000086E-1,1.089092653E1
4.126219860E-1,-6.079500318E-1,1.087005043E1,-3.289500177E-1,1.089200660E1
4.145829970E-1,-5.700000525E-1,1.087005043E1,-2.910000086E-1,1.088887402E1
4.165440650E-1,-5.700000525E-1,1.087005043E1,-3.670500219E-1,1.089117175E1
4.185047690E-1,-5.320500135E-1,1.094595051E1,-2.910000086E-1,1.096273646E1
4.204655890E-1,-4.549500346E-1,1.094595051E1,-2.520000041E-1,1.095829896E1
4.224265290E-1,-4.170000255E-1,1.098495007E1,-1.759500057E-1,1.099427012E1
4.243874330E-1,-3.400500119E-1,1.098495007E1,-1.759500057E-1,1.099162046E1
4.263482260E-1,-3.780000210E-1,1.102305031E1,-9.900000691E-2,1.102997385E1
4.283090510E-1,-3.019500077E-1,1.106100082E1,-2.205000073E-2,1.106514344E1
4.302699450E-1,-3.400500119E-1,1.110000038E1,1.500000060E-2,1.110521803E1
4.322308180E-1,-2.629500031E-1,1.110000038E1,2.070000172E-1,1.110504391E1
4.341910300E-1,-2.629500031E-1,1.113795090E1,3.600000143E-1,1.114686920E1
4.361514350E-1,-2.250000089E-1,1.117605019E1,5.899500251E-1,1.119387171E1
4.381124910E-1,-1.870500147E-1,1.125300026E1,5.509500504E-1,1.126803215E1
4.400733570E-1,-1.480500102E-1,1.129095078E1,7.050000429E-1,1.131390796E1
4.420344630E-1,-1.099500060E-1,1.136805058E1,8.580000401E-1,1.140091343E1
4.439954710E-1,-1.099500060E-1,1.140600014E1,9.349500537E-1,1.144478308E1
4.459567400E-1,-3.299999982E-2,1.148295021E1,9.349500537E-1,1.152099675E1
4.479179330E-1,8.100000024E-2,1.159800053E1,1.087950110E0,1.164919794E1
4.498791710E-1,4.200000316E-2,1.159800053E1,1.126049995E0,1.165261210E1
4.518403950E-1,2.340000123E-1,1.163595009E1,1.165050030E0,1.169647092E1
4.538016460E-1,3.490500152E-1,1.171305084E1,1.165050030E0,1.177602384E1
4.557628750E-1,3.870000243E-1,1.175100040E1,1.203000069E0,1.181875580E1
4.577250520E-1,5.410500169E-1,1.175100040E1,1.279950023E0,1.183287867E1
4.596869520E-1,6.550500393E-1,1.178895092E1,1.356000066E0,1.188474613E1
4.616482490E-1,8.089500666E-1,1.178895092E1,1.395000100E0,1.189873057E1
4.636097230E-1,8.850000501E-1,1.182795048E1,1.471050024E0,1.195188796E1
4.655708840E-1,1.000050068E0,1.178895092E1,1.471050024E0,1.192239289E1
4.675321570E-1,1.077000022E0,1.175100040E1,1.471050024E0,1.189159063E1
4.694930200E-1,1.153950095E0,1.171305084E1,1.510050058E0,1.186622990E1
4.714540030E-1,1.230000019E0,1.167405033E1,1.548000097E0,1.184029795E1
4.734148710E-1,1.306950092E0,1.163595009E1,1.585950017E0,1.181603531E1
4.753757720E-1,1.306950092E0,1.152105045E1,1.624950051E0,1.170825285E1
4.773369270E-1,1.306950092E0,1.132905006E1,1.663050056E0,1.152480930E1
4.792980050E-1,1.345050097E0,1.125300026E1,1.777950048E0,1.147171657E1
4.812590380E-1,1.345050097E0,1.110000038E1,1.777950048E0,1.132167278E1
4.832200840E-1,1.422000051E0,1.094595051E1,1.855050087E0,1.119272654E1
4.851810310E-1,1.459950089E0,1.079295063E1,1.816050053E0,1.104161561E1
4.871420070E-1,1.345050097E0,1.067805004E1,1.701000094E0,1.089602284E1
4.891027260E-1,1.345050097E0,1.041000080E1,1.663050056E0,1.062746498E1
4.910635310E-1,1.345050097E0,1.018005085E1,1.663050056E0,1.040232332E1
4.930242490E-1,1.345050097E0,1.002600002E1,1.624950051E0,1.024550140E1
4.949849930E-1,1.306950092E0,9.796050072E0,1.585950017E0,1.000929333E1
4.969458100E-1,1.306950092E0,9.643050194E0,1.548000097E0,9.853569906E0
4.989066060E-1,1.269000053E0,9.451050758E0,1.510050058E0,9.654686569E0
5.008677000E-1,1.269000053E0,9.259950638E0,1.471050024E0,9.461555640E0
5.028286970E-1,1.269000053E0,9.067950249E0,1.471050024E0,9.273730157E0
5.047894740E-1,1.269000053E0,8.914950371E0,1.471050024E0,9.124181575E0
5.067503150E-1,1.230000019E0,8.722949982E0,1.395000100E0,8.919012373E0
5.087114310E-1,1.230000019E0,8.569950104E0,1.240950108E0,8.746250739E0
5.106724670E-1,1.230000019E0,8.416950226E0,1.203000069E0,8.590992976E0
5.126333920E-1,1.230000019E0,8.263050079E0,1.165050030E0,8.434941507E0
5.145943350E-1,1.230000019E0,8.110050201E0,1.126049995E0,8.279722393E0
5.165553890E-1,1.192050099E0,7.995000362E0,1.050000072E0,8.151289124E0
5.185164100E-1,1.192050099E0,7.957050323E0,8.959500194E-1,8.095576553E0
5.204771820E-1,1.192050099E0,7.842000484E0,8.580000401E-1,7.978353158E0
5.224380270E-1,1.153950095E0,7.726950169E0,8.200500607E-1,7.855561204E0
5.243991470E-1,1.077000022E0,7.650000572E0,7.429500222E-1,7.761083206E0
5.263601830E-1,1.000050068E0,7.687950134E0,8.200500607E-1,7.795970723E0
5.283214480E-1,9.240000248E-1,7.650000572E0,8.580000401E-1,7.753221838E0
5.302826450E-1,8.089500666E-1,7.650000572E0,7.810500264E-1,7.732202022E0
5.322438370E-1,8.470500112E-1,7.687950134E0,8.200500607E-1,7.777824445E0
5.342050310E-1,7.320000529E-1,7.765050411E0,8.200500607E-1,7.842468621E0
5.361655570E-1,6.169500351E-1,7.842000484E0,8.959500194E-1,7.917090714E0
5.381262720E-1,5.410500169E-1,7.957050323E0,9.730500579E-1,8.034563547E0
5.400870490E-1,5.020500422E-1,8.071949959E0,1.050000072E0,8.155423382E0
5.420478080E-1,3.870000243E-1,8.110050201E0,1.126049995E0,8.196991636E0
5.440087600E-1,3.490500152E-1,8.263050079E0,1.087950110E0,8.341670574E0
5.459696550E-1,2.340000123E-1,8.377950668E0,1.165050030E0,8.461805657E0
5.479306130E-1,1.960500032E-1,8.493000031E0,1.240950108E0,8.585420333E0
5.498915630E-1,1.189500093E-1,8.647050858E0,1.279950023E0,8.742076967E0
5.518524370E-1,4.200000316E-2,8.761950493E0,1.279950023E0,8.855044466E0
5.538133340E-1,4.050000105E-3,8.953050613E0,1.318050027E0,9.049551788E0
5.557743050E-1,-1.099500060E-1,8.991000175E0,1.356000066E0,9.093344233E0
5.577352550E-1,-1.870500147E-1,9.145050049E0,1.395000100E0,9.252726808E0
5.596964020E-1,-3.400500119E-1,9.220950127E0,1.356000066E0,9.326322503E0
5.616574570E-1,-4.170000255E-1,9.375000000E0,1.432950020E0,9.493042704E0
5.636183130E-1,-6.079500318E-1,9.412950516E0,1.432950020E0,9.540785419E0
5.655792280E-1,-7.999500632E-1,9.528000832E0,1.432950020E0,9.668302111E0
5.675401510E-1,-7.999500632E-1,9.757950783E0,1.471050024E0,9.900581385E0
5.695010720E-1,-7.230000496E-1,9.835050583E0,1.356000066E0,9.954380203E0
5.714618520E-1,-7.620000243E-1,9.910950661E0,1.356000066E0,1.003226411E1
5.734226800E-1,-6.850500107E-1,9.910950661E0,1.356000066E0,1.002671296E1
5.753836180E-1,-7.620000243E-1,9.949950218E0,1.395000100E0,1.007611923E1
5.773445240E-1,-7.230000496E-1,9.988050461E0,1.356000066E0,1.010557357E1
5.793054060E-1,-7.620000243E-1,1.002600002E1,1.395000100E0,1.015122386E1
5.812662950E-1,-7.999500632E-1,1.006500053E1,1.356000066E0,1.018738887E1
5.832274190E-1,-7.620000243E-1,1.006500053E1,1.395000100E0,1.018974509E1
5.851884950E-1,-7.620000243E-1,1.014105034E1,1.395000100E0,1.026487074E1
5.871495280E-1,-7.230000496E-1,1.018005085E1,1.395000100E0,1.030059171E1
5.891105740E-1,-6.079500318E-1,1.014105034E1,1.471050024E0,1.026520791E1
5.910713400E-1,-4.549500346E-1,1.018005085E1,1.471050024E0,1.029584397E1
5.930321890E-1,-4.170000255E-1,1.010295010E1,1.471050024E0,1.021799774E1
5.949929480E-1,-2.629500031E-1,1.010295010E1,1.471050024E0,1.021287088E1
5.969536990E-1,-1.099500060E-1,1.002600002E1,1.432950020E0,1.012848020E1
5.989144700E-1,-3.299999982E-2,9.988050461E0,1.395000100E0,1.008505163E1
6.008752350E-1,4.200000316E-2,9.949950218E0,1.395000100E0,1.004735282E1
6.028360500E-1,1.570500135E-1,9.949950218E0,1.279950023E0,1.003316730E1
6.047968510E-1,1.960500032E-1,9.873000145E0,1.356000066E0,9.967612735E0
6.067578140E-1,2.719500065E-1,9.835050583E0,1.279950023E0,9.921716023E0
6.087187160E-1,3.490500152E-1,9.796050072E0,1.203000069E0,9.875810958E0
6.106798230E-1,4.260000288E-1,9.796050072E0,1.165050030E0,9.874280460E0
6.126408700E-1,5.020500422E-1,9.757950783E0,1.240950108E0,9.849345912E0
6.146017730E-1,5.790000558E-1,9.681000710E0,1.203000069E0,9.772626309E0
6.165627180E-1,5.410500169E-1,9.643050194E0,1.165050030E0,9.728231789E0
6.185241770E-1,6.550500393E-1,9.643050194E0,1.279950023E0,9.749655361E0
6.204854850E-1,7.699500322E-1,9.565950394E0,1.279950023E0,9.681864596E0
6.224463430E-1,9.240000248E-1,9.528000832E0,1.087950110E0,9.634324643E0
6.244073330E-1,1.000050068E0,9.412950516E0,1.050000072E0,9.523982240E0
6.263682440E-1,1.114950061E0,9.451050758E0,1.011000037E0,9.570140811E0
6.283291790E-1,1.039050102E0,9.451050758E0,1.126049995E0,9.574443803E0
6.302902340E-1,1.114950061E0,9.336000443E0,1.240950108E0,9.483879748E0
6.322512540E-1,1.192050099E0,9.375000000E0,1.240950108E0,9.531608763E0
6.342122070E-1,1.306950092E0,9.298050880E0,1.240950108E0,9.471104787E0
6.361731790E-1,1.345050097E0,9.220950127E0,1.279950023E0,9.406027486E0
6.381339140E-1,1.459950089E0,9.145050049E0,1.203000069E0,9.338661779E0
6.400947180E-1,1.459950089E0,9.183000565E0,1.203000069E0,9.375828646E0
6.420557910E-1,1.459950089E0,9.183000565E0,1.240950108E0,9.380773465E0
6.440167880E-1,1.498950124E0,9.220950127E0,1.203000069E0,9.419128509E0
6.459775190E-1,1.537050128E0,9.220950127E0,1.165050030E0,9.420498177E0
6.479383280E-1,1.459950089E0,9.220950127E0,1.240950108E0,9.417926134E0
6.498993150E-1,1.422000051E0,9.259950638E0,1.240950108E0,9.450329472E0
6.518602490E-1,1.345050097E0,9.220950127E0,1.240950108E0,9.400799869E0
6.538215200E-1,1.384050012E0,9.183000565E0,1.203000069E0,9.364310064E0
6.557826680E-1,1.384050012E0,9.145050049E0,1.165050030E0,9.322278498E0
6.577433730E-1,1.384050012E0,9.183000565E0,1.240950108E0,9.369260962E0
6.597042080E-1,1.345050097E0,9.145050049E0,1.279950023E0,9.331632881E0
6.616647860E-1,1.422000051E0,9.183000565E0,1.279950023E0,9.380184197E0
6.636254390E-1,1.384050012E0,9.145050049E0,1.279950023E0,9.337334036E0
6.655864260E-1,1.345050097E0,9.145050049E0,1.240950108E0,9.326363564E0
6.675473020E-1,1.306950092E0,9.183000565E0,1.318050027E0,9.368717830E0
6.695084140E-1,1.269000053E0,9.220950127E0,1.279950023E0,9.395453924E0
6.714694560E-1,1.114950061E0,9.183000565E0,1.165050030E0,9.323516213E0
6.734302250E-1,1.039050102E0,9.183000565E0,1.165050030E0,9.314744551E0
6.753910740E-1,6.169500351E-1,9.145050049E0,1.165050030E0,9.239583828E0
6.773513180E-1,2.340000123E-1,9.067950249E0,1.203000069E0,9.150392717E0
6.793117180E-1,4.260000288E-1,9.145050049E0,1.318050027E0,9.249360642E0
6.812734060E-1,7.320000529E-1,9.067950249E0,1.240950108E0,9.181693905E0
6.832347160E-1,8.089500666E-1,9.145050049E0,1.126049995E0,9.249558324E0
6.851947180E-1,6.550500393E-1,9.145050049E0,1.087950110E0,9.232803821E0
6.871551030E-1,5.020500422E-1,9.145050049E0,1.279950023E0,9.247824971E0
6.891160570E-1,3.870000243E-1,9.220950127E0,1.395000100E0,9.333901410E0
6.910768550E-1,2.719500065E-1,9.259950638E0,1.471050024E0,9.380012302E0
6.930378450E-1,1.570500135E-1,9.220950127E0,1.432950020E0,9.332948714E0
6.949987780E-1,8.100000024E-2,9.220950127E0,1.395000100E0,9.326226864E0
6.969595200E-1,-3.299999982E-2,9.145050049E0,1.279950023E0,9.234246123E0
6.989203180E-1,-1.480500102E-1,9.145050049E0,1.165050030E0,9.220151884E0
7.008810840E-1,-1.870500147E-1,9.145050049E0,1.165050030E0,9.220860571E0
7.028418580E-1,-2.629500031E-1,9.106050491E0,1.126049995E0,9.179176807E0
7.048027600E-1,-2.629500031E-1,9.145050049E0,1.126049995E0,9.217866982E0
7.067636250E-1,-3.400500119E-1,9.183000565E0,1.087950110E0,9.253473338E0
7.087243790E-1,-4.930500090E-1,9.220950127E0,1.087950110E0,9.297991987E0
7.106851660E-1,-4.930500090E-1,9.220950127E0,1.087950110E0,9.297991987E0
7.126457920E-1,-5.320500135E-1,9.220950127E0,1.050000072E0,9.295778537E0
7.146064680E-1,-5.700000525E-1,9.259950638E0,1.087950110E0,9.341050333E0
7.165672070E-1,-6.469500065E-1,9.220950127E0,1.126049995E0,9.311952220E0
7.185279280E-1,-6.469500065E-1,9.298050880E0,1.050000072E0,9.379487973E0
7.204888860E-1,-6.469500065E-1,9.259950638E0,9.730500579E-1,9.333383981E0
7.224497740E-1,-7.230000496E-1,9.298050880E0,1.011000037E0,9.380756916E0
7.244105740E-1,-7.230000496E-1,9.259950638E0,1.011000037E0,9.342993951E0
7.263713960E-1,-7.620000243E-1,9.298050880E0,9.730500579E-1,9.379830522E0
7.283323360E-1,-7.999500632E-1,9.298050880E0,8.959500194E-1,9.375307820E0
7.302932410E-1,-7.999500632E-1,9.259950638E0,8.959500194E-1,9.337522817E0
7.322539880E-1,-8.770500422E-1,9.298050880E0,8.580000401E-1,9.378652943E0
7.342147810E-1,-9.150000215E-1,9.259950638E0,7.810500264E-1,9.337770076E0
7.361756890E-1,-8.380500674E-1,9.298050880E0,7.429500222E-1,9.365257755E0
7.381365570E-1,-8.770500422E-1,9.336000443E0,7.810500264E-1,9.409578109E0
7.400975350E-1,-8.770500422E-1,9.336000443E0,6.280500293E-1,9.398115124E0
7.420584800E-1,-8.770500422E-1,9.336000443E0,6.280500293E-1,9.398115124E0
7.440195800E-1,-9.529500604E-1,9.336000443E0,5.509500504E-1,9.400668276E0
7.459806340E-1,-8.770500422E-1,9.298050880E0,5.130000114E-1,9.353402374E0
7.479412920E-1,-8.770500422E-1,9.220950127E0,3.979500234E-1,9.271111165E0
7.499020790E-1,-9.529500604E-1,9.183000565E0,4.360500276E-1,9.242605304E0
7.518628890E-1,-9.529500604E-1,9.183000565E0,3.979500234E-1,9.240886181E0
7.538236920E-1,-9.529500604E-1,9.183000565E0,2.830500007E-1,9.236651476E0
7.557839160E-1,-1.030050039E0,9.259950638E0,2.830500007E-1,9.321362894E0
7.577443100E-1,-1.068000078E0,9.259950638E0,3.600000143E-1,9.328285480E0
7.597058490E-1,-1.030050039E0,9.220950127E0,2.830500007E-1,9.282620407E0
7.616670630E-1,-1.106999993E0,9.145050049E0,2.449500114E-1,9.215063206E0
7.636277120E-1,-1.068000078E0,9.106050491E0,2.070000172E-1,9.170803058E0
7.655885260E-1,-1.068000078E0,8.991000175E0,1.680000126E-1,9.055767904E0
7.675491070E-1,-1.106999993E0,8.953050613E0,1.300500035E-1,9.022165886E0
7.695097570E-1,-1.222050071E0,8.685000420E0,2.449500114E-1,8.773975107E0
7.714709250E-1,-1.413000107E0,8.761950493E0,2.830500007E-1,8.879665706E0
7.734319280E-1,-1.336950064E0,8.800050735E0,5.295000225E-2,8.901187119E0
7.753924780E-1,-1.106999993E0,8.800050735E0,-2.520000041E-1,8.872984049E0
7.773531610E-1,-1.068000078E0,8.838000298E0,-3.670500219E-1,8.909859659E0
7.793139890E-1,-1.144950032E0,8.877000809E0,-2.910000086E-1,8.955262974E0
7.812747740E-1,-1.183050036E0,8.953050613E0,-1.369500011E-1,9.031914414E0
7.832355130E-1,-1.260000110E0,8.914950371E0,1.500000060E-2,9.003564038E0
7.851962860E-1,-1.260000110E0,8.914950371E0,1.500000060E-2,9.003564038E0
7.871570540E-1,-1.297950029E0,8.838000298E0,-6.105000153E-2,8.933009047E0
7.891178240E-1,-1.297950029E0,8.685000420E0,-6.105000153E-2,8.781664630E0
7.910789070E-1,-1.297950029E0,8.608050346E0,-9.900000691E-2,8.705917875E0
7.930398990E-1,-1.260000110E0,8.569950104E0,-1.369500011E-1,8.663163415E0
7.950006450E-1,-1.260000110E0,8.608050346E0,-1.369500011E-1,8.700855495E0
7.969614530E-1,-1.336950064E0,8.722949982E0,-2.140500098E-1,8.827406712E0
7.989223950E-1,-1.375050068E0,8.838000298E0,-2.140500098E-1,8.946889368E0
8.008832980E-1,-1.375050068E0,8.953050613E0,-2.520000041E-1,9.061533092E0
8.028442250E-1,-1.375050068E0,8.991000175E0,-2.520000041E-1,9.099030215E0
8.048051440E-1,-1.336950064E0,8.953050613E0,-1.759500057E-1,9.054032757E0
8.067662290E-1,-1.297950029E0,8.914950371E0,-9.900000691E-2,9.009484746E0
8.087272790E-1,-1.375050068E0,8.877000809E0,-1.759500057E-1,8.984590389E0
8.106882260E-1,-1.297950029E0,8.838000298E0,-9.900000691E-2,8.933349010E0
8.126492040E-1,-1.336950064E0,8.838000298E0,-9.900000691E-2,8.939098709E0
8.146100720E-1,-1.452000022E0,8.722949982E0,-6.105000153E-2,8.843183112E0
8.165709730E-1,-1.642950058E0,8.685000420E0,1.500000060E-2,8.839046452E0
8.185318850E-1,-1.605000019E0,8.953050613E0,-2.205000073E-2,9.095802689E0
8.204928030E-1,-1.260000110E0,8.991000175E0,-2.520000041E-1,9.082355886E0
8.224535930E-1,-1.144950032E0,9.067950249E0,-3.289500177E-1,9.145864661E0
8.244144210E-1,-1.183050036E0,9.067950249E0,-2.140500098E-1,9.147302690E0
8.263748200E-1,-1.336950064E0,8.953050613E0,-2.205000073E-2,9.052349803E0
8.283353440E-1,-1.567050099E0,9.030000687E0,2.830500007E-1,9.169333439E0
8.302970150E-1,-1.413000107E0,9.067950249E0,2.449500114E-1,9.180647664E0
8.322583470E-1,-1.144950032E0,9.106050491E0,-2.205000073E-2,9.177774912E0
8.342190660E-1,-1.106999993E0,9.106050491E0,-1.759500057E-1,9.174778632E0
8.361799640E-1,-1.183050036E0,9.106050491E0,-9.900000691E-2,9.183112977E0
8.381408900E-1,-1.222050071E0,9.106050491E0,1.300500035E-1,9.188605712E0
8.401018080E-1,-1.222050071E0,9.106050491E0,9.195000678E-2,9.188145446E0
8.420625480E-1,-1.222050071E0,9.145050049E0,1.680000126E-1,9.227869244E0
8.440233440E-1,-1.260000110E0,9.183000565E0,1.680000126E-1,9.270562208E0
8.459842430E-1,-1.605000019E0,8.991000175E0,1.300500035E-1,9.134058365E0
8.479451110E-1,-1.605000019E0,9.183000565E0,2.830500007E-1,9.326502117E0
8.499060440E-1,-1.222050071E0,9.145050049E0,1.300500035E-1,9.227256351E0
8.518669570E-1,-9.919500351E-1,9.220950127E0,-2.205000073E-2,9.274177716E0
8.538277320E-1,-1.030050039E0,9.298050880E0,-2.205000073E-2,9.354958015E0
8.557885590E-1,-1.068000078E0,9.259950638E0,9.195000678E-2,9.321789784E0
8.577487330E-1,-1.297950029E0,9.145050049E0,1.680000126E-1,9.238227031E0
8.597090980E-1,-1.413000107E0,9.298050880E0,3.979500234E-1,9.413218562E0
8.616698000E-1,-1.030050039E0,9.298050880E0,3.979500234E-1,9.363392413E0
8.636304040E-1,-9.919500351E-1,9.259950638E0,3.220500052E-1,9.318495957E0
8.655911380E-1,-1.106999993E0,9.412950516E0,3.220500052E-1,9.483290705E0
8.675518470E-1,-9.150000215E-1,9.412950516E0,3.600000143E-1,9.464167288E0
8.695126720E-1,-8.770500422E-1,9.412950516E0,4.360500276E-1,9.463772705E0
8.714734630E-1,-8.380500674E-1,9.490050316E0,4.750500321E-1,9.538818346E0
8.734343640E-1,-7.999500632E-1,9.528000832E0,5.899500251E-1,9.579705684E0
8.753952320E-1,-7.620000243E-1,9.490050316E0,6.280500293E-1,9.541286385E0
8.773558630E-1,-6.469500065E-1,9.565950394E0,6.660000086E-1,9.610905642E0
8.793165540E-1,-6.079500318E-1,9.604950905E0,7.429500222E-1,9.652805803E0
8.812776960E-1,-6.079500318E-1,9.604950905E0,7.429500222E-1,9.652805803E0
8.832387060E-1,-6.079500318E-1,9.565950394E0,7.050000429E-1,9.611141204E0
8.851993900E-1,-4.549500346E-1,9.565950394E0,7.050000429E-1,9.602677310E0
8.871601700E-1,-4.170000255E-1,9.565950394E0,7.050000429E-1,9.600954172E0
8.891207390E-1,-4.170000255E-1,9.565950394E0,7.429500222E-1,9.603815424E0
8.910813830E-1,-3.780000210E-1,9.565950394E0,7.050000429E-1,9.599339353E0
8.930414970E-1,-3.780000210E-1,9.528000832E0,7.050000429E-1,9.561522312E0
8.950017670E-1,-3.780000210E-1,9.451050758E0,6.280500293E-1,9.479435178E0
8.969625760E-1,-3.780000210E-1,9.451050758E0,5.130000114E-1,9.472508298E0
8.989232270E-1,-4.170000255E-1,9.412950516E0,5.509500504E-1,9.438276982E0
9.008836640E-1,-4.170000255E-1,9.375000000E0,4.360500276E-1,9.394394799E0
9.028441910E-1,-4.549500346E-1,9.412950516E0,4.360500276E-1,9.434021230E0
9.048049550E-1,-4.170000255E-1,9.298050880E0,3.600000143E-1,9.314356618E0
9.067656500E-1,-4.549500346E-1,9.375000000E0,4.360500276E-1,9.396155818E0
9.087264320E-1,-4.930500090E-1,9.375000000E0,6.280500293E-1,9.408940969E0
9.106871890E-1,-4.549500346E-1,9.412950516E0,6.660000086E-1,9.447442668E0
9.126481660E-1,-4.930500090E-1,9.336000443E0,6.660000086E-1,9.372702843E0
9.146090920E-1,-4.930500090E-1,9.336000443E0,7.429500222E-1,9.378484809E0
9.165696550E-1,-5.320500135E-1,9.298050880E0,7.050000429E-1,9.339906448E0
9.185303250E-1,-4.549500346E-1,9.298050880E0,7.810500264E-1,9.341882511E0
9.204914260E-1,-4.930500090E-1,9.220950127E0,8.200500607E-1,9.270463939E0
9.224524000E-1,-5.320500135E-1,9.220950127E0,8.200500607E-1,9.272619940E0
9.244131400E-1,-5.700000525E-1,9.183000565E0,8.959500194E-1,9.244194171E0
9.263739450E-1,-5.700000525E-1,9.183000565E0,9.730500579E-1,9.251984968E0
9.283345730E-1,-7.230000496E-1,9.220950127E0,1.087950110E0,9.313017006E0
9.302952530E-1,-7.620000243E-1,9.259950638E0,1.050000072E0,9.350391971E0
9.322559910E-1,-7.999500632E-1,9.298050880E0,1.050000072E0,9.391281618E0
9.342167120E-1,-8.380500674E-1,9.336000443E0,1.050000072E0,9.432164774E0
9.361776750E-1,-8.770500422E-1,9.336000443E0,1.011000037E0,9.431449630E0
9.381385640E-1,-9.150000215E-1,9.490050316E0,1.011000037E0,9.587512770E0
9.400991780E-1,-9.919500351E-1,9.490050316E0,1.011000037E0,9.595162372E0
9.420598730E-1,-9.150000215E-1,9.565950394E0,1.050000072E0,9.666805684E0
9.440206540E-1,-9.529500604E-1,9.604950905E0,1.050000072E0,9.709052263E0
9.459814100E-1,-1.030050039E0,9.720000267E0,1.050000072E0,9.830661647E0
9.479421130E-1,-9.919500351E-1,9.757950783E0,1.087950110E0,9.868394185E0
9.499028490E-1,-1.106999993E0,9.720000267E0,1.050000072E0,9.839022021E0
9.518638030E-1,-1.336950064E0,9.720000267E0,1.126049995E0,9.875921691E0
9.538246930E-1,-1.222050071E0,9.835050583E0,1.087950110E0,9.970218743E0
9.557858020E-1,-9.529500604E-1,9.835050583E0,1.011000037E0,9.932696253E0
9.577468470E-1,-9.529500604E-1,9.910950661E0,9.730500579E-1,1.000409332E1
9.597076240E-1,-8.770500422E-1,1.002600002E1,9.730500579E-1,1.011121752E1
9.616684740E-1,-8.770500422E-1,1.002600002E1,1.011000037E0,1.011494015E1
9.636291840E-1,-9.150000215E-1,1.010295010E1,1.087950110E0,1.020247328E1
9.655899350E-1,-9.150000215E-1,1.010295010E1,1.087950110E0,1.020247328E1
9.675507520E-1,-9.529500604E-1,1.021800041E1,1.165050030E0,1.032826161E1
9.695115490E-1,-8.770500422E-1,1.025595093E1,1.165050030E0,1.035910651E1
9.714722640E-1,-7.999500632E-1,1.033305073E1,1.203000069E0,1.043355484E1
9.734330070E-1,-9.150000215E-1,1.041000080E1,1.126049995E0,1.051062940E1
9.753938250E-1,-8.770500422E-1,1.041000080E1,1.126049995E0,1.050739368E1
9.773546210E-1,-8.380500674E-1,1.048605061E1,1.165050030E0,1.058380493E1
9.793153860E-1,-8.770500422E-1,1.044795036E1,1.203000069E0,1.055348723E1
9.812761610E-1,-9.150000215E-1,1.052505016E1,1.165050030E0,1.062879333E1
9.832368650E-1,-8.380500674E-1,1.056300068E1,1.165050030E0,1.066004938E1
9.851976040E-1,-7.999500632E-1,1.056300068E1,1.050000072E0,1.064515869E1
9.871580630E-1,-7.999500632E-1,1.056300068E1,1.087950110E0,1.064896891E1
9.891186040E-1,-8.380500674E-1,1.056300068E1,1.050000072E0,1.064808957E1
9.910793660E-1,-7.999500632E-1,1.067805004E1,1.050000072E0,1.075932958E1
9.930400630E-1,-7.620000243E-1,1.067805004E1,9.730500579E-1,1.074933594E1
9.950008640E-1,-7.620000243E-1,1.063995075E1,9.349500537E-1,1.070809636E1
9.969616210E-1,-7.230000496E-1,1.067805004E1,8.580000401E-1,1.073683593E1
9.989222580E-1,-6.850500107E-1,1.067805004E1,8.200500607E-1,1.073138054E1
1.000882930E0,-7.230000496E-1,1.075500011E1,7.810500264E-1,1.080753421E1
1.002843895E0,-7.230000496E-1,1.071600056E1,8.200500607E-1,1.077162379E1
1.004804774E0,-6.850500107E-1,1.075500011E1,8.200500607E-1,1.080795092E1
1.006765510E0,-6.850500107E-1,1.075500011E1,8.580000401E-1,1.081089659E1
1.008726267E0,-6.850500107E-1,1.075500011E1,8.959500194E-1,1.081397464E1
1.010686903E0,-6.469500065E-1,1.075500011E1,8.200500607E-1,1.080560289E1
1.012647575E0,-7.230000496E-1,1.071600056E1,8.580000401E-1,1.077457939E1
1.014608360E0,-6.469500065E-1,1.075500011E1,8.580000401E-1,1.080854920E1
1.016569111E0,-6.850500107E-1,1.075500011E1,8.580000401E-1,1.081089659E1
1.018530018E0,-6.850500107E-1,1.071600056E1,7.429500222E-1,1.076354664E1
1.020490880E0,-6.850500107E-1,1.079295063E1,6.660000086E-1,1.083515726E1
1.022451680E0,-6.850500107E-1,1.079295063E1,6.280500293E-1,1.083289083E1
1.024412498E0,-6.850500107E-1,1.075500011E1,6.280500293E-1,1.079508072E1
1.026373573E0,-7.620000243E-1,1.075500011E1,6.280500293E-1,1.080023696E1
1.028334573E0,-7.230000496E-1,1.071600056E1,6.280500293E-1,1.075871014E1
1.030295703E0,-7.620000243E-1,1.067805004E1,6.660000086E-1,1.072590102E1
1.032256799E0,-7.620000243E-1,1.071600056E1,5.509500504E-1,1.075717704E1
1.034217648E0,-7.999500632E-1,1.067805004E1,5.130000114E-1,1.072025381E1
1.036178570E0,-7.620000243E-1,1.063995075E1,3.979500234E-1,1.067462225E1
1.038139492E0,-7.230000496E-1,1.060095024E1,4.360500276E-1,1.063451996E1
1.040100414E0,-7.230000496E-1,1.052505016E1,3.979500234E-1,1.055735640E1
1.042061323E0,-7.230000496E-1,1.056300068E1,3.220500052E-1,1.059261198E1
1.044022246E0,-7.620000243E-1,1.048605061E1,3.979500234E-1,1.052122928E1
1.045982855E0,-7.999500632E-1,1.044795036E1,6.660000086E-1,1.049967347E1
1.047943556E0,-7.620000243E-1,1.052505016E1,7.810500264E-1,1.058146323E1
1.049904336E0,-7.620000243E-1,1.052505016E1,7.050000429E-1,1.057612169E1
1.051865092E0,-8.380500674E-1,1.056300068E1,6.280500293E-1,1.061478959E1
1.053825830E0,-8.380500674E-1,1.060095024E1,5.509500504E-1,1.064828718E1
1.055786597E0,-8.770500422E-1,1.063995075E1,4.750500321E-1,1.068660102E1
1.057747502E0,-9.150000215E-1,1.063995075E1,3.979500234E-1,1.068663377E1
1.059708366E0,-9.529500604E-1,1.071600056E1,3.220500052E-1,1.076310819E1
1.061669525E0,-1.030050039E0,1.075500011E1,2.449500114E-1,1.080698992E1
1.063630597E0,-1.030050039E0,1.083105087E1,2.449500114E-1,1.088267736E1
1.065591641E0,-1.068000078E0,1.083105087E1,2.830500007E-1,1.088725881E1
1.067552717E0,-1.030050039E0,1.079295063E1,2.449500114E-1,1.084475850E1
1.069512713E0,-1.106999993E0,1.083105087E1,2.830500007E-1,1.089115372E1
1.071473026E0,-1.068000078E0,1.087005043E1,3.600000143E-1,1.092832195E1
1.073434008E0,-1.106999993E0,1.087005043E1,4.750500321E-1,1.093659535E1
1.075394794E0,-1.106999993E0,1.083105087E1,9.730500579E-1,1.093087089E1
1.077355760E0,-1.144950032E0,1.083105087E1,1.395000100E0,1.098037335E1
1.079316659E0,-1.260000110E0,1.087005043E1,1.510050058E0,1.104653103E1
1.081277767E0,-1.336950064E0,1.083105087E1,1.548000097E0,1.102249531E1
1.083238813E0,-1.413000107E0,1.079295063E1,1.510050058E0,1.098929496E1
1.085199581E0,-1.452000022E0,1.087005043E1,1.432950020E0,1.105982125E1
1.087160430E0,-1.452000022E0,1.090800095E1,1.395000100E0,1.109228624E1
1.089121598E0,-1.375050068E0,1.098495007E1,1.395000100E0,1.115822190E1
1.091082635E0,-1.336950064E0,1.098495007E1,1.510050058E0,1.116856368E1
1.093043854E0,-1.375050068E0,1.102305031E1,1.585950017E0,1.122112464E1
1.095005019E0,-1.413000107E0,1.098495007E1,1.740000129E0,1.121130223E1
1.096966127E0,-1.605000019E0,1.094595051E1,1.777950048E0,1.120495265E1
1.098927252E0,-1.834950089E0,1.087005043E1,1.816050053E0,1.117242480E1
1.100888355E0,-1.795950055E0,1.090800095E1,2.046000004E0,1.124259922E1
1.102849440E0,-1.758000135E0,1.094595051E1,2.046000004E0,1.127344282E1
1.104810335E0,-1.642950058E0,1.094595051E1,2.085000038E0,1.126322967E1
1.106771286E0,-1.567050099E0,1.098495007E1,2.275950193E0,1.132716749E1
1.108731979E0,-1.567050099E0,1.094595051E1,2.467950106E0,1.132961854E1
1.110692748E0,-1.452000022E0,1.090800095E1,2.659050226E0,1.132092473E1
1.112653696E0,-1.413000107E0,1.094595051E1,2.736000061E0,1.137084422E1
1.114614592E0,-1.375050068E0,1.090800095E1,2.851050138E0,1.135798108E1
1.116575206E0,-1.336950064E0,1.094595051E1,2.889000177E0,1.139945569E1
1.118535902E0,-1.144950032E0,1.087005043E1,2.889000177E0,1.130553975E1
1.120496863E0,-1.144950032E0,1.083105087E1,2.965950251E0,1.128802173E1
1.122457746E0,-1.068000078E0,1.079295063E1,3.043050051E0,1.126448228E1
1.124418811E0,-1.030050039E0,1.075500011E1,3.043050051E0,1.122457946E1
1.126379823E0,-8.380500674E-1,1.075500011E1,3.118950129E0,1.122943477E1
1.128341136E0,-8.380500674E-1,1.071600056E1,3.157950163E0,1.120301946E1
1.130302361E0,-7.230000496E-1,1.067805004E1,3.196050167E0,1.116952185E1
1.132263414E0,-6.850500107E-1,1.060095024E1,3.273000240E0,1.111584320E1
1.134224517E0,-5.320500135E-1,1.052505016E1,3.388050079E0,1.106971732E1
1.136185563E0,-3.400500119E-1,1.044795036E1,3.426000118E0,1.100058079E1
1.138146613E0,-1.480500102E-1,1.041000080E1,3.502950191E0,1.098456624E1
1.140107559E0,-3.299999982E-2,1.037100029E1,3.541050196E0,1.095891293E1
1.142068536E0,1.960500032E-1,1.025595093E1,3.655950069E0,1.088985473E1
1.144030305E0,3.490500152E-1,1.025595093E1,3.694050074E0,1.090652884E1
1.145991842E0,6.169500351E-1,1.021800041E1,3.733050108E0,1.089604620E1
1.147952841E0,6.940500140E-1,1.010295010E1,3.733050108E0,1.079291291E1
1.149913998E0,8.470500112E-1,1.006500053E1,3.808950186E0,1.079489838E1
1.151874745E0,1.039050102E0,9.949950218E0,3.886050224E0,1.073231200E1
1.153835613E0,1.153950095E0,9.873000145E0,3.924000263E0,1.068669784E1
1.155796366E0,1.306950092E0,9.873000145E0,4.039050102E0,1.074700778E1
1.157757152E0,1.459950089E0,9.720000267E0,4.078050137E0,1.064144503E1
1.159718066E0,1.651950121E0,9.604950905E0,4.116000175E0,1.057948385E1
1.161678933E0,1.651950121E0,9.490050316E0,4.078050137E0,1.046042481E1
1.163639551E0,1.651950121E0,9.412950516E0,4.116000175E0,1.040548096E1
1.165600242E0,2.035050154E0,9.259950638E0,4.192950249E0,1.036672305E1
1.167560844E0,2.380050182E0,9.106050491E0,4.116000175E0,1.027259713E1
1.169521473E0,2.533950090E0,8.991000175E0,4.116000175E0,1.020786190E1
1.171482252E0,2.686950207E0,8.838000298E0,4.000950336E0,1.006665557E1
1.173442996E0,2.839950085E0,8.685000420E0,3.963000298E0,9.959915669E0
1.175403725E0,2.764050245E0,8.569950104E0,3.771000147E0,9.762400353E0
1.177364459E0,3.147000074E0,8.532000542E0,3.655950069E0,9.801255717E0
1.179325279E0,3.376950264E0,8.302050591E0,3.502950191E0,9.622811291E0
1.181286073E0,3.453000069E0,8.187000275E0,3.310950041E0,9.482224061E0
1.183247154E0,3.607050180E0,8.110050201E0,3.004050255E0,9.370594603E0
1.185208150E0,3.529950142E0,7.918050289E0,2.698050022E0,9.079402090E0
1.187169107E0,3.760050297E0,7.879950523E0,2.467950106E0,9.073167926E0
1.189130075E0,3.874950171E0,7.842000484E0,2.238000154E0,9.028890027E0
1.191091125E0,4.066950321E0,7.726950169E0,1.893000126E0,8.934724019E0
1.193052150E0,4.066950321E0,7.726950169E0,1.740000129E0,8.903563571E0
1.195013220E0,4.219950199E0,7.189950466E0,1.471050024E0,8.465657421E0
1.196974288E0,4.411950111E0,6.654000282E0,9.730500579E-1,8.042875727E0
1.198935188E0,4.297049999E0,6.997950554E0,1.011000037E0,8.273939311E0
1.200896137E0,4.105050087E0,7.152000427E0,1.126049995E0,8.322892221E0
1.202857279E0,3.990000248E0,7.228050232E0,1.011000037E0,8.317868309E0
1.204818365E0,3.913050175E0,7.420050144E0,7.810500264E-1,8.424912163E0
1.206779396E0,3.952050209E0,7.534950256E0,7.050000429E-1,8.537634408E0
1.208740444E0,3.913050175E0,7.612050533E0,5.130000114E-1,8.574289708E0
1.210701525E0,3.760050297E0,7.842000484E0,4.750500321E-1,8.709800363E0
1.212662596E0,3.682950258E0,7.957050323E0,4.360500276E-1,8.778890140E0
1.214623674E0,3.568050146E0,8.148000717E0,4.360500276E-1,8.905674436E0
1.216584750E0,3.415050268E0,8.416950226E0,5.130000114E-1,9.097845264E0
1.218545279E0,3.262050152E0,8.647050858E0,5.509500504E-1,9.258293886E0
1.220505974E0,3.070050240E0,8.838000298E0,5.899500251E-1,9.374619926E0
1.222466800E0,2.917050123E0,9.067950249E0,6.280500293E-1,9.546274141E0
1.224427587E0,2.649000168E0,9.298050880E0,6.660000086E-1,9.690949803E0
1.226387994E0,2.533950090E0,9.490050316E0,6.660000086E-1,9.845075625E0
1.228348512E0,2.265000105E0,9.757950783E0,7.429500222E-1,1.004488943E1
1.230309512E0,2.035050154E0,9.949950218E0,8.959500194E-1,1.019537468E1
1.232270365E0,1.843950033E0,1.010295010E1,8.200500607E-1,1.030253534E1
1.234231301E0,1.537050128E0,1.021800041E1,8.959500194E-1,1.037172994E1
1.236192212E0,1.422000051E0,1.041000080E1,8.580000401E-1,1.054164906E1
1.238153137E0,1.306950092E0,1.060095024E1,8.200500607E-1,1.071264424E1
1.240114058E0,1.153950095E0,1.071600056E1,8.959500194E-1,1.081512807E1
1.242075201E0,9.619500637E-1,1.087005043E1,7.810500264E-1,1.094044713E1
1.244036251E0,7.699500322E-1,1.102305031E1,8.580000401E-1,1.108316856E1
1.245996432E0,5.020500422E-1,1.113795090E1,8.959500194E-1,1.118520142E1
1.247956868E0,3.490500152E-1,1.121400070E1,8.959500194E-1,1.125514878E1
1.249917828E0,2.340000123E-1,1.136805058E1,9.349500537E-1,1.140883261E1
1.251878635E0,8.100000024E-2,1.136805058E1,1.050000072E0,1.141672611E1
1.253839642E0,4.050000105E-3,1.148295021E1,1.126049995E0,1.153803062E1
1.255800577E0,-7.200000435E-2,1.155900097E1,1.126049995E0,1.161394317E1
1.257761319E0,-2.250000089E-1,1.155900097E1,1.011000037E0,1.160531126E1
1.259722118E0,-3.019500077E-1,1.148295021E1,7.429500222E-1,1.151092064E1
1.261683197E0,-4.170000255E-1,1.155900097E1,7.429500222E-1,1.159035664E1
1.263644193E0,-4.930500090E-1,1.159800053E1,6.660000086E-1,1.162756512E1
1.265604755E0,-6.469500065E-1,1.163595009E1,7.429500222E-1,1.167757909E1
1.267565468E0,-8.380500674E-1,1.171305084E1,6.660000086E-1,1.176186397E1
1.269526381E0,-9.150000215E-1,1.167405033E1,7.429500222E-1,1.173339895E1
1.271487236E0,-9.919500351E-1,1.167405033E1,7.429500222E-1,1.173965037E1
1.273448036E0,-1.068000078E0,1.167405033E1,6.660000086E-1,1.174170479E1
1.275408853E0,-1.183050036E0,1.163595009E1,5.899500251E-1,1.171080624E1
1.277369560E0,-1.222050071E0,1.163595009E1,7.050000429E-1,1.172116743E1
1.279330306E0,-1.297950029E0,1.152105045E1,6.660000086E-1,1.161304585E1
1.281292159E0,-1.413000107E0,1.159800053E1,5.899500251E-1,1.169864208E1
1.283253688E0,-1.413000107E0,1.094595051E1,-2.520000041E-1,1.103965153E1
1.285213472E0,-1.144950032E0,1.094595051E1,-4.060500264E-1,1.101315666E1
1.287173767E0,-1.297950029E0,1.121400070E1,7.050000429E-1,1.131085811E1
1.289134752E0,-1.567050099E0,1.129095078E1,1.050000072E0,1.144743271E1
1.291095534E0,-1.720050097E0,1.132905006E1,8.580000401E-1,1.149095783E1
1.293056527E0,-1.681950092E0,1.136805058E1,8.959500194E-1,1.152667586E1
1.295017458E0,-1.681950092E0,1.140600014E1,8.200500607E-1,1.155847210E1
1.296978336E0,-1.642950058E0,1.152105045E1,5.899500251E-1,1.165255034E1
1.298939229E0,-1.567050099E0,1.148295021E1,5.130000114E-1,1.160073104E1
1.300900136E0,-1.642950058E0,1.159800053E1,5.130000114E-1,1.172501898E1
1.302861053E0,-1.567050099E0,1.148295021E1,3.979500234E-1,1.159621299E1
1.304822743E0,-1.642950058E0,1.152105045E1,2.830500007E-1,1.164104831E1
1.306784207E0,-1.605000019E0,1.148295021E1,1.680000126E-1,1.159579211E1
1.308744858E0,-1.567050099E0,1.144395065E1,2.449500114E-1,1.155333948E1
1.310705747E0,-1.567050099E0,1.132905006E1,1.680000126E-1,1.143814869E1
1.312666315E0,-1.528050065E0,1.125300026E1,9.195000678E-2,1.135664592E1
1.314626978E0,-1.413000107E0,1.117605019E1,2.070000172E-1,1.126692132E1
1.316587765E0,-1.413000107E0,1.106100082E1,2.070000172E-1,1.115280940E1
1.318548515E0,-1.413000107E0,1.098495007E1,1.300500035E-1,1.107621823E1
1.320509602E0,-1.297950029E0,1.094595051E1,5.295000225E-2,1.102276329E1
1.322470591E0,-1.260000110E0,1.079295063E1,1.500000060E-2,1.086626010E1
1.324431189E0,-1.260000110E0,1.079295063E1,5.295000225E-2,1.086637876E1
1.326391901E0,-1.222050071E0,1.067805004E1,-9.900000691E-2,1.074820730E1
1.328352814E0,-1.144950032E0,1.052505016E1,-1.369500011E-1,1.058802847E1
1.330313668E0,-1.106999993E0,1.044795036E1,-6.105000153E-2,1.050660949E1
1.332274289E0,-1.068000078E0,1.044795036E1,1.300500035E-1,1.050319970E1
1.334234978E0,-1.144950032E0,1.033305073E1,5.295000225E-2,1.039642494E1
1.336195705E0,-1.106999993E0,1.010295010E1,-1.369500011E-1,1.016433987E1
1.338156428E0,-8.770500422E-1,1.010295010E1,-6.105000153E-2,1.014113132E1
1.340117026E0,-8.770500422E-1,1.010295010E1,2.070000172E-1,1.014306001E1
1.342077660E0,-8.380500674E-1,1.006500053E1,2.449500114E-1,1.010279982E1
1.344038316E0,-9.150000215E-1,9.988050461E0,9.195000678E-2,1.003029570E1
1.345998966E0,-8.380500674E-1,9.910950661E0,-6.105000153E-2,9.946506825E0
1.347959582E0,-7.620000243E-1,9.796050072E0,-2.140500098E-1,9.827973263E0
1.349920204E0,-7.230000496E-1,9.643050194E0,-3.670500219E-1,9.677079716E0
1.351881358E0,-6.469500065E-1,9.528000832E0,-4.440000355E-1,9.560255237E0
1.353842356E0,-6.079500318E-1,9.451050758E0,-4.060500264E-1,9.479284799E0
1.355803087E0,-6.079500318E-1,9.298050880E0,-4.819500148E-1,9.330360616E0
1.357763896E0,-5.320500135E-1,9.145050049E0,-5.970000029E-1,9.179946983E0
1.359724618E0,-4.170000255E-1,9.183000565E0,-3.670500219E-1,9.199788808E0
1.361685362E0,-4.170000255E-1,9.067950249E0,-3.670500219E-1,9.084951098E0
1.363646179E0,-4.549500346E-1,9.030000687E0,-3.289500177E-1,9.047436104E0
1.365606975E0,-3.780000210E-1,8.953050613E0,-3.670500219E-1,8.968540852E0
1.367567920E0,-3.400500119E-1,8.877000809E0,-4.440000355E-1,8.894600238E0
1.369528821E0,-2.629500031E-1,8.148000717E0,-1.210950017E0,8.241690260E0
1.371489491E0,-7.200000435E-2,8.224950790E0,-1.363950014E0,8.337587130E0
1.373450252E0,4.050000105E-3,8.377950668E0,-4.819500148E-1,8.391802525E0
1.375410842E0,-7.200000435E-2,8.569950104E0,1.680000126E-1,8.571899019E0
1.377371483E0,-2.250000089E-1,8.647050858E0,1.680000126E-1,8.651608957E0
1.379332318E0,-2.250000089E-1,8.685000420E0,-6.105000153E-2,8.688128935E0
1.381293096E0,-1.870500147E-1,8.685000420E0,-3.670500219E-1,8.694765420E0
1.383254044E0,-2.250000089E-1,8.647050858E0,-5.209500194E-1,8.665650723E0
1.385214942E0,-1.870500147E-1,8.608050346E0,-7.120500207E-1,8.639475314E0
1.387175691E0,-7.200000435E-2,8.532000542E0,-9.420000315E-1,8.584147092E0
1.389136483E0,-3.299999982E-2,8.493000031E0,-1.057050109E0,8.558591791E0
1.391097203E0,4.050000105E-3,8.455050468E0,-1.057050109E0,8.520871420E0
1.393057944E0,8.100000024E-2,8.416950226E0,-9.810000658E-1,8.474312552E0
1.395018403E0,1.189500093E-1,8.340000153E0,-9.810000658E-1,8.398339882E0
1.396978944E0,2.719500065E-1,8.377950668E0,-8.659500480E-1,8.426973578E0
1.398939526E0,2.340000123E-1,8.377950668E0,-6.739500165E-1,8.408271049E0
1.400900096E0,1.570500135E-1,8.377950668E0,-5.590500236E-1,8.398050907E0
1.402860945E0,1.570500135E-1,8.416950226E0,-5.590500236E-1,8.436957552E0
1.404821712E0,1.189500093E-1,8.455050468E0,-6.360000372E-1,8.479771434E0
1.406782481E0,1.570500135E-1,8.377950668E0,-6.739500165E-1,8.406481472E0
1.408743250E0,1.189500093E-1,8.416950226E0,-5.970000029E-1,8.438934128E0
1.410704019E0,1.189500093E-1,8.377950668E0,-5.970000029E-1,8.400036637E0
1.412664788E0,1.189500093E-1,8.416950226E0,-6.739500165E-1,8.444726688E0
1.414625514E0,4.050000105E-3,8.377950668E0,-6.739500165E-1,8.405015314E0
1.416586252E0,-3.299999982E-2,8.377950668E0,-6.739500165E-1,8.405079121E0
1.418547010E0,-3.299999982E-2,8.377950668E0,-8.269500136E-1,8.418728688E0
1.420507773E0,-7.200000435E-2,8.302050591E0,-8.659500480E-1,8.347400643E0
1.422468229E0,-7.200000435E-2,8.263050079E0,-7.890000343E-1,8.300945830E0
1.424428775E0,-1.480500102E-1,8.263050079E0,-8.269500136E-1,8.305646377E0
1.426389537E0,-1.480500102E-1,8.224950790E0,-9.420000315E-1,8.280042172E0
1.428350235E0,-2.250000089E-1,8.187000275E0,-8.659500480E-1,8.235743317E0
1.430310477E0,-3.019500077E-1,8.224950790E0,-9.810000658E-1,8.288748424E0
1.432270852E0,-4.170000255E-1,8.263050079E0,-1.057050109E0,8.340817740E0
1.434231508E0,-4.549500346E-1,8.263050079E0,-1.096050024E0,8.347832162E0
1.436192081E0,-5.320500135E-1,8.224950790E0,-1.249050021E0,8.336247278E0
1.438152570E0,-6.079500318E-1,8.263050079E0,-1.326000094E0,8.390820943E0
1.440113083E0,-7.230000496E-1,8.224950790E0,-1.210950017E0,8.344995178E0
1.442074095E0,-7.620000243E-1,8.224950790E0,-1.171950102E0,8.342896774E0
1.444034947E0,-8.380500674E-1,8.148000717E0,-1.210950017E0,8.280014707E0
1.445995658E0,-9.919500351E-1,8.110050201E0,-1.249050021E0,8.265410159E0
1.447956411E0,-9.919500351E-1,8.071949959E0,-1.363950014E0,8.246253734E0
1.449917048E0,-1.068000078E0,8.032950401E0,-1.441050053E0,8.230767982E0
1.451877719E0,-1.144950032E0,7.918050289E0,-1.402050018E0,8.122325727E0
1.453838523E0,-1.183050036E0,7.995000362E0,-1.441050053E0,8.209522729E0
1.455799274E0,-1.183050036E0,7.995000362E0,-1.479000092E0,8.216269193E0
1.457759867E0,-1.222050071E0,7.957050323E0,-1.516950130E0,8.192020137E0
1.459720507E0,-1.297950029E0,7.957050323E0,-1.479000092E0,8.196753345E0
1.461680893E0,-1.297950029E0,7.879950523E0,-1.441050053E0,8.115104422E0
1.463641353E0,-1.375050068E0,7.918050289E0,-1.402050018E0,8.157942591E0
1.465601809E0,-1.413000107E0,7.879950523E0,-1.402050018E0,8.127480163E0
1.467562269E0,-1.489950061E0,7.879950523E0,-1.402050018E0,8.141210947E0
1.469522911E0,-1.489950061E0,7.879950523E0,-1.441050053E0,8.148017961E0
1.471483500E0,-1.489950061E0,7.879950523E0,-1.516950130E0,8.161783453E0
1.473443986E0,-1.528050065E0,7.803000450E0,-1.555950046E0,8.102020339E0
1.475404502E0,-1.489950061E0,7.726950169E0,-1.555950046E0,8.021638900E0
1.477365074E0,-1.452000022E0,7.687950134E0,-1.594050050E0,7.984602488E0
1.479325640E0,-1.375050068E0,7.573050499E0,-1.632000089E0,7.867990902E0
1.481286489E0,-1.375050068E0,7.573050499E0,-1.671000123E0,7.876172799E0
1.483247255E0,-1.297950029E0,7.458000183E0,-1.671000123E0,7.752333998E0
1.485207981E0,-1.222050071E0,7.458000183E0,-1.671000123E0,7.739988018E0
1.487168719E0,-1.144950032E0,7.497000217E0,-1.708950043E0,7.774087283E0
1.489129328E0,-1.106999993E0,7.534950256E0,-1.708950043E0,7.805218421E0
1.491089964E0,-1.106999993E0,7.573050499E0,-1.708950043E0,7.842005681E0
1.493050576E0,-1.106999993E0,7.612050533E0,-1.708950043E0,7.879674648E0
1.495011195E0,-1.183050036E0,7.687950134E0,-1.671000123E0,7.955905107E0
1.496971854E0,-1.144950032E0,7.765050411E0,-1.594050050E0,8.009239291E0
1.498932501E0,-1.222050071E0,7.765050411E0,-1.594050050E0,8.020624030E0
1.500893272E0,-1.260000110E0,7.803000450E0,-1.555950046E0,8.055767924E0
1.502854020E0,-1.297950029E0,7.842000484E0,-1.555950046E0,8.099544828E0
1.504814749E0,-1.336950064E0,7.879950523E0,-1.555950046E0,8.142606233E0
1.506775484E0,-1.375050068E0,7.918050289E0,-1.555950046E0,8.185796456E0
1.508736303E0,-1.375050068E0,7.995000362E0,-1.516950130E0,8.252995285E0
1.510697097E0,-1.489950061E0,7.995000362E0,-1.479000092E0,8.266040361E0
1.512658062E0,-1.489950061E0,8.071949959E0,-1.441050053E0,8.333843806E0
1.514618963E0,-1.489950061E0,8.071949959E0,-1.441050053E0,8.333843806E0
1.516579485E0,-1.567050099E0,8.148000717E0,-1.441050053E0,8.421531153E0
1.518540118E0,-1.605000019E0,8.110050201E0,-1.441050053E0,8.391994077E0
1.520500730E0,-1.605000019E0,8.032950401E0,-1.402050018E0,8.310839998E0
1.522461349E0,-1.567050099E0,7.995000362E0,-1.326000094E0,8.254329352E0
1.524421964E0,-1.642950058E0,8.071949959E0,-1.326000094E0,8.343496706E0
1.526382580E0,-1.720050097E0,8.148000717E0,-1.363950014E0,8.438533502E0
1.528343195E0,-1.758000135E0,8.148000717E0,-1.363950014E0,8.446350680E0
1.530303811E0,-1.795950055E0,8.224950790E0,-1.287000060E0,8.516549845E0
1.532264650E0,-1.834950089E0,8.148000717E0,-1.326000094E0,8.456668006E0
1.534225424E0,-1.834950089E0,8.187000275E0,-1.326000094E0,8.494250501E0
1.536186129E0,-1.834950089E0,8.224950790E0,-1.363950014E0,8.536815388E0
1.538146868E0,-1.834950089E0,8.187000275E0,-1.402050018E0,8.506453996E0
1.540107462E0,-1.873050094E0,8.187000275E0,-1.441050053E0,8.521262548E0
1.542068098E0,-1.873050094E0,8.224950790E0,-1.479000092E0,8.564203024E0
1.544028934E0,-1.834950089E0,8.224950790E0,-1.479000092E0,8.555951064E0
1.545989712E0,-1.873050094E0,8.187000275E0,-1.555950046E0,8.541444298E0
1.547950660E0,-1.873050094E0,8.148000717E0,-1.516950130E0,8.497021245E0
1.549911558E0,-1.834950089E0,8.187000275E0,-1.632000089E0,8.547364484E0
1.551871946E0,-1.834950089E0,8.148000717E0,-1.632000089E0,8.510016557E0
1.553832483E0,-1.795950055E0,8.148000717E0,-1.671000123E0,8.509265168E0
1.555793291E0,-1.720050097E0,8.187000275E0,-1.671000123E0,8.530989816E0
1.557754020E0,-1.795950055E0,8.187000275E0,-1.632000089E0,8.539076905E0
1.559714816E0,-1.795950055E0,8.263050079E0,-1.671000123E0,8.619493873E0
1.561675578E0,-1.681950092E0,8.263050079E0,-1.708950043E0,8.603921372E0
1.563636484E0,-1.681950092E0,8.302050591E0,-1.671000123E0,8.633958625E0
1.565597347E0,-1.642950058E0,8.377950668E0,-1.786050081E0,8.722345853E0
1.567557921E0,-1.605000019E0,8.455050468E0,-1.824000120E0,8.797208644E0
1.569518580E0,-1.605000019E0,8.569950104E0,-1.786050081E0,8.900002513E0
1.571479188E0,-1.528050065E0,8.647050858E0,-1.824000120E0,8.968467092E0
1.573439811E0,-1.567050099E0,8.800050735E0,-1.824000120E0,9.122692333E0
1.575400784E0,-1.452000022E0,8.877000809E0,-1.900950074E0,9.193642293E0
1.577361655E0,-1.452000022E0,8.991000175E0,-1.939050078E0,9.311621955E0
1.579322228E0,-1.413000107E0,9.145050049E0,-2.053950071E0,9.478777379E0
1.581282888E0,-1.452000022E0,9.298050880E0,-2.092050076E0,9.640473420E0
1.583243520E0,-1.413000107E0,9.451050758E0,-2.092050076E0,9.782412957E0
1.585204175E0,-1.336950064E0,9.528000832E0,-2.169000149E0,9.862798638E0
1.587164918E0,-1.336950064E0,9.643050194E0,-2.053950071E0,9.949601168E0
1.589125635E0,-1.260000110E0,9.757950783E0,-2.053950071E0,1.005106535E1
1.591085873E0,-1.222050071E0,9.873000145E0,-2.053950071E0,1.015816170E1
1.593046252E0,-1.297950029E0,9.988050461E0,-2.053950071E0,1.027932572E1
1.595006777E0,-1.222050071E0,1.010295010E1,-2.014950037E0,1.037415205E1
1.596967255E0,-1.222050071E0,1.021800041E1,-2.014950037E0,1.048622727E1
1.598927715E0,-1.297950029E0,1.037100029E1,-1.977000117E0,1.063723887E1
1.600888181E0,-1.297950029E0,1.041000080E1,-1.861950040E0,1.065456001E1
1.602849136E0,-1.260000110E0,1.044795036E1,-1.824000120E0,1.068055446E1
1.604809948E0,-1.260000110E0,1.056300068E1,-1.708950043E0,1.077427927E1
1.606770721E0,-1.260000110E0,1.056300068E1,-1.708950043E0,1.077427927E1
1.608731498E0,-1.297950029E0,1.063995075E1,-1.671000123E0,1.084829331E1
1.610692131E0,-1.336950064E0,1.067805004E1,-1.632000089E0,1.088446657E1
1.612652806E0,-1.413000107E0,1.063995075E1,-1.555950046E0,1.084555678E1
1.614613590E0,-1.413000107E0,1.067805004E1,-1.555950046E0,1.088293630E1
1.616574342E0,-1.489950061E0,1.071600056E1,-1.516950130E0,1.092491450E1
1.618534870E0,-1.567050099E0,1.067805004E1,-1.516950130E0,1.089851074E1
1.620495478E0,-1.642950058E0,1.071600056E1,-1.555950046E0,1.095230265E1
1.622456274E0,-1.758000135E0,1.067805004E1,-1.555950046E0,1.093308272E1
1.624417015E0,-1.795950055E0,1.063995075E1,-1.516950130E0,1.089656489E1
1.626377655E0,-1.795950055E0,1.063995075E1,-1.516950130E0,1.089656489E1
1.628338324E0,-1.911000133E0,1.056300068E1,-1.479000092E0,1.083588234E1
1.630298911E0,-1.950000048E0,1.056300068E1,-1.479000092E0,1.084282827E1
1.632259536E0,-1.987950087E0,1.048605061E1,-1.632000089E0,1.079688044E1
1.634220284E0,-2.026050091E0,1.044795036E1,-1.594050050E0,1.076129831E1
1.636180996E0,-2.065050125E0,1.041000080E1,-1.594050050E0,1.073189379E1
1.638141280E0,-2.065050125E0,1.041000080E1,-1.594050050E0,1.073189379E1
1.640101690E0,-2.065050125E0,1.037100029E1,-1.594050050E0,1.069406726E1
1.642062369E0,-2.065050125E0,1.033305073E1,-1.671000123E0,1.066904920E1
1.644022948E0,-2.103000164E0,1.029495049E1,-1.671000123E0,1.063958912E1
1.645983885E0,-2.065050125E0,1.033305073E1,-1.671000123E0,1.066904920E1
1.647944717E0,-2.026050091E0,1.029495049E1,-1.671000123E0,1.062464709E1
1.649905342E0,-2.065050125E0,1.033305073E1,-1.671000123E0,1.066904920E1
1.651866027E0,-2.026050091E0,1.029495049E1,-1.671000123E0,1.062464709E1
1.653826945E0,-2.026050091E0,1.033305073E1,-1.708950043E0,1.066758298E1
1.655787794E0,-1.950000048E0,1.033305073E1,-1.747050047E0,1.065957886E1
1.657748416E0,-1.911000133E0,1.041000080E1,-1.786050081E0,1.073359274E1
1.659709104E0,-1.911000133E0,1.037100029E1,-1.786050081E0,1.069577222E1
1.661670247E0,-1.873050094E0,1.041000080E1,-1.786050081E0,1.072690115E1
1.663631256E0,-1.873050094E0,1.037100029E1,-1.861950040E0,1.070200082E1
1.665592120E0,-1.834950089E0,1.044795036E1,-1.861950040E0,1.077003095E1
1.667553027E0,-1.873050094E0,1.048605061E1,-1.900950074E0,1.082031354E1
1.669513772E0,-1.834950089E0,1.056300068E1,-1.861950040E0,1.088167649E1
1.671474565E0,-1.795950055E0,1.056300068E1,-1.824000120E0,1.086873481E1
1.673435374E0,-1.795950055E0,1.060095024E1,-1.786050081E0,1.089933748E1
1.675396179E0,-1.758000135E0,1.071600056E1,-1.747050047E0,1.099888250E1
1.677356892E0,-1.758000135E0,1.079295063E1,-1.632000089E0,1.105630011E1
1.679317636E0,-1.758000135E0,1.090800095E1,-1.516950130E0,1.115240722E1
1.681278229E0,-1.720050097E0,1.098495007E1,-1.402050018E0,1.120684811E1
1.683238867E0,-1.758000135E0,1.102305031E1,-1.287000060E0,1.123630596E1
1.685199163E0,-1.758000135E0,1.113795090E1,-1.249050021E0,1.134480677E1
1.687159559E0,-1.795950055E0,1.117605019E1,-1.096050024E0,1.137237266E1
1.689120365E0,-1.720050097E0,1.121400070E1,-1.096050024E0,1.139796954E1
1.691081038E0,-1.834950089E0,1.125300026E1,-1.018950105E0,1.144706582E1
1.693042049E0,-1.795950055E0,1.129095078E1,-9.810000658E-1,1.147490162E1
1.695002961E0,-1.795950055E0,1.121400070E1,-9.810000658E-1,1.139919337E1
1.696963527E0,-1.758000135E0,1.129095078E1,-9.040500522E-1,1.146269778E1
1.698924194E0,-1.642950058E0,1.129095078E1,-8.269500136E-1,1.143978586E1
1.700884984E0,-1.605000019E0,1.129095078E1,-7.510500550E-1,1.142915879E1
1.702845735E0,-1.489950061E0,1.125300026E1,-6.739500165E-1,1.137119935E1
1.704806823E0,-1.375050068E0,1.125300026E1,-4.819500148E-1,1.134694026E1
1.706767812E0,-1.297950029E0,1.121400070E1,-3.670500219E-1,1.129483120E1
1.708728545E0,-1.183050036E0,1.121400070E1,-2.140500098E-1,1.127826390E1
1.710689353E0,-1.144950032E0,1.125300026E1,-6.105000153E-2,1.131126220E1
1.712650120E0,-1.106999993E0,1.129095078E1,1.500000060E-2,1.134509777E1
1.714610896E0,-9.919500351E-1,1.132905006E1,1.680000126E-1,1.137363461E1
1.716571664E0,-9.919500351E-1,1.144395065E1,1.680000126E-1,1.148808929E1
1.718532435E0,-8.380500674E-1,1.155900097E1,2.830500007E-1,1.159279727E1
1.720491942E0,-8.380500674E-1,1.159800053E1,2.830500007E-1,1.163168352E1
1.722451819E0,-7.620000243E-1,1.171305084E1,3.220500052E-1,1.174222808E1
1.724412264E0,-7.620000243E-1,1.178895092E1,3.979500234E-1,1.182025262E1
1.726372529E0,-6.850500107E-1,1.186605072E1,3.979500234E-1,1.189246894E1
1.728333204E0,-6.079500318E-1,1.198095036E1,4.360500276E-1,1.200428733E1
1.730293759E0,-5.700000525E-1,1.201905060E1,4.360500276E-1,1.204045751E1
1.732254745E0,-5.320500135E-1,1.213395023E1,3.979500234E-1,1.215212696E1
1.734215605E0,-4.930500090E-1,1.224900055E1,3.979500234E-1,1.226537716E1
1.736176375E0,-4.549500346E-1,1.224900055E1,4.750500321E-1,1.226664854E1
1.738137161E0,-3.780000210E-1,1.236405087E1,5.509500504E-1,1.238209125E1
1.740098782E0,-4.170000255E-1,1.244100094E1,6.660000086E-1,1.246579117E1
1.742060159E0,-6.079500318E-1,1.205805016E1,-5.590500236E-1,1.208630273E1
1.744019564E0,-2.629500031E-1,1.209600067E1,-4.060500264E-1,1.210567022E1
1.745979546E0,-1.870500147E-1,1.224900055E1,1.050000072E0,1.229534474E1
1.747940478E0,-2.629500031E-1,1.251795101E1,1.624950051E0,1.262571594E1
1.749901111E0,-3.400500119E-1,1.263300037E1,1.510050058E0,1.272747358E1
1.751861769E0,-3.019500077E-1,1.270905018E1,1.356000066E0,1.278475132E1
1.753822419E0,-1.480500102E-1,1.274805069E1,1.050000072E0,1.279207627E1
1.755782985E0,-7.200000435E-2,1.282395077E1,8.959500194E-1,1.285541223E1
1.757743575E0,4.200000316E-2,1.278600025E1,7.429500222E-1,1.280763605E1
1.759703879E0,2.340000123E-1,1.274805069E1,8.959500194E-1,1.278163835E1
1.761664267E0,3.109500110E-1,1.270905018E1,1.011000037E0,1.275299053E1
1.763625100E0,4.260000288E-1,1.263300037E1,1.050000072E0,1.268371691E1
1.765585803E0,5.410500169E-1,1.255605030E1,1.165050030E0,1.262158769E1
1.767547125E0,7.320000529E-1,1.247895050E1,1.203000069E0,1.255815428E1
1.769508265E0,9.240000248E-1,1.232595062E1,1.279950023E0,1.242662894E1
1.771468994E0,1.077000022E0,1.221105099E1,1.279950023E0,1.232509502E1
1.773429828E0,1.153950095E0,1.205805016E1,1.318050027E0,1.218463911E1
1.775390181E0,1.230000019E0,1.190400028E1,1.318050027E0,1.203974164E1
1.777350675E0,1.306950092E0,1.171305084E1,1.395000100E0,1.186801179E1
1.779311131E0,1.345050097E0,1.152105045E1,1.356000066E0,1.167829181E1
1.781271598E0,1.422000051E0,1.117605019E1,1.432950020E0,1.135691541E1
1.783232418E0,1.459950089E0,1.102305031E1,1.471050024E0,1.121619724E1
1.785193134E0,1.575000048E0,1.087005043E1,1.432950020E0,1.107664061E1
1.787153553E0,1.614000082E0,1.063995075E1,1.395000100E0,1.085170832E1
1.789114059E0,1.690050125E0,1.037100029E1,1.471050024E0,1.061027354E1
1.791074692E0,1.767000079E0,1.018005085E1,1.432950020E0,1.043115863E1
1.793035288E0,1.804950118E0,9.910950661E0,1.510050058E0,1.018651261E1
1.794995957E0,1.804950118E0,9.757950783E0,1.510050058E0,1.003771386E1
1.796956601E0,1.843950033E0,9.528000832E0,1.471050024E0,9.815647699E0
1.798917212E0,1.882050037E0,9.336000443E0,1.471050024E0,9.636752813E0
1.800877833E0,1.920000076E0,9.106050491E0,1.510050058E0,9.427980008E0
1.802838223E0,1.882050037E0,8.877000809E0,1.510050058E0,9.199103591E0
1.804798680E0,1.920000076E0,8.722949982E0,1.510050058E0,9.058504725E0
1.806759385E0,1.959000111E0,8.493000031E0,1.510050058E0,8.845845473E0
1.808720004E0,1.882050037E0,8.340000153E0,1.510050058E0,8.682048495E0
1.810680440E0,1.843950033E0,8.148000717E0,1.510050058E0,8.489423926E0
1.812640929E0,1.804950118E0,7.957050323E0,1.471050024E0,8.290746827E0
1.814601700E0,1.690050125E0,7.765050411E0,1.471050024E0,8.081847901E0
1.816562389E0,1.459950089E0,7.381950378E0,1.471050024E0,7.667374637E0
1.818522868E0,1.345050097E0,7.420050144E0,1.432950020E0,7.675913605E0
1.820483401E0,1.537050128E0,7.342950344E0,1.471050024E0,7.644961153E0
1.822444345E0,1.690050125E0,7.189950466E0,1.471050024E0,7.530979040E0
1.824405168E0,1.690050125E0,7.036950111E0,1.356000066E0,7.362993445E0
1.826365975E0,1.614000082E0,6.997950554E0,1.318050027E0,7.301613801E0
1.828326786E0,1.537050128E0,6.844950199E0,1.240950108E0,7.124312142E0
1.830287847E0,1.422000051E0,6.844950199E0,1.203000069E0,7.093844976E0
1.832248846E0,1.345050097E0,6.807000160E0,1.203000069E0,7.042131787E0
1.834209441E0,1.269000053E0,6.768000126E0,1.126049995E0,6.977404634E0
1.836170155E0,1.269000053E0,6.807000160E0,1.126049995E0,7.015240617E0
1.838130393E0,1.192050099E0,6.807000160E0,1.050000072E0,6.989902343E0
1.840090771E0,1.114950061E0,6.883050442E0,1.087950110E0,7.057133445E0
1.842051547E0,1.039050102E0,6.922050476E0,1.126049995E0,7.089597767E0
1.844012216E0,1.000050068E0,6.997950554E0,1.203000069E0,7.170677880E0
1.845973003E0,9.240000248E-1,7.113000393E0,1.165050030E0,7.266766283E0
1.847933755E0,8.470500112E-1,7.228050232E0,1.240950108E0,7.382557893E0
1.849894168E0,8.089500666E-1,7.342950344E0,1.240950108E0,7.490879597E0
1.851854680E0,6.550500393E-1,7.534950256E0,1.240950108E0,7.664497576E0
1.853814231E0,5.790000558E-1,7.650000572E0,1.356000066E0,7.790794953E0
1.855774064E0,4.639500082E-1,7.765050411E0,1.356000066E0,7.896201218E0
1.857734813E0,3.870000243E-1,7.918050289E0,1.471050024E0,8.062833098E0
1.859695293E0,2.719500065E-1,8.071949959E0,1.471050024E0,8.209404431E0
1.861656112E0,2.340000123E-1,8.224950790E0,1.510050058E0,8.365693198E0
1.863616832E0,2.340000123E-1,8.340000153E0,1.471050024E0,8.471974193E0
1.865577415E0,8.100000024E-2,8.493000031E0,1.548000097E0,8.633302660E0
1.867538049E0,1.189500093E-1,8.647050858E0,1.663050056E0,8.806325745E0
1.869498661E0,1.189500093E-1,8.800050735E0,1.663050056E0,8.956605246E0
1.871459280E0,1.189500093E-1,8.914950371E0,1.777950048E0,9.091292295E0
1.873419939E0,4.200000316E-2,9.067950249E0,1.855050087E0,9.255846614E0
1.875380586E0,-3.299999982E-2,9.259950638E0,1.969950080E0,9.467231809E0
1.877341197E0,-7.200000435E-2,9.375000000E0,2.008050203E0,9.587912944E0
1.879301819E0,-7.200000435E-2,9.490050316E0,1.969950080E0,9.692623087E0
1.881262433E0,-1.099500060E-1,9.604950905E0,2.008050203E0,9.813227629E0
1.883223049E0,-7.200000435E-2,9.681000710E0,2.046000004E0,9.895103575E0
1.885183664E0,-1.099500060E-1,9.643050194E0,2.161050081E0,9.882845921E0
1.887144280E0,-3.019500077E-1,9.643050194E0,2.314950228E0,9.921622116E0
1.889104836E0,-5.320500135E-1,9.988050461E0,2.467950106E0,1.030218457E1
1.891065420E0,-3.780000210E-1,9.949950218E0,2.161050081E0,1.018894159E1
1.893025906E0,-1.099500060E-1,9.988050461E0,1.893000126E0,1.016644926E1
1.894986420E0,-1.099500060E-1,1.002600002E1,1.701000094E0,1.016986562E1
1.896947007E0,-7.200000435E-2,1.002600002E1,1.740000129E0,1.017612210E1
1.898907572E0,4.200000316E-2,1.006500053E1,1.701000094E0,1.020781079E1
1.900868057E0,4.200000316E-2,1.002600002E1,1.663050056E0,1.016307906E1
1.902828569E0,4.200000316E-2,1.002600002E1,1.740000129E0,1.017595405E1
1.904789156E0,1.570500135E-1,1.002600002E1,1.740000129E0,1.017707923E1
1.906749721E0,1.570500135E-1,9.988050461E0,1.624950051E0,1.012058691E1
1.908710166E0,2.340000123E-1,9.949950218E0,1.548000097E0,1.007236664E1
1.910670646E0,3.490500152E-1,9.949950218E0,1.510050058E0,1.006993527E1
1.912631153E0,4.639500082E-1,9.949950218E0,1.510050058E0,1.007457245E1
1.914591649E0,4.639500082E-1,9.910950661E0,1.471050024E0,1.003026325E1
1.916551925E0,5.020500422E-1,9.873000145E0,1.395000100E0,9.983697280E0
1.918512266E0,4.639500082E-1,9.835050583E0,1.356000066E0,9.938923773E0
1.920472568E0,5.020500422E-1,9.835050583E0,1.203000069E0,9.921062613E0
1.922432882E0,5.410500169E-1,9.796050072E0,1.165050030E0,9.879912636E0
1.924394074E0,6.550500393E-1,9.757950783E0,1.240950108E0,9.858329027E0
1.926355019E0,7.699500322E-1,9.720000267E0,1.203000069E0,9.824379747E0
1.928315173E0,7.699500322E-1,9.681000710E0,1.165050030E0,9.781203370E0
1.930275559E0,7.699500322E-1,9.643050194E0,1.165050030E0,9.743643141E0
1.932236032E0,8.089500666E-1,9.643050194E0,1.165050030E0,9.746802492E0
1.934196480E0,7.320000529E-1,9.643050194E0,1.087950110E0,9.731797191E0
1.936156975E0,6.940500140E-1,9.565950394E0,1.011000037E0,9.644233170E0
1.938117466E0,6.550500393E-1,9.528000832E0,1.087950110E0,9.612259144E0
1.940077878E0,6.550500393E-1,9.528000832E0,9.349500537E-1,9.596146206E0
1.942038314E0,6.169500351E-1,9.565950394E0,9.730500579E-1,9.635084883E0
1.943998824E0,6.940500140E-1,9.528000832E0,1.011000037E0,9.606592858E0
1.945959312E0,6.940500140E-1,9.490050316E0,1.050000072E0,9.573153115E0
1.947919894E0,7.699500322E-1,9.490050316E0,1.126049995E0,9.587589199E0
1.949880456E0,8.470500112E-1,9.412950516E0,1.165050030E0,9.522524492E0
1.951840946E0,7.320000529E-1,9.412950516E0,1.126049995E0,9.508283235E0
1.953801458E0,7.320000529E-1,9.451050758E0,1.165050030E0,9.550681970E0
1.955761731E0,6.550500393E-1,9.412950516E0,1.087950110E0,9.498229488E0
1.957722074E0,6.169500351E-1,9.375000000E0,1.203000069E0,9.471982977E0
1.959681294E0,5.410500169E-1,9.375000000E0,1.203000069E0,9.467342250E0
1.961640843E0,4.260000288E-1,9.375000000E0,1.126049995E0,9.451988659E0
1.963601415E0,4.260000288E-1,9.336000443E0,1.165050030E0,9.418052976E0
1.965561687E0,4.260000288E-1,9.298050880E0,1.126049995E0,9.375671432E0
1.967522046E0,3.870000243E-1,9.298050880E0,1.165050030E0,9.378745159E0
1.969482379E0,4.260000288E-1,9.336000443E0,1.279950023E0,9.432955653E0
1.971442665E0,5.020500422E-1,9.298050880E0,1.240950108E0,9.393921523E0
1.973402978E0,3.490500152E-1,9.183000565E0,1.318050027E0,9.283673365E0
1.975363284E0,2.340000123E-1,9.220950127E0,1.395000100E0,9.328810349E0
1.977323593E0,1.570500135E-1,9.375000000E0,1.432950020E0,9.485179780E0
1.979285296E0,3.870000243E-1,9.336000443E0,1.279950023E0,9.431274852E0
1.981246591E0,5.790000558E-1,9.298050880E0,1.126049995E0,9.383868063E0
1.983206055E0,5.020500422E-1,9.336000443E0,1.087950110E0,9.412576372E0
1.985166055E0,3.870000243E-1,9.220950127E0,1.240950108E0,9.312123680E0
1.987126729E0,2.719500065E-1,9.298050880E0,1.395000100E0,9.406047643E0
1.989087206E0,4.639500082E-1,9.259950638E0,1.432950020E0,9.381645974E0
1.991047845E0,6.169500351E-1,9.183000565E0,1.318050027E0,9.297600905E0
1.993008437E0,5.790000558E-1,9.183000565E0,1.356000066E0,9.300617002E0
1.994968562E0,5.410500169E-1,9.183000565E0,1.432950020E0,9.309864674E0
1.996928824E0,5.020500422E-1,9.183000565E0,1.471050024E0,9.313621304E0
1.998889634E0,4.260000288E-1,9.220950127E0,1.510050058E0,9.353483225E0
2.000850283E0,4.260000288E-1,9.220950127E0,1.548000097E0,9.359684907E0
2.002810938E0,4.260000288E-1,9.259950638E0,1.585950017E0,9.404435086E0
2.004771591E0,4.260000288E-1,9.336000443E0,1.624950051E0,9.485928682E0
2.006731986E0,4.260000288E-1,9.375000000E0,1.548000097E0,9.511488071E0
2.008692449E0,4.639500082E-1,9.375000000E0,1.585950017E0,9.519512176E0
2.010653090E0,4.639500082E-1,9.451050758E0,1.585950017E0,9.594417518E0
2.012613678E0,5.020500422E-1,9.412950516E0,1.548000097E0,9.552591060E0
2.014574839E0,5.790000558E-1,9.412950516E0,1.548000097E0,9.556944218E0
2.016535832E0,5.790000558E-1,9.336000443E0,1.548000097E0,9.481162884E0
2.018495843E0,1.960500032E-1,9.067950249E0,1.548000097E0,9.201220659E0
2.020456142E0,1.189500093E-1,9.220950127E0,1.548000097E0,9.350741930E0
2.022417576E0,5.410500169E-1,9.145050049E0,1.701000094E0,9.317621845E0
2.024378678E0,8.089500666E-1,9.145050049E0,1.663050056E0,9.330170207E0
2.026339211E0,8.470500112E-1,9.145050049E0,1.585950017E0,9.320121865E0
2.028299911E0,8.470500112E-1,9.145050049E0,1.585950017E0,9.320121865E0
2.030260281E0,9.240000248E-1,9.106050491E0,1.663050056E0,9.302669890E0
2.032220752E0,9.240000248E-1,9.145050049E0,1.624950051E0,9.334140513E0
2.034180897E0,8.850000501E-1,9.145050049E0,1.701000094E0,9.343905329E0
2.036141137E0,9.240000248E-1,9.145050049E0,1.701000094E0,9.347679806E0
2.038101455E0,9.240000248E-1,9.183000565E0,1.740000129E0,9.391958042E0
2.040061750E0,8.089500666E-1,9.298050880E0,1.701000094E0,9.486914762E0
2.042022176E0,8.470500112E-1,9.298050880E0,1.663050056E0,9.483510921E0
2.043982577E0,8.850000501E-1,9.298050880E0,1.624950051E0,9.480371192E0
2.045943049E0,8.470500112E-1,9.375000000E0,1.624950051E0,9.552412334E0
2.047903500E0,8.850000501E-1,9.412950516E0,1.624950051E0,9.593087364E0
2.049864008E0,8.470500112E-1,9.451050758E0,1.624950051E0,9.627061692E0
2.051824500E0,8.470500112E-1,9.528000832E0,1.663050056E0,9.709069423E0
2.053784912E0,8.850000501E-1,9.528000832E0,1.585950017E0,9.699549597E0
2.055745348E0,8.850000501E-1,9.451050758E0,1.624950051E0,9.630474972E0
2.057705679E0,9.240000248E-1,9.490050316E0,1.663050056E0,9.678872172E0
2.059666041E0,9.619500637E-1,9.451050758E0,1.663050056E0,9.644347767E0
2.061626518E0,1.000050068E0,9.451050758E0,1.663050056E0,9.648222430E0
2.063586962E0,1.000050068E0,9.451050758E0,1.624950051E0,9.641728229E0
2.065547431E0,1.039050102E0,9.451050758E0,1.585950017E0,9.639358018E0
2.067507889E0,1.000050068E0,9.451050758E0,1.548000097E0,9.629058359E0
2.069468172E0,1.000050068E0,9.451050758E0,1.510050058E0,9.623030279E0
2.071428506E0,9.619500637E-1,9.565950394E0,1.471050024E0,9.726085699E0
2.073388988E0,9.619500637E-1,9.565950394E0,1.471050024E0,9.726085699E0
2.075349427E0,1.000050068E0,9.565950394E0,1.471050024E0,9.729927813E0
2.077310043E0,9.240000248E-1,9.604950905E0,1.471050024E0,9.760781019E0
2.079270596E0,8.850000501E-1,9.604950905E0,1.432950020E0,9.751494897E0
2.081230908E0,8.470500112E-1,9.604950905E0,1.395000100E0,9.742617763E0
2.083191291E0,7.699500322E-1,9.604950905E0,1.395000100E0,9.736217449E0
2.085151765E0,8.089500666E-1,9.643050194E0,1.356000066E0,9.771466289E0
2.087112212E0,7.320000529E-1,9.643050194E0,1.395000100E0,9.770888721E0
2.089072461E0,7.320000529E-1,9.643050194E0,1.318050027E0,9.760199639E0
2.091032761E0,6.550500393E-1,9.604950905E0,1.318050027E0,9.717068916E0
2.092993294E0,6.550500393E-1,9.604950905E0,1.240950108E0,9.706911435E0
2.094953759E0,6.550500393E-1,9.490050316E0,1.203000069E0,9.588396879E0
2.096914536E0,5.790000558E-1,9.375000000E0,1.203000069E0,9.469586856E0
2.098875221E0,5.790000558E-1,9.259950638E0,1.126049995E0,9.346117668E0
2.100835461E0,5.410500169E-1,9.145050049E0,1.203000069E0,9.239690724E0
2.102795834E0,5.790000558E-1,9.145050049E0,1.126049995E0,9.232289535E0
2.104755635E0,4.639500082E-1,9.220950127E0,1.126049995E0,9.301030020E0
2.106715603E0,3.870000243E-1,9.298050880E0,1.011000037E0,9.360856813E0
2.108676283E0,2.340000123E-1,9.375000000E0,8.959500194E-1,9.420621394E0
2.110636755E0,1.570500135E-1,9.528000832E0,8.959500194E-1,9.571321277E0
2.112597394E0,1.960500032E-1,9.565950394E0,8.580000401E-1,9.606352409E0
2.114557985E0,1.570500135E-1,9.565950394E0,7.429500222E-1,9.596043267E0
2.116518425E0,1.189500093E-1,9.528000832E0,7.050000429E-1,9.554788015E0
2.118478910E0,4.200000316E-2,9.451050758E0,6.660000086E-1,9.474580753E0
2.120439592E0,4.200000316E-2,9.412950516E0,6.280500293E-1,9.433973089E0
2.122400216E0,4.050000105E-3,9.336000443E0,6.280500293E-1,9.357102516E0
2.124360996E0,4.050000105E-3,9.183000565E0,5.899500251E-1,9.201932232E0
2.126321740E0,-1.480500102E-1,9.145050049E0,5.509500504E-1,9.162827356E0
2.128281974E0,-1.870500147E-1,9.067950249E0,4.750500321E-1,9.082311487E0
2.130242358E0,-2.629500031E-1,9.067950249E0,4.750500321E-1,9.084191596E0
2.132203147E0,-4.170000255E-1,8.991000175E0,3.600000143E-1,9.007861743E0
2.134163817E0,-4.930500090E-1,8.953050613E0,3.600000143E-1,8.973840516E0
2.136124793E0,-6.079500318E-1,8.914950371E0,2.070000172E-1,8.938053052E0
2.138085673E0,-6.850500107E-1,8.761950493E0,1.300500035E-1,8.789652039E0
2.140046244E0,-7.999500632E-1,8.761950493E0,9.195000678E-2,8.798872163E0
2.142006906E0,-8.770500422E-1,8.647050858E0,1.500000060E-2,8.691428554E0
2.143967513E0,-9.529500604E-1,8.608050346E0,-2.205000073E-2,8.660665724E0
2.145928137E0,-9.529500604E-1,8.532000542E0,-2.205000073E-2,8.585082018E0
2.147888596E0,-1.030050039E0,8.455050468E0,-9.900000691E-2,8.518138442E0
2.149849117E0,-1.144950032E0,8.455050468E0,-9.900000691E-2,8.532794970E0
2.151809568E0,-1.144950032E0,8.377950668E0,-1.759500057E-1,8.457654898E0
2.153770040E0,-1.183050036E0,8.340000153E0,-1.369500011E-1,8.424604753E0
2.155730634E0,-1.260000110E0,8.302050591E0,-2.140500098E-1,8.399848909E0
2.157691192E0,-1.336950064E0,8.263050079E0,-2.140500098E-1,8.373246055E0
2.159651822E0,-1.413000107E0,8.263050079E0,-2.520000041E-1,8.386779472E0
2.161612428E0,-1.413000107E0,8.224950790E0,-2.910000086E-1,8.350512907E0
2.163572866E0,-1.452000022E0,8.224950790E0,-2.520000041E-1,8.355933435E0
2.165533353E0,-1.528050065E0,8.224950790E0,-3.289500177E-1,8.372153882E0
2.167493854E0,-1.605000019E0,8.187000275E0,-3.289500177E-1,8.349323725E0
2.169454351E0,-1.681950092E0,8.187000275E0,-3.289500177E-1,8.364456810E0
2.171414942E0,-1.642950058E0,8.148000717E0,-2.520000041E-1,8.315810519E0
2.173375505E0,-1.681950092E0,8.110050201E0,-2.910000086E-1,8.287734997E0
2.175335995E0,-1.950000048E0,7.995000362E0,-2.520000041E-1,8.233227495E0
2.177296507E0,-2.026050091E0,7.995000362E0,-2.520000041E-1,8.251570382E0
2.179257093E0,-1.873050094E0,8.071949959E0,-2.140500098E-1,8.289180309E0
2.181217658E0,-1.758000135E0,8.032950401E0,-2.520000041E-1,8.226928991E0
2.183178148E0,-1.758000135E0,8.110050201E0,-2.520000041E-1,8.302227577E0
2.185138660E0,-1.795950055E0,8.148000717E0,-2.520000041E-1,8.347386195E0
2.187099113E0,-1.758000135E0,8.187000275E0,-1.759500057E-1,8.375469920E0
2.189059584E0,-1.834950089E0,8.224950790E0,-1.369500011E-1,8.428262730E0
2.191020358E0,-1.834950089E0,8.302050591E0,-2.205000073E-2,8.502445062E0
2.192981043E0,-1.873050094E0,8.302050591E0,5.295000225E-2,8.510885052E0
2.194941674E0,-1.834950089E0,8.377950668E0,1.500000060E-2,8.576556665E0
2.196902334E0,-1.834950089E0,8.416950226E0,5.295000225E-2,8.614806825E0
2.198863076E0,-1.834950089E0,8.493000031E0,1.300500035E-1,8.689936959E0
2.200823793E0,-1.758000135E0,8.569950104E0,1.300500035E-1,8.749372678E0
2.202784437E0,-1.681950092E0,8.608050346E0,2.070000172E-1,8.773273955E0
2.204745103E0,-1.681950092E0,8.685000420E0,2.830500007E-1,8.850892933E0
2.206704944E0,-1.720050097E0,8.722949982E0,4.360500276E-1,8.901604818E0
2.208665026E0,-1.720050097E0,8.877000809E0,4.360500276E-1,9.052615938E0
2.210625732E0,-1.567050099E0,8.991000175E0,4.750500321E-1,9.138895048E0
2.212586255E0,-1.452000022E0,9.030000687E0,5.130000114E-1,9.160370379E0
2.214546886E0,-1.413000107E0,9.145050049E0,5.130000114E-1,9.267776363E0
2.216507486E0,-1.375050068E0,9.183000565E0,5.130000114E-1,9.299539293E0
2.218468003E0,-1.413000107E0,9.298050880E0,5.130000114E-1,9.418783812E0
2.220428521E0,-1.336950064E0,9.336000443E0,5.130000114E-1,9.445184421E0
2.222389107E0,-1.375050068E0,9.412950516E0,5.130000114E-1,9.526676709E0
2.224349673E0,-1.375050068E0,9.451050758E0,7.050000429E-1,9.576541557E0
2.226310342E0,-1.336950064E0,9.528000832E0,7.810500264E-1,9.652993031E0
2.228270980E0,-1.260000110E0,9.528000832E0,7.810500264E-1,9.642636531E0
2.230231787E0,-1.222050071E0,9.565950394E0,9.349500537E-1,9.688908345E0
2.232192534E0,-1.336950064E0,9.528000832E0,9.730500579E-1,9.670422004E0
2.234153263E0,-1.605000019E0,9.528000832E0,1.011000037E0,9.714985640E0
2.236113997E0,-1.260000110E0,9.604950905E0,1.087950110E0,9.748144316E0
2.238074412E0,-9.919500351E-1,9.565950394E0,1.011000037E0,9.670237478E0
2.240034920E0,-1.106999993E0,9.643050194E0,1.050000072E0,9.763010098E0
2.241995448E0,-1.068000078E0,9.681000710E0,1.087950110E0,9.800307870E0
2.243955949E0,-1.030050039E0,9.757950783E0,1.203000069E0,9.885636840E0
2.245916538E0,-1.106999993E0,9.757950783E0,1.203000069E0,9.893950759E0
2.247877101E0,-1.222050071E0,9.873000145E0,1.240950108E0,1.002544240E1
2.249837726E0,-1.260000110E0,9.910950661E0,1.203000069E0,1.006288987E1
2.251798332E0,-1.336950064E0,9.988050461E0,1.279950023E0,1.015809330E1
2.253758956E0,-1.413000107E0,1.010295010E1,1.240950108E0,1.027648418E1
2.255719602E0,-1.413000107E0,1.018005085E1,1.240950108E0,1.035229259E1
2.257680033E0,-1.413000107E0,1.021800041E1,1.203000069E0,1.038514857E1
2.259640527E0,-1.489950061E0,1.033305073E1,1.165050030E0,1.050472418E1
2.261601297E0,-1.489950061E0,1.041000080E1,1.126049995E0,1.057620236E1
2.263561986E0,-1.452000022E0,1.044795036E1,1.126049995E0,1.060829673E1
2.265522386E0,-1.452000022E0,1.052505016E1,1.165050030E0,1.068842021E1
2.267482887E0,-1.489950061E0,1.067805004E1,1.240950108E0,1.085267990E1
2.269443387E0,-1.489950061E0,1.075500011E1,1.203000069E0,1.092415616E1
2.271403887E0,-1.452000022E0,1.087005043E1,1.203000069E0,1.103238458E1
2.273364837E0,-1.413000107E0,1.094595051E1,1.279950023E0,1.111074587E1
2.275325655E0,-1.413000107E0,1.098495007E1,1.203000069E0,1.114059722E1
2.277286226E0,-1.375050068E0,1.106100082E1,1.126049995E0,1.120287867E1
2.279246877E0,-1.452000022E0,1.110000038E1,1.087950110E0,1.124730848E1
2.281207351E0,-1.336950064E0,1.113795090E1,1.087950110E0,1.127053775E1
2.283167877E0,-1.452000022E0,1.106100082E1,1.011000037E0,1.120161436E1
2.285128507E0,-1.528050065E0,1.117605019E1,1.126049995E0,1.133609383E1
2.287089106E0,-1.183050036E0,1.117605019E1,1.087950110E0,1.129102921E1
2.289049647E0,-1.030050039E0,1.113795090E1,8.959500194E-1,1.122130472E1
2.291010229E0,-9.529500604E-1,1.117605019E1,7.810500264E-1,1.124376497E1
2.292970849E0,-8.770500422E-1,1.117605019E1,7.050000429E-1,1.123255713E1
2.294931458E0,-7.230000496E-1,1.117605019E1,7.810500264E-1,1.122661418E1
2.296892075E0,-7.230000496E-1,1.121400070E1,8.580000401E-1,1.126999134E1
2.298852689E0,-6.079500318E-1,1.117605019E1,9.349500537E-1,1.123155522E1
2.300813377E0,-5.700000525E-1,1.117605019E1,9.730500579E-1,1.123280126E1
2.302774024E0,-4.930500090E-1,1.113795090E1,8.200500607E-1,1.117897717E1
2.304734635E0,-4.170000255E-1,1.113795090E1,7.810500264E-1,1.117308723E1
2.306695257E0,-4.170000255E-1,1.117605019E1,6.660000086E-1,1.120363971E1
2.308656006E0,-3.400500119E-1,1.110000038E1,5.130000114E-1,1.111705049E1
2.310616717E0,-3.400500119E-1,1.110000038E1,3.979500234E-1,1.111233579E1
2.312577676E0,-2.629500031E-1,1.110000038E1,4.750500321E-1,1.111327241E1
2.314538563E0,-2.629500031E-1,1.110000038E1,4.750500321E-1,1.111327241E1
2.316499178E0,-2.250000089E-1,1.106100082E1,4.750500321E-1,1.107348350E1
2.318459873E0,-1.870500147E-1,1.110000038E1,3.600000143E-1,1.110741177E1
2.320420834E0,-1.480500102E-1,1.106100082E1,3.220500052E-1,1.106667855E1
2.322381717E0,-7.200000435E-2,1.098495007E1,3.220500052E-1,1.098990574E1
2.324343129E0,-1.099500060E-1,1.102305031E1,2.449500114E-1,1.102631977E1
2.326304395E0,-7.200000435E-2,1.102305031E1,2.449500114E-1,1.102600665E1
2.328265305E0,-3.299999982E-2,1.094595051E1,2.830500007E-1,1.094965930E1
2.330226320E0,4.050000105E-3,1.094595051E1,2.070000172E-1,1.094790838E1
2.332186867E0,4.200000316E-2,1.087005043E1,2.449500114E-1,1.087289110E1
2.334147551E0,8.100000024E-2,1.087005043E1,2.449500114E-1,1.087311169E1
2.336107924E0,4.200000316E-2,1.079295063E1,2.449500114E-1,1.079581159E1
2.338068392E0,1.189500093E-1,1.083105087E1,2.830500007E-1,1.083540167E1
2.340028537E0,1.570500135E-1,1.075500011E1,3.600000143E-1,1.076216949E1
2.341988777E0,1.960500032E-1,1.071600056E1,4.750500321E-1,1.072831655E1
2.343949275E0,2.719500065E-1,1.071600056E1,4.360500276E-1,1.072831601E1
2.345909698E0,2.340000123E-1,1.071600056E1,3.600000143E-1,1.072459901E1
2.347870361E0,1.960500032E-1,1.067805004E1,2.830500007E-1,1.068359984E1
2.349830943E0,2.340000123E-1,1.071600056E1,3.220500052E-1,1.072339219E1
2.351792780E0,1.960500032E-1,1.079295063E1,2.830500007E-1,1.079844138E1
2.353754250E0,2.719500065E-1,1.079295063E1,2.830500007E-1,1.080008599E1
2.355714044E0,2.719500065E-1,1.079295063E1,2.830500007E-1,1.080008599E1
2.357674329E0,2.719500065E-1,1.087005043E1,3.220500052E-1,1.087821995E1
2.359634626E0,1.960500032E-1,1.098495007E1,3.220500052E-1,1.099141846E1
2.361594929E0,1.960500032E-1,1.102305031E1,3.600000143E-1,1.103066969E1
2.363555733E0,1.570500135E-1,1.106100082E1,4.750500321E-1,1.107231125E1
2.365516390E0,1.189500093E-1,1.110000038E1,5.899500251E-1,1.111630328E1
2.367477224E0,1.960500032E-1,1.117605019E1,7.810500264E-1,1.120502443E1
2.369438006E0,2.340000123E-1,1.125300026E1,7.810500264E-1,1.128250017E1
2.371398562E0,1.960500032E-1,1.129095078E1,8.200500607E-1,1.132238875E1
2.373359175E0,1.189500093E-1,1.129095078E1,9.349500537E-1,1.133021845E1
2.375320015E0,1.570500135E-1,1.136805058E1,1.011000037E0,1.141399841E1
2.377280789E0,1.189500093E-1,1.140600014E1,1.240950108E0,1.147392459E1
2.379241378E0,8.100000024E-2,1.140600014E1,1.395000100E0,1.149127606E1
2.381202022E0,8.100000024E-2,1.152105045E1,1.471050024E0,1.161486774E1
2.383162988E0,4.200000316E-2,1.152105045E1,1.471050024E0,1.161466124E1
2.385123862E0,4.200000316E-2,1.152105045E1,1.510050058E0,1.161966517E1
2.387084434E0,4.050000105E-3,1.155900097E1,1.624950051E0,1.167265961E1
2.389045094E0,-7.200000435E-2,1.155900097E1,1.663050056E0,1.167824571E1
2.391005657E0,-1.099500060E-1,1.163595009E1,1.816050053E0,1.177732827E1
2.392966248E0,-1.870500147E-1,1.155900097E1,1.969950080E0,1.172715628E1
2.394926667E0,-1.480500102E-1,1.148295021E1,2.161050081E0,1.168546969E1
2.396887151E0,-1.870500147E-1,1.140600014E1,2.467950106E0,1.167144398E1
2.398847788E0,-2.250000089E-1,1.132905006E1,2.659050226E0,1.163909569E1
2.400808380E0,-2.250000089E-1,1.129095078E1,2.812950134E0,1.163825085E1
2.402768865E0,-1.870500147E-1,1.125300026E1,3.004050255E0,1.164857590E1
2.404729382E0,-1.870500147E-1,1.121400070E1,3.157950163E0,1.165167150E1
2.406689980E0,-1.870500147E-1,1.117605019E1,3.118950129E0,1.160460837E1
2.408650578E0,-2.629500031E-1,1.113795090E1,3.157950163E0,1.157997159E1
2.410611197E0,-2.250000089E-1,1.110000038E1,3.273000240E0,1.157467771E1
2.412571809E0,-1.870500147E-1,1.102305031E1,3.463950157E0,1.155601906E1
2.414532560E0,-2.629500031E-1,1.102305031E1,3.541050196E0,1.158083837E1
2.416493270E0,-2.629500031E-1,1.087005043E1,3.541050196E0,1.143530391E1
2.418453559E0,-2.250000089E-1,1.075500011E1,3.618000269E0,1.134947481E1
2.420413969E0,-1.870500147E-1,1.071600056E1,3.541050196E0,1.128745729E1
2.422374393E0,-1.870500147E-1,1.048605061E1,3.579000235E0,1.108158327E1
2.424334813E0,-1.870500147E-1,1.044795036E1,3.579000235E0,1.104553743E1
2.426295147E0,-1.099500060E-1,1.025595093E1,3.618000269E0,1.087596177E1
2.428255507E0,-3.299999982E-2,1.010295010E1,3.771000147E0,1.078383660E1
2.430215617E0,1.570500135E-1,9.796050072E0,4.039050102E0,1.059722546E1
2.432175806E0,1.960500032E-1,9.720000267E0,4.231050014E0,1.060276497E1
2.434135909E0,2.340000123E-1,9.490050316E0,4.345950127E0,1.044045466E1
2.436096037E0,3.109500110E-1,9.336000443E0,4.384050369E0,1.031879314E1
2.438056374E0,4.260000288E-1,9.106050491E0,4.423050404E0,1.013237418E1
2.440016650E0,3.870000243E-1,8.953050613E0,4.308000088E0,9.943125719E0
2.441977167E0,4.050000105E-3,8.647050858E0,3.847950220E0,9.464577425E0
2.443937597E0,3.490500152E-1,8.685000420E0,3.771000147E0,9.474782863E0
2.445898830E0,9.240000248E-1,8.532000542E0,3.655950069E0,9.328171321E0
2.447859828E0,1.039050102E0,8.455050468E0,3.388050079E0,9.167681652E0
2.449820334E0,1.077000022E0,8.302050591E0,3.234000206E0,8.974560178E0
2.451780984E0,1.192050099E0,8.187000275E0,3.157950163E0,8.855540987E0
2.453741637E0,1.230000019E0,8.110050201E0,3.043050051E0,8.749055259E0
2.455702289E0,1.269000053E0,7.995000362E0,3.004050255E0,8.634506926E0
2.457663034E0,1.269000053E0,7.842000484E0,3.081000090E0,8.520557158E0
2.459623751E0,1.114950061E0,7.803000450E0,3.157950163E0,8.491323742E0
2.461584034E0,1.575000048E0,7.726950169E0,3.388050079E0,8.582847278E0
2.463544445E0,1.843950033E0,7.573050499E0,3.694050074E0,8.625384138E0
2.465505063E0,2.035050154E0,7.534950256E0,3.847950220E0,8.701932279E0
2.467465611E0,1.882050037E0,7.458000183E0,3.886050224E0,8.617729714E0
2.469425923E0,2.074050188E0,7.497000217E0,3.847950220E0,8.678330331E0
2.471386305E0,2.341950178E0,7.458000183E0,3.808950186E0,8.695665523E0
2.473346914E0,2.419050217E0,7.420050144E0,3.655950069E0,8.618289796E0
2.475307457E0,2.341950178E0,7.420050144E0,3.426000118E0,8.501726389E0
2.477267985E0,2.610000134E0,7.420050144E0,3.273000240E0,8.519493847E0
2.479228493E0,2.725050211E0,7.420050144E0,3.081000090E0,8.483843725E0
2.481188901E0,2.686950207E0,7.381950378E0,2.812950134E0,8.344194464E0
2.483149339E0,2.917050123E0,7.420050144E0,2.583000183E0,8.380824274E0
2.485109804E0,3.070050240E0,7.458000183E0,2.391000032E0,8.412125555E0
2.487070261E0,3.031950235E0,7.534950256E0,2.046000004E0,8.375817191E0
2.489030574E0,2.878050089E0,7.687950134E0,1.701000094E0,8.383385408E0
2.490990940E0,2.992950201E0,7.842000484E0,1.548000097E0,8.535281296E0
2.492951597E0,3.031950235E0,8.110050201E0,1.471050024E0,8.782347333E0
2.494912169E0,2.992950201E0,8.302050591E0,1.432950020E0,8.940645428E0
2.496872747E0,2.955000162E0,8.493000031E0,1.318050027E0,9.088472443E0
2.498833323E0,3.300000191E0,8.032950401E0,9.730500579E-1,8.738713854E0
2.500794149E0,3.184950113E0,7.957050323E0,5.130000114E-1,8.586135690E0
2.502754885E0,2.802000046E0,8.493000031E0,7.050000429E-1,8.971024403E0
2.504715481E0,2.457000017E0,8.914950371E0,1.011000037E0,9.302435717E0
2.506676118E0,2.265000105E0,9.220950127E0,1.203000069E0,9.570964208E0
2.508636909E0,2.149950027E0,9.412950516E0,1.240950108E0,9.734776818E0
2.510597654E0,2.035050154E0,9.681000710E0,1.165050030E0,9.960951031E0
2.512558288E0,1.920000076E0,9.988050461E0,1.165050030E0,1.023742614E1
2.514518959E0,1.804950118E0,1.018005085E1,1.240950108E0,1.041303209E1
2.516479699E0,1.575000048E0,1.052505016E1,1.318050027E0,1.072355174E1
2.518440418E0,1.422000051E0,1.083105087E1,1.395000100E0,1.101270959E1
2.520401196E0,1.306950092E0,1.106100082E1,1.432950020E0,1.122974637E1
2.522361957E0,1.230000019E0,1.121400070E1,1.432950020E0,1.137189771E1
2.524322369E0,1.114950061E0,1.144395065E1,1.471050024E0,1.159185526E1
2.526282883E0,1.039050102E0,1.167405033E1,1.471050024E0,1.181215748E1
2.528243335E0,8.850000501E-1,1.186605072E1,1.471050024E0,1.198959436E1
2.530203806E0,6.169500351E-1,1.205805016E1,1.471050024E0,1.216310771E1
2.532163365E0,4.639500082E-1,1.232595062E1,1.471050024E0,1.242208906E1
2.534123191E0,3.109500110E-1,1.251795101E1,1.510050058E0,1.261253498E1
2.536083786E0,8.100000024E-2,1.270905018E1,1.471050024E0,1.279415904E1
2.538044169E0,-1.480500102E-1,1.286295033E1,1.432950020E0,1.294336724E1
2.540005004E0,-2.250000089E-1,1.293900108E1,1.240950108E0,1.300032043E1
2.541965707E0,-1.870500147E-1,1.301595020E1,1.126049995E0,1.306590739E1
2.543926083E0,-3.019500077E-1,1.309305096E1,1.011000037E0,1.313549688E1
2.545886555E0,-4.170000255E-1,1.313100052E1,9.349500537E-1,1.317084641E1
2.547847030E0,-5.320500135E-1,1.313100052E1,8.580000401E-1,1.316975383E1
2.549807493E0,-7.230000496E-1,1.313100052E1,7.429500222E-1,1.317185934E1
2.551768134E0,-8.770500422E-1,1.309305096E1,7.050000429E-1,1.314131748E1
2.553728722E0,-9.919500351E-1,1.297800064E1,7.050000429E-1,1.303493347E1
2.555689342E0,-1.144950032E0,1.290105057E1,6.660000086E-1,1.296886935E1
2.557649953E0,-1.336950064E0,1.267095089E1,4.750500321E-1,1.275014135E1
2.559611261E0,-1.452000022E0,1.255605030E1,2.070000172E-1,1.264142208E1
2.561572386E0,-1.528050065E0,1.240305042E1,1.680000126E-1,1.249795266E1
2.563532239E0,-1.642950058E0,1.236405087E1,5.130000114E-1,1.248327712E1
2.565492465E0,-1.758000135E0,1.221105099E1,7.429500222E-1,1.235930036E1
2.567453326E0,-1.720050097E0,1.198095036E1,6.280500293E-1,1.212007387E1
2.569414001E0,-1.795950055E0,1.178895092E1,3.600000143E-1,1.193039817E1
2.571374800E0,-1.911000133E0,1.167405033E1,4.360500276E-1,1.183746224E1
2.573335553E0,-1.950000048E0,1.155900097E1,5.130000114E-1,1.173354902E1
2.575296461E0,-1.950000048E0,1.144395065E1,3.979500234E-1,1.161571655E1
2.577257323E0,-2.026050091E0,1.129095078E1,2.830500007E-1,1.147477955E1
2.579218797E0,-2.026050091E0,1.117605019E1,2.070000172E-1,1.136009796E1
2.581180092E0,-2.103000164E0,1.102305031E1,1.300500035E-1,1.122261827E1
2.583140836E0,-2.065050125E0,1.102305031E1,1.300500035E-1,1.121556878E1
2.585101728E0,-2.103000164E0,1.087005043E1,1.300500035E-1,1.107237640E1
2.587062476E0,-2.026050091E0,1.071600056E1,5.295000225E-2,1.090597775E1
2.589023267E0,-2.026050091E0,1.044795036E1,-9.900000691E-2,1.064304218E1
2.590983807E0,-1.795950055E0,9.720000267E0,-8.659500480E-1,9.922384354E0
2.592944421E0,-1.605000019E0,9.835050583E0,-2.520000041E-1,9.968337325E0
2.594905055E0,-1.795950055E0,9.873000145E0,5.295000225E-2,1.003515681E1
2.596865669E0,-1.873050094E0,9.835050583E0,1.300500035E-1,1.001266446E1
2.598826151E0,-1.758000135E0,9.835050583E0,1.680000126E-1,9.992347494E0
2.600786671E0,-1.681950092E0,9.910950661E0,2.830500007E-1,1.005664041E1
2.602747302E0,-1.720050097E0,9.949950218E0,3.600000143E-1,1.010394387E1
2.604707900E0,-1.720050097E0,9.949950218E0,2.830500007E-1,1.010149489E1
2.606668338E0,-1.681950092E0,1.002600002E1,2.070000172E-1,1.016820936E1
2.608628824E0,-1.605000019E0,1.010295010E1,9.195000678E-2,1.023005770E1
2.610589056E0,-1.605000019E0,1.010295010E1,1.500000060E-2,1.022965545E1
2.612549363E0,-1.528050065E0,1.006500053E1,-1.759500057E-1,1.018185303E1
2.614510030E0,-1.375050068E0,1.014105034E1,-2.520000041E-1,1.023695114E1
2.616470592E0,-1.375050068E0,1.014105034E1,-9.900000691E-2,1.023432781E1
2.618430902E0,-1.297950029E0,1.014105034E1,1.500000060E-2,1.022378605E1
2.620391286E0,-1.183050036E0,1.006500053E1,9.195000678E-2,1.013470759E1
2.622352075E0,-1.106999993E0,1.014105034E1,5.295000225E-2,1.020142905E1
2.624312745E0,-9.919500351E-1,1.006500053E1,1.300500035E-1,1.011459903E1
2.626272992E0,-9.150000215E-1,9.988050461E0,5.295000225E-2,1.003001400E1
2.628233363E0,-8.770500422E-1,9.988050461E0,-2.205000073E-2,1.002650762E1
2.630193894E0,-7.620000243E-1,9.949950218E0,1.500000060E-2,9.979097072E0
2.632154371E0,-7.620000243E-1,9.835050583E0,1.500000060E-2,9.864536938E0
2.634114831E0,-6.469500065E-1,9.757950783E0,-6.105000153E-2,9.779564146E0
2.636075296E0,-5.700000525E-1,9.604950905E0,-9.900000691E-2,9.622358492E0
2.638036251E0,-4.930500090E-1,9.528000832E0,-9.900000691E-2,9.541262975E0
2.639997063E0,-4.549500346E-1,9.528000832E0,-9.900000691E-2,9.539370020E0
2.641957664E0,-3.400500119E-1,9.490050316E0,-9.900000691E-2,9.496656781E0
2.643918314E0,-2.250000089E-1,9.375000000E0,-9.900000691E-2,9.378222167E0
2.645879283E0,-1.480500102E-1,9.298050880E0,-1.759500057E-1,9.300893902E0
2.647840158E0,-1.480500102E-1,9.183000565E0,-2.520000041E-1,9.187650525E0
2.649800955E0,-3.299999982E-2,9.145050049E0,-2.140500098E-1,9.147614268E0
2.651761775E0,8.100000024E-2,9.030000687E0,-2.910000086E-1,9.035051433E0
2.653722518E0,1.189500093E-1,8.877000809E0,-2.910000086E-1,8.882565703E0
2.655683296E0,1.570500135E-1,8.722949982E0,-3.289500177E-1,8.730562937E0
2.657644063E0,2.340000123E-1,8.608050346E0,-3.289500177E-1,8.617510945E0
2.659604834E0,3.109500110E-1,8.493000031E0,-3.670500219E-1,8.506613024E0
2.661565603E0,3.109500110E-1,8.340000153E0,-4.060500264E-1,8.355666884E0
2.663526373E0,3.490500152E-1,8.224950790E0,-4.819500148E-1,8.246449371E0
2.665486917E0,4.260000288E-1,8.110050201E0,-4.440000355E-1,8.133358859E0
2.667447527E0,3.870000243E-1,8.071949959E0,-4.440000355E-1,8.093409738E0
2.669407783E0,4.260000288E-1,7.918050289E0,-4.060500264E-1,7.939891248E0
2.671368142E0,5.020500422E-1,7.879950523E0,-3.670500219E-1,7.904454454E0
2.673328981E0,4.639500082E-1,7.765050411E0,-3.289500177E-1,7.785850346E0
2.675289679E0,4.260000288E-1,7.726950169E0,-3.289500177E-1,7.745672537E0
2.677250146E0,4.260000288E-1,7.650000572E0,-3.670500219E-1,7.670639510E0
2.679210681E0,4.260000288E-1,7.726950169E0,-4.060500264E-1,7.749329749E0
2.681171264E0,4.260000288E-1,7.687950134E0,-4.819500148E-1,7.714812318E0
2.683131832E0,5.020500422E-1,7.650000572E0,-5.970000029E-1,7.689666573E0
2.685092817E0,4.639500082E-1,7.687950134E0,-5.590500236E-1,7.722199415E0
2.687053679E0,3.870000243E-1,7.726950169E0,-7.120500207E-1,7.769333508E0
2.689014570E0,3.490500152E-1,7.726950169E0,-6.739500165E-1,7.764135718E0
2.690975482E0,3.490500152E-1,7.765050411E0,-5.970000029E-1,7.795784297E0
2.692936048E0,1.960500032E-1,7.803000450E0,-5.209500194E-1,7.822828168E0
2.694896715E0,1.960500032E-1,7.765050411E0,-5.970000029E-1,7.790433396E0
2.696857321E0,2.340000123E-1,7.803000450E0,-5.209500194E-1,7.823871226E0
2.698817945E0,1.570500135E-1,7.842000484E0,-5.590500236E-1,7.863470813E0
2.700778568E0,1.189500093E-1,7.765050411E0,-6.739500165E-1,7.795150134E0
2.702739185E0,1.960500032E-1,7.573050499E0,-8.269500136E-1,7.620588940E0
2.704699800E0,4.200000316E-2,7.267050266E0,-1.516950130E0,7.423807734E0
2.706660416E0,1.960500032E-1,7.497000217E0,-9.040500522E-1,7.553856920E0
2.708621075E0,4.050000105E-3,7.650000572E0,-4.440000355E-1,7.662875517E0
2.710581722E0,-1.480500102E-1,7.765050411E0,-3.289500177E-1,7.773424909E0
2.712542487E0,-2.250000089E-1,7.957050323E0,-3.289500177E-1,7.967024725E0
2.714503203E0,-3.400500119E-1,7.995000362E0,-6.360000372E-1,8.027462915E0
2.716463982E0,-4.170000255E-1,8.071949959E0,-5.970000029E-1,8.104731591E0
2.718424742E0,-4.930500090E-1,8.187000275E0,-5.209500194E-1,8.218361195E0
2.720385693E0,-5.320500135E-1,8.187000275E0,-7.510500550E-1,8.238575538E0
2.722346588E0,-6.079500318E-1,8.302050591E0,-1.057050109E0,8.391126395E0
2.724307530E0,-6.850500107E-1,8.224950790E0,-1.096050024E0,8.325889423E0
2.726268448E0,-5.700000525E-1,8.302050591E0,-1.018950105E0,8.383746381E0
2.728229238E0,-6.079500318E-1,8.493000031E0,-6.360000372E-1,8.538451195E0
2.730190065E0,-6.850500107E-1,8.569950104E0,-5.970000029E-1,8.617989748E0
2.732151139E0,-7.999500632E-1,8.647050858E0,-6.360000372E-1,8.707232895E0
2.734112140E0,-8.380500674E-1,8.647050858E0,-8.659500480E-1,8.730617729E0
2.736072897E0,-8.770500422E-1,8.647050858E0,-1.018950105E0,8.750940785E0
2.738033739E0,-9.529500604E-1,8.647050858E0,-1.057050109E0,8.763387318E0
2.739994450E0,-9.919500351E-1,8.608050346E0,-1.018950105E0,8.724720910E0
2.741955200E0,-9.919500351E-1,8.647050858E0,-1.057050109E0,8.767713974E0
2.743915972E0,-9.919500351E-1,8.608050346E0,-1.057050109E0,8.729252578E0
2.745876737E0,-1.030050039E0,8.647050858E0,-1.134000063E0,8.781710981E0
2.747837367E0,-1.068000078E0,8.608050346E0,-1.134000063E0,8.747863229E0
2.749798041E0,-1.144950032E0,8.493000031E0,-1.018950105E0,8.630192316E0
2.751758781E0,-1.106999993E0,8.455050468E0,-1.057050109E0,8.592478242E0
2.753719501E0,-1.144950032E0,8.377950668E0,-1.057050109E0,8.521638511E0
2.755679964E0,-1.183050036E0,8.263050079E0,-1.057050109E0,8.413974027E0
2.757640503E0,-1.183050036E0,8.263050079E0,-1.057050109E0,8.413974027E0
2.759601090E0,-1.222050071E0,8.148000717E0,-1.057050109E0,8.306664613E0
2.761561660E0,-1.260000110E0,8.110050201E0,-1.096050024E0,8.280207739E0
2.763522283E0,-1.260000110E0,8.110050201E0,-1.134000063E0,8.285316571E0
2.765482891E0,-1.297950029E0,8.032950401E0,-1.096050024E0,8.210620688E0
2.767443374E0,-1.297950029E0,7.957050323E0,-1.057050109E0,8.131216333E0
2.769403893E0,-1.336950064E0,7.879950523E0,-1.171950102E0,8.078027158E0
2.771364503E0,-1.336950064E0,7.879950523E0,-1.171950102E0,8.078027158E0
2.773325101E0,-1.336950064E0,7.879950523E0,-1.210950017E0,8.083777314E0
2.775286035E0,-1.297950029E0,7.879950523E0,-1.210950017E0,8.077418800E0
2.777246871E0,-1.222050071E0,7.995000362E0,-1.210950017E0,8.178009361E0
2.779207630E0,-1.183050036E0,8.071949959E0,-1.249050021E0,8.253248420E0
2.781168411E0,-1.222050071E0,8.148000717E0,-1.249050021E0,8.333273548E0
2.783129043E0,-1.260000110E0,8.187000275E0,-1.210950017E0,8.371437972E0
2.785089719E0,-1.260000110E0,8.340000153E0,-1.249050021E0,8.526624700E0
2.787050279E0,-1.336950064E0,8.340000153E0,-1.171950102E0,8.527397320E0
2.789010873E0,-1.297950029E0,8.377950668E0,-1.171950102E0,8.558516152E0
2.790971131E0,-1.297950029E0,8.455050468E0,-1.057050109E0,8.619159335E0
2.792931488E0,-1.260000110E0,8.455050468E0,-1.096050024E0,8.618399176E0
2.794892133E0,-1.297950029E0,8.455050468E0,-1.018950105E0,8.614569752E0
2.796852703E0,-1.260000110E0,8.455050468E0,-1.018950105E0,8.608933617E0
2.798813371E0,-1.260000110E0,8.455050468E0,-1.018950105E0,8.608933617E0
2.800774011E0,-1.336950064E0,8.416950226E0,-9.810000658E-1,8.578743947E0
2.802734757E0,-1.297950029E0,8.340000153E0,-9.810000658E-1,8.497213541E0
2.804695472E0,-1.297950029E0,8.302050591E0,-1.018950105E0,8.464453769E0
2.806656106E0,-1.336950064E0,8.377950668E0,-9.810000658E-1,8.540483242E0
2.808616771E0,-1.336950064E0,8.340000153E0,-9.810000658E-1,8.503258149E0
2.810577557E0,-1.297950029E0,8.416950226E0,-9.810000658E-1,8.572752563E0
2.812538307E0,-1.375050068E0,8.377950668E0,-1.018950105E0,8.550969501E0
2.814499215E0,-1.413000107E0,8.377950668E0,-1.057050109E0,8.561774444E0
2.816460076E0,-1.375050068E0,8.340000153E0,-1.096050024E0,8.523361478E0
2.818420641E0,-1.375050068E0,8.340000153E0,-1.134000063E0,8.528324652E0
2.820381300E0,-1.375050068E0,8.340000153E0,-1.134000063E0,8.528324652E0
2.822342267E0,-1.297950029E0,8.302050591E0,-1.171950102E0,8.484231570E0
2.824303144E0,-1.336950064E0,8.302050591E0,-1.249050021E0,8.501270813E0
2.826263896E0,-1.260000110E0,8.340000153E0,-1.287000060E0,8.532266520E0
2.828224685E0,-1.260000110E0,8.302050591E0,-1.249050021E0,8.489509423E0
2.830185625E0,-1.222050071E0,8.263050079E0,-1.326000094E0,8.457522051E0
2.832146524E0,-1.222050071E0,8.263050079E0,-1.363950014E0,8.463554964E0
2.834107451E0,-1.183050036E0,8.224950790E0,-1.441050053E0,8.433626038E0
2.836068370E0,-1.144950032E0,8.224950790E0,-1.516950130E0,8.441674228E0
2.838028980E0,-1.106999993E0,8.187000275E0,-1.555950046E0,8.406747470E0
2.839989680E0,-1.106999993E0,8.148000717E0,-1.594050050E0,8.375939364E0
2.841950415E0,-1.068000078E0,8.148000717E0,-1.632000089E0,8.378183821E0
2.843911139E0,-1.106999993E0,8.148000717E0,-1.671000123E0,8.390924030E0
2.845871916E0,-1.106999993E0,8.187000275E0,-1.671000123E0,8.428799671E0
2.847832678E0,-1.068000078E0,8.302050591E0,-1.747050047E0,8.550839259E0
2.849793674E0,-1.144950032E0,8.377950668E0,-1.824000120E0,8.650314700E0
2.851754601E0,-1.106999993E0,8.455050468E0,-1.939050078E0,8.744898091E0
2.853715284E0,-1.106999993E0,8.569950104E0,-1.939050078E0,8.856037995E0
2.855676050E0,-1.068000078E0,8.647050858E0,-2.053950071E0,8.951582184E0
2.857636818E0,-1.068000078E0,8.722949982E0,-2.169000149E0,9.051797733E0
2.859597586E0,-1.106999993E0,8.877000809E0,-2.169000149E0,9.204952688E0
2.861558581E0,-1.068000078E0,8.991000175E0,-2.245050192E0,9.328395290E0
2.863519509E0,-1.030050039E0,9.106050491E0,-2.206950188E0,9.426122626E0
2.865480382E0,-1.030050039E0,9.259950638E0,-2.245050192E0,9.583733055E0
2.867441275E0,-9.919500351E-1,9.375000000E0,-2.206950188E0,9.682211473E0
2.869401843E0,-9.529500604E-1,9.490050316E0,-2.284050226E0,9.807448917E0
2.871362506E0,-8.770500422E-1,9.565950394E0,-2.245050192E0,9.864931529E0
2.873323293E0,-7.999500632E-1,9.643050194E0,-2.245050192E0,9.933206305E0
2.875284043E0,-7.999500632E-1,9.757950783E0,-2.245050192E0,1.004478840E1
2.877244686E0,-7.999500632E-1,9.796050072E0,-2.169000149E0,1.006514177E1
2.879205357E0,-7.999500632E-1,9.949950218E0,-2.092050076E0,1.019892656E1
2.881165782E0,-7.999500632E-1,1.006500053E1,-1.977000117E0,1.028847342E1
2.883126280E0,-7.620000243E-1,1.018005085E1,-1.939050078E0,1.039105358E1
2.885086869E0,-7.999500632E-1,1.021800041E1,-1.977000117E0,1.043819822E1
2.887047432E0,-8.770500422E-1,1.037100029E1,-1.977000117E0,1.059412069E1
2.889008062E0,-8.380500674E-1,1.037100029E1,-1.939050078E0,1.058394492E1
2.890968668E0,-8.380500674E-1,1.044795036E1,-1.900950074E0,1.065249294E1
2.892929330E0,-9.150000215E-1,1.048605061E1,-1.861950040E0,1.068930963E1
2.894889976E0,-9.529500604E-1,1.048605061E1,-1.824000120E0,1.068608196E1
2.896850721E0,-9.919500351E-1,1.044795036E1,-1.786050081E0,1.064582578E1
2.898811437E0,-1.068000078E0,1.041000080E1,-1.708950043E0,1.060326606E1
2.900772581E0,-1.144950032E0,1.033305073E1,-1.671000123E0,1.052972409E1
2.902733596E0,-1.260000110E0,1.025595093E1,-1.594050050E0,1.045529174E1
2.904694189E0,-1.375050068E0,1.018005085E1,-1.479000092E0,1.037842181E1
2.906654906E0,-1.489950061E0,1.010295010E1,-1.402050018E0,1.030802096E1
2.908615863E0,-1.605000019E0,1.006500053E1,-1.402050018E0,1.028814877E1
2.910576750E0,-1.720050097E0,9.949950218E0,-1.326000094E0,1.018422103E1
2.912537320E0,-1.873050094E0,9.873000145E0,-1.210950017E0,1.012180065E1
2.914497983E0,-1.950000048E0,9.796050072E0,-1.249050021E0,1.006604307E1
2.916458365E0,-2.026050091E0,9.757950783E0,-1.171950102E0,1.003473714E1
2.918418829E0,-2.140950203E0,9.720000267E0,-1.171950102E0,1.002175334E1
2.920379469E0,-2.218050003E0,9.681000710E0,-1.210950017E0,1.000539457E1
2.922340058E0,-2.332950115E0,9.604950905E0,-1.249050021E0,9.962824102E0
2.924300697E0,-2.371050119E0,9.604950905E0,-1.210950017E0,9.967113950E0
2.926261308E0,-2.524950027E0,9.604950905E0,-1.287000060E0,1.001433092E1
2.928221969E0,-2.640000105E0,9.604950905E0,-1.326000094E0,1.004902775E1
2.930182615E0,-2.640000105E0,9.681000710E0,-1.363950014E0,1.012678305E1
2.932143181E0,-2.716050148E0,9.681000710E0,-1.441050053E0,1.015752570E1
2.934103771E0,-2.755050182E0,9.796050072E0,-1.516950130E0,1.028853907E1
2.936064449E0,-2.755050182E0,9.796050072E0,-1.632000089E0,1.030613035E1
2.938025091E0,-2.755050182E0,9.910950661E0,-1.708950043E0,1.042773968E1
2.939985523E0,-2.755050182E0,9.988050461E0,-1.786050081E0,1.051386838E1
2.941946016E0,-2.716050148E0,1.006500053E1,-1.861950040E0,1.058999632E1
2.943906786E0,-2.677950144E0,1.014105034E1,-1.900950074E0,1.065954643E1
2.945867475E0,-2.563050032E0,1.021800041E1,-1.900950074E0,1.070468912E1
2.947828124E0,-2.563050032E0,1.029495049E1,-1.939050078E0,1.078494998E1
2.949788785E0,-2.485950232E0,1.033305073E1,-1.900950074E0,1.079655024E1
2.951749348E0,-2.410050154E0,1.041000080E1,-2.014950037E0,1.087366001E1
2.953709939E0,-2.295000076E0,1.041000080E1,-2.130000114E0,1.087069651E1
2.955670783E0,-2.256000042E0,1.048605061E1,-2.130000114E0,1.093543296E1
2.957631552E0,-2.179949999E0,1.052505016E1,-2.130000114E0,1.095745241E1
2.959592131E0,-2.103000164E0,1.056300068E1,-2.206950188E0,1.099409942E1
2.961552742E0,-2.026050091E0,1.056300068E1,-2.206950188E0,1.097963986E1
2.963513717E0,-1.950000048E0,1.060095024E1,-2.206950188E0,1.100242134E1
2.965474586E0,-1.873050094E0,1.067805004E1,-2.130000114E0,1.104834693E1
2.967435159E0,-1.834950089E0,1.071600056E1,-2.092050076E0,1.107142192E1
2.969395819E0,-1.758000135E0,1.075500011E1,-1.977000117E0,1.107560930E1
2.971356246E0,-1.758000135E0,1.083105087E1,-1.939050078E0,1.114280677E1
2.973316742E0,-1.758000135E0,1.090800095E1,-1.786050081E0,1.119218585E1
2.975276882E0,-1.720050097E0,1.094595051E1,-1.747050047E0,1.121715600E1
2.977237127E0,-1.720050097E0,1.106100082E1,-1.671000123E0,1.131797477E1
2.979197579E0,-1.758000135E0,1.106100082E1,-1.671000123E0,1.132380436E1
2.981157971E0,-1.720050097E0,1.113795090E1,-1.671000123E0,1.139318937E1
2.983118440E0,-1.758000135E0,1.121400070E1,-1.671000123E0,1.147330021E1
2.985078889E0,-1.720050097E0,1.121400070E1,-1.632000089E0,1.146192865E1
2.987039039E0,-1.681950092E0,1.129095078E1,-1.594050050E0,1.152629694E1
2.988999276E0,-1.642950058E0,1.129095078E1,-1.594050050E0,1.152067055E1
2.990959775E0,-1.642950058E0,1.125300026E1,-1.632000089E0,1.148880864E1
2.992920197E0,-1.642950058E0,1.132905006E1,-1.594050050E0,1.155801262E1
2.994880660E0,-1.642950058E0,1.129095078E1,-1.555950046E0,1.151546069E1
2.996841115E0,-1.528050065E0,1.129095078E1,-1.555950046E0,1.149962986E1
2.998801534E0,-1.528050065E0,1.129095078E1,-1.516950130E0,1.149441795E1
3.000761963E0,-1.528050065E0,1.129095078E1,-1.479000092E0,1.148947117E1
3.002722115E0,-1.567050099E0,1.125300026E1,-1.441050053E0,1.145261045E1
3.004682348E0,-1.489950061E0,1.121400070E1,-1.363950014E0,1.139447772E1
3.006642794E0,-1.528050065E0,1.121400070E1,-1.287000060E0,1.139057145E1
3.008603183E0,-1.528050065E0,1.117605019E1,-1.134000063E0,1.133688630E1
3.010563657E0,-1.489950061E0,1.117605019E1,-1.057050109E0,1.132437212E1
3.012524106E0,-1.489950061E0,1.113795090E1,-9.420000315E-1,1.127658040E1
3.014484750E0,-1.528050065E0,1.113795090E1,-8.659500480E-1,1.127558232E1
3.016445337E0,-1.567050099E0,1.113795090E1,-7.890000343E-1,1.127528790E1
3.018405466E0,-1.567050099E0,1.113795090E1,-6.739500165E-1,1.126782165E1
3.020365727E0,-1.567050099E0,1.117605019E1,-5.970000029E-1,1.130115714E1
3.022326177E0,-1.528050065E0,1.117605019E1,-5.970000029E-1,1.129581532E1
3.024286572E0,-1.489950061E0,1.121400070E1,-5.209500194E-1,1.132453760E1
3.026247405E0,-1.528050065E0,1.125300026E1,-5.590500236E-1,1.137002589E1
3.028208110E0,-1.489950061E0,1.125300026E1,-5.209500194E-1,1.136315779E1
3.030168610E0,-1.336950064E0,1.132905006E1,-4.440000355E-1,1.141630180E1
3.032129146E0,-1.375050068E0,1.132905006E1,-3.670500219E-1,1.141809370E1
3.034089595E0,-1.260000110E0,1.136805058E1,-3.670500219E-1,1.144355276E1
3.036050069E0,-1.222050071E0,1.148295021E1,-4.060500264E-1,1.155493092E1
3.038010708E0,-1.183050036E0,1.152105045E1,-3.289500177E-1,1.158630308E1
3.039971298E0,-1.068000078E0,1.159800053E1,-2.140500098E-1,1.164903677E1
3.041932293E0,-9.919500351E-1,1.159800053E1,-2.910000086E-1,1.164397965E1
3.043893159E0,-8.380500674E-1,1.175100040E1,-1.759500057E-1,1.178216011E1
3.045853688E0,-7.620000243E-1,1.182795048E1,-2.205000073E-2,1.185249099E1
3.047814315E0,-6.850500107E-1,1.182795048E1,9.195000678E-2,1.184812900E1
3.049774252E0,-6.469500065E-1,1.190400028E1,1.300500035E-1,1.192227663E1
3.051734392E0,-4.930500090E-1,1.194300079E1,3.220500052E-1,1.195751155E1
3.053694488E0,-3.780000210E-1,1.201905060E1,3.220500052E-1,1.202930495E1
3.055654608E0,-2.629500031E-1,1.209600067E1,4.750500321E-1,1.210818101E1
3.057615307E0,-1.099500060E-1,1.209600067E1,7.050000429E-1,1.211702712E1
3.059575836E0,-3.299999982E-2,1.209600067E1,8.200500607E-1,1.212381142E1
3.061536152E0,1.189500093E-1,1.217295074E1,9.349500537E-1,1.220938207E1
3.063496531E0,1.960500032E-1,1.213395023E1,1.050000072E0,1.218087370E1
3.065457214E0,3.490500152E-1,1.213395023E1,1.126049995E0,1.219108579E1
3.067417788E0,5.020500422E-1,1.205805016E1,1.165050030E0,1.212460182E1
3.069379312E0,6.550500393E-1,1.201905060E1,1.279950023E0,1.210474865E1
3.071340558E0,8.089500666E-1,1.194300079E1,1.356000066E0,1.204692510E1
3.073301021E0,9.240000248E-1,1.186605072E1,1.279950023E0,1.197059764E1
3.075261714E0,1.114950061E0,1.175100040E1,1.395000100E0,1.188592232E1
3.077222000E0,1.153950095E0,1.163595009E1,1.471050024E0,1.178519934E1
3.079182406E0,1.230000019E0,1.148295021E1,1.471050024E0,1.164195146E1
3.081142876E0,1.345050097E0,1.129095078E1,1.471050024E0,1.146554479E1
3.083103327E0,1.459950089E0,1.110000038E1,1.510050058E0,1.129697809E1
3.085063926E0,1.575000048E0,1.090800095E1,1.510050058E0,1.112408922E1
3.087024481E0,1.614000082E0,1.071600056E1,1.548000097E0,1.094687026E1
3.088985282E0,1.690050125E0,1.048605061E1,1.585950017E0,1.073912306E1
3.090946014E0,1.804950118E0,1.021800041E1,1.585950017E0,1.049669542E1
3.092906790E0,1.843950033E0,9.988050461E0,1.585950017E0,1.027990959E1
3.094867553E0,1.882050037E0,9.873000145E0,1.585950017E0,1.017514038E1
3.096828009E0,1.920000076E0,9.681000710E0,1.510050058E0,9.984409157E0
3.098788555E0,1.959000111E0,9.451050758E0,1.510050058E0,9.769354792E0
3.100749523E0,1.959000111E0,9.259950638E0,1.510050058E0,9.584603196E0
3.102710380E0,1.882050037E0,9.106050491E0,1.471050024E0,9.414151904E0
3.104671135E0,1.882050037E0,8.914950371E0,1.510050058E0,9.235729729E0
3.106631920E0,1.882050037E0,8.722949982E0,1.471050024E0,9.044111725E0
3.108592642E0,1.843950033E0,8.569950104E0,1.471050024E0,8.888654830E0
3.110553382E0,1.804950118E0,8.416950226E0,1.471050024E0,8.733091332E0
3.112514001E0,1.729050040E0,8.263050079E0,1.471050024E0,8.569223934E0
3.114474670E0,1.690050125E0,8.110050201E0,1.471050024E0,8.413867830E0
3.116435231E0,1.614000082E0,7.957050323E0,1.432950020E0,8.244573480E0
3.118395824E0,1.345050097E0,7.687950134E0,1.432950020E0,7.935180073E0
3.120356487E0,1.269000053E0,7.726950169E0,1.356000066E0,7.947002971E0
3.122317129E0,1.498950124E0,7.650000572E0,1.395000100E0,7.919304610E0
3.124277880E0,1.651950121E0,7.534950256E0,1.395000100E0,7.839033094E0
3.126238596E0,1.651950121E0,7.381950378E0,1.279950023E0,7.672053353E0
3.128199195E0,1.537050128E0,7.420050144E0,1.126049995E0,7.660786894E0
3.130159829E0,1.384050012E0,7.381950378E0,1.011000037E0,7.578318210E0
3.132120261E0,1.306950092E0,7.342950344E0,1.011000037E0,7.526563583E0
3.134080752E0,1.269000053E0,7.342950344E0,1.126049995E0,7.536396319E0
3.136041413E0,1.192050099E0,7.305000305E0,1.087950110E0,7.481152875E0
3.138002038E0,1.039050102E0,7.342950344E0,1.165050030E0,7.507055777E0
3.139962608E0,1.039050102E0,7.381950378E0,1.126049995E0,7.539284124E0
3.141923194E0,9.240000248E-1,7.458000183E0,1.240950108E0,7.616790659E0
3.143883813E0,9.619500637E-1,7.458000183E0,1.356000066E0,7.641063462E0
3.145844423E0,9.240000248E-1,7.534950256E0,1.356000066E0,7.711548975E0
3.147804871E0,9.240000248E-1,7.573050499E0,1.318050027E0,7.742230026E0
3.149765391E0,8.470500112E-1,7.650000572E0,1.356000066E0,7.815288776E0
3.151725842E0,7.320000529E-1,7.726950169E0,1.356000066E0,7.879106495E0
3.153686314E0,6.550500393E-1,7.842000484E0,1.318050027E0,7.978929629E0
3.155645828E0,5.020500422E-1,7.957050323E0,1.318050027E0,8.081086559E0
3.157605622E0,3.109500110E-1,8.071949959E0,1.318050027E0,8.184761568E0
3.159566197E0,2.340000123E-1,8.187000275E0,1.318050027E0,8.295720908E0
3.161526543E0,1.570500135E-1,8.224950790E0,1.318050027E0,8.331370601E0
3.163487205E0,8.100000024E-2,8.340000153E0,1.318050027E0,8.443898354E0
3.165447774E0,8.100000024E-2,8.455050468E0,1.318050027E0,8.557551945E0
3.167408397E0,1.189500093E-1,8.493000031E0,1.318050027E0,8.595490358E0
3.169369004E0,8.100000024E-2,8.608050346E0,1.279950023E0,8.703066346E0
3.171329681E0,-3.299999982E-2,8.722949982E0,1.356000066E0,8.827778971E0
3.173290327E0,-1.099500060E-1,8.838000298E0,1.471050024E0,8.960263748E0
3.175251073E0,-1.870500147E-1,8.991000175E0,1.471050024E0,9.112467286E0
3.177211789E0,-2.250000089E-1,9.106050491E0,1.510050058E0,9.233148528E0
3.179172253E0,-1.870500147E-1,9.183000565E0,1.510050058E0,9.308208112E0
3.181132791E0,-2.250000089E-1,9.259950638E0,1.471050024E0,9.378768522E0
3.183093239E0,-3.780000210E-1,9.336000443E0,1.471050024E0,9.458740743E0
3.185053714E0,-3.019500077E-1,9.298050880E0,1.471050024E0,9.418540872E0
3.187014668E0,-5.700000525E-1,9.259950638E0,1.471050024E0,9.393379267E0
3.188975481E0,-6.469500065E-1,9.412950516E0,1.395000100E0,9.537725463E0
3.190936109E0,-5.320500135E-1,9.490050316E0,1.356000066E0,9.601190988E0
3.192896791E0,-3.780000210E-1,9.490050316E0,1.356000066E0,9.593887387E0
3.194857413E0,-3.400500119E-1,9.490050316E0,1.240950108E0,9.576880817E0
3.196818040E0,-2.629500031E-1,9.528000832E0,1.240950108E0,9.612070522E0
3.198778608E0,-2.629500031E-1,9.528000832E0,1.279950023E0,9.617183299E0
3.200739194E0,-2.250000089E-1,9.565950394E0,1.203000069E0,9.643922496E0
3.202699679E0,-2.250000089E-1,9.604950905E0,1.240950108E0,9.687397177E0
3.204660194E0,-1.870500147E-1,9.604950905E0,1.240950108E0,9.686590048E0
3.206620781E0,-1.099500060E-1,9.604950905E0,1.165050030E0,9.675976047E0
3.208581346E0,-3.299999982E-2,9.604950905E0,1.165050030E0,9.675407612E0
3.210541970E0,4.050000105E-3,9.681000710E0,1.126049995E0,9.746270042E0
3.212502577E0,8.100000024E-2,9.643050194E0,1.126049995E0,9.708911712E0
3.214463374E0,1.189500093E-1,9.681000710E0,1.126049995E0,9.746995046E0
3.216424115E0,1.570500135E-1,9.757950783E0,1.165050030E0,9.828510048E0
3.218384375E0,1.570500135E-1,9.681000710E0,1.126049995E0,9.747534459E0
3.220344790E0,8.100000024E-2,9.757950783E0,1.087950110E0,9.818747370E0
3.222305574E0,1.570500135E-1,9.835050583E0,1.011000037E0,9.888124481E0
3.224266249E0,1.570500135E-1,9.835050583E0,8.580000401E-1,9.873654275E0
3.226226900E0,1.960500032E-1,9.873000145E0,7.810500264E-1,9.905786522E0
3.228187559E0,2.719500065E-1,9.757950783E0,7.429500222E-1,9.789971145E0
3.230148287E0,3.109500110E-1,9.643050194E0,6.660000086E-1,9.671021816E0
3.232109005E0,3.870000243E-1,9.565950394E0,4.360500276E-1,9.583700516E0
3.234069649E0,4.260000288E-1,9.490050316E0,3.600000143E-1,9.506425776E0
3.236030314E0,5.020500422E-1,9.528000832E0,4.360500276E-1,9.551177609E0
3.237992137E0,5.410500169E-1,9.528000832E0,6.660000086E-1,9.566561084E0
3.239953620E0,6.169500351E-1,9.528000832E0,7.429500222E-1,9.576815855E0
3.241914327E0,5.790000558E-1,9.490050316E0,7.050000429E-1,9.533798882E0
3.243875251E0,5.790000558E-1,9.490050316E0,7.429500222E-1,9.536680282E0
3.245835273E0,5.410500169E-1,9.490050316E0,6.660000086E-1,9.528764145E0
3.247795559E0,5.020500422E-1,9.528000832E0,7.429500222E-1,9.570100774E0
3.249757311E0,5.790000558E-1,9.565950394E0,7.429500222E-1,9.612212167E0
3.251718634E0,6.169500351E-1,9.565950394E0,7.429500222E-1,9.614572742E0
3.253678949E0,5.790000558E-1,9.604950905E0,6.660000086E-1,9.645407143E0
3.255639559E0,5.790000558E-1,9.643050194E0,7.050000429E-1,9.686107741E0
3.257600310E0,5.790000558E-1,9.643050194E0,7.050000429E-1,9.686107741E0
3.259561019E0,6.169500351E-1,9.643050194E0,7.810500264E-1,9.694280970E0
3.261521123E0,6.940500140E-1,9.643050194E0,8.580000401E-1,9.705992300E0
3.263481405E0,5.790000558E-1,9.643050194E0,8.580000401E-1,9.698444317E0
3.265441137E0,5.790000558E-1,9.643050194E0,9.349500537E-1,9.705554580E0
3.267401026E0,5.020500422E-1,9.604950905E0,9.730500579E-1,9.667158970E0
3.269361945E0,4.260000288E-1,9.490050316E0,1.011000037E0,9.553253482E0
3.271322562E0,2.340000123E-1,9.412950516E0,1.011000037E0,9.469979646E0
3.273283043E0,2.340000123E-1,9.451050758E0,1.011000037E0,9.507851362E0
3.275243564E0,2.719500065E-1,9.412950516E0,8.959500194E-1,9.459403821E0
3.277204010E0,3.109500110E-1,9.412950516E0,8.200500607E-1,9.453719343E0
3.279164482E0,3.109500110E-1,9.412950516E0,8.959500194E-1,9.460605359E0
3.281125076E0,2.340000123E-1,9.451050758E0,9.730500579E-1,9.503890933E0
3.283085634E0,2.340000123E-1,9.451050758E0,1.050000072E0,9.512077407E0
