"Time (s)","Acceleration x (m/s^2)","Acceleration y (m/s^2)","Acceleration z (m/s^2)","Absolute acceleration (m/s^2)"
3.476403700E-2,-2.295000076E0,8.800050735E0,7.810500264E-1,9.127867081E0
3.672423700E-2,-2.410050154E0,8.914950371E0,7.429500222E-1,9.264807423E0
3.868711400E-2,-2.448000193E0,8.877000809E0,7.810500264E-1,9.241422371E0
4.064860300E-2,-2.371050119E0,8.914950371E0,7.429500222E-1,9.254738976E0
4.261049900E-2,-2.448000193E0,8.991000175E0,8.200500607E-1,9.354318318E0
4.457193100E-2,-2.485950232E0,8.953050613E0,7.810500264E-1,9.324543044E0
4.653349900E-2,-2.485950232E0,9.030000687E0,8.580000401E-1,9.405159490E0
4.849525600E-2,-2.524950027E0,9.067950249E0,8.580000401E-1,9.451944690E0
5.045695800E-2,-2.563050032E0,9.030000687E0,8.959500194E-1,9.429361818E0
5.241860500E-2,-2.563050032E0,9.067950249E0,9.730500579E-1,9.473319038E0
5.438026800E-2,-2.601000071E0,9.067950249E0,9.349500537E-1,9.479823558E0
5.634174100E-2,-2.563050032E0,9.106050491E0,1.011000037E0,9.513753312E0
5.830330100E-2,-2.640000105E0,9.106050491E0,1.011000037E0,9.534772005E0
6.026488000E-2,-2.640000105E0,9.145050049E0,1.050000072E0,9.576222695E0
6.222645300E-2,-2.677950144E0,9.145050049E0,1.087950110E0,9.590984976E0
6.418794200E-2,-2.640000105E0,9.067950249E0,1.165050030E0,9.516021429E0
6.614945500E-2,-2.716050148E0,9.067950249E0,1.165050030E0,9.537399629E0
6.811085700E-2,-2.755050182E0,9.106050491E0,1.203000069E0,9.589455992E0
7.007229600E-2,-2.716050148E0,9.106050491E0,1.240950108E0,9.583164463E0
7.203380500E-2,-2.716050148E0,9.106050491E0,1.318050027E0,9.593452967E0
7.399529400E-2,-2.716050148E0,9.106050491E0,1.279950023E0,9.588292654E0
7.595652600E-2,-2.755050182E0,9.106050491E0,1.318050027E0,9.604567295E0
7.791783400E-2,-2.755050182E0,9.030000687E0,1.279950023E0,9.527302135E0
7.987951300E-2,-2.793000221E0,9.145050049E0,1.318050027E0,9.652463235E0
8.184110700E-2,-2.793000221E0,9.145050049E0,1.240950108E0,9.642237697E0
8.380263700E-2,-2.793000221E0,9.106050491E0,1.240950108E0,9.605257048E0
8.576418600E-2,-2.755050182E0,9.183000565E0,1.240950108E0,9.667355277E0
8.772590200E-2,-2.793000221E0,9.145050049E0,1.240950108E0,9.642237697E0
8.968756900E-2,-2.793000221E0,9.145050049E0,1.318050027E0,9.652463235E0
9.164929500E-2,-2.755050182E0,9.183000565E0,1.279950023E0,9.672438831E0
9.361101500E-2,-2.755050182E0,9.145050049E0,1.356000066E0,9.646811809E0
9.557252300E-2,-2.830950022E0,9.145050049E0,1.356000066E0,9.668761792E0
9.753409400E-2,-2.830950022E0,9.183000565E0,1.356000066E0,9.704664527E0
9.949576100E-2,-2.793000221E0,9.106050491E0,1.356000066E0,9.620797366E0
1.014574000E-1,-2.755050182E0,9.106050491E0,1.356000066E0,9.609848762E0
1.034192670E-1,-2.677950144E0,9.145050049E0,1.356000066E0,9.625076288E0
1.053810770E-1,-2.640000105E0,9.183000565E0,1.356000066E0,9.650690965E0
1.073426150E-1,-2.640000105E0,9.183000565E0,1.395000100E0,9.656247988E0
1.093042330E-1,-2.677950144E0,9.220950127E0,1.432950020E0,9.708279146E0
1.112657580E-1,-2.677950144E0,9.220950127E0,1.432950020E0,9.708279146E0
1.132273100E-1,-2.677950144E0,9.259950638E0,1.432950020E0,9.745329576E0
1.151889660E-1,-2.755050182E0,9.298050880E0,1.432950020E0,9.802928003E0
1.171506020E-1,-2.677950144E0,9.259950638E0,1.432950020E0,9.745329576E0
1.191123490E-1,-2.716050148E0,9.298050880E0,1.395000100E0,9.786557304E0
1.210740630E-1,-2.563050032E0,9.298050880E0,1.240950108E0,9.724347423E0
1.230357080E-1,-2.677950144E0,9.336000443E0,1.240950108E0,9.791439036E0
1.249973730E-1,-2.755050182E0,9.451050758E0,1.203000069E0,9.917654517E0
1.269591280E-1,-2.908050060E0,9.490050316E0,1.126049995E0,9.989284196E0
1.289208470E-1,-2.946000099E0,9.565950394E0,9.730500579E-1,1.005649790E1
1.308827150E-1,-2.985000134E0,9.604950905E0,8.200500607E-1,1.009147114E1
1.328445390E-1,-3.100050211E0,9.565950394E0,7.429500222E-1,1.008313904E1
1.348062090E-1,-3.214950085E0,9.681000710E0,6.660000086E-1,1.022258455E1
1.367679250E-1,-3.291000128E0,9.604950905E0,6.280500293E-1,1.017252233E1
1.387296130E-1,-3.367950201E0,9.643050194E0,5.130000114E-1,1.022715379E1
1.406913100E-1,-3.367950201E0,9.604950905E0,5.509500504E-1,1.019321914E1
1.426528210E-1,-3.406050205E0,9.604950905E0,6.280500293E-1,1.021032354E1
1.446143870E-1,-3.445050240E0,9.604950905E0,6.280500293E-1,1.022339962E1
1.465758760E-1,-3.520950079E0,9.643050194E0,6.280500293E-1,1.028493818E1
1.485373870E-1,-3.598050117E0,9.604950905E0,6.660000086E-1,1.027835602E1
1.504991100E-1,-3.675000191E0,9.643050194E0,6.280500293E-1,1.033868900E1
1.524607700E-1,-3.828000069E0,9.643050194E0,4.750500321E-1,1.038593636E1
1.544221080E-1,-3.904950142E0,9.681000710E0,4.360500276E-1,1.044799263E1
1.563835410E-1,-3.981000185E0,9.681000710E0,4.750500321E-1,1.047834957E1
1.583451420E-1,-4.096050262E0,9.681000710E0,4.750500321E-1,1.052259830E1
1.603066930E-1,-4.134000301E0,9.681000710E0,5.509500504E-1,1.054112324E1
1.622681850E-1,-4.210950375E0,9.604950905E0,5.509500504E-1,1.050193939E1
1.642296950E-1,-4.288050175E0,9.681000710E0,5.509500504E-1,1.060248532E1
1.661921380E-1,-4.288050175E0,9.643050194E0,3.979500234E-1,1.056097323E1
1.681543080E-1,-4.326000214E0,9.604950905E0,2.830500007E-1,1.053800157E1
1.701148830E-1,-4.402950287E0,9.604950905E0,3.220500052E-1,1.057093985E1
1.720759260E-1,-4.363950253E0,9.604950905E0,5.130000114E-1,1.056230622E1
1.740380190E-1,-4.363950253E0,9.604950905E0,7.429500222E-1,1.057596891E1
1.759998220E-1,-4.363950253E0,9.528000832E0,7.810500264E-1,1.050889627E1
1.779613610E-1,-4.363950253E0,9.604950905E0,8.200500607E-1,1.058166460E1
1.799229780E-1,-4.326000214E0,9.604950905E0,7.050000429E-1,1.055776419E1
1.818846370E-1,-4.288050175E0,9.604950905E0,6.280500293E-1,1.053740495E1
1.838462830E-1,-4.326000214E0,9.681000710E0,5.509500504E-1,1.061789049E1
1.858078590E-1,-4.249050140E0,9.720000267E0,4.360500276E-1,1.061710751E1
1.877694490E-1,-4.096050262E0,9.757950783E0,2.830500007E-1,1.058656453E1
1.897318790E-1,-3.943050146E0,9.796050072E0,1.300500035E-1,1.056064176E1
1.916940620E-1,-3.675000191E0,9.720000267E0,-1.759500057E-1,1.039302603E1
1.936554910E-1,-3.675000191E0,9.873000145E0,-2.205000073E-2,1.053481108E1
1.956171410E-1,-3.636000156E0,1.006500053E1,5.295000225E-2,1.070175390E1
1.975776900E-1,-3.520950079E0,1.006500053E1,3.979500234E-1,1.067050558E1
1.995385790E-1,-3.445050240E0,1.021800041E1,8.200500607E-1,1.081426769E1
2.015002730E-1,-3.406050205E0,1.021800041E1,7.429500222E-1,1.079632739E1
2.034617310E-1,-3.253050089E0,1.041000080E1,6.660000086E-1,1.092675650E1
2.054234630E-1,-3.100050211E0,1.063995075E1,8.959500194E-1,1.111852462E1
2.073851150E-1,-2.985000134E0,1.071600056E1,8.200500607E-1,1.115416406E1
2.093464400E-1,-2.908050060E0,1.071600056E1,6.280500293E-1,1.112132501E1
2.113078720E-1,-2.830950022E0,1.075500011E1,4.750500321E-1,1.113148589E1
2.132701480E-1,-2.640000105E0,1.063995075E1,3.220500052E-1,1.096730909E1
2.152321770E-1,-2.640000105E0,1.063995075E1,2.449500114E-1,1.096531591E1
2.171926860E-1,-2.410050154E0,1.063995075E1,3.220500052E-1,1.091423886E1
2.191536410E-1,-2.140950203E0,1.063995075E1,5.509500504E-1,1.086718757E1
2.211153290E-1,-2.026050091E0,1.063995075E1,8.200500607E-1,1.086213207E1
2.230767980E-1,-1.911000133E0,1.060095024E1,1.126049995E0,1.083051504E1
2.250383490E-1,-1.873050094E0,1.060095024E1,1.203000069E0,1.083215915E1
2.269998750E-1,-1.834950089E0,1.060095024E1,1.318050027E0,1.083902411E1
2.289614160E-1,-1.795950055E0,1.052505016E1,1.395000100E0,1.076792194E1
2.309229520E-1,-1.950000048E0,1.044795036E1,1.395000100E0,1.071952388E1
2.328849920E-1,-1.911000133E0,1.052505016E1,1.395000100E0,1.078770725E1
2.348468800E-1,-1.873050094E0,1.060095024E1,1.432950020E0,1.086010168E1
2.368081790E-1,-1.834950089E0,1.060095024E1,1.471050024E0,1.085869127E1
2.387696510E-1,-1.950000048E0,1.060095024E1,1.510050058E0,1.088406622E1
2.407312450E-1,-1.987950087E0,1.063995075E1,1.585950017E0,1.093964053E1
2.426928030E-1,-2.103000164E0,1.063995075E1,1.701000094E0,1.097836796E1
2.446545030E-1,-2.256000042E0,1.048605061E1,1.855050087E0,1.088521953E1
2.466161400E-1,-2.410050154E0,1.052505016E1,1.855050087E0,1.095564848E1
2.485778870E-1,-2.448000193E0,1.060095024E1,1.777950048E0,1.102424407E1
2.505396010E-1,-2.524950027E0,1.060095024E1,1.855050087E0,1.105426296E1
2.525014700E-1,-2.563050032E0,1.056300068E1,1.930950046E0,1.103969098E1
2.544632930E-1,-2.716050148E0,1.048605061E1,2.122950077E0,1.103816573E1
2.564249140E-1,-2.716050148E0,1.052505016E1,2.275950193E0,1.110556431E1
2.583865980E-1,-2.716050148E0,1.052505016E1,2.391000032E0,1.112971206E1
2.603481110E-1,-2.716050148E0,1.056300068E1,2.583000183E0,1.120829165E1
2.623096750E-1,-2.755050182E0,1.033305073E1,2.506050110E0,1.098373916E1
2.642714340E-1,-2.755050182E0,1.010295010E1,2.620950222E0,1.079487296E1
2.662331350E-1,-2.830950022E0,1.014105034E1,2.736000061E0,1.087845928E1
2.681948190E-1,-2.755050182E0,1.018005085E1,2.812950134E0,1.091496337E1
2.701564820E-1,-2.716050148E0,1.002600002E1,2.812950134E0,1.076151910E1
2.721184040E-1,-2.716050148E0,9.988050461E0,2.851050138E0,1.073622687E1
2.740802500E-1,-2.640000105E0,9.910950661E0,2.965950251E0,1.067676938E1
2.760420520E-1,-2.485950232E0,9.835050583E0,3.043050051E0,1.059095473E1
2.780038670E-1,-2.410050154E0,9.873000145E0,3.157950163E0,1.064223298E1
2.799653580E-1,-2.371050119E0,9.757950783E0,3.273000240E0,1.056181863E1
2.819269440E-1,-2.295000076E0,9.681000710E0,3.349050045E0,1.049785389E1
2.838886530E-1,-2.218050003E0,9.681000710E0,3.463950157E0,1.051857743E1
2.858503260E-1,-2.140950203E0,9.681000710E0,3.502950191E0,1.051551723E1
2.878122470E-1,-2.026050091E0,9.643050194E0,3.694050074E0,1.052327430E1
2.897740960E-1,-1.911000133E0,9.565950394E0,3.655950069E0,1.041754766E1
2.917359240E-1,-1.758000135E0,9.565950394E0,3.808950186E0,1.044538525E1
2.936977710E-1,-1.642950058E0,9.490050316E0,3.963000298E0,1.041468729E1
2.956597510E-1,-1.528050065E0,9.490050316E0,4.000950336E0,1.041170474E1
2.976216920E-1,-1.336950064E0,9.451050758E0,4.078050137E0,1.037980196E1
2.995833880E-1,-1.183050036E0,9.451050758E0,4.192950249E0,1.040686310E1
3.015451560E-1,-1.068000078E0,9.451050758E0,4.231050014E0,1.040984000E1
3.035066550E-1,-8.380500674E-1,9.451050758E0,4.308000088E0,1.042034323E1
3.054682330E-1,-6.469500065E-1,9.451050758E0,4.231050014E0,1.037509947E1
3.074298980E-1,-5.320500135E-1,9.451050758E0,4.308000088E0,1.040020684E1
3.093915380E-1,-2.629500031E-1,9.412950516E0,4.269000053E0,1.033910739E1
3.113531050E-1,-7.200000435E-2,9.412950516E0,4.308000088E0,1.035218268E1
3.133146940E-1,1.189500093E-1,9.375000000E0,4.269000053E0,1.030189961E1
3.152765380E-1,3.109500110E-1,9.412950516E0,4.345950127E0,1.037244474E1
3.172383080E-1,5.020500422E-1,9.336000443E0,4.308000088E0,1.029426167E1
3.192007530E-1,6.940500140E-1,9.298050880E0,4.345950127E0,1.028701794E1
3.211630000E-1,9.240000248E-1,9.259950638E0,4.345950127E0,1.027072268E1
3.231244180E-1,1.114950061E0,9.220950127E0,4.345950127E0,1.025457544E1
3.250860790E-1,1.269000053E0,9.183000565E0,4.269000053E0,1.020598951E1
3.270479560E-1,1.345050097E0,9.145050049E0,4.269000053E0,1.018162372E1
3.290097690E-1,1.459950089E0,9.145050049E0,4.231050014E0,1.018160984E1
3.309715770E-1,1.690050125E0,9.106050491E0,4.192950249E0,1.016647711E1
3.329333860E-1,1.804950118E0,9.030000687E0,4.039050102E0,1.005548025E1
3.348947430E-1,1.537050128E0,8.377950668E0,2.467950106E0,8.868109056E0
3.368562330E-1,1.690050125E0,8.377950668E0,2.583000183E0,8.928505853E0
3.388182690E-1,1.920000076E0,8.377950668E0,3.043050051E0,9.117928016E0
3.407801490E-1,1.996950150E0,8.340000153E0,3.273000240E0,9.179103606E0
3.427416300E-1,2.111999989E0,8.377950668E0,3.426000118E0,9.294518716E0
3.447032280E-1,2.227050066E0,8.263050079E0,3.541050196E0,9.261575735E0
3.466649800E-1,2.304000139E0,8.302050591E0,3.541050196E0,9.315121960E0
3.486266870E-1,2.341950178E0,8.263050079E0,3.463950157E0,9.260760117E0
3.505883830E-1,2.341950178E0,8.263050079E0,3.273000240E0,9.191042260E0
3.525500790E-1,2.341950178E0,8.340000153E0,3.118950129E0,9.206963836E0
3.545119500E-1,2.380050182E0,8.340000153E0,2.928000212E0,9.153874953E0
3.564737690E-1,2.419050217E0,8.340000153E0,2.812950134E0,9.127984167E0
3.584355760E-1,2.341950178E0,8.416950226E0,2.659050226E0,9.132378105E0
3.603973870E-1,2.419050217E0,8.532000542E0,2.314950228E0,9.165469532E0
3.623590830E-1,2.341950178E0,8.569950104E0,2.200050116E0,9.152540408E0
3.643207960E-1,2.265000105E0,8.647050858E0,2.046000004E0,9.169941659E0
3.662823040E-1,2.265000105E0,8.685000420E0,1.969950080E0,9.189132771E0
3.682438730E-1,2.188950062E0,8.800050735E0,1.893000126E0,9.263684191E0
3.702057650E-1,2.074050188E0,8.953050613E0,1.855050087E0,9.375500536E0
3.721675630E-1,1.959000111E0,9.067950249E0,1.701000094E0,9.431797521E0
3.741290190E-1,1.843950033E0,9.183000565E0,1.701000094E0,9.519509043E0
3.760906030E-1,1.729050040E0,9.298050880E0,1.585950017E0,9.589504767E0
3.780523580E-1,1.614000082E0,9.412950516E0,1.548000097E0,9.674964495E0
3.800140630E-1,1.422000051E0,9.643050194E0,1.510050058E0,9.863607472E0
3.819758880E-1,1.306950092E0,9.757950783E0,1.510050058E0,9.960219536E0
3.839376780E-1,1.192050099E0,9.949950218E0,1.510050058E0,1.013423623E1
3.858992440E-1,1.000050068E0,1.014105034E1,1.510050058E0,1.030151704E1
3.878608580E-1,8.089500666E-1,1.033305073E1,1.510050058E0,1.047409131E1
3.898217980E-1,4.639500082E-1,1.052505016E1,1.510050058E0,1.064294046E1
3.917829350E-1,1.960500032E-1,1.071600056E1,1.548000097E0,1.082900770E1
3.937444060E-1,8.100000024E-2,1.083105087E1,1.585950017E0,1.094684710E1
3.957057790E-1,-1.480500102E-1,1.098495007E1,1.624950051E0,1.110547205E1
3.976674620E-1,-4.170000255E-1,1.113795090E1,1.663050056E0,1.126914259E1
3.996290680E-1,-6.469500065E-1,1.132905006E1,1.624950051E0,1.146326229E1
4.015906410E-1,-8.380500674E-1,1.148295021E1,1.624950051E0,1.162759374E1
4.035522240E-1,-9.919500351E-1,1.163595009E1,1.548000097E0,1.178030575E1
4.055141140E-1,-1.144950032E0,1.178895092E1,1.585950017E0,1.195012602E1
4.074759140E-1,-1.375050068E0,1.190400028E1,1.624950051E0,1.209282631E1
4.094375940E-1,-1.528050065E0,1.201905060E1,1.585950017E0,1.221915512E1
4.113993060E-1,-1.795950055E0,1.205805016E1,1.510050058E0,1.228422815E1
4.133609490E-1,-2.026050091E0,1.205805016E1,1.432950020E0,1.231075945E1
4.153226130E-1,-2.371050119E0,1.198095036E1,1.318050027E0,1.228422997E1
4.172844900E-1,-2.563050032E0,1.190400028E1,1.279950023E0,1.224388501E1
4.192463040E-1,-2.640000105E0,1.175100040E1,1.240950108E0,1.210766568E1
4.212080010E-1,-2.716050148E0,1.163595009E1,1.240950108E0,1.201300212E1
4.231697470E-1,-2.830950022E0,1.148295021E1,1.203000069E0,1.188779343E1
4.251316100E-1,-2.869950056E0,1.132905006E1,1.165050030E0,1.174484271E1
4.270934380E-1,-2.985000134E0,1.113795090E1,1.165050030E0,1.158971603E1
4.290552870E-1,-3.022950172E0,1.106100082E1,1.126049995E0,1.152180349E1
4.310171300E-1,-3.061050177E0,1.094595051E1,1.165050030E0,1.142546289E1
4.329789820E-1,-3.138000250E0,1.087005043E1,1.165050030E0,1.137375855E1
4.349408270E-1,-3.214950085E0,1.079295063E1,1.165050030E0,1.132170610E1
4.369026300E-1,-3.253050089E0,1.075500011E1,1.126049995E0,1.129249091E1
4.388644450E-1,-3.253050089E0,1.071600056E1,1.050000072E0,1.124799995E1
4.408261160E-1,-3.291000128E0,1.071600056E1,1.050000072E0,1.125903415E1
4.427878290E-1,-3.291000128E0,1.071600056E1,8.959500194E-1,1.124571368E1
4.447496830E-1,-3.291000128E0,1.067805004E1,8.200500607E-1,1.120374565E1
4.467115060E-1,-3.291000128E0,1.063995075E1,7.429500222E-1,1.116204321E1
4.486730410E-1,-3.330000162E0,1.063995075E1,6.660000086E-1,1.116875146E1
4.506346610E-1,-3.367950201E0,1.063995075E1,5.899500251E-1,1.117585261E1
4.525965450E-1,-3.330000162E0,1.060095024E1,5.899500251E-1,1.112731271E1
4.545583520E-1,-3.367950201E0,1.060095024E1,4.360500276E-1,1.113163843E1
4.565210460E-1,-3.406050205E0,1.056300068E1,3.979500234E-1,1.110569789E1
4.584834910E-1,-3.367950201E0,1.056300068E1,2.449500114E-1,1.108963806E1
4.604451000E-1,-3.445050240E0,1.044795036E1,1.300500035E-1,1.100204304E1
4.624069540E-1,-3.367950201E0,1.018005085E1,-1.759500057E-1,1.072415415E1
4.643678980E-1,-3.138000250E0,1.002600002E1,-7.120500207E-1,1.052970737E1
4.663291080E-1,-3.022950172E0,1.025595093E1,5.509500504E-1,1.070636741E1
4.682912470E-1,-3.138000250E0,1.033305073E1,1.050000072E0,1.084995314E1
4.702531110E-1,-3.100050211E0,1.037100029E1,1.126049995E0,1.088282808E1
4.722151340E-1,-3.061050177E0,1.037100029E1,1.050000072E0,1.086416934E1
4.741771110E-1,-2.985000134E0,1.029495049E1,8.580000401E-1,1.075325046E1
4.761398360E-1,-2.908050060E0,1.021800041E1,5.509500504E-1,1.063803711E1
4.781023420E-1,-2.869950056E0,1.014105034E1,2.830500007E-1,1.054313201E1
4.800642110E-1,-2.716050148E0,1.002600002E1,5.295000225E-2,1.038751215E1
4.820262670E-1,-2.677950144E0,9.910950661E0,5.295000225E-2,1.026650689E1
4.839881220E-1,-2.563050032E0,9.835050583E0,1.500000060E-2,1.016354615E1
4.859500360E-1,-2.410050154E0,9.835050583E0,5.295000225E-2,1.012617230E1
4.879118260E-1,-2.371050119E0,9.757950783E0,2.070000172E-1,1.004401967E1
4.898736520E-1,-2.295000076E0,9.681000710E0,1.680000126E-1,9.950729827E0
4.918353260E-1,-2.332950115E0,9.643050194E0,2.070000172E-1,9.923402757E0
4.937970410E-1,-2.256000042E0,9.565950394E0,2.070000172E-1,9.830554009E0
4.957587300E-1,-2.218050003E0,9.528000832E0,1.300500035E-1,9.783632182E0
4.977204260E-1,-2.140950203E0,9.145050049E0,-1.759500057E-1,9.393964369E0
4.996821610E-1,-2.026050091E0,8.685000420E0,-1.171950102E0,8.994863996E0
5.016438850E-1,-1.795950055E0,8.991000175E0,-1.759500057E-1,9.170304202E0
5.036047920E-1,-1.950000048E0,9.183000565E0,7.429500222E-1,9.417110719E0
5.055659490E-1,-2.065050125E0,9.336000443E0,9.349500537E-1,9.607261206E0
5.075288590E-1,-2.179949999E0,9.030000687E0,1.300500035E-1,9.290317939E0
5.094912550E-1,-1.987950087E0,9.067950249E0,-1.369500011E-1,9.284310559E0
5.114521070E-1,-1.950000048E0,9.259950638E0,4.360500276E-1,9.473084272E0
5.134134110E-1,-1.950000048E0,9.259950638E0,6.280500293E-1,9.483861705E0
5.153751680E-1,-1.950000048E0,9.375000000E0,5.130000114E-1,9.589384454E0
5.173367930E-1,-2.026050091E0,9.336000443E0,3.600000143E-1,9.560093265E0
5.192995330E-1,-1.987950087E0,9.220950127E0,1.300500035E-1,9.433704457E0
5.212619470E-1,-2.026050091E0,9.106050491E0,-2.205000073E-2,9.328747007E0
5.232238770E-1,-1.950000048E0,9.030000687E0,-2.520000041E-1,9.241586259E0
5.251859490E-1,-1.950000048E0,8.953050613E0,-2.520000041E-1,9.166412574E0
5.271477880E-1,-1.950000048E0,8.877000809E0,-2.520000041E-1,9.092147576E0
5.291097050E-1,-1.873050094E0,8.761950493E0,-1.369500011E-1,8.960962470E0
5.310716730E-1,-1.873050094E0,8.685000420E0,-1.759500057E-1,8.886422641E0
5.330336260E-1,-1.834950089E0,8.647050858E0,-1.369500011E-1,8.840660929E0
5.349955000E-1,-1.795950055E0,8.532000542E0,-1.369500011E-1,8.720047313E0
5.369573970E-1,-1.834950089E0,8.493000031E0,-1.369500011E-1,8.690042960E0
5.389192240E-1,-1.834950089E0,8.416950226E0,-1.759500057E-1,8.616440758E0
5.408810790E-1,-1.834950089E0,8.302050591E0,-1.759500057E-1,8.504236841E0
5.428429240E-1,-1.795950055E0,8.302050591E0,-1.759500057E-1,8.495907192E0
5.448047720E-1,-1.720050097E0,8.302050591E0,-1.369500011E-1,8.479467651E0
5.467669770E-1,-1.758000135E0,8.224950790E0,5.295000225E-2,8.410896723E0
5.487290770E-1,-1.873050094E0,8.187000275E0,-1.759500057E-1,8.400371930E0
5.506910110E-1,-1.834950089E0,8.187000275E0,-2.520000041E-1,8.393897744E0
5.526529970E-1,-1.758000135E0,8.110050201E0,-1.369500011E-1,8.299532158E0
5.546148190E-1,-1.758000135E0,8.110050201E0,-1.369500011E-1,8.299532158E0
5.565766900E-1,-1.720050097E0,8.071949959E0,-6.105000153E-2,8.253403878E0
5.585387110E-1,-1.758000135E0,8.032950401E0,-1.369500011E-1,8.224208894E0
5.605006880E-1,-1.795950055E0,8.032950401E0,-1.759500057E-1,8.233145642E0
5.624624060E-1,-1.758000135E0,8.032950401E0,-9.900000691E-2,8.223664489E0
5.644241800E-1,-1.795950055E0,8.032950401E0,-9.900000691E-2,8.231860649E0
5.663856780E-1,-1.795950055E0,8.032950401E0,-1.369500011E-1,8.232404512E0
5.683472570E-1,-1.834950089E0,8.032950401E0,-1.759500057E-1,8.241740859E0
5.703091480E-1,-1.795950055E0,8.032950401E0,-2.520000041E-1,8.235121903E0
5.722709470E-1,-1.834950089E0,8.071949959E0,-2.910000086E-1,8.283000602E0
5.742327330E-1,-1.911000133E0,8.071949959E0,-3.670500219E-1,8.303193564E0
5.761945390E-1,-1.873050094E0,8.110050201E0,-4.440000355E-1,8.335368435E0
5.781562130E-1,-1.911000133E0,8.071949959E0,-4.819500148E-1,8.309065739E0
5.801179250E-1,-1.950000048E0,8.071949959E0,-4.819500148E-1,8.318121912E0
5.820794790E-1,-1.950000048E0,8.110050201E0,-5.209500194E-1,8.357440001E0
5.840410790E-1,-1.987950087E0,8.071949959E0,-5.970000029E-1,8.334550419E0
5.860026310E-1,-1.987950087E0,8.071949959E0,-6.360000372E-1,8.337434721E0
5.879641800E-1,-1.987950087E0,8.071949959E0,-5.590500236E-1,8.331918063E0
5.899262110E-1,-1.950000048E0,8.071949959E0,-4.440000355E-1,8.316009401E0
5.918881010E-1,-2.026050091E0,7.995000362E0,-5.209500194E-1,8.264157470E0
5.938499410E-1,-2.026050091E0,8.032950401E0,-7.120500207E-1,8.315057808E0
5.958117960E-1,-2.026050091E0,7.957050323E0,-6.739500165E-1,8.238551902E0
5.977734410E-1,-2.065050125E0,7.995000362E0,-6.360000372E-1,8.281845136E0
5.997351610E-1,-2.103000164E0,7.918050289E0,-7.120500207E-1,8.223450936E0
6.016972530E-1,-2.103000164E0,7.918050289E0,-6.739500165E-1,8.220239577E0
6.036592360E-1,-2.103000164E0,7.918050289E0,-7.510500550E-1,8.226919609E0
6.056212390E-1,-2.140950203E0,7.842000484E0,-8.269500136E-1,8.170953781E0
6.075832360E-1,-2.218050003E0,7.803000450E0,-8.269500136E-1,8.154165081E0
6.095450220E-1,-2.218050003E0,7.842000484E0,-8.659500480E-1,8.195522369E0
6.115068630E-1,-2.256000042E0,7.765050411E0,-8.659500480E-1,8.132368263E0
6.134683500E-1,-2.256000042E0,7.803000450E0,-9.040500522E-1,8.172738752E0
6.154299400E-1,-2.295000076E0,7.765050411E0,-7.890000343E-1,8.135450467E0
6.173916480E-1,-2.295000076E0,7.803000450E0,-7.890000343E-1,8.171680514E0
6.193533220E-1,-2.332950115E0,7.765050411E0,-8.659500480E-1,8.154050136E0
6.213150040E-1,-2.332950115E0,7.687950134E0,-8.659500480E-1,8.080662287E0
6.232766930E-1,-2.371050119E0,7.687950134E0,-9.810000658E-1,8.104863791E0
6.252378910E-1,-2.332950115E0,7.650000572E0,-9.420000315E-1,8.053106795E0
6.271992330E-1,-2.295000076E0,7.612050533E0,-1.018950105E0,8.015522315E0
6.291608040E-1,-2.295000076E0,7.573050499E0,-9.810000658E-1,7.973736912E0
6.311223080E-1,-2.140950203E0,7.534950256E0,-9.810000658E-1,7.894397017E0
6.330840710E-1,-2.218050003E0,7.458000183E0,-9.810000658E-1,7.842440543E0
6.350457310E-1,-2.256000042E0,7.381950378E0,-1.018950105E0,7.785948041E0
6.370075640E-1,-2.218050003E0,7.381950378E0,-1.057050109E0,7.780121602E0
6.389693460E-1,-2.179949999E0,7.342950344E0,-1.057050109E0,7.732299573E0
6.409312480E-1,-2.140950203E0,7.305000305E0,-1.057050109E0,7.685314058E0
6.428931150E-1,-2.140950203E0,7.267050266E0,-1.096050024E0,7.654737945E0
6.448552730E-1,-2.140950203E0,7.228050232E0,-1.057050109E0,7.612209460E0
6.468173460E-1,-2.103000164E0,7.189950466E0,-1.096050024E0,7.570952585E0
6.487790190E-1,-2.103000164E0,7.228050232E0,-1.096050024E0,7.607144372E0
6.507408100E-1,-2.103000164E0,7.267050266E0,-1.096050024E0,7.644210549E0
6.527028000E-1,-2.065050125E0,7.305000305E0,-1.210950017E0,7.687253178E0
6.546647310E-1,-2.103000164E0,7.381950378E0,-1.171950102E0,7.764616418E0
6.566264430E-1,-2.065050125E0,7.420050144E0,-1.171950102E0,7.790702356E0
6.585882090E-1,-2.103000164E0,7.534950256E0,-1.210950017E0,7.916090260E0
6.605503830E-1,-2.140950203E0,7.534950256E0,-1.249050021E0,7.932166734E0
6.625124380E-1,-2.179949999E0,7.612050533E0,-1.171950102E0,8.004308987E0
6.644742940E-1,-2.256000042E0,7.650000572E0,-1.171950102E0,8.061359190E0
6.664362090E-1,-2.256000042E0,7.650000572E0,-1.210950017E0,8.067121227E0
6.683983770E-1,-2.295000076E0,7.687950134E0,-1.249050021E0,8.119835502E0
6.703604570E-1,-2.371050119E0,7.726950169E0,-1.210950017E0,8.172761927E0
6.723222650E-1,-2.332950115E0,7.765050411E0,-1.249050021E0,8.203583978E0
6.742841520E-1,-2.448000193E0,7.765050411E0,-1.326000094E0,8.249059891E0
6.762460360E-1,-2.448000193E0,7.726950169E0,-1.326000094E0,8.213205227E0
6.782079210E-1,-2.485950232E0,7.726950169E0,-1.249050021E0,8.212541228E0
6.801698900E-1,-2.524950027E0,7.687950134E0,-1.249050021E0,8.187800429E0
6.821318370E-1,-2.448000193E0,7.765050411E0,-8.659500480E-1,8.187709223E0
6.840936670E-1,-2.677950144E0,7.650000572E0,-9.040500522E-1,8.155441878E0
6.860555310E-1,-2.793000221E0,7.687950134E0,-1.134000063E0,8.257807436E0
6.880173740E-1,-2.716050148E0,7.650000572E0,-1.096050024E0,8.191505528E0
6.899792230E-1,-2.755050182E0,7.573050499E0,-1.096050024E0,8.132817533E0
6.919410540E-1,-2.793000221E0,7.612050533E0,-1.096050024E0,8.182022318E0
6.939029010E-1,-2.793000221E0,7.534950256E0,-1.134000063E0,8.115558006E0
6.958646110E-1,-2.830950022E0,7.573050499E0,-1.134000063E0,8.164026459E0
6.978263620E-1,-2.869950056E0,7.534950256E0,-1.134000063E0,8.142361134E0
6.997880440E-1,-2.908050060E0,7.534950256E0,-1.210950017E0,8.166922949E0
7.017497470E-1,-2.946000099E0,7.534950256E0,-1.171950102E0,8.174830823E0
7.037114480E-1,-2.946000099E0,7.497000217E0,-1.287000060E0,8.157223670E0
7.056731420E-1,-2.908050060E0,7.497000217E0,-1.363950014E0,8.156109799E0
7.076348340E-1,-2.985000134E0,7.458000183E0,-1.479000092E0,8.168196484E0
7.095965260E-1,-2.985000134E0,7.420050144E0,-1.555950046E0,8.147904668E0
7.115583530E-1,-3.022950172E0,7.458000183E0,-1.671000123E0,8.219016723E0
7.135201400E-1,-3.061050177E0,7.458000183E0,-1.708950043E0,8.240892255E0
7.154821960E-1,-3.061050177E0,7.534950256E0,-1.747050047E0,8.318514736E0
7.174441590E-1,-3.061050177E0,7.573050499E0,-1.747050047E0,8.353041716E0
7.194060310E-1,-3.100050211E0,7.650000572E0,-1.747050047E0,8.437120595E0
7.213679300E-1,-3.138000250E0,7.726950169E0,-1.824000120E0,8.536965557E0
7.233299460E-1,-3.214950085E0,7.842000484E0,-1.824000120E0,8.669478190E0
7.252919280E-1,-3.214950085E0,7.995000362E0,-1.824000120E0,8.808116216E0
7.272539110E-1,-3.214950085E0,8.110050201E0,-1.861950040E0,8.920519955E0
7.292158770E-1,-3.214950085E0,8.224950790E0,-1.747050047E0,9.002105499E0
7.311777470E-1,-3.138000250E0,8.224950790E0,-1.786050081E0,8.982585149E0
7.331396460E-1,-3.100050211E0,8.302050591E0,-1.786050081E0,9.040151006E0
7.351014830E-1,-3.022950172E0,8.377950668E0,-1.708950043E0,9.069112161E0
7.370633390E-1,-2.946000099E0,8.455050468E0,-1.555950046E0,9.087781663E0
7.390251380E-1,-2.908050060E0,8.569950104E0,-1.441050053E0,9.163919750E0
7.409869540E-1,-2.946000099E0,8.722949982E0,-1.326000094E0,9.301991680E0
7.429484900E-1,-2.908050060E0,8.838000298E0,-1.210950017E0,9.382611809E0
7.449101080E-1,-2.946000099E0,8.991000175E0,-1.210950017E0,9.538521934E0
7.468719920E-1,-2.985000134E0,9.183000565E0,-1.171950102E0,9.726828476E0
7.488337980E-1,-3.022950172E0,9.298050880E0,-1.096050024E0,9.838358785E0
7.507952830E-1,-3.100050211E0,9.451050758E0,-1.134000063E0,1.001092543E1
7.527568680E-1,-3.138000250E0,9.565950394E0,-1.057050109E0,1.012283594E1
7.547185780E-1,-3.138000250E0,9.681000710E0,-1.057050109E0,1.023162623E1
7.566802510E-1,-3.175950050E0,9.757950783E0,-1.057050109E0,1.031608536E1
7.586419460E-1,-3.445050240E0,9.757950783E0,-1.708950043E0,1.048839763E1
7.606036350E-1,-3.214950085E0,9.949950218E0,-1.555950046E0,1.057158427E1
7.625654680E-1,-3.138000250E0,9.988050461E0,-8.269500136E-1,1.050200190E1
7.645272550E-1,-3.100050211E0,1.010295010E1,-5.970000029E-1,1.058472111E1
7.664891110E-1,-3.100050211E0,1.018005085E1,-5.970000029E-1,1.065833738E1
7.684509470E-1,-3.138000250E0,1.018005085E1,-6.360000372E-1,1.067169044E1
7.704124810E-1,-3.138000250E0,1.021800041E1,-7.120500207E-1,1.071268375E1
7.723741030E-1,-3.100050211E0,1.029495049E1,-8.269500136E-1,1.078332802E1
7.743359820E-1,-3.138000250E0,1.033305073E1,-9.810000658E-1,1.084349317E1
7.762977890E-1,-3.175950050E0,1.041000080E1,-9.810000658E-1,1.092781481E1
7.782594180E-1,-3.138000250E0,1.041000080E1,-9.420000315E-1,1.091341039E1
7.802210990E-1,-3.138000250E0,1.048605061E1,-8.659500480E-1,1.097971641E1
7.821830170E-1,-3.175950050E0,1.052505016E1,-9.040500522E-1,1.103089508E1
7.841448660E-1,-3.175950050E0,1.052505016E1,-8.659500480E-1,1.102783792E1
7.861065420E-1,-3.175950050E0,1.056300068E1,-8.659500480E-1,1.106406397E1
7.880682620E-1,-3.175950050E0,1.060095024E1,-9.040500522E-1,1.110333784E1
7.900297690E-1,-3.175950050E0,1.060095024E1,-9.810000658E-1,1.110986795E1
7.919913390E-1,-3.214950085E0,1.063995075E1,-1.096050024E0,1.116896511E1
7.939528720E-1,-3.214950085E0,1.060095024E1,-1.134000063E0,1.113561881E1
7.959144160E-1,-3.214950085E0,1.056300068E1,-1.210950017E0,1.110762294E1
7.978759390E-1,-3.291000128E0,1.052505016E1,-1.210950017E0,1.109386149E1
7.998374790E-1,-3.291000128E0,1.048605061E1,-1.249050021E0,1.106110596E1
8.017991960E-1,-3.291000128E0,1.044795036E1,-1.249050021E0,1.102499318E1
8.037608610E-1,-3.253050089E0,1.029495049E1,-1.363950014E0,1.088249512E1
8.057223790E-1,-3.330000162E0,1.021800041E1,-1.516950130E0,1.085345895E1
8.076839400E-1,-3.330000162E0,1.010295010E1,-1.632000089E0,1.076205956E1
8.096459830E-1,-3.330000162E0,1.010295010E1,-1.671000123E0,1.076804268E1
8.116078750E-1,-3.367950201E0,1.002600002E1,-1.824000120E0,1.073269498E1
8.135693540E-1,-3.406050205E0,9.949950218E0,-1.900950074E0,1.068720256E1
8.155309540E-1,-3.445050240E0,9.949950218E0,-2.014950037E0,1.072053656E1
8.174926610E-1,-3.520950079E0,9.873000145E0,-2.092050076E0,1.068877424E1
8.194543370E-1,-3.559950113E0,9.835050583E0,-2.092050076E0,1.066668357E1
8.214156990E-1,-3.598050117E0,9.835050583E0,-2.130000114E0,1.068695865E1
8.233771660E-1,-3.675000191E0,9.835050583E0,-2.092050076E0,1.070563029E1
8.253385360E-1,-3.790050268E0,9.873000145E0,-2.130000114E0,1.078784100E1
8.272999350E-1,-3.828000069E0,9.835050583E0,-2.053950071E0,1.075176801E1
8.292616320E-1,-3.904950142E0,9.873000145E0,-1.977000117E0,1.079968967E1
8.312232410E-1,-3.981000185E0,9.910950661E0,-1.900950074E0,1.084845227E1
8.331849870E-1,-4.096050262E0,9.949950218E0,-1.824000120E0,1.091357474E1
8.351466970E-1,-4.173000336E0,1.002600002E1,-1.708950043E0,1.099341251E1
8.371087020E-1,-4.210950375E0,1.014105034E1,-1.632000089E0,1.110119045E1
8.390706200E-1,-4.288050175E0,1.018005085E1,-1.479000092E0,1.114487554E1
8.410321400E-1,-4.326000214E0,1.025595093E1,-1.402050018E0,1.121893718E1
8.429937760E-1,-4.441050053E0,1.033305073E1,-1.249050021E0,1.131613843E1
8.449554530E-1,-4.555950165E0,1.037100029E1,-1.134000063E0,1.138421210E1
8.469171350E-1,-4.555950165E0,1.044795036E1,-1.018950105E0,1.144354001E1
8.488786500E-1,-4.633050442E0,1.044795036E1,-8.659500480E-1,1.146187998E1
8.508402140E-1,-4.555950165E0,1.048605061E1,-7.890000343E-1,1.146021205E1
8.528021070E-1,-4.518000126E0,1.052505016E1,-7.510500550E-1,1.147837455E1
8.547639040E-1,-4.402950287E0,1.052505016E1,-5.970000029E-1,1.142449391E1
8.567257090E-1,-4.249050140E0,1.056300068E1,-5.590500236E-1,1.139929592E1
8.586875150E-1,-4.173000336E0,1.060095024E1,-4.819500148E-1,1.140290988E1
8.606492340E-1,-4.057950020E0,1.063995075E1,-3.670500219E-1,1.139342951E1
8.626109780E-1,-3.904950142E0,1.071600056E1,-3.670500219E-1,1.141122383E1
8.645728400E-1,-3.790050268E0,1.079295063E1,-2.910000086E-1,1.144276826E1
8.665346680E-1,-3.790050268E0,1.087005043E1,-2.520000041E-1,1.151459862E1
8.684962840E-1,-3.636000156E0,1.094595051E1,-2.140500098E-1,1.153603689E1
8.704579690E-1,-3.559950113E0,1.102305031E1,-1.759500057E-1,1.158498344E1
8.724197070E-1,-3.483000278E0,1.113795090E1,-6.105000153E-2,1.167000292E1
8.743814290E-1,-3.406050205E0,1.129095078E1,5.295000225E-2,1.179362332E1
8.763431170E-1,-3.330000162E0,1.136805058E1,1.300500035E-1,1.184645044E1
8.783048150E-1,-3.253050089E0,1.144395065E1,2.449500114E-1,1.189984630E1
8.802657940E-1,-3.100050211E0,1.155900097E1,3.600000143E-1,1.197290335E1
8.822269780E-1,-3.061050177E0,1.152105045E1,2.830500007E-1,1.192412467E1
8.841888920E-1,-3.214950085E0,1.140600014E1,-9.810000658E-1,1.189096734E1
8.861505920E-1,-2.716050148E0,1.171305084E1,4.360500276E-1,1.203173421E1
8.881124630E-1,-2.640000105E0,1.201905060E1,1.893000126E0,1.245032639E1
8.900742840E-1,-2.640000105E0,1.221105099E1,2.122950077E0,1.267226435E1
8.920361690E-1,-2.716050148E0,1.232595062E1,2.008050203E0,1.278038547E1
8.939980430E-1,-2.716050148E0,1.247895050E1,1.701000094E0,1.288388665E1
8.959597050E-1,-2.640000105E0,1.259400082E1,1.471050024E0,1.295154220E1
8.979214300E-1,-2.601000071E0,1.274805069E1,1.471050024E0,1.309358568E1
8.998834760E-1,-2.563050032E0,1.286295033E1,1.395000100E0,1.318979688E1
9.018454280E-1,-2.448000193E0,1.293900108E1,1.432950020E0,1.324627494E1
9.038074010E-1,-2.295000076E0,1.313100052E1,1.471050024E0,1.341097268E1
9.057693610E-1,-2.256000042E0,1.316895103E1,1.471050024E0,1.344153249E1
9.077312340E-1,-2.140950203E0,1.324605083E1,1.510050058E0,1.350265832E1
9.096931320E-1,-2.140950203E0,1.278600025E1,7.050000429E-1,1.298316199E1
9.116551030E-1,-1.758000135E0,1.301595020E1,1.279950023E0,1.319635541E1
9.136170530E-1,-1.567050099E0,1.316895103E1,2.391000032E0,1.347567433E1
9.155790730E-1,-1.567050099E0,1.316895103E1,2.506050110E0,1.349656269E1
9.175410960E-1,-1.413000107E0,1.339905071E1,2.812950134E0,1.376385912E1
9.195028680E-1,-1.336950064E0,1.351395035E1,3.118950129E0,1.393348985E1
9.214647140E-1,-1.336950064E0,1.332300091E1,2.659050226E0,1.365138589E1
9.234262440E-1,-1.030050039E0,1.339905071E1,2.583000183E0,1.368456989E1
9.253878670E-1,-9.150000215E-1,1.347600079E1,2.928000212E0,1.382074555E1
9.273496860E-1,-6.469500065E-1,1.336095047E1,2.928000212E0,1.369330957E1
9.293114610E-1,-5.320500135E-1,1.320795059E1,2.812950134E0,1.351464852E1
9.312735450E-1,-3.019500077E-1,1.297800064E1,2.698050022E0,1.325892712E1
9.332355380E-1,4.050000105E-3,1.263300037E1,2.620950222E0,1.290201902E1
9.351980350E-1,2.340000123E-1,1.232595062E1,2.620950222E0,1.260369766E1
9.371603840E-1,5.790000558E-1,1.194300079E1,2.736000061E0,1.226605908E1
9.391221850E-1,9.240000248E-1,1.159800053E1,2.851050138E0,1.197897655E1
9.410841500E-1,1.153950095E0,1.121400070E1,2.965950251E0,1.165685521E1
9.430459300E-1,1.306950092E0,1.079295063E1,3.004050255E0,1.127919411E1
9.450077650E-1,1.384050012E0,1.044795036E1,3.081000090E0,1.098033801E1
9.469696570E-1,1.537050128E0,1.018005085E1,3.081000090E0,1.074655852E1
9.489315330E-1,1.651950121E0,9.910950661E0,3.081000090E0,1.050944545E1
9.508933540E-1,1.690050125E0,9.604950905E0,3.081000090E0,1.022760543E1
9.528551740E-1,1.729050040E0,9.336000443E0,3.081000090E0,9.982138040E0
9.548168450E-1,1.651950121E0,9.030000687E0,3.043050051E0,9.671091211E0
9.567785590E-1,1.651950121E0,8.685000420E0,2.928000212E0,9.312967128E0
9.587406070E-1,1.614000082E0,8.377950668E0,2.812950134E0,8.983748779E0
9.607025570E-1,1.537050128E0,8.148000717E0,2.773950100E0,8.743411116E0
9.626642020E-1,1.537050128E0,7.879950523E0,2.736000061E0,8.481853552E0
9.646259390E-1,1.537050128E0,7.612050533E0,2.659050226E0,8.208311917E0
9.665876240E-1,1.459950089E0,7.381950378E0,2.620950222E0,7.968313857E0
9.685493240E-1,1.422000051E0,7.075050354E0,2.506050110E0,7.639287192E0
9.705111940E-1,1.384050012E0,6.922050476E0,2.391000032E0,7.453003313E0
9.724730140E-1,1.306950092E0,6.768000126E0,2.314950228E0,7.271378054E0
9.744347350E-1,1.269000053E0,6.577050209E0,2.200050116E0,7.050402194E0
9.763964820E-1,1.153950095E0,6.499950409E0,2.122950077E0,6.934542030E0
9.783582990E-1,9.619500637E-1,6.424050331E0,2.046000004E0,6.810278012E0
9.803200950E-1,7.699500322E-1,6.346950531E0,1.930950046E0,6.678710368E0
9.822810950E-1,6.550500393E-1,6.385050297E0,1.855050087E0,6.681255022E0
9.842423280E-1,4.639500082E-1,6.385050297E0,1.816050053E0,6.654483804E0
9.862042380E-1,3.870000243E-1,6.424050331E0,1.777950048E0,6.676773027E0
9.881659460E-1,2.340000123E-1,6.462000370E0,1.663050056E0,6.676671347E0
9.901278160E-1,1.570500135E-1,6.615000248E0,1.701000094E0,6.832005146E0
9.920896390E-1,4.200000316E-2,6.730050087E0,1.663050056E0,6.932609441E0
9.940514890E-1,-1.480500102E-1,6.844950199E0,1.663050056E0,7.045636772E0
9.960133310E-1,-2.629500031E-1,6.960000515E0,1.624950051E0,7.152007588E0
9.979753980E-1,-3.780000210E-1,7.075050354E0,1.663050056E0,7.277702729E0
9.999374030E-1,-5.700000525E-1,7.267050266E0,1.663050056E0,7.476674068E0
1.001899043E0,-6.850500107E-1,7.381950378E0,1.701000094E0,7.606305689E0
1.003860790E0,-7.999500632E-1,7.458000183E0,1.701000094E0,7.691234501E0
1.005823012E0,-9.150000215E-1,7.573050499E0,1.777950048E0,7.832587393E0
1.007785095E0,-1.030050039E0,7.687950134E0,1.777950048E0,7.957806653E0
1.009747063E0,-1.106999993E0,7.803000450E0,1.740000129E0,8.070927175E0
1.011709078E0,-1.183050036E0,7.995000362E0,1.816050053E0,8.283578694E0
1.013670896E0,-1.222050071E0,8.187000275E0,1.855050087E0,8.483017782E0
1.015632771E0,-1.297950029E0,8.302050591E0,1.855050087E0,8.605226848E0
1.017594612E0,-1.413000107E0,8.532000542E0,1.855050087E0,8.844931507E0
1.019556463E0,-1.489950061E0,8.685000420E0,1.893000126E0,9.012914787E0
1.021518453E0,-1.489950061E0,8.800050735E0,1.816050053E0,9.108176652E0
1.023480427E0,-1.605000019E0,8.953050613E0,1.777950048E0,9.267914907E0
1.025442252E0,-1.681950092E0,9.220950127E0,1.855050087E0,9.554898648E0
1.027404121E0,-1.720050097E0,9.336000443E0,1.855050087E0,9.672677366E0
1.029366097E0,-1.720050097E0,9.490050316E0,1.816050053E0,9.814156363E0
1.031328042E0,-1.758000135E0,9.643050194E0,1.816050053E0,9.968802301E0
1.033289377E0,-1.758000135E0,9.757950783E0,1.816050053E0,1.007999036E1
1.035250891E0,-1.642950058E0,9.873000145E0,1.777950048E0,1.016545735E1
1.037212432E0,-1.567050099E0,9.910950661E0,1.816050053E0,1.019708913E1
1.039173965E0,-1.567050099E0,1.002600002E1,1.777950048E0,1.030230211E1
1.041135640E0,-1.567050099E0,1.006500053E1,1.816050053E0,1.034687970E1
1.043097273E0,-1.413000107E0,1.010295010E1,1.855050087E0,1.036857660E1
1.045059147E0,-1.375050068E0,1.010295010E1,1.740000129E0,1.034349862E1
1.047020957E0,-1.297950029E0,1.014105034E1,1.740000129E0,1.037078477E1
1.048982270E0,-1.183050036E0,1.010295010E1,1.663050056E0,1.030703369E1
1.050943728E0,-1.106999993E0,1.010295010E1,1.585950017E0,1.028641274E1
1.052905459E0,-9.919500351E-1,1.002600002E1,1.585950017E0,1.019901362E1
1.054867110E0,-8.770500422E-1,1.002600002E1,1.585950017E0,1.018848029E1
1.056828999E0,-6.850500107E-1,9.949950218E0,1.510050058E0,1.008717275E1
1.058790812E0,-5.700000525E-1,9.949950218E0,1.432950020E0,1.006875142E1
1.060752484E0,-4.549500346E-1,9.835050583E0,1.471050024E0,9.954857491E0
1.062714198E0,-3.019500077E-1,9.796050072E0,1.432950020E0,9.904903663E0
1.064675887E0,-2.250000089E-1,9.757950783E0,1.395000100E0,9.859728889E0
1.066637583E0,-1.480500102E-1,9.681000710E0,1.356000066E0,9.776626705E0
1.068599154E0,-1.099500060E-1,9.604950905E0,1.356000066E0,9.700819917E0
1.070560752E0,4.050000105E-3,9.528000832E0,1.318050027E0,9.618735474E0
1.072522820E0,8.100000024E-2,9.451050758E0,1.356000066E0,9.548175617E0
1.074484750E0,8.100000024E-2,9.298050880E0,1.318050027E0,9.391355975E0
1.076446402E0,1.189500093E-1,9.259950638E0,1.432950020E0,9.370922083E0
1.078408136E0,2.340000123E-1,9.220950127E0,1.510050058E0,9.346706822E0
1.080370356E0,2.719500065E-1,9.183000565E0,1.548000097E0,9.316531569E0
1.082332437E0,2.340000123E-1,9.220950127E0,1.624950051E0,9.365956433E0
1.084294379E0,2.719500065E-1,9.183000565E0,1.585950017E0,9.322912293E0
1.086256362E0,1.960500032E-1,9.220950127E0,1.548000097E0,9.352040480E0
1.088218409E0,1.960500032E-1,9.259950638E0,1.585950017E0,9.396827064E0
1.090180437E0,1.189500093E-1,9.336000443E0,1.548000097E0,9.464214583E0
1.092142049E0,4.200000316E-2,9.298050880E0,1.548000097E0,9.426124255E0
1.094103800E0,4.050000105E-3,9.336000443E0,1.548000097E0,9.463467914E0
1.096065437E0,4.050000105E-3,9.336000443E0,1.510050058E0,9.457334288E0
1.098027107E0,-7.200000435E-2,9.298050880E0,1.510050058E0,9.420147841E0
1.099989028E0,-1.480500102E-1,9.336000443E0,1.471050024E0,9.452344219E0
1.101950875E0,-2.629500031E-1,9.298050880E0,1.510050058E0,9.423542012E0
1.103912906E0,-3.400500119E-1,9.336000443E0,1.510050058E0,9.463444904E0
1.105874880E0,-3.780000210E-1,9.298050880E0,1.510050058E0,9.427453812E0
1.107836840E0,-4.170000255E-1,9.298050880E0,1.510050058E0,9.429098068E0
1.109798805E0,-4.549500346E-1,9.259950638E0,1.510050058E0,9.393291038E0
1.111760676E0,-5.320500135E-1,9.183000565E0,1.471050024E0,9.315286617E0
1.113722574E0,-5.700000525E-1,9.106050491E0,1.510050058E0,9.247989338E0
1.115684370E0,-6.850500107E-1,9.106050491E0,1.471050024E0,9.249510108E0
1.117646193E0,-7.230000496E-1,9.106050491E0,1.510050058E0,9.258678945E0
1.119608042E0,-7.999500632E-1,9.030000687E0,1.471050024E0,9.183943634E0
1.121569884E0,-8.770500422E-1,8.991000175E0,1.471050024E0,9.152665683E0
1.123531776E0,-9.150000215E-1,8.877000809E0,1.510050058E0,9.050890540E0
1.125493653E0,-1.030050039E0,8.838000298E0,1.471050024E0,9.018605242E0
1.127455649E0,-1.144950032E0,8.761950493E0,1.471050024E0,8.958050859E0
1.129417596E0,-1.144950032E0,8.685000420E0,1.471050024E0,8.882799730E0
1.131379650E0,-1.183050036E0,8.647050858E0,1.471050024E0,8.850710937E0
1.133341673E0,-1.260000110E0,8.532000542E0,1.471050024E0,8.749092621E0
1.135303625E0,-1.260000110E0,8.493000031E0,1.510050058E0,8.717734853E0
1.137265598E0,-1.260000110E0,8.493000031E0,1.510050058E0,8.717734853E0
1.139227291E0,-1.336950064E0,8.532000542E0,1.548000097E0,8.773754784E0
1.141189064E0,-1.375050068E0,8.532000542E0,1.510050058E0,8.773029529E0
1.143150697E0,-1.528050065E0,8.532000542E0,1.510050058E0,8.798307873E0
1.145112371E0,-1.528050065E0,8.608050346E0,1.471050024E0,8.865520624E0
1.147074246E0,-1.605000019E0,8.608050346E0,1.510050058E0,8.885651749E0
1.149036062E0,-1.681950092E0,8.647050858E0,1.585950017E0,8.950736400E0
1.150997784E0,-1.720050097E0,8.685000420E0,1.471050024E0,8.975065058E0
1.152959530E0,-1.795950055E0,8.647050858E0,1.471050024E0,8.953262719E0
1.154921572E0,-1.795950055E0,8.608050346E0,1.432950020E0,8.909394655E0
1.156883528E0,-1.795950055E0,8.569950104E0,1.356000066E0,8.860486305E0
1.158845491E0,-1.834950089E0,8.532000542E0,1.395000100E0,8.837878725E0
1.160807451E0,-1.795950055E0,8.493000031E0,1.356000066E0,8.786081168E0
1.162769463E0,-1.758000135E0,8.455050468E0,1.395000100E0,8.747826483E0
1.164731456E0,-1.758000135E0,8.493000031E0,1.395000100E0,8.784511328E0
1.166693278E0,-1.758000135E0,8.455050468E0,1.395000100E0,8.747826483E0
1.168655151E0,-1.720050097E0,8.493000031E0,1.395000100E0,8.776995336E0
1.170617036E0,-1.720050097E0,8.569950104E0,1.318050027E0,8.839676068E0
1.172578918E0,-1.720050097E0,8.608050346E0,1.279950023E0,8.871041380E0
1.174540783E0,-1.681950092E0,8.608050346E0,1.126049995E0,8.842820561E0
1.176502636E0,-1.720050097E0,8.608050346E0,1.050000072E0,8.840792004E0
1.178464256E0,-1.720050097E0,8.608050346E0,9.730500579E-1,8.831983329E0
1.180425944E0,-1.720050097E0,8.608050346E0,1.050000072E0,8.840792004E0
1.182387321E0,-1.720050097E0,8.685000420E0,1.011000037E0,8.911224703E0
1.184348790E0,-1.758000135E0,8.685000420E0,8.580000401E-1,8.902581695E0
1.186310644E0,-1.758000135E0,8.647050858E0,8.200500607E-1,8.861971288E0
1.188272393E0,-1.758000135E0,8.685000420E0,6.660000086E-1,8.886132611E0
1.190234256E0,-1.681950092E0,8.647050858E0,7.050000429E-1,8.837277279E0
1.192196086E0,-1.642950058E0,8.647050858E0,7.429500222E-1,8.833048633E0
1.194157980E0,-1.642950058E0,8.647050858E0,7.429500222E-1,8.833048633E0
1.196119855E0,-1.681950092E0,8.608050346E0,7.050000429E-1,8.799119953E0
1.198081721E0,-1.642950058E0,8.608050346E0,8.200500607E-1,8.801721295E0
1.200043573E0,-1.642950058E0,8.569950104E0,8.959500194E-1,8.771890111E0
1.202005238E0,-1.720050097E0,8.569950104E0,9.349500537E-1,8.790719465E0
1.203966958E0,-1.720050097E0,8.532000542E0,1.050000072E0,8.766761416E0
1.205929185E0,-1.834950089E0,8.493000031E0,1.087950110E0,8.756810309E0
1.207891264E0,-1.795950055E0,8.532000542E0,1.087950110E0,8.786586669E0
1.209853110E0,-1.795950055E0,8.416950226E0,1.050000072E0,8.670235744E0
1.211814997E0,-1.911000133E0,8.455050468E0,9.730500579E-1,8.722764834E0
1.213777151E0,-1.987950087E0,8.532000542E0,8.580000401E-1,8.802450957E0
1.215739226E0,-2.065050125E0,8.569950104E0,7.810500264E-1,8.849774909E0
1.217701214E0,-2.065050125E0,8.569950104E0,6.280500293E-1,8.837585849E0
1.219663228E0,-2.065050125E0,8.532000542E0,4.360500276E-1,8.789175439E0
1.221626351E0,-2.140950203E0,8.569950104E0,3.220500052E-1,8.839198423E0
1.223589149E0,-2.218050003E0,8.608050346E0,2.830500007E-1,8.893727783E0
1.225550968E0,-2.218050003E0,8.608050346E0,2.449500114E-1,8.892596757E0
1.227513074E0,-2.295000076E0,8.647050858E0,1.680000126E-1,8.948001894E0
1.229474920E0,-2.332950115E0,8.647050858E0,5.295000225E-2,8.956391487E0
1.231436843E0,-2.448000193E0,8.722949982E0,5.295000225E-2,9.060097407E0
1.233398496E0,-2.485950232E0,8.761950493E0,9.195000678E-2,9.108247899E0
1.235360228E0,-2.563050032E0,8.761950493E0,1.500000060E-2,9.129141630E0
1.237321868E0,-2.640000105E0,8.800050735E0,-2.205000073E-2,9.187544814E0
1.239283535E0,-2.640000105E0,8.800050735E0,-6.105000153E-2,9.187721187E0
1.241245276E0,-2.755050182E0,8.877000809E0,-6.105000153E-2,9.294900320E0
1.243206995E0,-2.793000221E0,8.877000809E0,-9.900000691E-2,9.306545793E0
1.245169002E0,-2.793000221E0,8.914950371E0,-1.759500057E-1,9.343882959E0
1.247130922E0,-2.830950022E0,8.991000175E0,-6.105000153E-2,9.426350794E0
1.249092801E0,-2.869950056E0,9.030000687E0,-6.105000153E-2,9.475296978E0
1.251054693E0,-2.908050060E0,9.067950249E0,-9.900000691E-2,9.523354339E0
1.253016710E0,-2.946000099E0,9.145050049E0,-6.105000153E-2,9.608047881E0
1.254978691E0,-2.985000134E0,9.183000565E0,-6.105000153E-2,9.656161363E0
1.256940502E0,-2.946000099E0,9.259950638E0,-6.105000153E-2,9.717475470E0
1.258902372E0,-2.985000134E0,9.259950638E0,-9.900000691E-2,9.729682041E0
1.260864348E0,-3.022950172E0,9.220950127E0,-1.369500011E-1,9.704787699E0
1.262826293E0,-3.022950172E0,9.220950127E0,-1.759500057E-1,9.705416394E0
1.264788123E0,-2.946000099E0,9.220950127E0,-1.759500057E-1,9.681724858E0
1.266749987E0,-3.022950172E0,9.220950127E0,-9.900000691E-2,9.704326354E0
1.268711685E0,-3.022950172E0,9.183000565E0,-2.140500098E-1,9.670136737E0
1.270673439E0,-3.214950085E0,9.183000565E0,-8.659500480E-1,9.767971791E0
1.272635075E0,-3.061050177E0,9.106050491E0,-4.819500148E-1,9.618859576E0
1.274596746E0,-3.022950172E0,9.106050491E0,-1.759500057E-1,9.596319175E0
1.276558127E0,-3.061050177E0,9.106050491E0,-1.369500011E-1,9.607754110E0
1.278519593E0,-3.061050177E0,9.067950249E0,-1.759500057E-1,9.572288561E0
1.280481638E0,-3.061050177E0,9.030000687E0,-3.289500177E-1,9.540395626E0
1.282443514E0,-3.022950172E0,8.991000175E0,-4.060500264E-1,9.494271353E0
1.284405400E0,-3.100050211E0,8.991000175E0,-4.819500148E-1,9.522639932E0
1.286367283E0,-3.138000250E0,8.953050613E0,-5.970000029E-1,9.505817685E0
1.288329124E0,-3.138000250E0,8.953050613E0,-7.120500207E-1,9.513736179E0
1.290290977E0,-3.138000250E0,8.877000809E0,-7.510500550E-1,9.445224461E0
1.292252633E0,-3.138000250E0,8.800050735E0,-7.510500550E-1,9.372940558E0
1.294214353E0,-3.175950050E0,8.761950493E0,-7.890000343E-1,9.353125478E0
1.296176355E0,-3.175950050E0,8.685000420E0,-8.659500480E-1,9.287936288E0
1.298138274E0,-3.214950085E0,8.647050858E0,-8.659500480E-1,9.265919386E0
1.300099973E0,-3.214950085E0,8.647050858E0,-9.040500522E-1,9.269557653E0
1.302061737E0,-3.214950085E0,8.569950104E0,-9.040500522E-1,9.197676626E0
1.304023417E0,-3.291000128E0,8.532000542E0,-9.810000658E-1,9.197177622E0
1.305985122E0,-3.367950201E0,8.493000031E0,-9.810000658E-1,9.188933518E0
1.307946946E0,-3.445050240E0,8.416950226E0,-9.810000658E-1,9.147446823E0
1.309908735E0,-3.559950113E0,8.377950668E0,-1.210950017E0,9.183120502E0
1.311870637E0,-3.712950230E0,8.416950226E0,-1.287000060E0,9.289102199E0
1.313832505E0,-3.636000156E0,8.340000153E0,-8.269500136E-1,9.135641521E0
1.315794108E0,-3.559950113E0,8.377950668E0,-5.970000029E-1,9.122483829E0
1.317755799E0,-3.598050117E0,8.263050079E0,-5.970000029E-1,9.032185243E0
1.319717536E0,-3.751050234E0,8.377950668E0,-5.590500236E-1,9.196356463E0
1.321679259E0,-3.712950230E0,8.302050591E0,-5.590500236E-1,9.111672752E0
1.323641081E0,-3.675000191E0,8.340000153E0,-4.819500148E-1,9.126527530E0
1.325602874E0,-3.790050268E0,8.340000153E0,-4.819500148E-1,9.173459511E0
1.327564566E0,-3.790050268E0,8.416950226E0,-4.440000355E-1,9.241572819E0
1.329526309E0,-3.865950108E0,8.455050468E0,-4.060500264E-1,9.305822117E0
1.331488307E0,-3.943050146E0,8.455050468E0,-2.910000086E-1,9.333820433E0
1.333450230E0,-3.981000185E0,8.493000031E0,-2.910000086E-1,9.384247066E0
1.335412243E0,-4.018949986E0,8.416950226E0,-2.140500098E-1,9.329674565E0
1.337374230E0,-3.981000185E0,8.493000031E0,-1.369500011E-1,9.380733836E0
1.339336039E0,-4.096050262E0,8.493000031E0,-6.105000153E-2,9.429337430E0
1.341297910E0,-4.096050262E0,8.569950104E0,1.500000060E-2,9.498520808E0
1.343259572E0,-3.981000185E0,8.608050346E0,9.195000678E-2,9.484479324E0
1.345221295E0,-3.981000185E0,8.647050858E0,9.195000678E-2,9.519890010E0
1.347182802E0,-3.828000069E0,8.647050858E0,1.300500035E-1,9.457377335E0
1.349144372E0,-3.865950108E0,8.608050346E0,1.300500035E-1,9.437214314E0
1.351105189E0,-3.904950142E0,8.722949982E0,2.070000172E-1,9.559358817E0
1.353066223E0,-3.675000191E0,8.761950493E0,3.220500052E-1,9.506898498E0
1.355028207E0,-3.559950113E0,8.838000298E0,4.360500276E-1,9.538009944E0
1.356989913E0,-3.406050205E0,8.877000809E0,4.750500321E-1,9.519873628E0
1.358951469E0,-3.253050089E0,8.838000298E0,5.130000114E-1,9.431635762E0
1.360913069E0,-3.175950050E0,8.838000298E0,6.280500293E-1,9.412298063E0
1.362874941E0,-3.175950050E0,8.877000809E0,6.280500293E-1,9.448928454E0
1.364836744E0,-3.022950172E0,8.877000809E0,6.660000086E-1,9.401219448E0
1.366798238E0,-2.830950022E0,8.914950371E0,7.810500264E-1,9.386195038E0
1.368759823E0,-2.601000071E0,8.953050613E0,8.959500194E-1,9.366164802E0
1.370721713E0,-2.371050119E0,8.953050613E0,9.349500537E-1,9.308766060E0
1.372683514E0,-2.256000042E0,8.953050613E0,1.050000072E0,9.292424421E0
1.374645518E0,-2.179949999E0,8.991000175E0,1.050000072E0,9.310895032E0
1.376607452E0,-2.179949999E0,9.030000687E0,1.087950110E0,9.352899542E0
1.378568969E0,-2.103000164E0,9.067950249E0,1.203000069E0,9.386029010E0
1.380530608E0,-2.179949999E0,8.991000175E0,1.318050027E0,9.344919584E0
1.382492263E0,-2.256000042E0,9.067950249E0,1.279950023E0,9.431623930E0
1.384453913E0,-1.987950087E0,9.030000687E0,1.279950023E0,9.334405713E0
1.386415279E0,-1.834950089E0,9.145050049E0,1.356000066E0,9.425376300E0
1.388376742E0,-1.720050097E0,9.259950638E0,1.471050024E0,9.532536196E0
1.390338292E0,-1.720050097E0,9.298050880E0,1.432950020E0,9.563768518E0
1.392299816E0,-1.720050097E0,9.412950516E0,1.471050024E0,9.681229153E0
1.394261357E0,-1.720050097E0,9.528000832E0,1.471050024E0,9.793128221E0
1.396222893E0,-1.758000135E0,9.604950905E0,1.510050058E0,9.880581842E0
1.398184369E0,-1.795950055E0,9.720000267E0,1.510050058E0,9.999204617E0
1.400145876E0,-1.834950089E0,9.796050072E0,1.471050024E0,1.007440455E1
1.402107060E0,-1.795950055E0,9.873000145E0,1.471050024E0,1.014226585E1
1.404068338E0,-1.642950058E0,9.949950218E0,1.471050024E0,1.019140728E1
1.406029965E0,-1.452000022E0,1.002600002E1,1.395000100E0,1.022619215E1
1.407991490E0,-1.452000022E0,1.006500053E1,1.356000066E0,1.025920445E1
1.409953036E0,-1.489950061E0,1.014105034E1,1.356000066E0,1.033922576E1
1.411914572E0,-1.375050068E0,1.025595093E1,1.240950108E0,1.042186400E1
1.413876246E0,-1.297950029E0,1.033305073E1,1.203000069E0,1.048350231E1
1.415837879E0,-1.222050071E0,1.041000080E1,1.087950110E0,1.053779666E1
1.417799447E0,-1.222050071E0,1.044795036E1,1.011000037E0,1.056764847E1
1.419761035E0,-1.297950029E0,1.044795036E1,9.730500579E-1,1.057313423E1
1.421722520E0,-1.413000107E0,1.048605061E1,8.959500194E-1,1.061868886E1
1.423684035E0,-1.489950061E0,1.060095024E1,8.959500194E-1,1.074257063E1
1.425645576E0,-1.375050068E0,1.060095024E1,7.810500264E-1,1.071825302E1
1.427607110E0,-1.222050071E0,1.060095024E1,7.050000429E-1,1.069441805E1
1.429568649E0,-1.183050036E0,1.060095024E1,6.660000086E-1,1.068753056E1
1.431530187E0,-1.222050071E0,1.056300068E1,6.280500293E-1,1.065198745E1
1.433491766E0,-1.297950029E0,1.056300068E1,6.280500293E-1,1.066096170E1
1.435453336E0,-1.297950029E0,1.056300068E1,4.750500321E-1,1.065304323E1
1.437415004E0,-1.413000107E0,1.052505016E1,4.360500276E-1,1.062842368E1
1.439376644E0,-1.413000107E0,1.048605061E1,3.979500234E-1,1.058830444E1
1.441339292E0,-1.452000022E0,1.041000080E1,3.220500052E-1,1.051570906E1
1.443301644E0,-1.489950061E0,1.037100029E1,2.449500114E-1,1.048034344E1
1.445263198E0,-1.528050065E0,1.029495049E1,2.449500114E-1,1.041061684E1
1.447224972E0,-1.528050065E0,1.025595093E1,2.070000172E-1,1.037122536E1
1.449186650E0,-1.605000019E0,1.018005085E1,1.680000126E-1,1.030716665E1
1.451148357E0,-1.681950092E0,1.010295010E1,1.680000126E-1,1.024337741E1
1.453110271E0,-1.795950055E0,9.988050461E0,1.300500035E-1,1.014906408E1
1.455072124E0,-1.834950089E0,9.949950218E0,9.195000678E-2,1.011815230E1
1.457033970E0,-1.911000133E0,9.873000145E0,5.295000225E-2,1.005638390E1
1.458995819E0,-2.065050125E0,9.796050072E0,5.295000225E-2,1.001148504E1
1.460957619E0,-2.140950203E0,9.720000267E0,-2.205000073E-2,9.953017591E0
1.462919434E0,-2.256000042E0,9.565950394E0,-2.205000073E-2,9.828399123E0
1.464881510E0,-2.371050119E0,9.565950394E0,1.500000060E-2,9.855430513E0
1.466843509E0,-2.563050032E0,9.490050316E0,-1.369500011E-1,9.831024146E0
1.468805120E0,-2.640000105E0,9.412950516E0,-3.289500177E-1,9.781689326E0
1.470766834E0,-2.716050148E0,9.375000000E0,-2.910000086E-1,9.764846871E0
1.472728342E0,-2.830950022E0,9.298050880E0,-4.060500264E-1,9.727944532E0
1.474689911E0,-2.908050060E0,9.298050880E0,-4.440000355E-1,9.752314667E0
1.476651488E0,-3.061050177E0,9.259950638E0,-4.440000355E-1,9.762881236E0
1.478613062E0,-3.138000250E0,9.259950638E0,-4.440000355E-1,9.787280900E0
1.480574440E0,-3.253050089E0,9.145050049E0,-4.440000355E-1,9.716553469E0
1.482535858E0,-3.214950085E0,9.067950249E0,-7.510500550E-1,9.650269527E0
1.484497551E0,-3.483000278E0,9.183000565E0,-3.670500219E-1,9.828200040E0
1.486459163E0,-3.712950230E0,9.183000565E0,-2.520000041E-1,9.908430894E0
1.488420869E0,-3.828000069E0,9.375000000E0,-2.140500098E-1,1.012867350E1
1.490382548E0,-3.943050146E0,9.451050758E0,-1.369500011E-1,1.024152138E1
1.492343878E0,-4.018949986E0,9.528000832E0,-9.900000691E-2,1.034140028E1
1.494305314E0,-4.057950020E0,9.565950394E0,-6.105000153E-2,1.039125076E1
1.496266869E0,-4.096050262E0,9.643050194E0,-6.105000153E-2,1.047710704E1
1.498228389E0,-4.134000301E0,9.681000710E0,-1.369500011E-1,1.052760602E1
1.500190111E0,-4.210950375E0,9.720000267E0,-9.900000691E-2,1.059340876E1
1.502151774E0,-4.210950375E0,9.720000267E0,-9.900000691E-2,1.059340876E1
1.504113490E0,-4.210950375E0,9.796050072E0,-6.105000153E-2,1.066294646E1
1.506075177E0,-4.249050140E0,9.835050583E0,-1.369500011E-1,1.071454163E1
1.508036736E0,-4.363950253E0,9.988050461E0,-3.289500177E-1,1.090474309E1
1.509998333E0,-4.326000214E0,1.010295010E1,-4.440000355E-1,1.099913699E1
1.511960221E0,-4.326000214E0,1.025595093E1,-4.060500264E-1,1.113838785E1
1.513922024E0,-4.326000214E0,1.033305073E1,-4.060500264E-1,1.120941978E1
1.515883846E0,-4.288050175E0,1.041000080E1,-3.670500219E-1,1.126455577E1
1.517845653E0,-4.288050175E0,1.048605061E1,-1.759500057E-1,1.133029523E1
1.519807506E0,-4.173000336E0,1.056300068E1,5.295000225E-2,1.135754018E1
1.521769345E0,-4.057950020E0,1.041000080E1,2.449500114E-1,1.117564654E1
1.523729977E0,-4.057950020E0,1.037100029E1,2.070000172E-1,1.113855711E1
1.525690963E0,-4.018949986E0,1.067805004E1,5.130000114E-1,1.142085289E1
1.527652605E0,-3.981000185E0,1.075500011E1,5.130000114E-1,1.147961493E1
1.529614048E0,-3.904950142E0,1.087005043E1,4.750500321E-1,1.155994397E1
1.531575783E0,-3.865950108E0,1.098495007E1,7.050000429E-1,1.166669290E1
1.533537432E0,-3.828000069E0,1.106100082E1,8.200500607E-1,1.173336294E1
1.535498908E0,-3.790050268E0,1.113795090E1,9.730500579E-1,1.180530633E1
1.537460434E0,-3.598050117E0,1.117605019E1,1.126049995E0,1.179483154E1
1.539421649E0,-3.598050117E0,1.121400070E1,1.011000037E0,1.182040175E1
1.541382963E0,-3.675000191E0,1.125300026E1,8.959500194E-1,1.187174661E1
1.543344494E0,-3.598050117E0,1.117605019E1,1.050000072E0,1.178781416E1
1.545305961E0,-3.483000278E0,1.110000038E1,1.548000097E0,1.173616648E1
1.547267512E0,-3.367950201E0,1.102305031E1,2.008050203E0,1.169970052E1
1.549229038E0,-3.406050205E0,1.094595051E1,2.046000004E0,1.164478967E1
1.551190759E0,-3.330000162E0,1.090800095E1,2.200050116E0,1.161523165E1
1.553152422E0,-3.291000128E0,1.090800095E1,2.161050081E0,1.159677990E1
1.555113760E0,-3.214950085E0,1.090800095E1,2.085000038E0,1.156147109E1
1.557075194E0,-3.138000250E0,1.094595051E1,2.046000004E0,1.156922617E1
1.559036794E0,-3.100050211E0,1.090800095E1,2.008050203E0,1.151638231E1
1.560998345E0,-3.022950172E0,1.083105087E1,1.893000126E0,1.140321622E1
1.562960212E0,-2.869950056E0,1.083105087E1,2.046000004E0,1.139010063E1
1.564921976E0,-2.830950022E0,1.071600056E1,2.238000154E0,1.130732465E1
1.566883522E0,-2.755050182E0,1.060095024E1,2.353049994E0,1.120300370E1
1.568845132E0,-2.601000071E0,1.048605061E1,2.391000032E0,1.106523112E1
1.570806792E0,-2.332950115E0,1.029495049E1,2.736000061E0,1.090478602E1
1.572768437E0,-2.140950203E0,1.010295010E1,3.502950191E0,1.090522482E1
1.574730022E0,-2.103000164E0,9.988050461E0,4.116000175E0,1.100569031E1
1.576691612E0,-2.026050091E0,9.910950661E0,4.308000088E0,1.099503009E1
1.578653276E0,-1.950000048E0,9.757950783E0,4.345950127E0,1.085851676E1
1.580614918E0,-1.758000135E0,9.643050194E0,4.345950127E0,1.072223223E1
1.582576440E0,-1.567050099E0,9.490050316E0,4.498950005E0,1.061872178E1
1.584537997E0,-1.413000107E0,9.375000000E0,4.690950394E0,1.057791141E1
1.586499416E0,-1.297950029E0,9.259950638E0,4.921050072E0,1.056636616E1
1.588460862E0,-1.144950032E0,9.145050049E0,5.035950184E0,1.050255422E1
1.590422776E0,-1.030050039E0,9.030000687E0,5.112000465E0,1.042758190E1
1.592384552E0,-8.380500674E-1,8.953050613E0,5.151000023E0,1.036302294E1
1.594346366E0,-7.230000496E-1,8.838000298E0,5.151000023E0,1.025503679E1
1.596308168E0,-4.930500090E-1,8.722949982E0,5.227050304E0,1.018111043E1
1.598269707E0,-2.629500031E-1,8.722949982E0,5.151000023E0,1.013369628E1
1.600231324E0,-1.099500060E-1,8.608050346E0,5.151000023E0,1.003211947E1
1.602192849E0,1.189500093E-1,8.532000542E0,4.996950150E0,9.888310935E0
1.604154401E0,2.340000123E-1,8.493000031E0,4.921050072E0,9.818479482E0
1.606116837E0,4.639500082E-1,8.455050468E0,4.806000233E0,9.736568506E0
1.608079014E0,7.320000529E-1,8.416950226E0,4.653000355E0,9.645272805E0
1.610040584E0,8.850000501E-1,8.302050591E0,4.498950005E0,9.484082467E0
1.612002329E0,1.039050102E0,8.224950790E0,4.345950127E0,9.360380501E0
1.613963697E0,1.230000019E0,8.148000717E0,4.269000053E0,9.280472897E0
1.615925175E0,1.306950092E0,8.110050201E0,4.153950214E0,9.205234120E0
1.617886723E0,1.345050097E0,8.032950401E0,4.116000175E0,9.125727881E0
1.619848250E0,1.459950089E0,7.957050323E0,4.116000175E0,9.076759419E0
1.621809736E0,1.575000048E0,7.879950523E0,4.039050102E0,8.993785139E0
1.623771242E0,1.690050125E0,7.879950523E0,4.039050102E0,9.014644497E0
1.625732965E0,1.767000079E0,7.879950523E0,4.000950336E0,9.012408841E0
1.627694624E0,1.882050037E0,7.879950523E0,3.886050224E0,8.985383628E0
1.629656008E0,1.959000111E0,7.842000484E0,3.733050108E0,8.903387902E0
1.631617473E0,1.996950150E0,7.726950169E0,3.273000240E0,8.625897019E0
1.633579022E0,1.804950118E0,7.381950378E0,2.314950228E0,7.944182203E0
1.635540547E0,1.996950150E0,7.534950256E0,2.506050110E0,8.188013948E0
1.637501729E0,2.035050154E0,7.534950256E0,2.659050226E0,8.245450418E0
1.639463011E0,2.111999989E0,7.573050499E0,2.736000061E0,8.324502036E0
1.641424728E0,2.111999989E0,7.612050533E0,2.773950100E0,8.372494039E0
1.643386317E0,2.188950062E0,7.687950134E0,2.812950134E0,8.474005434E0
1.645347732E0,2.149950027E0,7.687950134E0,2.812950134E0,8.464015055E0
1.647309184E0,2.188950062E0,7.726950169E0,2.659050226E0,8.459775966E0
1.649270736E0,2.111999989E0,7.842000484E0,2.391000032E0,8.466073275E0
1.651232259E0,2.035050154E0,7.957050323E0,2.238000154E0,8.512621434E0
1.653193576E0,1.959000111E0,8.032950401E0,2.046000004E0,8.517751440E0
1.655154953E0,1.882050037E0,8.224950790E0,1.893000126E0,8.647275717E0
1.657116209E0,1.767000079E0,8.302050591E0,1.740000129E0,8.664521553E0
1.659077497E0,1.614000082E0,8.416950226E0,1.701000094E0,8.737473816E0
1.661039077E0,1.459950089E0,8.532000542E0,1.548000097E0,8.793337922E0
1.663000572E0,1.345050097E0,8.647050858E0,1.510050058E0,8.880365954E0
1.664962073E0,1.269000053E0,8.800050735E0,1.471050024E0,9.011949970E0
1.666923572E0,1.192050099E0,8.953050613E0,1.471050024E0,9.151070260E0
1.668884789E0,1.077000022E0,9.067950249E0,1.510050058E0,9.255695649E0
1.670846098E0,8.470500112E-1,9.220950127E0,1.548000097E0,9.388275628E0
1.672807090E0,6.550500393E-1,9.375000000E0,1.624950051E0,9.537304558E0
1.674768175E0,5.020500422E-1,9.565950394E0,1.701000094E0,9.728970269E0
1.676729655E0,3.109500110E-1,9.720000267E0,1.816050053E0,9.893085105E0
1.678691019E0,1.960500032E-1,9.835050583E0,1.893000126E0,1.001748996E1
1.680652622E0,8.100000024E-2,1.006500053E1,1.930950046E0,1.024887139E1
1.682614130E0,-1.099500060E-1,1.025595093E1,1.969950080E0,1.044400889E1
1.684575630E0,-2.250000089E-1,1.041000080E1,1.969950080E0,1.059714325E1
1.686537132E0,-3.019500077E-1,1.056300068E1,2.008050203E0,1.075641310E1
1.688498541E0,-4.549500346E-1,1.079295063E1,2.046000004E0,1.099458407E1
1.690459978E0,-6.469500065E-1,1.098495007E1,2.122950077E0,1.120689918E1
1.692421174E0,-7.230000496E-1,1.113795090E1,2.122950077E0,1.136149622E1
1.694382440E0,-8.380500674E-1,1.125300026E1,2.046000004E0,1.146814975E1
1.696344159E0,-9.529500604E-1,1.152105045E1,2.008050203E0,1.173349833E1
1.698305745E0,-9.919500351E-1,1.171305084E1,2.008050203E0,1.192525851E1
1.700267322E0,-1.144950032E0,1.182795048E1,1.930950046E0,1.203909844E1
1.702228901E0,-1.260000110E0,1.201905060E1,1.855050087E0,1.222646263E1
1.704190553E0,-1.413000107E0,1.221105099E1,1.740000129E0,1.241506891E1
1.706152193E0,-1.605000019E0,1.240305042E1,1.624950051E0,1.261158783E1
1.708113580E0,-1.642950058E0,1.251795101E1,1.585950017E0,1.272452828E1
1.710075041E0,-1.681950092E0,1.263300037E1,1.471050024E0,1.282909361E1
1.712036952E0,-1.758000135E0,1.270905018E1,1.471050024E0,1.291412053E1
1.713998731E0,-1.795950055E0,1.286295033E1,1.395000100E0,1.306242523E1
1.715960589E0,-1.873050094E0,1.290105057E1,1.203000069E0,1.309170087E1
1.717922424E0,-1.873050094E0,1.297800064E1,1.050000072E0,1.315444098E1
1.719884093E0,-1.950000048E0,1.297800064E1,9.349500537E-1,1.315694237E1
1.721845810E0,-2.140950203E0,1.309305096E1,9.349500537E-1,1.329984146E1
1.723807633E0,-2.485950232E0,1.301595020E1,9.349500537E-1,1.328416500E1
1.725769424E0,-2.946000099E0,1.297800064E1,8.959500194E-1,1.333829613E1
1.727731325E0,-3.253050089E0,1.286295033E1,8.200500607E-1,1.329324295E1
1.729693193E0,-3.406050205E0,1.259400082E1,5.509500504E-1,1.305808487E1
1.731655036E0,-3.445050240E0,1.236405087E1,3.979500234E-1,1.284120279E1
1.733616887E0,-3.330000162E0,1.209600067E1,3.600000143E-1,1.255116462E1
1.735578866E0,-3.330000162E0,1.190400028E1,3.600000143E-1,1.236623321E1
1.737540808E0,-3.253050089E0,1.171305084E1,4.750500321E-1,1.216567168E1
1.739502872E0,-3.175950050E0,1.163595009E1,4.750500321E-1,1.207094303E1
1.741464894E0,-3.175950050E0,1.140600014E1,5.130000114E-1,1.185101966E1
1.743426846E0,-3.175950050E0,1.132905006E1,6.660000086E-1,1.178463364E1
1.745388819E0,-3.175950050E0,1.125300026E1,6.660000086E-1,1.171154258E1
1.747350644E0,-3.253050089E0,1.113795090E1,6.660000086E-1,1.162238534E1
1.749312512E0,-3.330000162E0,1.110000038E1,6.660000086E-1,1.160786223E1
1.751274044E0,-3.330000162E0,1.098495007E1,6.280500293E-1,1.149575904E1
1.753235671E0,-3.291000128E0,1.087005043E1,5.899500251E-1,1.137263027E1
1.755197373E0,-3.100050211E0,1.071600056E1,5.130000114E-1,1.116719071E1
1.757159053E0,-3.022950172E0,1.060095024E1,5.130000114E-1,1.103546749E1
1.759120568E0,-3.061050177E0,1.056300068E1,4.360500276E-1,1.100623238E1
1.761082132E0,-3.061050177E0,1.052505016E1,3.220500052E-1,1.096587549E1
1.763044701E0,-3.061050177E0,1.056300068E1,2.830500007E-1,1.100123306E1
1.765006976E0,-3.061050177E0,1.052505016E1,1.300500035E-1,1.096191690E1
1.766968570E0,-3.022950172E0,1.056300068E1,9.195000678E-2,1.098743218E1
1.768930363E0,-2.985000134E0,1.060095024E1,9.195000678E-2,1.101357465E1
1.770891858E0,-2.869950056E0,9.910950661E0,-8.659500480E-1,1.035439162E1
1.772853440E0,-2.563050032E0,1.006500053E1,-6.360000372E-1,1.040566948E1
1.774814250E0,-2.563050032E0,1.021800041E1,3.600000143E-1,1.054070007E1
1.776775286E0,-2.716050148E0,1.033305073E1,7.810500264E-1,1.071255828E1
1.778736910E0,-2.755050182E0,1.029495049E1,7.050000429E-1,1.068051179E1
1.780698361E0,-2.677950144E0,1.014105034E1,5.130000114E-1,1.050121364E1
1.782660500E0,-2.601000071E0,9.988050461E0,2.830500007E-1,1.032504095E1
1.784622438E0,-2.677950144E0,9.910950661E0,9.195000678E-2,1.026678210E1
1.786583694E0,-2.601000071E0,9.796050072E0,-9.900000691E-2,1.013595577E1
1.788545142E0,-2.485950232E0,9.643050194E0,-1.759500057E-1,9.959885742E0
1.790506561E0,-2.448000193E0,9.490050316E0,-1.759500057E-1,9.802281283E0
1.792467988E0,-2.410050154E0,9.412950516E0,-1.759500057E-1,9.718175629E0
1.794429680E0,-2.371050119E0,9.336000443E0,-9.900000691E-2,9.632890736E0
1.796391294E0,-2.410050154E0,9.220950127E0,-1.759500057E-1,9.532325078E0
1.798352694E0,-2.371050119E0,9.145050049E0,-2.520000041E-1,9.450784257E0
1.800314151E0,-2.295000076E0,9.030000687E0,-2.140500098E-1,9.319536209E0
1.802275883E0,-2.179949999E0,8.953050613E0,-1.759500057E-1,9.216303798E0
1.804237534E0,-2.179949999E0,8.914950371E0,-1.369500011E-1,9.178631565E0
1.806199414E0,-2.256000042E0,8.800050735E0,-1.759500057E-1,9.086329707E0
1.808161226E0,-2.218050003E0,8.722949982E0,-2.140500098E-1,9.003078341E0
1.810122914E0,-2.218050003E0,8.685000420E0,-2.520000041E-1,8.967300715E0
1.812084628E0,-2.218050003E0,8.569950104E0,-2.140500098E-1,8.854919989E0
1.814046450E0,-2.218050003E0,8.532000542E0,-3.289500177E-1,8.821733796E0
1.816008241E0,-2.218050003E0,8.416950226E0,-3.670500219E-1,8.712033209E0
1.817969963E0,-2.179949999E0,8.302050591E0,-3.670500219E-1,8.591330032E0
1.819931705E0,-2.179949999E0,8.263050079E0,-4.440000355E-1,8.557295989E0
1.821893503E0,-2.179949999E0,8.148000717E0,-4.440000355E-1,8.446255603E0
1.823855298E0,-2.065050125E0,8.224950790E0,-1.759500057E-1,8.482051988E0
1.825816974E0,-2.179949999E0,8.032950401E0,-3.289500177E-1,8.329986930E0
1.827778685E0,-2.179949999E0,7.995000362E0,-4.060500264E-1,8.296812003E0
1.829740553E0,-2.103000164E0,7.918050289E0,-5.209500194E-1,8.209111949E0
1.831702375E0,-2.026050091E0,7.842000484E0,-5.209500194E-1,8.116233085E0
1.833664270E0,-2.065050125E0,7.879950523E0,-5.209500194E-1,8.162685906E0
1.835626144E0,-1.987950087E0,7.842000484E0,-5.590500236E-1,8.109343628E0
1.837587626E0,-1.987950087E0,7.765050411E0,-5.590500236E-1,8.034954285E0
1.839549223E0,-1.987950087E0,7.726950169E0,-5.590500236E-1,7.998139870E0
1.841511111E0,-1.950000048E0,7.687950134E0,-5.209500194E-1,7.948488308E0
1.843472914E0,-1.873050094E0,7.612050533E0,-4.819500148E-1,7.853910223E0
1.845434579E0,-1.795950055E0,7.650000572E0,-4.819500148E-1,7.872751817E0
1.847396291E0,-1.758000135E0,7.612050533E0,-2.140500098E-1,7.815349973E0
1.849357980E0,-1.834950089E0,7.573050499E0,-5.209500194E-1,7.809579029E0
1.851319676E0,-1.834950089E0,7.497000217E0,-6.739500165E-1,7.747661758E0
1.853281142E0,-1.795950055E0,7.534950256E0,-6.360000372E-1,7.772091611E0
1.855242676E0,-1.758000135E0,7.573050499E0,-5.970000029E-1,7.797311546E0
1.857204223E0,-1.758000135E0,7.573050499E0,-5.209500194E-1,7.791857754E0
1.859165760E0,-1.758000135E0,7.612050533E0,-5.209500194E-1,7.829767986E0
1.861127165E0,-1.758000135E0,7.612050533E0,-5.970000029E-1,7.835195390E0
1.863088608E0,-1.795950055E0,7.650000572E0,-5.970000029E-1,7.880631596E0
1.865050342E0,-1.758000135E0,7.650000572E0,-5.970000029E-1,7.872069755E0
1.867011991E0,-1.795950055E0,7.612050533E0,-6.360000372E-1,7.846862173E0
1.868973812E0,-1.720050097E0,7.650000572E0,-6.360000372E-1,7.866738659E0
1.870935592E0,-1.834950089E0,7.726950169E0,-5.970000029E-1,7.964245711E0
1.872897449E0,-1.758000135E0,7.650000572E0,-6.360000372E-1,7.875123445E0
1.874859284E0,-1.681950092E0,7.687950134E0,-7.120500207E-1,7.901933220E0
1.876820953E0,-1.758000135E0,7.687950134E0,-7.510500550E-1,7.922071568E0
1.878782671E0,-1.720050097E0,7.687950134E0,-7.120500207E-1,7.910130519E0
1.880744398E0,-1.567050099E0,7.687950134E0,-8.269500136E-1,7.889491087E0
1.882706125E0,-1.567050099E0,7.650000572E0,-7.120500207E-1,7.841247987E0
1.884667768E0,-1.758000135E0,7.305000305E0,-1.287000060E0,7.622989118E0
1.886629435E0,-1.642950058E0,7.267050266E0,-1.824000120E0,7.670481139E0
1.888590996E0,-1.567050099E0,7.420050144E0,-7.510500550E-1,7.620817958E0
1.890552589E0,-1.567050099E0,7.534950256E0,-2.520000041E-1,7.700300344E0
1.892514132E0,-1.567050099E0,7.612050533E0,5.295000225E-2,7.771857116E0
1.894475680E0,-1.605000019E0,7.687950134E0,-1.369500011E-1,7.854893865E0
1.896437172E0,-1.605000019E0,7.765050411E0,-1.759500057E-1,7.931140609E0
1.898398680E0,-1.681950092E0,7.765050411E0,-3.670500219E-1,7.953596024E0
1.900360403E0,-1.758000135E0,7.842000484E0,-5.970000029E-1,8.058780620E0
1.902322063E0,-1.795950055E0,7.803000450E0,-8.269500136E-1,8.049602409E0
1.904283766E0,-1.834950089E0,7.842000484E0,-9.810000658E-1,8.113345460E0
1.906245452E0,-1.873050094E0,7.803000450E0,-1.018950105E0,8.089090925E0
1.908206831E0,-1.834950089E0,7.765050411E0,-1.018950105E0,8.043712391E0
1.910168300E0,-1.873050094E0,7.687950134E0,-9.420000315E-1,7.968704912E0
1.912129985E0,-1.873050094E0,7.726950169E0,-8.659500480E-1,7.997746248E0
1.914091606E0,-1.834950089E0,7.612050533E0,-8.659500480E-1,7.877831214E0
1.916053306E0,-1.795950055E0,7.573050499E0,-7.120500207E-1,7.815596311E0
1.918014986E0,-1.795950055E0,7.420050144E0,-7.120500207E-1,7.667437380E0
1.919976366E0,-1.758000135E0,7.342950344E0,-7.120500207E-1,7.583963308E0
1.921937834E0,-1.720050097E0,7.267050266E0,-7.120500207E-1,7.501706948E0
1.923899564E0,-1.681950092E0,7.189950466E0,-6.739500165E-1,7.414752352E0
1.925861217E0,-1.605000019E0,7.152000427E0,-6.360000372E-1,7.357420147E0
1.927822866E0,-1.605000019E0,7.152000427E0,-6.739500165E-1,7.360797769E0
1.929784519E0,-1.528050065E0,7.152000427E0,-7.120500207E-1,7.347997166E0
1.931746399E0,-1.528050065E0,7.189950466E0,-7.510500550E-1,7.388802399E0
1.933708212E0,-1.567050099E0,7.152000427E0,-7.510500550E-1,7.360083716E0
1.935669884E0,-1.567050099E0,7.152000427E0,-8.269500136E-1,7.368215690E0
1.937631598E0,-1.605000019E0,7.189950466E0,-7.890000343E-1,7.409044056E0
1.939593106E0,-1.642950058E0,7.228050232E0,-7.120500207E-1,7.446543512E0
1.941554675E0,-1.605000019E0,7.228050232E0,-6.739500165E-1,7.434712089E0
1.943516252E0,-1.567050099E0,7.228050232E0,-6.360000372E-1,7.423264256E0
1.945477827E0,-1.567050099E0,7.189950466E0,-7.120500207E-1,7.393108206E0
1.947439315E0,-1.567050099E0,7.189950466E0,-8.269500136E-1,7.405057734E0
1.949400829E0,-1.528050065E0,7.189950466E0,-9.420000315E-1,7.410646987E0
1.951362236E0,-1.528050065E0,7.189950466E0,-9.810000658E-1,7.415705350E0
1.953323675E0,-1.528050065E0,7.228050232E0,-9.810000658E-1,7.452651091E0
1.955285229E0,-1.567050099E0,7.189950466E0,-9.420000315E-1,7.418786813E0
1.957246750E0,-1.528050065E0,7.189950466E0,-9.040500522E-1,7.405918660E0
1.959208427E0,-1.567050099E0,7.152000427E0,-9.810000658E-1,7.387091258E0
1.961170058E0,-1.528050065E0,7.113000393E0,-9.810000658E-1,7.341122034E0
1.963131627E0,-1.605000019E0,7.113000393E0,-1.057050109E0,7.368049578E0
1.965093214E0,-1.605000019E0,7.113000393E0,-1.096050024E0,7.373745677E0
1.967054699E0,-1.681950092E0,6.997950554E0,-1.171950102E0,7.292032303E0
1.969016214E0,-1.681950092E0,7.075050354E0,-1.249050021E0,7.378713952E0
1.970977800E0,-1.758000135E0,7.075050354E0,-1.287000060E0,7.402923148E0
1.972939365E0,-1.834950089E0,7.075050354E0,-1.441050053E0,7.449832521E0
1.974900680E0,-1.834950089E0,7.075050354E0,-1.479000092E0,7.457266296E0
1.976862065E0,-1.834950089E0,7.189950466E0,-1.249050021E0,7.524796043E0
1.978823493E0,-1.950000048E0,7.189950466E0,-1.210950017E0,7.547468969E0
1.980784909E0,-2.065050125E0,7.342950344E0,-1.210950017E0,7.723325172E0
1.982746469E0,-2.218050003E0,7.381950378E0,-1.249050021E0,7.808525031E0
1.984707986E0,-2.371050119E0,7.534950256E0,-1.287000060E0,8.003356995E0
1.986669489E0,-2.448000193E0,7.687950134E0,-1.363950014E0,8.182764927E0
1.988630993E0,-2.640000105E0,7.803000450E0,-1.479000092E0,8.369220863E0
1.990592717E0,-2.793000221E0,7.995000362E0,-1.516950130E0,8.603604984E0
1.992554376E0,-2.869950056E0,8.148000717E0,-1.594050050E0,8.784504800E0
1.994515894E0,-3.022950172E0,8.302050591E0,-1.594050050E0,8.977932240E0
1.996477454E0,-3.138000250E0,8.493000031E0,-1.671000123E0,9.207080780E0
1.998439213E0,-3.214950085E0,8.647050858E0,-1.671000123E0,9.375480467E0
2.000400914E0,-3.406050205E0,8.761950493E0,-1.824000120E0,9.576008087E0
2.002362606E0,-3.520950079E0,8.838000298E0,-2.284050226E0,9.783875723E0
2.004324301E0,-3.483000278E0,8.953050613E0,-1.900950074E0,9.792957542E0
2.006285813E0,-3.559950113E0,9.183000565E0,-1.555950046E0,9.971044315E0
2.008247378E0,-3.712950230E0,9.336000443E0,-1.402050018E0,1.014458712E1
2.010209244E0,-3.828000069E0,9.490050316E0,-1.441050053E0,1.033398591E1
2.012171009E0,-3.865950108E0,9.643050194E0,-1.363950014E0,1.047827977E1
2.014132555E0,-3.943050146E0,9.757950783E0,-1.402050018E0,1.061748521E1
2.016094165E0,-4.057950020E0,9.835050583E0,-1.441050053E0,1.073647072E1
2.018056050E0,-4.134000301E0,9.988050461E0,-1.402050018E0,1.090031443E1
2.020017855E0,-4.134000301E0,1.010295010E1,-1.402050018E0,1.100569413E1
2.021979659E0,-4.173000336E0,1.018005085E1,-1.287000060E0,1.107717185E1
2.023941466E0,-4.173000336E0,1.029495049E1,-1.287000060E0,1.118285770E1
2.025903319E0,-4.134000301E0,1.037100029E1,-1.210950017E0,1.123004922E1
2.027865158E0,-4.173000336E0,1.041000080E1,-1.096050024E0,1.126868999E1
2.029827005E0,-4.173000336E0,1.044795036E1,-1.018950105E0,1.129654186E1
2.031788850E0,-4.134000301E0,1.048605061E1,-9.420000315E-1,1.131081694E1
2.033750401E0,-4.096050262E0,1.052505016E1,-9.040500522E-1,1.133011982E1
2.035712025E0,-4.134000301E0,1.056300068E1,-8.659500480E-1,1.137615099E1
2.037673863E0,-4.057950020E0,1.056300068E1,-7.510500550E-1,1.134054751E1
2.039635638E0,-4.018949986E0,1.060095024E1,-7.890000343E-1,1.136462169E1
2.041597497E0,-3.904950142E0,1.056300068E1,-7.890000343E-1,1.128929316E1
2.043559331E0,-3.828000069E0,1.056300068E1,-7.890000343E-1,1.126290766E1
2.045521025E0,-3.865950108E0,1.052505016E1,-7.510500550E-1,1.123771896E1
2.047482742E0,-3.790050268E0,1.060095024E1,-8.269500136E-1,1.128842209E1
2.049444430E0,-3.751050234E0,1.056300068E1,-8.269500136E-1,1.123971563E1
2.051406127E0,-3.751050234E0,1.048605061E1,-9.420000315E-1,1.117653789E1
2.053367458E0,-3.712950230E0,1.044795036E1,-1.057050109E0,1.113835810E1
2.055328896E0,-3.675000191E0,1.044795036E1,-1.134000063E0,1.113333954E1
2.057290661E0,-3.636000156E0,1.037100029E1,-1.287000060E0,1.106501303E1
2.059252341E0,-3.636000156E0,1.029495049E1,-1.363950014E0,1.100303877E1
2.061214035E0,-3.598050117E0,1.021800041E1,-1.479000092E0,1.093347787E1
2.063175725E0,-3.598050117E0,1.014105034E1,-1.555950046E0,1.087234322E1
2.065137553E0,-3.636000156E0,9.988050461E0,-1.708950043E0,1.076578652E1
2.067099341E0,-3.598050117E0,9.949950218E0,-1.786050081E0,1.073021197E1
2.069060838E0,-3.559950113E0,9.873000145E0,-1.824000120E0,1.065252801E1
2.071022420E0,-3.559950113E0,9.796050072E0,-1.900950074E0,1.059478424E1
2.072984491E0,-3.520950079E0,9.681000710E0,-2.014950037E0,1.049661316E1
2.074946418E0,-3.559950113E0,9.604950905E0,-2.092050076E0,1.045490317E1
2.076907756E0,-3.520950079E0,9.604950905E0,-2.169000149E0,1.045737697E1
2.078869266E0,-3.559950113E0,9.565950394E0,-2.245050192E0,1.045088045E1
2.080830954E0,-3.559950113E0,9.528000832E0,-2.284050226E0,1.042463093E1
2.082792582E0,-3.636000156E0,9.490050316E0,-2.245050192E0,1.040777606E1
2.084754151E0,-3.675000191E0,9.528000832E0,-2.284050226E0,1.046447857E1
2.086715737E0,-3.675000191E0,9.565950394E0,-2.245050192E0,1.049062837E1
2.088677402E0,-3.751050234E0,9.528000832E0,-2.284050226E0,1.049142808E1
2.090639043E0,-3.828000069E0,9.528000832E0,-2.206950188E0,1.050271458E1
2.092600569E0,-3.865950108E0,9.528000832E0,-2.206950188E0,1.051660588E1
2.094562126E0,-3.943050146E0,9.565950394E0,-2.130000114E0,1.056370919E1
2.096523886E0,-4.057950020E0,9.604950905E0,-2.014950037E0,1.061989001E1
2.098485586E0,-4.096050262E0,9.604950905E0,-1.861950040E0,1.060658133E1
2.100447412E0,-4.173000336E0,9.643050194E0,-1.747050047E0,1.065150378E1
2.102409201E0,-4.288050175E0,9.757950783E0,-1.671000123E0,1.078875429E1
2.104370703E0,-4.288050175E0,9.796050072E0,-1.555950046E0,1.080606089E1
2.106332285E0,-4.671000004E0,9.796050072E0,-2.437050104E0,1.112295155E1
2.108293861E0,-4.441050053E0,9.949950218E0,-1.977000117E0,1.107397690E1
2.110255439E0,-4.402950287E0,9.988050461E0,-9.810000658E-1,1.095944727E1
2.112217105E0,-4.479000092E0,1.002600002E1,-6.360000372E-1,1.099939154E1
2.114178745E0,-4.479000092E0,1.006500053E1,-7.510500550E-1,1.104218066E1
2.116140327E0,-4.518000126E0,1.006500053E1,-9.420000315E-1,1.107266567E1
2.118101915E0,-4.518000126E0,1.010295010E1,-1.018950105E0,1.111396352E1
2.120063939E0,-4.479000092E0,1.014105034E1,-1.134000063E0,1.114398044E1
2.122025836E0,-4.441050053E0,1.018005085E1,-1.210950017E0,1.117241070E1
2.123987720E0,-4.363950253E0,1.018005085E1,-1.210950017E0,1.114198802E1
2.125949608E0,-4.249050140E0,1.025595093E1,-1.134000063E0,1.115907311E1
2.127911561E0,-4.173000336E0,1.029495049E1,-1.018950105E0,1.115518698E1
2.129873509E0,-4.096050262E0,1.033305073E1,-8.659500480E-1,1.114896563E1
2.131835023E0,-3.904950142E0,1.037100029E1,-7.120500207E-1,1.110465208E1
2.133796665E0,-3.865950108E0,1.048605061E1,-4.440000355E-1,1.118480950E1
2.135758545E0,-3.751050234E0,1.056300068E1,-2.520000041E-1,1.121208568E1
2.137720355E0,-3.675000191E0,1.063995075E1,1.500000060E-2,1.125674924E1
2.139681262E0,-3.598050117E0,1.071600056E1,2.830500007E-1,1.130746434E1
2.141642434E0,-3.483000278E0,1.083105087E1,5.509500504E-1,1.139063211E1
2.143604395E0,-3.367950201E0,1.090800095E1,7.050000429E-1,1.143785811E1
2.145566124E0,-3.291000128E0,1.098495007E1,1.011000037E0,1.151181701E1
2.147528035E0,-3.214950085E0,1.121400070E1,1.165050030E0,1.172378170E1
2.149489893E0,-3.175950050E0,1.132905006E1,1.318050027E0,1.183939568E1
2.151451528E0,-3.138000250E0,1.152105045E1,1.471050024E0,1.203102811E1
2.153413218E0,-3.022950172E0,1.167405033E1,1.471050024E0,1.214848415E1
2.155374955E0,-2.946000099E0,1.182795048E1,1.510050058E0,1.228249080E1
2.157336678E0,-2.946000099E0,1.198095036E1,1.585950017E0,1.243934586E1
2.159298366E0,-2.793000221E0,1.213395023E1,1.663050056E0,1.256182049E1
2.161260064E0,-2.755050182E0,1.236405087E1,1.740000129E0,1.278622915E1
2.163222079E0,-2.640000105E0,1.251795101E1,1.930950046E0,1.293820954E1
2.165183994E0,-2.601000071E0,1.270905018E1,2.046000004E0,1.313283190E1
2.167145830E0,-2.410050154E0,1.286295033E1,2.046000004E0,1.324575210E1
2.169107689E0,-2.371050119E0,1.293900108E1,1.816050053E0,1.327921931E1
2.171069352E0,-2.065050125E0,1.316895103E1,2.085000038E0,1.349195792E1
2.173031073E0,-1.911000133E0,1.339905071E1,2.812950134E0,1.382386234E1
2.174992955E0,-1.758000135E0,1.347600079E1,2.851050138E0,1.388602350E1
2.176954779E0,-1.605000019E0,1.370595074E1,3.004050255E0,1.412279819E1
2.178916270E0,-1.489950061E0,1.378200054E1,2.965950251E0,1.417604850E1
2.180877858E0,-1.297950029E0,1.393605042E1,2.889000177E0,1.429141342E1
2.182839388E0,-1.183050036E0,1.359105110E1,2.122950077E0,1.380663589E1
2.184800935E0,-8.380500674E-1,1.378200054E1,2.353049994E0,1.400652388E1
2.186762655E0,-6.079500318E-1,1.378200054E1,2.928000212E0,1.410270639E1
2.188724321E0,-3.780000210E-1,1.382100105E1,3.196050167E0,1.419076075E1
2.190686018E0,-1.099500060E-1,1.378200054E1,3.273000240E0,1.416573890E1
2.192647706E0,1.189500093E-1,1.362900066E1,3.273000240E0,1.401700178E1
2.194609939E0,4.260000288E-1,1.366695023E1,3.426000118E0,1.409625771E1
2.196572013E0,7.320000529E-1,1.351395035E1,3.579000235E0,1.399899713E1
2.198533641E0,1.077000022E0,1.328400040E1,3.502950191E0,1.378024875E1
2.200495400E0,1.269000053E0,1.293900108E1,3.273000240E0,1.340673863E1
2.202456901E0,1.498950124E0,1.255605030E1,3.157950163E0,1.303356819E1
2.204418477E0,1.882050037E0,1.213395023E1,3.081000090E0,1.265967702E1
2.206380234E0,2.265000105E0,1.167405033E1,3.118950129E0,1.229396301E1
2.208341937E0,2.494950056E0,1.125300026E1,3.157950163E0,1.195104346E1
2.210303418E0,2.686950207E0,1.075500011E1,3.157950163E0,1.152659438E1
2.212264954E0,2.802000046E0,1.037100029E1,3.118950129E0,1.118645168E1
2.214226536E0,2.878050089E0,1.006500053E1,3.118950129E0,1.092315238E1
2.216188105E0,2.955000162E0,9.757950783E0,3.118950129E0,1.066196414E1
2.218149639E0,2.992950201E0,9.490050316E0,3.118950129E0,1.042816646E1
2.220111184E0,2.917050123E0,9.259950638E0,3.196050167E0,1.022108624E1
2.222073196E0,2.917050123E0,9.030000687E0,3.196050167E0,1.001323277E1
2.224035085E0,2.764050245E0,8.800050735E0,3.196050167E0,9.761946700E0
2.225996790E0,2.649000168E0,8.608050346E0,3.157950163E0,9.544023359E0
2.227958549E0,2.494950056E0,8.455050468E0,3.157950163E0,9.364043114E0
2.229920185E0,2.380050182E0,8.263050079E0,3.081000090E0,9.134286893E0
2.231881857E0,2.265000105E0,8.032950401E0,3.081000090E0,8.896689226E0
2.233843532E0,2.149950027E0,7.879950523E0,3.004050255E0,8.702885918E0
2.235805220E0,1.996950150E0,7.726950169E0,2.889000177E0,8.487631639E0
2.237766734E0,1.843950033E0,7.534950256E0,2.851050138E0,8.264630299E0
2.239728299E0,1.690050125E0,7.420050144E0,2.773950100E0,8.099889674E0
2.241690012E0,1.537050128E0,7.267050266E0,2.698050022E0,7.902658830E0
2.243651682E0,1.422000051E0,7.113000393E0,2.659050226E0,7.725762541E0
2.245613397E0,1.306950092E0,6.997950554E0,2.698050022E0,7.613074571E0
2.247575086E0,1.153950095E0,6.922050476E0,2.698050022E0,7.518368010E0
2.249536824E0,9.619500637E-1,6.768000126E0,2.659050226E0,7.334965694E0
2.251498547E0,8.089500666E-1,6.730050087E0,2.620950222E0,7.267554915E0
2.253459289E0,5.410500169E-1,6.691950321E0,2.659050226E0,7.221182890E0
2.255420318E0,3.490500152E-1,6.654000282E0,2.620950222E0,7.160093277E0
2.257382152E0,1.570500135E-1,6.691950321E0,2.659050226E0,7.202597581E0
2.259343730E0,-3.299999982E-2,6.654000282E0,2.506050110E0,7.110351321E0
2.261305622E0,-1.870500147E-1,6.730050087E0,2.391000032E0,7.144609369E0
2.263267422E0,-4.549500346E-1,6.807000160E0,2.314950228E0,7.204250500E0
2.265229142E0,-6.469500065E-1,6.844950199E0,2.122950077E0,7.195749062E0
2.267190886E0,-8.770500422E-1,6.883050442E0,1.969950080E0,7.212926138E0
2.269152875E0,-1.068000078E0,7.036950111E0,1.816050053E0,7.345565249E0
2.271114798E0,-1.222050071E0,7.152000427E0,1.777950048E0,7.470316115E0
2.273076677E0,-1.336950064E0,7.342950344E0,1.663050056E0,7.646704566E0
2.275038569E0,-1.528050065E0,7.420050144E0,1.548000097E0,7.732294966E0
2.277000363E0,-1.642950058E0,7.534950256E0,1.510050058E0,7.858435686E0
2.278962185E0,-1.795950055E0,7.687950134E0,1.471050024E0,8.030815777E0
2.280923695E0,-1.950000048E0,7.879950523E0,1.471050024E0,8.249855066E0
2.282885314E0,-2.065050125E0,8.071949959E0,1.432950020E0,8.454238814E0
2.284847198E0,-2.140950203E0,8.263050079E0,1.432950020E0,8.655345755E0
2.286809005E0,-2.332950115E0,8.455050468E0,1.356000066E0,8.875205397E0
2.288770499E0,-2.371050119E0,8.647050858E0,1.279950023E0,9.057131956E0
2.290732084E0,-2.448000193E0,8.800050735E0,1.240950108E0,9.218110167E0
2.292693774E0,-2.448000193E0,8.953050613E0,1.203000069E0,9.359328469E0
2.294655447E0,-2.524950027E0,9.030000687E0,1.087950110E0,9.439275422E0
2.296616964E0,-2.524950027E0,9.220950127E0,1.050000072E0,9.617889271E0
2.298578526E0,-2.524950027E0,9.336000443E0,1.011000037E0,9.724114252E0
2.300540240E0,-2.485950232E0,9.451050758E0,9.349500537E-1,9.817150330E0
2.302501909E0,-2.485950232E0,9.528000832E0,9.349500537E-1,9.891252701E0
2.304463533E0,-2.448000193E0,9.643050194E0,9.349500537E-1,9.992760058E0
2.306425190E0,-2.485950232E0,9.720000267E0,8.959500194E-1,1.007278910E1
2.308386392E0,-2.448000193E0,9.796050072E0,8.200500607E-1,1.013053720E1
2.310347728E0,-2.410050154E0,9.796050072E0,8.580000401E-1,1.012457914E1
2.312309255E0,-2.295000076E0,9.757950783E0,8.580000401E-1,1.006085448E1
2.314270726E0,-2.179949999E0,9.757950783E0,7.810500264E-1,1.002894933E1
2.316232147E0,-2.026050091E0,9.757950783E0,7.050000429E-1,9.990971300E0
2.318193579E0,-1.834950089E0,9.796050072E0,7.810500264E-1,9.996983444E0
2.320155270E0,-1.720050097E0,9.796050072E0,9.349500537E-1,9.989759804E0
2.322116885E0,-1.605000019E0,9.796050072E0,8.959500194E-1,9.967013018E0
2.324078590E0,-1.489950061E0,9.757950783E0,8.580000401E-1,9.908265173E0
2.326040269E0,-1.297950029E0,9.681000710E0,8.959500194E-1,9.808627603E0
2.328001665E0,-1.030050039E0,9.604950905E0,8.200500607E-1,9.694770089E0
2.329963133E0,-8.380500674E-1,9.528000832E0,8.959500194E-1,9.606656765E0
2.331924817E0,-6.079500318E-1,9.336000443E0,1.011000037E0,9.410240623E0
2.333886438E0,-4.549500346E-1,9.220950127E0,1.050000072E0,9.291684504E0
2.335848143E0,-2.629500031E-1,9.145050049E0,1.087950110E0,9.213290321E0
2.337809823E0,-7.200000435E-2,9.030000687E0,1.050000072E0,9.091127353E0
2.339771328E0,8.100000024E-2,8.953050613E0,9.730500579E-1,9.006136947E0
2.341732892E0,1.960500032E-1,8.914950371E0,1.050000072E0,8.978712372E0
2.343694785E0,2.340000123E-1,8.877000809E0,1.050000072E0,8.941946070E0
2.345656582E0,2.340000123E-1,8.838000298E0,1.165050030E0,8.917530310E0
2.347618303E0,3.109500110E-1,8.761950493E0,1.050000072E0,8.830117015E0
2.349580046E0,3.490500152E-1,8.761950493E0,1.050000072E0,8.831540777E0
2.351541539E0,4.260000288E-1,8.761950493E0,1.087950110E0,8.839507221E0
2.353503113E0,5.020500422E-1,8.722949982E0,1.165050030E0,8.814717931E0
2.355464824E0,3.870000243E-1,8.722949982E0,1.203000069E0,8.814013533E0
2.357426495E0,3.490500152E-1,8.685000420E0,1.165050030E0,8.769743997E0
2.359387832E0,3.490500152E-1,8.722949982E0,1.203000069E0,8.812428806E0
2.361349267E0,3.490500152E-1,8.722949982E0,1.240950108E0,8.817689576E0
2.363310933E0,2.719500065E-1,8.722949982E0,1.240950108E0,8.814974212E0
2.365272548E0,1.960500032E-1,8.761950493E0,1.356000066E0,8.868424224E0
2.367233939E0,1.570500135E-1,8.800050735E0,1.318050027E0,8.899596256E0
2.369195396E0,8.100000024E-2,8.800050735E0,1.432950020E0,8.916322095E0
2.371156947E0,4.200000316E-2,8.761950493E0,1.432950020E0,8.878450664E0
2.373118471E0,4.050000105E-3,8.761950493E0,1.395000100E0,8.872306246E0
2.375080173E0,-7.200000435E-2,8.722949982E0,1.432950020E0,8.840157586E0
2.377041837E0,-1.099500060E-1,8.722949982E0,1.471050024E0,8.846803579E0
2.379003310E0,-1.480500102E-1,8.685000420E0,1.510050058E0,8.816541401E0
2.380964839E0,-3.019500077E-1,8.608050346E0,1.471050024E0,8.738060010E0
2.382926558E0,-3.400500119E-1,8.569950104E0,1.471050024E0,8.701934668E0
2.384888222E0,-4.930500090E-1,8.608050346E0,1.471050024E0,8.746748953E0
2.386849419E0,-5.700000525E-1,8.569950104E0,1.471050024E0,8.713950483E0
2.388810757E0,-6.850500107E-1,8.608050346E0,1.395000100E0,8.747219533E0
2.390772329E0,-7.999500632E-1,8.608050346E0,1.432950020E0,8.763092869E0
2.392733832E0,-9.919500351E-1,8.685000420E0,1.395000100E0,8.852074471E0
2.394695377E0,-1.106999993E0,8.722949982E0,1.471050024E0,8.915116014E0
2.396656909E0,-1.144950032E0,8.722949982E0,1.510050058E0,8.926422471E0
2.398618396E0,-1.183050036E0,8.722949982E0,1.510050058E0,8.931389307E0
2.400579902E0,-1.222050071E0,8.722949982E0,1.510050058E0,8.936638850E0
2.402541445E0,-1.297950029E0,8.761950493E0,1.548000097E0,8.991816002E0
2.404502977E0,-1.336950064E0,8.800050735E0,1.585950017E0,9.041214845E0
2.406464517E0,-1.375050068E0,8.838000298E0,1.510050058E0,9.070902002E0
2.408426054E0,-1.452000022E0,8.877000809E0,1.510050058E0,9.120838700E0
2.410387612E0,-1.452000022E0,8.914950371E0,1.585950017E0,9.170598761E0
2.412349150E0,-1.567050099E0,8.953050613E0,1.624950051E0,9.233267242E0
2.414310509E0,-1.567050099E0,9.106050491E0,1.585950017E0,9.375022081E0
2.416271921E0,-1.528050065E0,9.183000565E0,1.548000097E0,9.437093868E0
2.418233345E0,-1.605000019E0,9.145050049E0,1.510050058E0,9.406817562E0
2.420194765E0,-1.681950092E0,9.220950127E0,1.471050024E0,9.487827229E0
2.422156338E0,-1.681950092E0,9.259950638E0,1.471050024E0,9.525735148E0
2.424117856E0,-1.681950092E0,9.298050880E0,1.471050024E0,9.562776504E0
2.426079174E0,-1.720050097E0,9.298050880E0,1.510050058E0,9.575623932E0
2.428040550E0,-1.720050097E0,9.183000565E0,1.548000097E0,9.470077930E0
2.430002115E0,-1.834950089E0,9.336000443E0,1.548000097E0,9.639722527E0
2.431963625E0,-1.720050097E0,9.375000000E0,1.510050058E0,9.650360020E0
2.433924985E0,-1.605000019E0,9.412950516E0,1.471050024E0,9.661451788E0
2.435886392E0,-1.567050099E0,9.375000000E0,1.510050058E0,9.624267359E0
2.437847817E0,-1.528050065E0,9.298050880E0,1.510050058E0,9.543004682E0
2.439809236E0,-1.489950061E0,9.336000443E0,1.471050024E0,9.567906961E0
2.441770571E0,-1.528050065E0,9.298050880E0,1.510050058E0,9.543004682E0
2.443731930E0,-1.681950092E0,9.336000443E0,1.585950017E0,9.617957051E0
2.445693275E0,-1.642950058E0,9.412950516E0,1.510050058E0,9.673839645E0
2.447654654E0,-1.528050065E0,9.412950516E0,1.471050024E0,9.648966918E0
2.449615906E0,-1.489950061E0,9.412950516E0,1.471050024E0,9.643006625E0
2.451577195E0,-1.489950061E0,9.490050316E0,1.471050024E0,9.718281451E0
2.453538595E0,-1.567050099E0,9.412950516E0,1.395000100E0,9.643926001E0
2.455499962E0,-1.489950061E0,9.375000000E0,1.356000066E0,9.589020407E0
2.457461341E0,-1.528050065E0,9.336000443E0,1.279950023E0,9.546418874E0
2.459422722E0,-1.605000019E0,9.336000443E0,1.240950108E0,9.553893787E0
2.461384064E0,-1.605000019E0,9.259950638E0,1.165050030E0,9.469955251E0
2.463345417E0,-1.605000019E0,9.183000565E0,1.050000072E0,9.381152625E0
2.465307211E0,-1.528050065E0,9.106050491E0,9.730500579E-1,9.284498854E0
2.467268876E0,-1.567050099E0,9.067950249E0,9.349500537E-1,9.249729690E0
2.469230403E0,-1.528050065E0,8.953050613E0,8.580000401E-1,9.122949981E0
2.471191964E0,-1.681950092E0,8.877000809E0,8.200500607E-1,9.072077026E0
2.473153499E0,-1.720050097E0,8.953050613E0,8.200500607E-1,9.153587806E0
2.475115041E0,-1.720050097E0,8.953050613E0,7.429500222E-1,9.147002917E0
2.477076398E0,-1.681950092E0,8.953050613E0,5.509500504E-1,9.126314555E0
2.479037810E0,-1.642950058E0,8.914950371E0,3.600000143E-1,9.072222716E0
2.480999029E0,-1.681950092E0,8.914950371E0,2.830500007E-1,9.076641093E0
2.482960291E0,-1.681950092E0,8.800050735E0,3.220500052E-1,8.965130521E0
2.484922417E0,-1.642950058E0,8.722949982E0,3.600000143E-1,8.883622081E0
2.486884289E0,-1.642950058E0,8.685000420E0,2.830500007E-1,8.843564580E0
2.488845771E0,-1.605000019E0,8.608050346E0,2.830500007E-1,8.760974440E0
2.490807368E0,-1.681950092E0,8.608050346E0,2.449500114E-1,8.774251386E0
2.492768569E0,-1.681950092E0,8.569950104E0,1.680000126E-1,8.735057235E0
2.494729862E0,-1.681950092E0,8.608050346E0,9.195000678E-2,8.771313567E0
2.496690136E0,-1.834950089E0,8.722949982E0,2.070000172E-1,8.916263075E0
2.498650708E0,-1.834950089E0,8.761950493E0,3.600000143E-1,8.959264383E0
2.500613177E0,-1.911000133E0,8.838000298E0,1.680000126E-1,9.043804220E0
2.502575091E0,-1.950000048E0,8.838000298E0,1.300500035E-1,9.051500563E0
2.504535450E0,-1.873050094E0,8.722949982E0,3.220500052E-1,8.927591458E0
2.506496257E0,-1.911000133E0,8.608050346E0,3.600000143E-1,8.824967551E0
2.508457739E0,-1.950000048E0,8.569950104E0,3.979500234E-1,8.798005978E0
2.510419024E0,-2.026050091E0,8.416950226E0,4.360500276E-1,8.668337194E0
2.512380651E0,-2.026050091E0,8.340000153E0,3.979500234E-1,8.591789437E0
2.514342178E0,-2.065050125E0,8.340000153E0,3.220500052E-1,8.597892228E0
2.516304064E0,-2.026050091E0,8.302050591E0,1.680000126E-1,8.547347365E0
2.518265855E0,-1.911000133E0,8.263050079E0,1.300500035E-1,8.482147790E0
2.520226270E0,-1.950000048E0,8.263050079E0,2.449500114E-1,8.493556223E0
2.522187088E0,-1.987950087E0,8.302050591E0,3.220500052E-1,8.542816032E0
2.524148389E0,-2.065050125E0,8.263050079E0,4.360500276E-1,8.528339127E0
2.526109548E0,-2.103000164E0,8.302050591E0,5.130000114E-1,8.579616699E0
2.528070921E0,-2.179949999E0,8.340000153E0,5.509500504E-1,8.637785046E0
2.530032235E0,-2.218050003E0,8.377950668E0,4.750500321E-1,8.679601129E0
2.531993632E0,-2.295000076E0,8.377950668E0,5.130000114E-1,8.701738433E0
2.533955004E0,-2.371050119E0,8.377950668E0,5.130000114E-1,8.722104395E0
2.535916391E0,-2.410050154E0,8.416950226E0,4.750500321E-1,8.768070790E0
2.537877773E0,-2.371050119E0,8.455050468E0,5.509500504E-1,8.798482997E0
2.539839204E0,-2.448000193E0,8.493000031E0,5.509500504E-1,8.855918948E0
2.541800620E0,-2.563050032E0,8.493000031E0,6.280500293E-1,8.893521340E0
2.543761820E0,-2.563050032E0,8.493000031E0,7.429500222E-1,8.902373263E0
2.545723083E0,-2.677950144E0,8.532000542E0,7.429500222E-1,8.973205946E0
2.547684442E0,-2.601000071E0,8.608050346E0,6.660000086E-1,9.017055403E0
2.549645773E0,-2.524950027E0,8.647050858E0,5.899500251E-1,9.027452698E0
2.551607217E0,-2.524950027E0,8.647050858E0,7.050000429E-1,9.035700650E0
2.553568625E0,-2.524950027E0,8.722949982E0,8.200500607E-1,9.117988327E0
2.555529961E0,-2.448000193E0,8.722949982E0,8.580000401E-1,9.100479405E0
2.557491319E0,-2.410050154E0,8.761950493E0,9.349500537E-1,9.135329758E0
2.559452752E0,-2.410050154E0,8.800050735E0,9.730500579E-1,9.175841166E0
2.561414163E0,-2.410050154E0,8.761950493E0,1.011000037E0,9.143426013E0
2.563375697E0,-2.371050119E0,8.761950493E0,9.730500579E-1,9.129100806E0
2.565337182E0,-2.295000076E0,8.838000298E0,9.349500537E-1,9.178856476E0
2.567298595E0,-2.371050119E0,8.877000809E0,8.959500194E-1,9.231779269E0
2.569260030E0,-2.218050003E0,8.800050735E0,7.810500264E-1,9.108824178E0
2.571221585E0,-2.218050003E0,8.914950371E0,8.959500194E-1,9.230320274E0
2.573183105E0,-2.332950115E0,8.953050613E0,1.011000037E0,9.307088299E0
2.575144787E0,-2.485950232E0,9.030000687E0,1.011000037E0,9.420349358E0
2.577106418E0,-2.371050119E0,9.030000687E0,1.087950110E0,9.399277978E0
2.579067942E0,-2.332950115E0,9.106050491E0,1.165050030E0,9.472072284E0
2.581029497E0,-2.140950203E0,9.145050049E0,1.011000037E0,9.446572354E0
2.582991033E0,-2.026050091E0,9.183000565E0,9.730500579E-1,9.454057582E0
2.584952574E0,-1.911000133E0,9.183000565E0,1.050000072E0,9.438321939E0
2.586914272E0,-1.795950055E0,9.220950127E0,1.050000072E0,9.452716963E0
2.588875937E0,-1.795950055E0,9.220950127E0,1.087950110E0,9.457007628E0
2.590837815E0,-1.758000135E0,9.259950638E0,1.165050030E0,9.497083335E0
2.592799630E0,-1.720050097E0,9.259950638E0,1.240950108E0,9.499748171E0
2.594761527E0,-1.720050097E0,9.298050880E0,1.203000069E0,9.532026630E0
2.596723399E0,-1.758000135E0,9.298050880E0,1.203000069E0,9.538947731E0
2.598685169E0,-1.834950089E0,9.259950638E0,1.203000069E0,9.516351024E0
2.600646988E0,-1.758000135E0,9.298050880E0,1.240950108E0,9.543808036E0
2.602608704E0,-1.605000019E0,9.259950638E0,1.279950023E0,9.484776378E0
2.604570450E0,-1.567050099E0,9.298050880E0,1.279950023E0,9.515653853E0
2.606532267E0,-1.336950064E0,9.336000443E0,1.356000066E0,9.528225224E0
2.608494063E0,-1.260000110E0,9.336000443E0,1.432950020E0,9.529000488E0
2.610455529E0,-1.260000110E0,9.336000443E0,1.395000100E0,9.523367567E0
2.612417113E0,-1.297950029E0,9.336000443E0,1.471050024E0,9.539893433E0
2.614378644E0,-1.375050068E0,9.298050880E0,1.471050024E0,9.513595589E0
2.616340190E0,-1.375050068E0,9.336000443E0,1.432950020E0,9.544894589E0
2.618301907E0,-1.413000107E0,9.298050880E0,1.395000100E0,9.507699236E0
2.620263573E0,-1.452000022E0,9.336000443E0,1.432950020E0,9.556283487E0
2.622225140E0,-1.489950061E0,9.375000000E0,1.432950020E0,9.600204266E0
2.624186733E0,-1.528050065E0,9.336000443E0,1.471050024E0,9.573914008E0
2.626148621E0,-1.681950092E0,9.336000443E0,1.395000100E0,9.588320273E0
2.628110423E0,-1.795950055E0,9.375000000E0,1.395000100E0,9.646869279E0
2.630072098E0,-1.795950055E0,9.375000000E0,1.471050024E0,9.658159751E0
2.632033810E0,-1.758000135E0,9.451050758E0,1.471050024E0,9.725066225E0
2.633995482E0,-1.642950058E0,9.490050316E0,1.356000066E0,9.726205636E0
2.635957146E0,-1.605000019E0,9.528000832E0,1.395000100E0,9.762420304E0
2.637918663E0,-1.567050099E0,9.643050194E0,1.356000066E0,9.863204309E0
2.639880223E0,-1.605000019E0,9.681000710E0,1.318050027E0,9.901265357E0
2.641841758E0,-1.642950058E0,9.681000710E0,1.356000066E0,9.912607922E0
2.643803300E0,-1.720050097E0,9.720000267E0,1.279950023E0,9.953655087E0
2.645764672E0,-1.720050097E0,9.796050072E0,1.279950023E0,1.002793306E1
2.647726084E0,-1.795950055E0,9.835050583E0,1.240950108E0,1.007440389E1
2.649687508E0,-1.795950055E0,9.835050583E0,1.165050030E0,1.006533646E1
2.651648929E0,-1.834950089E0,9.873000145E0,1.126049995E0,1.010500679E1
2.653610443E0,-1.834950089E0,9.910950661E0,1.126049995E0,1.014208920E1
2.655571929E0,-1.873050094E0,9.910950661E0,1.050000072E0,1.014089541E1
2.657533530E0,-1.987950087E0,9.910950661E0,1.087950110E0,1.016673615E1
2.659495091E0,-2.065050125E0,9.949950218E0,1.087950110E0,1.022005757E1
2.661456806E0,-2.026050091E0,9.949950218E0,1.050000072E0,1.020827549E1
2.663418476E0,-1.987950087E0,1.002600002E1,1.011000037E0,1.027106339E1
2.665379993E0,-2.103000164E0,9.988050461E0,1.011000037E0,1.025699190E1
2.667341555E0,-2.140950203E0,1.002600002E1,9.349500537E-1,1.029458478E1
2.669303040E0,-2.179949999E0,1.002600002E1,8.580000401E-1,1.029606830E1
2.671264551E0,-2.179949999E0,1.006500053E1,7.050000429E-1,1.032247271E1
2.673226498E0,-2.295000076E0,9.988050461E0,6.660000086E-1,1.026994320E1
2.675188318E0,-2.371050119E0,9.988050461E0,5.899500251E-1,1.028256153E1
2.677149945E0,-2.485950232E0,9.910950661E0,5.899500251E-1,1.023498571E1
2.679111628E0,-2.793000221E0,9.910950661E0,5.509500504E-1,1.031170884E1
2.681074018E0,-2.830950022E0,9.988050461E0,3.600000143E-1,1.038773460E1
2.683036217E0,-2.755050182E0,9.910950661E0,1.680000126E-1,1.028812269E1
2.684998004E0,-2.830950022E0,9.873000145E0,9.195000678E-2,1.027126403E1
2.686959912E0,-2.869950056E0,9.835050583E0,5.295000225E-2,1.024537149E1
2.688921567E0,-2.985000134E0,9.757950783E0,9.195000678E-2,1.020471872E1
2.690883296E0,-3.100050211E0,9.835050583E0,5.295000225E-2,1.031219351E1
2.692844972E0,-3.291000128E0,9.757950783E0,1.500000060E-2,1.029798574E1
2.694806671E0,-3.367950201E0,9.796050072E0,-2.205000073E-2,1.035886923E1
2.696768586E0,-3.559950113E0,9.757950783E0,-9.900000691E-2,1.038752373E1
2.698730438E0,-3.636000156E0,9.720000267E0,-2.140500098E-1,1.038001540E1
2.700692599E0,-3.751050234E0,9.720000267E0,-2.140500098E-1,1.042087331E1
2.702654669E0,-3.790050268E0,9.720000267E0,-1.759500057E-1,1.043426301E1
2.704616708E0,-4.057950020E0,9.757950783E0,-2.520000041E-1,1.057109577E1
2.706578753E0,-4.096050262E0,9.796050072E0,-4.060500264E-1,1.062568122E1
2.708540700E0,-4.096050262E0,9.949950218E0,-4.819500148E-1,1.077085943E1
2.710502676E0,-4.096050262E0,9.988050461E0,-5.209500194E-1,1.080787531E1
2.712464545E0,-4.057950020E0,9.988050461E0,-4.060500264E-1,1.078855815E1
2.714426445E0,-4.057950020E0,1.002600002E1,-2.520000041E-1,1.081901746E1
2.716388282E0,-4.018949986E0,1.014105034E1,-1.369500011E-1,1.090924453E1
2.718350137E0,-4.018949986E0,1.025595093E1,-1.369500011E-1,1.101613561E1
2.720312161E0,-3.981000185E0,1.033305073E1,-1.759500057E-1,1.107480285E1
2.722274135E0,-3.865950108E0,1.044795036E1,-1.369500011E-1,1.114109475E1
2.724236096E0,-3.828000069E0,1.052505016E1,-9.900000691E-2,1.120000297E1
2.726198061E0,-3.712950230E0,1.063995075E1,-2.205000073E-2,1.126920750E1
2.728159751E0,-3.598050117E0,1.067805004E1,-2.205000073E-2,1.126797247E1
2.730121522E0,-3.406050205E0,1.067805004E1,-2.910000086E-1,1.121189599E1
2.732083201E0,-3.367950201E0,1.090800095E1,9.195000678E-2,1.141648054E1
2.734044907E0,-3.445050240E0,1.079295063E1,2.830500007E-1,1.133297277E1
2.736006056E0,-3.483000278E0,1.102305031E1,3.220500052E-1,1.156471553E1
2.737967368E0,-3.406050205E0,1.113795090E1,4.360500276E-1,1.165526781E1
2.739929065E0,-3.214950085E0,1.125300026E1,3.600000143E-1,1.170877956E1
2.741890659E0,-3.061050177E0,1.136805058E1,4.360500276E-1,1.178103313E1
2.743852593E0,-2.908050060E0,1.132905006E1,4.750500321E-1,1.170597296E1
2.745814428E0,-2.755050182E0,1.136805058E1,6.280500293E-1,1.171397978E1
2.747776411E0,-2.640000105E0,1.136805058E1,7.050000429E-1,1.169184329E1
2.749738351E0,-2.524950027E0,1.144395065E1,7.810500264E-1,1.174518703E1
2.751700219E0,-2.371050119E0,1.140600014E1,8.959500194E-1,1.168423914E1
2.753662114E0,-2.295000076E0,1.144395065E1,8.959500194E-1,1.170614191E1
2.755624131E0,-2.140950203E0,1.148295021E1,9.349500537E-1,1.171818864E1
2.757586112E0,-2.103000164E0,1.140600014E1,9.730500579E-1,1.163899803E1
2.759547710E0,-2.103000164E0,1.140600014E1,9.730500579E-1,1.163899803E1
2.761509421E0,-2.026050091E0,1.140600014E1,1.126049995E0,1.163914545E1
2.763471110E0,-2.026050091E0,1.140600014E1,1.240950108E0,1.165082294E1
2.765432806E0,-2.026050091E0,1.136805058E1,1.318050027E0,1.162216455E1
2.767394362E0,-2.026050091E0,1.132905006E1,1.432950020E0,1.159765494E1
2.769355960E0,-2.026050091E0,1.136805058E1,1.510050058E0,1.164550145E1
2.771317802E0,-2.065050125E0,1.129095078E1,1.548000097E0,1.158215462E1
2.773279573E0,-2.026050091E0,1.132905006E1,1.740000129E0,1.163958138E1
2.775241491E0,-2.065050125E0,1.132905006E1,1.855050087E0,1.166417670E1
2.777203356E0,-2.140950203E0,1.132905006E1,2.046000004E0,1.170970363E1
2.779164840E0,-2.140950203E0,1.132905006E1,2.238000154E0,1.174477279E1
2.781126435E0,-2.179949999E0,1.140600014E1,2.467950106E0,1.187180689E1
2.783088098E0,-2.218050003E0,1.136805058E1,2.583000183E0,1.186693767E1
2.785049741E0,-2.179949999E0,1.136805058E1,2.773950100E0,1.190292212E1
2.787011636E0,-2.218050003E0,1.136805058E1,2.928000212E0,1.194677801E1
2.788973447E0,-2.179949999E0,1.136805058E1,3.157950163E0,1.199822508E1
2.790935120E0,-2.140950203E0,1.136805058E1,3.273000240E0,1.202201199E1
2.792896834E0,-2.140950203E0,1.129095078E1,3.426000118E0,1.199194371E1
2.794858387E0,-2.065050125E0,1.125300026E1,3.579000235E0,1.198764737E1
2.796819988E0,-2.026050091E0,1.121400070E1,3.694050074E0,1.197934458E1
2.798782025E0,-1.987950087E0,1.113795090E1,3.808950186E0,1.193792265E1
2.800743924E0,-1.987950087E0,1.102305031E1,3.886050224E0,1.185584118E1
2.802705627E0,-1.873050094E0,1.094595051E1,3.963000298E0,1.179099320E1
2.804667387E0,-1.911000133E0,1.079295063E1,4.039050102E0,1.168133685E1
2.806629202E0,-1.834950089E0,1.071600056E1,4.078050137E0,1.161164083E1
2.808591001E0,-1.795950055E0,1.063995075E1,4.153950214E0,1.156240853E1
2.810553095E0,-1.642950058E0,1.048605061E1,4.269000053E0,1.144031921E1
2.812515092E0,-1.605000019E0,1.029495049E1,4.269000053E0,1.125994636E1
2.814477048E0,-1.489950061E0,1.018005085E1,4.384050369E0,1.118361677E1
2.816439017E0,-1.413000107E0,1.006500053E1,4.384050369E0,1.106890702E1
2.818400842E0,-1.260000110E0,9.910950661E0,4.461000443E0,1.094143812E1
2.820362709E0,-1.106999993E0,9.757950783E0,4.461000443E0,1.078626800E1
2.822324746E0,-9.150000215E-1,9.681000710E0,4.461000443E0,1.069857583E1
2.824286722E0,-7.999500632E-1,9.565950394E0,4.423050404E0,1.056932836E1
2.826248547E0,-5.700000525E-1,9.412950516E0,4.423050404E0,1.041594510E1
2.828210417E0,-3.400500119E-1,9.375000000E0,4.384050369E0,1.035500636E1
2.830172303E0,-1.480500102E-1,9.259950638E0,4.384050369E0,1.024638972E1
2.832134184E0,8.100000024E-2,9.067950249E0,4.308000088E0,1.003957905E1
2.834095814E0,1.960500032E-1,9.067950249E0,4.308000088E0,1.004116637E1
2.836057507E0,3.870000243E-1,8.953050613E0,4.423050404E0,9.993510853E0
2.838020100E0,6.169500351E-1,8.877000809E0,4.384050369E0,9.919761506E0
2.839982429E0,8.850000501E-1,8.800050735E0,4.384050369E0,9.871373546E0
2.841944418E0,1.000050068E0,8.685000420E0,4.461000443E0,9.814777500E0
2.843906507E0,1.230000019E0,8.608050346E0,4.384050369E0,9.738137833E0
2.845868272E0,1.306950092E0,8.455050468E0,4.423050404E0,9.631166692E0
2.847830128E0,1.384050012E0,8.377950668E0,4.308000088E0,9.521791669E0
2.849791837E0,1.537050128E0,8.302050591E0,4.384050369E0,9.513488569E0
2.851753589E0,1.729050040E0,8.187000275E0,4.345950127E0,9.428884878E0
2.853715406E0,1.804950118E0,8.071949959E0,4.308000088E0,9.325936190E0
2.855677203E0,1.920000076E0,7.995000362E0,4.308000088E0,9.282526372E0
2.857638928E0,2.111999989E0,7.918050289E0,4.231050014E0,9.222681202E0
2.859600671E0,2.188950062E0,7.842000484E0,4.116000175E0,9.123043978E0
2.861562355E0,2.227050066E0,7.803000450E0,3.963000298E0,9.030611241E0
2.863524056E0,2.419050217E0,7.803000450E0,3.924000263E0,9.062913331E0
2.865485567E0,2.533950090E0,7.765050411E0,3.808950186E0,9.012492023E0
2.867447133E0,2.457000017E0,7.726950169E0,3.463950157E0,8.817117368E0
2.869408805E0,2.610000134E0,7.726950169E0,3.234000206E0,8.773631913E0
2.871370443E0,2.686950207E0,7.687950134E0,3.118950129E0,8.720787154E0
2.873331966E0,2.494950056E0,7.534950256E0,2.314950228E0,8.267965028E0
2.875293522E0,2.494950056E0,7.687950134E0,2.046000004E0,8.337593722E0
2.877254697E0,2.802000046E0,7.650000572E0,2.275950193E0,8.458939785E0
2.879215983E0,2.802000046E0,7.726950169E0,2.238000154E0,8.518544938E0
2.881177559E0,2.802000046E0,7.879950523E0,2.200050116E0,8.647834701E0
2.883139053E0,2.764050245E0,7.918050289E0,2.161050081E0,8.660579172E0
2.885100780E0,2.649000168E0,7.995000362E0,2.122950077E0,8.685859181E0
2.887062438E0,2.533950090E0,8.187000275E0,2.046000004E0,8.811015411E0
2.889023957E0,2.419050217E0,8.377950668E0,1.930950046E0,8.931429305E0
2.890985517E0,2.188950062E0,8.569950104E0,1.777950048E0,9.022009395E0
2.892947052E0,2.035050154E0,8.761950493E0,1.663050056E0,9.147619420E0
2.894908594E0,1.882050037E0,8.953050613E0,1.663050056E0,9.298653834E0
2.896870311E0,1.614000082E0,9.067950249E0,1.624950051E0,9.352709802E0
2.898831976E0,1.537050128E0,9.259950638E0,1.585950017E0,9.519687304E0
2.900793494E0,1.345050097E0,9.412950516E0,1.663050056E0,9.652902810E0
2.902755055E0,1.230000019E0,9.565950394E0,1.701000094E0,9.793554426E0
2.904716829E0,1.114950061E0,9.720000267E0,1.663050056E0,9.924074482E0
2.906678530E0,9.240000248E-1,9.873000145E0,1.777950048E0,1.007427488E1
2.908639681E0,6.169500351E-1,1.002600002E1,1.816050053E0,1.020780787E1
2.910600993E0,4.260000288E-1,1.018005085E1,1.893000126E0,1.036331804E1
2.912563110E0,3.109500110E-1,1.029495049E1,1.816050053E0,1.045852443E1
2.914524991E0,1.189500093E-1,1.033305073E1,1.893000126E0,1.050569064E1
2.916487166E0,-1.099500060E-1,1.052505016E1,1.969950080E0,1.070838332E1
2.918449241E0,-2.250000089E-1,1.063995075E1,2.046000004E0,1.083721796E1
2.920411229E0,-4.549500346E-1,1.079295063E1,2.085000038E0,1.100190838E1
2.922373243E0,-7.230000496E-1,1.087005043E1,2.122950077E0,1.109899286E1
2.924335241E0,-9.529500604E-1,1.098495007E1,2.085000038E0,1.122160715E1
2.926297243E0,-1.106999993E0,1.110000038E1,1.893000126E0,1.131454404E1
2.928259243E0,-1.297950029E0,1.110000038E1,1.701000094E0,1.130433917E1
2.930221243E0,-1.375050068E0,1.117605019E1,1.663050056E0,1.138246880E1
2.932183108E0,-1.605000019E0,1.117605019E1,1.548000097E0,1.139633393E1
2.934145012E0,-1.681950092E0,1.117605019E1,1.471050024E0,1.139723835E1
2.936106982E0,-1.873050094E0,1.125300026E1,1.510050058E0,1.150732735E1
2.938068933E0,-1.911000133E0,1.121400070E1,1.510050058E0,1.147545138E1
2.940030922E0,-1.950000048E0,1.113795090E1,1.510050058E0,1.140774744E1
2.941992914E0,-1.987950087E0,1.117605019E1,1.510050058E0,1.145147565E1
2.943954782E0,-2.026050091E0,1.117605019E1,1.510050058E0,1.145815116E1
2.945916686E0,-2.140950203E0,1.110000038E1,1.510050058E0,1.140499572E1
2.947878701E0,-2.256000042E0,1.106100082E1,1.395000100E0,1.137459013E1
2.949840684E0,-2.410050154E0,1.110000038E1,1.318050027E0,1.143484176E1
2.951802522E0,-2.485950232E0,1.110000038E1,1.203000069E0,1.143840750E1
2.953764392E0,-2.601000071E0,1.110000038E1,1.087950110E0,1.145246023E1
2.955726594E0,-2.716050148E0,1.110000038E1,9.349500537E-1,1.146564732E1
2.957688698E0,-2.869950056E0,1.110000038E1,8.580000401E-1,1.149707727E1
2.959650501E0,-2.908050060E0,1.106100082E1,7.050000429E-1,1.145860024E1
2.961612392E0,-3.022950172E0,1.106100082E1,6.660000086E-1,1.148597070E1
2.963574351E0,-2.985000134E0,1.106100082E1,6.280500293E-1,1.147390134E1
2.965536299E0,-2.985000134E0,1.102305031E1,5.899500251E-1,1.143529208E1
2.967498129E0,-3.022950172E0,1.102305031E1,5.899500251E-1,1.144525696E1
2.969459993E0,-3.022950172E0,1.087005043E1,5.899500251E-1,1.129797615E1
2.971421836E0,-3.061050177E0,1.087005043E1,5.509500504E-1,1.130626245E1
2.973383686E0,-3.138000250E0,1.083105087E1,5.130000114E-1,1.128812994E1
2.975345730E0,-3.214950085E0,1.079295063E1,3.979500234E-1,1.126863131E1
2.977307703E0,-3.291000128E0,1.079295063E1,3.600000143E-1,1.128928984E1
2.979269393E0,-3.330000162E0,1.079295063E1,3.220500052E-1,1.129957524E1
2.981231166E0,-3.253050089E0,1.071600056E1,3.220500052E-1,1.120351369E1
2.983193520E0,-3.253050089E0,1.056300068E1,2.830500007E-1,1.105619444E1
2.985155703E0,-3.253050089E0,1.048605061E1,2.449500114E-1,1.098178459E1
2.987117333E0,-3.330000162E0,1.041000080E1,2.449500114E-1,1.093238392E1
2.989079142E0,-3.291000128E0,1.037100029E1,2.449500114E-1,1.088339696E1
2.991040048E0,-3.291000128E0,1.037100029E1,4.360500276E-1,1.088937411E1
2.993001219E0,-3.138000250E0,1.033305073E1,5.509500504E-1,1.081307213E1
2.994963721E0,-2.793000221E0,9.528000832E0,-3.289500177E-1,9.934377595E0
2.996925833E0,-2.716050148E0,9.835050583E0,1.300500035E-1,1.020402182E1
2.998886748E0,-2.830950022E0,9.949950218E0,7.050000429E-1,1.036883853E1
3.000848035E0,-2.946000099E0,1.002600002E1,1.087950110E0,1.050634230E1
3.002809976E0,-2.946000099E0,1.002600002E1,9.730500579E-1,1.049506643E1
3.004771726E0,-2.755050182E0,1.006500053E1,9.730500579E-1,1.048052306E1
3.006733409E0,-2.677950144E0,1.014105034E1,1.050000072E0,1.054110142E1
3.008695112E0,-2.677950144E0,1.006500053E1,9.349500537E-1,1.045704472E1
3.010656593E0,-2.640000105E0,1.006500053E1,6.660000086E-1,1.042676327E1
3.012618160E0,-2.524950027E0,1.006500053E1,4.750500321E-1,1.038774667E1
3.014580954E0,-2.485950232E0,1.002600002E1,3.220500052E-1,1.033461858E1
3.016543389E0,-2.448000193E0,9.949950218E0,2.070000172E-1,1.024875911E1
3.018505135E0,-2.371050119E0,9.873000145E0,1.680000126E-1,1.015510879E1
3.020467083E0,-2.295000076E0,9.873000145E0,2.070000172E-1,1.013834337E1
3.022428713E0,-2.332950115E0,9.835050583E0,2.449500114E-1,1.011092858E1
3.024390449E0,-2.218050003E0,9.681000710E0,1.300500035E-1,9.932695181E0
3.026352268E0,-2.179949999E0,9.643050194E0,5.295000225E-2,9.886526323E0
3.028314062E0,-2.065050125E0,9.643050194E0,1.300500035E-1,9.862543387E0
3.030275783E0,-1.987950087E0,9.565950394E0,2.070000172E-1,9.772522780E0
3.032237526E0,-1.873050094E0,9.451050758E0,5.295000225E-2,9.635013274E0
3.034199333E0,-1.758000135E0,9.336000443E0,1.500000060E-2,9.500089144E0
3.036161129E0,-1.681950092E0,9.298050880E0,1.500000060E-2,9.448964562E0
3.038122670E0,-1.605000019E0,9.183000565E0,-2.205000073E-2,9.322232063E0
3.040084285E0,-1.642950058E0,9.145050049E0,5.295000225E-2,9.291610678E0
3.042046170E0,-1.605000019E0,9.030000687E0,-6.105000153E-2,9.171731819E0
3.044007975E0,-1.528050065E0,8.914950371E0,1.500000060E-2,9.044971095E0
3.045969829E0,-1.567050099E0,8.877000809E0,-6.105000153E-2,9.014461519E0
3.047931668E0,-1.489950061E0,8.761950493E0,-2.205000073E-2,8.887756400E0
3.049893515E0,-1.489950061E0,8.722949982E0,-2.205000073E-2,8.849310356E0
3.051855360E0,-1.375050068E0,8.647050858E0,-6.105000153E-2,8.755911051E0
3.053816667E0,-1.413000107E0,8.569950104E0,-2.205000073E-2,8.685683639E0
3.055778131E0,-1.375050068E0,8.455050468E0,-6.105000153E-2,8.566350928E0
3.057739783E0,-1.297950029E0,8.377950668E0,-6.105000153E-2,8.478116464E0
3.059701403E0,-1.413000107E0,8.416950226E0,-2.205000073E-2,8.534758732E0
3.061663153E0,-1.375050068E0,8.377950668E0,1.500000060E-2,8.490055659E0
3.063624865E0,-1.375050068E0,8.302050591E0,-6.105000153E-2,8.415374846E0
3.065586734E0,-1.375050068E0,8.263050079E0,-9.900000691E-2,8.377264488E0
3.067548557E0,-1.297950029E0,8.187000275E0,-1.759500057E-1,8.291116100E0
3.069510407E0,-1.260000110E0,8.148000717E0,-1.759500057E-1,8.246725069E0
3.071472249E0,-1.222050071E0,8.110050201E0,-2.140500098E-1,8.204397483E0
3.073434231E0,-1.297950029E0,7.995000362E0,-2.140500098E-1,8.102501002E0
3.075396172E0,-1.297950029E0,7.957050323E0,-2.140500098E-1,8.065056822E0
3.077357688E0,-1.222050071E0,7.879950523E0,-2.140500098E-1,7.977019746E0
3.079319328E0,-1.222050071E0,7.842000484E0,-1.369500011E-1,7.937829255E0
3.081281189E0,-1.183050036E0,7.765050411E0,-9.900000691E-2,7.855279516E0
3.083242999E0,-1.222050071E0,7.765050411E0,-9.900000691E-2,7.861247691E0
3.085204672E0,-1.144950032E0,7.765050411E0,-6.105000153E-2,7.849244904E0
3.087166386E0,-1.183050036E0,7.726950169E0,-9.900000691E-2,7.817619030E0
3.089128434E0,-1.183050036E0,7.726950169E0,1.500000060E-2,7.817006543E0
3.091090384E0,-1.297950029E0,7.726950169E0,-1.759500057E-1,7.837180079E0
3.093052019E0,-1.336950064E0,7.650000572E0,-3.670500219E-1,7.774617029E0
3.095013757E0,-1.336950064E0,7.687950134E0,-3.289500177E-1,7.810263815E0
3.096975396E0,-1.336950064E0,7.803000450E0,-3.289500177E-1,7.923538327E0
3.098937064E0,-1.297950029E0,7.765050411E0,-2.910000086E-1,7.878157346E0
3.100898940E0,-1.413000107E0,7.842000484E0,-3.670500219E-1,7.976732829E0
3.102860755E0,-1.375050068E0,7.803000450E0,-4.060500264E-1,7.933628132E0
3.104822374E0,-1.413000107E0,7.842000484E0,-4.440000355E-1,7.980643892E0
3.106784088E0,-1.452000022E0,7.879950523E0,-4.440000355E-1,8.024902513E0
3.108745821E0,-1.489950061E0,7.879950523E0,-4.440000355E-1,8.031855792E0
3.110707548E0,-1.489950061E0,7.918050289E0,-4.440000355E-1,8.069238353E0
3.112669369E0,-1.567050099E0,7.918050289E0,-4.060500264E-1,8.081834137E0
3.114631163E0,-1.642950058E0,7.957050323E0,-5.209500194E-1,8.141579924E0
3.116592879E0,-1.681950092E0,7.957050323E0,-5.209500194E-1,8.149539551E0
3.118554622E0,-1.642950058E0,7.957050323E0,-4.819500148E-1,8.139177511E0
3.120516485E0,-1.642950058E0,7.957050323E0,-4.060500264E-1,8.135036040E0
3.122478312E0,-1.681950092E0,7.918050289E0,-4.060500264E-1,8.104896860E0
3.124440118E0,-1.642950058E0,7.957050323E0,-4.060500264E-1,8.135036040E0
3.126401930E0,-1.642950058E0,7.957050323E0,-4.440000355E-1,8.137018543E0
3.128363587E0,-1.642950058E0,7.957050323E0,-2.520000041E-1,8.128803033E0
3.130325300E0,-1.758000135E0,7.879950523E0,-4.440000355E-1,8.085871676E0
3.132287168E0,-1.795950055E0,7.918050289E0,-5.590500236E-1,8.138396274E0
3.134248990E0,-1.834950089E0,7.842000484E0,-7.510500550E-1,8.088763170E0
3.136210706E0,-1.795950055E0,7.765050411E0,-6.360000372E-1,7.995369944E0
3.138172454E0,-1.987950087E0,7.497000217E0,-1.210950017E0,7.850054634E0
3.140134467E0,-1.873050094E0,7.534950256E0,-1.516950130E0,7.911063754E0
3.142096423E0,-1.873050094E0,7.612050533E0,-4.440000355E-1,7.851672816E0
3.144058206E0,-1.758000135E0,7.650000572E0,1.500000060E-2,7.849413878E0
3.146020040E0,-1.758000135E0,7.687950134E0,1.300500035E-1,7.887461870E0
3.147981933E0,-1.758000135E0,7.765050411E0,1.500000060E-2,7.961582592E0
3.149943808E0,-1.834950089E0,7.726950169E0,-1.369500011E-1,7.943019328E0
3.151905780E0,-1.834950089E0,7.726950169E0,-4.440000355E-1,7.954240176E0
3.153867727E0,-1.834950089E0,7.687950134E0,-5.970000029E-1,7.926413319E0
3.155829421E0,-1.911000133E0,7.612050533E0,-6.739500165E-1,7.877146911E0
3.157791190E0,-1.873050094E0,7.612050533E0,-7.510500550E-1,7.875005153E0
3.159753049E0,-1.911000133E0,7.497000217E0,-8.269500136E-1,7.780795595E0
3.161714881E0,-1.911000133E0,7.381950378E0,-1.057050109E0,7.698211989E0
3.163676709E0,-1.834950089E0,7.305000305E0,-1.096050024E0,7.611267762E0
3.165638553E0,-1.758000135E0,7.342950344E0,-6.360000372E-1,7.577201349E0
3.167600399E0,-1.758000135E0,7.305000305E0,-4.060500264E-1,7.524524607E0
3.169562245E0,-1.758000135E0,7.267050266E0,-3.670500219E-1,7.485673635E0
3.171524407E0,-1.795950055E0,7.152000427E0,-4.819500148E-1,7.389778246E0
3.173486476E0,-1.795950055E0,7.113000393E0,-6.360000372E-1,7.363742747E0
3.175448475E0,-1.834950089E0,7.113000393E0,-7.120500207E-1,7.380300241E0
3.177410488E0,-1.834950089E0,7.036950111E0,-7.120500207E-1,7.307032498E0
3.179372305E0,-1.795950055E0,7.075050354E0,-7.120500207E-1,7.334084084E0
3.181334180E0,-1.795950055E0,7.113000393E0,-5.970000029E-1,7.360476900E0
3.183295841E0,-1.758000135E0,7.113000393E0,-5.209500194E-1,7.345524351E0
3.185257565E0,-1.834950089E0,7.152000427E0,-4.819500148E-1,7.399353199E0
3.187219420E0,-1.795950055E0,7.189950466E0,-4.440000355E-1,7.424147112E0
3.189181244E0,-1.873050094E0,7.228050232E0,-4.060500264E-1,7.477827454E0
3.191142915E0,-1.911000133E0,7.267050266E0,-3.670500219E-1,7.523075621E0
3.193104631E0,-1.987950087E0,7.267050266E0,-3.670500219E-1,7.542989516E0
3.195066319E0,-2.026050091E0,7.305000305E0,-3.289500177E-1,7.587892760E0
3.197028016E0,-2.026050091E0,7.305000305E0,-3.670500219E-1,7.589639922E0
3.198989558E0,-1.987950087E0,7.267050266E0,-3.289500177E-1,7.541231546E0
3.200951155E0,-1.987950087E0,7.342950344E0,-4.060500264E-1,7.618119317E0
3.202912683E0,-2.065050125E0,7.267050266E0,-4.440000355E-1,7.567799391E0
3.204874232E0,-2.026050091E0,7.342950344E0,-5.209500194E-1,7.635128529E0
3.206835769E0,-2.065050125E0,7.342950344E0,-6.360000372E-1,7.654269908E0
3.208797309E0,-2.065050125E0,7.342950344E0,-6.739500165E-1,7.657516595E0
3.210758986E0,-2.103000164E0,7.342950344E0,-7.510500550E-1,7.674998738E0
3.212720620E0,-2.065050125E0,7.381950378E0,-7.890000343E-1,7.705851313E0
3.214682368E0,-2.065050125E0,7.458000183E0,-8.269500136E-1,7.782675959E0
3.216644082E0,-2.026050091E0,7.420050144E0,-8.659500480E-1,7.740277295E0
3.218605591E0,-2.026050091E0,7.458000183E0,-1.018950105E0,7.795184733E0
3.220567160E0,-1.987950087E0,7.458000183E0,-1.018950105E0,7.785369072E0
3.222528293E0,-1.911000133E0,7.497000217E0,-1.096050024E0,7.813978463E0
3.224489550E0,-1.950000048E0,7.458000183E0,-1.134000063E0,7.791676524E0
3.226451136E0,-1.911000133E0,7.497000217E0,-1.249050021E0,7.836903708E0
3.228412625E0,-1.911000133E0,7.534950256E0,-1.249050021E0,7.873215533E0
3.230374353E0,-1.834950089E0,7.573050499E0,-1.249050021E0,7.891657725E0
3.232336010E0,-1.873050094E0,7.650000572E0,-1.287000060E0,7.980425713E0
3.234297569E0,-1.911000133E0,7.726950169E0,-1.210950017E0,8.051340283E0
3.236259160E0,-1.873050094E0,7.803000450E0,-1.249050021E0,8.121284297E0
3.238220869E0,-1.950000048E0,7.918050289E0,-1.363950014E0,8.267912688E0
3.240182543E0,-2.026050091E0,8.032950401E0,-1.363950014E0,8.396042565E0
3.242144419E0,-2.065050125E0,8.187000275E0,-1.249050021E0,8.535310860E0
3.244106235E0,-2.179949999E0,8.302050591E0,-1.171950102E0,8.663122592E0
3.246067741E0,-2.218050003E0,8.377950668E0,-1.210950017E0,8.750783003E0
3.248029328E0,-2.256000042E0,8.416950226E0,-1.402050018E0,8.826116448E0
3.249991038E0,-2.332950115E0,8.532000542E0,-1.516950130E0,8.974342716E0
3.251952711E0,-2.410050154E0,8.569950104E0,-1.632000089E0,9.050735374E0
3.253914587E0,-2.524950027E0,8.685000420E0,-1.594050050E0,9.183986089E0
3.255876403E0,-2.563050032E0,8.761950493E0,-1.594050050E0,9.267254041E0
3.257838202E0,-2.640000105E0,8.914950371E0,-1.402050018E0,9.402748796E0
3.259800012E0,-2.716050148E0,8.953050613E0,-1.363950014E0,9.454861360E0
3.261761729E0,-2.793000221E0,9.030000687E0,-1.326000094E0,9.544634036E0
3.263723473E0,-2.908050060E0,9.067950249E0,-1.363950014E0,9.620022687E0
3.265685336E0,-2.985000134E0,9.106050491E0,-1.441050053E0,9.690562760E0
3.267647164E0,-3.061050177E0,9.145050049E0,-1.479000092E0,9.756506027E0
3.269609037E0,-3.175950050E0,9.259950638E0,-1.594050050E0,9.918383946E0
3.271570880E0,-3.330000162E0,9.298050880E0,-1.516950130E0,9.992186395E0
3.273532503E0,-3.520950079E0,9.336000443E0,-1.594050050E0,1.010440445E1
3.275494190E0,-3.598050117E0,9.490050316E0,-1.479000092E0,1.025643510E1
3.277455882E0,-3.675000191E0,9.528000832E0,-1.326000094E0,1.029789797E1
3.279417572E0,-3.828000069E0,9.604950905E0,-1.210950017E0,1.041033459E1
3.281379116E0,-3.943050146E0,9.681000710E0,-1.171950102E0,1.051869223E1
3.283340713E0,-4.018949986E0,9.720000267E0,-1.057050109E0,1.057107937E1
3.285302781E0,-4.134000301E0,9.796050072E0,-9.420000315E-1,1.067426436E1
3.287264711E0,-4.134000301E0,9.835050583E0,-7.890000343E-1,1.069769599E1
3.289226499E0,-4.210950375E0,9.873000145E0,-7.120500207E-1,1.075710231E1
3.291188328E0,-4.249050140E0,9.949950218E0,-5.970000029E-1,1.083569774E1
3.293150435E0,-4.326000214E0,1.002600002E1,-4.819500148E-1,1.093010659E1
3.295112437E0,-4.326000214E0,1.002600002E1,-4.819500148E-1,1.093010659E1
