"Time (s)","Acceleration x (m/s^2)","Acceleration y (m/s^2)","Acceleration z (m/s^2)","Absolute acceleration (m/s^2)"
3.698669600E-2,5.790000558E-1,3.931950092E0,8.907000542E0,9.753467652E0
3.894845300E-2,5.410500169E-1,4.009050369E0,8.907000542E0,9.782631478E0
4.091292600E-2,5.790000558E-1,3.931950092E0,8.907000542E0,9.753467652E0
4.287522300E-2,5.790000558E-1,3.970950127E0,8.907000542E0,9.769255070E0
4.483815700E-2,5.410500169E-1,3.970950127E0,8.907000542E0,9.767079332E0
4.680139900E-2,5.410500169E-1,3.970950127E0,8.869050026E0,9.732483157E0
4.876457800E-2,5.410500169E-1,3.970950127E0,8.869050026E0,9.732483157E0
5.072763900E-2,5.410500169E-1,3.970950127E0,8.830050468E0,9.696956806E0
5.269073400E-2,5.410500169E-1,3.970950127E0,8.830050468E0,9.696956806E0
5.465380700E-2,6.169500351E-1,3.970950127E0,8.907000542E0,9.771577708E0
5.661688700E-2,5.410500169E-1,3.970950127E0,8.869050026E0,9.732483157E0
5.857993400E-2,5.790000558E-1,3.970950127E0,8.907000542E0,9.769255070E0
6.054301200E-2,5.410500169E-1,3.970950127E0,8.907000542E0,9.767079332E0
6.250586400E-2,5.790000558E-1,3.970950127E0,8.869050026E0,9.734666627E0
6.446878200E-2,5.410500169E-1,3.931950092E0,8.944950104E0,9.785964388E0
6.643206500E-2,5.020500422E-1,3.970950127E0,8.983950615E0,9.835236032E0
6.839524100E-2,5.410500169E-1,3.970950127E0,8.944950104E0,9.801699464E0
7.035795300E-2,4.639500082E-1,3.931950092E0,8.983950615E0,9.817680469E0
7.232082500E-2,5.410500169E-1,3.970950127E0,8.983950615E0,9.837303934E0
7.428393600E-2,5.410500169E-1,3.970950127E0,9.022050858E0,9.872111309E0
7.624697700E-2,4.639500082E-1,3.970950127E0,8.983950615E0,9.833364794E0
7.820988100E-2,5.020500422E-1,3.970950127E0,9.022050858E0,9.870050700E0
8.017282500E-2,5.020500422E-1,3.931950092E0,9.022050858E0,9.854424765E0
8.213603900E-2,5.020500422E-1,4.009050369E0,9.060000420E0,9.920088040E0
8.409918800E-2,5.020500422E-1,3.970950127E0,9.022050858E0,9.870050700E0
8.606229900E-2,5.020500422E-1,3.970950127E0,9.022050858E0,9.870050700E0
8.802542100E-2,5.020500422E-1,3.970950127E0,9.060000420E0,9.904751726E0
8.998866900E-2,5.020500422E-1,4.009050369E0,9.060000420E0,9.920088040E0
9.195188000E-2,4.639500082E-1,3.970950127E0,9.098999977E0,9.938586172E0
9.391470200E-2,5.020500422E-1,3.970950127E0,9.060000420E0,9.904751726E0
9.587767600E-2,5.020500422E-1,3.970950127E0,9.022050858E0,9.870050700E0
9.784076900E-2,4.639500082E-1,4.009050369E0,9.060000420E0,9.918232810E0
9.980382700E-2,5.020500422E-1,3.970950127E0,9.060000420E0,9.904751726E0
1.017666830E-1,4.639500082E-1,4.009050369E0,9.098999977E0,9.953870356E0
1.037295990E-1,4.639500082E-1,4.009050369E0,9.098999977E0,9.953870356E0
1.056925520E-1,4.639500082E-1,3.970950127E0,9.098999977E0,9.938586172E0
1.076555050E-1,4.260000288E-1,4.009050369E0,9.136950493E0,9.986882657E0
1.096186030E-1,4.639500082E-1,4.009050369E0,9.060000420E0,9.918232810E0
1.115816590E-1,4.639500082E-1,4.009050369E0,9.098999977E0,9.953870356E0
1.135446960E-1,4.260000288E-1,4.009050369E0,9.214050293E0,1.005746905E1
1.155077380E-1,4.260000288E-1,4.047000408E0,9.136950493E0,1.000217739E1
1.174706330E-1,4.639500082E-1,4.047000408E0,9.136950493E0,1.000386556E1
1.194336080E-1,4.260000288E-1,4.085999966E0,9.136950493E0,1.001802057E1
1.213967010E-1,4.260000288E-1,4.009050369E0,9.175050735E0,1.002175219E1
1.233597590E-1,4.639500082E-1,4.047000408E0,9.136950493E0,1.000386556E1
1.253226610E-1,3.870000243E-1,4.047000408E0,9.136950493E0,1.000059226E1
1.272856080E-1,4.260000288E-1,4.085999966E0,9.136950493E0,1.001802057E1
1.292486870E-1,3.870000243E-1,4.009050369E0,9.136950493E0,9.985295098E0
1.312117410E-1,4.260000288E-1,4.047000408E0,9.136950493E0,1.000217739E1
1.331750020E-1,3.490500152E-1,4.009050369E0,9.136950493E0,9.983896288E0
1.351382020E-1,3.870000243E-1,4.009050369E0,9.098999977E0,9.950580609E0
1.371010330E-1,3.870000243E-1,4.009050369E0,9.136950493E0,9.985295098E0
1.390639730E-1,4.260000288E-1,4.009050369E0,9.098999977E0,9.952173706E0
1.410271080E-1,4.260000288E-1,4.009050369E0,9.175050735E0,1.002175219E1
1.429901920E-1,4.260000288E-1,4.047000408E0,9.175050735E0,1.003699379E1
1.449534480E-1,3.870000243E-1,4.047000408E0,9.098999977E0,9.965931061E0
1.469166540E-1,3.870000243E-1,3.970950127E0,9.136950493E0,9.970059089E0
1.488793490E-1,3.490500152E-1,3.970950127E0,9.175050735E0,1.000359120E1
1.508421940E-1,4.260000288E-1,4.009050369E0,9.175050735E0,1.002175219E1
1.528055910E-1,4.260000288E-1,3.970950127E0,9.136950493E0,9.971649073E0
1.547688500E-1,4.260000288E-1,4.009050369E0,9.136950493E0,9.986882657E0
1.567317170E-1,4.260000288E-1,4.009050369E0,9.214050293E0,1.005746905E1
1.586946990E-1,3.870000243E-1,4.009050369E0,9.175050735E0,1.002017015E1
1.606576120E-1,3.870000243E-1,3.970950127E0,9.175050735E0,1.000498725E1
1.626205450E-1,4.260000288E-1,3.970950127E0,9.214050293E0,1.004234254E1
1.645838230E-1,3.870000243E-1,4.009050369E0,9.175050735E0,1.002017015E1
1.665470330E-1,4.639500082E-1,3.970950127E0,9.175050735E0,1.000825912E1
1.685102240E-1,4.639500082E-1,4.009050369E0,9.214050293E0,1.005914794E1
1.704734200E-1,4.260000288E-1,3.970950127E0,9.175050735E0,1.000657169E1
1.724363410E-1,4.260000288E-1,4.009050369E0,9.214050293E0,1.005746905E1
1.743993430E-1,4.260000288E-1,3.970950127E0,9.214050293E0,1.004234254E1
1.763625930E-1,4.260000288E-1,3.970950127E0,9.214050293E0,1.004234254E1
1.783257830E-1,4.639500082E-1,4.009050369E0,9.252000809E0,1.009392161E1
1.802890210E-1,4.260000288E-1,4.009050369E0,9.252000809E0,1.009224850E1
1.822522450E-1,4.639500082E-1,4.009050369E0,9.136950493E0,9.988573411E0
1.842154770E-1,4.639500082E-1,3.970950127E0,9.214050293E0,1.004402396E1
1.861787070E-1,4.639500082E-1,4.009050369E0,9.214050293E0,1.005914794E1
1.881421280E-1,4.260000288E-1,4.009050369E0,9.214050293E0,1.005746905E1
1.901054860E-1,4.639500082E-1,3.970950127E0,9.214050293E0,1.004402396E1
1.920685160E-1,4.639500082E-1,3.970950127E0,9.214050293E0,1.004402396E1
1.940316420E-1,3.870000243E-1,3.970950127E0,9.214050293E0,1.004076375E1
1.959946650E-1,4.260000288E-1,4.009050369E0,9.214050293E0,1.005746905E1
1.979577190E-1,5.020500422E-1,4.009050369E0,9.175050735E0,1.002527282E1
1.999204690E-1,4.639500082E-1,4.009050369E0,9.214050293E0,1.005914794E1
2.018833190E-1,4.260000288E-1,4.009050369E0,9.252000809E0,1.009224850E1
2.038463890E-1,4.639500082E-1,3.970950127E0,9.136950493E0,9.973342410E0
2.058093940E-1,4.639500082E-1,4.047000408E0,9.214050293E0,1.007433297E1
2.077723490E-1,4.639500082E-1,4.047000408E0,9.252000809E0,1.010905440E1
2.097353190E-1,4.260000288E-1,4.047000408E0,9.252000809E0,1.010738380E1
2.116985250E-1,4.639500082E-1,3.970950127E0,9.214050293E0,1.004402396E1
2.136616780E-1,4.639500082E-1,4.009050369E0,9.175050735E0,1.002343706E1
2.156249220E-1,4.260000288E-1,4.009050369E0,9.214050293E0,1.005746905E1
2.175881390E-1,4.260000288E-1,3.970950127E0,9.252000809E0,1.007717420E1
2.195510130E-1,4.260000288E-1,4.047000408E0,9.175050735E0,1.003699379E1
2.215139870E-1,5.020500422E-1,4.047000408E0,9.175050735E0,1.004050908E1
2.234771450E-1,4.260000288E-1,4.009050369E0,9.175050735E0,1.002175219E1
2.254402350E-1,4.639500082E-1,4.047000408E0,9.214050293E0,1.007433297E1
2.274033110E-1,4.639500082E-1,4.047000408E0,9.214050293E0,1.007433297E1
2.293663910E-1,4.260000288E-1,4.047000408E0,9.175050735E0,1.003699379E1
2.313294670E-1,4.639500082E-1,4.047000408E0,9.175050735E0,1.003867610E1
2.332925450E-1,4.639500082E-1,4.009050369E0,9.214050293E0,1.005914794E1
2.352556270E-1,4.639500082E-1,4.047000408E0,9.214050293E0,1.007433297E1
2.372187040E-1,4.639500082E-1,4.009050369E0,9.214050293E0,1.005914794E1
2.391817360E-1,4.639500082E-1,4.009050369E0,9.252000809E0,1.009392161E1
2.411447810E-1,5.020500422E-1,4.047000408E0,9.252000809E0,1.011087462E1
2.431082230E-1,4.639500082E-1,4.047000408E0,9.214050293E0,1.007433297E1
2.450715480E-1,5.020500422E-1,4.009050369E0,9.175050735E0,1.002527282E1
2.470347780E-1,5.020500422E-1,4.009050369E0,9.214050293E0,1.006097718E1
2.489980260E-1,4.639500082E-1,4.009050369E0,9.214050293E0,1.005914794E1
2.509612980E-1,4.639500082E-1,4.009050369E0,9.214050293E0,1.005914794E1
2.529245630E-1,4.639500082E-1,4.009050369E0,9.175050735E0,1.002343706E1
2.548879230E-1,4.639500082E-1,4.009050369E0,9.175050735E0,1.002343706E1
2.568512550E-1,5.020500422E-1,3.970950127E0,9.175050735E0,1.001009766E1
2.588143290E-1,4.639500082E-1,3.970950127E0,9.214050293E0,1.004402396E1
2.607774830E-1,4.639500082E-1,4.009050369E0,9.214050293E0,1.005914794E1
2.627407260E-1,4.639500082E-1,3.970950127E0,9.136950493E0,9.973342410E0
2.647039430E-1,4.639500082E-1,3.970950127E0,9.175050735E0,1.000825912E1
2.666671320E-1,4.639500082E-1,3.970950127E0,9.214050293E0,1.004402396E1
2.686303290E-1,4.260000288E-1,4.009050369E0,9.175050735E0,1.002175219E1
2.705932500E-1,4.639500082E-1,3.970950127E0,9.175050735E0,1.000825912E1
2.725562520E-1,5.020500422E-1,3.970950127E0,9.214050293E0,1.004585596E1
2.745194760E-1,5.020500422E-1,3.970950127E0,9.175050735E0,1.001009766E1
2.764826350E-1,4.639500082E-1,4.009050369E0,9.136950493E0,9.988573411E0
2.784460580E-1,4.639500082E-1,4.009050369E0,9.098999977E0,9.953870356E0
2.804094040E-1,4.260000288E-1,4.009050369E0,9.060000420E0,9.916530063E0
2.823726350E-1,4.639500082E-1,3.970950127E0,9.098999977E0,9.938586172E0
2.843358870E-1,4.639500082E-1,4.009050369E0,9.060000420E0,9.918232810E0
2.862991140E-1,5.020500422E-1,3.970950127E0,9.098999977E0,9.940437603E0
2.882623480E-1,5.020500422E-1,3.970950127E0,9.098999977E0,9.940437603E0
2.902254430E-1,4.260000288E-1,3.970950127E0,9.136950493E0,9.971649073E0
2.921885790E-1,4.260000288E-1,4.009050369E0,9.098999977E0,9.952173706E0
2.941517610E-1,4.639500082E-1,4.009050369E0,9.098999977E0,9.953870356E0
2.961149430E-1,4.639500082E-1,4.009050369E0,9.098999977E0,9.953870356E0
2.980783620E-1,3.870000243E-1,4.047000408E0,9.060000420E0,9.930336798E0
3.000417120E-1,4.260000288E-1,4.009050369E0,9.060000420E0,9.916530063E0
3.020053280E-1,4.639500082E-1,4.009050369E0,9.060000420E0,9.918232810E0
3.039688660E-1,4.260000288E-1,4.009050369E0,9.060000420E0,9.916530063E0
3.059320040E-1,4.260000288E-1,4.009050369E0,9.022050858E0,9.881870398E0
3.078952560E-1,4.260000288E-1,4.009050369E0,9.022050858E0,9.881870398E0
3.098581680E-1,5.020500422E-1,4.047000408E0,8.983950615E0,9.866186457E0
3.118211790E-1,3.870000243E-1,3.970950127E0,8.983950615E0,9.830034719E0
3.137842660E-1,4.260000288E-1,4.009050369E0,8.983950615E0,9.847097519E0
3.157473310E-1,4.639500082E-1,4.009050369E0,9.022050858E0,9.883579116E0
3.177107750E-1,4.639500082E-1,4.009050369E0,9.022050858E0,9.883579116E0
3.196741050E-1,4.260000288E-1,4.009050369E0,9.022050858E0,9.881870398E0
3.216373200E-1,4.639500082E-1,3.970950127E0,9.022050858E0,9.868186064E0
3.236005690E-1,5.410500169E-1,4.047000408E0,9.022050858E0,9.902946486E0
3.255641110E-1,4.639500082E-1,4.009050369E0,9.022050858E0,9.883579116E0
3.275275670E-1,4.639500082E-1,3.970950127E0,9.022050858E0,9.868186064E0
3.294909020E-1,4.260000288E-1,3.970950127E0,8.983950615E0,9.831647348E0
3.314543000E-1,5.020500422E-1,4.047000408E0,8.983950615E0,9.866186457E0
3.334173670E-1,5.410500169E-1,3.970950127E0,9.022050858E0,9.872111309E0
3.353805310E-1,5.020500422E-1,3.970950127E0,9.098999977E0,9.940437603E0
3.373439070E-1,5.020500422E-1,4.009050369E0,9.022050858E0,9.885440849E0
3.393072210E-1,5.020500422E-1,3.970950127E0,9.022050858E0,9.870050700E0
3.412707930E-1,4.639500082E-1,4.009050369E0,9.022050858E0,9.883579116E0
3.432342930E-1,5.410500169E-1,3.970950127E0,8.983950615E0,9.837303934E0
3.451976590E-1,5.020500422E-1,3.970950127E0,9.022050858E0,9.870050700E0
3.471610650E-1,4.639500082E-1,3.970950127E0,9.022050858E0,9.868186064E0
3.491248050E-1,4.639500082E-1,4.009050369E0,9.022050858E0,9.883579116E0
3.510884470E-1,5.020500422E-1,3.970950127E0,8.983950615E0,9.835236032E0
3.530514570E-1,5.410500169E-1,3.970950127E0,9.060000420E0,9.906805117E0
3.550146320E-1,5.020500422E-1,3.970950127E0,9.022050858E0,9.870050700E0
3.569780510E-1,5.020500422E-1,3.970950127E0,8.983950615E0,9.835236032E0
3.589413990E-1,5.020500422E-1,4.009050369E0,9.022050858E0,9.885440849E0
3.609044760E-1,5.020500422E-1,4.009050369E0,9.060000420E0,9.920088040E0
3.628676320E-1,4.639500082E-1,4.009050369E0,9.022050858E0,9.883579116E0
3.648308750E-1,4.639500082E-1,4.009050369E0,8.983950615E0,9.848812270E0
3.667940920E-1,4.639500082E-1,3.970950127E0,9.022050858E0,9.868186064E0
3.687571450E-1,4.639500082E-1,3.970950127E0,9.022050858E0,9.868186064E0
3.707202470E-1,4.639500082E-1,3.970950127E0,9.022050858E0,9.868186064E0
3.726836340E-1,4.639500082E-1,3.970950127E0,9.022050858E0,9.868186064E0
3.746469380E-1,5.020500422E-1,3.970950127E0,9.022050858E0,9.870050700E0
3.766101610E-1,4.639500082E-1,3.931950092E0,9.022050858E0,9.852557171E0
3.785734050E-1,4.260000288E-1,4.009050369E0,9.060000420E0,9.916530063E0
3.805362730E-1,4.639500082E-1,4.009050369E0,9.060000420E0,9.918232810E0
3.824992510E-1,3.870000243E-1,3.970950127E0,9.060000420E0,9.899586937E0
3.844623890E-1,4.260000288E-1,4.009050369E0,9.060000420E0,9.916530063E0
3.864254800E-1,4.260000288E-1,4.009050369E0,9.098999977E0,9.952173706E0
3.883885020E-1,4.260000288E-1,4.009050369E0,9.098999977E0,9.952173706E0
3.903515500E-1,4.260000288E-1,4.009050369E0,9.060000420E0,9.916530063E0
3.923146760E-1,3.870000243E-1,4.009050369E0,9.098999977E0,9.950580609E0
3.942777790E-1,4.260000288E-1,4.047000408E0,9.098999977E0,9.967521704E0
3.962408530E-1,4.639500082E-1,4.009050369E0,9.136950493E0,9.988573411E0
3.982039350E-1,4.260000288E-1,4.009050369E0,9.098999977E0,9.952173706E0
4.001669910E-1,3.870000243E-1,4.009050369E0,9.060000420E0,9.914931240E0
4.021300690E-1,3.870000243E-1,4.047000408E0,9.136950493E0,1.000059226E1
4.040931010E-1,3.870000243E-1,4.085999966E0,9.175050735E0,1.005120494E1
4.060561460E-1,4.260000288E-1,4.047000408E0,9.136950493E0,1.000217739E1
4.080194520E-1,4.639500082E-1,4.047000408E0,9.136950493E0,1.000386556E1
4.099826820E-1,3.870000243E-1,4.047000408E0,9.098999977E0,9.965931061E0
4.119460480E-1,4.260000288E-1,3.970950127E0,9.098999977E0,9.936886913E0
4.139093740E-1,4.260000288E-1,4.047000408E0,9.098999977E0,9.967521704E0
4.158725900E-1,4.260000288E-1,4.047000408E0,9.175050735E0,1.003699379E1
4.178358380E-1,3.870000243E-1,4.047000408E0,9.136950493E0,1.000059226E1
4.197990660E-1,4.260000288E-1,4.047000408E0,9.175050735E0,1.003699379E1
4.217623000E-1,3.870000243E-1,4.047000408E0,9.136950493E0,1.000059226E1
4.237252350E-1,4.639500082E-1,4.047000408E0,9.136950493E0,1.000386556E1
4.256882430E-1,4.260000288E-1,4.085999966E0,9.175050735E0,1.005278209E1
4.276516460E-1,4.260000288E-1,4.009050369E0,9.175050735E0,1.002175219E1
4.296149330E-1,4.260000288E-1,4.009050369E0,9.214050293E0,1.005746905E1
4.315780200E-1,4.260000288E-1,4.009050369E0,9.136950493E0,9.986882657E0
4.335411660E-1,4.260000288E-1,4.009050369E0,9.098999977E0,9.952173706E0
4.355043790E-1,4.639500082E-1,4.009050369E0,9.136950493E0,9.988573411E0
4.374675620E-1,4.260000288E-1,4.047000408E0,9.175050735E0,1.003699379E1
4.394306220E-1,3.870000243E-1,4.009050369E0,9.175050735E0,1.002017015E1
4.413937180E-1,4.639500082E-1,4.009050369E0,9.175050735E0,1.002343706E1
4.433569710E-1,4.260000288E-1,4.009050369E0,9.175050735E0,1.002175219E1
4.453201780E-1,4.639500082E-1,4.009050369E0,9.175050735E0,1.002343706E1
4.472836430E-1,4.260000288E-1,4.009050369E0,9.175050735E0,1.002175219E1
4.492470290E-1,5.020500422E-1,4.009050369E0,9.214050293E0,1.006097718E1
4.512102340E-1,4.639500082E-1,4.009050369E0,9.175050735E0,1.002343706E1
4.531734920E-1,4.639500082E-1,4.009050369E0,9.175050735E0,1.002343706E1
4.551368530E-1,4.639500082E-1,3.931950092E0,9.175050735E0,9.992849300E0
4.571001830E-1,4.639500082E-1,4.009050369E0,9.175050735E0,1.002343706E1
4.590633740E-1,5.410500169E-1,3.970950127E0,9.175050735E0,1.001212945E1
4.610266220E-1,4.639500082E-1,4.047000408E0,9.175050735E0,1.003867610E1
4.629898500E-1,4.639500082E-1,4.009050369E0,9.214050293E0,1.005914794E1
4.649530840E-1,5.020500422E-1,3.970950127E0,9.175050735E0,1.001009766E1
4.669164930E-1,5.020500422E-1,4.009050369E0,9.214050293E0,1.006097718E1
4.688798510E-1,4.639500082E-1,4.009050369E0,9.175050735E0,1.002343706E1
4.708430860E-1,4.639500082E-1,3.970950127E0,9.214050293E0,1.004402396E1
4.728063720E-1,5.020500422E-1,3.970950127E0,9.214050293E0,1.004585596E1
4.747697270E-1,5.020500422E-1,3.970950127E0,9.214050293E0,1.004585596E1
4.767330620E-1,4.639500082E-1,3.931950092E0,9.214050293E0,1.002866910E1
4.786964550E-1,5.020500422E-1,3.970950127E0,9.214050293E0,1.004585596E1
4.806598310E-1,4.639500082E-1,4.009050369E0,9.175050735E0,1.002343706E1
4.826231030E-1,5.020500422E-1,3.970950127E0,9.136950493E0,9.975187390E0
4.845863920E-1,5.410500169E-1,4.009050369E0,9.175050735E0,1.002730153E1
4.865499270E-1,5.410500169E-1,3.970950127E0,9.175050735E0,1.001212945E1
4.885133900E-1,5.410500169E-1,3.970950127E0,9.136950493E0,9.977226285E0
4.904766270E-1,4.639500082E-1,3.970950127E0,9.214050293E0,1.004402396E1
4.924399300E-1,5.020500422E-1,4.009050369E0,9.175050735E0,1.002527282E1
4.944032620E-1,5.410500169E-1,3.970950127E0,9.136950493E0,9.977226285E0
4.963666000E-1,4.639500082E-1,4.009050369E0,9.136950493E0,9.988573411E0
4.983298590E-1,5.020500422E-1,4.009050369E0,9.136950493E0,9.990415578E0
5.002931410E-1,5.020500422E-1,3.970950127E0,9.098999977E0,9.940437603E0
5.022563630E-1,5.020500422E-1,3.970950127E0,9.098999977E0,9.940437603E0
5.042196020E-1,4.639500082E-1,4.009050369E0,9.098999977E0,9.953870356E0
5.061829920E-1,4.639500082E-1,3.970950127E0,9.098999977E0,9.938586172E0
5.081463510E-1,4.639500082E-1,4.047000408E0,9.098999977E0,9.969215741E0
5.101093800E-1,5.020500422E-1,3.970950127E0,9.136950493E0,9.975187390E0
5.120725060E-1,5.020500422E-1,3.970950127E0,9.136950493E0,9.975187390E0
5.140357090E-1,5.410500169E-1,3.970950127E0,9.136950493E0,9.977226285E0
5.159988890E-1,5.020500422E-1,4.009050369E0,9.098999977E0,9.955718944E0
5.179621890E-1,5.020500422E-1,4.009050369E0,9.098999977E0,9.955718944E0
5.199254430E-1,5.020500422E-1,4.009050369E0,9.098999977E0,9.955718944E0
5.218886250E-1,5.020500422E-1,3.970950127E0,9.136950493E0,9.975187390E0
5.238518290E-1,5.020500422E-1,3.970950127E0,9.136950493E0,9.975187390E0
5.258150640E-1,5.410500169E-1,3.970950127E0,9.098999977E0,9.942483624E0
5.277782890E-1,5.410500169E-1,3.970950127E0,9.098999977E0,9.942483624E0
5.297416850E-1,5.790000558E-1,3.970950127E0,9.098999977E0,9.944620986E0
5.317050420E-1,5.020500422E-1,4.009050369E0,9.098999977E0,9.955718944E0
5.336684760E-1,5.410500169E-1,4.009050369E0,9.098999977E0,9.957761825E0
5.356318880E-1,5.020500422E-1,4.009050369E0,9.136950493E0,9.990415578E0
5.375955840E-1,5.410500169E-1,4.009050369E0,9.098999977E0,9.957761825E0
5.395591960E-1,5.020500422E-1,4.009050369E0,9.098999977E0,9.955718944E0
5.415223480E-1,5.410500169E-1,3.970950127E0,9.136950493E0,9.977226285E0
5.434856450E-1,5.020500422E-1,4.009050369E0,9.060000420E0,9.920088040E0
5.454489100E-1,5.410500169E-1,4.009050369E0,9.060000420E0,9.922138257E0
5.474121840E-1,5.410500169E-1,4.047000408E0,9.060000420E0,9.937532643E0
5.493754070E-1,4.639500082E-1,3.970950127E0,9.098999977E0,9.938586172E0
5.513386450E-1,5.410500169E-1,4.009050369E0,9.060000420E0,9.922138257E0
5.533017230E-1,4.639500082E-1,3.970950127E0,9.098999977E0,9.938586172E0
5.552648280E-1,4.639500082E-1,4.009050369E0,9.098999977E0,9.953870356E0
5.572282600E-1,4.639500082E-1,3.970950127E0,9.060000420E0,9.902893624E0
5.591915960E-1,4.639500082E-1,4.047000408E0,9.060000420E0,9.933633249E0
5.611551690E-1,4.639500082E-1,4.009050369E0,9.098999977E0,9.953870356E0
5.631186720E-1,5.020500422E-1,4.009050369E0,9.136950493E0,9.990415578E0
5.650820230E-1,4.639500082E-1,4.047000408E0,9.136950493E0,1.000386556E1
5.670454290E-1,5.020500422E-1,4.009050369E0,9.098999977E0,9.955718944E0
5.690089890E-1,4.639500082E-1,4.047000408E0,9.098999977E0,9.969215741E0
5.709725040E-1,4.639500082E-1,4.009050369E0,9.136950493E0,9.988573411E0
5.729360470E-1,4.639500082E-1,4.009050369E0,9.136950493E0,9.988573411E0
5.748995810E-1,5.020500422E-1,4.047000408E0,9.098999977E0,9.971061485E0
5.768632500E-1,4.639500082E-1,3.970950127E0,9.136950493E0,9.973342410E0
5.788268830E-1,5.020500422E-1,3.970950127E0,9.136950493E0,9.975187390E0
5.807904510E-1,4.639500082E-1,3.931950092E0,9.136950493E0,9.957878562E0
5.827540390E-1,4.639500082E-1,3.970950127E0,9.136950493E0,9.973342410E0
5.847175240E-1,4.639500082E-1,3.970950127E0,9.098999977E0,9.938586172E0
5.866810390E-1,5.020500422E-1,4.009050369E0,9.098999977E0,9.955718944E0
5.886442470E-1,4.639500082E-1,3.970950127E0,9.060000420E0,9.902893624E0
5.906075590E-1,4.639500082E-1,3.970950127E0,9.136950493E0,9.973342410E0
5.925710900E-1,5.020500422E-1,3.970950127E0,9.175050735E0,1.001009766E1
5.945345570E-1,5.020500422E-1,3.931950092E0,9.175050735E0,9.994690679E0
5.964979740E-1,4.639500082E-1,3.931950092E0,9.136950493E0,9.957878562E0
5.984614050E-1,4.639500082E-1,3.931950092E0,9.136950493E0,9.957878562E0
6.004249230E-1,5.410500169E-1,4.009050369E0,9.098999977E0,9.957761825E0
6.023884420E-1,5.020500422E-1,3.970950127E0,9.098999977E0,9.940437603E0
6.043519400E-1,5.410500169E-1,3.970950127E0,9.136950493E0,9.977226285E0
6.063154440E-1,4.639500082E-1,4.009050369E0,9.136950493E0,9.988573411E0
6.082788530E-1,4.639500082E-1,3.970950127E0,9.098999977E0,9.938586172E0
6.102422900E-1,4.639500082E-1,3.970950127E0,9.098999977E0,9.938586172E0
6.122056460E-1,4.260000288E-1,3.970950127E0,9.136950493E0,9.971649073E0
6.141690400E-1,4.639500082E-1,4.009050369E0,9.098999977E0,9.953870356E0
6.161327380E-1,4.260000288E-1,4.009050369E0,9.022050858E0,9.881870398E0
6.180963460E-1,3.870000243E-1,3.970950127E0,9.098999977E0,9.935291365E0
6.200596930E-1,3.870000243E-1,4.009050369E0,9.175050735E0,1.002017015E1
6.220231170E-1,3.490500152E-1,4.047000408E0,9.136950493E0,9.999195594E0
6.239863150E-1,3.870000243E-1,4.085999966E0,9.136950493E0,1.001643794E1
6.259495790E-1,3.109500110E-1,4.047000408E0,9.060000420E0,9.927663865E0
6.279128480E-1,3.490500152E-1,4.085999966E0,9.136950493E0,1.001504348E1
6.298761150E-1,3.490500152E-1,4.085999966E0,9.136950493E0,1.001504348E1
6.318394750E-1,3.109500110E-1,4.047000408E0,9.136950493E0,9.997938114E0
6.338028070E-1,3.109500110E-1,4.085999966E0,9.175050735E0,1.004856416E1
6.357659000E-1,3.490500152E-1,4.009050369E0,9.060000420E0,9.913522501E0
6.377290540E-1,3.109500110E-1,4.085999966E0,9.098999977E0,9.979172622E0
6.396921180E-1,3.490500152E-1,4.085999966E0,9.098999977E0,9.980432466E0
6.416552080E-1,3.870000243E-1,4.047000408E0,9.060000420E0,9.930336798E0
6.436184620E-1,3.870000243E-1,4.009050369E0,9.098999977E0,9.950580609E0
6.455816680E-1,3.870000243E-1,4.047000408E0,9.136950493E0,1.000059226E1
6.475451210E-1,4.260000288E-1,4.047000408E0,9.175050735E0,1.003699379E1
6.495084750E-1,3.870000243E-1,4.085999966E0,9.098999977E0,9.981831762E0
6.514718650E-1,3.490500152E-1,4.009050369E0,9.098999977E0,9.949176919E0
6.534352440E-1,3.870000243E-1,4.047000408E0,9.098999977E0,9.965931061E0
6.553984510E-1,3.109500110E-1,4.009050369E0,9.098999977E0,9.947913116E0
6.573617080E-1,3.870000243E-1,4.009050369E0,9.136950493E0,9.985295098E0
6.593250680E-1,3.870000243E-1,4.009050369E0,9.098999977E0,9.950580609E0
6.612883980E-1,4.260000288E-1,4.009050369E0,9.098999977E0,9.952173706E0
6.632512970E-1,4.260000288E-1,4.009050369E0,9.098999977E0,9.952173706E0
6.652143230E-1,4.260000288E-1,4.009050369E0,9.098999977E0,9.952173706E0
6.671779480E-1,4.260000288E-1,3.970950127E0,9.098999977E0,9.936886913E0
6.691413980E-1,4.260000288E-1,4.009050369E0,9.136950493E0,9.986882657E0
6.711047530E-1,4.260000288E-1,3.970950127E0,9.098999977E0,9.936886913E0
6.730681500E-1,4.260000288E-1,4.009050369E0,9.060000420E0,9.916530063E0
6.750318920E-1,4.639500082E-1,3.970950127E0,8.983950615E0,9.833364794E0
6.769955330E-1,4.260000288E-1,4.009050369E0,9.060000420E0,9.916530063E0
6.789590100E-1,4.260000288E-1,3.970950127E0,9.098999977E0,9.936886913E0
6.809225350E-1,5.020500422E-1,4.009050369E0,9.060000420E0,9.920088040E0
6.828856090E-1,5.020500422E-1,4.009050369E0,9.136950493E0,9.990415578E0
6.848487950E-1,4.260000288E-1,4.009050369E0,9.060000420E0,9.916530063E0
6.868123930E-1,4.260000288E-1,4.009050369E0,9.098999977E0,9.952173706E0
6.887758700E-1,5.020500422E-1,4.047000408E0,9.098999977E0,9.971061485E0
6.907388340E-1,4.639500082E-1,4.047000408E0,9.060000420E0,9.933633249E0
6.927019480E-1,4.639500082E-1,4.009050369E0,9.060000420E0,9.918232810E0
6.946653780E-1,5.020500422E-1,4.047000408E0,9.098999977E0,9.971061485E0
6.966287160E-1,4.639500082E-1,4.047000408E0,9.098999977E0,9.969215741E0
6.985921540E-1,4.260000288E-1,4.047000408E0,9.098999977E0,9.967521704E0
7.005555620E-1,3.870000243E-1,4.047000408E0,9.136950493E0,1.000059226E1
7.025187180E-1,4.260000288E-1,4.047000408E0,9.136950493E0,1.000217739E1
7.044819480E-1,4.260000288E-1,4.009050369E0,9.136950493E0,9.986882657E0
7.064452370E-1,4.260000288E-1,4.009050369E0,9.098999977E0,9.952173706E0
7.084084990E-1,4.260000288E-1,4.047000408E0,9.098999977E0,9.967521704E0
7.103720850E-1,4.260000288E-1,4.009050369E0,9.136950493E0,9.986882657E0
7.123355760E-1,4.639500082E-1,4.047000408E0,9.060000420E0,9.933633249E0
7.142987630E-1,4.260000288E-1,4.009050369E0,9.136950493E0,9.986882657E0
7.162620390E-1,3.870000243E-1,4.047000408E0,9.175050735E0,1.003541416E1
7.182254420E-1,4.260000288E-1,4.009050369E0,9.098999977E0,9.952173706E0
7.201888070E-1,4.260000288E-1,4.009050369E0,9.098999977E0,9.952173706E0
7.221519700E-1,4.260000288E-1,4.047000408E0,9.214050293E0,1.007265661E1
7.241151930E-1,3.870000243E-1,4.047000408E0,9.136950493E0,1.000059226E1
7.260784690E-1,4.639500082E-1,4.047000408E0,9.175050735E0,1.003867610E1
7.280417300E-1,4.639500082E-1,4.047000408E0,9.175050735E0,1.003867610E1
7.300049660E-1,4.260000288E-1,4.085999966E0,9.175050735E0,1.005278209E1
7.319682030E-1,4.260000288E-1,4.009050369E0,9.214050293E0,1.005746905E1
7.339316120E-1,4.639500082E-1,4.009050369E0,9.175050735E0,1.002343706E1
7.358949710E-1,4.260000288E-1,4.009050369E0,9.214050293E0,1.005746905E1
7.378583160E-1,4.639500082E-1,4.047000408E0,9.214050293E0,1.007433297E1
7.398216650E-1,4.639500082E-1,4.047000408E0,9.175050735E0,1.003867610E1
7.417848460E-1,4.639500082E-1,4.009050369E0,9.214050293E0,1.005914794E1
7.437480970E-1,4.639500082E-1,3.970950127E0,9.175050735E0,1.000825912E1
7.457113690E-1,4.260000288E-1,4.047000408E0,9.175050735E0,1.003699379E1
7.476746340E-1,4.639500082E-1,3.970950127E0,9.214050293E0,1.004402396E1
7.496379940E-1,5.020500422E-1,4.047000408E0,9.175050735E0,1.004050908E1
7.516013260E-1,5.020500422E-1,4.009050369E0,9.136950493E0,9.990415578E0
7.535646000E-1,4.639500082E-1,3.970950127E0,9.175050735E0,1.000825912E1
7.555278810E-1,4.639500082E-1,3.970950127E0,9.098999977E0,9.938586172E0
7.574912370E-1,4.639500082E-1,4.009050369E0,9.136950493E0,9.988573411E0
7.594545710E-1,4.260000288E-1,3.970950127E0,9.136950493E0,9.971649073E0
7.614179640E-1,4.260000288E-1,4.009050369E0,9.136950493E0,9.986882657E0
7.633813400E-1,5.020500422E-1,3.970950127E0,9.060000420E0,9.904751726E0
7.653447410E-1,4.639500082E-1,4.009050369E0,9.098999977E0,9.953870356E0
7.673081240E-1,5.020500422E-1,3.970950127E0,9.060000420E0,9.904751726E0
7.692715090E-1,5.410500169E-1,4.009050369E0,9.022050858E0,9.887498251E0
7.712348940E-1,5.020500422E-1,3.970950127E0,9.022050858E0,9.870050700E0
7.731982790E-1,5.020500422E-1,3.931950092E0,9.022050858E0,9.854424765E0
7.751616640E-1,5.410500169E-1,3.970950127E0,9.022050858E0,9.872111309E0
7.771252520E-1,5.020500422E-1,3.970950127E0,8.983950615E0,9.835236032E0
7.790887640E-1,5.020500422E-1,3.970950127E0,9.022050858E0,9.870050700E0
7.810521730E-1,5.410500169E-1,3.970950127E0,8.983950615E0,9.837303934E0
7.830156120E-1,5.020500422E-1,3.931950092E0,9.022050858E0,9.854424765E0
7.849791210E-1,5.410500169E-1,3.970950127E0,9.060000420E0,9.906805117E0
7.869426100E-1,5.020500422E-1,3.931950092E0,8.983950615E0,9.819554696E0
7.889060020E-1,5.410500169E-1,3.894000292E0,9.060000420E0,9.876212887E0
7.908694050E-1,5.410500169E-1,3.931950092E0,9.022050858E0,9.856488641E0
7.928328300E-1,5.790000558E-1,3.970950127E0,9.022050858E0,9.874263904E0
7.947962490E-1,5.410500169E-1,3.970950127E0,9.060000420E0,9.906805117E0
7.967597630E-1,5.410500169E-1,3.970950127E0,8.983950615E0,9.837303934E0
7.987232490E-1,5.020500422E-1,3.931950092E0,9.060000420E0,9.889180622E0
8.006864860E-1,5.410500169E-1,3.931950092E0,8.983950615E0,9.821625899E0
8.026497940E-1,5.410500169E-1,3.970950127E0,9.022050858E0,9.872111309E0
8.046138670E-1,5.020500422E-1,3.970950127E0,9.022050858E0,9.870050700E0
8.065777150E-1,5.410500169E-1,3.970950127E0,9.060000420E0,9.906805117E0
8.085405250E-1,5.410500169E-1,3.931950092E0,9.022050858E0,9.856488641E0
8.105036400E-1,5.020500422E-1,3.970950127E0,9.060000420E0,9.904751726E0
8.124672170E-1,5.410500169E-1,3.931950092E0,9.022050858E0,9.856488641E0
8.144306820E-1,5.020500422E-1,3.970950127E0,9.022050858E0,9.870050700E0
8.163940540E-1,5.020500422E-1,3.970950127E0,9.060000420E0,9.904751726E0
8.183574530E-1,5.410500169E-1,4.009050369E0,9.060000420E0,9.922138257E0
8.203211500E-1,5.410500169E-1,4.047000408E0,9.060000420E0,9.937532643E0
8.222847590E-1,5.020500422E-1,4.009050369E0,9.060000420E0,9.920088040E0
8.242482710E-1,5.410500169E-1,4.009050369E0,9.060000420E0,9.922138257E0
8.262118230E-1,5.410500169E-1,4.009050369E0,9.060000420E0,9.922138257E0
8.281751790E-1,5.020500422E-1,4.047000408E0,9.098999977E0,9.971061485E0
8.301385920E-1,5.020500422E-1,4.047000408E0,9.098999977E0,9.971061485E0
8.321017920E-1,5.020500422E-1,4.009050369E0,9.098999977E0,9.955718944E0
8.340650540E-1,4.260000288E-1,4.047000408E0,9.060000420E0,9.931933142E0
8.360286060E-1,5.020500422E-1,4.047000408E0,9.060000420E0,9.935485602E0
8.379920960E-1,4.639500082E-1,4.047000408E0,9.098999977E0,9.969215741E0
8.399554630E-1,4.639500082E-1,4.047000408E0,9.136950493E0,1.000386556E1
8.419188670E-1,4.639500082E-1,4.047000408E0,9.175050735E0,1.003867610E1
8.438822920E-1,4.260000288E-1,4.085999966E0,9.098999977E0,9.983419871E0
8.458457110E-1,4.260000288E-1,4.085999966E0,9.136950493E0,1.001802057E1
8.478090910E-1,3.870000243E-1,4.085999966E0,9.175050735E0,1.005120494E1
8.497724820E-1,4.639500082E-1,4.085999966E0,9.175050735E0,1.005446176E1
8.517356850E-1,3.870000243E-1,4.047000408E0,9.175050735E0,1.003541416E1
8.536989440E-1,4.260000288E-1,4.047000408E0,9.175050735E0,1.003699379E1
8.556621700E-1,4.639500082E-1,4.047000408E0,9.175050735E0,1.003867610E1
8.576254050E-1,4.260000288E-1,4.047000408E0,9.136950493E0,1.000217739E1
8.595889940E-1,4.260000288E-1,4.123950005E0,9.136950493E0,1.003355889E1
8.615524800E-1,3.870000243E-1,4.085999966E0,9.175050735E0,1.005120494E1
8.635158490E-1,3.490500152E-1,4.047000408E0,9.175050735E0,1.003402233E1
8.654792520E-1,4.639500082E-1,4.047000408E0,9.175050735E0,1.003867610E1
8.674424080E-1,4.260000288E-1,4.047000408E0,9.098999977E0,9.967521704E0
8.694056360E-1,3.870000243E-1,4.085999966E0,9.175050735E0,1.005120494E1
8.713686870E-1,3.870000243E-1,4.047000408E0,9.136950493E0,1.000059226E1
8.733317900E-1,3.870000243E-1,4.009050369E0,9.175050735E0,1.002017015E1
8.752950870E-1,4.260000288E-1,4.085999966E0,9.175050735E0,1.005278209E1
8.772583270E-1,3.490500152E-1,4.085999966E0,9.136950493E0,1.001504348E1
8.792213310E-1,4.260000288E-1,4.085999966E0,9.175050735E0,1.005278209E1
8.811844050E-1,4.260000288E-1,4.047000408E0,9.175050735E0,1.003699379E1
8.831473520E-1,4.639500082E-1,4.047000408E0,9.175050735E0,1.003867610E1
8.851103330E-1,4.260000288E-1,4.047000408E0,9.175050735E0,1.003699379E1
8.870734250E-1,3.870000243E-1,4.047000408E0,9.136950493E0,1.000059226E1
8.890364840E-1,3.870000243E-1,4.047000408E0,9.136950493E0,1.000059226E1
8.909998800E-1,3.490500152E-1,4.085999966E0,9.175050735E0,1.004981530E1
8.929631770E-1,3.490500152E-1,4.085999966E0,9.214050293E0,1.008543278E1
8.949267430E-1,3.870000243E-1,4.047000408E0,9.136950493E0,1.000059226E1
8.968902400E-1,3.870000243E-1,4.085999966E0,9.175050735E0,1.005120494E1
8.988539660E-1,3.490500152E-1,4.047000408E0,9.136950493E0,9.999195594E0
9.008176240E-1,3.870000243E-1,4.085999966E0,9.175050735E0,1.005120494E1
9.027813230E-1,3.870000243E-1,4.047000408E0,9.175050735E0,1.003541416E1
9.047450090E-1,3.490500152E-1,4.047000408E0,9.136950493E0,9.999195594E0
9.067083930E-1,4.260000288E-1,4.047000408E0,9.136950493E0,1.000217739E1
9.086718620E-1,3.870000243E-1,4.047000408E0,9.098999977E0,9.965931061E0
9.106353660E-1,3.870000243E-1,4.047000408E0,9.136950493E0,1.000059226E1
9.125988600E-1,4.639500082E-1,4.085999966E0,9.175050735E0,1.005446176E1
9.145620920E-1,4.260000288E-1,4.047000408E0,9.098999977E0,9.967521704E0
9.165254010E-1,3.870000243E-1,4.047000408E0,9.136950493E0,1.000059226E1
9.184888020E-1,4.639500082E-1,4.009050369E0,9.136950493E0,9.988573411E0
9.204521730E-1,4.260000288E-1,4.047000408E0,9.060000420E0,9.931933142E0
9.224155600E-1,4.639500082E-1,4.009050369E0,9.136950493E0,9.988573411E0
9.243789420E-1,4.639500082E-1,4.009050369E0,9.136950493E0,9.988573411E0
9.263422830E-1,4.260000288E-1,4.009050369E0,9.098999977E0,9.952173706E0
9.283056360E-1,4.639500082E-1,4.009050369E0,9.136950493E0,9.988573411E0
9.302688760E-1,5.020500422E-1,4.009050369E0,9.136950493E0,9.990415578E0
9.322321600E-1,5.020500422E-1,4.009050369E0,9.136950493E0,9.990415578E0
9.341957410E-1,5.020500422E-1,4.009050369E0,9.136950493E0,9.990415578E0
9.361592350E-1,5.410500169E-1,3.970950127E0,9.136950493E0,9.977226285E0
9.381234570E-1,5.790000558E-1,3.970950127E0,9.136950493E0,9.979356206E0
9.400874660E-1,5.790000558E-1,3.970950127E0,9.098999977E0,9.944620986E0
9.420502490E-1,5.020500422E-1,3.970950127E0,9.098999977E0,9.940437603E0
9.440133910E-1,5.020500422E-1,4.009050369E0,9.136950493E0,9.990415578E0
9.459777170E-1,5.410500169E-1,3.931950092E0,9.098999977E0,9.926971705E0
9.479416960E-1,5.790000558E-1,3.931950092E0,9.136950493E0,9.963901691E0
9.499040790E-1,5.410500169E-1,3.931950092E0,9.060000420E0,9.891237246E0
9.518669290E-1,5.410500169E-1,3.970950127E0,9.060000420E0,9.906805117E0
9.538302110E-1,5.790000558E-1,3.970950127E0,9.060000420E0,9.908950175E0
9.557933760E-1,5.410500169E-1,3.894000292E0,9.060000420E0,9.876212887E0
9.577564380E-1,5.790000558E-1,3.931950092E0,9.098999977E0,9.929112406E0
9.597195310E-1,5.020500422E-1,3.931950092E0,9.022050858E0,9.854424765E0
9.616829200E-1,5.020500422E-1,3.970950127E0,9.022050858E0,9.870050700E0
9.636462220E-1,5.020500422E-1,3.970950127E0,9.022050858E0,9.870050700E0
9.656096160E-1,5.410500169E-1,4.009050369E0,9.022050858E0,9.887498251E0
9.675729860E-1,5.410500169E-1,3.931950092E0,9.022050858E0,9.856488641E0
9.695365990E-1,5.790000558E-1,3.970950127E0,9.022050858E0,9.874263904E0
9.715001400E-1,4.639500082E-1,3.970950127E0,9.022050858E0,9.868186064E0
9.734634540E-1,4.639500082E-1,4.009050369E0,9.060000420E0,9.918232810E0
9.754268340E-1,4.639500082E-1,4.047000408E0,9.022050858E0,9.899033467E0
9.773903940E-1,5.020500422E-1,4.009050369E0,9.022050858E0,9.885440849E0
9.793539040E-1,5.410500169E-1,4.009050369E0,8.983950615E0,9.852745233E0
9.813174470E-1,4.639500082E-1,4.047000408E0,8.983950615E0,9.864321090E0
9.832809810E-1,5.020500422E-1,4.047000408E0,9.022050858E0,9.900892294E0
9.852443860E-1,4.260000288E-1,4.047000408E0,9.022050858E0,9.897327417E0
9.872078290E-1,4.639500082E-1,4.009050369E0,9.060000420E0,9.918232810E0
9.891711540E-1,4.639500082E-1,4.009050369E0,9.060000420E0,9.918232810E0
9.911345170E-1,4.260000288E-1,4.009050369E0,9.060000420E0,9.916530063E0
9.930981290E-1,5.410500169E-1,4.047000408E0,9.022050858E0,9.902946486E0
9.950616680E-1,4.639500082E-1,4.085999966E0,9.022050858E0,9.915041453E0
9.970252070E-1,5.020500422E-1,4.047000408E0,9.060000420E0,9.935485602E0
9.989887460E-1,4.260000288E-1,4.047000408E0,9.060000420E0,9.931933142E0
1.000952452E0,4.260000288E-1,4.085999966E0,9.060000420E0,9.947888185E0
1.002916086E0,4.639500082E-1,4.047000408E0,9.060000420E0,9.933633249E0
1.004879609E0,4.639500082E-1,4.047000408E0,9.022050858E0,9.899033467E0
1.006843165E0,4.639500082E-1,4.047000408E0,9.060000420E0,9.933633249E0
1.008806520E0,4.639500082E-1,4.085999966E0,9.098999977E0,9.985111212E0
1.010769934E0,4.639500082E-1,4.009050369E0,9.098999977E0,9.953870356E0
1.012732984E0,4.639500082E-1,4.085999966E0,9.098999977E0,9.985111212E0
1.014696151E0,3.870000243E-1,4.085999966E0,9.022050858E0,9.911738819E0
1.016659392E0,3.870000243E-1,4.047000408E0,9.060000420E0,9.930336798E0
1.018622611E0,4.260000288E-1,4.085999966E0,9.098999977E0,9.983419871E0
1.020586159E0,4.639500082E-1,4.085999966E0,9.136950493E0,1.001970607E1
1.022549611E0,3.870000243E-1,4.047000408E0,9.098999977E0,9.965931061E0
1.024512878E0,3.870000243E-1,4.085999966E0,9.098999977E0,9.981831762E0
1.026476179E0,3.870000243E-1,4.085999966E0,9.136950493E0,1.001643794E1
1.028439353E0,3.870000243E-1,4.047000408E0,9.175050735E0,1.003541416E1
1.030402564E0,3.870000243E-1,4.047000408E0,9.175050735E0,1.003541416E1
1.032365842E0,4.260000288E-1,4.047000408E0,9.175050735E0,1.003699379E1
1.034329100E0,4.260000288E-1,4.009050369E0,9.136950493E0,9.986882657E0
1.036292511E0,3.870000243E-1,4.047000408E0,9.214050293E0,1.007108257E1
1.038255874E0,4.260000288E-1,4.047000408E0,9.175050735E0,1.003699379E1
1.040219038E0,4.260000288E-1,4.009050369E0,9.175050735E0,1.002175219E1
1.042182261E0,4.639500082E-1,4.047000408E0,9.252000809E0,1.010905440E1
1.044145492E0,4.260000288E-1,4.009050369E0,9.214050293E0,1.005746905E1
1.046108721E0,5.020500422E-1,4.009050369E0,9.175050735E0,1.002527282E1
1.048071966E0,4.639500082E-1,4.009050369E0,9.175050735E0,1.002343706E1
1.050035196E0,4.260000288E-1,3.970950127E0,9.214050293E0,1.004234254E1
1.051998607E0,4.260000288E-1,3.970950127E0,9.175050735E0,1.000657169E1
1.053961965E0,4.639500082E-1,3.970950127E0,9.136950493E0,9.973342410E0
1.055925355E0,5.020500422E-1,4.009050369E0,9.214050293E0,1.006097718E1
1.057888735E0,5.020500422E-1,3.970950127E0,9.175050735E0,1.001009766E1
1.059852179E0,5.020500422E-1,4.009050369E0,9.136950493E0,9.990415578E0
1.061815595E0,4.639500082E-1,4.009050369E0,9.136950493E0,9.988573411E0
1.063778975E0,4.260000288E-1,3.970950127E0,9.136950493E0,9.971649073E0
1.065742366E0,4.639500082E-1,3.970950127E0,9.098999977E0,9.938586172E0
1.067705749E0,4.639500082E-1,4.009050369E0,9.136950493E0,9.988573411E0
1.069669135E0,4.260000288E-1,4.009050369E0,9.136950493E0,9.986882657E0
1.071632694E0,4.260000288E-1,3.970950127E0,9.098999977E0,9.936886913E0
1.073596205E0,4.639500082E-1,3.970950127E0,9.136950493E0,9.973342410E0
1.075559569E0,4.639500082E-1,3.970950127E0,9.136950493E0,9.973342410E0
1.077522976E0,4.260000288E-1,4.009050369E0,9.098999977E0,9.952173706E0
1.079486357E0,4.639500082E-1,3.970950127E0,9.136950493E0,9.973342410E0
1.081449746E0,4.639500082E-1,3.970950127E0,9.060000420E0,9.902893624E0
1.083413105E0,5.020500422E-1,3.970950127E0,9.098999977E0,9.940437603E0
1.085376458E0,4.639500082E-1,4.009050369E0,9.136950493E0,9.988573411E0
1.087339713E0,5.020500422E-1,3.970950127E0,9.060000420E0,9.904751726E0
1.089302996E0,4.639500082E-1,3.970950127E0,9.098999977E0,9.938586172E0
1.091266397E0,5.020500422E-1,4.009050369E0,9.175050735E0,1.002527282E1
1.093229764E0,5.020500422E-1,4.009050369E0,9.098999977E0,9.955718944E0
1.095193167E0,5.020500422E-1,3.970950127E0,9.098999977E0,9.940437603E0
1.097156548E0,5.020500422E-1,3.970950127E0,9.060000420E0,9.904751726E0
1.099119889E0,4.639500082E-1,3.894000292E0,9.098999977E0,9.908092070E0
1.101083242E0,4.639500082E-1,3.970950127E0,9.098999977E0,9.938586172E0
1.103046631E0,5.410500169E-1,3.970950127E0,9.098999977E0,9.942483624E0
1.105010009E0,5.020500422E-1,4.009050369E0,9.136950493E0,9.990415578E0
1.106972846E0,5.410500169E-1,3.970950127E0,9.136950493E0,9.977226285E0
1.108935848E0,4.639500082E-1,3.931950092E0,9.098999977E0,9.923068161E0
1.110899117E0,5.410500169E-1,3.970950127E0,9.060000420E0,9.906805117E0
1.112862307E0,5.020500422E-1,3.970950127E0,9.098999977E0,9.940437603E0
1.114825590E0,4.639500082E-1,3.931950092E0,9.136950493E0,9.957878562E0
1.116788846E0,5.020500422E-1,4.009050369E0,9.136950493E0,9.990415578E0
1.118751936E0,4.639500082E-1,3.970950127E0,9.098999977E0,9.938586172E0
1.120715044E0,5.020500422E-1,3.970950127E0,9.098999977E0,9.940437603E0
1.122678250E0,5.020500422E-1,3.970950127E0,9.098999977E0,9.940437603E0
1.124641427E0,4.260000288E-1,4.009050369E0,9.060000420E0,9.916530063E0
1.126604667E0,5.020500422E-1,3.970950127E0,9.098999977E0,9.940437603E0
1.128567889E0,4.639500082E-1,3.970950127E0,9.098999977E0,9.938586172E0
1.130531166E0,5.020500422E-1,4.047000408E0,9.098999977E0,9.971061485E0
1.132494427E0,5.020500422E-1,3.970950127E0,9.136950493E0,9.975187390E0
1.134457654E0,4.639500082E-1,3.970950127E0,9.136950493E0,9.973342410E0
1.136420891E0,4.639500082E-1,4.009050369E0,9.136950493E0,9.988573411E0
1.138384255E0,4.639500082E-1,4.009050369E0,9.175050735E0,1.002343706E1
1.140347581E0,4.639500082E-1,4.009050369E0,9.136950493E0,9.988573411E0
1.142310986E0,4.260000288E-1,3.970950127E0,9.136950493E0,9.971649073E0
1.144274360E0,4.639500082E-1,3.970950127E0,9.175050735E0,1.000825912E1
1.146237432E0,4.639500082E-1,4.009050369E0,9.214050293E0,1.005914794E1
1.148200593E0,4.639500082E-1,4.047000408E0,9.136950493E0,1.000386556E1
1.150163790E0,4.639500082E-1,3.970950127E0,9.136950493E0,9.973342410E0
1.152126976E0,5.020500422E-1,4.009050369E0,9.214050293E0,1.006097718E1
1.154090041E0,4.639500082E-1,4.009050369E0,9.214050293E0,1.005914794E1
1.156053169E0,4.639500082E-1,4.009050369E0,9.175050735E0,1.002343706E1
1.158016597E0,4.639500082E-1,4.009050369E0,9.175050735E0,1.002343706E1
1.159979937E0,5.020500422E-1,4.009050369E0,9.175050735E0,1.002527282E1
1.161942970E0,4.639500082E-1,3.970950127E0,9.252000809E0,1.007884981E1
1.163906093E0,4.639500082E-1,4.009050369E0,9.214050293E0,1.005914794E1
1.165869316E0,4.260000288E-1,4.009050369E0,9.214050293E0,1.005746905E1
1.167832495E0,5.020500422E-1,4.047000408E0,9.175050735E0,1.004050908E1
1.169795601E0,4.639500082E-1,4.009050369E0,9.175050735E0,1.002343706E1
1.171758728E0,4.639500082E-1,4.009050369E0,9.214050293E0,1.005914794E1
1.173721751E0,4.260000288E-1,4.009050369E0,9.175050735E0,1.002175219E1
1.175684805E0,4.260000288E-1,4.009050369E0,9.175050735E0,1.002175219E1
1.177648084E0,4.639500082E-1,4.009050369E0,9.136950493E0,9.988573411E0
1.179611283E0,4.260000288E-1,4.009050369E0,9.175050735E0,1.002175219E1
1.181574340E0,3.870000243E-1,4.009050369E0,9.175050735E0,1.002017015E1
1.183537439E0,4.260000288E-1,4.009050369E0,9.136950493E0,9.986882657E0
1.185500692E0,3.870000243E-1,4.009050369E0,9.136950493E0,9.985295098E0
1.187463899E0,3.870000243E-1,4.047000408E0,9.136950493E0,1.000059226E1
1.189426769E0,3.870000243E-1,4.009050369E0,9.136950493E0,9.985295098E0
1.191389742E0,4.260000288E-1,4.009050369E0,9.098999977E0,9.952173706E0
1.193353016E0,4.260000288E-1,4.047000408E0,9.136950493E0,1.000217739E1
1.195316202E0,4.260000288E-1,3.970950127E0,9.098999977E0,9.936886913E0
1.197279440E0,4.260000288E-1,4.047000408E0,9.060000420E0,9.931933142E0
1.199242663E0,3.870000243E-1,4.047000408E0,9.060000420E0,9.930336798E0
1.201205919E0,4.260000288E-1,4.047000408E0,9.098999977E0,9.967521704E0
1.203169149E0,4.260000288E-1,4.047000408E0,9.136950493E0,1.000217739E1
1.205132425E0,4.260000288E-1,4.009050369E0,9.098999977E0,9.952173706E0
1.207095687E0,4.260000288E-1,4.047000408E0,9.136950493E0,1.000217739E1
1.209058553E0,4.260000288E-1,4.047000408E0,9.136950493E0,1.000217739E1
1.211021535E0,4.639500082E-1,4.009050369E0,9.098999977E0,9.953870356E0
1.212984408E0,4.260000288E-1,4.009050369E0,9.136950493E0,9.986882657E0
1.214947309E0,4.260000288E-1,4.047000408E0,9.060000420E0,9.931933142E0
1.216910235E0,4.639500082E-1,4.047000408E0,9.136950493E0,1.000386556E1
1.218873154E0,4.260000288E-1,3.970950127E0,9.136950493E0,9.971649073E0
1.220835718E0,5.020500422E-1,4.009050369E0,9.022050858E0,9.885440849E0
1.222798386E0,4.639500082E-1,4.047000408E0,9.136950493E0,1.000386556E1
1.224761392E0,4.260000288E-1,4.009050369E0,9.136950493E0,9.986882657E0
1.226724303E0,4.260000288E-1,3.970950127E0,9.098999977E0,9.936886913E0
1.228687408E0,5.020500422E-1,4.009050369E0,9.022050858E0,9.885440849E0
1.230650456E0,4.639500082E-1,3.970950127E0,9.098999977E0,9.938586172E0
1.232613673E0,4.639500082E-1,4.009050369E0,9.060000420E0,9.918232810E0
1.234576841E0,5.020500422E-1,3.931950092E0,9.060000420E0,9.889180622E0
1.236539908E0,4.639500082E-1,4.009050369E0,9.098999977E0,9.953870356E0
1.238503002E0,4.639500082E-1,4.009050369E0,9.060000420E0,9.918232810E0
1.240465896E0,4.639500082E-1,4.047000408E0,8.983950615E0,9.864321090E0
1.242428848E0,4.639500082E-1,4.009050369E0,9.060000420E0,9.918232810E0
1.244391990E0,4.639500082E-1,4.009050369E0,9.060000420E0,9.918232810E0
1.246355077E0,4.639500082E-1,3.970950127E0,9.060000420E0,9.902893624E0
1.248318268E0,4.260000288E-1,3.970950127E0,9.060000420E0,9.901188239E0
1.250281442E0,5.020500422E-1,4.009050369E0,9.060000420E0,9.920088040E0
1.252244324E0,5.020500422E-1,4.009050369E0,9.060000420E0,9.920088040E0
1.254207291E0,5.020500422E-1,4.009050369E0,9.060000420E0,9.920088040E0
1.256170251E0,5.020500422E-1,4.047000408E0,9.098999977E0,9.971061485E0
1.258133214E0,5.020500422E-1,4.009050369E0,9.098999977E0,9.955718944E0
1.260096323E0,5.410500169E-1,4.009050369E0,9.060000420E0,9.922138257E0
1.262059380E0,5.020500422E-1,4.047000408E0,9.022050858E0,9.900892294E0
1.264022281E0,4.639500082E-1,4.047000408E0,9.136950493E0,1.000386556E1
1.265985228E0,4.639500082E-1,4.009050369E0,9.060000420E0,9.918232810E0
1.267948506E0,4.639500082E-1,4.009050369E0,9.022050858E0,9.883579116E0
1.269911687E0,5.020500422E-1,4.009050369E0,9.022050858E0,9.885440849E0
1.271874728E0,5.020500422E-1,3.970950127E0,9.060000420E0,9.904751726E0
1.273837824E0,5.410500169E-1,4.009050369E0,9.022050858E0,9.887498251E0
1.275801212E0,5.020500422E-1,4.009050369E0,9.022050858E0,9.885440849E0
1.277764514E0,4.639500082E-1,4.047000408E0,9.060000420E0,9.933633249E0
1.279727599E0,5.020500422E-1,4.009050369E0,9.098999977E0,9.955718944E0
1.281690747E0,5.410500169E-1,4.009050369E0,9.060000420E0,9.922138257E0
1.283653976E0,5.020500422E-1,4.009050369E0,9.022050858E0,9.885440849E0
1.285617192E0,5.410500169E-1,4.009050369E0,9.060000420E0,9.922138257E0
1.287580381E0,5.020500422E-1,4.009050369E0,9.060000420E0,9.920088040E0
1.289543578E0,5.020500422E-1,4.047000408E0,9.098999977E0,9.971061485E0
1.291506859E0,5.020500422E-1,4.009050369E0,9.098999977E0,9.955718944E0
1.293470115E0,5.410500169E-1,4.009050369E0,9.136950493E0,9.992451366E0
1.295433311E0,5.410500169E-1,3.970950127E0,9.060000420E0,9.906805117E0
1.297396515E0,5.020500422E-1,4.009050369E0,9.022050858E0,9.885440849E0
1.299359975E0,5.020500422E-1,4.009050369E0,9.060000420E0,9.920088040E0
1.301323360E0,5.410500169E-1,3.970950127E0,9.060000420E0,9.906805117E0
1.303286205E0,5.410500169E-1,3.970950127E0,9.060000420E0,9.906805117E0
1.305249208E0,5.410500169E-1,4.009050369E0,9.060000420E0,9.922138257E0
1.307212249E0,5.410500169E-1,4.047000408E0,9.060000420E0,9.937532643E0
1.309175312E0,4.260000288E-1,4.047000408E0,9.022050858E0,9.897327417E0
1.311138707E0,5.020500422E-1,4.009050369E0,9.022050858E0,9.885440849E0
1.313102004E0,4.639500082E-1,4.085999966E0,9.060000420E0,9.949585566E0
1.315065269E0,5.020500422E-1,4.085999966E0,9.098999977E0,9.986954018E0
1.317028544E0,4.639500082E-1,4.047000408E0,9.060000420E0,9.933633249E0
1.318991767E0,4.260000288E-1,4.047000408E0,9.060000420E0,9.931933142E0
1.320955006E0,5.020500422E-1,4.047000408E0,9.060000420E0,9.935485602E0
1.322918550E0,4.639500082E-1,4.009050369E0,9.098999977E0,9.953870356E0
1.324882004E0,4.260000288E-1,4.047000408E0,9.098999977E0,9.967521704E0
1.326845063E0,4.639500082E-1,4.047000408E0,9.060000420E0,9.933633249E0
1.328808237E0,4.639500082E-1,4.047000408E0,9.098999977E0,9.969215741E0
1.330771681E0,4.260000288E-1,4.047000408E0,9.136950493E0,1.000217739E1
1.332735028E0,4.639500082E-1,4.047000408E0,9.098999977E0,9.969215741E0
1.334698240E0,4.260000288E-1,4.047000408E0,9.060000420E0,9.931933142E0
1.336661492E0,4.260000288E-1,4.009050369E0,9.098999977E0,9.952173706E0
1.338625078E0,4.260000288E-1,4.009050369E0,9.136950493E0,9.986882657E0
1.340588566E0,5.020500422E-1,4.009050369E0,9.136950493E0,9.990415578E0
1.342551932E0,4.639500082E-1,4.009050369E0,9.098999977E0,9.953870356E0
1.344515304E0,4.639500082E-1,4.009050369E0,9.136950493E0,9.988573411E0
1.346478330E0,4.639500082E-1,4.009050369E0,9.098999977E0,9.953870356E0
1.348441458E0,5.020500422E-1,4.009050369E0,9.136950493E0,9.990415578E0
1.350404391E0,4.260000288E-1,4.009050369E0,9.175050735E0,1.002175219E1
1.352367381E0,4.639500082E-1,4.047000408E0,9.175050735E0,1.003867610E1
1.354330593E0,5.020500422E-1,4.009050369E0,9.214050293E0,1.006097718E1
1.356293749E0,5.020500422E-1,4.009050369E0,9.175050735E0,1.002527282E1
1.358257038E0,4.260000288E-1,4.009050369E0,9.175050735E0,1.002175219E1
1.360220288E0,4.260000288E-1,4.047000408E0,9.175050735E0,1.003699379E1
1.362183696E0,4.260000288E-1,4.009050369E0,9.136950493E0,9.986882657E0
1.364147057E0,4.260000288E-1,3.970950127E0,9.214050293E0,1.004234254E1
1.366110262E0,4.260000288E-1,3.970950127E0,9.136950493E0,9.971649073E0
1.368073516E0,3.870000243E-1,3.970950127E0,9.175050735E0,1.000498725E1
1.370036877E0,3.870000243E-1,4.047000408E0,9.175050735E0,1.003541416E1
1.372000206E0,3.870000243E-1,4.009050369E0,9.175050735E0,1.002017015E1
1.373963421E0,3.870000243E-1,4.009050369E0,9.214050293E0,1.005589263E1
1.375926669E0,3.490500152E-1,4.009050369E0,9.136950493E0,9.983896288E0
1.377890076E0,4.260000288E-1,4.009050369E0,9.136950493E0,9.986882657E0
1.379853437E0,3.870000243E-1,4.047000408E0,9.098999977E0,9.965931061E0
1.381816871E0,4.260000288E-1,4.009050369E0,9.175050735E0,1.002175219E1
1.383780283E0,3.490500152E-1,4.009050369E0,9.175050735E0,1.001877621E1
1.385743619E0,3.870000243E-1,3.970950127E0,9.136950493E0,9.970059089E0
1.387706977E0,3.870000243E-1,4.009050369E0,9.098999977E0,9.950580609E0
1.389670217E0,3.870000243E-1,4.009050369E0,9.175050735E0,1.002017015E1
1.391633502E0,3.870000243E-1,4.047000408E0,9.175050735E0,1.003541416E1
1.393596902E0,3.870000243E-1,4.047000408E0,9.098999977E0,9.965931061E0
1.395560269E0,3.870000243E-1,4.009050369E0,9.098999977E0,9.950580609E0
1.397523252E0,4.260000288E-1,4.047000408E0,9.136950493E0,1.000217739E1
1.399486348E0,4.260000288E-1,4.047000408E0,9.098999977E0,9.967521704E0
1.401449595E0,3.870000243E-1,4.047000408E0,9.098999977E0,9.965931061E0
1.403412802E0,4.639500082E-1,4.009050369E0,9.098999977E0,9.953870356E0
1.405375858E0,4.260000288E-1,4.009050369E0,9.060000420E0,9.916530063E0
1.407338958E0,4.639500082E-1,4.047000408E0,9.060000420E0,9.933633249E0
1.409302435E0,4.639500082E-1,4.009050369E0,9.060000420E0,9.918232810E0
1.411265802E0,4.639500082E-1,3.970950127E0,9.098999977E0,9.938586172E0
1.413229209E0,4.639500082E-1,3.970950127E0,9.060000420E0,9.902893624E0
1.415192591E0,4.260000288E-1,3.970950127E0,9.060000420E0,9.901188239E0
1.417156111E0,5.020500422E-1,3.970950127E0,9.060000420E0,9.904751726E0
1.419119591E0,5.020500422E-1,3.970950127E0,9.022050858E0,9.870050700E0
1.421082960E0,4.639500082E-1,3.970950127E0,9.060000420E0,9.902893624E0
1.423046362E0,5.020500422E-1,3.931950092E0,9.060000420E0,9.889180622E0
1.425009368E0,5.410500169E-1,3.970950127E0,9.136950493E0,9.977226285E0
1.426972501E0,4.639500082E-1,3.970950127E0,9.098999977E0,9.938586172E0
1.428935792E0,5.410500169E-1,3.970950127E0,9.098999977E0,9.942483624E0
1.430899037E0,5.020500422E-1,3.931950092E0,9.136950493E0,9.959726406E0
1.432863167E0,5.020500422E-1,3.970950127E0,9.136950493E0,9.975187390E0
1.434827037E0,5.410500169E-1,3.970950127E0,9.098999977E0,9.942483624E0
1.436790155E0,5.790000558E-1,3.970950127E0,9.136950493E0,9.979356206E0
1.438753497E0,5.020500422E-1,3.970950127E0,9.136950493E0,9.975187390E0
1.440716888E0,5.020500422E-1,4.009050369E0,9.098999977E0,9.955718944E0
1.442680264E0,5.020500422E-1,3.970950127E0,9.136950493E0,9.975187390E0
1.444643650E0,5.020500422E-1,4.009050369E0,9.136950493E0,9.990415578E0
1.446607033E0,5.020500422E-1,3.970950127E0,9.136950493E0,9.975187390E0
1.448570538E0,5.020500422E-1,3.970950127E0,9.136950493E0,9.975187390E0
1.450534018E0,5.020500422E-1,4.009050369E0,9.098999977E0,9.955718944E0
1.452497207E0,4.639500082E-1,3.970950127E0,9.136950493E0,9.973342410E0
1.454460482E0,4.639500082E-1,4.009050369E0,9.136950493E0,9.988573411E0
1.456424110E0,4.260000288E-1,4.047000408E0,9.175050735E0,1.003699379E1
1.458387634E0,3.490500152E-1,4.085999966E0,9.136950493E0,1.001504348E1
1.460351160E0,4.260000288E-1,4.085999966E0,9.175050735E0,1.005278209E1
1.462314665E0,4.639500082E-1,4.047000408E0,9.098999977E0,9.969215741E0
1.464278253E0,3.870000243E-1,4.047000408E0,9.136950493E0,1.000059226E1
1.466241817E0,4.260000288E-1,4.047000408E0,9.175050735E0,1.003699379E1
1.468205486E0,3.490500152E-1,4.047000408E0,9.175050735E0,1.003402233E1
1.470169124E0,4.260000288E-1,4.047000408E0,9.214050293E0,1.007265661E1
1.472132447E0,3.870000243E-1,4.047000408E0,9.214050293E0,1.007108257E1
1.474095876E0,3.490500152E-1,4.085999966E0,9.175050735E0,1.004981530E1
1.476059658E0,4.260000288E-1,4.047000408E0,9.214050293E0,1.007265661E1
1.478023336E0,3.870000243E-1,4.085999966E0,9.175050735E0,1.005120494E1
1.479986807E0,3.870000243E-1,4.047000408E0,9.214050293E0,1.007108257E1
1.481950338E0,3.870000243E-1,4.085999966E0,9.175050735E0,1.005120494E1
1.483913534E0,4.260000288E-1,4.047000408E0,9.175050735E0,1.003699379E1
1.485876848E0,3.870000243E-1,4.085999966E0,9.214050293E0,1.008681751E1
1.487840019E0,3.870000243E-1,4.085999966E0,9.175050735E0,1.005120494E1
1.489803232E0,3.870000243E-1,4.047000408E0,9.252000809E0,1.010581517E1
1.491766465E0,3.870000243E-1,4.047000408E0,9.214050293E0,1.007108257E1
1.493729692E0,3.870000243E-1,4.047000408E0,9.175050735E0,1.003541416E1
1.495692793E0,3.870000243E-1,4.047000408E0,9.214050293E0,1.007108257E1
1.497655928E0,4.260000288E-1,4.009050369E0,9.214050293E0,1.005746905E1
1.499619174E0,4.260000288E-1,4.047000408E0,9.214050293E0,1.007265661E1
1.501582388E0,5.020500422E-1,4.009050369E0,9.175050735E0,1.002527282E1
1.503545622E0,3.870000243E-1,4.009050369E0,9.175050735E0,1.002017015E1
1.505508850E0,4.639500082E-1,3.970950127E0,9.175050735E0,1.000825912E1
1.507471888E0,4.639500082E-1,4.009050369E0,9.136950493E0,9.988573411E0
1.509434991E0,4.639500082E-1,4.009050369E0,9.136950493E0,9.988573411E0
1.511397839E0,4.639500082E-1,3.970950127E0,9.214050293E0,1.004402396E1
1.513360761E0,5.020500422E-1,4.009050369E0,9.136950493E0,9.990415578E0
1.515324043E0,4.639500082E-1,3.970950127E0,9.175050735E0,1.000825912E1
1.517287220E0,4.639500082E-1,4.009050369E0,9.214050293E0,1.005914794E1
1.519250431E0,4.639500082E-1,4.009050369E0,9.175050735E0,1.002343706E1
1.521213653E0,4.260000288E-1,3.931950092E0,9.175050735E0,9.991159270E0
1.523176706E0,5.020500422E-1,3.970950127E0,9.136950493E0,9.975187390E0
1.525139809E0,4.639500082E-1,3.970950127E0,9.214050293E0,1.004402396E1
1.527103105E0,4.260000288E-1,4.009050369E0,9.136950493E0,9.986882657E0
1.529066345E0,5.020500422E-1,3.970950127E0,9.175050735E0,1.001009766E1
1.531029595E0,5.020500422E-1,3.931950092E0,9.175050735E0,9.994690679E0
1.532992828E0,4.639500082E-1,3.931950092E0,9.136950493E0,9.957878562E0
1.534956192E0,5.020500422E-1,3.970950127E0,9.136950493E0,9.975187390E0
1.536919518E0,5.020500422E-1,3.970950127E0,9.175050735E0,1.001009766E1
1.538882913E0,4.639500082E-1,3.931950092E0,9.175050735E0,9.992849300E0
1.540846287E0,5.020500422E-1,3.931950092E0,9.098999977E0,9.924922486E0
1.542810570E0,5.020500422E-1,3.931950092E0,9.136950493E0,9.959726406E0
1.544774590E0,5.790000558E-1,3.931950092E0,9.175050735E0,9.998851364E0
1.546737011E0,5.410500169E-1,3.970950127E0,9.175050735E0,1.001212945E1
1.548699900E0,4.639500082E-1,3.970950127E0,9.175050735E0,1.000825912E1
1.550663188E0,5.410500169E-1,3.970950127E0,9.098999977E0,9.942483624E0
1.552626359E0,5.410500169E-1,3.970950127E0,9.098999977E0,9.942483624E0
1.554590137E0,5.410500169E-1,3.970950127E0,9.060000420E0,9.906805117E0
1.556553740E0,5.790000558E-1,3.931950092E0,9.098999977E0,9.929112406E0
1.558516142E0,5.410500169E-1,3.931950092E0,9.060000420E0,9.891237246E0
1.560478896E0,5.410500169E-1,3.970950127E0,9.060000420E0,9.906805117E0
1.562442973E0,5.410500169E-1,3.931950092E0,9.060000420E0,9.891237246E0
1.564406663E0,5.790000558E-1,3.931950092E0,9.098999977E0,9.929112406E0
1.566368905E0,5.790000558E-1,3.931950092E0,9.060000420E0,9.893385679E0
1.568331578E0,5.410500169E-1,3.931950092E0,9.060000420E0,9.891237246E0
1.570295759E0,5.020500422E-1,3.970950127E0,9.060000420E0,9.904751726E0
1.572259499E0,5.790000558E-1,3.970950127E0,9.022050858E0,9.874263904E0
1.574221968E0,5.410500169E-1,3.970950127E0,9.022050858E0,9.872111309E0
1.576184809E0,5.410500169E-1,3.931950092E0,9.060000420E0,9.891237246E0
1.578147719E0,5.790000558E-1,3.970950127E0,8.983950615E0,9.839464143E0
1.580110595E0,5.410500169E-1,3.970950127E0,9.022050858E0,9.872111309E0
1.582074473E0,5.410500169E-1,3.970950127E0,9.022050858E0,9.872111309E0
1.584038057E0,6.169500351E-1,3.931950092E0,9.022050858E0,9.860946230E0
1.586001048E0,5.410500169E-1,3.970950127E0,9.022050858E0,9.872111309E0
1.587964212E0,5.790000558E-1,3.970950127E0,8.983950615E0,9.839464143E0
1.589926299E0,5.410500169E-1,3.931950092E0,9.022050858E0,9.856488641E0
1.591888722E0,5.020500422E-1,3.970950127E0,8.983950615E0,9.835236032E0
1.593853037E0,5.790000558E-1,4.009050369E0,9.060000420E0,9.924280001E0
1.595816797E0,6.169500351E-1,3.970950127E0,9.060000420E0,9.911240077E0
1.597779172E0,5.410500169E-1,4.009050369E0,9.022050858E0,9.887498251E0
1.599741953E0,5.410500169E-1,4.009050369E0,9.022050858E0,9.887498251E0
1.601705795E0,5.410500169E-1,4.009050369E0,9.060000420E0,9.922138257E0
1.603669330E0,5.790000558E-1,4.009050369E0,9.060000420E0,9.924280001E0
1.605631834E0,5.020500422E-1,4.009050369E0,9.060000420E0,9.920088040E0
1.607594640E0,5.020500422E-1,4.009050369E0,8.983950615E0,9.850680573E0
1.609558258E0,5.410500169E-1,4.047000408E0,9.022050858E0,9.902946486E0
1.611521638E0,5.020500422E-1,4.009050369E0,9.022050858E0,9.885440849E0
1.613484480E0,5.020500422E-1,4.047000408E0,9.060000420E0,9.935485602E0
1.615447482E0,5.020500422E-1,4.047000408E0,9.022050858E0,9.900892294E0
1.617410751E0,5.410500169E-1,4.047000408E0,9.022050858E0,9.902946486E0
1.619373942E0,5.020500422E-1,4.047000408E0,9.098999977E0,9.971061485E0
1.621337224E0,4.639500082E-1,4.009050369E0,9.060000420E0,9.918232810E0
1.623300480E0,5.020500422E-1,3.970950127E0,9.098999977E0,9.940437603E0
1.625264022E0,5.020500422E-1,4.009050369E0,9.098999977E0,9.955718944E0
1.627227480E0,5.020500422E-1,4.047000408E0,9.060000420E0,9.935485602E0
1.629190853E0,5.020500422E-1,4.047000408E0,9.136950493E0,1.000570492E1
1.631154251E0,5.020500422E-1,4.047000408E0,9.098999977E0,9.971061485E0
1.633117678E0,4.639500082E-1,4.009050369E0,9.060000420E0,9.918232810E0
1.635081096E0,5.410500169E-1,4.009050369E0,9.136950493E0,9.992451366E0
1.637044435E0,4.639500082E-1,4.009050369E0,9.098999977E0,9.953870356E0
1.639007794E0,5.020500422E-1,4.047000408E0,9.098999977E0,9.971061485E0
1.640971002E0,5.410500169E-1,4.047000408E0,9.060000420E0,9.937532643E0
1.642934255E0,4.639500082E-1,4.085999966E0,9.136950493E0,1.001970607E1
1.644897482E0,4.639500082E-1,4.047000408E0,9.175050735E0,1.003867610E1
1.646860717E0,4.639500082E-1,4.009050369E0,9.098999977E0,9.953870356E0
1.648823967E0,3.870000243E-1,4.047000408E0,9.136950493E0,1.000059226E1
1.650787229E0,4.260000288E-1,4.047000408E0,9.136950493E0,1.000217739E1
1.652750590E0,4.260000288E-1,4.047000408E0,9.098999977E0,9.967521704E0
1.654713922E0,4.260000288E-1,4.047000408E0,9.098999977E0,9.967521704E0
1.656676641E0,3.870000243E-1,4.047000408E0,9.175050735E0,1.003541416E1
1.658639539E0,4.260000288E-1,4.123950005E0,9.175050735E0,1.006826677E1
1.660602811E0,3.870000243E-1,4.162050247E0,9.175050735E0,1.008236020E1
1.662565952E0,3.870000243E-1,4.085999966E0,9.136950493E0,1.001643794E1
1.664528839E0,3.490500152E-1,4.085999966E0,9.136950493E0,1.001504348E1
1.666491800E0,3.870000243E-1,4.047000408E0,9.175050735E0,1.003541416E1
1.668454941E0,3.109500110E-1,4.085999966E0,9.175050735E0,1.004856416E1
1.670418029E0,3.490500152E-1,4.085999966E0,9.136950493E0,1.001504348E1
1.672381268E0,3.490500152E-1,4.123950005E0,9.214050293E0,1.010086741E1
1.674344442E0,4.260000288E-1,4.047000408E0,9.214050293E0,1.007265661E1
1.676307683E0,3.490500152E-1,4.047000408E0,9.175050735E0,1.003402233E1
1.678270904E0,3.490500152E-1,4.085999966E0,9.214050293E0,1.008543278E1
1.680234317E0,3.870000243E-1,4.047000408E0,9.175050735E0,1.003541416E1
1.682197673E0,3.490500152E-1,4.047000408E0,9.136950493E0,9.999195594E0
1.684160889E0,3.490500152E-1,4.047000408E0,9.136950493E0,9.999195594E0
1.686124142E0,4.260000288E-1,4.009050369E0,9.214050293E0,1.005746905E1
1.688087413E0,3.870000243E-1,4.009050369E0,9.214050293E0,1.005589263E1
1.690050678E0,3.870000243E-1,4.009050369E0,9.214050293E0,1.005589263E1
1.692013904E0,3.870000243E-1,4.009050369E0,9.175050735E0,1.002017015E1
1.693977142E0,4.260000288E-1,3.970950127E0,9.175050735E0,1.000657169E1
1.695940505E0,4.260000288E-1,4.009050369E0,9.214050293E0,1.005746905E1
1.697903832E0,3.870000243E-1,4.009050369E0,9.252000809E0,1.009067752E1
1.699867048E0,4.639500082E-1,4.009050369E0,9.214050293E0,1.005914794E1
1.701830296E0,4.260000288E-1,3.970950127E0,9.175050735E0,1.000657169E1
1.703793703E0,4.260000288E-1,3.970950127E0,9.252000809E0,1.007717420E1
1.705757063E0,4.639500082E-1,3.970950127E0,9.214050293E0,1.004402396E1
1.707720492E0,4.639500082E-1,4.009050369E0,9.252000809E0,1.009392161E1
1.709683904E0,4.260000288E-1,3.970950127E0,9.214050293E0,1.004234254E1
1.711647105E0,4.260000288E-1,3.970950127E0,9.214050293E0,1.004234254E1
1.713610368E0,4.639500082E-1,3.970950127E0,9.214050293E0,1.004402396E1
1.715573908E0,5.020500422E-1,4.009050369E0,9.175050735E0,1.002527282E1
1.717537366E0,4.639500082E-1,3.970950127E0,9.175050735E0,1.000825912E1
1.719500715E0,4.639500082E-1,3.970950127E0,9.175050735E0,1.000825912E1
1.721464113E0,4.639500082E-1,3.970950127E0,9.136950493E0,9.973342410E0
1.723427539E0,4.639500082E-1,4.009050369E0,9.175050735E0,1.002343706E1
1.725390957E0,5.020500422E-1,3.970950127E0,9.136950493E0,9.975187390E0
1.727354292E0,4.260000288E-1,4.009050369E0,9.136950493E0,9.986882657E0
1.729317651E0,4.639500082E-1,4.009050369E0,9.136950493E0,9.988573411E0
1.731280910E0,4.639500082E-1,4.009050369E0,9.098999977E0,9.953870356E0
1.733244195E0,4.260000288E-1,3.970950127E0,9.098999977E0,9.936886913E0
1.735207595E0,5.020500422E-1,3.970950127E0,9.098999977E0,9.940437603E0
1.737170962E0,5.020500422E-1,3.970950127E0,9.136950493E0,9.975187390E0
1.739134305E0,4.260000288E-1,4.009050369E0,9.098999977E0,9.952173706E0
1.741097656E0,5.020500422E-1,4.009050369E0,9.098999977E0,9.955718944E0
1.743061094E0,4.260000288E-1,4.009050369E0,9.136950493E0,9.986882657E0
1.745024504E0,4.260000288E-1,4.009050369E0,9.060000420E0,9.916530063E0
1.746987886E0,5.020500422E-1,4.047000408E0,9.136950493E0,1.000570492E1
1.748951276E0,5.020500422E-1,4.047000408E0,9.060000420E0,9.935485602E0
1.750914974E0,4.639500082E-1,4.009050369E0,9.060000420E0,9.918232810E0
1.752878581E0,5.020500422E-1,4.009050369E0,9.060000420E0,9.920088040E0
1.754841974E0,5.410500169E-1,4.009050369E0,9.098999977E0,9.957761825E0
1.756805430E0,4.639500082E-1,4.047000408E0,9.098999977E0,9.969215741E0
1.758768622E0,5.020500422E-1,4.047000408E0,9.022050858E0,9.900892294E0
1.760731891E0,4.639500082E-1,4.009050369E0,9.060000420E0,9.918232810E0
1.762694935E0,5.020500422E-1,4.085999966E0,9.060000420E0,9.951434950E0
1.764658045E0,4.639500082E-1,4.047000408E0,9.060000420E0,9.933633249E0
1.766621397E0,5.410500169E-1,4.047000408E0,9.098999977E0,9.973101223E0
1.768584702E0,5.020500422E-1,4.047000408E0,9.022050858E0,9.900892294E0
1.770548100E0,4.639500082E-1,4.047000408E0,9.060000420E0,9.933633249E0
1.772511471E0,5.020500422E-1,4.085999966E0,9.022050858E0,9.916897279E0
1.774474499E0,5.410500169E-1,4.047000408E0,9.022050858E0,9.902946486E0
1.776437627E0,5.020500422E-1,4.009050369E0,9.022050858E0,9.885440849E0
1.778400884E0,4.639500082E-1,4.009050369E0,9.098999977E0,9.953870356E0
1.780364096E0,4.639500082E-1,4.047000408E0,9.098999977E0,9.969215741E0
1.782327555E0,5.410500169E-1,4.047000408E0,9.060000420E0,9.937532643E0
1.784290942E0,5.020500422E-1,4.047000408E0,9.098999977E0,9.971061485E0
1.786254327E0,4.639500082E-1,4.047000408E0,9.060000420E0,9.933633249E0
1.788217713E0,5.410500169E-1,4.047000408E0,9.060000420E0,9.937532643E0
1.790180877E0,4.260000288E-1,4.047000408E0,9.098999977E0,9.967521704E0
1.792144103E0,4.639500082E-1,4.047000408E0,9.098999977E0,9.969215741E0
1.794107378E0,4.639500082E-1,4.047000408E0,9.098999977E0,9.969215741E0
1.796070639E0,4.639500082E-1,4.047000408E0,9.136950493E0,1.000386556E1
1.798034225E0,4.639500082E-1,4.047000408E0,9.136950493E0,1.000386556E1
1.799997716E0,4.639500082E-1,4.047000408E0,9.175050735E0,1.003867610E1
1.801961412E0,5.020500422E-1,4.009050369E0,9.136950493E0,9.990415578E0
1.803925038E0,5.020500422E-1,4.009050369E0,9.175050735E0,1.002527282E1
1.805888427E0,4.639500082E-1,4.009050369E0,9.175050735E0,1.002343706E1
1.807851886E0,5.020500422E-1,4.009050369E0,9.175050735E0,1.002527282E1
1.809814897E0,4.639500082E-1,4.009050369E0,9.175050735E0,1.002343706E1
1.811778040E0,5.020500422E-1,4.047000408E0,9.175050735E0,1.004050908E1
1.813741420E0,5.020500422E-1,4.009050369E0,9.175050735E0,1.002527282E1
1.815704730E0,4.639500082E-1,3.970950127E0,9.175050735E0,1.000825912E1
1.817667813E0,5.020500422E-1,4.009050369E0,9.175050735E0,1.002527282E1
1.819630963E0,5.020500422E-1,3.970950127E0,9.136950493E0,9.975187390E0
1.821594162E0,5.020500422E-1,3.970950127E0,9.175050735E0,1.001009766E1
1.823557346E0,5.020500422E-1,3.970950127E0,9.136950493E0,9.975187390E0
1.825520839E0,5.020500422E-1,3.970950127E0,9.098999977E0,9.940437603E0
1.827484221E0,5.020500422E-1,3.970950127E0,9.136950493E0,9.975187390E0
1.829447382E0,4.639500082E-1,3.970950127E0,9.136950493E0,9.973342410E0
1.831410608E0,5.020500422E-1,3.970950127E0,9.098999977E0,9.940437603E0
1.833374019E0,5.790000558E-1,4.009050369E0,9.136950493E0,9.994578042E0
1.835337375E0,5.020500422E-1,4.009050369E0,9.098999977E0,9.955718944E0
1.837300465E0,5.020500422E-1,4.009050369E0,9.136950493E0,9.990415578E0
1.839263623E0,4.639500082E-1,3.931950092E0,9.098999977E0,9.923068161E0
1.841227045E0,5.020500422E-1,3.931950092E0,9.098999977E0,9.924922486E0
1.843190390E0,4.639500082E-1,3.931950092E0,9.098999977E0,9.923068161E0
1.845153736E0,5.020500422E-1,3.970950127E0,9.098999977E0,9.940437603E0
1.847117082E0,5.020500422E-1,4.009050369E0,9.136950493E0,9.990415578E0
1.849080477E0,5.790000558E-1,3.970950127E0,9.098999977E0,9.944620986E0
1.851043855E0,5.410500169E-1,3.970950127E0,9.060000420E0,9.906805117E0
1.853007782E0,5.020500422E-1,3.931950092E0,9.098999977E0,9.924922486E0
1.854971548E0,5.790000558E-1,3.931950092E0,9.060000420E0,9.893385679E0
1.856933606E0,5.410500169E-1,3.970950127E0,9.098999977E0,9.942483624E0
1.858896165E0,5.410500169E-1,3.970950127E0,9.060000420E0,9.906805117E0
1.860859506E0,5.410500169E-1,3.931950092E0,9.060000420E0,9.891237246E0
1.862822621E0,5.020500422E-1,3.931950092E0,9.098999977E0,9.924922486E0
1.864785736E0,5.020500422E-1,3.931950092E0,9.060000420E0,9.889180622E0
1.866748851E0,5.410500169E-1,3.970950127E0,9.060000420E0,9.906805117E0
1.868711923E0,5.790000558E-1,3.970950127E0,9.060000420E0,9.908950175E0
1.870675007E0,5.020500422E-1,3.931950092E0,9.060000420E0,9.889180622E0
1.872638207E0,5.410500169E-1,3.931950092E0,9.060000420E0,9.891237246E0
1.874601380E0,5.410500169E-1,3.970950127E0,9.022050858E0,9.872111309E0
1.876564306E0,5.790000558E-1,3.970950127E0,9.098999977E0,9.944620986E0
1.878527305E0,4.639500082E-1,4.009050369E0,9.098999977E0,9.953870356E0
1.880490575E0,5.020500422E-1,3.970950127E0,9.060000420E0,9.904751726E0
1.882453765E0,5.020500422E-1,3.970950127E0,9.098999977E0,9.940437603E0
1.884417207E0,5.410500169E-1,3.970950127E0,9.060000420E0,9.906805117E0
1.886380558E0,5.020500422E-1,4.009050369E0,9.098999977E0,9.955718944E0
1.888343409E0,5.020500422E-1,3.970950127E0,9.098999977E0,9.940437603E0
1.890306406E0,5.020500422E-1,4.009050369E0,9.060000420E0,9.920088040E0
1.892269451E0,5.410500169E-1,4.009050369E0,9.060000420E0,9.922138257E0
1.894232481E0,5.020500422E-1,4.009050369E0,9.060000420E0,9.920088040E0
1.896195417E0,5.410500169E-1,3.970950127E0,9.136950493E0,9.977226285E0
1.898158391E0,4.639500082E-1,4.009050369E0,9.060000420E0,9.918232810E0
1.900121260E0,5.020500422E-1,4.009050369E0,9.136950493E0,9.990415578E0
1.902084160E0,4.639500082E-1,4.009050369E0,9.136950493E0,9.988573411E0
1.904047266E0,5.020500422E-1,4.009050369E0,9.136950493E0,9.990415578E0
1.906010312E0,5.020500422E-1,4.009050369E0,9.098999977E0,9.955718944E0
1.907973635E0,5.020500422E-1,4.047000408E0,9.136950493E0,1.000570492E1
1.909936866E0,4.260000288E-1,4.047000408E0,9.098999977E0,9.967521704E0
1.911899872E0,5.020500422E-1,4.047000408E0,9.098999977E0,9.971061485E0
1.913862944E0,4.639500082E-1,4.009050369E0,9.098999977E0,9.953870356E0
1.915826246E0,5.020500422E-1,4.009050369E0,9.098999977E0,9.955718944E0
1.917789481E0,4.260000288E-1,4.047000408E0,9.060000420E0,9.931933142E0
1.919752846E0,4.260000288E-1,4.047000408E0,9.060000420E0,9.931933142E0
1.921716173E0,4.639500082E-1,4.009050369E0,9.098999977E0,9.953870356E0
1.923679434E0,4.639500082E-1,4.009050369E0,9.060000420E0,9.918232810E0
1.925642714E0,4.260000288E-1,4.047000408E0,9.060000420E0,9.931933142E0
1.927606115E0,4.639500082E-1,4.009050369E0,9.098999977E0,9.953870356E0
1.929569481E0,4.260000288E-1,4.047000408E0,9.136950493E0,1.000217739E1
1.931532815E0,4.260000288E-1,4.047000408E0,9.136950493E0,1.000217739E1
1.933496165E0,4.260000288E-1,4.047000408E0,9.136950493E0,1.000217739E1
1.935459421E0,3.870000243E-1,4.009050369E0,9.098999977E0,9.950580609E0
1.937422704E0,4.639500082E-1,4.047000408E0,9.136950493E0,1.000386556E1
1.939386105E0,4.260000288E-1,4.047000408E0,9.136950493E0,1.000217739E1
1.941349471E0,3.870000243E-1,4.047000408E0,9.136950493E0,1.000059226E1
1.943312659E0,4.639500082E-1,4.047000408E0,9.175050735E0,1.003867610E1
1.945275882E0,4.260000288E-1,4.009050369E0,9.175050735E0,1.002175219E1
1.947239293E0,3.870000243E-1,4.047000408E0,9.175050735E0,1.003541416E1
1.949202649E0,3.870000243E-1,4.047000408E0,9.136950493E0,1.000059226E1
1.951165724E0,3.490500152E-1,4.009050369E0,9.175050735E0,1.001877621E1
1.953128882E0,3.870000243E-1,4.047000408E0,9.175050735E0,1.003541416E1
1.955092153E0,4.639500082E-1,4.047000408E0,9.175050735E0,1.003867610E1
1.957055370E0,4.260000288E-1,4.047000408E0,9.214050293E0,1.007265661E1
1.959018783E0,4.639500082E-1,4.009050369E0,9.175050735E0,1.002343706E1
1.960982139E0,4.639500082E-1,4.047000408E0,9.175050735E0,1.003867610E1
1.962945485E0,4.260000288E-1,4.009050369E0,9.175050735E0,1.002175219E1
1.964908834E0,4.260000288E-1,4.009050369E0,9.214050293E0,1.005746905E1
1.966872073E0,4.260000288E-1,3.970950127E0,9.136950493E0,9.971649073E0
1.968835324E0,4.260000288E-1,4.009050369E0,9.175050735E0,1.002175219E1
1.970798731E0,4.260000288E-1,4.047000408E0,9.214050293E0,1.007265661E1
1.972762092E0,4.639500082E-1,4.009050369E0,9.175050735E0,1.002343706E1
1.974725346E0,4.260000288E-1,4.009050369E0,9.175050735E0,1.002175219E1
1.976688632E0,3.490500152E-1,4.047000408E0,9.214050293E0,1.006969568E1
1.978651853E0,4.260000288E-1,4.009050369E0,9.214050293E0,1.005746905E1
1.980615094E0,4.260000288E-1,3.970950127E0,9.175050735E0,1.000657169E1
1.982578502E0,4.260000288E-1,4.047000408E0,9.214050293E0,1.007265661E1
1.984541861E0,4.260000288E-1,4.009050369E0,9.214050293E0,1.005746905E1
1.986505025E0,4.639500082E-1,4.009050369E0,9.214050293E0,1.005914794E1
1.988468247E0,4.260000288E-1,4.009050369E0,9.175050735E0,1.002175219E1
1.990431487E0,3.870000243E-1,4.047000408E0,9.214050293E0,1.007108257E1
1.992394716E0,3.870000243E-1,4.047000408E0,9.214050293E0,1.007108257E1
1.994357813E0,3.870000243E-1,4.009050369E0,9.175050735E0,1.002017015E1
1.996320949E0,3.870000243E-1,4.009050369E0,9.214050293E0,1.005589263E1
1.998284195E0,4.260000288E-1,4.047000408E0,9.175050735E0,1.003699379E1
2.000247408E0,4.260000288E-1,4.009050369E0,9.175050735E0,1.002175219E1
2.002210463E0,4.260000288E-1,4.009050369E0,9.136950493E0,9.986882657E0
2.004173564E0,4.639500082E-1,4.009050369E0,9.136950493E0,9.988573411E0
2.006137131E0,4.639500082E-1,4.047000408E0,9.136950493E0,1.000386556E1
2.008100562E0,4.260000288E-1,4.009050369E0,9.175050735E0,1.002175219E1
2.010063760E0,4.639500082E-1,4.047000408E0,9.136950493E0,1.000386556E1
2.012027026E0,4.260000288E-1,4.047000408E0,9.098999977E0,9.967521704E0
2.013990236E0,5.020500422E-1,4.009050369E0,9.175050735E0,1.002527282E1
2.015953473E0,4.260000288E-1,4.009050369E0,9.136950493E0,9.986882657E0
2.017916927E0,4.639500082E-1,4.047000408E0,9.136950493E0,1.000386556E1
2.019880317E0,5.020500422E-1,4.009050369E0,9.136950493E0,9.990415578E0
2.021843522E0,5.020500422E-1,4.009050369E0,9.098999977E0,9.955718944E0
2.023806781E0,5.020500422E-1,4.009050369E0,9.136950493E0,9.990415578E0
2.025770016E0,4.639500082E-1,4.009050369E0,9.175050735E0,1.002343706E1
2.027733251E0,5.410500169E-1,4.009050369E0,9.136950493E0,9.992451366E0
2.029696661E0,4.639500082E-1,4.047000408E0,9.060000420E0,9.933633249E0
2.031660019E0,4.639500082E-1,3.970950127E0,9.098999977E0,9.938586172E0
2.033623184E0,4.639500082E-1,4.009050369E0,9.136950493E0,9.988573411E0
2.035586405E0,4.639500082E-1,4.009050369E0,9.175050735E0,1.002343706E1
2.037549632E0,5.020500422E-1,4.009050369E0,9.098999977E0,9.955718944E0
2.039512860E0,4.639500082E-1,4.047000408E0,9.060000420E0,9.933633249E0
2.041476136E0,5.020500422E-1,4.009050369E0,9.136950493E0,9.990415578E0
2.043439398E0,5.020500422E-1,4.047000408E0,9.098999977E0,9.971061485E0
2.045402759E0,5.020500422E-1,4.047000408E0,9.098999977E0,9.971061485E0
2.047366091E0,5.020500422E-1,4.047000408E0,9.060000420E0,9.935485602E0
2.049329354E0,4.260000288E-1,3.970950127E0,9.098999977E0,9.936886913E0
2.051292635E0,4.639500082E-1,4.009050369E0,9.022050858E0,9.883579116E0
2.053255991E0,5.020500422E-1,4.009050369E0,9.060000420E0,9.920088040E0
2.055219325E0,4.639500082E-1,4.047000408E0,9.022050858E0,9.899033467E0
2.057182539E0,5.020500422E-1,3.970950127E0,9.022050858E0,9.870050700E0
2.059145789E0,5.020500422E-1,4.009050369E0,9.098999977E0,9.955718944E0
2.061109017E0,5.410500169E-1,4.047000408E0,9.060000420E0,9.937532643E0
2.063072251E0,5.020500422E-1,4.009050369E0,9.022050858E0,9.885440849E0
2.065035481E0,5.020500422E-1,4.047000408E0,9.060000420E0,9.935485602E0
2.066998712E0,5.020500422E-1,4.047000408E0,9.098999977E0,9.971061485E0
2.068961808E0,5.410500169E-1,4.009050369E0,9.060000420E0,9.922138257E0
2.070924943E0,5.410500169E-1,4.009050369E0,9.022050858E0,9.887498251E0
2.072887913E0,4.639500082E-1,3.970950127E0,9.060000420E0,9.902893624E0
2.074850968E0,4.639500082E-1,4.009050369E0,9.022050858E0,9.883579116E0
2.076814228E0,5.410500169E-1,3.970950127E0,9.022050858E0,9.872111309E0
2.078777427E0,4.639500082E-1,4.009050369E0,9.060000420E0,9.918232810E0
2.080740349E0,5.020500422E-1,4.009050369E0,9.060000420E0,9.920088040E0
2.082703352E0,5.020500422E-1,4.009050369E0,9.098999977E0,9.955718944E0
2.084666781E0,4.639500082E-1,4.009050369E0,9.098999977E0,9.953870356E0
2.086630068E0,4.639500082E-1,4.009050369E0,9.060000420E0,9.918232810E0
2.088593110E0,5.020500422E-1,3.970950127E0,9.060000420E0,9.904751726E0
2.090556224E0,5.410500169E-1,4.009050369E0,9.060000420E0,9.922138257E0
2.092519519E0,5.410500169E-1,4.009050369E0,9.098999977E0,9.957761825E0
2.094482760E0,5.020500422E-1,4.009050369E0,9.098999977E0,9.955718944E0
2.096445814E0,5.020500422E-1,3.970950127E0,9.136950493E0,9.975187390E0
2.098408920E0,5.020500422E-1,3.970950127E0,9.136950493E0,9.975187390E0
2.100372171E0,5.020500422E-1,3.970950127E0,9.136950493E0,9.975187390E0
2.102335380E0,5.020500422E-1,4.009050369E0,9.136950493E0,9.990415578E0
2.104298570E0,5.020500422E-1,3.970950127E0,9.136950493E0,9.975187390E0
2.106261766E0,4.639500082E-1,4.009050369E0,9.136950493E0,9.988573411E0
2.108224873E0,5.020500422E-1,4.009050369E0,9.098999977E0,9.955718944E0
2.110188002E0,4.639500082E-1,3.970950127E0,9.098999977E0,9.938586172E0
2.112151384E0,5.020500422E-1,4.009050369E0,9.098999977E0,9.955718944E0
2.114114692E0,5.020500422E-1,3.970950127E0,9.136950493E0,9.975187390E0
2.116077956E0,4.260000288E-1,4.009050369E0,9.060000420E0,9.916530063E0
2.118041233E0,4.639500082E-1,3.970950127E0,9.098999977E0,9.938586172E0
2.120005125E0,5.020500422E-1,3.970950127E0,9.136950493E0,9.975187390E0
2.121968841E0,5.410500169E-1,4.009050369E0,9.098999977E0,9.957761825E0
2.123932215E0,5.410500169E-1,4.009050369E0,9.098999977E0,9.957761825E0
2.125895689E0,4.639500082E-1,3.970950127E0,9.175050735E0,1.000825912E1
2.127859014E0,5.020500422E-1,3.970950127E0,9.136950493E0,9.975187390E0
2.129822382E0,4.639500082E-1,4.009050369E0,9.136950493E0,9.988573411E0
2.131785799E0,4.260000288E-1,3.970950127E0,9.136950493E0,9.971649073E0
2.133749212E0,4.639500082E-1,3.970950127E0,9.136950493E0,9.973342410E0
2.135712412E0,4.639500082E-1,3.970950127E0,9.098999977E0,9.938586172E0
2.137675675E0,5.020500422E-1,4.009050369E0,9.136950493E0,9.990415578E0
2.139639215E0,5.020500422E-1,4.009050369E0,9.136950493E0,9.990415578E0
2.141602673E0,4.260000288E-1,4.009050369E0,9.060000420E0,9.916530063E0
2.143566225E0,5.020500422E-1,3.970950127E0,9.098999977E0,9.940437603E0
2.145529750E0,5.020500422E-1,4.009050369E0,9.098999977E0,9.955718944E0
2.147493111E0,5.020500422E-1,3.970950127E0,9.136950493E0,9.975187390E0
2.149456521E0,5.020500422E-1,4.009050369E0,9.098999977E0,9.955718944E0
2.151419902E0,5.020500422E-1,3.970950127E0,9.136950493E0,9.975187390E0
2.153383291E0,4.639500082E-1,4.009050369E0,9.098999977E0,9.953870356E0
2.155346695E0,5.410500169E-1,3.970950127E0,9.136950493E0,9.977226285E0
2.157310111E0,5.410500169E-1,3.970950127E0,9.136950493E0,9.977226285E0
2.159273446E0,5.410500169E-1,3.970950127E0,9.175050735E0,1.001212945E1
2.161236805E0,5.020500422E-1,3.970950127E0,9.098999977E0,9.940437603E0
2.163200238E0,5.020500422E-1,3.970950127E0,9.136950493E0,9.975187390E0
2.165163649E0,4.639500082E-1,4.009050369E0,9.098999977E0,9.953870356E0
2.167127204E0,5.410500169E-1,3.970950127E0,9.060000420E0,9.906805117E0
2.169090721E0,5.020500422E-1,3.970950127E0,9.136950493E0,9.975187390E0
2.171054444E0,5.410500169E-1,3.970950127E0,9.136950493E0,9.977226285E0
2.173018106E0,5.020500422E-1,3.970950127E0,9.175050735E0,1.001009766E1
2.174981399E0,5.020500422E-1,3.970950127E0,9.136950493E0,9.975187390E0
2.176944800E0,4.639500082E-1,3.970950127E0,9.175050735E0,1.000825912E1
2.178908356E0,5.020500422E-1,3.970950127E0,9.175050735E0,1.001009766E1
2.180871870E0,5.410500169E-1,4.009050369E0,9.136950493E0,9.992451366E0
2.182835099E0,4.639500082E-1,4.009050369E0,9.214050293E0,1.005914794E1
2.184798411E0,4.639500082E-1,4.047000408E0,9.136950493E0,1.000386556E1
2.186761627E0,4.639500082E-1,4.009050369E0,9.214050293E0,1.005914794E1
2.188724872E0,4.639500082E-1,4.009050369E0,9.214050293E0,1.005914794E1
2.190688065E0,4.260000288E-1,4.047000408E0,9.214050293E0,1.007265661E1
2.192651267E0,4.260000288E-1,4.047000408E0,9.175050735E0,1.003699379E1
2.194614501E0,4.260000288E-1,4.047000408E0,9.098999977E0,9.967521704E0
2.196577726E0,4.260000288E-1,4.047000408E0,9.060000420E0,9.931933142E0
2.198540824E0,4.260000288E-1,4.047000408E0,9.136950493E0,1.000217739E1
2.200503959E0,4.639500082E-1,4.047000408E0,9.136950493E0,1.000386556E1
2.202467320E0,4.639500082E-1,4.085999966E0,9.136950493E0,1.001970607E1
2.204430629E0,4.639500082E-1,4.047000408E0,9.060000420E0,9.933633249E0
2.206393848E0,4.260000288E-1,4.047000408E0,9.022050858E0,9.897327417E0
2.208357093E0,4.260000288E-1,4.085999966E0,9.022050858E0,9.913338157E0
2.210320186E0,4.260000288E-1,4.047000408E0,9.022050858E0,9.897327417E0
2.212283324E0,3.870000243E-1,4.047000408E0,9.060000420E0,9.930336798E0
2.214246722E0,3.870000243E-1,4.009050369E0,9.022050858E0,9.880265966E0
2.216210063E0,4.260000288E-1,4.047000408E0,8.944950104E0,9.827096249E0
2.218173410E0,3.870000243E-1,4.047000408E0,9.022050858E0,9.895725491E0
2.220136755E0,4.639500082E-1,4.047000408E0,9.022050858E0,9.899033467E0
2.222099787E0,4.639500082E-1,4.047000408E0,8.983950615E0,9.864321090E0
2.224062911E0,4.639500082E-1,4.085999966E0,8.983950615E0,9.880385315E0
2.226025984E0,4.260000288E-1,4.009050369E0,8.944950104E0,9.811528589E0
2.227989069E0,4.639500082E-1,4.047000408E0,8.983950615E0,9.864321090E0
2.229952145E0,4.639500082E-1,4.047000408E0,9.060000420E0,9.933633249E0
2.231915223E0,4.639500082E-1,4.009050369E0,8.983950615E0,9.848812270E0
2.233878164E0,4.639500082E-1,3.970950127E0,9.022050858E0,9.868186064E0
2.235841146E0,4.639500082E-1,4.009050369E0,9.060000420E0,9.918232810E0
2.237804410E0,5.020500422E-1,4.009050369E0,9.060000420E0,9.920088040E0
2.239767597E0,4.260000288E-1,4.047000408E0,9.022050858E0,9.897327417E0
2.241730656E0,5.020500422E-1,4.009050369E0,9.060000420E0,9.920088040E0
2.243693752E0,5.020500422E-1,4.009050369E0,9.098999977E0,9.955718944E0
2.245657140E0,5.020500422E-1,4.047000408E0,9.060000420E0,9.935485602E0
2.247620443E0,5.020500422E-1,4.009050369E0,9.060000420E0,9.920088040E0
2.249583856E0,4.260000288E-1,4.009050369E0,9.136950493E0,9.986882657E0
2.251547226E0,5.020500422E-1,4.047000408E0,9.060000420E0,9.935485602E0
2.253510479E0,4.639500082E-1,4.009050369E0,9.098999977E0,9.953870356E0
2.255473766E0,4.639500082E-1,4.009050369E0,9.136950493E0,9.988573411E0
2.257436987E0,5.020500422E-1,4.047000408E0,9.136950493E0,1.000570492E1
2.259400228E0,4.639500082E-1,4.047000408E0,9.060000420E0,9.933633249E0
2.261363675E0,5.020500422E-1,4.009050369E0,9.136950493E0,9.990415578E0
2.263327034E0,4.639500082E-1,4.085999966E0,9.175050735E0,1.005446176E1
2.265290244E0,4.639500082E-1,4.047000408E0,9.060000420E0,9.933633249E0
2.267253498E0,5.020500422E-1,4.047000408E0,9.098999977E0,9.971061485E0
2.269216859E0,4.260000288E-1,4.047000408E0,9.136950493E0,1.000217739E1
2.271180188E0,4.639500082E-1,4.047000408E0,9.060000420E0,9.933633249E0
2.273143428E0,4.260000288E-1,4.047000408E0,9.098999977E0,9.967521704E0
2.275106709E0,4.639500082E-1,4.047000408E0,9.136950493E0,1.000386556E1
2.277069750E0,4.639500082E-1,4.047000408E0,9.098999977E0,9.969215741E0
2.279032862E0,4.639500082E-1,4.047000408E0,9.136950493E0,1.000386556E1
2.280996248E0,4.260000288E-1,4.047000408E0,9.175050735E0,1.003699379E1
2.282959553E0,4.260000288E-1,4.047000408E0,9.175050735E0,1.003699379E1
2.284922758E0,4.639500082E-1,4.047000408E0,9.136950493E0,1.000386556E1
2.286886002E0,4.260000288E-1,4.009050369E0,9.175050735E0,1.002175219E1
2.288849231E0,4.639500082E-1,4.085999966E0,9.175050735E0,1.005446176E1
2.290812464E0,4.639500082E-1,4.047000408E0,9.175050735E0,1.003867610E1
2.292775559E0,4.639500082E-1,4.047000408E0,9.175050735E0,1.003867610E1
2.294738695E0,4.639500082E-1,4.009050369E0,9.175050735E0,1.002343706E1
2.296702085E0,5.020500422E-1,4.009050369E0,9.136950493E0,9.990415578E0
2.298665394E0,4.639500082E-1,4.047000408E0,9.214050293E0,1.007433297E1
2.300628612E0,4.639500082E-1,4.009050369E0,9.175050735E0,1.002343706E1
2.302591857E0,4.639500082E-1,4.009050369E0,9.175050735E0,1.002343706E1
2.304554770E0,4.639500082E-1,3.970950127E0,9.136950493E0,9.973342410E0
2.306517781E0,5.020500422E-1,4.009050369E0,9.214050293E0,1.006097718E1
2.308481188E0,5.020500422E-1,3.970950127E0,9.175050735E0,1.001009766E1
2.310444476E0,5.020500422E-1,3.970950127E0,9.175050735E0,1.001009766E1
2.312407518E0,5.020500422E-1,3.970950127E0,9.175050735E0,1.001009766E1
2.314370632E0,5.020500422E-1,3.970950127E0,9.175050735E0,1.001009766E1
2.316333927E0,5.020500422E-1,3.970950127E0,9.175050735E0,1.001009766E1
2.318297168E0,5.020500422E-1,4.009050369E0,9.214050293E0,1.006097718E1
2.320260324E0,5.020500422E-1,3.970950127E0,9.175050735E0,1.001009766E1
2.322223526E0,5.410500169E-1,3.970950127E0,9.175050735E0,1.001212945E1
2.324186941E0,5.020500422E-1,3.970950127E0,9.214050293E0,1.004585596E1
2.326150293E0,4.639500082E-1,3.931950092E0,9.175050735E0,9.992849300E0
2.328113683E0,4.639500082E-1,3.970950127E0,9.175050735E0,1.000825912E1
2.330077062E0,4.639500082E-1,3.931950092E0,9.136950493E0,9.957878562E0
2.332040319E0,4.639500082E-1,3.970950127E0,9.175050735E0,1.000825912E1
2.334003608E0,5.020500422E-1,3.970950127E0,9.136950493E0,9.975187390E0
2.335966783E0,5.020500422E-1,3.970950127E0,9.136950493E0,9.975187390E0
2.337929992E0,5.020500422E-1,4.009050369E0,9.136950493E0,9.990415578E0
2.339893406E0,5.020500422E-1,4.009050369E0,9.136950493E0,9.990415578E0
2.341856760E0,5.020500422E-1,3.970950127E0,9.175050735E0,1.001009766E1
2.343819985E0,5.020500422E-1,4.009050369E0,9.136950493E0,9.990415578E0
2.345783238E0,4.260000288E-1,4.009050369E0,9.136950493E0,9.986882657E0
2.347746285E0,4.639500082E-1,4.009050369E0,9.098999977E0,9.953870356E0
2.349709392E0,5.020500422E-1,4.009050369E0,9.098999977E0,9.955718944E0
2.351672508E0,4.639500082E-1,4.009050369E0,9.098999977E0,9.953870356E0
2.353635621E0,4.639500082E-1,4.009050369E0,9.136950493E0,9.988573411E0
2.355598876E0,4.639500082E-1,4.009050369E0,9.098999977E0,9.953870356E0
2.357562086E0,4.639500082E-1,4.009050369E0,9.060000420E0,9.918232810E0
2.359525456E0,4.639500082E-1,4.009050369E0,9.060000420E0,9.918232810E0
2.361488779E0,4.260000288E-1,3.970950127E0,9.060000420E0,9.901188239E0
2.363452174E0,4.639500082E-1,4.047000408E0,9.136950493E0,1.000386556E1
2.365415548E0,4.639500082E-1,4.047000408E0,9.136950493E0,1.000386556E1
2.367378786E0,5.020500422E-1,4.009050369E0,9.098999977E0,9.955718944E0
2.369342074E0,5.020500422E-1,4.009050369E0,9.098999977E0,9.955718944E0
2.371305654E0,4.639500082E-1,4.009050369E0,9.098999977E0,9.953870356E0
2.373269149E0,5.020500422E-1,4.009050369E0,9.098999977E0,9.955718944E0
2.375232336E0,5.020500422E-1,4.047000408E0,9.136950493E0,1.000570492E1
2.377195613E0,4.639500082E-1,4.009050369E0,9.136950493E0,9.988573411E0
2.379158790E0,5.410500169E-1,4.009050369E0,9.136950493E0,9.992451366E0
2.381121997E0,5.020500422E-1,4.009050369E0,9.098999977E0,9.955718944E0
2.383085411E0,4.639500082E-1,4.047000408E0,9.136950493E0,1.000386556E1
2.385048765E0,5.410500169E-1,4.047000408E0,9.136950493E0,1.000773759E1
2.387012021E0,5.020500422E-1,4.047000408E0,9.098999977E0,9.971061485E0
2.388975305E0,4.639500082E-1,4.009050369E0,9.175050735E0,1.002343706E1
2.390938670E0,5.020500422E-1,4.009050369E0,9.098999977E0,9.955718944E0
2.392902005E0,5.020500422E-1,4.009050369E0,9.098999977E0,9.955718944E0
2.394865398E0,4.639500082E-1,4.009050369E0,9.136950493E0,9.988573411E0
2.396828774E0,4.639500082E-1,4.009050369E0,9.098999977E0,9.953870356E0
2.398792340E0,5.410500169E-1,4.009050369E0,9.098999977E0,9.957761825E0
2.400755851E0,4.639500082E-1,4.009050369E0,9.098999977E0,9.953870356E0
2.402719246E0,5.020500422E-1,4.009050369E0,9.060000420E0,9.920088040E0
2.404682685E0,4.639500082E-1,3.970950127E0,9.098999977E0,9.938586172E0
2.406646239E0,4.639500082E-1,3.970950127E0,9.136950493E0,9.973342410E0
2.408609760E0,4.639500082E-1,4.047000408E0,9.098999977E0,9.969215741E0
2.410573257E0,4.260000288E-1,4.009050369E0,9.098999977E0,9.952173706E0
2.412536762E0,5.020500422E-1,4.009050369E0,9.060000420E0,9.920088040E0
2.414500365E0,5.020500422E-1,4.047000408E0,9.136950493E0,1.000570492E1
2.416463929E0,4.639500082E-1,4.009050369E0,9.136950493E0,9.988573411E0
2.418427598E0,5.020500422E-1,4.047000408E0,9.098999977E0,9.971061485E0
2.420391236E0,5.020500422E-1,4.009050369E0,9.098999977E0,9.955718944E0
2.422354624E0,4.639500082E-1,4.085999966E0,9.022050858E0,9.915041453E0
2.424318085E0,5.020500422E-1,4.009050369E0,9.060000420E0,9.920088040E0
2.426281396E0,4.639500082E-1,4.047000408E0,9.060000420E0,9.933633249E0
2.428244762E0,4.639500082E-1,4.009050369E0,9.098999977E0,9.953870356E0
2.430208014E0,4.639500082E-1,3.970950127E0,9.060000420E0,9.902893624E0
2.432171300E0,4.639500082E-1,3.970950127E0,9.022050858E0,9.868186064E0
2.434134701E0,5.410500169E-1,4.009050369E0,9.060000420E0,9.922138257E0
2.436098068E0,5.020500422E-1,4.009050369E0,9.060000420E0,9.920088040E0
2.438061437E0,4.639500082E-1,4.047000408E0,9.060000420E0,9.933633249E0
2.440024818E0,5.020500422E-1,4.009050369E0,9.098999977E0,9.955718944E0
2.441988384E0,4.639500082E-1,4.009050369E0,9.060000420E0,9.918232810E0
2.443951895E0,5.410500169E-1,4.047000408E0,9.060000420E0,9.937532643E0
2.445915033E0,4.639500082E-1,4.009050369E0,9.022050858E0,9.883579116E0
2.447878281E0,4.639500082E-1,4.009050369E0,9.022050858E0,9.883579116E0
2.449841692E0,4.260000288E-1,4.009050369E0,9.060000420E0,9.916530063E0
2.451805053E0,4.639500082E-1,4.009050369E0,9.022050858E0,9.883579116E0
2.453768307E0,4.639500082E-1,4.047000408E0,9.060000420E0,9.933633249E0
2.455731593E0,4.639500082E-1,4.009050369E0,9.060000420E0,9.918232810E0
2.457694993E0,4.639500082E-1,4.009050369E0,9.022050858E0,9.883579116E0
2.459658360E0,4.260000288E-1,4.047000408E0,9.060000420E0,9.931933142E0
2.461622104E0,4.260000288E-1,4.009050369E0,9.098999977E0,9.952173706E0
2.463585741E0,4.639500082E-1,4.047000408E0,9.098999977E0,9.969215741E0
2.465549219E0,4.639500082E-1,4.009050369E0,9.060000420E0,9.918232810E0
2.467512743E0,4.639500082E-1,4.047000408E0,9.060000420E0,9.933633249E0
2.469475923E0,4.260000288E-1,4.047000408E0,9.060000420E0,9.931933142E0
2.471439204E0,4.639500082E-1,4.009050369E0,9.098999977E0,9.953870356E0
2.473402601E0,5.020500422E-1,4.047000408E0,9.060000420E0,9.935485602E0
2.475365967E0,4.639500082E-1,4.047000408E0,9.022050858E0,9.899033467E0
2.477328815E0,4.639500082E-1,4.047000408E0,9.060000420E0,9.933633249E0
2.479291815E0,4.639500082E-1,4.009050369E0,9.022050858E0,9.883579116E0
2.481254725E0,4.639500082E-1,4.047000408E0,9.060000420E0,9.933633249E0
2.483217661E0,4.639500082E-1,4.047000408E0,9.136950493E0,1.000386556E1
2.485180611E0,5.020500422E-1,4.047000408E0,9.098999977E0,9.971061485E0
2.487143567E0,4.639500082E-1,4.009050369E0,9.098999977E0,9.953870356E0
2.489106800E0,4.639500082E-1,4.047000408E0,9.136950493E0,1.000386556E1
2.491069952E0,4.639500082E-1,4.047000408E0,9.098999977E0,9.969215741E0
2.493032882E0,4.639500082E-1,4.047000408E0,9.136950493E0,1.000386556E1
2.494995877E0,4.639500082E-1,4.047000408E0,9.136950493E0,1.000386556E1
2.496959297E0,4.639500082E-1,4.009050369E0,9.098999977E0,9.953870356E0
2.498922582E0,4.260000288E-1,4.009050369E0,9.136950493E0,9.986882657E0
2.500885850E0,4.639500082E-1,3.970950127E0,9.136950493E0,9.973342410E0
2.502849123E0,4.639500082E-1,3.970950127E0,9.136950493E0,9.973342410E0
2.504812480E0,4.639500082E-1,4.009050369E0,9.175050735E0,1.002343706E1
2.506775813E0,3.870000243E-1,4.047000408E0,9.175050735E0,1.003541416E1
2.508739086E0,4.639500082E-1,3.970950127E0,9.098999977E0,9.938586172E0
2.510702367E0,5.020500422E-1,4.009050369E0,9.136950493E0,9.990415578E0
2.512665769E0,5.020500422E-1,4.009050369E0,9.136950493E0,9.990415578E0
2.514629135E0,4.639500082E-1,4.009050369E0,9.136950493E0,9.988573411E0
2.516592164E0,3.870000243E-1,4.009050369E0,9.175050735E0,1.002017015E1
2.518555291E0,4.639500082E-1,4.009050369E0,9.175050735E0,1.002343706E1
2.520518345E0,4.260000288E-1,4.009050369E0,9.175050735E0,1.002175219E1
2.522481430E0,5.020500422E-1,3.970950127E0,9.175050735E0,1.001009766E1
2.524445000E0,4.260000288E-1,3.970950127E0,9.136950493E0,9.971649073E0
2.526408428E0,4.639500082E-1,4.009050369E0,9.098999977E0,9.953870356E0
2.528371491E0,5.020500422E-1,3.970950127E0,9.136950493E0,9.975187390E0
2.530334661E0,5.020500422E-1,4.009050369E0,9.175050735E0,1.002527282E1
2.532298071E0,3.870000243E-1,4.047000408E0,9.136950493E0,1.000059226E1
2.534261418E0,4.639500082E-1,4.009050369E0,9.136950493E0,9.988573411E0
2.536224989E0,4.639500082E-1,4.047000408E0,9.098999977E0,9.969215741E0
2.538188495E0,5.020500422E-1,4.009050369E0,9.136950493E0,9.990415578E0
2.540152220E0,4.639500082E-1,4.009050369E0,9.136950493E0,9.988573411E0
2.542115880E0,4.639500082E-1,4.047000408E0,9.136950493E0,1.000386556E1
2.544079218E0,4.260000288E-1,4.047000408E0,9.136950493E0,1.000217739E1
2.546042651E0,4.639500082E-1,4.047000408E0,9.098999977E0,9.969215741E0
2.548006027E0,4.260000288E-1,4.047000408E0,9.136950493E0,1.000217739E1
2.549969420E0,5.020500422E-1,4.009050369E0,9.136950493E0,9.990415578E0
2.551932937E0,4.639500082E-1,4.009050369E0,9.098999977E0,9.953870356E0
2.553896418E0,4.639500082E-1,4.009050369E0,9.098999977E0,9.953870356E0
2.555859588E0,4.639500082E-1,4.009050369E0,9.175050735E0,1.002343706E1
2.557822863E0,3.870000243E-1,4.009050369E0,9.136950493E0,9.985295098E0
2.559786131E0,4.260000288E-1,3.931950092E0,9.136950493E0,9.956182595E0
2.561749401E0,5.020500422E-1,4.009050369E0,9.136950493E0,9.990415578E0
2.563712625E0,4.639500082E-1,4.009050369E0,9.098999977E0,9.953870356E0
2.565675863E0,4.639500082E-1,4.009050369E0,9.098999977E0,9.953870356E0
2.567638732E0,5.020500422E-1,4.009050369E0,9.098999977E0,9.955718944E0
2.569601709E0,4.260000288E-1,4.009050369E0,9.136950493E0,9.986882657E0
2.571565117E0,5.020500422E-1,4.009050369E0,9.098999977E0,9.955718944E0
2.573528399E0,5.020500422E-1,4.009050369E0,9.175050735E0,1.002527282E1
2.575491622E0,5.020500422E-1,4.009050369E0,9.136950493E0,9.990415578E0
2.577454863E0,5.020500422E-1,4.009050369E0,9.098999977E0,9.955718944E0
2.579418306E0,4.639500082E-1,4.009050369E0,9.098999977E0,9.953870356E0
2.581381697E0,4.639500082E-1,4.047000408E0,9.098999977E0,9.969215741E0
2.583345037E0,4.639500082E-1,4.009050369E0,9.098999977E0,9.953870356E0
2.585308392E0,5.020500422E-1,4.009050369E0,9.098999977E0,9.955718944E0
2.587271960E0,4.260000288E-1,4.047000408E0,9.136950493E0,1.000217739E1
2.589235466E0,4.260000288E-1,3.970950127E0,9.175050735E0,1.000657169E1
2.591198530E0,4.639500082E-1,4.009050369E0,9.136950493E0,9.988573411E0
2.593161713E0,4.260000288E-1,4.047000408E0,9.136950493E0,1.000217739E1
2.595124591E0,4.260000288E-1,3.970950127E0,9.136950493E0,9.971649073E0
2.597087559E0,4.639500082E-1,4.047000408E0,9.136950493E0,1.000386556E1
2.599051149E0,4.260000288E-1,4.009050369E0,9.136950493E0,9.986882657E0
2.601014557E0,4.260000288E-1,4.009050369E0,9.136950493E0,9.986882657E0
2.602977925E0,3.870000243E-1,4.009050369E0,9.136950493E0,9.985295098E0
2.604941315E0,3.870000243E-1,4.009050369E0,9.175050735E0,1.002017015E1
2.606904518E0,4.260000288E-1,4.009050369E0,9.214050293E0,1.005746905E1
2.608867776E0,4.639500082E-1,4.085999966E0,9.175050735E0,1.005446176E1
2.610831046E0,3.870000243E-1,4.009050369E0,9.175050735E0,1.002017015E1
2.612794313E0,4.639500082E-1,4.047000408E0,9.175050735E0,1.003867610E1
2.614757907E0,4.260000288E-1,4.009050369E0,9.175050735E0,1.002175219E1
2.616721399E0,4.639500082E-1,4.009050369E0,9.175050735E0,1.002343706E1
2.618684766E0,4.260000288E-1,4.009050369E0,9.175050735E0,1.002175219E1
2.620648170E0,4.639500082E-1,4.047000408E0,9.175050735E0,1.003867610E1
2.622611326E0,4.639500082E-1,4.047000408E0,9.175050735E0,1.003867610E1
2.624574554E0,4.260000288E-1,4.047000408E0,9.214050293E0,1.007265661E1
2.626537985E0,4.260000288E-1,4.047000408E0,9.136950493E0,1.000217739E1
2.628501342E0,4.639500082E-1,3.970950127E0,9.175050735E0,1.000825912E1
2.630464597E0,4.260000288E-1,4.009050369E0,9.098999977E0,9.952173706E0
2.632427882E0,4.260000288E-1,4.009050369E0,9.136950493E0,9.986882657E0
2.634391059E0,3.870000243E-1,4.047000408E0,9.136950493E0,1.000059226E1
2.636354267E0,4.260000288E-1,4.009050369E0,9.098999977E0,9.952173706E0
2.638317559E0,4.260000288E-1,4.047000408E0,9.136950493E0,1.000217739E1
2.640280817E0,4.639500082E-1,4.047000408E0,9.136950493E0,1.000386556E1
2.642244044E0,4.260000288E-1,4.009050369E0,9.136950493E0,9.986882657E0
2.644207281E0,3.870000243E-1,4.009050369E0,9.098999977E0,9.950580609E0
2.646170465E0,4.260000288E-1,4.009050369E0,9.098999977E0,9.952173706E0
2.648133665E0,4.260000288E-1,4.009050369E0,9.098999977E0,9.952173706E0
2.650097340E0,3.490500152E-1,4.009050369E0,9.060000420E0,9.913522501E0
2.652060851E0,4.639500082E-1,4.009050369E0,9.060000420E0,9.918232810E0
2.654024170E0,4.260000288E-1,4.009050369E0,9.060000420E0,9.916530063E0
2.655987546E0,4.260000288E-1,4.047000408E0,9.060000420E0,9.931933142E0
2.657951111E0,4.639500082E-1,4.047000408E0,9.060000420E0,9.933633249E0
2.659914621E0,4.639500082E-1,4.009050369E0,9.060000420E0,9.918232810E0
2.661878368E0,4.639500082E-1,4.009050369E0,9.060000420E0,9.918232810E0
2.663842029E0,4.639500082E-1,4.009050369E0,9.060000420E0,9.918232810E0
2.665805052E0,4.260000288E-1,4.009050369E0,9.098999977E0,9.952173706E0
2.667768262E0,4.639500082E-1,4.009050369E0,9.060000420E0,9.918232810E0
2.669731991E0,5.020500422E-1,4.009050369E0,9.060000420E0,9.920088040E0
2.671695568E0,4.639500082E-1,4.009050369E0,9.060000420E0,9.918232810E0
2.673659154E0,4.639500082E-1,4.009050369E0,9.060000420E0,9.918232810E0
2.675622731E0,4.639500082E-1,4.009050369E0,9.060000420E0,9.918232810E0
2.677585858E0,4.639500082E-1,3.970950127E0,9.022050858E0,9.868186064E0
2.679549117E0,5.020500422E-1,3.970950127E0,8.983950615E0,9.835236032E0
2.681512567E0,5.410500169E-1,4.009050369E0,9.022050858E0,9.887498251E0
2.683475961E0,4.639500082E-1,4.009050369E0,8.983950615E0,9.848812270E0
2.685439346E0,4.639500082E-1,3.970950127E0,9.022050858E0,9.868186064E0
2.687402733E0,4.639500082E-1,4.009050369E0,9.060000420E0,9.918232810E0
2.689366117E0,4.260000288E-1,3.970950127E0,8.983950615E0,9.831647348E0
2.691329502E0,5.410500169E-1,3.970950127E0,9.098999977E0,9.942483624E0
2.693293246E0,5.020500422E-1,3.970950127E0,8.944950104E0,9.799624050E0
2.695256884E0,5.020500422E-1,3.970950127E0,8.983950615E0,9.835236032E0
2.697220426E0,5.410500169E-1,4.009050369E0,8.983950615E0,9.852745233E0
2.699183982E0,5.020500422E-1,4.009050369E0,8.983950615E0,9.850680573E0
2.701147157E0,5.020500422E-1,4.009050369E0,9.060000420E0,9.920088040E0
2.703110444E0,4.260000288E-1,3.970950127E0,9.060000420E0,9.901188239E0
2.705073979E0,5.020500422E-1,3.970950127E0,9.022050858E0,9.870050700E0
2.707037442E0,5.020500422E-1,4.009050369E0,9.098999977E0,9.955718944E0
2.709000874E0,5.020500422E-1,3.970950127E0,9.060000420E0,9.904751726E0
2.710964305E0,4.639500082E-1,4.009050369E0,8.983950615E0,9.848812270E0
2.712927636E0,5.020500422E-1,3.970950127E0,9.022050858E0,9.870050700E0
2.714890997E0,5.020500422E-1,4.009050369E0,9.060000420E0,9.920088040E0
2.716854025E0,4.639500082E-1,3.970950127E0,9.098999977E0,9.938586172E0
2.718817151E0,5.020500422E-1,4.009050369E0,9.060000420E0,9.920088040E0
2.720780425E0,5.410500169E-1,3.970950127E0,9.098999977E0,9.942483624E0
2.722743669E0,5.020500422E-1,4.009050369E0,9.060000420E0,9.920088040E0
2.724707213E0,5.020500422E-1,4.047000408E0,9.136950493E0,1.000570492E1
2.726670669E0,5.410500169E-1,4.009050369E0,9.098999977E0,9.957761825E0
2.728634087E0,5.020500422E-1,4.009050369E0,9.136950493E0,9.990415578E0
2.730597517E0,4.639500082E-1,3.970950127E0,9.098999977E0,9.938586172E0
2.732560879E0,4.639500082E-1,4.009050369E0,9.136950493E0,9.988573411E0
2.734524271E0,4.639500082E-1,4.009050369E0,9.136950493E0,9.988573411E0
2.736487834E0,5.020500422E-1,3.970950127E0,9.098999977E0,9.940437603E0
2.738451346E0,5.410500169E-1,4.009050369E0,9.175050735E0,1.002730153E1
2.740414845E0,5.020500422E-1,3.970950127E0,9.136950493E0,9.975187390E0
2.742378348E0,4.639500082E-1,3.970950127E0,9.136950493E0,9.973342410E0
2.744341911E0,4.260000288E-1,4.047000408E0,9.060000420E0,9.931933142E0
2.746305442E0,4.260000288E-1,3.970950127E0,9.136950493E0,9.971649073E0
2.748268848E0,4.639500082E-1,4.009050369E0,9.136950493E0,9.988573411E0
2.750232290E0,4.639500082E-1,3.970950127E0,9.098999977E0,9.938586172E0
2.752195440E0,4.639500082E-1,4.047000408E0,9.098999977E0,9.969215741E0
2.754158675E0,4.639500082E-1,4.047000408E0,9.098999977E0,9.969215741E0
2.756121589E0,4.260000288E-1,4.009050369E0,9.175050735E0,1.002175219E1
2.758084598E0,4.260000288E-1,4.047000408E0,9.136950493E0,1.000217739E1
2.760048001E0,4.260000288E-1,4.009050369E0,9.098999977E0,9.952173706E0
2.762011288E0,4.260000288E-1,4.009050369E0,9.136950493E0,9.986882657E0
2.763974510E0,4.639500082E-1,4.047000408E0,9.136950493E0,1.000386556E1
2.765937752E0,4.639500082E-1,4.047000408E0,9.175050735E0,1.003867610E1
2.767901345E0,4.639500082E-1,4.009050369E0,9.175050735E0,1.002343706E1
2.769864832E0,5.020500422E-1,4.009050369E0,9.175050735E0,1.002527282E1
2.771828065E0,4.639500082E-1,4.009050369E0,9.175050735E0,1.002343706E1
2.773791372E0,4.260000288E-1,4.009050369E0,9.136950493E0,9.986882657E0
2.775754724E0,3.870000243E-1,4.009050369E0,9.175050735E0,1.002017015E1
2.777718062E0,4.260000288E-1,4.009050369E0,9.214050293E0,1.005746905E1
2.779681635E0,4.639500082E-1,4.009050369E0,9.175050735E0,1.002343706E1
2.781645139E0,5.020500422E-1,4.009050369E0,9.175050735E0,1.002527282E1
2.783608729E0,4.260000288E-1,4.047000408E0,9.175050735E0,1.003699379E1
2.785572293E0,4.639500082E-1,4.047000408E0,9.214050293E0,1.007433297E1
2.787535783E0,5.020500422E-1,4.009050369E0,9.214050293E0,1.006097718E1
2.789499295E0,4.260000288E-1,4.047000408E0,9.214050293E0,1.007265661E1
2.791462537E0,4.260000288E-1,4.047000408E0,9.252000809E0,1.010738380E1
2.793425848E0,4.260000288E-1,4.047000408E0,9.214050293E0,1.007265661E1
2.795389199E0,4.260000288E-1,4.009050369E0,9.175050735E0,1.002175219E1
2.797352538E0,3.870000243E-1,4.047000408E0,9.175050735E0,1.003541416E1
2.799315930E0,3.870000243E-1,4.009050369E0,9.136950493E0,9.985295098E0
2.801279307E0,3.870000243E-1,4.047000408E0,9.098999977E0,9.965931061E0
2.803242734E0,3.870000243E-1,4.047000408E0,9.136950493E0,1.000059226E1
2.805206149E0,4.260000288E-1,4.047000408E0,9.175050735E0,1.003699379E1
2.807169350E0,4.260000288E-1,4.047000408E0,9.175050735E0,1.003699379E1
2.809132613E0,3.870000243E-1,4.047000408E0,9.214050293E0,1.007108257E1
2.811095793E0,4.260000288E-1,4.009050369E0,9.175050735E0,1.002175219E1
2.813058998E0,5.020500422E-1,4.047000408E0,9.175050735E0,1.004050908E1
2.815021922E0,5.020500422E-1,3.970950127E0,9.136950493E0,9.975187390E0
2.816984925E0,4.260000288E-1,3.970950127E0,9.175050735E0,1.000657169E1
2.818948148E0,4.639500082E-1,4.047000408E0,9.175050735E0,1.003867610E1
2.820911307E0,4.639500082E-1,4.009050369E0,9.136950493E0,9.988573411E0
2.822874731E0,5.020500422E-1,3.970950127E0,9.175050735E0,1.001009766E1
2.824838077E0,4.639500082E-1,4.009050369E0,9.175050735E0,1.002343706E1
2.826801468E0,4.639500082E-1,4.009050369E0,9.136950493E0,9.988573411E0
2.828764846E0,4.639500082E-1,4.009050369E0,9.175050735E0,1.002343706E1
2.830728277E0,4.639500082E-1,3.970950127E0,9.175050735E0,1.000825912E1
2.832691692E0,4.639500082E-1,4.009050369E0,9.136950493E0,9.988573411E0
2.834654892E0,4.260000288E-1,4.047000408E0,9.175050735E0,1.003699379E1
2.836618155E0,4.639500082E-1,4.009050369E0,9.136950493E0,9.988573411E0
2.838581347E0,4.639500082E-1,4.047000408E0,9.175050735E0,1.003867610E1
2.840544584E0,4.260000288E-1,4.009050369E0,9.136950493E0,9.986882657E0
2.842508128E0,4.639500082E-1,3.970950127E0,9.098999977E0,9.938586172E0
2.844471582E0,4.260000288E-1,4.009050369E0,9.098999977E0,9.952173706E0
2.846434641E0,4.260000288E-1,4.009050369E0,9.136950493E0,9.986882657E0
2.848397815E0,4.639500082E-1,4.009050369E0,9.098999977E0,9.953870356E0
2.850361004E0,4.260000288E-1,4.009050369E0,9.175050735E0,1.002175219E1
2.852324192E0,4.639500082E-1,4.047000408E0,9.136950493E0,1.000386556E1
2.854287430E0,5.020500422E-1,3.970950127E0,9.060000420E0,9.904751726E0
2.856250654E0,5.020500422E-1,4.009050369E0,9.136950493E0,9.990415578E0
2.858213886E0,4.260000288E-1,3.970950127E0,9.136950493E0,9.971649073E0
2.860177116E0,5.020500422E-1,4.009050369E0,9.098999977E0,9.955718944E0
2.862140352E0,5.020500422E-1,4.009050369E0,9.098999977E0,9.955718944E0
2.864103582E0,4.639500082E-1,4.009050369E0,9.098999977E0,9.953870356E0
2.866066858E0,5.410500169E-1,3.970950127E0,9.098999977E0,9.942483624E0
2.868030121E0,4.639500082E-1,4.009050369E0,9.060000420E0,9.918232810E0
2.869993347E0,5.020500422E-1,3.970950127E0,9.136950493E0,9.975187390E0
2.871956584E0,5.410500169E-1,3.970950127E0,9.060000420E0,9.906805117E0
2.873920354E0,5.020500422E-1,3.970950127E0,9.060000420E0,9.904751726E0
2.875883967E0,5.020500422E-1,4.047000408E0,9.098999977E0,9.971061485E0
2.877847494E0,5.790000558E-1,4.009050369E0,9.098999977E0,9.959895909E0
2.879811046E0,5.410500169E-1,4.009050369E0,9.060000420E0,9.922138257E0
2.881774357E0,5.410500169E-1,4.009050369E0,9.060000420E0,9.922138257E0
2.883737738E0,5.020500422E-1,4.009050369E0,9.098999977E0,9.955718944E0
2.885701542E0,5.020500422E-1,4.009050369E0,9.060000420E0,9.920088040E0
2.887665212E0,5.410500169E-1,4.047000408E0,9.098999977E0,9.973101223E0
2.889628549E0,5.020500422E-1,4.009050369E0,9.022050858E0,9.885440849E0
2.891591983E0,5.410500169E-1,4.009050369E0,9.098999977E0,9.957761825E0
2.893555359E0,5.410500169E-1,3.970950127E0,9.060000420E0,9.906805117E0
2.895518752E0,5.410500169E-1,4.085999966E0,9.060000420E0,9.953478711E0
2.897482295E0,5.020500422E-1,4.047000408E0,9.060000420E0,9.935485602E0
2.899445808E0,5.020500422E-1,4.009050369E0,9.060000420E0,9.920088040E0
2.901409531E0,5.020500422E-1,4.047000408E0,9.022050858E0,9.900892294E0
2.903373193E0,5.410500169E-1,4.009050369E0,9.098999977E0,9.957761825E0
2.905336666E0,5.020500422E-1,4.009050369E0,9.060000420E0,9.920088040E0
2.907300195E0,4.639500082E-1,4.009050369E0,9.060000420E0,9.918232810E0
2.909263629E0,5.020500422E-1,4.009050369E0,9.022050858E0,9.885440849E0
2.911227070E0,5.020500422E-1,4.047000408E0,9.022050858E0,9.900892294E0
2.913190445E0,5.020500422E-1,3.970950127E0,9.060000420E0,9.904751726E0
2.915153839E0,5.020500422E-1,4.009050369E0,9.060000420E0,9.920088040E0
2.917117537E0,5.020500422E-1,3.970950127E0,9.060000420E0,9.904751726E0
2.919081145E0,4.260000288E-1,4.009050369E0,9.022050858E0,9.881870398E0
2.921044723E0,4.639500082E-1,4.047000408E0,9.060000420E0,9.933633249E0
2.923008306E0,5.410500169E-1,4.009050369E0,9.060000420E0,9.922138257E0
2.924971611E0,4.639500082E-1,3.970950127E0,9.098999977E0,9.938586172E0
2.926934998E0,5.020500422E-1,4.009050369E0,9.098999977E0,9.955718944E0
2.928898426E0,5.020500422E-1,4.047000408E0,9.060000420E0,9.935485602E0
2.930861842E0,4.639500082E-1,4.009050369E0,9.060000420E0,9.918232810E0
2.932825546E0,4.639500082E-1,4.009050369E0,9.098999977E0,9.953870356E0
2.934789159E0,5.410500169E-1,4.047000408E0,9.136950493E0,1.000773759E1
2.936752370E0,5.020500422E-1,4.009050369E0,9.098999977E0,9.955718944E0
2.938715699E0,4.639500082E-1,4.009050369E0,9.098999977E0,9.953870356E0
2.940679272E0,4.639500082E-1,3.970950127E0,9.098999977E0,9.938586172E0
2.942642774E0,4.260000288E-1,4.009050369E0,9.098999977E0,9.952173706E0
2.944606130E0,4.639500082E-1,4.009050369E0,9.136950493E0,9.988573411E0
2.946569536E0,5.020500422E-1,4.047000408E0,9.098999977E0,9.971061485E0
2.948533051E0,4.639500082E-1,4.009050369E0,9.136950493E0,9.988573411E0
2.950496534E0,5.020500422E-1,4.009050369E0,9.136950493E0,9.990415578E0
2.952459948E0,5.020500422E-1,3.970950127E0,9.136950493E0,9.975187390E0
2.954423383E0,5.020500422E-1,3.970950127E0,9.098999977E0,9.940437603E0
2.956386773E0,4.639500082E-1,4.009050369E0,9.136950493E0,9.988573411E0
2.958350166E0,5.020500422E-1,4.009050369E0,9.136950493E0,9.990415578E0
2.960313683E0,5.410500169E-1,4.009050369E0,9.136950493E0,9.992451366E0
2.962277164E0,5.020500422E-1,4.047000408E0,9.136950493E0,1.000570492E1
2.964240578E0,4.639500082E-1,4.009050369E0,9.175050735E0,1.002343706E1
2.966204012E0,5.020500422E-1,4.009050369E0,9.136950493E0,9.990415578E0
2.968167527E0,4.639500082E-1,4.047000408E0,9.136950493E0,1.000386556E1
2.970131015E0,5.020500422E-1,4.009050369E0,9.098999977E0,9.955718944E0
2.972094607E0,4.639500082E-1,4.047000408E0,9.098999977E0,9.969215741E0
2.974058169E0,4.260000288E-1,4.047000408E0,9.098999977E0,9.967521704E0
2.976021659E0,4.260000288E-1,4.009050369E0,9.098999977E0,9.952173706E0
2.977985171E0,4.639500082E-1,4.009050369E0,9.060000420E0,9.918232810E0
2.979948743E0,4.260000288E-1,4.009050369E0,9.098999977E0,9.952173706E0
2.981912308E0,4.639500082E-1,4.047000408E0,9.136950493E0,1.000386556E1
2.983875977E0,3.870000243E-1,4.009050369E0,9.136950493E0,9.985295098E0
2.985839615E0,4.639500082E-1,4.009050369E0,9.098999977E0,9.953870356E0
2.987803003E0,3.490500152E-1,4.009050369E0,9.136950493E0,9.983896288E0
2.989766464E0,4.639500082E-1,4.047000408E0,9.136950493E0,1.000386556E1
2.991729970E0,4.639500082E-1,3.970950127E0,9.136950493E0,9.973342410E0
2.993693462E0,5.020500422E-1,4.047000408E0,9.136950493E0,1.000570492E1
2.995656874E0,5.020500422E-1,4.047000408E0,9.136950493E0,1.000570492E1
2.997620310E0,4.639500082E-1,4.009050369E0,9.136950493E0,9.988573411E0
2.999584045E0,5.020500422E-1,4.009050369E0,9.175050735E0,1.002527282E1
3.001547692E0,4.639500082E-1,3.970950127E0,9.175050735E0,1.000825912E1
3.003511378E0,4.260000288E-1,3.970950127E0,9.098999977E0,9.936886913E0
3.005475063E0,4.639500082E-1,3.970950127E0,9.136950493E0,9.973342410E0
3.007438577E0,5.020500422E-1,3.970950127E0,9.175050735E0,1.001009766E1
3.009402142E0,4.639500082E-1,3.931950092E0,9.175050735E0,9.992849300E0
3.011365631E0,4.639500082E-1,3.970950127E0,9.175050735E0,1.000825912E1
3.013329142E0,4.260000288E-1,3.970950127E0,9.214050293E0,1.004234254E1
3.015292502E0,4.639500082E-1,4.047000408E0,9.175050735E0,1.003867610E1
3.017255940E0,4.639500082E-1,3.970950127E0,9.175050735E0,1.000825912E1
3.019219315E0,5.020500422E-1,4.009050369E0,9.175050735E0,1.002527282E1
3.021182709E0,4.260000288E-1,4.009050369E0,9.214050293E0,1.005746905E1
3.023145912E0,5.020500422E-1,4.009050369E0,9.214050293E0,1.006097718E1
3.025109171E0,4.260000288E-1,4.009050369E0,9.136950493E0,9.986882657E0
3.027072411E0,4.260000288E-1,4.009050369E0,9.136950493E0,9.986882657E0
3.029035646E0,4.639500082E-1,4.047000408E0,9.214050293E0,1.007433297E1
3.030998831E0,4.639500082E-1,4.009050369E0,9.175050735E0,1.002343706E1
3.032962031E0,3.870000243E-1,4.047000408E0,9.136950493E0,1.000059226E1
3.034925446E0,3.870000243E-1,4.085999966E0,9.136950493E0,1.001643794E1
3.036888798E0,3.870000243E-1,4.047000408E0,9.136950493E0,1.000059226E1
3.038852364E0,3.870000243E-1,4.009050369E0,9.098999977E0,9.950580609E0
3.040815870E0,3.870000243E-1,3.970950127E0,9.098999977E0,9.935291365E0
3.042779280E0,4.260000288E-1,4.009050369E0,9.060000420E0,9.916530063E0
3.044742718E0,4.260000288E-1,4.085999966E0,9.098999977E0,9.983419871E0
3.046706094E0,4.260000288E-1,4.047000408E0,8.983950615E0,9.862609035E0
3.048669488E0,3.490500152E-1,4.047000408E0,9.060000420E0,9.928930246E0
3.050632821E0,4.260000288E-1,4.047000408E0,9.022050858E0,9.897327417E0
3.052596175E0,4.260000288E-1,4.009050369E0,9.098999977E0,9.952173706E0
3.054559249E0,4.260000288E-1,4.009050369E0,9.060000420E0,9.916530063E0
3.056522406E0,4.260000288E-1,3.970950127E0,9.022050858E0,9.866474680E0
3.058486009E0,4.260000288E-1,4.009050369E0,9.022050858E0,9.881870398E0
3.060449481E0,4.260000288E-1,4.047000408E0,9.060000420E0,9.931933142E0
3.062412787E0,4.639500082E-1,4.009050369E0,9.022050858E0,9.883579116E0
3.064376156E0,4.639500082E-1,4.009050369E0,9.022050858E0,9.883579116E0
3.066339363E0,4.639500082E-1,3.970950127E0,9.060000420E0,9.902893624E0
3.068302618E0,5.410500169E-1,4.009050369E0,9.098999977E0,9.957761825E0
3.070266203E0,5.020500422E-1,4.009050369E0,9.098999977E0,9.955718944E0
3.072229692E0,5.020500422E-1,3.970950127E0,9.060000420E0,9.904751726E0
3.074193460E0,5.020500422E-1,4.009050369E0,9.098999977E0,9.955718944E0
3.076157149E0,5.410500169E-1,3.970950127E0,9.060000420E0,9.906805117E0
3.078120482E0,5.410500169E-1,3.970950127E0,9.060000420E0,9.906805117E0
3.080083920E0,5.410500169E-1,4.009050369E0,9.098999977E0,9.957761825E0
3.082047610E0,5.020500422E-1,4.009050369E0,9.060000420E0,9.920088040E0
3.084011226E0,4.639500082E-1,4.009050369E0,9.098999977E0,9.953870356E0
3.085974591E0,5.020500422E-1,4.009050369E0,9.022050858E0,9.885440849E0
3.087938016E0,4.639500082E-1,4.047000408E0,9.060000420E0,9.933633249E0
3.089901753E0,5.410500169E-1,4.047000408E0,9.060000420E0,9.937532643E0
3.091865399E0,5.020500422E-1,3.970950127E0,9.098999977E0,9.940437603E0
3.093828785E0,4.639500082E-1,4.085999966E0,9.098999977E0,9.985111212E0
3.095792247E0,4.639500082E-1,4.047000408E0,9.060000420E0,9.933633249E0
3.097755743E0,4.639500082E-1,4.009050369E0,9.098999977E0,9.953870356E0
3.099719236E0,4.639500082E-1,4.085999966E0,9.098999977E0,9.985111212E0
3.101682648E0,4.260000288E-1,4.047000408E0,9.060000420E0,9.931933142E0
3.103646084E0,5.020500422E-1,4.047000408E0,9.136950493E0,1.000570492E1
3.105609460E0,5.020500422E-1,4.047000408E0,9.060000420E0,9.935485602E0
3.107572853E0,4.639500082E-1,4.047000408E0,9.136950493E0,1.000386556E1
3.109536181E0,5.020500422E-1,4.085999966E0,9.098999977E0,9.986954018E0
3.111499536E0,4.260000288E-1,4.085999966E0,9.098999977E0,9.983419871E0
3.113462745E0,5.020500422E-1,4.085999966E0,9.136950493E0,1.002154251E1
3.115425997E0,5.020500422E-1,4.085999966E0,9.136950493E0,1.002154251E1
3.117389764E0,4.260000288E-1,4.085999966E0,9.098999977E0,9.983419871E0
3.119353380E0,4.260000288E-1,4.047000408E0,9.098999977E0,9.967521704E0
3.121316781E0,4.639500082E-1,4.047000408E0,9.136950493E0,1.000386556E1
3.123280238E0,4.260000288E-1,4.047000408E0,9.098999977E0,9.967521704E0
3.125243789E0,4.639500082E-1,4.085999966E0,9.136950493E0,1.001970607E1
3.127207313E0,4.260000288E-1,4.047000408E0,9.136950493E0,1.000217739E1
3.129170810E0,4.260000288E-1,4.047000408E0,9.175050735E0,1.003699379E1
3.131134315E0,4.260000288E-1,4.085999966E0,9.136950493E0,1.001802057E1
3.133097872E0,4.639500082E-1,4.047000408E0,9.136950493E0,1.000386556E1
3.135061404E0,5.020500422E-1,4.047000408E0,9.214050293E0,1.007615945E1
3.137025124E0,4.639500082E-1,4.085999966E0,9.214050293E0,1.009006284E1
3.138988789E0,4.260000288E-1,4.047000408E0,9.252000809E0,1.010738380E1
3.140952306E0,5.020500422E-1,4.047000408E0,9.214050293E0,1.007615945E1
3.142915867E0,4.260000288E-1,4.047000408E0,9.214050293E0,1.007265661E1
3.144880103E0,4.639500082E-1,4.009050369E0,9.252000809E0,1.009392161E1
3.146844154E0,5.790000558E-1,4.009050369E0,9.214050293E0,1.006511047E1
3.148807110E0,4.639500082E-1,4.047000408E0,9.252000809E0,1.010905440E1
3.150770387E0,4.260000288E-1,4.009050369E0,9.214050293E0,1.005746905E1
3.152733924E0,5.020500422E-1,3.970950127E0,9.252000809E0,1.008067548E1
3.154697385E0,5.020500422E-1,3.970950127E0,9.252000809E0,1.008067548E1
3.156660812E0,5.020500422E-1,4.009050369E0,9.252000809E0,1.009574455E1
3.158624242E0,4.260000288E-1,4.009050369E0,9.252000809E0,1.009224850E1
3.160587933E0,4.639500082E-1,4.009050369E0,9.175050735E0,1.002343706E1
3.162551548E0,5.020500422E-1,4.009050369E0,9.175050735E0,1.002527282E1
3.164515434E0,5.410500169E-1,4.009050369E0,9.289950371E0,1.013254153E1
3.166479240E0,5.020500422E-1,4.009050369E0,9.175050735E0,1.002527282E1
3.168442714E0,5.020500422E-1,3.970950127E0,9.175050735E0,1.001009766E1
3.170406299E0,5.020500422E-1,4.009050369E0,9.214050293E0,1.006097718E1
3.172369829E0,5.020500422E-1,3.931950092E0,9.214050293E0,1.003050390E1
3.174333376E0,5.020500422E-1,3.931950092E0,9.214050293E0,1.003050390E1
3.176296553E0,5.410500169E-1,3.970950127E0,9.136950493E0,9.977226285E0
3.178259838E0,5.020500422E-1,3.970950127E0,9.098999977E0,9.940437603E0
3.180223284E0,5.020500422E-1,3.970950127E0,9.136950493E0,9.975187390E0
3.182186682E0,5.020500422E-1,3.931950092E0,9.136950493E0,9.959726406E0
3.184150065E0,5.020500422E-1,3.970950127E0,9.098999977E0,9.940437603E0
3.186113453E0,5.020500422E-1,3.970950127E0,9.136950493E0,9.975187390E0
3.188076612E0,5.410500169E-1,3.970950127E0,9.175050735E0,1.001212945E1
3.190039838E0,5.410500169E-1,3.970950127E0,9.098999977E0,9.942483624E0
3.192003123E0,5.410500169E-1,4.009050369E0,9.098999977E0,9.957761825E0
3.193966384E0,5.410500169E-1,3.931950092E0,9.060000420E0,9.891237246E0
3.195929925E0,5.410500169E-1,3.970950127E0,9.175050735E0,1.001212945E1
3.197893384E0,5.020500422E-1,4.009050369E0,9.136950493E0,9.990415578E0
3.199856936E0,5.790000558E-1,3.970950127E0,9.175050735E0,1.001425194E1
3.201820461E0,5.410500169E-1,3.931950092E0,9.136950493E0,9.961768465E0
3.203784797E0,5.410500169E-1,3.970950127E0,9.136950493E0,9.977226285E0
3.205748875E0,5.790000558E-1,3.970950127E0,9.136950493E0,9.979356206E0
3.207711781E0,5.410500169E-1,3.970950127E0,9.175050735E0,1.001212945E1
3.209675030E0,5.410500169E-1,3.970950127E0,9.136950493E0,9.977226285E0
3.211638752E0,5.790000558E-1,3.931950092E0,9.098999977E0,9.929112406E0
3.213602336E0,5.410500169E-1,3.970950127E0,9.098999977E0,9.942483624E0
3.215566457E0,6.169500351E-1,3.970950127E0,9.098999977E0,9.946902676E0
3.217530417E0,6.169500351E-1,3.970950127E0,9.098999977E0,9.946902676E0
3.219493118E0,5.410500169E-1,3.970950127E0,9.060000420E0,9.906805117E0
3.221456188E0,5.020500422E-1,3.931950092E0,9.098999977E0,9.924922486E0
3.223419851E0,5.410500169E-1,3.931950092E0,9.098999977E0,9.926971705E0
3.225383340E0,5.020500422E-1,4.009050369E0,9.022050858E0,9.885440849E0
3.227346873E0,5.410500169E-1,3.970950127E0,9.098999977E0,9.942483624E0
3.229310403E0,5.020500422E-1,4.009050369E0,9.136950493E0,9.990415578E0
3.231273764E0,5.410500169E-1,4.009050369E0,9.098999977E0,9.957761825E0
3.233237174E0,4.639500082E-1,4.009050369E0,9.060000420E0,9.918232810E0
3.235200555E0,4.639500082E-1,4.009050369E0,9.098999977E0,9.953870356E0
3.237163944E0,5.020500422E-1,3.970950127E0,9.136950493E0,9.975187390E0
3.239127328E0,4.639500082E-1,3.970950127E0,9.098999977E0,9.938586172E0
3.241090713E0,5.020500422E-1,4.047000408E0,9.136950493E0,1.000570492E1
3.243053917E0,4.260000288E-1,3.970950127E0,9.136950493E0,9.971649073E0
3.245017174E0,5.020500422E-1,4.009050369E0,9.098999977E0,9.955718944E0
3.246980400E0,4.639500082E-1,4.009050369E0,9.098999977E0,9.953870356E0
3.248943636E0,4.639500082E-1,4.009050369E0,9.060000420E0,9.918232810E0
3.250906894E0,4.639500082E-1,4.009050369E0,9.060000420E0,9.918232810E0
3.252870126E0,4.639500082E-1,4.047000408E0,9.098999977E0,9.969215741E0
3.254833536E0,4.639500082E-1,4.047000408E0,9.136950493E0,1.000386556E1
3.256796894E0,5.410500169E-1,4.085999966E0,9.060000420E0,9.953478711E0
3.258760418E0,4.260000288E-1,4.085999966E0,9.060000420E0,9.947888185E0
3.260723894E0,5.020500422E-1,4.047000408E0,9.098999977E0,9.971061485E0
3.262687280E0,5.020500422E-1,4.009050369E0,9.136950493E0,9.990415578E0
3.264650713E0,5.020500422E-1,4.085999966E0,9.098999977E0,9.986954018E0
3.266614269E0,5.020500422E-1,4.047000408E0,9.136950493E0,1.000570492E1
3.268577788E0,4.639500082E-1,4.047000408E0,9.175050735E0,1.003867610E1
3.270540925E0,4.639500082E-1,4.047000408E0,9.136950493E0,1.000386556E1
3.272504174E0,4.260000288E-1,4.085999966E0,9.175050735E0,1.005278209E1
3.274467611E0,4.639500082E-1,4.085999966E0,9.136950493E0,1.001970607E1
3.276431004E0,4.639500082E-1,4.123950005E0,9.098999977E0,1.000070067E1
3.278394388E0,4.639500082E-1,4.047000408E0,9.098999977E0,9.969215741E0
3.280357775E0,4.260000288E-1,4.085999966E0,9.098999977E0,9.983419871E0
3.282321159E0,4.260000288E-1,4.085999966E0,9.098999977E0,9.983419871E0
3.284284544E0,4.639500082E-1,4.047000408E0,9.098999977E0,9.969215741E0
3.286248044E0,4.260000288E-1,4.047000408E0,9.098999977E0,9.967521704E0
3.288211523E0,4.639500082E-1,4.085999966E0,9.098999977E0,9.985111212E0
3.290174577E0,4.260000288E-1,4.047000408E0,9.060000420E0,9.931933142E0
3.292137756E0,4.639500082E-1,4.047000408E0,9.098999977E0,9.969215741E0
3.294101175E0,4.260000288E-1,4.047000408E0,9.060000420E0,9.931933142E0
3.296064523E0,4.639500082E-1,4.047000408E0,9.136950493E0,1.000386556E1
3.298027899E0,4.260000288E-1,4.047000408E0,9.098999977E0,9.967521704E0
3.299991246E0,4.639500082E-1,4.047000408E0,9.136950493E0,1.000386556E1
3.301954636E0,4.639500082E-1,4.047000408E0,9.098999977E0,9.969215741E0
3.303918014E0,4.639500082E-1,4.009050369E0,9.098999977E0,9.953870356E0
3.305880905E0,4.639500082E-1,4.047000408E0,9.098999977E0,9.969215741E0
3.307843939E0,5.020500422E-1,4.047000408E0,9.098999977E0,9.971061485E0
3.309807513E0,4.260000288E-1,4.009050369E0,9.136950493E0,9.986882657E0
3.311770932E0,4.260000288E-1,4.047000408E0,9.136950493E0,1.000217739E1
3.313734356E0,4.639500082E-1,4.047000408E0,9.136950493E0,1.000386556E1
3.315697778E0,4.639500082E-1,4.047000408E0,9.175050735E0,1.003867610E1
3.317661157E0,4.639500082E-1,4.047000408E0,9.098999977E0,9.969215741E0
3.319624549E0,4.260000288E-1,4.047000408E0,9.136950493E0,1.000217739E1
3.321588061E0,4.639500082E-1,4.047000408E0,9.136950493E0,1.000386556E1
3.323551542E0,4.260000288E-1,4.009050369E0,9.136950493E0,9.986882657E0
3.325514956E0,4.260000288E-1,4.009050369E0,9.136950493E0,9.986882657E0
3.327478390E0,4.260000288E-1,4.009050369E0,9.136950493E0,9.986882657E0
3.329441945E0,5.020500422E-1,4.009050369E0,9.098999977E0,9.955718944E0
3.331405465E0,4.639500082E-1,4.009050369E0,9.136950493E0,9.988573411E0
3.333369012E0,4.639500082E-1,4.009050369E0,9.098999977E0,9.953870356E0
3.335332547E0,4.260000288E-1,4.047000408E0,9.136950493E0,1.000217739E1
