"Time (s)","Acceleration x (m/s^2)","Acceleration y (m/s^2)","Acceleration z (m/s^2)","Absolute acceleration (m/s^2)"
3.222557600E-2,1.570500135E-1,2.092950106E0,9.750000000E0,9.973344717E0
3.418705500E-2,1.570500135E-1,2.092950106E0,9.750000000E0,9.973344717E0
3.615111400E-2,1.570500135E-1,2.092950106E0,9.750000000E0,9.973344717E0
3.811366200E-2,1.570500135E-1,2.092950106E0,9.750000000E0,9.973344717E0
4.007665300E-2,1.570500135E-1,2.092950106E0,9.787950516E0,1.001044855E1
4.203918500E-2,1.570500135E-1,2.131050110E0,9.750000000E0,9.981409684E0
4.400186500E-2,1.570500135E-1,2.053950071E0,9.787950516E0,1.000236726E1
4.596464800E-2,1.570500135E-1,2.092950106E0,9.787950516E0,1.001044855E1
4.792740100E-2,1.570500135E-1,2.092950106E0,9.787950516E0,1.001044855E1
4.989039800E-2,1.960500032E-1,2.131050110E0,9.787950516E0,1.001917090E1
5.185332400E-2,2.340000123E-1,2.092950106E0,9.826950073E0,1.005008179E1
5.381618700E-2,1.960500032E-1,2.092950106E0,9.826950073E0,1.004926980E1
5.577908000E-2,2.340000123E-1,2.131050110E0,9.787950516E0,1.001998532E1
5.774205200E-2,2.340000123E-1,2.053950071E0,9.750000000E0,9.966743044E0
5.970500100E-2,2.340000123E-1,2.092950106E0,9.750000000E0,9.974853189E0
6.166805500E-2,2.340000123E-1,2.053950071E0,9.787950516E0,1.000387136E1
6.363107800E-2,2.340000123E-1,2.092950106E0,9.712050438E0,9.937762317E0
6.559381100E-2,1.960500032E-1,2.053950071E0,9.750000000E0,9.965924267E0
6.755665700E-2,1.960500032E-1,2.053950071E0,9.712050438E0,9.928800039E0
6.951941300E-2,1.960500032E-1,2.053950071E0,9.712050438E0,9.928800039E0
7.148219500E-2,1.960500032E-1,2.092950106E0,9.673050880E0,9.898827662E0
7.344496200E-2,1.960500032E-1,2.092950106E0,9.634950638E0,9.861599746E0
7.540773400E-2,1.960500032E-1,2.092950106E0,9.712050438E0,9.936941152E0
7.737079700E-2,2.340000123E-1,2.131050110E0,9.673050880E0,9.907776941E0
7.933378900E-2,2.340000123E-1,2.092950106E0,9.634950638E0,9.862427183E0
8.129670100E-2,1.960500032E-1,2.131050110E0,9.634950638E0,9.869756024E0
8.325963700E-2,1.960500032E-1,2.092950106E0,9.673050880E0,9.898827662E0
8.522260200E-2,1.960500032E-1,2.053950071E0,9.673050880E0,9.890655177E0
8.718555800E-2,1.960500032E-1,2.053950071E0,9.597000122E0,9.816290432E0
8.914877200E-2,1.960500032E-1,2.092950106E0,9.673050880E0,9.898827662E0
9.111192300E-2,1.960500032E-1,2.131050110E0,9.634950638E0,9.869756024E0
9.307503300E-2,1.570500135E-1,2.131050110E0,9.597000122E0,9.832011525E0
9.503815600E-2,1.570500135E-1,2.092950106E0,9.634950638E0,9.860901513E0
9.700140400E-2,1.570500135E-1,2.092950106E0,9.634950638E0,9.860901513E0
9.896461600E-2,1.570500135E-1,2.053950071E0,9.634950638E0,9.852697569E0
1.009277670E-1,1.570500135E-1,2.092950106E0,9.673050880E0,9.898132055E0
1.028909630E-1,1.960500032E-1,2.131050110E0,9.597000122E0,9.832711809E0
1.048537040E-1,1.570500135E-1,2.092950106E0,9.634950638E0,9.860901513E0
1.068165790E-1,1.960500032E-1,2.092950106E0,9.634950638E0,9.861599746E0
1.087794640E-1,1.570500135E-1,2.092950106E0,9.634950638E0,9.860901513E0
1.107423460E-1,1.960500032E-1,2.131050110E0,9.597000122E0,9.832711809E0
1.127051470E-1,1.570500135E-1,2.092950106E0,9.597000122E0,9.823823909E0
1.146679680E-1,1.960500032E-1,2.092950106E0,9.634950638E0,9.861599746E0
1.166310430E-1,1.960500032E-1,2.092950106E0,9.634950638E0,9.861599746E0
1.185940430E-1,1.960500032E-1,2.131050110E0,9.597000122E0,9.832711809E0
1.205569990E-1,1.960500032E-1,2.131050110E0,9.597000122E0,9.832711809E0
1.225199680E-1,1.960500032E-1,2.092950106E0,9.597000122E0,9.824524777E0
1.244828240E-1,1.570500135E-1,2.131050110E0,9.673050880E0,9.906258255E0
1.264457230E-1,1.570500135E-1,2.131050110E0,9.712050438E0,9.944343266E0
1.284088750E-1,1.570500135E-1,2.092950106E0,9.712050438E0,9.936248214E0
1.303719520E-1,1.570500135E-1,2.092950106E0,9.750000000E0,9.973344717E0
1.323349840E-1,1.570500135E-1,2.092950106E0,9.750000000E0,9.973344717E0
1.342980300E-1,1.960500032E-1,2.092950106E0,9.712050438E0,9.936941152E0
1.362609830E-1,1.570500135E-1,2.092950106E0,9.787950516E0,1.001044855E1
1.382239590E-1,1.960500032E-1,2.092950106E0,9.750000000E0,9.974035079E0
1.401871870E-1,1.570500135E-1,2.092950106E0,9.787950516E0,1.001044855E1
1.421503410E-1,1.570500135E-1,2.092950106E0,9.826950073E0,1.004858461E1
1.441132710E-1,1.570500135E-1,2.131050110E0,9.787950516E0,1.001848365E1
1.460762660E-1,1.960500032E-1,2.092950106E0,9.750000000E0,9.974035079E0
1.480391720E-1,1.570500135E-1,2.131050110E0,9.750000000E0,9.981409684E0
1.500021070E-1,1.570500135E-1,2.092950106E0,9.750000000E0,9.973344717E0
1.519649830E-1,1.960500032E-1,2.131050110E0,9.750000000E0,9.982099487E0
1.539278770E-1,1.570500135E-1,2.131050110E0,9.787950516E0,1.001848365E1
1.558908490E-1,1.960500032E-1,2.092950106E0,9.750000000E0,9.974035079E0
1.578537980E-1,1.570500135E-1,2.053950071E0,9.826950073E0,1.004053402E1
1.598168470E-1,1.960500032E-1,2.092950106E0,9.787950516E0,1.001113635E1
1.617798700E-1,1.570500135E-1,2.131050110E0,9.787950516E0,1.001848365E1
1.637431810E-1,1.189500093E-1,2.092950106E0,9.750000000E0,9.972817518E0
1.657064080E-1,1.960500032E-1,2.092950106E0,9.750000000E0,9.974035079E0
1.676692800E-1,1.570500135E-1,2.131050110E0,9.750000000E0,9.981409684E0
1.696322560E-1,1.570500135E-1,2.131050110E0,9.787950516E0,1.001848365E1
1.715954610E-1,1.960500032E-1,2.131050110E0,9.712050438E0,9.945035640E0
1.735586150E-1,1.570500135E-1,2.131050110E0,9.750000000E0,9.981409684E0
1.755214990E-1,1.189500093E-1,2.131050110E0,9.712050438E0,9.943814529E0
1.774844630E-1,1.570500135E-1,2.131050110E0,9.712050438E0,9.944343266E0
1.794474240E-1,1.570500135E-1,2.169000149E0,9.750000000E0,9.989580890E0
1.814103860E-1,1.570500135E-1,2.131050110E0,9.712050438E0,9.944343266E0
1.833732570E-1,1.570500135E-1,2.131050110E0,9.750000000E0,9.981409684E0
1.853361550E-1,1.189500093E-1,2.131050110E0,9.712050438E0,9.943814529E0
1.872990820E-1,1.570500135E-1,2.092950106E0,9.750000000E0,9.973344717E0
1.892620000E-1,1.570500135E-1,2.092950106E0,9.750000000E0,9.973344717E0
1.912247900E-1,8.100000024E-2,2.169000149E0,9.750000000E0,9.988674719E0
1.931876170E-1,1.189500093E-1,2.131050110E0,9.750000000E0,9.980882911E0
1.951505290E-1,8.100000024E-2,2.169000149E0,9.750000000E0,9.988674719E0
1.971134030E-1,8.100000024E-2,2.131050110E0,9.787950516E0,1.001758009E1
1.990763800E-1,1.189500093E-1,2.131050110E0,9.750000000E0,9.980882911E0
2.010393260E-1,1.189500093E-1,2.169000149E0,9.787950516E0,1.002610024E1
2.030024260E-1,1.189500093E-1,2.169000149E0,9.787950516E0,1.002610024E1
2.049654800E-1,8.100000024E-2,2.169000149E0,9.750000000E0,9.988674719E0
2.069284930E-1,8.100000024E-2,2.131050110E0,9.712050438E0,9.943432973E0
2.088915350E-1,8.100000024E-2,2.131050110E0,9.787950516E0,1.001758009E1
2.108544370E-1,8.100000024E-2,2.169000149E0,9.750000000E0,9.988674719E0
2.128173810E-1,1.189500093E-1,2.169000149E0,9.712050438E0,9.952016603E0
2.147803440E-1,1.570500135E-1,2.169000149E0,9.750000000E0,9.989580890E0
2.167433020E-1,1.189500093E-1,2.131050110E0,9.750000000E0,9.980882911E0
2.187063540E-1,1.189500093E-1,2.092950106E0,9.712050438E0,9.935719046E0
2.206693790E-1,1.570500135E-1,2.169000149E0,9.712050438E0,9.952544904E0
2.226325100E-1,1.189500093E-1,2.169000149E0,9.712050438E0,9.952016603E0
2.245956100E-1,1.570500135E-1,2.131050110E0,9.787950516E0,1.001848365E1
2.265586390E-1,1.570500135E-1,2.131050110E0,9.787950516E0,1.001848365E1
2.285216890E-1,1.189500093E-1,2.131050110E0,9.787950516E0,1.001795882E1
2.304846000E-1,1.570500135E-1,2.131050110E0,9.787950516E0,1.001848365E1
2.324475450E-1,1.189500093E-1,2.131050110E0,9.826950073E0,1.005606640E1
2.344105080E-1,1.189500093E-1,2.131050110E0,9.787950516E0,1.001795882E1
2.363734660E-1,1.570500135E-1,2.131050110E0,9.750000000E0,9.981409684E0
2.383363840E-1,1.570500135E-1,2.169000149E0,9.750000000E0,9.989580890E0
2.402993140E-1,1.570500135E-1,2.131050110E0,9.750000000E0,9.981409684E0
2.422625590E-1,1.570500135E-1,2.169000149E0,9.712050438E0,9.952544904E0
2.442257060E-1,1.570500135E-1,2.169000149E0,9.750000000E0,9.989580890E0
2.461885920E-1,1.570500135E-1,2.131050110E0,9.787950516E0,1.001848365E1
2.481515540E-1,1.570500135E-1,2.131050110E0,9.787950516E0,1.001848365E1
2.501146950E-1,1.570500135E-1,2.131050110E0,9.712050438E0,9.944343266E0
2.520777830E-1,1.570500135E-1,2.131050110E0,9.712050438E0,9.944343266E0
2.540408490E-1,1.189500093E-1,2.169000149E0,9.750000000E0,9.989054547E0
2.560038970E-1,1.570500135E-1,2.169000149E0,9.750000000E0,9.989580890E0
2.579671580E-1,1.570500135E-1,2.131050110E0,9.712050438E0,9.944343266E0
2.599303560E-1,1.570500135E-1,2.169000149E0,9.712050438E0,9.952544904E0
2.618935930E-1,1.189500093E-1,2.131050110E0,9.750000000E0,9.980882911E0
2.638568180E-1,1.570500135E-1,2.169000149E0,9.750000000E0,9.989580890E0
2.658199110E-1,1.570500135E-1,2.169000149E0,9.712050438E0,9.952544904E0
2.677830460E-1,1.570500135E-1,2.131050110E0,9.673050880E0,9.906258255E0
2.697462920E-1,1.189500093E-1,2.092950106E0,9.673050880E0,9.897600850E0
2.717095050E-1,1.960500032E-1,2.169000149E0,9.673050880E0,9.915185857E0
2.736723790E-1,1.570500135E-1,2.131050110E0,9.712050438E0,9.944343266E0
2.756353530E-1,1.570500135E-1,2.131050110E0,9.712050438E0,9.944343266E0
2.775985770E-1,1.570500135E-1,2.131050110E0,9.712050438E0,9.944343266E0
2.795617310E-1,1.570500135E-1,2.169000149E0,9.712050438E0,9.952544904E0
2.815248410E-1,1.570500135E-1,2.131050110E0,9.750000000E0,9.981409684E0
2.834879640E-1,1.570500135E-1,2.131050110E0,9.673050880E0,9.906258255E0
2.854510330E-1,1.570500135E-1,2.131050110E0,9.673050880E0,9.906258255E0
2.874141180E-1,1.960500032E-1,2.092950106E0,9.712050438E0,9.936941152E0
2.893775440E-1,1.570500135E-1,2.092950106E0,9.673050880E0,9.898132055E0
2.913408760E-1,1.570500135E-1,2.092950106E0,9.712050438E0,9.936248214E0
2.933039100E-1,1.960500032E-1,2.131050110E0,9.712050438E0,9.945035640E0
2.952670320E-1,1.960500032E-1,2.092950106E0,9.712050438E0,9.936941152E0
2.972304150E-1,1.570500135E-1,2.092950106E0,9.712050438E0,9.936248214E0
2.991937220E-1,2.340000123E-1,2.092950106E0,9.673050880E0,9.899651988E0
3.011570860E-1,1.960500032E-1,2.131050110E0,9.712050438E0,9.945035640E0
3.031204570E-1,1.570500135E-1,2.092950106E0,9.673050880E0,9.898132055E0
3.050836650E-1,1.960500032E-1,2.092950106E0,9.673050880E0,9.898827662E0
3.070469210E-1,1.189500093E-1,2.092950106E0,9.712050438E0,9.935719046E0
3.090100120E-1,1.189500093E-1,2.131050110E0,9.673050880E0,9.905727485E0
3.109731520E-1,1.570500135E-1,2.131050110E0,9.673050880E0,9.906258255E0
3.129363660E-1,1.960500032E-1,2.131050110E0,9.673050880E0,9.906953291E0
3.148995480E-1,1.570500135E-1,2.131050110E0,9.712050438E0,9.944343266E0
3.168628330E-1,1.570500135E-1,2.169000149E0,9.673050880E0,9.914491398E0
3.188260870E-1,1.189500093E-1,2.169000149E0,9.673050880E0,9.913961069E0
3.207890900E-1,1.570500135E-1,2.131050110E0,9.634950638E0,9.869058368E0
3.227521660E-1,1.570500135E-1,2.092950106E0,9.673050880E0,9.898132055E0
3.247150990E-1,1.570500135E-1,2.131050110E0,9.634950638E0,9.869058368E0
3.266780800E-1,1.570500135E-1,2.131050110E0,9.634950638E0,9.869058368E0
3.286411720E-1,1.570500135E-1,2.131050110E0,9.634950638E0,9.869058368E0
3.306042320E-1,1.960500032E-1,2.092950106E0,9.597000122E0,9.824524777E0
3.325676270E-1,1.570500135E-1,2.131050110E0,9.597000122E0,9.832011525E0
3.345309240E-1,1.570500135E-1,2.131050110E0,9.712050438E0,9.944343266E0
3.364941690E-1,1.570500135E-1,2.131050110E0,9.634950638E0,9.869058368E0
3.384574120E-1,1.570500135E-1,2.131050110E0,9.558000565E0,9.793947829E0
3.404204600E-1,1.960500032E-1,2.131050110E0,9.597000122E0,9.832711809E0
3.423835650E-1,1.960500032E-1,2.169000149E0,9.597000122E0,9.841006483E0
3.443462770E-1,1.570500135E-1,2.169000149E0,9.634950638E0,9.877322519E0
3.463091040E-1,1.960500032E-1,2.131050110E0,9.597000122E0,9.832711809E0
3.482720670E-1,1.960500032E-1,2.169000149E0,9.634950638E0,9.878019591E0
3.502350050E-1,2.340000123E-1,2.131050110E0,9.634950638E0,9.870582778E0
3.521981060E-1,2.340000123E-1,2.169000149E0,9.634950638E0,9.878845653E0
3.541611590E-1,1.960500032E-1,2.131050110E0,9.673050880E0,9.906953291E0
3.561243750E-1,1.960500032E-1,2.131050110E0,9.634950638E0,9.869756024E0
3.580875430E-1,1.960500032E-1,2.131050110E0,9.634950638E0,9.869756024E0
3.600504910E-1,2.719500065E-1,2.131050110E0,9.634950638E0,9.871555357E0
3.620134890E-1,2.340000123E-1,2.131050110E0,9.634950638E0,9.870582778E0
3.639763990E-1,2.719500065E-1,2.131050110E0,9.634950638E0,9.871555357E0
3.659393350E-1,2.340000123E-1,2.092950106E0,9.712050438E0,9.937762317E0
3.679020300E-1,2.340000123E-1,2.131050110E0,9.712050438E0,9.945856136E0
3.698647960E-1,2.340000123E-1,2.131050110E0,9.673050880E0,9.907776941E0
3.718277750E-1,1.960500032E-1,2.131050110E0,9.712050438E0,9.945035640E0
3.737907020E-1,1.960500032E-1,2.092950106E0,9.673050880E0,9.898827662E0
3.757539400E-1,1.960500032E-1,2.092950106E0,9.712050438E0,9.936941152E0
3.777170870E-1,1.960500032E-1,2.092950106E0,9.673050880E0,9.898827662E0
3.796799730E-1,1.960500032E-1,2.131050110E0,9.634950638E0,9.869756024E0
3.816429350E-1,1.960500032E-1,2.169000149E0,9.712050438E0,9.953236708E0
3.836058820E-1,1.960500032E-1,2.131050110E0,9.750000000E0,9.982099487E0
3.855688440E-1,1.960500032E-1,2.169000149E0,9.712050438E0,9.953236708E0
3.875319400E-1,1.960500032E-1,2.092950106E0,9.712050438E0,9.936941152E0
3.894949960E-1,1.960500032E-1,2.169000149E0,9.712050438E0,9.953236708E0
3.914576720E-1,1.960500032E-1,2.092950106E0,9.712050438E0,9.936941152E0
3.934204600E-1,1.960500032E-1,2.131050110E0,9.712050438E0,9.945035640E0
3.953831920E-1,1.960500032E-1,2.092950106E0,9.712050438E0,9.936941152E0
3.973459640E-1,2.340000123E-1,2.053950071E0,9.750000000E0,9.966743044E0
3.993089120E-1,1.960500032E-1,2.092950106E0,9.750000000E0,9.974035079E0
4.012718080E-1,1.960500032E-1,2.131050110E0,9.712050438E0,9.945035640E0
4.032347360E-1,1.960500032E-1,2.131050110E0,9.712050438E0,9.945035640E0
4.051976540E-1,2.340000123E-1,2.092950106E0,9.673050880E0,9.899651988E0
4.071608130E-1,1.960500032E-1,2.092950106E0,9.673050880E0,9.898827662E0
4.091238950E-1,2.340000123E-1,2.131050110E0,9.673050880E0,9.907776941E0
4.110871070E-1,1.570500135E-1,2.092950106E0,9.673050880E0,9.898132055E0
4.130502800E-1,2.340000123E-1,2.131050110E0,9.712050438E0,9.945856136E0
4.150137460E-1,1.960500032E-1,2.092950106E0,9.750000000E0,9.974035079E0
4.169771260E-1,1.960500032E-1,2.092950106E0,9.673050880E0,9.898827662E0
4.189405150E-1,1.960500032E-1,2.092950106E0,9.712050438E0,9.936941152E0
4.209038990E-1,1.189500093E-1,2.092950106E0,9.750000000E0,9.972817518E0
4.228668790E-1,1.960500032E-1,2.092950106E0,9.673050880E0,9.898827662E0
4.248299780E-1,1.570500135E-1,2.092950106E0,9.673050880E0,9.898132055E0
4.267927360E-1,1.570500135E-1,2.131050110E0,9.712050438E0,9.944343266E0
4.287555940E-1,1.189500093E-1,2.092950106E0,9.750000000E0,9.972817518E0
4.307188280E-1,1.960500032E-1,2.092950106E0,9.673050880E0,9.898827662E0
4.326819620E-1,1.960500032E-1,2.131050110E0,9.712050438E0,9.945035640E0
4.346453900E-1,1.570500135E-1,2.131050110E0,9.673050880E0,9.906258255E0
4.366087310E-1,1.570500135E-1,2.131050110E0,9.750000000E0,9.981409684E0
4.385716280E-1,1.189500093E-1,2.092950106E0,9.750000000E0,9.972817518E0
4.405346560E-1,1.570500135E-1,2.092950106E0,9.712050438E0,9.936248214E0
4.424978610E-1,1.189500093E-1,2.092950106E0,9.712050438E0,9.935719046E0
4.444610240E-1,1.189500093E-1,2.169000149E0,9.712050438E0,9.952016603E0
4.464242670E-1,1.570500135E-1,2.131050110E0,9.712050438E0,9.944343266E0
4.483874860E-1,1.189500093E-1,2.092950106E0,9.712050438E0,9.935719046E0
4.503507190E-1,1.189500093E-1,2.131050110E0,9.673050880E0,9.905727485E0
4.523139470E-1,1.570500135E-1,2.092950106E0,9.750000000E0,9.973344717E0
4.542772150E-1,1.189500093E-1,2.092950106E0,9.712050438E0,9.935719046E0
4.562404770E-1,1.570500135E-1,2.131050110E0,9.712050438E0,9.944343266E0
4.582038370E-1,1.570500135E-1,2.131050110E0,9.712050438E0,9.944343266E0
4.601671690E-1,1.570500135E-1,2.131050110E0,9.673050880E0,9.906258255E0
4.621304280E-1,1.570500135E-1,2.131050110E0,9.750000000E0,9.981409684E0
4.640937090E-1,1.570500135E-1,2.131050110E0,9.673050880E0,9.906258255E0
4.660567150E-1,1.570500135E-1,2.131050110E0,9.750000000E0,9.981409684E0
4.680197950E-1,1.570500135E-1,2.131050110E0,9.750000000E0,9.981409684E0
4.699829160E-1,1.960500032E-1,2.131050110E0,9.712050438E0,9.945035640E0
4.719460240E-1,1.570500135E-1,2.092950106E0,9.712050438E0,9.936248214E0
4.739094110E-1,1.570500135E-1,2.169000149E0,9.673050880E0,9.914491398E0
4.758727160E-1,1.960500032E-1,2.131050110E0,9.712050438E0,9.945035640E0
4.778358000E-1,1.570500135E-1,2.131050110E0,9.712050438E0,9.944343266E0
4.797989490E-1,1.960500032E-1,2.092950106E0,9.712050438E0,9.936941152E0
4.817623730E-1,1.960500032E-1,2.131050110E0,9.712050438E0,9.945035640E0
4.837257170E-1,1.570500135E-1,2.131050110E0,9.750000000E0,9.981409684E0
4.856887490E-1,1.960500032E-1,2.131050110E0,9.787950516E0,1.001917090E1
4.876518720E-1,1.960500032E-1,2.131050110E0,9.712050438E0,9.945035640E0
4.896151350E-1,8.100000024E-2,2.131050110E0,9.787950516E0,1.001758009E1
4.915783470E-1,1.189500093E-1,2.131050110E0,9.750000000E0,9.980882911E0
4.935412220E-1,1.960500032E-1,2.131050110E0,9.750000000E0,9.982099487E0
4.955041950E-1,1.570500135E-1,2.131050110E0,9.750000000E0,9.981409684E0
4.974676040E-1,1.570500135E-1,2.169000149E0,9.634950638E0,9.877322519E0
4.994308850E-1,1.570500135E-1,2.169000149E0,9.787950516E0,1.002662464E1
5.013938020E-1,1.570500135E-1,2.169000149E0,9.750000000E0,9.989580890E0
5.033568190E-1,1.189500093E-1,2.131050110E0,9.787950516E0,1.001795882E1
5.053200410E-1,1.570500135E-1,2.169000149E0,9.750000000E0,9.989580890E0
5.072832020E-1,1.189500093E-1,2.169000149E0,9.712050438E0,9.952016603E0
5.092463110E-1,1.189500093E-1,2.169000149E0,9.712050438E0,9.952016603E0
5.112094350E-1,1.570500135E-1,2.169000149E0,9.750000000E0,9.989580890E0
5.131727850E-1,1.570500135E-1,2.131050110E0,9.712050438E0,9.944343266E0
5.151360920E-1,1.570500135E-1,2.131050110E0,9.712050438E0,9.944343266E0
5.170991760E-1,1.570500135E-1,2.169000149E0,9.712050438E0,9.952544904E0
5.190623250E-1,1.189500093E-1,2.131050110E0,9.750000000E0,9.980882911E0
5.210257040E-1,1.570500135E-1,2.169000149E0,9.750000000E0,9.989580890E0
5.229890150E-1,1.189500093E-1,2.169000149E0,9.712050438E0,9.952016603E0
5.249524230E-1,1.570500135E-1,2.131050110E0,9.712050438E0,9.944343266E0
5.269158270E-1,1.189500093E-1,2.131050110E0,9.750000000E0,9.980882911E0
5.288792100E-1,1.960500032E-1,2.131050110E0,9.750000000E0,9.982099487E0
5.308425990E-1,1.570500135E-1,2.169000149E0,9.750000000E0,9.989580890E0
5.328058020E-1,1.570500135E-1,2.169000149E0,9.712050438E0,9.952544904E0
5.347690600E-1,8.100000024E-2,2.092950106E0,9.712050438E0,9.935337179E0
5.367322740E-1,1.189500093E-1,2.169000149E0,9.712050438E0,9.952016603E0
5.386954780E-1,1.570500135E-1,2.169000149E0,9.712050438E0,9.952544904E0
5.406587570E-1,1.189500093E-1,2.131050110E0,9.673050880E0,9.905727485E0
5.426220140E-1,1.189500093E-1,2.169000149E0,9.673050880E0,9.913961069E0
5.445854210E-1,1.189500093E-1,2.131050110E0,9.673050880E0,9.905727485E0
5.465487840E-1,1.189500093E-1,2.169000149E0,9.673050880E0,9.913961069E0
5.485119650E-1,8.100000024E-2,2.169000149E0,9.597000122E0,9.839386871E0
5.504752190E-1,1.189500093E-1,2.208000183E0,9.673050880E0,9.922566566E0
5.524384460E-1,1.189500093E-1,2.169000149E0,9.673050880E0,9.913961069E0
5.544016810E-1,1.189500093E-1,2.169000149E0,9.673050880E0,9.913961069E0
5.563650450E-1,1.189500093E-1,2.169000149E0,9.673050880E0,9.913961069E0
5.583283710E-1,8.100000024E-2,2.208000183E0,9.673050880E0,9.922184192E0
5.602916160E-1,1.189500093E-1,2.131050110E0,9.634950638E0,9.868525598E0
5.622548960E-1,1.189500093E-1,2.131050110E0,9.750000000E0,9.980882911E0
5.642180730E-1,1.189500093E-1,2.131050110E0,9.712050438E0,9.943814529E0
5.661812810E-1,1.189500093E-1,2.131050110E0,9.712050438E0,9.943814529E0
5.681445150E-1,1.570500135E-1,2.169000149E0,9.712050438E0,9.952544904E0
5.701077410E-1,1.570500135E-1,2.131050110E0,9.712050438E0,9.944343266E0
5.720707790E-1,1.570500135E-1,2.169000149E0,9.787950516E0,1.002662464E1
5.740338820E-1,1.570500135E-1,2.169000149E0,9.712050438E0,9.952544904E0
5.759969990E-1,1.960500032E-1,2.169000149E0,9.712050438E0,9.953236708E0
5.779601110E-1,1.960500032E-1,2.131050110E0,9.712050438E0,9.945035640E0
5.799231830E-1,1.570500135E-1,2.169000149E0,9.750000000E0,9.989580890E0
5.818862670E-1,1.960500032E-1,2.131050110E0,9.750000000E0,9.982099487E0
5.838493670E-1,1.570500135E-1,2.131050110E0,9.750000000E0,9.981409684E0
5.858124450E-1,1.570500135E-1,2.131050110E0,9.750000000E0,9.981409684E0
5.877758810E-1,1.570500135E-1,2.131050110E0,9.750000000E0,9.981409684E0
5.897392120E-1,1.960500032E-1,2.131050110E0,9.750000000E0,9.982099487E0
5.917025610E-1,1.960500032E-1,2.131050110E0,9.787950516E0,1.001917090E1
5.936659050E-1,1.570500135E-1,2.131050110E0,9.787950516E0,1.001848365E1
5.956291070E-1,1.960500032E-1,2.092950106E0,9.787950516E0,1.001113635E1
5.975923580E-1,1.570500135E-1,2.131050110E0,9.750000000E0,9.981409684E0
5.995559450E-1,1.570500135E-1,2.092950106E0,9.787950516E0,1.001044855E1
6.015194330E-1,1.570500135E-1,2.092950106E0,9.826950073E0,1.004858461E1
6.034828010E-1,1.570500135E-1,2.092950106E0,9.750000000E0,9.973344717E0
6.054462040E-1,1.960500032E-1,2.092950106E0,9.750000000E0,9.974035079E0
6.074094370E-1,1.570500135E-1,2.092950106E0,9.787950516E0,1.001044855E1
6.093727290E-1,1.960500032E-1,2.131050110E0,9.750000000E0,9.982099487E0
6.113362640E-1,1.960500032E-1,2.092950106E0,9.750000000E0,9.974035079E0
6.132997270E-1,1.570500135E-1,2.131050110E0,9.712050438E0,9.944343266E0
6.152630990E-1,1.960500032E-1,2.092950106E0,9.750000000E0,9.974035079E0
6.172264980E-1,1.960500032E-1,2.092950106E0,9.787950516E0,1.001113635E1
6.191898940E-1,2.340000123E-1,2.131050110E0,9.750000000E0,9.982916937E0
6.211532810E-1,1.960500032E-1,2.092950106E0,9.787950516E0,1.001113635E1
6.231164850E-1,1.960500032E-1,2.092950106E0,9.787950516E0,1.001113635E1
6.250797430E-1,1.960500032E-1,2.131050110E0,9.750000000E0,9.982099487E0
6.270430130E-1,1.570500135E-1,2.092950106E0,9.712050438E0,9.936248214E0
6.290062790E-1,2.340000123E-1,2.092950106E0,9.750000000E0,9.974853189E0
6.309694850E-1,2.340000123E-1,2.131050110E0,9.750000000E0,9.982916937E0
6.329327230E-1,1.960500032E-1,2.092950106E0,9.750000000E0,9.974035079E0
6.348961320E-1,1.960500032E-1,2.131050110E0,9.712050438E0,9.945035640E0
6.368594900E-1,1.570500135E-1,2.131050110E0,9.712050438E0,9.944343266E0
6.388228790E-1,1.570500135E-1,2.169000149E0,9.712050438E0,9.952544904E0
6.407862590E-1,1.960500032E-1,2.131050110E0,9.673050880E0,9.906953291E0
6.427496250E-1,1.960500032E-1,2.131050110E0,9.712050438E0,9.945035640E0
6.447129780E-1,1.960500032E-1,2.092950106E0,9.634950638E0,9.861599746E0
6.466764120E-1,2.340000123E-1,2.169000149E0,9.673050880E0,9.916008823E0
6.486398220E-1,1.960500032E-1,2.131050110E0,9.634950638E0,9.869756024E0
6.506030230E-1,1.960500032E-1,2.131050110E0,9.634950638E0,9.869756024E0
6.525662850E-1,2.340000123E-1,2.131050110E0,9.673050880E0,9.907776941E0
6.545297620E-1,1.960500032E-1,2.169000149E0,9.597000122E0,9.841006483E0
6.564932200E-1,1.960500032E-1,2.092950106E0,9.597000122E0,9.824524777E0
6.584564580E-1,2.719500065E-1,2.092950106E0,9.673050880E0,9.900621712E0
6.604197610E-1,1.960500032E-1,2.092950106E0,9.597000122E0,9.824524777E0
6.623831580E-1,2.340000123E-1,2.131050110E0,9.597000122E0,9.833541677E0
6.643465280E-1,2.340000123E-1,2.131050110E0,9.634950638E0,9.870582778E0
6.663095560E-1,2.340000123E-1,2.131050110E0,9.673050880E0,9.907776941E0
6.682726840E-1,2.340000123E-1,2.092950106E0,9.597000122E0,9.825355337E0
6.702360660E-1,2.340000123E-1,2.169000149E0,9.597000122E0,9.841835652E0
6.721993740E-1,1.960500032E-1,2.131050110E0,9.634950638E0,9.869756024E0
6.741624120E-1,2.340000123E-1,2.092950106E0,9.597000122E0,9.825355337E0
6.761255300E-1,2.719500065E-1,2.131050110E0,9.634950638E0,9.871555357E0
6.780887840E-1,2.340000123E-1,2.131050110E0,9.597000122E0,9.833541677E0
6.800519950E-1,1.960500032E-1,2.131050110E0,9.597000122E0,9.832711809E0
6.820154540E-1,1.960500032E-1,2.092950106E0,9.597000122E0,9.824524777E0
6.839788410E-1,1.960500032E-1,2.131050110E0,9.558000565E0,9.794650834E0
6.859420460E-1,2.340000123E-1,2.092950106E0,9.558000565E0,9.787265754E0
6.879053040E-1,1.960500032E-1,2.131050110E0,9.634950638E0,9.869756024E0
6.898686650E-1,1.960500032E-1,2.131050110E0,9.597000122E0,9.832711809E0
6.918319950E-1,1.960500032E-1,2.131050110E0,9.712050438E0,9.945035640E0
6.937952100E-1,1.960500032E-1,2.169000149E0,9.634950638E0,9.878019591E0
6.957584580E-1,1.960500032E-1,2.169000149E0,9.673050880E0,9.915185857E0
6.977213700E-1,1.960500032E-1,2.169000149E0,9.673050880E0,9.915185857E0
6.996843810E-1,1.960500032E-1,2.131050110E0,9.673050880E0,9.906953291E0
7.016478470E-1,1.570500135E-1,2.169000149E0,9.673050880E0,9.914491398E0
7.036111670E-1,1.570500135E-1,2.169000149E0,9.634950638E0,9.877322519E0
7.055745630E-1,1.960500032E-1,2.208000183E0,9.712050438E0,9.961808276E0
7.075379370E-1,1.570500135E-1,2.092950106E0,9.673050880E0,9.898132055E0
7.095011440E-1,1.189500093E-1,2.131050110E0,9.673050880E0,9.905727485E0
7.114644000E-1,1.570500135E-1,2.131050110E0,9.712050438E0,9.944343266E0
7.134274610E-1,1.570500135E-1,2.169000149E0,9.673050880E0,9.914491398E0
7.153905690E-1,1.189500093E-1,2.169000149E0,9.634950638E0,9.876790194E0
7.173537750E-1,1.189500093E-1,2.131050110E0,9.673050880E0,9.905727485E0
7.193169520E-1,1.570500135E-1,2.208000183E0,9.712050438E0,9.961117067E0
7.212800580E-1,1.189500093E-1,2.169000149E0,9.673050880E0,9.913961069E0
7.232431850E-1,1.189500093E-1,2.169000149E0,9.673050880E0,9.913961069E0
7.252062190E-1,1.189500093E-1,2.169000149E0,9.673050880E0,9.913961069E0
7.271693040E-1,1.570500135E-1,2.131050110E0,9.712050438E0,9.944343266E0
7.291325590E-1,1.189500093E-1,2.131050110E0,9.673050880E0,9.905727485E0
7.310957640E-1,8.100000024E-2,2.169000149E0,9.673050880E0,9.913578364E0
7.330591790E-1,1.570500135E-1,2.169000149E0,9.712050438E0,9.952544904E0
7.350225330E-1,1.189500093E-1,2.169000149E0,9.634950638E0,9.876790194E0
7.369857630E-1,1.570500135E-1,2.169000149E0,9.750000000E0,9.989580890E0
7.389490160E-1,1.570500135E-1,2.131050110E0,9.673050880E0,9.906258255E0
7.409125570E-1,1.189500093E-1,2.169000149E0,9.712050438E0,9.952016603E0
7.428760140E-1,1.960500032E-1,2.208000183E0,9.712050438E0,9.961808276E0
7.448392520E-1,1.189500093E-1,2.169000149E0,9.712050438E0,9.952016603E0
7.468025540E-1,1.570500135E-1,2.169000149E0,9.712050438E0,9.952544904E0
7.487657830E-1,1.960500032E-1,2.169000149E0,9.750000000E0,9.990270129E0
7.507290260E-1,1.570500135E-1,2.169000149E0,9.750000000E0,9.989580890E0
7.526924340E-1,1.570500135E-1,2.169000149E0,9.712050438E0,9.952544904E0
7.546557930E-1,1.960500032E-1,2.169000149E0,9.712050438E0,9.953236708E0
7.566185970E-1,1.960500032E-1,2.169000149E0,9.712050438E0,9.953236708E0
7.585815640E-1,1.570500135E-1,2.131050110E0,9.712050438E0,9.944343266E0
7.605446640E-1,1.570500135E-1,2.169000149E0,9.712050438E0,9.952544904E0
7.625077210E-1,1.960500032E-1,2.131050110E0,9.673050880E0,9.906953291E0
7.644710270E-1,1.570500135E-1,2.169000149E0,9.712050438E0,9.952544904E0
7.664342600E-1,1.960500032E-1,2.092950106E0,9.712050438E0,9.936941152E0
7.683974460E-1,1.960500032E-1,2.131050110E0,9.750000000E0,9.982099487E0
7.703606460E-1,1.960500032E-1,2.131050110E0,9.750000000E0,9.982099487E0
7.723238660E-1,1.570500135E-1,2.169000149E0,9.673050880E0,9.914491398E0
7.742870910E-1,1.189500093E-1,2.131050110E0,9.787950516E0,1.001795882E1
7.762500080E-1,1.189500093E-1,2.169000149E0,9.750000000E0,9.989054547E0
7.782130160E-1,1.570500135E-1,2.131050110E0,9.787950516E0,1.001848365E1
7.801762840E-1,1.570500135E-1,2.169000149E0,9.787950516E0,1.002662464E1
7.821394750E-1,1.960500032E-1,2.131050110E0,9.787950516E0,1.001917090E1
7.841028530E-1,1.570500135E-1,2.169000149E0,9.787950516E0,1.002662464E1
7.860661730E-1,1.570500135E-1,2.131050110E0,9.787950516E0,1.001848365E1
7.880296140E-1,1.570500135E-1,2.131050110E0,9.826950073E0,1.005658923E1
7.899930190E-1,1.960500032E-1,2.131050110E0,9.826950073E0,1.005727388E1
7.919563560E-1,1.570500135E-1,2.131050110E0,9.826950073E0,1.005658923E1
7.939197130E-1,1.960500032E-1,2.169000149E0,9.826950073E0,1.006538350E1
7.958829670E-1,1.960500032E-1,2.169000149E0,9.787950516E0,1.002731133E1
7.978462520E-1,1.960500032E-1,2.169000149E0,9.787950516E0,1.002731133E1
7.998097880E-1,1.960500032E-1,2.131050110E0,9.750000000E0,9.982099487E0
8.017732500E-1,1.960500032E-1,2.169000149E0,9.826950073E0,1.006538350E1
8.037368020E-1,1.570500135E-1,2.131050110E0,9.787950516E0,1.001848365E1
8.057003270E-1,1.570500135E-1,2.131050110E0,9.787950516E0,1.001848365E1
8.076635340E-1,1.960500032E-1,2.131050110E0,9.787950516E0,1.001917090E1
8.096268480E-1,1.960500032E-1,2.131050110E0,9.787950516E0,1.001917090E1
8.115900650E-1,1.960500032E-1,2.092950106E0,9.712050438E0,9.936941152E0
8.135533100E-1,1.960500032E-1,2.131050110E0,9.750000000E0,9.982099487E0
8.155168980E-1,1.960500032E-1,2.169000149E0,9.750000000E0,9.990270129E0
8.174803850E-1,1.570500135E-1,2.131050110E0,9.673050880E0,9.906258255E0
8.194437730E-1,1.570500135E-1,2.092950106E0,9.712050438E0,9.936248214E0
8.214071760E-1,1.570500135E-1,2.092950106E0,9.673050880E0,9.898132055E0
8.233703320E-1,1.189500093E-1,2.131050110E0,9.750000000E0,9.980882911E0
8.253335600E-1,1.570500135E-1,2.169000149E0,9.634950638E0,9.877322519E0
8.272968360E-1,1.570500135E-1,2.131050110E0,9.634950638E0,9.869058368E0
8.292600970E-1,8.100000024E-2,2.092950106E0,9.673050880E0,9.897217512E0
8.312233130E-1,8.100000024E-2,2.092950106E0,9.634950638E0,9.859983516E0
8.331865500E-1,1.189500093E-1,2.092950106E0,9.673050880E0,9.897600850E0
8.351499590E-1,1.570500135E-1,2.169000149E0,9.673050880E0,9.914491398E0
8.371133180E-1,1.189500093E-1,2.169000149E0,9.673050880E0,9.913961069E0
8.390767070E-1,1.570500135E-1,2.169000149E0,9.712050438E0,9.952544904E0
8.410400870E-1,1.570500135E-1,2.131050110E0,9.673050880E0,9.906258255E0
8.430037060E-1,1.570500135E-1,2.131050110E0,9.712050438E0,9.944343266E0
8.449672170E-1,1.570500135E-1,2.131050110E0,9.673050880E0,9.906258255E0
8.469308960E-1,1.189500093E-1,2.131050110E0,9.673050880E0,9.905727485E0
8.488945250E-1,1.570500135E-1,2.169000149E0,9.597000122E0,9.840306789E0
8.508580480E-1,2.340000123E-1,2.131050110E0,9.712050438E0,9.945856136E0
8.528216030E-1,2.340000123E-1,2.092950106E0,9.673050880E0,9.899651988E0
8.547851250E-1,2.340000123E-1,2.131050110E0,9.750000000E0,9.982916937E0
8.567486660E-1,2.340000123E-1,2.131050110E0,9.750000000E0,9.982916937E0
8.587118890E-1,2.340000123E-1,2.092950106E0,9.712050438E0,9.937762317E0
8.606752050E-1,2.340000123E-1,2.131050110E0,9.673050880E0,9.907776941E0
8.626387810E-1,2.340000123E-1,2.131050110E0,9.673050880E0,9.907776941E0
8.646022800E-1,2.340000123E-1,2.092950106E0,9.750000000E0,9.974853189E0
8.665654200E-1,1.960500032E-1,2.169000149E0,9.750000000E0,9.990270129E0
8.685286660E-1,2.719500065E-1,2.092950106E0,9.750000000E0,9.975815603E0
8.704917590E-1,1.960500032E-1,2.131050110E0,9.750000000E0,9.982099487E0
8.724548970E-1,2.719500065E-1,2.131050110E0,9.750000000E0,9.983878574E0
8.744182780E-1,2.719500065E-1,2.131050110E0,9.750000000E0,9.983878574E0
8.763815880E-1,1.960500032E-1,2.092950106E0,9.712050438E0,9.936941152E0
8.783449700E-1,2.340000123E-1,2.131050110E0,9.712050438E0,9.945856136E0
8.803083420E-1,2.340000123E-1,2.131050110E0,9.750000000E0,9.982916937E0
8.822715940E-1,1.960500032E-1,2.131050110E0,9.673050880E0,9.906953291E0
8.842348820E-1,1.960500032E-1,2.131050110E0,9.634950638E0,9.869756024E0
8.861981030E-1,1.570500135E-1,2.131050110E0,9.750000000E0,9.981409684E0
8.881613440E-1,1.189500093E-1,2.092950106E0,9.712050438E0,9.935719046E0
8.901247570E-1,1.570500135E-1,2.131050110E0,9.712050438E0,9.944343266E0
8.920881160E-1,1.570500135E-1,2.169000149E0,9.634950638E0,9.877322519E0
8.940513260E-1,1.570500135E-1,2.169000149E0,9.673050880E0,9.914491398E0
8.960145800E-1,1.570500135E-1,2.131050110E0,9.712050438E0,9.944343266E0
8.979778060E-1,8.100000024E-2,2.169000149E0,9.673050880E0,9.913578364E0
8.999410410E-1,1.189500093E-1,2.169000149E0,9.712050438E0,9.952016603E0
9.019045950E-1,1.570500135E-1,2.092950106E0,9.750000000E0,9.973344717E0
9.038680490E-1,1.189500093E-1,2.131050110E0,9.787950516E0,1.001795882E1
9.058314680E-1,1.570500135E-1,2.131050110E0,9.750000000E0,9.981409684E0
9.077948970E-1,1.570500135E-1,2.092950106E0,9.787950516E0,1.001044855E1
9.097584080E-1,1.570500135E-1,2.131050110E0,9.787950516E0,1.001848365E1
9.117218950E-1,1.960500032E-1,2.169000149E0,9.787950516E0,1.002731133E1
9.136852780E-1,1.960500032E-1,2.169000149E0,9.750000000E0,9.990270129E0
9.156486810E-1,1.960500032E-1,2.131050110E0,9.787950516E0,1.001917090E1
9.176117470E-1,1.960500032E-1,2.131050110E0,9.787950516E0,1.001917090E1
9.195749110E-1,1.960500032E-1,2.131050110E0,9.750000000E0,9.982099487E0
9.215379730E-1,2.340000123E-1,2.131050110E0,9.750000000E0,9.982916937E0
9.235010650E-1,2.340000123E-1,2.131050110E0,9.750000000E0,9.982916937E0
9.254646650E-1,1.570500135E-1,2.131050110E0,9.750000000E0,9.981409684E0
9.274281260E-1,1.960500032E-1,2.092950106E0,9.750000000E0,9.974035079E0
9.293914980E-1,2.340000123E-1,2.131050110E0,9.712050438E0,9.945856136E0
9.313548970E-1,1.960500032E-1,2.131050110E0,9.712050438E0,9.945035640E0
9.333180990E-1,1.960500032E-1,2.092950106E0,9.712050438E0,9.936941152E0
9.352813590E-1,2.719500065E-1,2.092950106E0,9.712050438E0,9.938728322E0
9.372447230E-1,2.719500065E-1,2.131050110E0,9.673050880E0,9.908745870E0
9.392080530E-1,2.340000123E-1,2.131050110E0,9.673050880E0,9.907776941E0
9.411712680E-1,2.340000123E-1,2.131050110E0,9.712050438E0,9.945856136E0
9.431345170E-1,2.340000123E-1,2.131050110E0,9.712050438E0,9.945856136E0
9.450979240E-1,2.719500065E-1,2.131050110E0,9.712050438E0,9.946821356E0
9.470612840E-1,2.340000123E-1,2.092950106E0,9.673050880E0,9.899651988E0
9.490246880E-1,2.340000123E-1,2.131050110E0,9.712050438E0,9.945856136E0
9.509880680E-1,2.719500065E-1,2.131050110E0,9.712050438E0,9.946821356E0
9.529512750E-1,1.960500032E-1,2.092950106E0,9.712050438E0,9.936941152E0
9.549145320E-1,1.960500032E-1,2.092950106E0,9.712050438E0,9.936941152E0
9.568774430E-1,2.340000123E-1,2.092950106E0,9.673050880E0,9.899651988E0
9.588404550E-1,2.340000123E-1,2.131050110E0,9.634950638E0,9.870582778E0
9.608038860E-1,1.570500135E-1,2.131050110E0,9.673050880E0,9.906258255E0
9.627671740E-1,2.719500065E-1,2.169000149E0,9.634950638E0,9.879817420E0
9.647300350E-1,1.960500032E-1,2.131050110E0,9.597000122E0,9.832711809E0
9.666930220E-1,2.340000123E-1,2.092950106E0,9.673050880E0,9.899651988E0
9.686559350E-1,1.960500032E-1,2.092950106E0,9.634950638E0,9.861599746E0
9.706188690E-1,1.960500032E-1,2.131050110E0,9.634950638E0,9.869756024E0
9.725821440E-1,1.960500032E-1,2.131050110E0,9.597000122E0,9.832711809E0
9.745453230E-1,2.340000123E-1,2.131050110E0,9.597000122E0,9.833541677E0
9.765083840E-1,2.340000123E-1,2.169000149E0,9.634950638E0,9.878845653E0
9.784714790E-1,1.960500032E-1,2.169000149E0,9.673050880E0,9.915185857E0
9.804349120E-1,2.719500065E-1,2.131050110E0,9.634950638E0,9.871555357E0
9.823982460E-1,2.340000123E-1,2.131050110E0,9.634950638E0,9.870582778E0
9.843612750E-1,2.340000123E-1,2.208000183E0,9.597000122E0,9.850504158E0
9.863243970E-1,1.960500032E-1,2.169000149E0,9.634950638E0,9.878019591E0
9.882873310E-1,1.960500032E-1,2.169000149E0,9.558000565E0,9.802977713E0
9.902503200E-1,1.960500032E-1,2.131050110E0,9.597000122E0,9.832711809E0
9.922135910E-1,1.570500135E-1,2.169000149E0,9.634950638E0,9.877322519E0
9.941767800E-1,1.960500032E-1,2.169000149E0,9.634950638E0,9.878019591E0
9.961401530E-1,1.570500135E-1,2.169000149E0,9.673050880E0,9.914491398E0
9.981034720E-1,1.960500032E-1,2.131050110E0,9.634950638E0,9.869756024E0
1.000066509E0,2.340000123E-1,2.169000149E0,9.712050438E0,9.954056528E0
1.002029628E0,1.570500135E-1,2.208000183E0,9.712050438E0,9.961117067E0
1.003992698E0,1.960500032E-1,2.131050110E0,9.673050880E0,9.906953291E0
1.005955782E0,1.570500135E-1,2.131050110E0,9.712050438E0,9.944343266E0
1.007919201E0,1.570500135E-1,2.169000149E0,9.750000000E0,9.989580890E0
1.009882533E0,1.570500135E-1,2.169000149E0,9.673050880E0,9.914491398E0
1.011845567E0,1.570500135E-1,2.131050110E0,9.750000000E0,9.981409684E0
1.013808689E0,1.960500032E-1,2.169000149E0,9.750000000E0,9.990270129E0
1.015771623E0,2.340000123E-1,2.169000149E0,9.673050880E0,9.916008823E0
1.017734612E0,2.340000123E-1,2.169000149E0,9.787950516E0,1.002812510E1
1.019697824E0,1.960500032E-1,2.169000149E0,9.712050438E0,9.953236708E0
1.021660980E0,1.960500032E-1,2.169000149E0,9.712050438E0,9.953236708E0
1.023623910E0,1.960500032E-1,2.131050110E0,9.712050438E0,9.945035640E0
1.025586906E0,1.960500032E-1,2.131050110E0,9.750000000E0,9.982099487E0
1.027550131E0,1.960500032E-1,2.169000149E0,9.750000000E0,9.990270129E0
1.029513288E0,1.960500032E-1,2.131050110E0,9.750000000E0,9.982099487E0
1.031476537E0,1.570500135E-1,2.169000149E0,9.712050438E0,9.952544904E0
1.033439755E0,2.340000123E-1,2.131050110E0,9.750000000E0,9.982916937E0
1.035402988E0,1.570500135E-1,2.131050110E0,9.673050880E0,9.906258255E0
1.037366216E0,1.570500135E-1,2.169000149E0,9.712050438E0,9.952544904E0
1.039329313E0,1.570500135E-1,2.169000149E0,9.712050438E0,9.952544904E0
1.041292449E0,1.960500032E-1,2.131050110E0,9.673050880E0,9.906953291E0
1.043255525E0,1.960500032E-1,2.169000149E0,9.712050438E0,9.953236708E0
1.045218612E0,1.960500032E-1,2.169000149E0,9.712050438E0,9.953236708E0
1.047181687E0,1.570500135E-1,2.169000149E0,9.673050880E0,9.914491398E0
1.049144766E0,1.960500032E-1,2.131050110E0,9.712050438E0,9.945035640E0
1.051107976E0,1.570500135E-1,2.131050110E0,9.712050438E0,9.944343266E0
1.053071148E0,1.960500032E-1,2.169000149E0,9.558000565E0,9.802977713E0
1.055034615E0,1.960500032E-1,2.169000149E0,9.673050880E0,9.915185857E0
1.056997995E0,1.960500032E-1,2.131050110E0,9.673050880E0,9.906953291E0
1.058961021E0,1.570500135E-1,2.208000183E0,9.712050438E0,9.961117067E0
1.060924150E0,1.960500032E-1,2.169000149E0,9.673050880E0,9.915185857E0
1.062887218E0,1.960500032E-1,2.169000149E0,9.712050438E0,9.953236708E0
1.064850304E0,2.340000123E-1,2.131050110E0,9.673050880E0,9.907776941E0
1.066813325E0,2.340000123E-1,2.169000149E0,9.673050880E0,9.916008823E0
1.068776372E0,1.189500093E-1,2.169000149E0,9.712050438E0,9.952016603E0
1.070739633E0,2.340000123E-1,2.169000149E0,9.673050880E0,9.916008823E0
1.072702832E0,1.570500135E-1,2.131050110E0,9.634950638E0,9.869058368E0
1.074666113E0,1.570500135E-1,2.131050110E0,9.712050438E0,9.944343266E0
1.076629370E0,1.570500135E-1,2.169000149E0,9.750000000E0,9.989580890E0
1.078592417E0,1.570500135E-1,2.208000183E0,9.712050438E0,9.961117067E0
1.080555526E0,1.570500135E-1,2.208000183E0,9.673050880E0,9.923096435E0
1.082518777E0,1.189500093E-1,2.169000149E0,9.712050438E0,9.952016603E0
1.084481986E0,8.100000024E-2,2.208000183E0,9.673050880E0,9.922184192E0
1.086445220E0,1.189500093E-1,2.169000149E0,9.750000000E0,9.989054547E0
1.088408447E0,1.189500093E-1,2.169000149E0,9.712050438E0,9.952016603E0
1.090371814E0,1.189500093E-1,2.169000149E0,9.673050880E0,9.913961069E0
1.092335139E0,1.189500093E-1,2.208000183E0,9.712050438E0,9.960589221E0
1.094298355E0,1.570500135E-1,2.169000149E0,9.712050438E0,9.952544904E0
1.096261603E0,1.189500093E-1,2.169000149E0,9.750000000E0,9.989054547E0
1.098225235E0,1.189500093E-1,2.131050110E0,9.712050438E0,9.943814529E0
1.100188755E0,1.189500093E-1,2.169000149E0,9.787950516E0,1.002610024E1
1.102151712E0,1.189500093E-1,2.131050110E0,9.750000000E0,9.980882911E0
1.104114834E0,1.189500093E-1,2.131050110E0,9.750000000E0,9.980882911E0
1.106078262E0,1.189500093E-1,2.131050110E0,9.826950073E0,1.005606640E1
1.108041601E0,1.189500093E-1,2.169000149E0,9.750000000E0,9.989054547E0
1.110004860E0,1.189500093E-1,2.169000149E0,9.750000000E0,9.989054547E0
1.111968142E0,1.570500135E-1,2.169000149E0,9.750000000E0,9.989580890E0
1.113931557E0,1.570500135E-1,2.169000149E0,9.712050438E0,9.952544904E0
1.115894923E0,1.960500032E-1,2.169000149E0,9.750000000E0,9.990270129E0
1.117858086E0,1.570500135E-1,2.053950071E0,9.750000000E0,9.965233344E0
1.119821309E0,2.340000123E-1,2.131050110E0,9.712050438E0,9.945856136E0
1.121784540E0,1.960500032E-1,2.131050110E0,9.712050438E0,9.945035640E0
1.123747769E0,1.960500032E-1,2.169000149E0,9.750000000E0,9.990270129E0
1.125710986E0,2.340000123E-1,2.131050110E0,9.750000000E0,9.982916937E0
1.127674217E0,2.340000123E-1,2.131050110E0,9.750000000E0,9.982916937E0
1.129637313E0,2.340000123E-1,2.131050110E0,9.750000000E0,9.982916937E0
1.131600449E0,1.570500135E-1,2.131050110E0,9.750000000E0,9.981409684E0
1.133563471E0,2.340000123E-1,2.131050110E0,9.750000000E0,9.982916937E0
1.135526526E0,2.340000123E-1,2.169000149E0,9.750000000E0,9.991086910E0
1.137489636E0,1.960500032E-1,2.131050110E0,9.712050438E0,9.945035640E0
1.139452740E0,2.340000123E-1,2.169000149E0,9.712050438E0,9.954056528E0
1.141416128E0,2.340000123E-1,2.131050110E0,9.712050438E0,9.945856136E0
1.143379432E0,1.960500032E-1,2.169000149E0,9.750000000E0,9.990270129E0
1.145342291E0,1.960500032E-1,2.131050110E0,9.750000000E0,9.982099487E0
1.147305280E0,1.960500032E-1,2.131050110E0,9.673050880E0,9.906953291E0
1.149268397E0,1.960500032E-1,2.169000149E0,9.712050438E0,9.953236708E0
1.151231490E0,1.570500135E-1,2.208000183E0,9.750000000E0,9.998121299E0
1.153194520E0,1.960500032E-1,2.131050110E0,9.750000000E0,9.982099487E0
1.155157569E0,1.960500032E-1,2.131050110E0,9.750000000E0,9.982099487E0
1.157120695E0,1.960500032E-1,2.169000149E0,9.712050438E0,9.953236708E0
1.159083798E0,1.960500032E-1,2.131050110E0,9.787950516E0,1.001917090E1
1.161047231E0,1.570500135E-1,2.208000183E0,9.750000000E0,9.998121299E0
1.163010567E0,1.960500032E-1,2.131050110E0,9.750000000E0,9.982099487E0
1.164973736E0,1.960500032E-1,2.169000149E0,9.673050880E0,9.915185857E0
1.166936954E0,1.960500032E-1,2.169000149E0,9.712050438E0,9.953236708E0
1.168900231E0,1.960500032E-1,2.169000149E0,9.712050438E0,9.953236708E0
1.170863490E0,1.960500032E-1,2.131050110E0,9.712050438E0,9.945035640E0
1.172826902E0,1.960500032E-1,2.169000149E0,9.712050438E0,9.953236708E0
1.174790265E0,2.340000123E-1,2.169000149E0,9.712050438E0,9.954056528E0
1.176753609E0,2.719500065E-1,2.131050110E0,9.712050438E0,9.946821356E0
1.178716959E0,1.960500032E-1,2.131050110E0,9.673050880E0,9.906953291E0
1.180680214E0,2.719500065E-1,2.169000149E0,9.673050880E0,9.916976948E0
1.182643497E0,2.340000123E-1,2.131050110E0,9.673050880E0,9.907776941E0
1.184606563E0,2.340000123E-1,2.169000149E0,9.634950638E0,9.878845653E0
1.186569675E0,2.719500065E-1,2.169000149E0,9.597000122E0,9.842811072E0
1.188532565E0,2.719500065E-1,2.131050110E0,9.597000122E0,9.834517920E0
1.190495521E0,2.340000123E-1,2.131050110E0,9.597000122E0,9.833541677E0
1.192458618E0,2.719500065E-1,2.131050110E0,9.634950638E0,9.871555357E0
1.194421673E0,2.340000123E-1,2.169000149E0,9.597000122E0,9.841835652E0
1.196384385E0,2.340000123E-1,2.131050110E0,9.597000122E0,9.833541677E0
1.198347204E0,2.340000123E-1,2.131050110E0,9.634950638E0,9.870582778E0
1.200310279E0,2.340000123E-1,2.131050110E0,9.634950638E0,9.870582778E0
1.202273279E0,2.719500065E-1,2.131050110E0,9.712050438E0,9.946821356E0
1.204236190E0,1.960500032E-1,2.131050110E0,9.634950638E0,9.869756024E0
1.206199127E0,1.960500032E-1,2.131050110E0,9.597000122E0,9.832711809E0
1.208162291E0,2.340000123E-1,2.169000149E0,9.673050880E0,9.916008823E0
1.210125375E0,1.570500135E-1,2.169000149E0,9.673050880E0,9.914491398E0
1.212088271E0,1.960500032E-1,2.131050110E0,9.673050880E0,9.906953291E0
1.214051223E0,1.960500032E-1,2.131050110E0,9.673050880E0,9.906953291E0
1.216014320E0,1.570500135E-1,2.169000149E0,9.712050438E0,9.952544904E0
1.217977375E0,1.960500032E-1,2.169000149E0,9.673050880E0,9.915185857E0
1.219940231E0,1.570500135E-1,2.131050110E0,9.750000000E0,9.981409684E0
1.221903146E0,1.570500135E-1,2.131050110E0,9.712050438E0,9.944343266E0
1.223866114E0,1.189500093E-1,2.169000149E0,9.712050438E0,9.952016603E0
1.225829067E0,1.570500135E-1,2.131050110E0,9.712050438E0,9.944343266E0
1.227791986E0,1.570500135E-1,2.131050110E0,9.712050438E0,9.944343266E0
1.229754915E0,1.570500135E-1,2.169000149E0,9.750000000E0,9.989580890E0
1.231717856E0,1.570500135E-1,2.131050110E0,9.634950638E0,9.869058368E0
1.233680780E0,1.960500032E-1,2.131050110E0,9.750000000E0,9.982099487E0
1.235643837E0,1.189500093E-1,2.169000149E0,9.712050438E0,9.952016603E0
1.237606855E0,1.960500032E-1,2.169000149E0,9.673050880E0,9.915185857E0
1.239569808E0,1.570500135E-1,2.131050110E0,9.673050880E0,9.906258255E0
1.241532780E0,1.960500032E-1,2.131050110E0,9.673050880E0,9.906953291E0
1.243496024E0,1.960500032E-1,2.131050110E0,9.712050438E0,9.945035640E0
1.245459178E0,1.960500032E-1,2.131050110E0,9.712050438E0,9.945035640E0
1.247422288E0,2.340000123E-1,2.092950106E0,9.712050438E0,9.937762317E0
1.249385411E0,1.960500032E-1,2.053950071E0,9.673050880E0,9.890655177E0
1.251348614E0,1.960500032E-1,2.092950106E0,9.634950638E0,9.861599746E0
1.253311793E0,1.960500032E-1,2.131050110E0,9.673050880E0,9.906953291E0
1.255275106E0,1.960500032E-1,2.169000149E0,9.673050880E0,9.915185857E0
1.257238360E0,2.340000123E-1,2.131050110E0,9.673050880E0,9.907776941E0
1.259201722E0,1.570500135E-1,2.131050110E0,9.673050880E0,9.906258255E0
1.261165052E0,1.960500032E-1,2.092950106E0,9.634950638E0,9.861599746E0
1.263128132E0,2.340000123E-1,2.131050110E0,9.597000122E0,9.833541677E0
1.265091285E0,2.340000123E-1,2.131050110E0,9.673050880E0,9.907776941E0
1.267054314E0,2.719500065E-1,2.131050110E0,9.673050880E0,9.908745870E0
1.269017372E0,1.960500032E-1,2.169000149E0,9.673050880E0,9.915185857E0
1.270980496E0,2.340000123E-1,2.131050110E0,9.712050438E0,9.945856136E0
1.272943601E0,2.340000123E-1,2.131050110E0,9.673050880E0,9.907776941E0
1.274906808E0,1.960500032E-1,2.131050110E0,9.712050438E0,9.945035640E0
1.276869985E0,2.340000123E-1,2.169000149E0,9.712050438E0,9.954056528E0
1.278832901E0,2.340000123E-1,2.131050110E0,9.673050880E0,9.907776941E0
1.280795900E0,1.570500135E-1,2.131050110E0,9.673050880E0,9.906258255E0
1.282758810E0,1.960500032E-1,2.131050110E0,9.673050880E0,9.906953291E0
1.284721746E0,1.960500032E-1,2.131050110E0,9.597000122E0,9.832711809E0
1.286684846E0,1.570500135E-1,2.131050110E0,9.712050438E0,9.944343266E0
1.288647898E0,1.960500032E-1,2.169000149E0,9.712050438E0,9.953236708E0
1.290611106E0,1.960500032E-1,2.131050110E0,9.712050438E0,9.945035640E0
1.292574274E0,1.960500032E-1,2.131050110E0,9.750000000E0,9.982099487E0
1.294537515E0,1.960500032E-1,2.169000149E0,9.712050438E0,9.953236708E0
1.296500735E0,2.340000123E-1,2.131050110E0,9.712050438E0,9.945856136E0
1.298463834E0,1.960500032E-1,2.131050110E0,9.673050880E0,9.906953291E0
1.300426968E0,1.570500135E-1,2.169000149E0,9.712050438E0,9.952544904E0
1.302390349E0,1.570500135E-1,2.131050110E0,9.712050438E0,9.944343266E0
1.304353658E0,1.960500032E-1,2.131050110E0,9.750000000E0,9.982099487E0
1.306316921E0,1.570500135E-1,2.169000149E0,9.712050438E0,9.952544904E0
1.308280198E0,1.189500093E-1,2.131050110E0,9.750000000E0,9.980882911E0
1.310243241E0,1.570500135E-1,2.169000149E0,9.750000000E0,9.989580890E0
1.312206352E0,1.960500032E-1,2.131050110E0,9.750000000E0,9.982099487E0
1.314169733E0,1.960500032E-1,2.131050110E0,9.787950516E0,1.001917090E1
1.316133038E0,1.960500032E-1,2.169000149E0,9.750000000E0,9.990270129E0
1.318096436E0,2.340000123E-1,2.092950106E0,9.826950073E0,1.005008179E1
1.320059807E0,2.340000123E-1,2.131050110E0,9.787950516E0,1.001998532E1
1.322023015E0,2.340000123E-1,2.131050110E0,9.787950516E0,1.001998532E1
1.323986271E0,1.960500032E-1,2.169000149E0,9.787950516E0,1.002731133E1
1.325949541E0,2.340000123E-1,2.131050110E0,9.712050438E0,9.945856136E0
1.327912807E0,2.340000123E-1,2.131050110E0,9.826950073E0,1.005808522E1
1.329876167E0,1.570500135E-1,2.092950106E0,9.750000000E0,9.973344717E0
1.331839500E0,1.960500032E-1,2.092950106E0,9.750000000E0,9.974035079E0
1.333802759E0,1.960500032E-1,2.131050110E0,9.787950516E0,1.001917090E1
1.335766040E0,1.570500135E-1,2.131050110E0,9.787950516E0,1.001848365E1
1.337729757E0,1.960500032E-1,2.131050110E0,9.750000000E0,9.982099487E0
1.339693346E0,1.960500032E-1,2.131050110E0,9.750000000E0,9.982099487E0
1.341656516E0,1.960500032E-1,2.131050110E0,9.750000000E0,9.982099487E0
1.343619809E0,1.960500032E-1,2.131050110E0,9.712050438E0,9.945035640E0
1.345582714E0,2.340000123E-1,2.131050110E0,9.712050438E0,9.945856136E0
1.347545733E0,1.960500032E-1,2.169000149E0,9.712050438E0,9.953236708E0
1.349508944E0,1.960500032E-1,2.131050110E0,9.750000000E0,9.982099487E0
1.351472105E0,1.960500032E-1,2.169000149E0,9.712050438E0,9.953236708E0
1.353435348E0,1.960500032E-1,2.131050110E0,9.750000000E0,9.982099487E0
1.355398567E0,1.960500032E-1,2.131050110E0,9.712050438E0,9.945035640E0
1.357361666E0,1.960500032E-1,2.131050110E0,9.712050438E0,9.945035640E0
1.359324800E0,1.960500032E-1,2.131050110E0,9.750000000E0,9.982099487E0
1.361288221E0,1.960500032E-1,2.131050110E0,9.750000000E0,9.982099487E0
1.363251562E0,1.960500032E-1,2.092950106E0,9.750000000E0,9.974035079E0
1.365214369E0,1.960500032E-1,2.131050110E0,9.712050438E0,9.945035640E0
1.367177333E0,1.960500032E-1,2.131050110E0,9.750000000E0,9.982099487E0
1.369140653E0,1.960500032E-1,2.169000149E0,9.750000000E0,9.990270129E0
1.371103869E0,1.570500135E-1,2.169000149E0,9.712050438E0,9.952544904E0
1.373067065E0,1.960500032E-1,2.131050110E0,9.712050438E0,9.945035640E0
1.375030293E0,1.960500032E-1,2.169000149E0,9.750000000E0,9.990270129E0
1.376993704E0,1.960500032E-1,2.208000183E0,9.673050880E0,9.923790291E0
1.378957062E0,1.960500032E-1,2.208000183E0,9.750000000E0,9.998809950E0
1.380920812E0,1.960500032E-1,2.169000149E0,9.750000000E0,9.990270129E0
1.382884447E0,1.570500135E-1,2.169000149E0,9.750000000E0,9.989580890E0
1.384847799E0,1.570500135E-1,2.169000149E0,9.712050438E0,9.952544904E0
1.386811227E0,1.960500032E-1,2.169000149E0,9.673050880E0,9.915185857E0
1.388774604E0,1.570500135E-1,2.131050110E0,9.750000000E0,9.981409684E0
1.390737996E0,1.570500135E-1,2.169000149E0,9.712050438E0,9.952544904E0
1.392701559E0,1.570500135E-1,2.169000149E0,9.673050880E0,9.914491398E0
1.394665071E0,1.570500135E-1,2.131050110E0,9.712050438E0,9.944343266E0
1.396628561E0,1.960500032E-1,2.131050110E0,9.712050438E0,9.945035640E0
1.398592064E0,1.570500135E-1,2.131050110E0,9.712050438E0,9.944343266E0
1.400555293E0,1.960500032E-1,2.131050110E0,9.673050880E0,9.906953291E0
1.402518603E0,1.189500093E-1,2.131050110E0,9.787950516E0,1.001795882E1
1.404481999E0,1.570500135E-1,2.131050110E0,9.750000000E0,9.981409684E0
1.406445370E0,1.960500032E-1,2.131050110E0,9.750000000E0,9.982099487E0
1.408408887E0,1.960500032E-1,2.169000149E0,9.750000000E0,9.990270129E0
1.410372365E0,1.570500135E-1,2.131050110E0,9.750000000E0,9.981409684E0
1.412335735E0,2.340000123E-1,2.131050110E0,9.750000000E0,9.982916937E0
1.414299136E0,1.570500135E-1,2.169000149E0,9.750000000E0,9.989580890E0
1.416262338E0,2.340000123E-1,2.092950106E0,9.750000000E0,9.974853189E0
1.418225598E0,1.960500032E-1,2.092950106E0,9.750000000E0,9.974035079E0
1.420188813E0,1.960500032E-1,2.131050110E0,9.787950516E0,1.001917090E1
1.422152049E0,1.960500032E-1,2.131050110E0,9.750000000E0,9.982099487E0
1.424115099E0,2.719500065E-1,2.131050110E0,9.787950516E0,1.002094340E1
1.426078203E0,2.340000123E-1,2.131050110E0,9.712050438E0,9.945856136E0
1.428041319E0,2.340000123E-1,2.092950106E0,9.750000000E0,9.974853189E0
1.430004432E0,2.340000123E-1,2.131050110E0,9.712050438E0,9.945856136E0
1.431967659E0,2.340000123E-1,2.131050110E0,9.673050880E0,9.907776941E0
1.433930870E0,1.960500032E-1,2.131050110E0,9.712050438E0,9.945035640E0
1.435893925E0,1.960500032E-1,2.169000149E0,9.673050880E0,9.915185857E0
1.437857025E0,1.960500032E-1,2.131050110E0,9.712050438E0,9.945035640E0
1.439820098E0,2.340000123E-1,2.208000183E0,9.673050880E0,9.924612544E0
1.441783179E0,2.340000123E-1,2.169000149E0,9.712050438E0,9.954056528E0
1.443746241E0,1.960500032E-1,2.169000149E0,9.634950638E0,9.878019591E0
1.445709319E0,2.340000123E-1,2.169000149E0,9.597000122E0,9.841835652E0
1.447672575E0,1.960500032E-1,2.131050110E0,9.634950638E0,9.869756024E0
1.449635779E0,1.960500032E-1,2.169000149E0,9.634950638E0,9.878019591E0
1.451599330E0,1.570500135E-1,2.169000149E0,9.634950638E0,9.877322519E0
1.453562779E0,2.340000123E-1,2.208000183E0,9.634950638E0,9.887481712E0
1.455525959E0,2.340000123E-1,2.131050110E0,9.673050880E0,9.907776941E0
1.457489228E0,2.340000123E-1,2.208000183E0,9.634950638E0,9.887481712E0
1.459452812E0,1.960500032E-1,2.208000183E0,9.673050880E0,9.923790291E0
1.461416303E0,2.340000123E-1,2.169000149E0,9.673050880E0,9.916008823E0
1.463379850E0,2.340000123E-1,2.208000183E0,9.673050880E0,9.924612544E0
1.465343380E0,2.340000123E-1,2.208000183E0,9.634950638E0,9.887481712E0
1.467306800E0,1.960500032E-1,2.131050110E0,9.634950638E0,9.869756024E0
1.469270242E0,2.719500065E-1,2.169000149E0,9.634950638E0,9.879817420E0
1.471233931E0,2.340000123E-1,2.208000183E0,9.634950638E0,9.887481712E0
1.473197548E0,1.960500032E-1,2.169000149E0,9.634950638E0,9.878019591E0
1.475160939E0,1.960500032E-1,2.169000149E0,9.673050880E0,9.915185857E0
1.477124396E0,1.960500032E-1,2.169000149E0,9.634950638E0,9.878019591E0
1.479087533E0,1.570500135E-1,2.169000149E0,9.634950638E0,9.877322519E0
1.481050771E0,1.570500135E-1,2.131050110E0,9.634950638E0,9.869058368E0
1.483014360E0,2.340000123E-1,2.169000149E0,9.673050880E0,9.916008823E0
1.484977846E0,2.340000123E-1,2.169000149E0,9.558000565E0,9.803810098E0
1.486941034E0,1.960500032E-1,2.169000149E0,9.673050880E0,9.915185857E0
1.488904309E0,1.960500032E-1,2.131050110E0,9.673050880E0,9.906953291E0
1.490867568E0,2.340000123E-1,2.169000149E0,9.634950638E0,9.878845653E0
1.492830839E0,1.189500093E-1,2.169000149E0,9.712050438E0,9.952016603E0
1.494794017E0,2.340000123E-1,2.131050110E0,9.673050880E0,9.907776941E0
1.496757223E0,1.960500032E-1,2.169000149E0,9.712050438E0,9.953236708E0
1.498720457E0,1.570500135E-1,2.169000149E0,9.712050438E0,9.952544904E0
1.500683683E0,1.570500135E-1,2.169000149E0,9.673050880E0,9.914491398E0
1.502646978E0,1.189500093E-1,2.169000149E0,9.712050438E0,9.952016603E0
1.504610240E0,1.570500135E-1,2.169000149E0,9.673050880E0,9.914491398E0
1.506573601E0,1.570500135E-1,2.131050110E0,9.712050438E0,9.944343266E0
1.508536933E0,1.570500135E-1,2.131050110E0,9.673050880E0,9.906258255E0
1.510500327E0,1.570500135E-1,2.131050110E0,9.750000000E0,9.981409684E0
1.512463702E0,1.570500135E-1,2.169000149E0,9.673050880E0,9.914491398E0
1.514426918E0,1.570500135E-1,2.131050110E0,9.712050438E0,9.944343266E0
1.516390174E0,1.570500135E-1,2.208000183E0,9.673050880E0,9.923096435E0
1.518353220E0,1.189500093E-1,2.131050110E0,9.597000122E0,9.831476747E0
1.520316328E0,1.189500093E-1,2.169000149E0,9.673050880E0,9.913961069E0
1.522279264E0,1.189500093E-1,2.169000149E0,9.634950638E0,9.876790194E0
1.524242251E0,1.570500135E-1,2.169000149E0,9.712050438E0,9.952544904E0
1.526205864E0,1.960500032E-1,2.131050110E0,9.673050880E0,9.906953291E0
1.528169307E0,1.570500135E-1,2.131050110E0,9.673050880E0,9.906258255E0
1.530132322E0,1.960500032E-1,2.169000149E0,9.712050438E0,9.953236708E0
1.532095463E0,1.570500135E-1,2.131050110E0,9.673050880E0,9.906258255E0
1.534058708E0,1.960500032E-1,2.131050110E0,9.712050438E0,9.945035640E0
1.536021923E0,1.960500032E-1,2.208000183E0,9.673050880E0,9.923790291E0
1.537985546E0,1.960500032E-1,2.208000183E0,9.673050880E0,9.923790291E0
1.539949029E0,1.960500032E-1,2.169000149E0,9.750000000E0,9.990270129E0
1.541912353E0,1.960500032E-1,2.169000149E0,9.712050438E0,9.953236708E0
1.543875723E0,1.960500032E-1,2.131050110E0,9.750000000E0,9.982099487E0
1.545839334E0,1.570500135E-1,2.092950106E0,9.712050438E0,9.936248214E0
1.547802875E0,1.960500032E-1,2.131050110E0,9.750000000E0,9.982099487E0
1.549766189E0,1.960500032E-1,2.169000149E0,9.634950638E0,9.878019591E0
1.551729569E0,1.960500032E-1,2.169000149E0,9.750000000E0,9.990270129E0
1.553693134E0,1.960500032E-1,2.169000149E0,9.750000000E0,9.990270129E0
1.555656644E0,1.960500032E-1,2.169000149E0,9.673050880E0,9.915185857E0
1.557619828E0,2.340000123E-1,2.169000149E0,9.673050880E0,9.916008823E0
1.559583108E0,1.960500032E-1,2.131050110E0,9.673050880E0,9.906953291E0
1.561546762E0,1.960500032E-1,2.131050110E0,9.673050880E0,9.906953291E0
1.563510287E0,1.570500135E-1,2.169000149E0,9.634950638E0,9.877322519E0
1.565473469E0,1.570500135E-1,2.169000149E0,9.673050880E0,9.914491398E0
1.567436751E0,1.570500135E-1,2.169000149E0,9.673050880E0,9.914491398E0
1.569399973E0,1.570500135E-1,2.092950106E0,9.712050438E0,9.936248214E0
1.571363213E0,1.570500135E-1,2.169000149E0,9.634950638E0,9.877322519E0
1.573326388E0,1.960500032E-1,2.208000183E0,9.673050880E0,9.923790291E0
1.575289588E0,1.960500032E-1,2.169000149E0,9.634950638E0,9.878019591E0
1.577253003E0,1.960500032E-1,2.131050110E0,9.634950638E0,9.869756024E0
1.579216355E0,1.570500135E-1,2.169000149E0,9.634950638E0,9.877322519E0
1.581179971E0,1.570500135E-1,2.169000149E0,9.634950638E0,9.877322519E0
1.583143509E0,1.960500032E-1,2.169000149E0,9.634950638E0,9.878019591E0
1.585107057E0,1.960500032E-1,2.169000149E0,9.673050880E0,9.915185857E0
1.587070595E0,1.960500032E-1,2.131050110E0,9.673050880E0,9.906953291E0
1.589034090E0,1.960500032E-1,2.169000149E0,9.673050880E0,9.915185857E0
1.590997597E0,2.340000123E-1,2.169000149E0,9.673050880E0,9.916008823E0
1.592961006E0,1.960500032E-1,2.208000183E0,9.750000000E0,9.998809950E0
1.594924443E0,2.340000123E-1,2.131050110E0,9.673050880E0,9.907776941E0
1.596887939E0,1.960500032E-1,2.169000149E0,9.750000000E0,9.990270129E0
1.598851427E0,2.340000123E-1,2.169000149E0,9.750000000E0,9.991086910E0
1.600814795E0,2.719500065E-1,2.169000149E0,9.750000000E0,9.992047761E0
1.602778199E0,2.340000123E-1,2.208000183E0,9.712050438E0,9.962627391E0
1.604741580E0,2.340000123E-1,2.169000149E0,9.712050438E0,9.954056528E0
1.606704968E0,2.340000123E-1,2.169000149E0,9.712050438E0,9.954056528E0
1.608668376E0,1.960500032E-1,2.169000149E0,9.787950516E0,1.002731133E1
1.610631761E0,1.960500032E-1,2.169000149E0,9.750000000E0,9.990270129E0
1.612595011E0,1.960500032E-1,2.208000183E0,9.750000000E0,9.998809950E0
1.614558300E0,2.340000123E-1,2.169000149E0,9.750000000E0,9.991086910E0
1.616521700E0,1.960500032E-1,2.169000149E0,9.712050438E0,9.953236708E0
1.618485067E0,1.960500032E-1,2.208000183E0,9.712050438E0,9.961808276E0
1.620448600E0,1.960500032E-1,2.169000149E0,9.750000000E0,9.990270129E0
1.622412077E0,1.960500032E-1,2.208000183E0,9.750000000E0,9.998809950E0
1.624375311E0,2.340000123E-1,2.169000149E0,9.787950516E0,1.002812510E1
1.626338617E0,1.960500032E-1,2.169000149E0,9.787950516E0,1.002731133E1
1.628302014E0,1.960500032E-1,2.092950106E0,9.787950516E0,1.001113635E1
1.630265385E0,1.570500135E-1,2.131050110E0,9.750000000E0,9.981409684E0
1.632228547E0,2.340000123E-1,2.131050110E0,9.787950516E0,1.001998532E1
1.634191771E0,1.960500032E-1,2.169000149E0,9.750000000E0,9.990270129E0
1.636155002E0,1.960500032E-1,2.092950106E0,9.750000000E0,9.974035079E0
1.638118231E0,2.340000123E-1,2.131050110E0,9.750000000E0,9.982916937E0
1.640081328E0,1.960500032E-1,2.131050110E0,9.826950073E0,1.005727388E1
1.642044463E0,1.960500032E-1,2.131050110E0,9.750000000E0,9.982099487E0
1.644007689E0,2.340000123E-1,2.131050110E0,9.712050438E0,9.945856136E0
1.645970903E0,2.340000123E-1,2.131050110E0,9.750000000E0,9.982916937E0
1.647934093E0,1.960500032E-1,2.131050110E0,9.712050438E0,9.945035640E0
1.649897290E0,1.960500032E-1,2.131050110E0,9.712050438E0,9.945035640E0
1.651860525E0,2.340000123E-1,2.131050110E0,9.712050438E0,9.945856136E0
1.653823749E0,1.570500135E-1,2.131050110E0,9.673050880E0,9.906258255E0
1.655786967E0,1.960500032E-1,2.131050110E0,9.787950516E0,1.001917090E1
1.657750197E0,1.960500032E-1,2.131050110E0,9.712050438E0,9.945035640E0
1.659713294E0,1.960500032E-1,2.131050110E0,9.712050438E0,9.945035640E0
1.661676430E0,1.960500032E-1,2.131050110E0,9.634950638E0,9.869756024E0
1.663639856E0,1.960500032E-1,2.131050110E0,9.673050880E0,9.906953291E0
1.665603197E0,1.960500032E-1,2.092950106E0,9.712050438E0,9.936941152E0
1.667566389E0,1.960500032E-1,2.092950106E0,9.634950638E0,9.861599746E0
1.669529607E0,1.960500032E-1,2.131050110E0,9.673050880E0,9.906953291E0
1.671492705E0,2.340000123E-1,2.131050110E0,9.673050880E0,9.907776941E0
1.673455838E0,1.570500135E-1,2.131050110E0,9.673050880E0,9.906258255E0
1.675418860E0,1.960500032E-1,2.169000149E0,9.673050880E0,9.915185857E0
1.677381915E0,1.960500032E-1,2.169000149E0,9.712050438E0,9.953236708E0
1.679345225E0,2.340000123E-1,2.131050110E0,9.712050438E0,9.945856136E0
1.681308457E0,1.960500032E-1,2.131050110E0,9.712050438E0,9.945035640E0
1.683271508E0,1.960500032E-1,2.208000183E0,9.673050880E0,9.923790291E0
1.685234612E0,1.960500032E-1,2.131050110E0,9.712050438E0,9.945035640E0
1.687197819E0,1.570500135E-1,2.169000149E0,9.712050438E0,9.952544904E0
1.689160995E0,1.570500135E-1,2.131050110E0,9.673050880E0,9.906258255E0
1.691124231E0,1.960500032E-1,2.131050110E0,9.750000000E0,9.982099487E0
1.693087452E0,1.960500032E-1,2.169000149E0,9.712050438E0,9.953236708E0
1.695050505E0,1.570500135E-1,2.169000149E0,9.712050438E0,9.952544904E0
1.697013607E0,1.960500032E-1,2.131050110E0,9.712050438E0,9.945035640E0
1.698976680E0,1.960500032E-1,2.169000149E0,9.712050438E0,9.953236708E0
1.700939761E0,2.340000123E-1,2.169000149E0,9.750000000E0,9.991086910E0
1.702902881E0,2.340000123E-1,2.131050110E0,9.750000000E0,9.982916937E0
1.704865990E0,1.960500032E-1,2.169000149E0,9.750000000E0,9.990270129E0
1.706829557E0,1.960500032E-1,2.131050110E0,9.750000000E0,9.982099487E0
1.708792990E0,2.340000123E-1,2.131050110E0,9.750000000E0,9.982916937E0
1.710756187E0,1.960500032E-1,2.169000149E0,9.750000000E0,9.990270129E0
1.712719454E0,1.570500135E-1,2.131050110E0,9.750000000E0,9.981409684E0
1.714682892E0,2.340000123E-1,2.131050110E0,9.787950516E0,1.001998532E1
1.716646255E0,1.960500032E-1,2.169000149E0,9.750000000E0,9.990270129E0
1.718609464E0,1.960500032E-1,2.131050110E0,9.787950516E0,1.001917090E1
1.720572718E0,1.960500032E-1,2.169000149E0,9.750000000E0,9.990270129E0
1.722536124E0,1.960500032E-1,2.169000149E0,9.787950516E0,1.002731133E1
1.724499486E0,1.960500032E-1,2.208000183E0,9.712050438E0,9.961808276E0
1.726462934E0,1.960500032E-1,2.169000149E0,9.712050438E0,9.953236708E0
1.728426346E0,2.340000123E-1,2.208000183E0,9.750000000E0,9.999626034E0
1.730389501E0,1.960500032E-1,2.169000149E0,9.712050438E0,9.953236708E0
1.732352732E0,1.960500032E-1,2.169000149E0,9.750000000E0,9.990270129E0
1.734315828E0,1.960500032E-1,2.169000149E0,9.712050438E0,9.953236708E0
1.736278963E0,1.189500093E-1,2.169000149E0,9.750000000E0,9.989054547E0
1.738242424E0,1.570500135E-1,2.169000149E0,9.712050438E0,9.952544904E0
1.740205765E0,1.960500032E-1,2.169000149E0,9.712050438E0,9.953236708E0
1.742169337E0,1.960500032E-1,2.169000149E0,9.712050438E0,9.953236708E0
1.744132841E0,1.960500032E-1,2.092950106E0,9.712050438E0,9.936941152E0
1.746096207E0,2.340000123E-1,2.169000149E0,9.787950516E0,1.002812510E1
1.748059613E0,1.960500032E-1,2.169000149E0,9.787950516E0,1.002731133E1
1.750022798E0,1.960500032E-1,2.169000149E0,9.750000000E0,9.990270129E0
1.751986059E0,1.960500032E-1,2.169000149E0,9.712050438E0,9.953236708E0
1.753949419E0,1.960500032E-1,2.131050110E0,9.673050880E0,9.906953291E0
1.755912750E0,2.340000123E-1,2.208000183E0,9.712050438E0,9.962627391E0
1.757875829E0,2.340000123E-1,2.208000183E0,9.712050438E0,9.962627391E0
1.759838982E0,1.960500032E-1,2.131050110E0,9.673050880E0,9.906953291E0
1.761802352E0,1.960500032E-1,2.131050110E0,9.634950638E0,9.869756024E0
1.763765664E0,1.960500032E-1,2.169000149E0,9.673050880E0,9.915185857E0
1.765729106E0,2.340000123E-1,2.131050110E0,9.712050438E0,9.945856136E0
1.767692510E0,1.960500032E-1,2.169000149E0,9.712050438E0,9.953236708E0
1.769655712E0,1.960500032E-1,2.169000149E0,9.712050438E0,9.953236708E0
1.771618973E0,1.960500032E-1,2.169000149E0,9.712050438E0,9.953236708E0
1.773582353E0,2.719500065E-1,2.208000183E0,9.750000000E0,1.000058606E1
1.775545716E0,2.340000123E-1,2.169000149E0,9.673050880E0,9.916008823E0
1.777509240E0,2.340000123E-1,2.208000183E0,9.634950638E0,9.887481712E0
1.779472716E0,1.570500135E-1,2.169000149E0,9.673050880E0,9.914491398E0
1.781435905E0,1.960500032E-1,2.169000149E0,9.673050880E0,9.915185857E0
1.783399179E0,2.340000123E-1,2.245950222E0,9.597000122E0,9.859080066E0
1.785362448E0,1.960500032E-1,2.208000183E0,9.673050880E0,9.923790291E0
1.787325718E0,1.960500032E-1,2.208000183E0,9.634950638E0,9.886656371E0
1.789288761E0,1.960500032E-1,2.208000183E0,9.634950638E0,9.886656371E0
1.791251871E0,1.960500032E-1,2.208000183E0,9.634950638E0,9.886656371E0
1.793214942E0,1.570500135E-1,2.208000183E0,9.634950638E0,9.885959908E0
1.795178025E0,1.570500135E-1,2.208000183E0,9.673050880E0,9.923096435E0
1.797141221E0,1.960500032E-1,2.208000183E0,9.634950638E0,9.886656371E0
1.799104394E0,1.570500135E-1,2.169000149E0,9.597000122E0,9.840306789E0
1.801067680E0,2.340000123E-1,2.208000183E0,9.597000122E0,9.850504158E0
1.803030932E0,1.960500032E-1,2.208000183E0,9.597000122E0,9.849675718E0
1.804994115E0,2.340000123E-1,2.208000183E0,9.634950638E0,9.887481712E0
1.806957319E0,1.960500032E-1,2.208000183E0,9.558000565E0,9.811680549E0
1.808920429E0,1.960500032E-1,2.245950222E0,9.634950638E0,9.895200948E0
1.810883560E0,1.570500135E-1,2.208000183E0,9.634950638E0,9.885959908E0
1.812846761E0,1.570500135E-1,2.245950222E0,9.634950638E0,9.894505086E0
1.814809942E0,1.570500135E-1,2.245950222E0,9.558000565E0,9.819589192E0
1.816772868E0,1.960500032E-1,2.208000183E0,9.597000122E0,9.849675718E0
1.818735868E0,1.960500032E-1,2.208000183E0,9.597000122E0,9.849675718E0
1.820698763E0,1.570500135E-1,2.208000183E0,9.634950638E0,9.885959908E0
1.822661699E0,1.960500032E-1,2.208000183E0,9.597000122E0,9.849675718E0
1.824624754E0,1.570500135E-1,2.169000149E0,9.597000122E0,9.840306789E0
1.826587774E0,1.960500032E-1,2.208000183E0,9.597000122E0,9.849675718E0
1.828550727E0,1.570500135E-1,2.208000183E0,9.634950638E0,9.885959908E0
1.830513699E0,2.340000123E-1,2.208000183E0,9.597000122E0,9.850504158E0
1.832476633E0,1.960500032E-1,2.208000183E0,9.597000122E0,9.849675718E0
1.834439564E0,1.960500032E-1,2.169000149E0,9.597000122E0,9.841006483E0
1.836402620E0,2.340000123E-1,2.208000183E0,9.597000122E0,9.850504158E0
1.838365639E0,1.960500032E-1,2.208000183E0,9.558000565E0,9.811680549E0
1.840328592E0,2.340000123E-1,2.169000149E0,9.597000122E0,9.841835652E0
1.842291564E0,2.340000123E-1,2.169000149E0,9.597000122E0,9.841835652E0
1.844254503E0,1.960500032E-1,2.208000183E0,9.597000122E0,9.849675718E0
1.846217434E0,2.340000123E-1,2.208000183E0,9.558000565E0,9.812512197E0
1.848180131E0,2.340000123E-1,2.169000149E0,9.673050880E0,9.916008823E0
1.850142896E0,2.340000123E-1,2.208000183E0,9.634950638E0,9.887481712E0
1.852105710E0,1.960500032E-1,2.131050110E0,9.597000122E0,9.832711809E0
1.854068509E0,1.960500032E-1,2.208000183E0,9.634950638E0,9.886656371E0
1.856031448E0,2.340000123E-1,2.208000183E0,9.597000122E0,9.850504158E0
1.857994350E0,1.960500032E-1,2.169000149E0,9.673050880E0,9.915185857E0
1.859957233E0,2.340000123E-1,2.169000149E0,9.634950638E0,9.878845653E0
1.861920121E0,2.719500065E-1,2.131050110E0,9.634950638E0,9.871555357E0
1.863883410E0,2.340000123E-1,2.208000183E0,9.634950638E0,9.887481712E0
1.865846581E0,2.340000123E-1,2.131050110E0,9.673050880E0,9.907776941E0
1.867809342E0,1.960500032E-1,2.131050110E0,9.634950638E0,9.869756024E0
1.869772213E0,2.719500065E-1,2.169000149E0,9.634950638E0,9.879817420E0
1.871735640E0,2.340000123E-1,2.131050110E0,9.673050880E0,9.907776941E0
1.873698904E0,1.960500032E-1,2.131050110E0,9.634950638E0,9.869756024E0
1.875661950E0,2.719500065E-1,2.131050110E0,9.597000122E0,9.834517920E0
1.877625060E0,2.719500065E-1,2.131050110E0,9.673050880E0,9.908745870E0
1.879588526E0,3.109500110E-1,2.131050110E0,9.634950638E0,9.872706735E0
1.881551894E0,2.719500065E-1,2.131050110E0,9.673050880E0,9.908745870E0
1.883515417E0,2.719500065E-1,2.131050110E0,9.673050880E0,9.908745870E0
1.885478894E0,2.719500065E-1,2.169000149E0,9.597000122E0,9.842811072E0
1.887442128E0,2.719500065E-1,2.131050110E0,9.634950638E0,9.871555357E0
1.889405434E0,2.340000123E-1,2.131050110E0,9.634950638E0,9.870582778E0
1.891368657E0,2.719500065E-1,2.169000149E0,9.634950638E0,9.879817420E0
1.893331901E0,2.719500065E-1,2.131050110E0,9.597000122E0,9.834517920E0
1.895295129E0,2.719500065E-1,2.169000149E0,9.673050880E0,9.916976948E0
1.897258362E0,2.340000123E-1,2.131050110E0,9.673050880E0,9.907776941E0
1.899221593E0,2.340000123E-1,2.131050110E0,9.673050880E0,9.907776941E0
1.901184824E0,2.340000123E-1,2.131050110E0,9.673050880E0,9.907776941E0
1.903148174E0,2.340000123E-1,2.131050110E0,9.634950638E0,9.870582778E0
1.905111499E0,2.340000123E-1,2.208000183E0,9.673050880E0,9.924612544E0
1.907074715E0,2.340000123E-1,2.131050110E0,9.750000000E0,9.982916937E0
1.909037963E0,2.340000123E-1,2.169000149E0,9.634950638E0,9.878845653E0
1.911001235E0,2.719500065E-1,2.131050110E0,9.673050880E0,9.908745870E0
1.912964499E0,2.719500065E-1,2.131050110E0,9.673050880E0,9.908745870E0
1.914927491E0,2.340000123E-1,2.131050110E0,9.673050880E0,9.907776941E0
1.916890569E0,2.340000123E-1,2.092950106E0,9.673050880E0,9.899651988E0
1.918853510E0,2.340000123E-1,2.169000149E0,9.750000000E0,9.991086910E0
1.920816492E0,2.719500065E-1,2.053950071E0,9.712050438E0,9.930588674E0
1.922779225E0,2.719500065E-1,2.092950106E0,9.712050438E0,9.938728322E0
1.924742031E0,2.719500065E-1,2.092950106E0,9.750000000E0,9.975815603E0
1.926705089E0,2.340000123E-1,2.092950106E0,9.750000000E0,9.974853189E0
1.928668087E0,2.719500065E-1,2.092950106E0,9.712050438E0,9.938728322E0
1.930631403E0,2.340000123E-1,2.131050110E0,9.712050438E0,9.945856136E0
1.932594625E0,2.340000123E-1,2.131050110E0,9.673050880E0,9.907776941E0
1.934558037E0,2.719500065E-1,2.131050110E0,9.673050880E0,9.908745870E0
1.936521394E0,2.719500065E-1,2.092950106E0,9.673050880E0,9.900621712E0
1.938484383E0,2.719500065E-1,2.131050110E0,9.673050880E0,9.908745870E0
1.940447477E0,2.340000123E-1,2.169000149E0,9.673050880E0,9.916008823E0
1.942410416E0,2.719500065E-1,2.092950106E0,9.634950638E0,9.863400567E0
1.944373400E0,2.340000123E-1,2.131050110E0,9.673050880E0,9.907776941E0
1.946336627E0,2.340000123E-1,2.131050110E0,9.673050880E0,9.907776941E0
1.948299783E0,2.340000123E-1,2.092950106E0,9.673050880E0,9.899651988E0
1.950263106E0,2.340000123E-1,2.169000149E0,9.673050880E0,9.916008823E0
1.952226356E0,2.340000123E-1,2.131050110E0,9.673050880E0,9.907776941E0
1.954189540E0,1.570500135E-1,2.131050110E0,9.673050880E0,9.906258255E0
1.956152743E0,1.960500032E-1,2.169000149E0,9.673050880E0,9.915185857E0
1.958115843E0,2.340000123E-1,2.169000149E0,9.634950638E0,9.878845653E0
1.960078974E0,1.570500135E-1,2.131050110E0,9.673050880E0,9.906258255E0
1.962041861E0,1.570500135E-1,2.169000149E0,9.712050438E0,9.952544904E0
1.964004820E0,2.340000123E-1,2.169000149E0,9.673050880E0,9.916008823E0
1.965967556E0,2.340000123E-1,2.131050110E0,9.712050438E0,9.945856136E0
1.967930358E0,1.960500032E-1,2.169000149E0,9.673050880E0,9.915185857E0
1.969893301E0,1.960500032E-1,2.169000149E0,9.712050438E0,9.953236708E0
1.971856203E0,1.960500032E-1,2.208000183E0,9.712050438E0,9.961808276E0
1.973818964E0,2.340000123E-1,2.169000149E0,9.712050438E0,9.954056528E0
1.975781757E0,1.960500032E-1,2.169000149E0,9.712050438E0,9.953236708E0
1.977744701E0,1.960500032E-1,2.169000149E0,9.750000000E0,9.990270129E0
1.979707601E0,1.570500135E-1,2.169000149E0,9.750000000E0,9.989580890E0
1.981670528E0,1.570500135E-1,2.169000149E0,9.750000000E0,9.989580890E0
1.983633447E0,1.960500032E-1,2.131050110E0,9.787950516E0,1.001917090E1
1.985596192E0,1.960500032E-1,2.169000149E0,9.826950073E0,1.006538350E1
1.987558988E0,2.340000123E-1,2.208000183E0,9.826950073E0,1.007466965E1
1.989522247E0,1.570500135E-1,2.208000183E0,9.787950516E0,1.003513352E1
1.991485370E0,1.960500032E-1,2.169000149E0,9.826950073E0,1.006538350E1
1.993448125E0,1.960500032E-1,2.169000149E0,9.865050316E0,1.010258457E1
1.995410988E0,2.340000123E-1,2.169000149E0,9.787950516E0,1.002812510E1
1.997374471E0,2.340000123E-1,2.208000183E0,9.787950516E0,1.003663271E1
1.999337765E0,1.570500135E-1,2.169000149E0,9.826950073E0,1.006469940E1
2.001300806E0,1.960500032E-1,2.208000183E0,9.787950516E0,1.003581963E1
2.003263921E0,1.960500032E-1,2.169000149E0,9.826950073E0,1.006538350E1
2.005227306E0,1.960500032E-1,2.169000149E0,9.787950516E0,1.002731133E1
2.007190611E0,1.960500032E-1,2.208000183E0,9.865050316E0,1.011102953E1
2.009153889E0,1.960500032E-1,2.208000183E0,9.865050316E0,1.011102953E1
2.011117166E0,1.960500032E-1,2.169000149E0,9.826950073E0,1.006538350E1
2.013080343E0,1.960500032E-1,2.208000183E0,9.787950516E0,1.003581963E1
2.015043550E0,1.960500032E-1,2.169000149E0,9.826950073E0,1.006538350E1
2.017006469E0,1.570500135E-1,2.208000183E0,9.826950073E0,1.007317613E1
2.018969473E0,1.570500135E-1,2.169000149E0,9.787950516E0,1.002662464E1
2.020932556E0,1.570500135E-1,2.245950222E0,9.787950516E0,1.004355178E1
2.022895620E0,1.570500135E-1,2.208000183E0,9.750000000E0,9.998121299E0
2.024859015E0,1.960500032E-1,2.131050110E0,9.826950073E0,1.005727388E1
2.026822313E0,1.570500135E-1,2.169000149E0,9.826950073E0,1.006469940E1
2.028785893E0,1.570500135E-1,2.169000149E0,9.787950516E0,1.002662464E1
2.030749390E0,1.570500135E-1,2.208000183E0,9.865050316E0,1.011034852E1
2.032712597E0,1.189500093E-1,2.169000149E0,9.826950073E0,1.006417699E1
2.034675906E0,1.570500135E-1,2.131050110E0,9.787950516E0,1.001848365E1
2.036639438E0,1.189500093E-1,2.131050110E0,9.750000000E0,9.980882911E0
2.038602904E0,1.570500135E-1,2.208000183E0,9.787950516E0,1.003513352E1
2.040566321E0,1.570500135E-1,2.169000149E0,9.787950516E0,1.002662464E1
2.042529752E0,8.100000024E-2,2.131050110E0,9.787950516E0,1.001758009E1
2.044493342E0,8.100000024E-2,2.131050110E0,9.787950516E0,1.001758009E1
2.046456861E0,1.189500093E-1,2.169000149E0,9.787950516E0,1.002610024E1
2.048420359E0,8.100000024E-2,2.169000149E0,9.787950516E0,1.002572182E1
2.050383863E0,8.100000024E-2,2.169000149E0,9.712050438E0,9.951635361E0
2.052347406E0,8.100000024E-2,2.169000149E0,9.787950516E0,1.002572182E1
2.054310938E0,8.100000024E-2,2.131050110E0,9.787950516E0,1.001758009E1
2.056274319E0,1.189500093E-1,2.169000149E0,9.787950516E0,1.002610024E1
2.058237762E0,1.189500093E-1,2.169000149E0,9.750000000E0,9.989054547E0
2.060201092E0,1.189500093E-1,2.131050110E0,9.750000000E0,9.980882911E0
2.062164455E0,1.570500135E-1,2.169000149E0,9.750000000E0,9.989580890E0
2.064127842E0,1.189500093E-1,2.131050110E0,9.750000000E0,9.980882911E0
2.066091222E0,1.189500093E-1,2.131050110E0,9.712050438E0,9.943814529E0
2.068054229E0,1.189500093E-1,2.131050110E0,9.750000000E0,9.980882911E0
2.070017359E0,1.960500032E-1,2.169000149E0,9.712050438E0,9.953236708E0
2.071980471E0,1.570500135E-1,2.131050110E0,9.712050438E0,9.944343266E0
2.073943589E0,1.189500093E-1,2.169000149E0,9.712050438E0,9.952016603E0
2.075906838E0,1.570500135E-1,2.131050110E0,9.712050438E0,9.944343266E0
2.077870049E0,1.570500135E-1,2.169000149E0,9.750000000E0,9.989580890E0
2.079833234E0,1.960500032E-1,2.169000149E0,9.750000000E0,9.990270129E0
2.081796431E0,1.960500032E-1,2.131050110E0,9.712050438E0,9.945035640E0
2.083759532E0,1.960500032E-1,2.131050110E0,9.712050438E0,9.945035640E0
2.085722661E0,2.340000123E-1,2.131050110E0,9.634950638E0,9.870582778E0
2.087685863E0,2.340000123E-1,2.131050110E0,9.750000000E0,9.982916937E0
2.089649044E0,2.340000123E-1,2.131050110E0,9.712050438E0,9.945856136E0
2.091612130E0,2.340000123E-1,2.092950106E0,9.750000000E0,9.974853189E0
2.093575258E0,2.340000123E-1,2.131050110E0,9.712050438E0,9.945856136E0
2.095538640E0,1.570500135E-1,2.131050110E0,9.673050880E0,9.906258255E0
2.097501948E0,1.960500032E-1,2.131050110E0,9.712050438E0,9.945035640E0
2.099465212E0,1.960500032E-1,2.131050110E0,9.634950638E0,9.869756024E0
2.101428489E0,1.960500032E-1,2.131050110E0,9.673050880E0,9.906953291E0
2.103391511E0,2.340000123E-1,2.131050110E0,9.750000000E0,9.982916937E0
2.105354622E0,2.340000123E-1,2.169000149E0,9.712050438E0,9.954056528E0
2.107318188E0,1.960500032E-1,2.208000183E0,9.712050438E0,9.961808276E0
2.109281620E0,2.340000123E-1,2.131050110E0,9.673050880E0,9.907776941E0
2.111245043E0,2.340000123E-1,2.169000149E0,9.712050438E0,9.954056528E0
2.113208469E0,2.340000123E-1,2.092950106E0,9.750000000E0,9.974853189E0
2.115171602E0,2.719500065E-1,2.131050110E0,9.673050880E0,9.908745870E0
2.117134834E0,2.340000123E-1,2.131050110E0,9.634950638E0,9.870582778E0
2.119098109E0,1.960500032E-1,2.092950106E0,9.673050880E0,9.898827662E0
2.121061371E0,1.960500032E-1,2.092950106E0,9.712050438E0,9.936941152E0
2.123024777E0,2.340000123E-1,2.131050110E0,9.712050438E0,9.945856136E0
2.124988140E0,2.340000123E-1,2.131050110E0,9.673050880E0,9.907776941E0
2.126951528E0,2.340000123E-1,2.169000149E0,9.673050880E0,9.916008823E0
2.128914909E0,2.340000123E-1,2.131050110E0,9.750000000E0,9.982916937E0
2.130878294E0,2.719500065E-1,2.131050110E0,9.673050880E0,9.908745870E0
2.132841678E0,2.340000123E-1,2.169000149E0,9.712050438E0,9.954056528E0
2.134805063E0,2.340000123E-1,2.131050110E0,9.712050438E0,9.945856136E0
2.136768448E0,2.340000123E-1,2.131050110E0,9.712050438E0,9.945856136E0
2.138731813E0,2.340000123E-1,2.169000149E0,9.673050880E0,9.916008823E0
2.140695198E0,2.340000123E-1,2.131050110E0,9.673050880E0,9.907776941E0
2.142658583E0,2.340000123E-1,2.131050110E0,9.712050438E0,9.945856136E0
2.144621968E0,2.340000123E-1,2.169000149E0,9.712050438E0,9.954056528E0
2.146585172E0,1.960500032E-1,2.169000149E0,9.634950638E0,9.878019591E0
2.148548430E0,1.960500032E-1,2.131050110E0,9.673050880E0,9.906953291E0
2.150511665E0,1.960500032E-1,2.169000149E0,9.673050880E0,9.915185857E0
2.152474900E0,1.960500032E-1,2.169000149E0,9.634950638E0,9.878019591E0
2.154438309E0,1.189500093E-1,2.131050110E0,9.673050880E0,9.905727485E0
2.156401667E0,1.960500032E-1,2.169000149E0,9.673050880E0,9.915185857E0
2.158365057E0,1.960500032E-1,2.169000149E0,9.634950638E0,9.878019591E0
2.160328437E0,1.960500032E-1,2.208000183E0,9.597000122E0,9.849675718E0
2.162291764E0,2.340000123E-1,2.169000149E0,9.634950638E0,9.878845653E0
2.164255117E0,1.960500032E-1,2.208000183E0,9.597000122E0,9.849675718E0
2.166218147E0,1.960500032E-1,2.131050110E0,9.673050880E0,9.906953291E0
2.168181271E0,2.340000123E-1,2.169000149E0,9.634950638E0,9.878845653E0
2.170144385E0,1.960500032E-1,2.131050110E0,9.558000565E0,9.794650834E0
2.172107502E0,2.340000123E-1,2.169000149E0,9.673050880E0,9.916008823E0
2.174070895E0,2.340000123E-1,2.131050110E0,9.712050438E0,9.945856136E0
2.176034201E0,1.960500032E-1,2.208000183E0,9.634950638E0,9.886656371E0
2.177997465E0,2.719500065E-1,2.169000149E0,9.634950638E0,9.879817420E0
2.179960741E0,2.340000123E-1,2.169000149E0,9.673050880E0,9.916008823E0
2.181924099E0,2.340000123E-1,2.169000149E0,9.634950638E0,9.878845653E0
2.183887432E0,2.340000123E-1,2.169000149E0,9.634950638E0,9.878845653E0
2.185850627E0,2.719500065E-1,2.169000149E0,9.673050880E0,9.916976948E0
2.187813876E0,2.340000123E-1,2.131050110E0,9.673050880E0,9.907776941E0
2.189777148E0,2.340000123E-1,2.131050110E0,9.673050880E0,9.907776941E0
2.191740413E0,2.719500065E-1,2.169000149E0,9.673050880E0,9.916976948E0
2.193703773E0,3.109500110E-1,2.131050110E0,9.673050880E0,9.909892927E0
2.195667105E0,2.719500065E-1,2.131050110E0,9.673050880E0,9.908745870E0
2.197630356E0,3.109500110E-1,2.169000149E0,9.634950638E0,9.880967835E0
2.199593637E0,3.109500110E-1,2.169000149E0,9.673050880E0,9.918123053E0
2.201556678E0,2.719500065E-1,2.169000149E0,9.673050880E0,9.916976948E0
2.203519790E0,2.340000123E-1,2.169000149E0,9.634950638E0,9.878845653E0
2.205483040E0,2.719500065E-1,2.131050110E0,9.634950638E0,9.871555357E0
2.207446250E0,3.109500110E-1,2.131050110E0,9.634950638E0,9.872706735E0
2.209409441E0,2.719500065E-1,2.131050110E0,9.673050880E0,9.908745870E0
2.211372637E0,2.719500065E-1,2.131050110E0,9.634950638E0,9.871555357E0
2.213335738E0,2.719500065E-1,2.131050110E0,9.597000122E0,9.834517920E0
2.215298867E0,2.719500065E-1,2.092950106E0,9.634950638E0,9.863400567E0
2.217261935E0,2.719500065E-1,2.131050110E0,9.597000122E0,9.834517920E0
2.219225021E0,2.340000123E-1,2.131050110E0,9.558000565E0,9.795483927E0
2.221188060E0,2.719500065E-1,2.169000149E0,9.673050880E0,9.916976948E0
2.223151107E0,2.340000123E-1,2.169000149E0,9.597000122E0,9.841835652E0
2.225113874E0,2.340000123E-1,2.169000149E0,9.597000122E0,9.841835652E0
2.227076723E0,2.340000123E-1,2.169000149E0,9.597000122E0,9.841835652E0
2.229039973E0,1.960500032E-1,2.131050110E0,9.673050880E0,9.906953291E0
2.231003105E0,2.340000123E-1,2.131050110E0,9.673050880E0,9.907776941E0
2.232966112E0,1.960500032E-1,2.169000149E0,9.634950638E0,9.878019591E0
2.234929199E0,1.960500032E-1,2.131050110E0,9.673050880E0,9.906953291E0
2.236892318E0,1.960500032E-1,2.169000149E0,9.673050880E0,9.915185857E0
2.238855428E0,1.960500032E-1,2.245950222E0,9.712050438E0,9.970288447E0
2.240818679E0,2.340000123E-1,2.208000183E0,9.712050438E0,9.962627391E0
2.242781889E0,2.340000123E-1,2.169000149E0,9.673050880E0,9.916008823E0
2.244745104E0,1.960500032E-1,2.169000149E0,9.673050880E0,9.915185857E0
2.246708331E0,1.960500032E-1,2.208000183E0,9.673050880E0,9.923790291E0
2.248671519E0,2.340000123E-1,2.169000149E0,9.712050438E0,9.954056528E0
2.250634718E0,1.960500032E-1,2.208000183E0,9.673050880E0,9.923790291E0
2.252597458E0,1.960500032E-1,2.208000183E0,9.712050438E0,9.961808276E0
2.254560333E0,1.960500032E-1,2.169000149E0,9.673050880E0,9.915185857E0
2.256523478E0,1.570500135E-1,2.208000183E0,9.712050438E0,9.961117067E0
2.258486519E0,2.340000123E-1,2.169000149E0,9.712050438E0,9.954056528E0
2.260449602E0,2.340000123E-1,2.208000183E0,9.712050438E0,9.962627391E0
2.262412673E0,1.960500032E-1,2.169000149E0,9.673050880E0,9.915185857E0
2.264375886E0,2.340000123E-1,2.169000149E0,9.750000000E0,9.991086910E0
2.266339057E0,2.340000123E-1,2.169000149E0,9.673050880E0,9.916008823E0
2.268301823E0,2.340000123E-1,2.169000149E0,9.712050438E0,9.954056528E0
2.270264694E0,2.340000123E-1,2.208000183E0,9.750000000E0,9.999626034E0
2.272227400E0,1.960500032E-1,2.169000149E0,9.673050880E0,9.915185857E0
2.274190155E0,2.340000123E-1,2.208000183E0,9.712050438E0,9.962627391E0
2.276152971E0,2.340000123E-1,2.208000183E0,9.673050880E0,9.924612544E0
2.278115769E0,1.960500032E-1,2.169000149E0,9.673050880E0,9.915185857E0
2.280078927E0,1.960500032E-1,2.169000149E0,9.673050880E0,9.915185857E0
2.282041956E0,2.340000123E-1,2.169000149E0,9.673050880E0,9.916008823E0
2.284005222E0,1.960500032E-1,2.208000183E0,9.673050880E0,9.923790291E0
2.285968418E0,2.340000123E-1,2.169000149E0,9.712050438E0,9.954056528E0
2.287931431E0,1.960500032E-1,2.169000149E0,9.634950638E0,9.878019591E0
2.289894497E0,2.340000123E-1,2.208000183E0,9.712050438E0,9.962627391E0
2.291857629E0,1.960500032E-1,2.208000183E0,9.712050438E0,9.961808276E0
2.293820735E0,2.340000123E-1,2.169000149E0,9.750000000E0,9.991086910E0
2.295783628E0,1.960500032E-1,2.169000149E0,9.712050438E0,9.953236708E0
2.297746583E0,1.960500032E-1,2.131050110E0,9.826950073E0,1.005727388E1
2.299709860E0,2.340000123E-1,2.092950106E0,9.787950516E0,1.001195143E1
2.301673042E0,2.340000123E-1,2.131050110E0,9.826950073E0,1.005808522E1
2.303636067E0,2.340000123E-1,2.169000149E0,9.750000000E0,9.991086910E0
2.305599131E0,2.340000123E-1,2.169000149E0,9.787950516E0,1.002812510E1
2.307562254E0,2.340000123E-1,2.245950222E0,9.750000000E0,1.000807416E1
2.309525360E0,1.960500032E-1,2.169000149E0,9.787950516E0,1.002731133E1
2.311488073E0,1.570500135E-1,2.208000183E0,9.750000000E0,9.998121299E0
2.313450901E0,1.570500135E-1,2.169000149E0,9.750000000E0,9.989580890E0
2.315413834E0,1.960500032E-1,2.208000183E0,9.750000000E0,9.998809950E0
2.317376740E0,1.960500032E-1,2.169000149E0,9.787950516E0,1.002731133E1
2.319339801E0,1.960500032E-1,2.169000149E0,9.712050438E0,9.953236708E0
2.321302817E0,1.570500135E-1,2.208000183E0,9.712050438E0,9.961117067E0
2.323266129E0,1.960500032E-1,2.208000183E0,9.712050438E0,9.961808276E0
2.325229355E0,1.570500135E-1,2.208000183E0,9.750000000E0,9.998121299E0
2.327192367E0,1.960500032E-1,2.169000149E0,9.712050438E0,9.953236708E0
2.329155439E0,1.570500135E-1,2.169000149E0,9.750000000E0,9.989580890E0
2.331118336E0,1.570500135E-1,2.131050110E0,9.673050880E0,9.906258255E0
2.333081285E0,1.570500135E-1,2.169000149E0,9.712050438E0,9.952544904E0
2.335044608E0,1.570500135E-1,2.169000149E0,9.634950638E0,9.877322519E0
2.337007822E0,8.100000024E-2,2.169000149E0,9.712050438E0,9.951635361E0
2.338971065E0,1.189500093E-1,2.169000149E0,9.673050880E0,9.913961069E0
2.340934293E0,1.960500032E-1,2.208000183E0,9.673050880E0,9.923790291E0
2.342897165E0,1.960500032E-1,2.169000149E0,9.673050880E0,9.915185857E0
2.344860141E0,1.570500135E-1,2.169000149E0,9.673050880E0,9.914491398E0
2.346823234E0,1.960500032E-1,2.131050110E0,9.712050438E0,9.945035640E0
2.348786293E0,1.570500135E-1,2.169000149E0,9.673050880E0,9.914491398E0
2.350749541E0,1.960500032E-1,2.169000149E0,9.673050880E0,9.915185857E0
2.352712711E0,2.340000123E-1,2.131050110E0,9.673050880E0,9.907776941E0
2.354675773E0,1.960500032E-1,2.131050110E0,9.634950638E0,9.869756024E0
2.356638867E0,1.570500135E-1,2.169000149E0,9.673050880E0,9.914491398E0
2.358601985E0,1.960500032E-1,2.131050110E0,9.712050438E0,9.945035640E0
2.360565096E0,1.570500135E-1,2.131050110E0,9.712050438E0,9.944343266E0
2.362528178E0,2.340000123E-1,2.169000149E0,9.712050438E0,9.954056528E0
2.364491261E0,1.960500032E-1,2.131050110E0,9.865050316E0,1.009450484E1
2.366454337E0,1.570500135E-1,2.092950106E0,9.787950516E0,1.001044855E1
2.368417415E0,1.960500032E-1,2.092950106E0,9.750000000E0,9.974035079E0
2.370380626E0,1.570500135E-1,2.131050110E0,9.750000000E0,9.981409684E0
2.372343798E0,1.960500032E-1,2.169000149E0,9.750000000E0,9.990270129E0
2.374307098E0,1.960500032E-1,2.169000149E0,9.750000000E0,9.990270129E0
2.376270350E0,1.570500135E-1,2.208000183E0,9.750000000E0,9.998121299E0
2.378233533E0,1.960500032E-1,2.169000149E0,9.787950516E0,1.002731133E1
2.380196737E0,2.340000123E-1,2.169000149E0,9.787950516E0,1.002812510E1
2.382160016E0,1.960500032E-1,2.208000183E0,9.750000000E0,9.998809950E0
2.384123273E0,2.340000123E-1,2.169000149E0,9.712050438E0,9.954056528E0
2.386086442E0,2.340000123E-1,2.131050110E0,9.712050438E0,9.945856136E0
2.388049646E0,2.340000123E-1,2.131050110E0,9.750000000E0,9.982916937E0
2.390012881E0,2.719500065E-1,2.131050110E0,9.750000000E0,9.983878574E0
2.391976106E0,2.340000123E-1,2.131050110E0,9.787950516E0,1.001998532E1
2.393939203E0,2.719500065E-1,2.092950106E0,9.787950516E0,1.001291028E1
2.395902338E0,2.340000123E-1,2.131050110E0,9.826950073E0,1.005808522E1
2.397865900E0,2.719500065E-1,2.169000149E0,9.750000000E0,9.992047761E0
2.399829336E0,2.719500065E-1,2.131050110E0,9.787950516E0,1.002094340E1
2.401792218E0,2.340000123E-1,2.092950106E0,9.712050438E0,9.937762317E0
2.403755262E0,2.719500065E-1,2.169000149E0,9.750000000E0,9.992047761E0
2.405718478E0,2.719500065E-1,2.092950106E0,9.712050438E0,9.938728322E0
2.407681644E0,1.960500032E-1,2.092950106E0,9.787950516E0,1.001113635E1
2.409644723E0,2.340000123E-1,2.131050110E0,9.750000000E0,9.982916937E0
2.411607848E0,1.960500032E-1,2.131050110E0,9.750000000E0,9.982099487E0
2.413570917E0,1.960500032E-1,2.131050110E0,9.750000000E0,9.982099487E0
2.415534002E0,1.960500032E-1,2.131050110E0,9.787950516E0,1.001917090E1
2.417497256E0,1.960500032E-1,2.169000149E0,9.750000000E0,9.990270129E0
2.419460461E0,1.960500032E-1,2.131050110E0,9.750000000E0,9.982099487E0
2.421423652E0,2.340000123E-1,2.131050110E0,9.787950516E0,1.001998532E1
2.423386848E0,2.340000123E-1,2.131050110E0,9.712050438E0,9.945856136E0
2.425349769E0,2.340000123E-1,2.169000149E0,9.750000000E0,9.991086910E0
2.427312771E0,2.340000123E-1,2.131050110E0,9.750000000E0,9.982916937E0
2.429275815E0,2.340000123E-1,2.092950106E0,9.712050438E0,9.937762317E0
2.431238846E0,1.960500032E-1,2.131050110E0,9.750000000E0,9.982099487E0
2.433201965E0,1.960500032E-1,2.131050110E0,9.750000000E0,9.982099487E0
2.435165034E0,2.340000123E-1,2.092950106E0,9.712050438E0,9.937762317E0
2.437128292E0,2.340000123E-1,2.092950106E0,9.750000000E0,9.974853189E0
2.439091495E0,2.340000123E-1,2.053950071E0,9.750000000E0,9.966743044E0
2.441054551E0,1.960500032E-1,2.092950106E0,9.750000000E0,9.974035079E0
2.443017651E0,2.340000123E-1,2.092950106E0,9.673050880E0,9.899651988E0
2.444980943E0,2.719500065E-1,2.131050110E0,9.673050880E0,9.908745870E0
2.446944183E0,2.719500065E-1,2.131050110E0,9.673050880E0,9.908745870E0
2.448907233E0,2.719500065E-1,2.092950106E0,9.712050438E0,9.938728322E0
2.450870339E0,3.109500110E-1,2.092950106E0,9.634950638E0,9.864552896E0
2.452833231E0,3.109500110E-1,2.053950071E0,9.634950638E0,9.856351992E0
2.454796185E0,2.719500065E-1,2.092950106E0,9.673050880E0,9.900621712E0
2.456759272E0,2.719500065E-1,2.092950106E0,9.634950638E0,9.863400567E0
2.458722327E0,2.340000123E-1,2.053950071E0,9.634950638E0,9.854224510E0
2.460685543E0,2.719500065E-1,2.131050110E0,9.673050880E0,9.908745870E0
2.462648711E0,2.719500065E-1,2.131050110E0,9.673050880E0,9.908745870E0
2.464611819E0,2.719500065E-1,2.092950106E0,9.634950638E0,9.863400567E0
2.466574944E0,2.719500065E-1,2.131050110E0,9.712050438E0,9.946821356E0
2.468538159E0,2.719500065E-1,2.131050110E0,9.750000000E0,9.983878574E0
2.470501371E0,2.719500065E-1,2.131050110E0,9.750000000E0,9.983878574E0
2.472464785E0,2.719500065E-1,2.131050110E0,9.712050438E0,9.946821356E0
2.474428140E0,2.719500065E-1,2.131050110E0,9.673050880E0,9.908745870E0
2.476391486E0,2.719500065E-1,2.131050110E0,9.673050880E0,9.908745870E0
2.478354834E0,2.340000123E-1,2.131050110E0,9.634950638E0,9.870582778E0
2.480318240E0,2.719500065E-1,2.131050110E0,9.673050880E0,9.908745870E0
2.482281649E0,2.340000123E-1,2.131050110E0,9.634950638E0,9.870582778E0
2.484244986E0,2.719500065E-1,2.131050110E0,9.673050880E0,9.908745870E0
2.486208344E0,2.340000123E-1,2.169000149E0,9.673050880E0,9.916008823E0
2.488171732E0,2.340000123E-1,2.131050110E0,9.673050880E0,9.907776941E0
2.490135111E0,2.340000123E-1,2.169000149E0,9.673050880E0,9.916008823E0
2.492098146E0,2.340000123E-1,2.131050110E0,9.634950638E0,9.870582778E0
2.494061276E0,2.340000123E-1,2.169000149E0,9.634950638E0,9.878845653E0
2.496024748E0,2.340000123E-1,2.169000149E0,9.634950638E0,9.878845653E0
2.497988120E0,2.340000123E-1,2.208000183E0,9.673050880E0,9.924612544E0
2.499951642E0,1.960500032E-1,2.169000149E0,9.673050880E0,9.915185857E0
2.501915120E0,2.340000123E-1,2.131050110E0,9.673050880E0,9.907776941E0
2.503878490E0,2.340000123E-1,2.131050110E0,9.673050880E0,9.907776941E0
2.505841891E0,2.340000123E-1,2.131050110E0,9.712050438E0,9.945856136E0
2.507805138E0,2.340000123E-1,2.169000149E0,9.673050880E0,9.916008823E0
2.509768430E0,1.960500032E-1,2.131050110E0,9.673050880E0,9.906953291E0
2.511732010E0,2.340000123E-1,2.169000149E0,9.634950638E0,9.878845653E0
2.513695505E0,2.719500065E-1,2.169000149E0,9.673050880E0,9.916976948E0
2.515658833E0,2.340000123E-1,2.131050110E0,9.634950638E0,9.870582778E0
2.517622205E0,2.340000123E-1,2.169000149E0,9.597000122E0,9.841835652E0
2.519585456E0,2.340000123E-1,2.169000149E0,9.597000122E0,9.841835652E0
2.521548743E0,2.340000123E-1,2.169000149E0,9.673050880E0,9.916008823E0
2.523511964E0,1.960500032E-1,2.131050110E0,9.634950638E0,9.869756024E0
2.525475205E0,2.340000123E-1,2.169000149E0,9.597000122E0,9.841835652E0
2.527438714E0,1.960500032E-1,2.208000183E0,9.634950638E0,9.886656371E0
2.529402169E0,1.960500032E-1,2.169000149E0,9.634950638E0,9.878019591E0
2.531365542E0,1.960500032E-1,2.169000149E0,9.634950638E0,9.878019591E0
2.533328940E0,1.960500032E-1,2.169000149E0,9.634950638E0,9.878019591E0
2.535292547E0,1.960500032E-1,2.169000149E0,9.597000122E0,9.841006483E0
2.537256092E0,1.960500032E-1,2.208000183E0,9.673050880E0,9.923790291E0
2.539219912E0,1.960500032E-1,2.208000183E0,9.673050880E0,9.923790291E0
2.541183674E0,1.960500032E-1,2.131050110E0,9.634950638E0,9.869756024E0
2.543147040E0,1.960500032E-1,2.169000149E0,9.634950638E0,9.878019591E0
2.545110522E0,1.960500032E-1,2.169000149E0,9.712050438E0,9.953236708E0
2.547073845E0,2.340000123E-1,2.208000183E0,9.673050880E0,9.924612544E0
2.549037215E0,1.570500135E-1,2.169000149E0,9.634950638E0,9.877322519E0
2.551000761E0,1.570500135E-1,2.131050110E0,9.634950638E0,9.869058368E0
2.552964270E0,2.340000123E-1,2.208000183E0,9.673050880E0,9.924612544E0
2.554927814E0,2.340000123E-1,2.208000183E0,9.673050880E0,9.924612544E0
2.556891347E0,2.719500065E-1,2.169000149E0,9.712050438E0,9.955020952E0
2.558854887E0,2.340000123E-1,2.169000149E0,9.712050438E0,9.954056528E0
2.560818424E0,2.340000123E-1,2.169000149E0,9.750000000E0,9.991086910E0
2.562781978E0,1.960500032E-1,2.169000149E0,9.750000000E0,9.990270129E0
2.564745516E0,1.960500032E-1,2.169000149E0,9.750000000E0,9.990270129E0
2.566709099E0,2.340000123E-1,2.208000183E0,9.712050438E0,9.962627391E0
2.568672669E0,2.340000123E-1,2.169000149E0,9.712050438E0,9.954056528E0
2.570635843E0,2.340000123E-1,2.169000149E0,9.750000000E0,9.991086910E0
2.572599133E0,1.960500032E-1,2.169000149E0,9.712050438E0,9.953236708E0
2.574562722E0,1.960500032E-1,2.169000149E0,9.750000000E0,9.990270129E0
2.576526217E0,1.960500032E-1,2.208000183E0,9.712050438E0,9.961808276E0
2.578489718E0,1.570500135E-1,2.169000149E0,9.712050438E0,9.952544904E0
2.580453217E0,1.960500032E-1,2.208000183E0,9.673050880E0,9.923790291E0
2.582416762E0,1.960500032E-1,2.208000183E0,9.673050880E0,9.923790291E0
2.584380294E0,1.960500032E-1,2.169000149E0,9.787950516E0,1.002731133E1
2.586344005E0,1.960500032E-1,2.208000183E0,9.712050438E0,9.961808276E0
2.588307669E0,1.570500135E-1,2.131050110E0,9.712050438E0,9.944343266E0
2.590271232E0,1.960500032E-1,2.208000183E0,9.750000000E0,9.998809950E0
2.592234825E0,1.960500032E-1,2.208000183E0,9.750000000E0,9.998809950E0
2.594198354E0,1.960500032E-1,2.208000183E0,9.750000000E0,9.998809950E0
2.596161902E0,1.960500032E-1,2.169000149E0,9.750000000E0,9.990270129E0
2.598125651E0,1.960500032E-1,2.131050110E0,9.787950516E0,1.001917090E1
2.600089318E0,1.960500032E-1,2.131050110E0,9.712050438E0,9.945035640E0
2.602052971E0,1.960500032E-1,2.169000149E0,9.712050438E0,9.953236708E0
2.604016628E0,1.960500032E-1,2.131050110E0,9.712050438E0,9.945035640E0
2.605980191E0,2.340000123E-1,2.131050110E0,9.712050438E0,9.945856136E0
2.607943781E0,1.960500032E-1,2.131050110E0,9.712050438E0,9.945035640E0
2.609907299E0,1.960500032E-1,2.131050110E0,9.712050438E0,9.945035640E0
2.611870815E0,1.960500032E-1,2.169000149E0,9.673050880E0,9.915185857E0
2.613834356E0,2.340000123E-1,2.169000149E0,9.673050880E0,9.916008823E0
2.615797890E0,1.960500032E-1,2.169000149E0,9.712050438E0,9.953236708E0
2.617761251E0,1.960500032E-1,2.131050110E0,9.712050438E0,9.945035640E0
2.619724662E0,1.960500032E-1,2.169000149E0,9.750000000E0,9.990270129E0
2.621688023E0,1.960500032E-1,2.169000149E0,9.712050438E0,9.953236708E0
2.623651412E0,1.960500032E-1,2.169000149E0,9.750000000E0,9.990270129E0
2.625614615E0,2.340000123E-1,2.169000149E0,9.712050438E0,9.954056528E0
2.627577873E0,1.960500032E-1,2.169000149E0,9.712050438E0,9.953236708E0
2.629541143E0,1.960500032E-1,2.208000183E0,9.712050438E0,9.961808276E0
2.631504410E0,1.960500032E-1,2.131050110E0,9.712050438E0,9.945035640E0
2.633467654E0,2.340000123E-1,2.169000149E0,9.712050438E0,9.954056528E0
2.635430892E0,2.340000123E-1,2.169000149E0,9.673050880E0,9.916008823E0
2.637394301E0,1.960500032E-1,2.169000149E0,9.634950638E0,9.878019591E0
2.639357660E0,1.960500032E-1,2.131050110E0,9.712050438E0,9.945035640E0
2.641321049E0,1.960500032E-1,2.169000149E0,9.673050880E0,9.915185857E0
2.643284429E0,2.719500065E-1,2.169000149E0,9.712050438E0,9.955020952E0
2.645247990E0,2.340000123E-1,2.169000149E0,9.673050880E0,9.916008823E0
2.647211501E0,2.340000123E-1,2.169000149E0,9.712050438E0,9.954056528E0
2.649175224E0,2.340000123E-1,2.169000149E0,9.712050438E0,9.954056528E0
2.651138885E0,2.340000123E-1,2.208000183E0,9.712050438E0,9.962627391E0
2.653102358E0,1.960500032E-1,2.169000149E0,9.673050880E0,9.915185857E0
2.655065887E0,1.570500135E-1,2.169000149E0,9.712050438E0,9.952544904E0
2.657029141E0,1.960500032E-1,2.169000149E0,9.712050438E0,9.953236708E0
2.658992455E0,2.340000123E-1,2.208000183E0,9.712050438E0,9.962627391E0
2.660955627E0,1.570500135E-1,2.169000149E0,9.712050438E0,9.952544904E0
2.662918840E0,1.960500032E-1,2.169000149E0,9.673050880E0,9.915185857E0
2.664881893E0,2.340000123E-1,2.169000149E0,9.712050438E0,9.954056528E0
2.666844993E0,2.340000123E-1,2.169000149E0,9.750000000E0,9.991086910E0
2.668807963E0,1.960500032E-1,2.208000183E0,9.712050438E0,9.961808276E0
2.670770948E0,2.340000123E-1,2.131050110E0,9.750000000E0,9.982916937E0
2.672733816E0,2.340000123E-1,2.169000149E0,9.712050438E0,9.954056528E0
2.674696718E0,2.340000123E-1,2.169000149E0,9.673050880E0,9.916008823E0
2.676659689E0,2.340000123E-1,2.208000183E0,9.750000000E0,9.999626034E0
2.678622639E0,1.570500135E-1,2.131050110E0,9.750000000E0,9.981409684E0
2.680585679E0,1.960500032E-1,2.169000149E0,9.712050438E0,9.953236708E0
2.682548702E0,1.960500032E-1,2.131050110E0,9.712050438E0,9.945035640E0
2.684511833E0,1.960500032E-1,2.169000149E0,9.673050880E0,9.915185857E0
2.686474933E0,1.960500032E-1,2.169000149E0,9.712050438E0,9.953236708E0
2.688438186E0,2.340000123E-1,2.131050110E0,9.673050880E0,9.907776941E0
2.690401394E0,1.960500032E-1,2.131050110E0,9.673050880E0,9.906953291E0
2.692364639E0,1.960500032E-1,2.131050110E0,9.750000000E0,9.982099487E0
2.694327866E0,2.340000123E-1,2.169000149E0,9.712050438E0,9.954056528E0
2.696290873E0,2.340000123E-1,2.131050110E0,9.673050880E0,9.907776941E0
2.698253945E0,1.960500032E-1,2.131050110E0,9.750000000E0,9.982099487E0
2.700217021E0,2.719500065E-1,2.169000149E0,9.673050880E0,9.916976948E0
2.702180096E0,2.340000123E-1,2.169000149E0,9.712050438E0,9.954056528E0
2.704143214E0,2.340000123E-1,2.169000149E0,9.673050880E0,9.916008823E0
2.706106322E0,2.340000123E-1,2.169000149E0,9.673050880E0,9.916008823E0
2.708069529E0,2.340000123E-1,2.169000149E0,9.673050880E0,9.916008823E0
2.710032707E0,2.340000123E-1,2.131050110E0,9.597000122E0,9.833541677E0
2.711995587E0,2.340000123E-1,2.131050110E0,9.634950638E0,9.870582778E0
2.713958555E0,3.109500110E-1,2.169000149E0,9.673050880E0,9.918123053E0
2.715921878E0,2.719500065E-1,2.169000149E0,9.634950638E0,9.879817420E0
2.717885063E0,3.109500110E-1,2.131050110E0,9.634950638E0,9.872706735E0
2.719848301E0,3.109500110E-1,2.131050110E0,9.634950638E0,9.872706735E0
2.721811524E0,2.719500065E-1,2.131050110E0,9.634950638E0,9.871555357E0
2.723774622E0,3.109500110E-1,2.092950106E0,9.597000122E0,9.827489069E0
2.725737757E0,2.719500065E-1,2.131050110E0,9.558000565E0,9.796463963E0
2.727701022E0,2.340000123E-1,2.131050110E0,9.597000122E0,9.833541677E0
2.729664235E0,2.719500065E-1,2.053950071E0,9.597000122E0,9.818099564E0
2.731627290E0,2.719500065E-1,2.092950106E0,9.634950638E0,9.863400567E0
2.733590391E0,2.340000123E-1,2.131050110E0,9.634950638E0,9.870582778E0
2.735553464E0,2.719500065E-1,2.169000149E0,9.597000122E0,9.842811072E0
2.737516545E0,2.719500065E-1,2.131050110E0,9.634950638E0,9.871555357E0
2.739479906E0,1.960500032E-1,2.092950106E0,9.634950638E0,9.861599746E0
2.741443206E0,2.340000123E-1,2.131050110E0,9.634950638E0,9.870582778E0
2.743406111E0,2.340000123E-1,2.092950106E0,9.634950638E0,9.862427183E0
2.745369132E0,2.340000123E-1,2.131050110E0,9.712050438E0,9.945856136E0
2.747332397E0,2.340000123E-1,2.131050110E0,9.673050880E0,9.907776941E0
2.749295591E0,2.719500065E-1,2.092950106E0,9.712050438E0,9.938728322E0
2.751258770E0,2.340000123E-1,2.131050110E0,9.673050880E0,9.907776941E0
2.753221964E0,2.719500065E-1,2.131050110E0,9.712050438E0,9.946821356E0
2.755185021E0,2.719500065E-1,2.092950106E0,9.712050438E0,9.938728322E0
2.757148118E0,2.719500065E-1,2.131050110E0,9.712050438E0,9.946821356E0
2.759111415E0,2.719500065E-1,2.092950106E0,9.750000000E0,9.975815603E0
2.761074654E0,2.719500065E-1,2.092950106E0,9.750000000E0,9.975815603E0
2.763038064E0,2.719500065E-1,2.131050110E0,9.750000000E0,9.983878574E0
2.765001423E0,2.340000123E-1,2.131050110E0,9.712050438E0,9.945856136E0
2.766964633E0,2.719500065E-1,2.131050110E0,9.750000000E0,9.983878574E0
2.768927887E0,2.340000123E-1,2.131050110E0,9.750000000E0,9.982916937E0
2.770891293E0,2.340000123E-1,2.092950106E0,9.712050438E0,9.937762317E0
2.772854654E0,2.719500065E-1,2.053950071E0,9.750000000E0,9.967706241E0
2.774817859E0,2.340000123E-1,2.092950106E0,9.712050438E0,9.937762317E0
2.776781113E0,2.340000123E-1,2.131050110E0,9.712050438E0,9.945856136E0
2.778744474E0,2.340000123E-1,2.131050110E0,9.750000000E0,9.982916937E0
2.780707803E0,3.109500110E-1,2.092950106E0,9.673050880E0,9.901769710E0
2.782671063E0,2.719500065E-1,2.092950106E0,9.712050438E0,9.938728322E0
2.784634343E0,2.340000123E-1,2.131050110E0,9.712050438E0,9.945856136E0
2.786597546E0,3.109500110E-1,2.131050110E0,9.673050880E0,9.909892927E0
2.788560785E0,2.719500065E-1,2.092950106E0,9.673050880E0,9.900621712E0
2.790524014E0,2.340000123E-1,2.131050110E0,9.673050880E0,9.907776941E0
2.792487246E0,2.719500065E-1,2.131050110E0,9.634950638E0,9.871555357E0
2.794450432E0,2.340000123E-1,2.092950106E0,9.712050438E0,9.937762317E0
2.796413631E0,1.960500032E-1,2.131050110E0,9.597000122E0,9.832711809E0
2.798376862E0,2.340000123E-1,2.131050110E0,9.634950638E0,9.870582778E0
2.800340087E0,2.719500065E-1,2.131050110E0,9.634950638E0,9.871555357E0
2.802303140E0,2.719500065E-1,2.092950106E0,9.597000122E0,9.826332393E0
2.804266243E0,2.340000123E-1,2.131050110E0,9.597000122E0,9.833541677E0
2.806229315E0,2.340000123E-1,2.131050110E0,9.634950638E0,9.870582778E0
2.808192396E0,2.340000123E-1,2.169000149E0,9.634950638E0,9.878845653E0
2.810155520E0,2.719500065E-1,2.131050110E0,9.634950638E0,9.871555357E0
2.812118629E0,2.719500065E-1,2.131050110E0,9.597000122E0,9.834517920E0
2.814081702E0,2.340000123E-1,2.092950106E0,9.673050880E0,9.899651988E0
2.816044785E0,2.340000123E-1,2.131050110E0,9.673050880E0,9.907776941E0
2.818008175E0,1.960500032E-1,2.131050110E0,9.634950638E0,9.869756024E0
2.819971475E0,2.340000123E-1,2.169000149E0,9.634950638E0,9.878845653E0
2.821934352E0,2.719500065E-1,2.169000149E0,9.673050880E0,9.916976948E0
2.823897372E0,2.719500065E-1,2.169000149E0,9.712050438E0,9.955020952E0
2.825860413E0,2.340000123E-1,2.169000149E0,9.712050438E0,9.954056528E0
2.827823447E0,2.340000123E-1,2.169000149E0,9.712050438E0,9.954056528E0
2.829786577E0,2.340000123E-1,2.131050110E0,9.712050438E0,9.945856136E0
2.831749678E0,2.340000123E-1,2.208000183E0,9.712050438E0,9.962627391E0
2.833712886E0,2.719500065E-1,2.131050110E0,9.787950516E0,1.002094340E1
2.835676063E0,2.340000123E-1,2.131050110E0,9.750000000E0,9.982916937E0
2.837639303E0,2.719500065E-1,2.131050110E0,9.750000000E0,9.983878574E0
2.839602524E0,2.340000123E-1,2.169000149E0,9.826950073E0,1.006619419E1
2.841565622E0,2.340000123E-1,2.169000149E0,9.787950516E0,1.002812510E1
2.843528757E0,2.719500065E-1,2.131050110E0,9.826950073E0,1.005903967E1
2.845491814E0,3.109500110E-1,2.131050110E0,9.826950073E0,1.006016959E1
2.847454901E0,2.719500065E-1,2.131050110E0,9.865050316E0,1.009626412E1
2.849417976E0,2.719500065E-1,2.092950106E0,9.826950073E0,1.005103700E1
2.851381055E0,2.719500065E-1,2.169000149E0,9.826950073E0,1.006714787E1
2.853344265E0,2.719500065E-1,2.092950106E0,9.787950516E0,1.001291028E1
2.855307437E0,2.340000123E-1,2.169000149E0,9.826950073E0,1.006619419E1
2.857270520E0,2.719500065E-1,2.131050110E0,9.826950073E0,1.005903967E1
2.859233646E0,2.340000123E-1,2.131050110E0,9.787950516E0,1.001998532E1
2.861197029E0,1.960500032E-1,2.131050110E0,9.787950516E0,1.001917090E1
2.863160336E0,1.570500135E-1,2.169000149E0,9.750000000E0,9.989580890E0
2.865123734E0,2.340000123E-1,2.131050110E0,9.787950516E0,1.001998532E1
2.867087106E0,1.960500032E-1,2.131050110E0,9.750000000E0,9.982099487E0
2.869050512E0,1.570500135E-1,2.169000149E0,9.826950073E0,1.006469940E1
2.871013894E0,1.960500032E-1,2.131050110E0,9.712050438E0,9.945035640E0
2.872977279E0,1.570500135E-1,2.131050110E0,9.712050438E0,9.944343266E0
2.874940663E0,1.960500032E-1,2.131050110E0,9.750000000E0,9.982099487E0
2.876903688E0,1.570500135E-1,2.092950106E0,9.750000000E0,9.973344717E0
2.878866819E0,1.570500135E-1,2.131050110E0,9.787950516E0,1.001848365E1
2.880830071E0,1.570500135E-1,2.131050110E0,9.787950516E0,1.001848365E1
2.882793284E0,1.960500032E-1,2.131050110E0,9.750000000E0,9.982099487E0
2.884756563E0,1.189500093E-1,2.092950106E0,9.750000000E0,9.972817518E0
2.886719822E0,1.570500135E-1,2.131050110E0,9.787950516E0,1.001848365E1
2.888683228E0,1.570500135E-1,2.131050110E0,9.750000000E0,9.981409684E0
2.890646591E0,1.960500032E-1,2.092950106E0,9.787950516E0,1.001113635E1
2.892609956E0,1.960500032E-1,2.092950106E0,9.787950516E0,1.001113635E1
2.894573306E0,1.570500135E-1,2.092950106E0,9.750000000E0,9.973344717E0
2.896536516E0,1.570500135E-1,2.092950106E0,9.787950516E0,1.001044855E1
2.898499767E0,1.570500135E-1,2.092950106E0,9.712050438E0,9.936248214E0
2.900462859E0,1.570500135E-1,2.053950071E0,9.750000000E0,9.965233344E0
2.902425998E0,1.960500032E-1,2.131050110E0,9.712050438E0,9.945035640E0
2.904389205E0,2.340000123E-1,2.131050110E0,9.826950073E0,1.005808522E1
2.906352419E0,1.960500032E-1,2.092950106E0,9.750000000E0,9.974035079E0
2.908315428E0,2.340000123E-1,2.131050110E0,9.750000000E0,9.982916937E0
2.910278497E0,2.340000123E-1,2.131050110E0,9.750000000E0,9.982916937E0
2.912241441E0,1.960500032E-1,2.131050110E0,9.787950516E0,1.001917090E1
2.914204421E0,2.340000123E-1,2.092950106E0,9.750000000E0,9.974853189E0
2.916167825E0,1.570500135E-1,2.131050110E0,9.712050438E0,9.944343266E0
2.918131107E0,2.340000123E-1,2.169000149E0,9.712050438E0,9.954056528E0
2.920094375E0,2.340000123E-1,2.131050110E0,9.712050438E0,9.945856136E0
2.922057647E0,1.960500032E-1,2.131050110E0,9.750000000E0,9.982099487E0
2.924020645E0,2.340000123E-1,2.169000149E0,9.787950516E0,1.002812510E1
2.925983724E0,2.340000123E-1,2.092950106E0,9.750000000E0,9.974853189E0
2.927947034E0,1.960500032E-1,2.131050110E0,9.750000000E0,9.982099487E0
2.929910270E0,1.960500032E-1,2.131050110E0,9.750000000E0,9.982099487E0
2.931873276E0,2.340000123E-1,2.131050110E0,9.712050438E0,9.945856136E0
2.933836349E0,1.960500032E-1,2.131050110E0,9.750000000E0,9.982099487E0
2.935799651E0,2.340000123E-1,2.169000149E0,9.712050438E0,9.954056528E0
2.937762885E0,1.960500032E-1,2.131050110E0,9.673050880E0,9.906953291E0
2.939726250E0,1.570500135E-1,2.131050110E0,9.712050438E0,9.944343266E0
2.941689577E0,2.340000123E-1,2.131050110E0,9.634950638E0,9.870582778E0
2.943652972E0,2.340000123E-1,2.131050110E0,9.673050880E0,9.907776941E0
2.945616347E0,1.960500032E-1,2.131050110E0,9.712050438E0,9.945035640E0
2.947579554E0,1.960500032E-1,2.092950106E0,9.712050438E0,9.936941152E0
2.949542810E0,2.340000123E-1,2.131050110E0,9.673050880E0,9.907776941E0
2.951505745E0,2.340000123E-1,2.131050110E0,9.712050438E0,9.945856136E0
2.953468757E0,1.960500032E-1,2.092950106E0,9.673050880E0,9.898827662E0
2.955431620E0,2.340000123E-1,2.131050110E0,9.712050438E0,9.945856136E0
2.957394527E0,2.719500065E-1,2.092950106E0,9.712050438E0,9.938728322E0
2.959357497E0,2.340000123E-1,2.092950106E0,9.750000000E0,9.974853189E0
2.961320448E0,1.960500032E-1,2.092950106E0,9.673050880E0,9.898827662E0
2.963283746E0,2.340000123E-1,2.131050110E0,9.673050880E0,9.907776941E0
2.965246928E0,2.719500065E-1,2.092950106E0,9.750000000E0,9.975815603E0
2.967209988E0,2.719500065E-1,2.092950106E0,9.750000000E0,9.975815603E0
2.969173084E0,2.719500065E-1,2.053950071E0,9.673050880E0,9.892450709E0
2.971136292E0,3.109500110E-1,2.131050110E0,9.750000000E0,9.985016999E0
2.973099467E0,3.109500110E-1,2.092950106E0,9.787950516E0,1.001404540E1
2.975062528E0,2.719500065E-1,2.053950071E0,9.750000000E0,9.967706241E0
2.977025623E0,2.719500065E-1,2.092950106E0,9.750000000E0,9.975815603E0
2.978988921E0,2.719500065E-1,2.092950106E0,9.750000000E0,9.975815603E0
2.980952159E0,2.719500065E-1,2.092950106E0,9.787950516E0,1.001291028E1
2.982915390E0,2.719500065E-1,2.092950106E0,9.750000000E0,9.975815603E0
2.984878623E0,2.719500065E-1,2.053950071E0,9.750000000E0,9.967706241E0
2.986841844E0,2.340000123E-1,2.092950106E0,9.750000000E0,9.974853189E0
2.988805075E0,2.719500065E-1,2.053950071E0,9.750000000E0,9.967706241E0
2.990768125E0,2.719500065E-1,2.092950106E0,9.787950516E0,1.001291028E1
2.992731229E0,2.340000123E-1,2.092950106E0,9.787950516E0,1.001195143E1
2.994694301E0,2.340000123E-1,2.053950071E0,9.787950516E0,1.000387136E1
2.996657383E0,2.340000123E-1,2.053950071E0,9.787950516E0,1.000387136E1
2.998620782E0,2.719500065E-1,2.092950106E0,9.712050438E0,9.938728322E0
3.000584082E0,2.719500065E-1,2.092950106E0,9.712050438E0,9.938728322E0
3.002547302E0,1.960500032E-1,2.092950106E0,9.712050438E0,9.936941152E0
3.004510546E0,2.340000123E-1,2.053950071E0,9.787950516E0,1.000387136E1
3.006473774E0,1.960500032E-1,2.092950106E0,9.712050438E0,9.936941152E0
3.008437007E0,2.719500065E-1,2.053950071E0,9.712050438E0,9.930588674E0
3.010400067E0,2.340000123E-1,2.092950106E0,9.712050438E0,9.937762317E0
3.012363171E0,2.340000123E-1,2.092950106E0,9.750000000E0,9.974853189E0
3.014326287E0,2.340000123E-1,2.092950106E0,9.712050438E0,9.937762317E0
3.016289400E0,1.960500032E-1,2.092950106E0,9.787950516E0,1.001113635E1
3.018252246E0,1.960500032E-1,2.053950071E0,9.712050438E0,9.928800039E0
3.020215171E0,1.960500032E-1,2.092950106E0,9.750000000E0,9.974035079E0
3.022178443E0,1.570500135E-1,2.092950106E0,9.750000000E0,9.973344717E0
3.024141621E0,1.960500032E-1,2.131050110E0,9.673050880E0,9.906953291E0
3.026104501E0,1.960500032E-1,2.092950106E0,9.750000000E0,9.974035079E0
3.028067469E0,1.960500032E-1,2.131050110E0,9.750000000E0,9.982099487E0
3.030030789E0,2.340000123E-1,2.092950106E0,9.787950516E0,1.001195143E1
3.031994005E0,2.719500065E-1,2.131050110E0,9.787950516E0,1.002094340E1
3.033957409E0,2.719500065E-1,2.092950106E0,9.826950073E0,1.005103700E1
3.035920765E0,1.960500032E-1,2.092950106E0,9.826950073E0,1.004926980E1
3.037883795E0,2.719500065E-1,2.131050110E0,9.865050316E0,1.009626412E1
3.039846920E0,2.340000123E-1,2.131050110E0,9.826950073E0,1.005808522E1
3.041809944E0,2.719500065E-1,2.092950106E0,9.787950516E0,1.001291028E1
3.043772997E0,2.340000123E-1,2.092950106E0,9.787950516E0,1.001195143E1
3.045736082E0,2.719500065E-1,2.131050110E0,9.826950073E0,1.005903967E1
3.047699154E0,2.340000123E-1,2.092950106E0,9.826950073E0,1.005008179E1
3.049662277E0,2.719500065E-1,2.131050110E0,9.826950073E0,1.005903967E1
3.051625385E0,3.109500110E-1,2.131050110E0,9.787950516E0,1.002207762E1
3.053588413E0,3.109500110E-1,2.131050110E0,9.750000000E0,9.985016999E0
3.055551464E0,2.719500065E-1,2.092950106E0,9.750000000E0,9.975815603E0
3.057514905E0,2.340000123E-1,2.092950106E0,9.750000000E0,9.974853189E0
3.059478231E0,2.719500065E-1,2.131050110E0,9.750000000E0,9.983878574E0
3.061441131E0,2.340000123E-1,2.131050110E0,9.750000000E0,9.982916937E0
3.063404156E0,2.719500065E-1,2.169000149E0,9.750000000E0,9.992047761E0
3.065367376E0,2.340000123E-1,2.131050110E0,9.750000000E0,9.982916937E0
3.067330539E0,2.340000123E-1,2.131050110E0,9.712050438E0,9.945856136E0
3.069293826E0,1.960500032E-1,2.131050110E0,9.712050438E0,9.945035640E0
3.071257077E0,2.340000123E-1,2.131050110E0,9.750000000E0,9.982916937E0
3.073220306E0,2.340000123E-1,2.169000149E0,9.673050880E0,9.916008823E0
3.075183541E0,1.570500135E-1,2.169000149E0,9.673050880E0,9.914491398E0
3.077146726E0,1.960500032E-1,2.131050110E0,9.673050880E0,9.906953291E0
3.079109925E0,1.960500032E-1,2.169000149E0,9.634950638E0,9.878019591E0
3.081073012E0,1.570500135E-1,2.208000183E0,9.750000000E0,9.998121299E0
3.083036142E0,1.960500032E-1,2.131050110E0,9.712050438E0,9.945035640E0
3.084999525E0,1.189500093E-1,2.169000149E0,9.673050880E0,9.913961069E0
3.086962833E0,1.960500032E-1,2.169000149E0,9.712050438E0,9.953236708E0
3.088926411E0,1.570500135E-1,2.131050110E0,9.712050438E0,9.944343266E0
3.090889909E0,1.960500032E-1,2.169000149E0,9.712050438E0,9.953236708E0
3.092853290E0,1.570500135E-1,2.131050110E0,9.712050438E0,9.944343266E0
3.094816695E0,1.570500135E-1,2.169000149E0,9.750000000E0,9.989580890E0
3.096780255E0,2.340000123E-1,2.208000183E0,9.787950516E0,1.003663271E1
3.098743770E0,1.570500135E-1,2.208000183E0,9.673050880E0,9.923096435E0
3.100707133E0,1.960500032E-1,2.169000149E0,9.712050438E0,9.953236708E0
3.102670541E0,1.570500135E-1,2.208000183E0,9.750000000E0,9.998121299E0
3.104633790E0,1.960500032E-1,2.208000183E0,9.750000000E0,9.998809950E0
3.106597083E0,1.960500032E-1,2.208000183E0,9.712050438E0,9.961808276E0
3.108560258E0,2.340000123E-1,2.169000149E0,9.712050438E0,9.954056528E0
3.110523468E0,2.340000123E-1,2.169000149E0,9.750000000E0,9.991086910E0
3.112486567E0,1.960500032E-1,2.169000149E0,9.712050438E0,9.953236708E0
3.114449699E0,2.340000123E-1,2.169000149E0,9.712050438E0,9.954056528E0
3.116413091E0,2.340000123E-1,2.208000183E0,9.673050880E0,9.924612544E0
3.118376399E0,2.340000123E-1,2.169000149E0,9.712050438E0,9.954056528E0
3.120339663E0,2.340000123E-1,2.208000183E0,9.712050438E0,9.962627391E0
3.122302940E0,2.340000123E-1,2.208000183E0,9.750000000E0,9.999626034E0
3.124266297E0,2.340000123E-1,2.169000149E0,9.712050438E0,9.954056528E0
3.126229630E0,2.340000123E-1,2.169000149E0,9.673050880E0,9.916008823E0
3.128192825E0,2.340000123E-1,2.131050110E0,9.712050438E0,9.945856136E0
3.130156074E0,2.719500065E-1,2.169000149E0,9.673050880E0,9.916976948E0
3.132119167E0,2.719500065E-1,2.131050110E0,9.712050438E0,9.946821356E0
3.134082305E0,1.960500032E-1,2.169000149E0,9.634950638E0,9.878019591E0
3.136045731E0,1.960500032E-1,2.131050110E0,9.634950638E0,9.869756024E0
3.138009072E0,2.340000123E-1,2.169000149E0,9.673050880E0,9.916008823E0
3.139972556E0,2.340000123E-1,2.169000149E0,9.634950638E0,9.878845653E0
3.141936029E0,1.960500032E-1,2.169000149E0,9.597000122E0,9.841006483E0
3.143899265E0,1.960500032E-1,2.169000149E0,9.673050880E0,9.915185857E0
3.145862570E0,1.960500032E-1,2.169000149E0,9.673050880E0,9.915185857E0
3.147826102E0,1.960500032E-1,2.169000149E0,9.597000122E0,9.841006483E0
3.149789568E0,1.960500032E-1,2.208000183E0,9.634950638E0,9.886656371E0
3.151752999E0,1.960500032E-1,2.208000183E0,9.558000565E0,9.811680549E0
3.153716430E0,1.570500135E-1,2.208000183E0,9.558000565E0,9.810978764E0
3.155679627E0,1.570500135E-1,2.208000183E0,9.558000565E0,9.810978764E0
3.157642892E0,1.960500032E-1,2.208000183E0,9.597000122E0,9.849675718E0
3.159606476E0,1.960500032E-1,2.208000183E0,9.558000565E0,9.811680549E0
3.161569967E0,1.570500135E-1,2.169000149E0,9.634950638E0,9.877322519E0
3.163533309E0,2.340000123E-1,2.169000149E0,9.520050049E0,9.766814761E0
3.165496681E0,1.570500135E-1,2.169000149E0,9.634950638E0,9.877322519E0
3.167460067E0,1.570500135E-1,2.169000149E0,9.597000122E0,9.840306789E0
3.169423448E0,1.570500135E-1,2.208000183E0,9.634950638E0,9.885959908E0
3.171386339E0,1.960500032E-1,2.169000149E0,9.673050880E0,9.915185857E0
3.173349373E0,1.570500135E-1,2.169000149E0,9.634950638E0,9.877322519E0
3.175312660E0,1.960500032E-1,2.169000149E0,9.634950638E0,9.878019591E0
3.177275856E0,1.570500135E-1,2.169000149E0,9.597000122E0,9.840306789E0
3.179239408E0,1.960500032E-1,2.131050110E0,9.558000565E0,9.794650834E0
3.181202856E0,2.340000123E-1,2.208000183E0,9.673050880E0,9.924612544E0
3.183166231E0,1.960500032E-1,2.169000149E0,9.634950638E0,9.878019591E0
3.185129627E0,2.340000123E-1,2.169000149E0,9.673050880E0,9.916008823E0
3.187093073E0,1.960500032E-1,2.131050110E0,9.597000122E0,9.832711809E0
3.189056490E0,1.960500032E-1,2.169000149E0,9.673050880E0,9.915185857E0
3.191019825E0,1.960500032E-1,2.208000183E0,9.712050438E0,9.961808276E0
3.192983185E0,1.960500032E-1,2.208000183E0,9.673050880E0,9.923790291E0
3.194946438E0,2.340000123E-1,2.169000149E0,9.673050880E0,9.916008823E0
3.196909723E0,1.960500032E-1,2.169000149E0,9.673050880E0,9.915185857E0
3.198873078E0,2.340000123E-1,2.169000149E0,9.712050438E0,9.954056528E0
3.200836413E0,1.960500032E-1,2.169000149E0,9.712050438E0,9.953236708E0
3.202799807E0,2.340000123E-1,2.169000149E0,9.712050438E0,9.954056528E0
3.204763183E0,2.340000123E-1,2.208000183E0,9.787950516E0,1.003663271E1
3.206726749E0,2.719500065E-1,2.169000149E0,9.750000000E0,9.992047761E0
3.208690259E0,2.340000123E-1,2.169000149E0,9.787950516E0,1.002812510E1
3.210653137E0,2.340000123E-1,2.131050110E0,9.750000000E0,9.982916937E0
3.212616194E0,2.340000123E-1,2.208000183E0,9.750000000E0,9.999626034E0
3.214579453E0,2.719500065E-1,2.092950106E0,9.750000000E0,9.975815603E0
3.216542653E0,1.960500032E-1,2.092950106E0,9.750000000E0,9.974035079E0
3.218505845E0,2.340000123E-1,2.131050110E0,9.750000000E0,9.982916937E0
3.220469040E0,2.719500065E-1,2.131050110E0,9.712050438E0,9.946821356E0
3.222432331E0,2.719500065E-1,2.131050110E0,9.750000000E0,9.983878574E0
3.224395586E0,2.340000123E-1,2.169000149E0,9.750000000E0,9.991086910E0
3.226358814E0,1.960500032E-1,2.131050110E0,9.712050438E0,9.945035640E0
3.228322050E0,1.960500032E-1,2.131050110E0,9.750000000E0,9.982099487E0
3.230285100E0,2.340000123E-1,2.131050110E0,9.750000000E0,9.982916937E0
3.232248204E0,2.719500065E-1,2.131050110E0,9.712050438E0,9.946821356E0
3.234211655E0,2.719500065E-1,2.131050110E0,9.712050438E0,9.946821356E0
3.236174990E0,2.719500065E-1,2.131050110E0,9.673050880E0,9.908745870E0
3.238138159E0,2.719500065E-1,2.092950106E0,9.750000000E0,9.975815603E0
3.240101376E0,2.719500065E-1,2.131050110E0,9.750000000E0,9.983878574E0
3.242064249E0,2.719500065E-1,2.092950106E0,9.750000000E0,9.975815603E0
3.244027223E0,3.109500110E-1,2.092950106E0,9.750000000E0,9.976954949E0
3.245990703E0,2.719500065E-1,2.131050110E0,9.673050880E0,9.908745870E0
3.247954048E0,3.109500110E-1,2.092950106E0,9.673050880E0,9.901769710E0
3.249917215E0,3.109500110E-1,2.092950106E0,9.712050438E0,9.939871919E0
3.251880434E0,3.109500110E-1,2.053950071E0,9.712050438E0,9.931733208E0
3.253843352E0,3.109500110E-1,2.092950106E0,9.712050438E0,9.939871919E0
3.255806358E0,2.719500065E-1,2.092950106E0,9.712050438E0,9.938728322E0
3.257769566E0,2.719500065E-1,2.092950106E0,9.673050880E0,9.900621712E0
3.259732725E0,3.870000243E-1,2.053950071E0,9.634950638E0,9.859044259E0
3.261696193E0,3.109500110E-1,2.053950071E0,9.712050438E0,9.931733208E0
3.263659571E0,3.870000243E-1,2.092950106E0,9.673050880E0,9.904449631E0
3.265623137E0,3.109500110E-1,2.053950071E0,9.597000122E0,9.819257210E0
3.267586648E0,3.870000243E-1,2.053950071E0,9.673050880E0,9.896281789E0
3.269549958E0,3.490500152E-1,2.092950106E0,9.634950638E0,9.865827378E0
3.271513334E0,3.490500152E-1,2.016000032E0,9.673050880E0,9.887062525E0
3.273476585E0,3.490500152E-1,2.053950071E0,9.673050880E0,9.894870396E0
3.275439872E0,3.490500152E-1,2.016000032E0,9.673050880E0,9.887062525E0
3.277403093E0,3.109500110E-1,2.053950071E0,9.673050880E0,9.893599655E0
3.279366334E0,3.490500152E-1,2.053950071E0,9.673050880E0,9.894870396E0
3.281329917E0,3.490500152E-1,2.092950106E0,9.673050880E0,9.903039402E0
3.283293403E0,3.490500152E-1,2.053950071E0,9.750000000E0,9.970107663E0
3.285256727E0,3.109500110E-1,2.053950071E0,9.712050438E0,9.931733208E0
3.287220098E0,3.490500152E-1,2.053950071E0,9.750000000E0,9.970107663E0
3.289183170E0,3.109500110E-1,2.053950071E0,9.673050880E0,9.893599655E0
3.291146329E0,4.260000288E-1,2.016000032E0,9.712050438E0,9.928225212E0
3.293109516E0,3.870000243E-1,2.016000032E0,9.787950516E0,1.000089998E1
3.295072701E0,3.490500152E-1,2.053950071E0,9.712050438E0,9.932999070E0
3.297035985E0,3.490500152E-1,2.053950071E0,9.750000000E0,9.970107663E0
3.298999240E0,3.870000243E-1,2.016000032E0,9.787950516E0,1.000089998E1
3.300962288E0,4.639500082E-1,2.016000032E0,9.750000000E0,9.967045989E0
3.302925396E0,4.260000288E-1,2.053950071E0,9.712050438E0,9.936000736E0
3.304888601E0,4.260000288E-1,1.978050113E0,9.750000000E0,9.957743634E0
3.306851778E0,4.260000288E-1,2.092950106E0,9.750000000E0,9.981203142E0
3.308815018E0,3.870000243E-1,2.016000032E0,9.673050880E0,9.888475033E0
3.310778240E0,3.490500152E-1,2.053950071E0,9.712050438E0,9.932999070E0
3.312741878E0,4.260000288E-1,2.053950071E0,9.673050880E0,9.897883625E0
3.314705394E0,4.260000288E-1,2.053950071E0,9.750000000E0,9.973098161E0
3.316668892E0,3.870000243E-1,2.092950106E0,9.634950638E0,9.867242926E0
3.318632396E0,3.870000243E-1,2.053950071E0,9.750000000E0,9.971508407E0
3.320595939E0,3.870000243E-1,2.053950071E0,9.673050880E0,9.896281789E0
3.322559471E0,3.870000243E-1,2.053950071E0,9.673050880E0,9.896281789E0
3.324523191E0,3.870000243E-1,2.092950106E0,9.673050880E0,9.904449631E0
3.326486855E0,3.870000243E-1,2.092950106E0,9.673050880E0,9.904449631E0
3.328450466E0,4.260000288E-1,2.092950106E0,9.712050438E0,9.944135954E0
3.330414059E0,3.490500152E-1,2.092950106E0,9.712050438E0,9.941136744E0
