"Time (s)","Acceleration x (m/s^2)","Acceleration y (m/s^2)","Acceleration z (m/s^2)","Absolute acceleration (m/s^2)"
3.413580200E-2,5.020500422E-1,4.354050159E0,8.830050468E0,9.857971308E0
3.609708700E-2,5.020500422E-1,4.354050159E0,8.791950226E0,9.823858499E0
3.806111000E-2,5.020500422E-1,4.354050159E0,8.830050468E0,9.857971308E0
4.002415900E-2,5.020500422E-1,4.354050159E0,8.869050026E0,9.892919458E0
4.198749400E-2,5.020500422E-1,4.392000198E0,8.791950226E0,9.840737206E0
4.394998700E-2,5.020500422E-1,4.354050159E0,8.830050468E0,9.857971308E0
4.591275800E-2,4.639500082E-1,4.315950394E0,8.869050026E0,9.874346853E0
4.787638200E-2,5.020500422E-1,4.315950394E0,8.830050468E0,9.841202839E0
4.983975600E-2,5.790000558E-1,4.315950394E0,8.869050026E0,9.880420903E0
5.180206200E-2,5.020500422E-1,4.315950394E0,8.869050026E0,9.876210326E0
5.376468100E-2,5.410500169E-1,4.315950394E0,8.830050468E0,9.843269487E0
5.572764000E-2,5.410500169E-1,4.276950359E0,8.791950226E0,9.792008388E0
5.769051000E-2,5.790000558E-1,4.315950394E0,8.869050026E0,9.880420903E0
5.965420800E-2,5.410500169E-1,4.315950394E0,8.869050026E0,9.878269650E0
6.161766400E-2,5.790000558E-1,4.276950359E0,8.869050026E0,9.863447359E0
6.357995600E-2,5.790000558E-1,4.276950359E0,8.907000542E0,9.897585771E0
6.554258900E-2,5.410500169E-1,4.239000320E0,8.944950104E0,9.913323923E0
6.750540000E-2,6.169500351E-1,4.276950359E0,8.907000542E0,9.899878301E0
6.946814500E-2,5.020500422E-1,4.239000320E0,8.907000542E0,9.877035821E0
7.143182000E-2,5.790000558E-1,4.315950394E0,8.907000542E0,9.914500871E0
7.339522200E-2,5.790000558E-1,4.239000320E0,8.944950104E0,9.915467570E0
7.535837900E-2,6.169500351E-1,4.276950359E0,8.944950104E0,9.934035639E0
7.732160800E-2,6.169500351E-1,4.239000320E0,8.983950615E0,9.952945278E0
7.928429600E-2,5.790000558E-1,4.239000320E0,8.944950104E0,9.915467570E0
8.124717600E-2,5.790000558E-1,4.239000320E0,8.983950615E0,9.950664974E0
8.321028500E-2,5.790000558E-1,4.239000320E0,8.944950104E0,9.915467570E0
8.517332700E-2,5.790000558E-1,4.276950359E0,9.022050858E0,1.000124728E1
8.713546500E-2,5.410500169E-1,4.239000320E0,9.022050858E0,9.982948488E0
8.909786800E-2,5.020500422E-1,4.239000320E0,9.022050858E0,9.980910762E0
9.106087400E-2,5.410500169E-1,4.276950359E0,9.022050858E0,9.999122020E0
9.302370700E-2,5.410500169E-1,4.239000320E0,9.060000420E0,1.001725843E1
9.498651100E-2,5.020500422E-1,4.276950359E0,9.022050858E0,9.997087591E0
9.694932400E-2,5.410500169E-1,4.239000320E0,9.022050858E0,9.982948488E0
9.891258100E-2,5.790000558E-1,4.239000320E0,8.983950615E0,9.950664974E0
1.008757070E-1,5.410500169E-1,4.315950394E0,9.022050858E0,1.001586564E1
1.028389270E-1,5.790000558E-1,4.239000320E0,9.098999977E0,1.005465889E1
1.048021400E-1,5.790000558E-1,4.276950359E0,9.060000420E0,1.003549466E1
1.067650590E-1,5.790000558E-1,4.239000320E0,9.060000420E0,1.001937984E1
1.087280650E-1,6.169500351E-1,4.239000320E0,9.022050858E0,9.987349635E0
1.106912880E-1,6.169500351E-1,4.239000320E0,9.098999977E0,1.005691561E1
1.126544470E-1,5.790000558E-1,4.276950359E0,9.060000420E0,1.003549466E1
1.146173760E-1,5.790000558E-1,4.239000320E0,9.060000420E0,1.001937984E1
1.165803720E-1,6.550500393E-1,4.239000320E0,9.060000420E0,1.002406214E1
1.185436420E-1,6.169500351E-1,4.239000320E0,9.060000420E0,1.002164451E1
1.205068320E-1,6.169500351E-1,4.239000320E0,9.060000420E0,1.002164451E1
1.224700250E-1,5.790000558E-1,4.239000320E0,9.060000420E0,1.001937984E1
1.244332170E-1,6.169500351E-1,4.276950359E0,9.022050858E0,1.000351605E1
1.263963060E-1,6.169500351E-1,4.276950359E0,9.098999977E0,1.007297038E1
1.283594350E-1,6.169500351E-1,4.239000320E0,9.060000420E0,1.002164451E1
1.303224580E-1,5.790000558E-1,4.276950359E0,9.060000420E0,1.003549466E1
1.322855120E-1,5.790000558E-1,4.276950359E0,9.060000420E0,1.003549466E1
1.342480970E-1,5.790000558E-1,4.276950359E0,9.098999977E0,1.007071725E1
1.362108200E-1,5.790000558E-1,4.239000320E0,9.098999977E0,1.005465889E1
1.381735720E-1,6.169500351E-1,4.239000320E0,9.060000420E0,1.002164451E1
1.401363320E-1,5.410500169E-1,4.239000320E0,9.060000420E0,1.001725843E1
1.421001390E-1,6.169500351E-1,4.239000320E0,9.098999977E0,1.005691561E1
1.440636400E-1,6.169500351E-1,4.276950359E0,9.098999977E0,1.007297038E1
1.460263300E-1,6.169500351E-1,4.315950394E0,9.136950493E0,1.012382929E1
1.479892580E-1,5.790000558E-1,4.315950394E0,9.098999977E0,1.008734204E1
1.499528050E-1,5.410500169E-1,4.315950394E0,9.098999977E0,1.008523493E1
1.519162060E-1,5.790000558E-1,4.276950359E0,9.060000420E0,1.003549466E1
1.538786870E-1,5.790000558E-1,4.276950359E0,9.098999977E0,1.007071725E1
1.558414380E-1,5.410500169E-1,4.276950359E0,9.098999977E0,1.006860666E1
1.578051560E-1,5.790000558E-1,4.276950359E0,9.136950493E0,1.010501904E1
1.597685900E-1,5.790000558E-1,4.239000320E0,9.060000420E0,1.001937984E1
1.617310520E-1,5.790000558E-1,4.276950359E0,9.098999977E0,1.007071725E1
1.636938090E-1,5.410500169E-1,4.276950359E0,9.136950493E0,1.010291561E1
1.656567590E-1,5.410500169E-1,4.276950359E0,9.098999977E0,1.006860666E1
1.676196530E-1,5.020500422E-1,4.276950359E0,9.098999977E0,1.006658627E1
1.695831220E-1,5.410500169E-1,4.276950359E0,9.136950493E0,1.010291561E1
1.715464220E-1,5.410500169E-1,4.315950394E0,9.060000420E0,1.005006321E1
1.735103570E-1,5.020500422E-1,4.276950359E0,9.060000420E0,1.003134917E1
1.754741100E-1,5.790000558E-1,4.315950394E0,9.098999977E0,1.008734204E1
1.774364860E-1,5.020500422E-1,4.276950359E0,9.098999977E0,1.006658627E1
1.793992660E-1,5.020500422E-1,4.276950359E0,9.060000420E0,1.003134917E1
1.813625730E-1,5.410500169E-1,4.315950394E0,9.098999977E0,1.008523493E1
1.833257250E-1,5.020500422E-1,4.276950359E0,9.060000420E0,1.003134917E1
1.852889560E-1,4.639500082E-1,4.315950394E0,9.060000420E0,1.004620749E1
1.872521730E-1,5.020500422E-1,4.276950359E0,9.060000420E0,1.003134917E1
1.892155860E-1,4.639500082E-1,4.276950359E0,9.022050858E0,9.995246653E0
1.911789420E-1,5.020500422E-1,4.315950394E0,8.983950615E0,9.979521567E0
1.931421520E-1,5.410500169E-1,4.276950359E0,9.022050858E0,9.999122020E0
1.951054050E-1,5.020500422E-1,4.276950359E0,9.060000420E0,1.003134917E1
1.970686230E-1,4.260000288E-1,4.315950394E0,8.983950615E0,9.975984787E0
1.990318890E-1,4.639500082E-1,4.315950394E0,8.944950104E0,9.942575610E0
2.009952490E-1,5.020500422E-1,4.354050159E0,9.022050858E0,1.003031449E1
2.029585810E-1,4.260000288E-1,4.315950394E0,8.983950615E0,9.975984787E0
2.049219750E-1,4.639500082E-1,4.354050159E0,8.983950615E0,9.994216880E0
2.068853500E-1,4.639500082E-1,4.276950359E0,8.944950104E0,9.925708355E0
2.088484050E-1,4.639500082E-1,4.315950394E0,8.907000542E0,9.908447712E0
2.108115340E-1,4.639500082E-1,4.315950394E0,8.944950104E0,9.942575610E0
2.127744670E-1,4.639500082E-1,4.354050159E0,8.907000542E0,9.925102571E0
2.147374570E-1,4.639500082E-1,4.354050159E0,8.944950104E0,9.959173397E0
2.167005030E-1,5.020500422E-1,4.315950394E0,8.944950104E0,9.944426298E0
2.186635320E-1,5.020500422E-1,4.354050159E0,8.907000542E0,9.926956517E0
2.206264740E-1,4.639500082E-1,4.315950394E0,8.944950104E0,9.942575610E0
2.225894480E-1,4.639500082E-1,4.354050159E0,8.944950104E0,9.959173397E0
2.245527220E-1,4.639500082E-1,4.354050159E0,8.944950104E0,9.959173397E0
2.265159080E-1,4.639500082E-1,4.354050159E0,8.907000542E0,9.925102571E0
2.284791020E-1,4.639500082E-1,4.315950394E0,8.944950104E0,9.942575610E0
2.304422930E-1,5.020500422E-1,4.315950394E0,8.944950104E0,9.944426298E0
2.324057300E-1,5.020500422E-1,4.354050159E0,8.944950104E0,9.961021002E0
2.343690810E-1,4.260000288E-1,4.354050159E0,8.944950104E0,9.957477651E0
2.363326520E-1,4.639500082E-1,4.315950394E0,8.983950615E0,9.977677388E0
2.382961580E-1,4.639500082E-1,4.354050159E0,8.944950104E0,9.959173397E0
2.402593420E-1,4.639500082E-1,4.315950394E0,8.944950104E0,9.942575610E0
2.422226210E-1,5.410500169E-1,4.354050159E0,8.983950615E0,9.998092646E0
2.441856980E-1,5.020500422E-1,4.315950394E0,8.944950104E0,9.944426298E0
2.461488420E-1,5.020500422E-1,4.354050159E0,8.983950615E0,9.996058007E0
2.481120870E-1,4.260000288E-1,4.354050159E0,8.983950615E0,9.992527081E0
2.500753020E-1,5.020500422E-1,4.354050159E0,8.907000542E0,9.926956517E0
2.520384910E-1,4.639500082E-1,4.315950394E0,8.944950104E0,9.942575610E0
2.540016880E-1,4.260000288E-1,4.315950394E0,8.983950615E0,9.975984787E0
2.559647110E-1,4.260000288E-1,4.315950394E0,8.983950615E0,9.975984787E0
2.579278090E-1,5.020500422E-1,4.315950394E0,8.983950615E0,9.979521567E0
2.598911070E-1,4.639500082E-1,4.315950394E0,8.983950615E0,9.977677388E0
2.618543460E-1,5.020500422E-1,4.315950394E0,9.022050858E0,1.001383462E1
2.638173960E-1,4.639500082E-1,4.315950394E0,8.983950615E0,9.977677388E0
2.657805010E-1,4.639500082E-1,4.354050159E0,8.944950104E0,9.959173397E0
2.677435080E-1,5.020500422E-1,4.315950394E0,8.944950104E0,9.944426298E0
2.697065580E-1,4.639500082E-1,4.315950394E0,8.944950104E0,9.942575610E0
2.716698190E-1,5.020500422E-1,4.392000198E0,8.907000542E0,9.943660223E0
2.736330180E-1,5.020500422E-1,4.354050159E0,8.944950104E0,9.961021002E0
2.755962540E-1,5.020500422E-1,4.392000198E0,8.907000542E0,9.943660223E0
2.775594790E-1,5.020500422E-1,4.354050159E0,8.944950104E0,9.961021002E0
2.795221670E-1,5.020500422E-1,4.315950394E0,8.944950104E0,9.944426298E0
2.814850160E-1,5.020500422E-1,4.354050159E0,8.869050026E0,9.892919458E0
2.834481760E-1,5.410500169E-1,4.315950394E0,8.869050026E0,9.878269650E0
2.854112450E-1,5.020500422E-1,4.276950359E0,8.907000542E0,9.893382499E0
2.873743230E-1,5.410500169E-1,4.315950394E0,8.944950104E0,9.946471499E0
2.893373990E-1,5.020500422E-1,4.354050159E0,8.907000542E0,9.926956517E0
2.913006150E-1,5.020500422E-1,4.315950394E0,8.830050468E0,9.841202839E0
2.932637870E-1,4.639500082E-1,4.315950394E0,8.869050026E0,9.874346853E0
2.952272080E-1,5.410500169E-1,4.276950359E0,8.944950104E0,9.929610861E0
2.971905560E-1,5.410500169E-1,4.276950359E0,8.907000542E0,9.895438249E0
2.991530920E-1,5.020500422E-1,4.354050159E0,8.869050026E0,9.892919458E0
3.011158660E-1,5.410500169E-1,4.315950394E0,8.869050026E0,9.878269650E0
3.030793140E-1,5.790000558E-1,4.315950394E0,8.907000542E0,9.914500871E0
3.050425610E-1,5.020500422E-1,4.315950394E0,8.983950615E0,9.979521567E0
3.070058340E-1,5.410500169E-1,4.276950359E0,8.907000542E0,9.895438249E0
3.089691000E-1,5.020500422E-1,4.276950359E0,8.944950104E0,9.927562187E0
3.109322810E-1,5.020500422E-1,4.239000320E0,8.944950104E0,9.911271882E0
3.128954870E-1,5.410500169E-1,4.315950394E0,8.907000542E0,9.912357014E0
3.148585360E-1,4.639500082E-1,4.315950394E0,8.944950104E0,9.942575610E0
3.168216350E-1,5.020500422E-1,4.315950394E0,8.944950104E0,9.944426298E0
3.187845730E-1,5.020500422E-1,4.276950359E0,8.983950615E0,9.962716862E0
3.207475580E-1,4.639500082E-1,4.276950359E0,8.983950615E0,9.960869572E0
3.227107850E-1,4.639500082E-1,4.315950394E0,8.944950104E0,9.942575610E0
3.246739410E-1,4.260000288E-1,4.354050159E0,8.944950104E0,9.957477651E0
3.266370560E-1,4.260000288E-1,4.354050159E0,8.983950615E0,9.992527081E0
3.286001790E-1,4.639500082E-1,4.354050159E0,8.983950615E0,9.994216880E0
3.305632480E-1,4.260000288E-1,4.354050159E0,8.907000542E0,9.923401003E0
3.325263330E-1,4.639500082E-1,4.392000198E0,8.944950104E0,9.975823160E0
3.344892280E-1,4.639500082E-1,4.392000198E0,8.944950104E0,9.975823160E0
3.364521790E-1,4.260000288E-1,4.392000198E0,8.944950104E0,9.974130244E0
3.384152720E-1,4.639500082E-1,4.354050159E0,8.944950104E0,9.959173397E0
3.403783260E-1,4.639500082E-1,4.392000198E0,8.869050026E0,9.907823359E0
3.423417670E-1,4.639500082E-1,4.354050159E0,8.869050026E0,9.891059133E0
3.443050950E-1,4.639500082E-1,4.354050159E0,8.907000542E0,9.925102571E0
3.462681300E-1,4.639500082E-1,4.431000233E0,8.907000542E0,9.959099925E0
3.482312510E-1,5.020500422E-1,4.354050159E0,8.869050026E0,9.892919458E0
3.501951750E-1,5.020500422E-1,4.354050159E0,8.869050026E0,9.892919458E0
3.521588640E-1,5.790000558E-1,4.431000233E0,8.869050026E0,9.931216063E0
3.541218370E-1,5.020500422E-1,4.354050159E0,8.869050026E0,9.892919458E0
3.560850200E-1,5.410500169E-1,4.354050159E0,8.869050026E0,9.894975304E0
3.580493400E-1,6.169500351E-1,4.354050159E0,8.907000542E0,9.933430363E0
3.600133260E-1,6.169500351E-1,4.392000198E0,8.830050468E0,9.881299730E0
3.619761080E-1,5.790000558E-1,4.354050159E0,8.869050026E0,9.897122926E0
3.639392460E-1,5.790000558E-1,4.354050159E0,8.869050026E0,9.897122926E0
3.659023120E-1,5.790000558E-1,4.315950394E0,8.869050026E0,9.880420903E0
3.678654000E-1,6.550500393E-1,4.315950394E0,8.907000542E0,9.919232682E0
3.698284300E-1,6.169500351E-1,4.315950394E0,8.869050026E0,9.882717415E0
3.717914770E-1,6.940500140E-1,4.315950394E0,8.907000542E0,9.921884492E0
3.737547290E-1,6.940500140E-1,4.315950394E0,8.944950104E0,9.955966331E0
3.757179270E-1,6.550500393E-1,4.354050159E0,8.907000542E0,9.935869463E0
3.776810290E-1,6.169500351E-1,4.276950359E0,8.944950104E0,9.934035639E0
3.796441600E-1,6.550500393E-1,4.239000320E0,8.983950615E0,9.955379597E0
3.816073620E-1,6.550500393E-1,4.354050159E0,8.944950104E0,9.969903495E0
3.835705430E-1,6.169500351E-1,4.276950359E0,8.983950615E0,9.969167486E0
3.855334320E-1,6.169500351E-1,4.315950394E0,8.983950615E0,9.985961336E0
3.874964000E-1,5.790000558E-1,4.315950394E0,9.060000420E0,1.005217770E1
3.894595400E-1,5.790000558E-1,4.315950394E0,8.983950615E0,9.983688573E0
3.914226290E-1,6.169500351E-1,4.276950359E0,9.022050858E0,1.000351605E1
3.933856600E-1,5.790000558E-1,4.276950359E0,9.022050858E0,1.000124728E1
3.953487080E-1,5.410500169E-1,4.276950359E0,9.060000420E0,1.003337665E1
3.973117640E-1,5.790000558E-1,4.276950359E0,9.060000420E0,1.003549466E1
3.992748350E-1,5.410500169E-1,4.276950359E0,9.022050858E0,9.999122020E0
4.012379130E-1,5.410500169E-1,4.315950394E0,9.060000420E0,1.005006321E1
4.032009890E-1,5.410500169E-1,4.315950394E0,9.060000420E0,1.005006321E1
4.051638870E-1,5.020500422E-1,4.315950394E0,9.060000420E0,1.004803909E1
4.071268370E-1,5.410500169E-1,4.276950359E0,9.060000420E0,1.003337665E1
4.090903160E-1,5.020500422E-1,4.315950394E0,9.022050858E0,1.001383462E1
4.110536250E-1,5.410500169E-1,4.276950359E0,9.022050858E0,9.999122020E0
4.130168430E-1,5.020500422E-1,4.315950394E0,9.098999977E0,1.008321787E1
4.149800880E-1,5.410500169E-1,4.354050159E0,9.060000420E0,1.006648377E1
4.169431810E-1,5.020500422E-1,4.315950394E0,9.060000420E0,1.004803909E1
4.189063190E-1,5.020500422E-1,4.315950394E0,9.060000420E0,1.004803909E1
4.208696950E-1,5.020500422E-1,4.315950394E0,9.060000420E0,1.004803909E1
4.228330040E-1,5.410500169E-1,4.354050159E0,9.098999977E0,1.010159831E1
4.247962680E-1,5.020500422E-1,4.276950359E0,9.136950493E0,1.010090208E1
4.267595450E-1,5.020500422E-1,4.354050159E0,9.098999977E0,1.009958453E1
4.287227670E-1,4.639500082E-1,4.276950359E0,9.060000420E0,1.002951452E1
4.306860060E-1,4.639500082E-1,4.276950359E0,9.136950493E0,1.009908007E1
4.326501390E-1,4.639500082E-1,4.276950359E0,9.098999977E0,1.006475805E1
4.346140080E-1,5.790000558E-1,4.276950359E0,9.060000420E0,1.003549466E1
4.365765450E-1,5.410500169E-1,4.315950394E0,9.098999977E0,1.008523493E1
4.385394720E-1,5.020500422E-1,4.276950359E0,9.098999977E0,1.006658627E1
4.405036550E-1,5.020500422E-1,4.315950394E0,9.136950493E0,1.011747727E1
4.424674700E-1,5.790000558E-1,4.315950394E0,9.098999977E0,1.008734204E1
4.444300620E-1,5.410500169E-1,4.276950359E0,9.060000420E0,1.003337665E1
4.463930110E-1,5.410500169E-1,4.276950359E0,9.098999977E0,1.006860666E1
4.483565140E-1,5.410500169E-1,4.276950359E0,9.098999977E0,1.006860666E1
4.503198550E-1,5.410500169E-1,4.276950359E0,9.060000420E0,1.003337665E1
4.522834270E-1,5.020500422E-1,4.276950359E0,9.060000420E0,1.003134917E1
4.542469320E-1,5.410500169E-1,4.239000320E0,9.022050858E0,9.982948488E0
4.562106450E-1,5.410500169E-1,4.239000320E0,9.060000420E0,1.001725843E1
4.581742730E-1,6.169500351E-1,4.239000320E0,9.060000420E0,1.002164451E1
4.601362200E-1,5.410500169E-1,4.276950359E0,9.022050858E0,9.999122020E0
4.620986600E-1,5.410500169E-1,4.239000320E0,8.983950615E0,9.948528911E0
4.640621600E-1,5.020500422E-1,4.201050282E0,9.060000420E0,9.999224236E0
4.660253500E-1,5.410500169E-1,4.239000320E0,8.983950615E0,9.948528911E0
4.679882880E-1,5.410500169E-1,4.276950359E0,9.022050858E0,9.999122020E0
4.699512900E-1,5.020500422E-1,4.239000320E0,8.983950615E0,9.946484133E0
4.719141540E-1,5.410500169E-1,4.239000320E0,8.944950104E0,9.913323923E0
4.738770590E-1,5.020500422E-1,4.276950359E0,8.983950615E0,9.962716862E0
4.758401640E-1,5.410500169E-1,4.276950359E0,8.983950615E0,9.964758309E0
4.778032110E-1,5.410500169E-1,4.239000320E0,8.983950615E0,9.948528911E0
4.797666330E-1,5.790000558E-1,4.276950359E0,8.983950615E0,9.966890894E0
4.817299600E-1,5.790000558E-1,4.276950359E0,8.983950615E0,9.966890894E0
4.836921390E-1,5.410500169E-1,4.276950359E0,8.944950104E0,9.929610861E0
4.856546550E-1,5.410500169E-1,4.276950359E0,8.983950615E0,9.964758309E0
4.876185480E-1,5.410500169E-1,4.276950359E0,8.983950615E0,9.964758309E0
4.895820370E-1,5.790000558E-1,4.276950359E0,8.944950104E0,9.931750994E0
4.915446460E-1,5.410500169E-1,4.354050159E0,8.944950104E0,9.963062796E0
4.935075400E-1,5.410500169E-1,4.276950359E0,8.944950104E0,9.929610861E0
4.954711880E-1,5.410500169E-1,4.276950359E0,8.907000542E0,9.895438249E0
4.974346150E-1,5.790000558E-1,4.315950394E0,8.944950104E0,9.948608004E0
4.993974080E-1,5.020500422E-1,4.354050159E0,8.944950104E0,9.961021002E0
5.013603860E-1,5.790000558E-1,4.315950394E0,8.944950104E0,9.948608004E0
5.033235380E-1,5.410500169E-1,4.354050159E0,8.907000542E0,9.929005316E0
5.052866290E-1,5.410500169E-1,4.392000198E0,8.907000542E0,9.945705581E0
5.072497050E-1,5.020500422E-1,4.315950394E0,8.944950104E0,9.944426298E0
5.092127850E-1,5.410500169E-1,4.354050159E0,8.983950615E0,9.998092646E0
5.111764010E-1,5.020500422E-1,4.354050159E0,8.907000542E0,9.926956517E0
5.131398600E-1,5.790000558E-1,4.392000198E0,8.907000542E0,9.947842251E0
5.151024620E-1,5.410500169E-1,4.315950394E0,8.944950104E0,9.946471499E0
5.170653180E-1,5.410500169E-1,4.354050159E0,8.944950104E0,9.963062796E0
5.190289730E-1,6.169500351E-1,4.354050159E0,8.907000542E0,9.933430363E0
5.209923930E-1,5.410500169E-1,4.354050159E0,8.944950104E0,9.963062796E0
5.229550520E-1,5.410500169E-1,4.354050159E0,8.907000542E0,9.929005316E0
5.249179340E-1,5.410500169E-1,4.354050159E0,8.907000542E0,9.929005316E0
5.268816040E-1,5.410500169E-1,4.354050159E0,8.944950104E0,9.963062796E0
5.288450290E-1,5.790000558E-1,4.392000198E0,8.944950104E0,9.981835461E0
5.308079120E-1,6.169500351E-1,4.354050159E0,8.869050026E0,9.899415564E0
5.327709540E-1,6.169500351E-1,4.315950394E0,8.944950104E0,9.950888780E0
5.347340350E-1,5.410500169E-1,4.276950359E0,8.907000542E0,9.895438249E0
5.366971050E-1,5.790000558E-1,4.315950394E0,8.907000542E0,9.914500871E0
5.386603340E-1,5.790000558E-1,4.315950394E0,8.907000542E0,9.914500871E0
5.406235050E-1,5.790000558E-1,4.354050159E0,8.907000542E0,9.931145579E0
5.425857110E-1,5.410500169E-1,4.315950394E0,8.907000542E0,9.912357014E0
5.445481990E-1,5.410500169E-1,4.354050159E0,8.907000542E0,9.929005316E0
5.465118720E-1,5.020500422E-1,4.276950359E0,8.907000542E0,9.893382499E0
5.484751970E-1,5.410500169E-1,4.276950359E0,8.907000542E0,9.895438249E0
5.504390070E-1,5.790000558E-1,4.354050159E0,8.907000542E0,9.931145579E0
5.524026680E-1,5.790000558E-1,4.315950394E0,8.907000542E0,9.914500871E0
5.543652850E-1,5.410500169E-1,4.315950394E0,8.944950104E0,9.946471499E0
5.563282080E-1,5.790000558E-1,4.276950359E0,8.944950104E0,9.931750994E0
5.582914910E-1,5.790000558E-1,4.276950359E0,8.907000542E0,9.897585771E0
5.602546680E-1,5.410500169E-1,4.276950359E0,8.907000542E0,9.895438249E0
5.622177340E-1,5.020500422E-1,4.315950394E0,8.944950104E0,9.944426298E0
5.641808290E-1,5.410500169E-1,4.276950359E0,8.869050026E0,9.861292403E0
5.661440820E-1,5.410500169E-1,4.315950394E0,8.869050026E0,9.878269650E0
5.681072880E-1,5.410500169E-1,4.315950394E0,8.907000542E0,9.912357014E0
5.700702990E-1,5.410500169E-1,4.392000198E0,8.907000542E0,9.945705581E0
5.720333670E-1,5.410500169E-1,4.354050159E0,8.944950104E0,9.963062796E0
5.739966750E-1,6.169500351E-1,4.315950394E0,8.944950104E0,9.950888780E0
5.759599090E-1,5.790000558E-1,4.315950394E0,8.944950104E0,9.948608004E0
5.779236800E-1,5.410500169E-1,4.315950394E0,8.983950615E0,9.981559576E0
5.798872930E-1,5.790000558E-1,4.315950394E0,8.944950104E0,9.948608004E0
5.818505950E-1,5.790000558E-1,4.315950394E0,8.944950104E0,9.948608004E0
5.838139880E-1,5.790000558E-1,4.315950394E0,8.944950104E0,9.948608004E0
5.857768840E-1,5.790000558E-1,4.315950394E0,8.944950104E0,9.948608004E0
5.877399200E-1,5.790000558E-1,4.315950394E0,9.022050858E0,1.001798735E1
5.897030030E-1,5.790000558E-1,4.315950394E0,8.983950615E0,9.983688573E0
5.916660720E-1,5.790000558E-1,4.276950359E0,8.944950104E0,9.931750994E0
5.936287910E-1,6.169500351E-1,4.315950394E0,8.983950615E0,9.985961336E0
5.955916120E-1,5.790000558E-1,4.315950394E0,9.022050858E0,1.001798735E1
5.975548790E-1,6.169500351E-1,4.354050159E0,8.983950615E0,1.000248713E1
5.995180390E-1,5.790000558E-1,4.315950394E0,9.022050858E0,1.001798735E1
6.014810580E-1,5.410500169E-1,4.315950394E0,8.983950615E0,9.981559576E0
6.034441180E-1,5.790000558E-1,4.354050159E0,9.022050858E0,1.003446040E1
6.054076020E-1,5.790000558E-1,4.315950394E0,9.022050858E0,1.001798735E1
6.073709620E-1,5.790000558E-1,4.315950394E0,9.022050858E0,1.001798735E1
6.093341310E-1,5.790000558E-1,4.276950359E0,9.022050858E0,1.000124728E1
6.112973530E-1,5.790000558E-1,4.276950359E0,9.060000420E0,1.003549466E1
6.132605840E-1,5.790000558E-1,4.276950359E0,9.022050858E0,1.000124728E1
6.152238130E-1,5.790000558E-1,4.276950359E0,8.983950615E0,9.966890894E0
6.171870440E-1,5.790000558E-1,4.354050159E0,8.983950615E0,1.000021812E1
6.191502750E-1,5.790000558E-1,4.315950394E0,8.983950615E0,9.983688573E0
6.211124410E-1,5.410500169E-1,4.276950359E0,9.022050858E0,9.999122020E0
6.230749400E-1,5.410500169E-1,4.315950394E0,9.022050858E0,1.001586564E1
6.250388360E-1,5.410500169E-1,4.276950359E0,9.022050858E0,9.999122020E0
6.270023220E-1,5.410500169E-1,4.276950359E0,8.983950615E0,9.964758309E0
6.289651050E-1,5.410500169E-1,4.315950394E0,9.022050858E0,1.001586564E1
6.309280940E-1,5.790000558E-1,4.276950359E0,8.944950104E0,9.931750994E0
6.328908840E-1,5.410500169E-1,4.239000320E0,8.983950615E0,9.948528911E0
6.348537230E-1,5.410500169E-1,4.315950394E0,8.983950615E0,9.981559576E0
6.368170200E-1,5.410500169E-1,4.315950394E0,8.907000542E0,9.912357014E0
6.387801830E-1,5.020500422E-1,4.276950359E0,8.983950615E0,9.962716862E0
6.407435600E-1,5.020500422E-1,4.276950359E0,8.983950615E0,9.962716862E0
6.427068750E-1,5.020500422E-1,4.315950394E0,8.983950615E0,9.979521567E0
6.446704970E-1,5.410500169E-1,4.315950394E0,8.944950104E0,9.946471499E0
6.466340290E-1,6.169500351E-1,4.276950359E0,8.983950615E0,9.969167486E0
6.485973440E-1,5.410500169E-1,4.276950359E0,8.983950615E0,9.964758309E0
6.505607230E-1,5.790000558E-1,4.315950394E0,8.983950615E0,9.983688573E0
6.525235680E-1,5.790000558E-1,4.354050159E0,8.944950104E0,9.965195744E0
6.544865690E-1,5.790000558E-1,4.315950394E0,8.944950104E0,9.948608004E0
6.564496480E-1,5.410500169E-1,4.276950359E0,9.022050858E0,9.999122020E0
6.584127110E-1,5.790000558E-1,4.315950394E0,8.983950615E0,9.983688573E0
6.603750700E-1,5.410500169E-1,4.354050159E0,9.022050858E0,1.003234218E1
6.623376360E-1,5.790000558E-1,4.315950394E0,8.983950615E0,9.983688573E0
6.643013400E-1,5.790000558E-1,4.315950394E0,8.944950104E0,9.948608004E0
6.662647110E-1,6.169500351E-1,4.315950394E0,8.907000542E0,9.916789490E0
6.682276030E-1,5.790000558E-1,4.276950359E0,8.983950615E0,9.966890894E0
6.701906360E-1,5.790000558E-1,4.315950394E0,8.983950615E0,9.983688573E0
6.721529990E-1,5.410500169E-1,4.392000198E0,8.944950104E0,9.979706069E0
6.741155590E-1,5.410500169E-1,4.315950394E0,8.983950615E0,9.981559576E0
6.760792640E-1,5.790000558E-1,4.354050159E0,8.983950615E0,1.000021812E1
6.780426340E-1,6.169500351E-1,4.315950394E0,8.983950615E0,9.985961336E0
6.800047900E-1,5.410500169E-1,4.354050159E0,8.907000542E0,9.929005316E0
6.819672810E-1,5.410500169E-1,4.354050159E0,8.944950104E0,9.963062796E0
6.839309530E-1,5.020500422E-1,4.354050159E0,8.944950104E0,9.961021002E0
6.858942790E-1,5.790000558E-1,4.392000198E0,8.944950104E0,9.981835461E0
6.878564130E-1,5.020500422E-1,4.392000198E0,8.983950615E0,1.001264644E1
6.898188960E-1,5.410500169E-1,4.354050159E0,8.944950104E0,9.963062796E0
6.917818590E-1,5.020500422E-1,4.354050159E0,8.944950104E0,9.961021002E0
6.937447060E-1,5.020500422E-1,4.354050159E0,8.944950104E0,9.961021002E0
6.957074630E-1,5.410500169E-1,4.354050159E0,8.944950104E0,9.963062796E0
6.976702470E-1,5.020500422E-1,4.354050159E0,8.944950104E0,9.961021002E0
6.996333730E-1,4.639500082E-1,4.354050159E0,8.944950104E0,9.959173397E0
7.015963990E-1,4.639500082E-1,4.354050159E0,8.944950104E0,9.959173397E0
7.035593560E-1,4.639500082E-1,4.392000198E0,8.983950615E0,1.001080836E1
7.055223290E-1,4.639500082E-1,4.392000198E0,8.944950104E0,9.975823160E0
7.074857380E-1,4.639500082E-1,4.354050159E0,8.983950615E0,9.994216880E0
7.094490190E-1,4.260000288E-1,4.354050159E0,8.944950104E0,9.957477651E0
7.114119270E-1,4.639500082E-1,4.392000198E0,8.944950104E0,9.975823160E0
7.133749440E-1,4.260000288E-1,4.354050159E0,8.983950615E0,9.992527081E0
7.153378700E-1,4.260000288E-1,4.354050159E0,8.944950104E0,9.957477651E0
7.173008090E-1,4.260000288E-1,4.354050159E0,9.022050858E0,1.002679562E1
7.192640440E-1,3.870000243E-1,4.354050159E0,9.022050858E0,1.002521439E1
7.212271920E-1,4.260000288E-1,4.354050159E0,8.983950615E0,9.992527081E0
7.231902580E-1,3.870000243E-1,4.354050159E0,8.983950615E0,9.990940419E0
7.251533480E-1,4.260000288E-1,4.392000198E0,9.022050858E0,1.004333328E1
7.271166280E-1,4.639500082E-1,4.354050159E0,9.022050858E0,1.002847965E1
7.290798650E-1,4.260000288E-1,4.354050159E0,9.022050858E0,1.002679562E1
7.310436360E-1,4.639500082E-1,4.354050159E0,9.022050858E0,1.002847965E1
7.330072500E-1,4.639500082E-1,4.354050159E0,9.022050858E0,1.002847965E1
7.349705960E-1,4.639500082E-1,4.354050159E0,8.983950615E0,9.994216880E0
7.369340210E-1,4.639500082E-1,4.315950394E0,9.060000420E0,1.004620749E1
7.388971650E-1,4.639500082E-1,4.315950394E0,8.983950615E0,9.977677388E0
7.408603970E-1,4.639500082E-1,4.354050159E0,9.022050858E0,1.002847965E1
7.428236710E-1,4.639500082E-1,4.354050159E0,9.060000420E0,1.006263435E1
7.447869330E-1,4.639500082E-1,4.354050159E0,8.983950615E0,9.994216880E0
7.467499790E-1,5.020500422E-1,4.354050159E0,8.983950615E0,9.996058007E0
7.487130890E-1,4.260000288E-1,4.354050159E0,9.022050858E0,1.002679562E1
7.506761190E-1,4.639500082E-1,4.315950394E0,8.983950615E0,9.977677388E0
7.526391700E-1,4.639500082E-1,4.315950394E0,9.022050858E0,1.001199676E1
7.546024750E-1,4.639500082E-1,4.354050159E0,8.944950104E0,9.959173397E0
7.565657060E-1,4.639500082E-1,4.354050159E0,8.983950615E0,9.994216880E0
7.585285330E-1,5.020500422E-1,4.315950394E0,8.983950615E0,9.979521567E0
7.604914780E-1,4.639500082E-1,4.354050159E0,8.983950615E0,9.994216880E0
7.624549820E-1,5.020500422E-1,4.354050159E0,8.944950104E0,9.961021002E0
7.644183220E-1,5.020500422E-1,4.315950394E0,8.983950615E0,9.979521567E0
7.663813550E-1,5.020500422E-1,4.354050159E0,8.944950104E0,9.961021002E0
7.683444780E-1,5.020500422E-1,4.354050159E0,8.907000542E0,9.926956517E0
7.703071410E-1,5.020500422E-1,4.392000198E0,8.944950104E0,9.977667681E0
7.722699390E-1,5.020500422E-1,4.354050159E0,8.944950104E0,9.961021002E0
7.742327480E-1,5.410500169E-1,4.315950394E0,8.907000542E0,9.912357014E0
7.761955530E-1,5.020500422E-1,4.315950394E0,8.983950615E0,9.979521567E0
7.781584510E-1,5.020500422E-1,4.315950394E0,9.022050858E0,1.001383462E1
7.801213220E-1,5.020500422E-1,4.315950394E0,8.907000542E0,9.910304773E0
7.820840750E-1,5.020500422E-1,4.315950394E0,8.907000542E0,9.910304773E0
7.840468620E-1,5.020500422E-1,4.354050159E0,9.022050858E0,1.003031449E1
7.860098810E-1,5.410500169E-1,4.354050159E0,8.983950615E0,9.998092646E0
7.879728120E-1,5.020500422E-1,4.315950394E0,8.983950615E0,9.979521567E0
7.899358690E-1,5.790000558E-1,4.354050159E0,8.983950615E0,1.000021812E1
7.918988890E-1,5.020500422E-1,4.354050159E0,8.944950104E0,9.961021002E0
7.938625170E-1,5.020500422E-1,4.315950394E0,8.944950104E0,9.944426298E0
7.958259660E-1,5.790000558E-1,4.315950394E0,8.907000542E0,9.914500871E0
7.977881240E-1,5.020500422E-1,4.315950394E0,8.944950104E0,9.944426298E0
7.997506610E-1,5.020500422E-1,4.392000198E0,8.983950615E0,1.001264644E1
8.017134690E-1,5.020500422E-1,4.276950359E0,8.907000542E0,9.893382499E0
8.036761970E-1,5.020500422E-1,4.315950394E0,8.907000542E0,9.910304773E0
8.056394690E-1,5.020500422E-1,4.315950394E0,8.907000542E0,9.910304773E0
8.076025820E-1,5.410500169E-1,4.276950359E0,8.983950615E0,9.964758309E0
8.095653430E-1,6.169500351E-1,4.315950394E0,8.907000542E0,9.916789490E0
8.115282040E-1,5.020500422E-1,4.354050159E0,8.869050026E0,9.892919458E0
8.134922180E-1,5.790000558E-1,4.315950394E0,8.907000542E0,9.914500871E0
8.154558940E-1,5.410500169E-1,4.392000198E0,8.907000542E0,9.945705581E0
8.174191850E-1,5.790000558E-1,4.354050159E0,8.869050026E0,9.897122926E0
8.193825890E-1,5.790000558E-1,4.354050159E0,8.944950104E0,9.965195744E0
8.213448600E-1,5.790000558E-1,4.315950394E0,8.869050026E0,9.880420903E0
8.233074830E-1,5.410500169E-1,4.315950394E0,8.869050026E0,9.878269650E0
8.252702760E-1,5.790000558E-1,4.315950394E0,8.869050026E0,9.880420903E0
8.272330190E-1,5.410500169E-1,4.354050159E0,8.907000542E0,9.929005316E0
8.291961530E-1,5.410500169E-1,4.315950394E0,8.907000542E0,9.912357014E0
8.311591730E-1,5.020500422E-1,4.354050159E0,8.830050468E0,9.857971308E0
8.331221260E-1,5.410500169E-1,4.315950394E0,8.907000542E0,9.912357014E0
8.350850980E-1,5.020500422E-1,4.315950394E0,8.869050026E0,9.876210326E0
8.370485520E-1,5.790000558E-1,4.315950394E0,8.944950104E0,9.948608004E0
8.390118650E-1,5.790000558E-1,4.315950394E0,8.944950104E0,9.948608004E0
8.409747230E-1,5.410500169E-1,4.354050159E0,8.944950104E0,9.963062796E0
8.429377140E-1,5.410500169E-1,4.276950359E0,8.944950104E0,9.929610861E0
8.449017160E-1,5.790000558E-1,4.315950394E0,8.944950104E0,9.948608004E0
8.468654140E-1,5.790000558E-1,4.354050159E0,8.983950615E0,1.000021812E1
8.488278000E-1,5.410500169E-1,4.315950394E0,8.983950615E0,9.981559576E0
8.507905700E-1,5.410500169E-1,4.315950394E0,9.022050858E0,1.001586564E1
8.527546000E-1,5.790000558E-1,4.276950359E0,9.022050858E0,1.000124728E1
8.547182600E-1,5.790000558E-1,4.276950359E0,9.022050858E0,1.000124728E1
8.566812330E-1,5.790000558E-1,4.276950359E0,9.022050858E0,1.000124728E1
8.586444110E-1,5.790000558E-1,4.276950359E0,9.022050858E0,1.000124728E1
8.606065690E-1,5.790000558E-1,4.276950359E0,9.022050858E0,1.000124728E1
8.625690260E-1,5.410500169E-1,4.276950359E0,9.022050858E0,9.999122020E0
8.645326140E-1,5.790000558E-1,4.276950359E0,9.022050858E0,1.000124728E1
8.664958700E-1,5.790000558E-1,4.315950394E0,9.098999977E0,1.008734204E1
8.684588720E-1,6.169500351E-1,4.276950359E0,9.060000420E0,1.003775569E1
8.704219490E-1,6.169500351E-1,4.315950394E0,9.022050858E0,1.002025233E1
8.723848460E-1,6.169500351E-1,4.276950359E0,9.022050858E0,1.000351605E1
8.743477960E-1,6.169500351E-1,4.276950359E0,9.060000420E0,1.003775569E1
8.763107140E-1,5.790000558E-1,4.276950359E0,9.060000420E0,1.003549466E1
8.782736420E-1,6.550500393E-1,4.276950359E0,9.022050858E0,1.000593807E1
8.802364080E-1,6.169500351E-1,4.239000320E0,9.022050858E0,9.987349635E0
8.821992040E-1,6.169500351E-1,4.276950359E0,9.060000420E0,1.003775569E1
8.841620130E-1,5.790000558E-1,4.315950394E0,9.022050858E0,1.001798735E1
8.861248180E-1,6.169500351E-1,4.315950394E0,9.060000420E0,1.005443498E1
8.880877160E-1,5.790000558E-1,4.315950394E0,9.022050858E0,1.001798735E1
8.900505870E-1,5.790000558E-1,4.276950359E0,9.022050858E0,1.000124728E1
8.920137490E-1,6.550500393E-1,4.276950359E0,8.983950615E0,9.971597845E0
8.939768220E-1,6.169500351E-1,4.276950359E0,8.983950615E0,9.969167486E0
8.959395400E-1,6.550500393E-1,4.276950359E0,9.022050858E0,1.000593807E1
8.979023620E-1,6.169500351E-1,4.315950394E0,8.944950104E0,9.950888780E0
8.998652560E-1,6.169500351E-1,4.239000320E0,8.983950615E0,9.952945278E0
9.018281290E-1,6.550500393E-1,4.239000320E0,9.022050858E0,9.989775570E0
9.037901470E-1,5.410500169E-1,4.315950394E0,8.983950615E0,9.981559576E0
9.057524250E-1,5.020500422E-1,4.239000320E0,8.944950104E0,9.911271882E0
9.077159980E-1,5.410500169E-1,4.315950394E0,8.983950615E0,9.981559576E0
9.096791920E-1,5.790000558E-1,4.276950359E0,8.944950104E0,9.931750994E0
9.116424290E-1,5.410500169E-1,4.315950394E0,8.983950615E0,9.981559576E0
9.136056540E-1,5.790000558E-1,4.315950394E0,8.907000542E0,9.914500871E0
9.155681710E-1,5.410500169E-1,4.315950394E0,8.944950104E0,9.946471499E0
9.175308920E-1,5.410500169E-1,4.315950394E0,8.944950104E0,9.946471499E0
9.194940280E-1,5.410500169E-1,4.315950394E0,8.944950104E0,9.946471499E0
9.214570430E-1,5.410500169E-1,4.276950359E0,8.983950615E0,9.964758309E0
9.234210320E-1,5.410500169E-1,4.315950394E0,8.983950615E0,9.981559576E0
9.253847360E-1,5.790000558E-1,4.315950394E0,8.983950615E0,9.983688573E0
9.273471710E-1,5.790000558E-1,4.315950394E0,8.944950104E0,9.948608004E0
9.293099740E-1,5.410500169E-1,4.276950359E0,8.944950104E0,9.929610861E0
9.312741780E-1,6.169500351E-1,4.276950359E0,8.983950615E0,9.969167486E0
9.332379720E-1,5.790000558E-1,4.354050159E0,8.983950615E0,1.000021812E1
9.352002510E-1,5.410500169E-1,4.239000320E0,8.983950615E0,9.948528911E0
9.371629740E-1,5.020500422E-1,4.276950359E0,9.060000420E0,1.003134917E1
9.391270070E-1,5.410500169E-1,4.315950394E0,9.022050858E0,1.001586564E1
9.410906590E-1,5.790000558E-1,4.276950359E0,8.983950615E0,9.966890894E0
9.430532780E-1,5.790000558E-1,4.315950394E0,8.944950104E0,9.948608004E0
9.450161990E-1,5.410500169E-1,4.315950394E0,8.983950615E0,9.981559576E0
9.469793020E-1,6.169500351E-1,4.315950394E0,8.983950615E0,9.985961336E0
9.489423510E-1,5.410500169E-1,4.315950394E0,8.944950104E0,9.946471499E0
9.509061490E-1,5.790000558E-1,4.315950394E0,8.983950615E0,9.983688573E0
9.528697310E-1,6.169500351E-1,4.276950359E0,8.944950104E0,9.934035639E0
9.548325420E-1,5.410500169E-1,4.315950394E0,8.983950615E0,9.981559576E0
9.567955790E-1,6.169500351E-1,4.315950394E0,9.022050858E0,1.002025233E1
9.587584370E-1,5.790000558E-1,4.276950359E0,8.983950615E0,9.966890894E0
9.607213480E-1,5.410500169E-1,4.276950359E0,8.983950615E0,9.964758309E0
9.626851740E-1,5.790000558E-1,4.315950394E0,8.983950615E0,9.983688573E0
9.646487310E-1,5.790000558E-1,4.315950394E0,8.983950615E0,9.983688573E0
9.666110060E-1,5.790000558E-1,4.315950394E0,9.022050858E0,1.001798735E1
9.685736560E-1,5.410500169E-1,4.354050159E0,9.022050858E0,1.003234218E1
9.705372110E-1,5.410500169E-1,4.315950394E0,8.983950615E0,9.981559576E0
9.725005000E-1,5.790000558E-1,4.354050159E0,9.022050858E0,1.003446040E1
9.744639060E-1,5.020500422E-1,4.276950359E0,8.983950615E0,9.962716862E0
9.764272740E-1,5.790000558E-1,4.276950359E0,9.022050858E0,1.000124728E1
9.783897160E-1,5.410500169E-1,4.315950394E0,9.022050858E0,1.001586564E1
9.803524300E-1,5.020500422E-1,4.315950394E0,8.983950615E0,9.979521567E0
9.823157940E-1,5.410500169E-1,4.315950394E0,9.022050858E0,1.001586564E1
9.842789670E-1,5.020500422E-1,4.315950394E0,8.944950104E0,9.944426298E0
9.862425080E-1,4.639500082E-1,4.354050159E0,9.022050858E0,1.002847965E1
9.882059520E-1,5.410500169E-1,4.315950394E0,9.022050858E0,1.001586564E1
9.901691470E-1,4.639500082E-1,4.315950394E0,9.022050858E0,1.001199676E1
9.921324150E-1,4.639500082E-1,4.354050159E0,8.983950615E0,9.994216880E0
9.940956400E-1,5.020500422E-1,4.276950359E0,9.022050858E0,9.997087591E0
9.960588770E-1,5.020500422E-1,4.315950394E0,9.022050858E0,1.001383462E1
9.980221160E-1,5.020500422E-1,4.315950394E0,8.983950615E0,9.979521567E0
9.999853480E-1,5.020500422E-1,4.354050159E0,8.944950104E0,9.961021002E0
1.001948443E0,5.410500169E-1,4.354050159E0,9.022050858E0,1.003234218E1
1.003911579E0,5.020500422E-1,4.276950359E0,8.983950615E0,9.962716862E0
1.005875005E0,5.020500422E-1,4.354050159E0,8.944950104E0,9.961021002E0
1.007838346E0,5.410500169E-1,4.315950394E0,8.983950615E0,9.981559576E0
1.009802654E0,5.410500169E-1,4.315950394E0,8.983950615E0,9.981559576E0
1.011766668E0,5.790000558E-1,4.315950394E0,8.983950615E0,9.983688573E0
1.013729405E0,5.410500169E-1,4.315950394E0,8.983950615E0,9.981559576E0
1.015692516E0,5.410500169E-1,4.354050159E0,8.983950615E0,9.998092646E0
1.017655902E0,5.410500169E-1,4.315950394E0,8.983950615E0,9.981559576E0
1.019619207E0,5.410500169E-1,4.392000198E0,8.944950104E0,9.979706069E0
1.021582825E0,5.020500422E-1,4.276950359E0,8.944950104E0,9.927562187E0
1.023546355E0,5.790000558E-1,4.315950394E0,8.944950104E0,9.948608004E0
1.025509355E0,5.410500169E-1,4.315950394E0,8.944950104E0,9.946471499E0
1.027472511E0,5.790000558E-1,4.315950394E0,8.983950615E0,9.983688573E0
1.029435214E0,5.410500169E-1,4.315950394E0,8.944950104E0,9.946471499E0
1.031398050E0,5.410500169E-1,4.315950394E0,8.944950104E0,9.946471499E0
1.033361663E0,5.410500169E-1,4.276950359E0,8.983950615E0,9.964758309E0
1.035325048E0,5.410500169E-1,4.315950394E0,8.944950104E0,9.946471499E0
1.037287712E0,5.410500169E-1,4.315950394E0,8.983950615E0,9.981559576E0
1.039250588E0,5.410500169E-1,4.354050159E0,8.907000542E0,9.929005316E0
1.041213879E0,5.020500422E-1,4.392000198E0,8.944950104E0,9.977667681E0
1.043177048E0,5.410500169E-1,4.354050159E0,8.944950104E0,9.963062796E0
1.045140334E0,5.790000558E-1,4.315950394E0,8.907000542E0,9.914500871E0
1.047103586E0,5.410500169E-1,4.276950359E0,8.944950104E0,9.929610861E0
1.049066048E0,5.410500169E-1,4.315950394E0,8.944950104E0,9.946471499E0
1.051028742E0,5.410500169E-1,4.315950394E0,8.983950615E0,9.981559576E0
1.052991929E0,5.410500169E-1,4.315950394E0,8.944950104E0,9.946471499E0
1.054954971E0,4.639500082E-1,4.315950394E0,8.944950104E0,9.942575610E0
1.056918419E0,5.020500422E-1,4.315950394E0,8.944950104E0,9.944426298E0
1.058881745E0,5.410500169E-1,4.354050159E0,8.944950104E0,9.963062796E0
1.060844780E0,5.410500169E-1,4.354050159E0,8.983950615E0,9.998092646E0
1.062807901E0,5.020500422E-1,4.315950394E0,9.022050858E0,1.001383462E1
1.064771285E0,5.020500422E-1,4.354050159E0,8.983950615E0,9.996058007E0
1.066734591E0,4.639500082E-1,4.276950359E0,8.983950615E0,9.960869572E0
1.068697831E0,5.020500422E-1,4.354050159E0,8.944950104E0,9.961021002E0
1.070661108E0,5.410500169E-1,4.354050159E0,9.022050858E0,1.003234218E1
1.072625005E0,5.020500422E-1,4.354050159E0,9.022050858E0,1.003031449E1
1.074588721E0,5.790000558E-1,4.315950394E0,9.022050858E0,1.001798735E1
1.076551149E0,5.410500169E-1,4.354050159E0,8.983950615E0,9.998092646E0
1.078513954E0,5.020500422E-1,4.315950394E0,8.944950104E0,9.944426298E0
1.080478033E0,5.410500169E-1,4.315950394E0,8.983950615E0,9.981559576E0
1.082441731E0,5.790000558E-1,4.315950394E0,9.060000420E0,1.005217770E1
1.084404342E0,5.020500422E-1,4.315950394E0,9.022050858E0,1.001383462E1
1.086367272E0,5.020500422E-1,4.315950394E0,9.060000420E0,1.004803909E1
1.088330869E0,5.020500422E-1,4.276950359E0,9.022050858E0,9.997087591E0
1.090294270E0,5.020500422E-1,4.239000320E0,9.060000420E0,1.001522768E1
1.092257477E0,5.790000558E-1,4.276950359E0,9.098999977E0,1.007071725E1
1.094220738E0,5.410500169E-1,4.276950359E0,9.022050858E0,9.999122020E0
1.096184188E0,5.410500169E-1,4.276950359E0,9.060000420E0,1.003337665E1
1.098147582E0,5.790000558E-1,4.276950359E0,9.060000420E0,1.003549466E1
1.100110020E0,5.020500422E-1,4.276950359E0,9.060000420E0,1.003134917E1
1.102072738E0,5.410500169E-1,4.276950359E0,9.022050858E0,9.999122020E0
1.104036031E0,5.410500169E-1,4.276950359E0,9.022050858E0,9.999122020E0
1.105999173E0,5.410500169E-1,4.315950394E0,8.983950615E0,9.981559576E0
1.107962285E0,5.020500422E-1,4.276950359E0,9.022050858E0,9.997087591E0
1.109925406E0,5.020500422E-1,4.315950394E0,8.983950615E0,9.979521567E0
1.111888790E0,5.020500422E-1,4.315950394E0,8.983950615E0,9.979521567E0
1.113852096E0,5.020500422E-1,4.315950394E0,9.022050858E0,1.001383462E1
1.115815301E0,4.639500082E-1,4.315950394E0,8.944950104E0,9.942575610E0
1.117778545E0,4.639500082E-1,4.315950394E0,8.944950104E0,9.942575610E0
1.119741774E0,4.260000288E-1,4.354050159E0,8.983950615E0,9.992527081E0
1.121705007E0,4.639500082E-1,4.315950394E0,8.944950104E0,9.942575610E0
1.123668057E0,4.639500082E-1,4.354050159E0,8.944950104E0,9.959173397E0
1.125631161E0,5.020500422E-1,4.315950394E0,8.869050026E0,9.876210326E0
1.127594301E0,4.639500082E-1,4.392000198E0,8.944950104E0,9.975823160E0
1.129557414E0,5.020500422E-1,4.354050159E0,8.907000542E0,9.926956517E0
1.131520305E0,4.639500082E-1,4.354050159E0,8.907000542E0,9.925102571E0
1.133483262E0,4.639500082E-1,4.315950394E0,8.907000542E0,9.908447712E0
1.135446134E0,4.639500082E-1,4.354050159E0,8.869050026E0,9.891059133E0
1.137409031E0,5.410500169E-1,4.392000198E0,8.869050026E0,9.911732907E0
1.139372109E0,5.410500169E-1,4.354050159E0,8.907000542E0,9.929005316E0
1.141335154E0,5.020500422E-1,4.354050159E0,8.830050468E0,9.857971308E0
1.143297922E0,5.020500422E-1,4.392000198E0,8.869050026E0,9.909680537E0
1.145260771E0,5.020500422E-1,4.392000198E0,8.869050026E0,9.909680537E0
1.147224427E0,5.790000558E-1,4.354050159E0,8.944950104E0,9.965195744E0
1.149187846E0,5.410500169E-1,4.354050159E0,8.907000542E0,9.929005316E0
1.151151046E0,5.410500169E-1,4.315950394E0,8.907000542E0,9.912357014E0
1.153114310E0,6.169500351E-1,4.315950394E0,8.907000542E0,9.916789490E0
1.155077129E0,5.790000558E-1,4.315950394E0,8.907000542E0,9.914500871E0
1.157040079E0,5.790000558E-1,4.354050159E0,8.907000542E0,9.931145579E0
1.159002457E0,6.550500393E-1,4.315950394E0,8.944950104E0,9.953323601E0
1.160965002E0,5.410500169E-1,4.315950394E0,8.907000542E0,9.912357014E0
1.162928755E0,5.410500169E-1,4.315950394E0,8.907000542E0,9.912357014E0
1.164892154E0,5.790000558E-1,4.276950359E0,8.907000542E0,9.897585771E0
1.166855357E0,6.169500351E-1,4.315950394E0,8.907000542E0,9.916789490E0
1.168818617E0,6.169500351E-1,4.315950394E0,8.907000542E0,9.916789490E0
1.170780942E0,5.790000558E-1,4.315950394E0,8.944950104E0,9.948608004E0
1.172743541E0,5.410500169E-1,4.315950394E0,8.983950615E0,9.981559576E0
1.174707195E0,5.790000558E-1,4.315950394E0,8.907000542E0,9.914500871E0
1.176670539E0,5.790000558E-1,4.276950359E0,8.907000542E0,9.897585771E0
1.178633391E0,5.790000558E-1,4.315950394E0,8.907000542E0,9.914500871E0
1.180596387E0,5.790000558E-1,4.315950394E0,8.944950104E0,9.948608004E0
1.182559342E0,5.790000558E-1,4.276950359E0,8.944950104E0,9.931750994E0
1.184522310E0,6.169500351E-1,4.315950394E0,8.869050026E0,9.882717415E0
1.186485374E0,5.790000558E-1,4.276950359E0,8.907000542E0,9.897585771E0
1.188448399E0,5.790000558E-1,4.276950359E0,8.907000542E0,9.897585771E0
1.190411170E0,5.790000558E-1,4.315950394E0,8.983950615E0,9.983688573E0
1.192374016E0,6.169500351E-1,4.276950359E0,8.944950104E0,9.934035639E0
1.194336727E0,5.790000558E-1,4.315950394E0,8.983950615E0,9.983688573E0
1.196299478E0,5.410500169E-1,4.315950394E0,8.944950104E0,9.946471499E0
1.198262790E0,5.790000558E-1,4.276950359E0,8.944950104E0,9.931750994E0
1.200225937E0,5.790000558E-1,4.315950394E0,8.944950104E0,9.948608004E0
1.202189003E0,5.790000558E-1,4.276950359E0,8.983950615E0,9.966890894E0
1.204152093E0,5.790000558E-1,4.315950394E0,8.983950615E0,9.983688573E0
1.206115168E0,5.410500169E-1,4.315950394E0,8.983950615E0,9.981559576E0
1.208078247E0,5.790000558E-1,4.276950359E0,8.983950615E0,9.966890894E0
1.210040644E0,5.790000558E-1,4.315950394E0,8.983950615E0,9.983688573E0
1.212003243E0,5.790000558E-1,4.276950359E0,9.022050858E0,1.000124728E1
1.213966221E0,5.790000558E-1,4.276950359E0,9.060000420E0,1.003549466E1
1.215929087E0,5.410500169E-1,4.315950394E0,9.022050858E0,1.001586564E1
1.217892155E0,5.410500169E-1,4.315950394E0,9.060000420E0,1.005006321E1
1.219855164E0,5.020500422E-1,4.276950359E0,9.098999977E0,1.006658627E1
1.221818238E0,5.020500422E-1,4.315950394E0,9.060000420E0,1.004803909E1
1.223781303E0,4.639500082E-1,4.276950359E0,9.060000420E0,1.002951452E1
1.225744562E0,5.020500422E-1,4.239000320E0,9.098999977E0,1.005052131E1
1.227707764E0,5.410500169E-1,4.239000320E0,9.060000420E0,1.001725843E1
1.229670686E0,5.410500169E-1,4.315950394E0,9.098999977E0,1.008523493E1
1.231633690E0,5.410500169E-1,4.315950394E0,9.098999977E0,1.008523493E1
1.233596992E0,5.410500169E-1,4.315950394E0,9.136950493E0,1.011948750E1
1.235560183E0,5.020500422E-1,4.276950359E0,9.136950493E0,1.010090208E1
1.237523376E0,5.020500422E-1,4.276950359E0,9.098999977E0,1.006658627E1
1.239486568E0,5.020500422E-1,4.276950359E0,9.136950493E0,1.010090208E1
1.241449805E0,5.410500169E-1,4.315950394E0,9.098999977E0,1.008523493E1
1.243413029E0,5.410500169E-1,4.239000320E0,9.136950493E0,1.008690850E1
1.245376426E0,5.020500422E-1,4.201050282E0,9.098999977E0,1.003457415E1
1.247339783E0,5.020500422E-1,4.276950359E0,9.098999977E0,1.006658627E1
1.249303759E0,5.410500169E-1,4.276950359E0,9.098999977E0,1.006860666E1
1.251267553E0,5.790000558E-1,4.239000320E0,9.060000420E0,1.001937984E1
1.253229922E0,5.410500169E-1,4.239000320E0,8.983950615E0,9.948528911E0
1.255192709E0,5.020500422E-1,4.239000320E0,9.098999977E0,1.005052131E1
1.257156079E0,5.410500169E-1,4.239000320E0,9.022050858E0,9.982948488E0
1.259119264E0,5.410500169E-1,4.201050282E0,9.060000420E0,1.000125823E1
1.261082503E0,5.020500422E-1,4.276950359E0,9.060000420E0,1.003134917E1
1.263045726E0,5.410500169E-1,4.239000320E0,9.022050858E0,9.982948488E0
1.265008599E0,5.410500169E-1,4.276950359E0,8.983950615E0,9.964758309E0
1.266971574E0,5.020500422E-1,4.239000320E0,8.983950615E0,9.946484133E0
1.268934608E0,5.020500422E-1,4.276950359E0,9.022050858E0,9.997087591E0
1.270897635E0,5.020500422E-1,4.276950359E0,8.983950615E0,9.962716862E0
1.272860586E0,4.639500082E-1,4.201050282E0,9.022050858E0,9.963005307E0
1.274823560E0,5.410500169E-1,4.315950394E0,8.983950615E0,9.981559576E0
1.276787374E0,5.790000558E-1,4.315950394E0,8.983950615E0,9.983688573E0
1.278750942E0,5.790000558E-1,4.315950394E0,8.944950104E0,9.948608004E0
1.280714272E0,5.790000558E-1,4.354050159E0,8.944950104E0,9.965195744E0
1.282677689E0,5.790000558E-1,4.276950359E0,8.944950104E0,9.931750994E0
1.284641023E0,5.790000558E-1,4.315950394E0,8.983950615E0,9.983688573E0
1.286604381E0,6.169500351E-1,4.315950394E0,8.983950615E0,9.985961336E0
1.288567635E0,5.790000558E-1,4.315950394E0,8.983950615E0,9.983688573E0
1.290530919E0,5.790000558E-1,4.315950394E0,8.983950615E0,9.983688573E0
1.292493958E0,5.410500169E-1,4.315950394E0,8.944950104E0,9.946471499E0
1.294457039E0,5.410500169E-1,4.354050159E0,8.944950104E0,9.963062796E0
1.296419394E0,5.020500422E-1,4.354050159E0,8.944950104E0,9.961021002E0
1.298381962E0,5.020500422E-1,4.354050159E0,8.907000542E0,9.926956517E0
1.300345846E0,5.410500169E-1,4.315950394E0,8.944950104E0,9.946471499E0
1.302309345E0,5.790000558E-1,4.354050159E0,8.907000542E0,9.931145579E0
1.304272531E0,5.020500422E-1,4.354050159E0,8.907000542E0,9.926956517E0
1.306235809E0,5.790000558E-1,4.315950394E0,8.944950104E0,9.948608004E0
1.308198310E0,5.020500422E-1,4.354050159E0,8.983950615E0,9.996058007E0
1.310161039E0,5.020500422E-1,4.354050159E0,8.944950104E0,9.961021002E0
1.312123995E0,5.410500169E-1,4.354050159E0,8.983950615E0,9.998092646E0
1.314086884E0,5.020500422E-1,4.354050159E0,8.944950104E0,9.961021002E0
1.316049849E0,5.410500169E-1,4.354050159E0,8.944950104E0,9.963062796E0
1.318012798E0,5.410500169E-1,4.354050159E0,8.944950104E0,9.963062796E0
1.319975852E0,4.639500082E-1,4.354050159E0,8.944950104E0,9.959173397E0
1.321938875E0,5.410500169E-1,4.354050159E0,8.944950104E0,9.963062796E0
1.323902006E0,5.020500422E-1,4.354050159E0,8.983950615E0,9.996058007E0
1.325865105E0,5.410500169E-1,4.315950394E0,8.944950104E0,9.946471499E0
1.327828032E0,5.020500422E-1,4.354050159E0,8.983950615E0,9.996058007E0
1.329790987E0,5.020500422E-1,4.354050159E0,8.907000542E0,9.926956517E0
1.331753859E0,5.020500422E-1,4.354050159E0,8.944950104E0,9.961021002E0
1.333716756E0,5.410500169E-1,4.315950394E0,8.983950615E0,9.981559576E0
1.335679548E0,5.410500169E-1,4.315950394E0,8.907000542E0,9.912357014E0
1.337642371E0,5.020500422E-1,4.315950394E0,8.983950615E0,9.979521567E0
1.339605265E0,5.410500169E-1,4.315950394E0,9.022050858E0,1.001586564E1
1.341568138E0,5.410500169E-1,4.315950394E0,8.944950104E0,9.946471499E0
1.343531431E0,5.020500422E-1,4.315950394E0,8.907000542E0,9.910304773E0
1.345494600E0,5.410500169E-1,4.354050159E0,8.944950104E0,9.963062796E0
1.347457886E0,5.410500169E-1,4.315950394E0,8.944950104E0,9.946471499E0
1.349421138E0,5.410500169E-1,4.315950394E0,8.983950615E0,9.981559576E0
1.351384127E0,5.790000558E-1,4.315950394E0,8.983950615E0,9.983688573E0
1.353347203E0,5.020500422E-1,4.315950394E0,8.944950104E0,9.944426298E0
1.355311000E0,5.410500169E-1,4.276950359E0,8.983950615E0,9.964758309E0
1.357274586E0,5.410500169E-1,4.354050159E0,8.983950615E0,9.998092646E0
1.359237802E0,5.790000558E-1,4.315950394E0,8.944950104E0,9.948608004E0
1.361201126E0,5.790000558E-1,4.315950394E0,8.983950615E0,9.983688573E0
1.363164301E0,5.020500422E-1,4.354050159E0,9.060000420E0,1.006446296E1
1.365127516E0,5.790000558E-1,4.354050159E0,8.944950104E0,9.965195744E0
1.367090569E0,5.410500169E-1,4.354050159E0,9.022050858E0,1.003234218E1
1.369053670E0,5.790000558E-1,4.354050159E0,9.060000420E0,1.006859481E1
1.371015661E0,5.410500169E-1,4.315950394E0,8.944950104E0,9.946471499E0
1.372977978E0,5.410500169E-1,4.354050159E0,8.983950615E0,9.998092646E0
1.374941184E0,5.790000558E-1,4.315950394E0,9.022050858E0,1.001798735E1
1.376904129E0,5.410500169E-1,4.315950394E0,8.944950104E0,9.946471499E0
1.378867769E0,5.410500169E-1,4.315950394E0,8.944950104E0,9.946471499E0
1.380831206E0,6.169500351E-1,4.276950359E0,8.983950615E0,9.969167486E0
1.382793727E0,5.410500169E-1,4.354050159E0,8.983950615E0,9.998092646E0
1.384756516E0,5.790000558E-1,4.315950394E0,9.022050858E0,1.001798735E1
1.386719057E0,5.410500169E-1,4.315950394E0,8.983950615E0,9.981559576E0
1.388681670E0,5.020500422E-1,4.315950394E0,8.869050026E0,9.876210326E0
1.390645006E0,5.410500169E-1,4.276950359E0,8.944950104E0,9.929610861E0
1.392608130E0,5.410500169E-1,4.315950394E0,8.944950104E0,9.946471499E0
1.394571199E0,5.410500169E-1,4.315950394E0,8.944950104E0,9.946471499E0
1.396534285E0,5.410500169E-1,4.315950394E0,8.983950615E0,9.981559576E0
1.398497355E0,5.410500169E-1,4.315950394E0,8.944950104E0,9.946471499E0
1.400460434E0,5.410500169E-1,4.315950394E0,8.907000542E0,9.912357014E0
1.402423015E0,5.020500422E-1,4.354050159E0,8.907000542E0,9.926956517E0
1.404385742E0,5.410500169E-1,4.315950394E0,8.907000542E0,9.912357014E0
1.406349058E0,5.020500422E-1,4.315950394E0,8.907000542E0,9.910304773E0
1.408312201E0,5.020500422E-1,4.315950394E0,8.944950104E0,9.944426298E0
1.410275043E0,5.410500169E-1,4.354050159E0,8.907000542E0,9.929005316E0
1.412237973E0,5.020500422E-1,4.315950394E0,8.907000542E0,9.910304773E0
1.414201299E0,5.410500169E-1,4.315950394E0,8.907000542E0,9.912357014E0
1.416164509E0,5.410500169E-1,4.315950394E0,8.944950104E0,9.946471499E0
1.418127519E0,5.020500422E-1,4.315950394E0,8.907000542E0,9.910304773E0
1.420090588E0,4.639500082E-1,4.315950394E0,8.944950104E0,9.942575610E0
1.422053812E0,5.020500422E-1,4.315950394E0,9.022050858E0,1.001383462E1
1.424017014E0,5.410500169E-1,4.315950394E0,8.944950104E0,9.946471499E0
1.425980971E0,5.410500169E-1,4.276950359E0,8.983950615E0,9.964758309E0
1.427944706E0,5.790000558E-1,4.276950359E0,8.983950615E0,9.966890894E0
1.429906950E0,5.410500169E-1,4.276950359E0,9.022050858E0,9.999122020E0
1.431869631E0,5.410500169E-1,4.239000320E0,9.022050858E0,9.982948488E0
1.433832785E0,5.410500169E-1,4.276950359E0,9.022050858E0,9.999122020E0
1.435795793E0,4.639500082E-1,4.276950359E0,9.060000420E0,1.002951452E1
1.437758927E0,5.020500422E-1,4.276950359E0,9.022050858E0,9.997087591E0
1.439722024E0,5.410500169E-1,4.276950359E0,9.022050858E0,9.999122020E0
1.441685277E0,5.020500422E-1,4.276950359E0,9.060000420E0,1.003134917E1
1.443648485E0,5.020500422E-1,4.276950359E0,9.060000420E0,1.003134917E1
1.445611540E0,5.020500422E-1,4.315950394E0,9.022050858E0,1.001383462E1
1.447574640E0,5.020500422E-1,4.354050159E0,8.944950104E0,9.961021002E0
1.449538072E0,5.020500422E-1,4.315950394E0,9.022050858E0,1.001383462E1
1.451501407E0,5.410500169E-1,4.354050159E0,8.983950615E0,9.998092646E0
1.453464621E0,5.410500169E-1,4.315950394E0,8.983950615E0,9.981559576E0
1.455427871E0,5.020500422E-1,4.354050159E0,9.022050858E0,1.003031449E1
1.457391399E0,5.020500422E-1,4.315950394E0,8.983950615E0,9.979521567E0
1.459354855E0,5.410500169E-1,4.354050159E0,9.022050858E0,1.003234218E1
1.461318588E0,6.169500351E-1,4.315950394E0,8.944950104E0,9.950888780E0
1.463282240E0,5.790000558E-1,4.354050159E0,8.983950615E0,1.000021812E1
1.465245264E0,5.410500169E-1,4.354050159E0,8.983950615E0,9.998092646E0
1.467208472E0,5.790000558E-1,4.276950359E0,8.944950104E0,9.931750994E0
1.469172021E0,5.410500169E-1,4.315950394E0,8.907000542E0,9.912357014E0
1.471135470E0,5.410500169E-1,4.315950394E0,8.907000542E0,9.912357014E0
1.473098304E0,5.410500169E-1,4.315950394E0,8.907000542E0,9.912357014E0
1.475061318E0,5.020500422E-1,4.315950394E0,8.869050026E0,9.876210326E0
1.477024630E0,5.020500422E-1,4.354050159E0,8.907000542E0,9.926956517E0
1.478987855E0,5.410500169E-1,4.392000198E0,8.869050026E0,9.911732907E0
1.480951077E0,5.020500422E-1,4.392000198E0,8.907000542E0,9.943660223E0
1.482914306E0,5.410500169E-1,4.354050159E0,8.830050468E0,9.860034441E0
1.484877559E0,5.020500422E-1,4.354050159E0,8.907000542E0,9.926956517E0
1.486840788E0,5.410500169E-1,4.354050159E0,8.869050026E0,9.894975304E0
1.488804017E0,5.020500422E-1,4.354050159E0,8.907000542E0,9.926956517E0
1.490767246E0,5.020500422E-1,4.354050159E0,8.907000542E0,9.926956517E0
1.492730475E0,5.410500169E-1,4.354050159E0,8.907000542E0,9.929005316E0
1.494693704E0,5.020500422E-1,4.315950394E0,8.983950615E0,9.979521567E0
1.496656933E0,5.020500422E-1,4.315950394E0,8.983950615E0,9.979521567E0
1.498620162E0,5.020500422E-1,4.354050159E0,8.944950104E0,9.961021002E0
1.500583391E0,5.020500422E-1,4.354050159E0,9.022050858E0,1.003031449E1
1.502546620E0,5.020500422E-1,4.315950394E0,9.022050858E0,1.001383462E1
1.504508257E0,5.020500422E-1,4.354050159E0,9.022050858E0,1.003031449E1
1.506471486E0,5.410500169E-1,4.315950394E0,8.983950615E0,9.981559576E0
1.508434532E0,4.639500082E-1,4.354050159E0,9.022050858E0,1.002847965E1
1.510397640E0,4.639500082E-1,4.354050159E0,9.060000420E0,1.006263435E1
1.512360531E0,5.020500422E-1,4.354050159E0,8.983950615E0,9.996058007E0
1.514323486E0,4.260000288E-1,4.315950394E0,9.060000420E0,1.004452644E1
1.516286269E0,4.639500082E-1,4.315950394E0,9.022050858E0,1.001199676E1
1.518249102E0,4.639500082E-1,4.354050159E0,9.060000420E0,1.006263435E1
1.520212400E0,4.639500082E-1,4.315950394E0,9.098999977E0,1.008139266E1
1.522175561E0,4.260000288E-1,4.354050159E0,9.098999977E0,1.009608981E1
1.524139119E0,5.020500422E-1,4.315950394E0,9.060000420E0,1.004803909E1
1.526102561E0,5.410500169E-1,4.315950394E0,9.060000420E0,1.005006321E1
1.528065567E0,4.260000288E-1,4.354050159E0,9.060000420E0,1.006095604E1
1.530028708E0,4.639500082E-1,4.354050159E0,9.022050858E0,1.002847965E1
1.531991639E0,4.639500082E-1,4.354050159E0,9.022050858E0,1.002847965E1
1.533954631E0,4.639500082E-1,4.315950394E0,9.060000420E0,1.004620749E1
1.535917857E0,4.639500082E-1,4.354050159E0,9.022050858E0,1.002847965E1
1.537881014E0,4.260000288E-1,4.315950394E0,9.022050858E0,1.001030996E1
1.539843943E0,5.020500422E-1,4.354050159E0,8.983950615E0,9.996058007E0
1.541806939E0,4.260000288E-1,4.315950394E0,9.022050858E0,1.001030996E1
1.543770164E0,5.020500422E-1,4.315950394E0,9.060000420E0,1.004803909E1
1.545733322E0,4.639500082E-1,4.315950394E0,9.022050858E0,1.001199676E1
1.547696251E0,5.410500169E-1,4.354050159E0,8.944950104E0,9.963062796E0
1.549659247E0,5.020500422E-1,4.315950394E0,9.022050858E0,1.001383462E1
1.551622476E0,5.020500422E-1,4.315950394E0,9.060000420E0,1.004803909E1
1.553585633E0,5.020500422E-1,4.276950359E0,8.983950615E0,9.962716862E0
1.555549102E0,5.020500422E-1,4.315950394E0,8.983950615E0,9.979521567E0
1.557512480E0,5.410500169E-1,4.315950394E0,8.983950615E0,9.981559576E0
1.559474785E0,5.410500169E-1,4.315950394E0,8.944950104E0,9.946471499E0
1.561437405E0,5.410500169E-1,4.315950394E0,8.944950104E0,9.946471499E0
1.563400911E0,5.020500422E-1,4.315950394E0,8.944950104E0,9.944426298E0
1.565364163E0,5.020500422E-1,4.315950394E0,8.983950615E0,9.979521567E0
1.567327886E0,5.410500169E-1,4.276950359E0,8.983950615E0,9.964758309E0
1.569291471E0,5.790000558E-1,4.315950394E0,8.944950104E0,9.948608004E0
1.571253966E0,5.410500169E-1,4.315950394E0,8.983950615E0,9.981559576E0
1.573216780E0,5.410500169E-1,4.315950394E0,8.983950615E0,9.981559576E0
1.575179905E0,5.410500169E-1,4.276950359E0,8.944950104E0,9.929610861E0
1.577142936E0,5.020500422E-1,4.276950359E0,8.907000542E0,9.893382499E0
1.579106742E0,5.410500169E-1,4.315950394E0,8.944950104E0,9.946471499E0
1.581070321E0,5.790000558E-1,4.315950394E0,8.944950104E0,9.948608004E0
1.583033448E0,5.410500169E-1,4.354050159E0,9.022050858E0,1.003234218E1
1.584996707E0,5.790000558E-1,4.315950394E0,8.944950104E0,9.948608004E0
1.586959037E0,5.410500169E-1,4.315950394E0,8.944950104E0,9.946471499E0
1.588921635E0,5.020500422E-1,4.315950394E0,8.944950104E0,9.944426298E0
1.590884838E0,5.790000558E-1,4.354050159E0,8.983950615E0,1.000021812E1
1.592847864E0,5.020500422E-1,4.315950394E0,8.944950104E0,9.944426298E0
1.594811310E0,4.639500082E-1,4.276950359E0,8.944950104E0,9.925708355E0
1.596774633E0,5.410500169E-1,4.354050159E0,8.944950104E0,9.963062796E0
1.598738705E0,5.020500422E-1,4.315950394E0,8.944950104E0,9.944426298E0
1.600702557E0,5.410500169E-1,4.354050159E0,8.944950104E0,9.963062796E0
1.602665322E0,5.410500169E-1,4.354050159E0,8.983950615E0,9.998092646E0
1.604628405E0,5.410500169E-1,4.315950394E0,8.944950104E0,9.946471499E0
1.606592426E0,5.410500169E-1,4.276950359E0,8.907000542E0,9.895438249E0
1.608556172E0,5.790000558E-1,4.354050159E0,8.944950104E0,9.965195744E0
1.610518605E0,5.020500422E-1,4.354050159E0,8.944950104E0,9.961021002E0
1.612481415E0,4.639500082E-1,4.354050159E0,8.907000542E0,9.925102571E0
1.614445393E0,5.020500422E-1,4.315950394E0,8.869050026E0,9.876210326E0
1.616409028E0,5.790000558E-1,4.354050159E0,8.907000542E0,9.931145579E0
1.618371830E0,5.790000558E-1,4.315950394E0,8.907000542E0,9.914500871E0
1.620334876E0,5.410500169E-1,4.354050159E0,8.869050026E0,9.894975304E0
1.622299044E0,5.790000558E-1,4.315950394E0,8.907000542E0,9.914500871E0
1.624262879E0,5.790000558E-1,4.315950394E0,8.907000542E0,9.914500871E0
1.626225647E0,5.410500169E-1,4.315950394E0,8.907000542E0,9.912357014E0
1.628188727E0,5.020500422E-1,4.354050159E0,8.907000542E0,9.926956517E0
1.630152343E0,5.790000558E-1,4.276950359E0,8.869050026E0,9.863447359E0
1.632115802E0,5.410500169E-1,4.315950394E0,8.907000542E0,9.912357014E0
1.634079044E0,5.790000558E-1,4.354050159E0,8.907000542E0,9.931145579E0
1.636042347E0,5.410500169E-1,4.315950394E0,8.944950104E0,9.946471499E0
1.638006285E0,5.020500422E-1,4.315950394E0,8.869050026E0,9.876210326E0
1.639970037E0,5.790000558E-1,4.354050159E0,8.869050026E0,9.897122926E0
1.641933135E0,5.410500169E-1,4.315950394E0,8.869050026E0,9.878269650E0
1.643896424E0,5.790000558E-1,4.315950394E0,8.869050026E0,9.880420903E0
1.645859630E0,5.790000558E-1,4.315950394E0,8.869050026E0,9.880420903E0
1.647822871E0,5.790000558E-1,4.315950394E0,8.907000542E0,9.914500871E0
1.649785605E0,5.020500422E-1,4.315950394E0,8.944950104E0,9.944426298E0
1.651748487E0,5.790000558E-1,4.315950394E0,8.907000542E0,9.914500871E0
1.653711776E0,6.169500351E-1,4.276950359E0,8.944950104E0,9.934035639E0
1.655674946E0,5.790000558E-1,4.315950394E0,8.907000542E0,9.914500871E0
1.657637598E0,5.790000558E-1,4.276950359E0,8.907000542E0,9.897585771E0
1.659600405E0,6.169500351E-1,4.239000320E0,8.983950615E0,9.952945278E0
1.661563572E0,5.790000558E-1,4.276950359E0,8.944950104E0,9.931750994E0
1.663526634E0,5.790000558E-1,4.276950359E0,8.944950104E0,9.931750994E0
1.665489534E0,6.169500351E-1,4.276950359E0,8.944950104E0,9.934035639E0
1.667452482E0,6.169500351E-1,4.315950394E0,8.983950615E0,9.985961336E0
1.669415570E0,5.790000558E-1,4.276950359E0,8.944950104E0,9.931750994E0
1.671378592E0,5.790000558E-1,4.315950394E0,8.983950615E0,9.983688573E0
1.673341679E0,6.169500351E-1,4.276950359E0,8.983950615E0,9.969167486E0
1.675304746E0,6.550500393E-1,4.276950359E0,8.944950104E0,9.936474591E0
1.677268005E0,6.550500393E-1,4.276950359E0,8.983950615E0,9.971597845E0
1.679231207E0,6.550500393E-1,4.276950359E0,9.022050858E0,1.000593807E1
1.681194268E0,6.169500351E-1,4.239000320E0,9.022050858E0,9.987349635E0
1.683157367E0,6.169500351E-1,4.239000320E0,8.944950104E0,9.917755967E0
1.685120305E0,6.169500351E-1,4.276950359E0,8.944950104E0,9.934035639E0
1.687083290E0,6.169500351E-1,4.276950359E0,8.983950615E0,9.969167486E0
1.689046517E0,6.169500351E-1,4.239000320E0,8.983950615E0,9.952945278E0
1.691009673E0,6.169500351E-1,4.239000320E0,8.983950615E0,9.952945278E0
1.692972714E0,6.169500351E-1,4.239000320E0,8.907000542E0,9.883542367E0
1.694935805E0,6.169500351E-1,4.239000320E0,9.022050858E0,9.987349635E0
1.696898744E0,5.790000558E-1,4.276950359E0,8.944950104E0,9.931750994E0
1.698861728E0,6.169500351E-1,4.315950394E0,8.944950104E0,9.950888780E0
1.700824955E0,5.790000558E-1,4.276950359E0,9.022050858E0,1.000124728E1
1.702788110E0,5.790000558E-1,4.239000320E0,8.983950615E0,9.950664974E0
1.704751395E0,5.790000558E-1,4.276950359E0,8.983950615E0,9.966890894E0
1.706714645E0,5.790000558E-1,4.315950394E0,8.983950615E0,9.983688573E0
1.708677287E0,5.410500169E-1,4.315950394E0,8.944950104E0,9.946471499E0
1.710640108E0,5.020500422E-1,4.276950359E0,8.983950615E0,9.962716862E0
1.712603814E0,5.790000558E-1,4.315950394E0,8.983950615E0,9.983688573E0
1.714567260E0,5.790000558E-1,4.315950394E0,8.983950615E0,9.983688573E0
1.716529383E0,5.790000558E-1,4.315950394E0,8.983950615E0,9.983688573E0
1.718491887E0,5.410500169E-1,4.276950359E0,8.944950104E0,9.929610861E0
1.720455196E0,5.790000558E-1,4.315950394E0,8.944950104E0,9.948608004E0
1.722418269E0,5.410500169E-1,4.276950359E0,8.944950104E0,9.929610861E0
1.724382113E0,5.410500169E-1,4.315950394E0,8.983950615E0,9.981559576E0
1.726345731E0,5.790000558E-1,4.315950394E0,8.983950615E0,9.983688573E0
1.728307649E0,5.790000558E-1,4.315950394E0,8.983950615E0,9.983688573E0
1.730270055E0,5.410500169E-1,4.276950359E0,8.944950104E0,9.929610861E0
1.732233426E0,5.790000558E-1,4.315950394E0,8.944950104E0,9.948608004E0
1.734196515E0,5.410500169E-1,4.315950394E0,9.022050858E0,1.001586564E1
1.736159411E0,5.410500169E-1,4.315950394E0,9.022050858E0,1.001586564E1
1.738122363E0,5.410500169E-1,4.276950359E0,8.983950615E0,9.964758309E0
1.740085075E0,5.410500169E-1,4.315950394E0,9.060000420E0,1.005006321E1
1.742047844E0,5.410500169E-1,4.354050159E0,9.060000420E0,1.006648377E1
1.744010792E0,5.410500169E-1,4.315950394E0,9.022050858E0,1.001586564E1
1.745973688E0,5.410500169E-1,4.239000320E0,8.944950104E0,9.913323923E0
1.747937337E0,5.790000558E-1,4.276950359E0,8.983950615E0,9.966890894E0
1.749900765E0,5.790000558E-1,4.315950394E0,9.022050858E0,1.001798735E1
1.751863681E0,5.020500422E-1,4.315950394E0,8.983950615E0,9.979521567E0
1.753826723E0,5.790000558E-1,4.276950359E0,8.983950615E0,9.966890894E0
1.755789445E0,5.790000558E-1,4.276950359E0,8.983950615E0,9.966890894E0
1.757752261E0,5.790000558E-1,4.315950394E0,9.022050858E0,1.001798735E1
1.759715157E0,5.020500422E-1,4.239000320E0,9.022050858E0,9.980910762E0
1.761678029E0,5.410500169E-1,4.276950359E0,8.983950615E0,9.964758309E0
1.763641006E0,6.169500351E-1,4.315950394E0,9.022050858E0,1.002025233E1
1.765603952E0,5.410500169E-1,4.315950394E0,9.060000420E0,1.005006321E1
1.767567186E0,5.020500422E-1,4.276950359E0,9.022050858E0,9.997087591E0
1.769530336E0,5.410500169E-1,4.276950359E0,9.022050858E0,9.999122020E0
1.771493626E0,5.790000558E-1,4.239000320E0,9.060000420E0,1.001937984E1
1.773456875E0,5.410500169E-1,4.315950394E0,9.060000420E0,1.005006321E1
1.775420433E0,5.410500169E-1,4.276950359E0,9.022050858E0,9.999122020E0
1.777383890E0,5.410500169E-1,4.276950359E0,8.983950615E0,9.964758309E0
1.779346722E0,5.410500169E-1,4.315950394E0,9.022050858E0,1.001586564E1
1.781309738E0,5.410500169E-1,4.315950394E0,9.060000420E0,1.005006321E1
1.783272690E0,5.790000558E-1,4.315950394E0,9.022050858E0,1.001798735E1
1.785235661E0,5.020500422E-1,4.315950394E0,9.022050858E0,1.001383462E1
1.787199300E0,5.020500422E-1,4.315950394E0,8.983950615E0,9.979521567E0
1.789162740E0,5.410500169E-1,4.315950394E0,9.060000420E0,1.005006321E1
1.791125395E0,5.410500169E-1,4.315950394E0,8.983950615E0,9.981559576E0
1.793088280E0,5.020500422E-1,4.315950394E0,8.983950615E0,9.979521567E0
1.795051569E0,5.790000558E-1,4.354050159E0,8.944950104E0,9.965195744E0
1.797014740E0,5.020500422E-1,4.354050159E0,8.983950615E0,9.996058007E0
1.798977793E0,5.020500422E-1,4.315950394E0,8.983950615E0,9.979521567E0
1.800940887E0,5.410500169E-1,4.354050159E0,8.983950615E0,9.998092646E0
1.802903555E0,4.639500082E-1,4.315950394E0,8.983950615E0,9.977677388E0
1.804866348E0,4.639500082E-1,4.354050159E0,8.983950615E0,9.994216880E0
1.806829293E0,5.020500422E-1,4.354050159E0,9.022050858E0,1.003031449E1
1.808792193E0,5.020500422E-1,4.315950394E0,8.944950104E0,9.944426298E0
1.810755354E0,4.639500082E-1,4.354050159E0,9.022050858E0,1.002847965E1
1.812718432E0,4.639500082E-1,4.354050159E0,9.022050858E0,1.002847965E1
1.814681465E0,5.020500422E-1,4.315950394E0,9.022050858E0,1.001383462E1
1.816644511E0,5.410500169E-1,4.354050159E0,9.022050858E0,1.003234218E1
1.818607278E0,5.020500422E-1,4.354050159E0,8.983950615E0,9.996058007E0
1.820570127E0,5.410500169E-1,4.315950394E0,8.944950104E0,9.946471499E0
1.822533567E0,5.410500169E-1,4.315950394E0,8.983950615E0,9.981559576E0
1.824496827E0,5.410500169E-1,4.315950394E0,8.907000542E0,9.912357014E0
1.826459153E0,5.020500422E-1,4.315950394E0,8.983950615E0,9.979521567E0
1.828421752E0,5.410500169E-1,4.315950394E0,8.983950615E0,9.981559576E0
1.830384775E0,5.410500169E-1,4.315950394E0,8.983950615E0,9.981559576E0
1.832347673E0,5.410500169E-1,4.315950394E0,8.983950615E0,9.981559576E0
1.834311326E0,5.410500169E-1,4.276950359E0,8.944950104E0,9.929610861E0
1.836274755E0,5.790000558E-1,4.315950394E0,8.983950615E0,9.983688573E0
1.838236691E0,5.790000558E-1,4.315950394E0,8.944950104E0,9.948608004E0
1.840199065E0,5.410500169E-1,4.315950394E0,8.983950615E0,9.981559576E0
1.842161901E0,6.169500351E-1,4.315950394E0,8.983950615E0,9.985961336E0
1.844124601E0,5.410500169E-1,4.315950394E0,8.944950104E0,9.946471499E0
1.846087937E0,5.790000558E-1,4.315950394E0,8.944950104E0,9.948608004E0
1.848051077E0,5.790000558E-1,4.276950359E0,8.907000542E0,9.897585771E0
1.850013378E0,5.020500422E-1,4.315950394E0,8.907000542E0,9.910304773E0
1.851975925E0,5.410500169E-1,4.354050159E0,8.944950104E0,9.963062796E0
1.853938776E0,5.020500422E-1,4.315950394E0,8.983950615E0,9.979521567E0
1.855901538E0,5.020500422E-1,4.276950359E0,8.907000542E0,9.893382499E0
1.857864424E0,5.020500422E-1,4.276950359E0,8.983950615E0,9.962716862E0
1.859827288E0,5.020500422E-1,4.276950359E0,8.944950104E0,9.927562187E0
1.861790401E0,5.020500422E-1,4.315950394E0,8.944950104E0,9.944426298E0
1.863753441E0,5.410500169E-1,4.315950394E0,8.944950104E0,9.946471499E0
1.865716570E0,5.020500422E-1,4.354050159E0,8.944950104E0,9.961021002E0
1.867679672E0,5.020500422E-1,4.315950394E0,8.944950104E0,9.944426298E0
1.869642515E0,5.410500169E-1,4.315950394E0,8.944950104E0,9.946471499E0
1.871605438E0,5.020500422E-1,4.315950394E0,8.907000542E0,9.910304773E0
1.873568361E0,5.410500169E-1,4.276950359E0,8.944950104E0,9.929610861E0
1.875531284E0,5.020500422E-1,4.354050159E0,8.907000542E0,9.926956517E0
1.877494072E0,4.639500082E-1,4.315950394E0,8.907000542E0,9.908447712E0
1.879456900E0,4.639500082E-1,4.354050159E0,8.944950104E0,9.959173397E0
1.881420334E0,4.639500082E-1,4.354050159E0,8.944950104E0,9.959173397E0
1.883383590E0,4.639500082E-1,4.315950394E0,8.944950104E0,9.942575610E0
1.885346682E0,5.020500422E-1,4.315950394E0,8.907000542E0,9.910304773E0
1.887309823E0,5.410500169E-1,4.315950394E0,8.907000542E0,9.912357014E0
1.889272663E0,5.410500169E-1,4.276950359E0,8.944950104E0,9.929610861E0
1.891235592E0,5.410500169E-1,4.354050159E0,8.944950104E0,9.963062796E0
1.893198558E0,5.410500169E-1,4.354050159E0,8.907000542E0,9.929005316E0
1.895161513E0,4.639500082E-1,4.315950394E0,8.869050026E0,9.874346853E0
1.897125467E0,5.790000558E-1,4.354050159E0,8.907000542E0,9.931145579E0
1.899089129E0,5.790000558E-1,4.276950359E0,8.983950615E0,9.966890894E0
1.901051250E0,5.410500169E-1,4.315950394E0,8.944950104E0,9.946471499E0
1.903013823E0,5.410500169E-1,4.354050159E0,8.907000542E0,9.929005316E0
1.904976606E0,5.410500169E-1,4.354050159E0,8.944950104E0,9.963062796E0
1.906939341E0,5.410500169E-1,4.354050159E0,8.907000542E0,9.929005316E0
1.908902296E0,5.410500169E-1,4.354050159E0,8.944950104E0,9.963062796E0
1.910865187E0,5.410500169E-1,4.315950394E0,8.944950104E0,9.946471499E0
1.912828116E0,5.410500169E-1,4.315950394E0,8.944950104E0,9.946471499E0
1.914791033E0,5.020500422E-1,4.392000198E0,8.944950104E0,9.977667681E0
1.916753910E0,5.020500422E-1,4.315950394E0,8.907000542E0,9.910304773E0
1.918716832E0,4.639500082E-1,4.315950394E0,8.907000542E0,9.908447712E0
1.920680116E0,5.020500422E-1,4.315950394E0,8.944950104E0,9.944426298E0
1.922643294E0,5.410500169E-1,4.315950394E0,8.983950615E0,9.981559576E0
1.924606534E0,5.410500169E-1,4.315950394E0,8.983950615E0,9.981559576E0
1.926569755E0,5.020500422E-1,4.315950394E0,8.983950615E0,9.979521567E0
1.928533509E0,5.410500169E-1,4.276950359E0,8.983950615E0,9.964758309E0
1.930497121E0,5.790000558E-1,4.315950394E0,8.983950615E0,9.983688573E0
1.932459927E0,5.410500169E-1,4.276950359E0,9.022050858E0,9.999122020E0
1.934422969E0,5.790000558E-1,4.239000320E0,8.983950615E0,9.950664974E0
1.936386772E0,5.410500169E-1,4.239000320E0,9.022050858E0,9.982948488E0
1.938350352E0,5.790000558E-1,4.276950359E0,9.060000420E0,1.003549466E1
1.940313630E0,5.410500169E-1,4.239000320E0,9.022050858E0,9.982948488E0
1.942277017E0,6.169500351E-1,4.276950359E0,9.060000420E0,1.003775569E1
1.944240266E0,5.410500169E-1,4.239000320E0,9.060000420E0,1.001725843E1
1.946203555E0,5.790000558E-1,4.239000320E0,9.060000420E0,1.001937984E1
1.948166010E0,5.790000558E-1,4.239000320E0,9.060000420E0,1.001937984E1
1.950128709E0,5.410500169E-1,4.276950359E0,9.098999977E0,1.006860666E1
1.952091875E0,5.410500169E-1,4.239000320E0,9.136950493E0,1.008690850E1
1.954054918E0,5.410500169E-1,4.239000320E0,9.060000420E0,1.001725843E1
1.956018542E0,5.410500169E-1,4.315950394E0,9.136950493E0,1.011948750E1
1.957981995E0,5.020500422E-1,4.276950359E0,9.098999977E0,1.006658627E1
1.959945144E0,5.020500422E-1,4.276950359E0,9.136950493E0,1.010090208E1
1.961908382E0,5.020500422E-1,4.315950394E0,9.098999977E0,1.008321787E1
1.963871417E0,4.639500082E-1,4.315950394E0,9.098999977E0,1.008139266E1
1.965834521E0,5.020500422E-1,4.239000320E0,9.060000420E0,1.001522768E1
1.967797637E0,4.639500082E-1,4.315950394E0,9.060000420E0,1.004620749E1
1.969760750E0,5.020500422E-1,4.315950394E0,9.098999977E0,1.008321787E1
1.971724316E0,5.020500422E-1,4.354050159E0,9.098999977E0,1.009958453E1
1.973687750E0,4.260000288E-1,4.315950394E0,9.060000420E0,1.004452644E1
1.975650822E0,4.260000288E-1,4.354050159E0,9.022050858E0,1.002679562E1
1.977613993E0,4.260000288E-1,4.354050159E0,8.983950615E0,9.992527081E0
1.979577413E0,4.639500082E-1,4.315950394E0,9.022050858E0,1.001199676E1
1.981540760E0,4.639500082E-1,4.315950394E0,8.983950615E0,9.977677388E0
1.983503747E0,4.639500082E-1,4.315950394E0,8.983950615E0,9.977677388E0
1.985466839E0,4.639500082E-1,4.315950394E0,8.983950615E0,9.977677388E0
1.987429947E0,4.260000288E-1,4.354050159E0,9.060000420E0,1.006095604E1
1.989393058E0,5.020500422E-1,4.354050159E0,8.983950615E0,9.996058007E0
1.991356490E0,4.639500082E-1,4.315950394E0,8.983950615E0,9.977677388E0
1.993319827E0,4.639500082E-1,4.354050159E0,8.944950104E0,9.959173397E0
1.995282860E0,5.020500422E-1,4.315950394E0,8.983950615E0,9.979521567E0
1.997245983E0,5.410500169E-1,4.315950394E0,9.022050858E0,1.001586564E1
1.999209957E0,5.410500169E-1,4.354050159E0,8.907000542E0,9.929005316E0
2.001173678E0,5.790000558E-1,4.354050159E0,8.983950615E0,1.000021812E1
2.003135564E0,5.410500169E-1,4.315950394E0,9.022050858E0,1.001586564E1
2.005097988E0,5.410500169E-1,4.315950394E0,8.983950615E0,9.981559576E0
2.007062032E0,5.790000558E-1,4.315950394E0,8.983950615E0,9.983688573E0
2.009025601E0,5.790000558E-1,4.276950359E0,8.983950615E0,9.966890894E0
2.010988285E0,5.790000558E-1,4.315950394E0,9.022050858E0,1.001798735E1
2.012951224E0,6.169500351E-1,4.276950359E0,9.060000420E0,1.003775569E1
2.014914144E0,5.790000558E-1,4.239000320E0,8.944950104E0,9.915467570E0
2.016877070E0,5.790000558E-1,4.276950359E0,8.983950615E0,9.966890894E0
2.018839812E0,6.169500351E-1,4.276950359E0,8.983950615E0,9.969167486E0
2.020802608E0,6.169500351E-1,4.315950394E0,9.022050858E0,1.002025233E1
2.022764841E0,6.169500351E-1,4.276950359E0,8.983950615E0,9.969167486E0
2.024727233E0,5.410500169E-1,4.276950359E0,8.983950615E0,9.964758309E0
2.026691102E0,6.169500351E-1,4.239000320E0,9.022050858E0,9.987349635E0
2.028654539E0,6.169500351E-1,4.276950359E0,9.022050858E0,1.000351605E1
2.030617600E0,5.790000558E-1,4.239000320E0,8.983950615E0,9.950664974E0
2.032580771E0,5.790000558E-1,4.276950359E0,8.983950615E0,9.966890894E0
2.034543116E0,5.790000558E-1,4.276950359E0,8.983950615E0,9.966890894E0
2.036505699E0,5.410500169E-1,4.315950394E0,8.983950615E0,9.981559576E0
2.038469175E0,5.790000558E-1,4.315950394E0,8.944950104E0,9.948608004E0
2.040432390E0,5.790000558E-1,4.276950359E0,8.907000542E0,9.897585771E0
2.042394588E0,5.410500169E-1,4.315950394E0,8.944950104E0,9.946471499E0
2.044357084E0,5.020500422E-1,4.276950359E0,8.944950104E0,9.927562187E0
2.046320580E0,5.790000558E-1,4.315950394E0,8.944950104E0,9.948608004E0
2.048283779E0,6.169500351E-1,4.315950394E0,8.983950615E0,9.985961336E0
2.050246656E0,6.169500351E-1,4.315950394E0,8.907000542E0,9.916789490E0
2.052209628E0,5.790000558E-1,4.315950394E0,8.944950104E0,9.948608004E0
2.054171867E0,5.020500422E-1,4.354050159E0,8.907000542E0,9.926956517E0
2.056134320E0,5.020500422E-1,4.276950359E0,8.983950615E0,9.962716862E0
2.058097663E0,5.410500169E-1,4.315950394E0,8.907000542E0,9.912357014E0
2.060060759E0,5.410500169E-1,4.315950394E0,8.944950104E0,9.946471499E0
2.062023609E0,5.410500169E-1,4.315950394E0,8.983950615E0,9.981559576E0
2.063986531E0,5.020500422E-1,4.315950394E0,9.022050858E0,1.001383462E1
2.065949634E0,5.410500169E-1,4.315950394E0,8.983950615E0,9.981559576E0
2.067912683E0,5.410500169E-1,4.276950359E0,8.983950615E0,9.964758309E0
2.069875819E0,5.020500422E-1,4.276950359E0,8.983950615E0,9.962716862E0
2.071838923E0,5.020500422E-1,4.354050159E0,9.022050858E0,1.003031449E1
2.073801591E0,5.410500169E-1,4.315950394E0,8.983950615E0,9.981559576E0
2.075764387E0,5.020500422E-1,4.315950394E0,9.022050858E0,1.001383462E1
2.077727195E0,5.410500169E-1,4.315950394E0,9.060000420E0,1.005006321E1
2.079690000E0,5.020500422E-1,4.315950394E0,8.983950615E0,9.979521567E0
2.081653489E0,5.020500422E-1,4.315950394E0,9.060000420E0,1.004803909E1
2.083616774E0,5.790000558E-1,4.315950394E0,9.060000420E0,1.005217770E1
2.085579276E0,5.410500169E-1,4.315950394E0,9.060000420E0,1.005006321E1
2.087542007E0,4.639500082E-1,4.315950394E0,9.022050858E0,1.001199676E1
2.089505323E0,5.410500169E-1,4.276950359E0,9.060000420E0,1.003337665E1
2.091468467E0,5.410500169E-1,4.276950359E0,9.022050858E0,9.999122020E0
2.093431192E0,5.410500169E-1,4.276950359E0,9.022050858E0,9.999122020E0
2.095394026E0,5.410500169E-1,4.276950359E0,9.098999977E0,1.006860666E1
2.097357504E0,5.020500422E-1,4.276950359E0,9.060000420E0,1.003134917E1
2.099320794E0,5.410500169E-1,4.239000320E0,9.060000420E0,1.001725843E1
2.101283069E0,4.639500082E-1,4.239000320E0,9.022050858E0,9.979066840E0
2.103245642E0,5.020500422E-1,4.239000320E0,9.022050858E0,9.980910762E0
2.105208503E0,4.639500082E-1,4.239000320E0,9.022050858E0,9.979066840E0
2.107171269E0,5.410500169E-1,4.239000320E0,9.060000420E0,1.001725843E1
2.109133995E0,5.410500169E-1,4.276950359E0,9.022050858E0,9.999122020E0
2.111096733E0,5.410500169E-1,4.239000320E0,9.060000420E0,1.001725843E1
2.113059327E0,5.020500422E-1,4.239000320E0,9.022050858E0,9.980910762E0
2.115021963E0,4.639500082E-1,4.276950359E0,9.060000420E0,1.002951452E1
2.116984790E0,4.639500082E-1,4.276950359E0,9.022050858E0,9.995246653E0
2.118947568E0,5.410500169E-1,4.276950359E0,8.983950615E0,9.964758309E0
2.120911192E0,5.020500422E-1,4.276950359E0,9.022050858E0,9.997087591E0
2.122874568E0,5.790000558E-1,4.239000320E0,9.022050858E0,9.985077188E0
2.124837414E0,4.639500082E-1,4.276950359E0,8.983950615E0,9.960869572E0
2.126800416E0,5.790000558E-1,4.276950359E0,8.983950615E0,9.966890894E0
2.128762618E0,5.020500422E-1,4.315950394E0,8.983950615E0,9.979521567E0
2.130725045E0,5.410500169E-1,4.315950394E0,8.983950615E0,9.981559576E0
2.132688593E0,5.410500169E-1,4.276950359E0,8.983950615E0,9.964758309E0
2.134651813E0,5.410500169E-1,4.315950394E0,8.983950615E0,9.981559576E0
2.136614686E0,5.410500169E-1,4.354050159E0,9.022050858E0,1.003234218E1
2.138577661E0,5.790000558E-1,4.276950359E0,8.983950615E0,9.966890894E0
2.140539358E0,5.020500422E-1,4.354050159E0,8.983950615E0,9.996058007E0
2.142501430E0,4.639500082E-1,4.315950394E0,8.983950615E0,9.977677388E0
2.144465174E0,5.410500169E-1,4.315950394E0,8.983950615E0,9.981559576E0
2.146428428E0,6.169500351E-1,4.354050159E0,8.983950615E0,1.000248713E1
2.148390755E0,5.790000558E-1,4.315950394E0,9.022050858E0,1.001798735E1
2.150353353E0,5.410500169E-1,4.315950394E0,8.983950615E0,9.981559576E0
2.152316706E0,5.790000558E-1,4.315950394E0,8.944950104E0,9.948608004E0
2.154279827E0,5.410500169E-1,4.315950394E0,9.022050858E0,1.001586564E1
2.156242942E0,5.020500422E-1,4.354050159E0,8.983950615E0,9.996058007E0
2.158206059E0,5.410500169E-1,4.354050159E0,8.983950615E0,9.998092646E0
2.160169669E0,5.410500169E-1,4.354050159E0,8.944950104E0,9.963062796E0
2.162133134E0,5.790000558E-1,4.392000198E0,8.983950615E0,1.001679966E1
2.164095194E0,5.410500169E-1,4.315950394E0,8.944950104E0,9.946471499E0
2.166057670E0,5.410500169E-1,4.276950359E0,8.983950615E0,9.964758309E0
2.168020849E0,5.410500169E-1,4.315950394E0,8.944950104E0,9.946471499E0
2.169983822E0,5.410500169E-1,4.315950394E0,8.983950615E0,9.981559576E0
2.171946602E0,5.020500422E-1,4.354050159E0,9.022050858E0,1.003031449E1
2.173909439E0,5.020500422E-1,4.315950394E0,8.983950615E0,9.979521567E0
2.175872202E0,5.020500422E-1,4.315950394E0,8.944950104E0,9.944426298E0
2.177834983E0,4.639500082E-1,4.315950394E0,8.944950104E0,9.942575610E0
2.179798244E0,5.410500169E-1,4.315950394E0,8.983950615E0,9.981559576E0
2.181761365E0,5.410500169E-1,4.276950359E0,8.944950104E0,9.929610861E0
2.183724255E0,5.410500169E-1,4.315950394E0,9.022050858E0,1.001586564E1
2.185687213E0,5.020500422E-1,4.276950359E0,8.944950104E0,9.927562187E0
2.187649931E0,5.020500422E-1,4.276950359E0,8.944950104E0,9.927562187E0
2.189612733E0,5.020500422E-1,4.276950359E0,8.944950104E0,9.927562187E0
2.191575496E0,5.020500422E-1,4.315950394E0,8.944950104E0,9.944426298E0
2.193538271E0,5.410500169E-1,4.315950394E0,8.944950104E0,9.946471499E0
2.195501039E0,5.020500422E-1,4.315950394E0,8.944950104E0,9.944426298E0
2.197463810E0,5.020500422E-1,4.315950394E0,8.907000542E0,9.910304773E0
2.199426769E0,5.410500169E-1,4.315950394E0,8.944950104E0,9.946471499E0
2.201389697E0,5.020500422E-1,4.315950394E0,8.944950104E0,9.944426298E0
2.203352934E0,5.020500422E-1,4.315950394E0,8.944950104E0,9.944426298E0
2.205316081E0,5.020500422E-1,4.315950394E0,8.907000542E0,9.910304773E0
2.207278787E0,5.410500169E-1,4.276950359E0,8.907000542E0,9.895438249E0
2.209241622E0,5.410500169E-1,4.315950394E0,8.907000542E0,9.912357014E0
2.211204785E0,5.410500169E-1,4.276950359E0,8.944950104E0,9.929610861E0
2.213167851E0,5.790000558E-1,4.276950359E0,8.907000542E0,9.897585771E0
2.215130930E0,5.410500169E-1,4.315950394E0,8.983950615E0,9.981559576E0
2.217094005E0,5.410500169E-1,4.354050159E0,9.022050858E0,1.003234218E1
2.219057758E0,5.790000558E-1,4.276950359E0,8.983950615E0,9.966890894E0
2.221021312E0,5.790000558E-1,4.315950394E0,8.944950104E0,9.948608004E0
2.222984109E0,5.790000558E-1,4.276950359E0,8.983950615E0,9.966890894E0
2.224947141E0,5.410500169E-1,4.315950394E0,8.944950104E0,9.946471499E0
2.226910946E0,5.790000558E-1,4.354050159E0,9.022050858E0,1.003446040E1
2.228874524E0,5.790000558E-1,4.276950359E0,9.060000420E0,1.003549466E1
2.230837381E0,5.790000558E-1,4.315950394E0,9.022050858E0,1.001798735E1
2.232800449E0,6.169500351E-1,4.315950394E0,9.022050858E0,1.002025233E1
2.234763491E0,6.169500351E-1,4.276950359E0,9.022050858E0,1.000351605E1
2.236726566E0,6.169500351E-1,4.276950359E0,9.022050858E0,1.000351605E1
2.238689643E0,5.790000558E-1,4.276950359E0,9.022050858E0,1.000124728E1
2.240652720E0,5.790000558E-1,4.315950394E0,8.983950615E0,9.983688573E0
2.242615257E0,5.790000558E-1,4.315950394E0,9.022050858E0,1.001798735E1
2.244577953E0,5.410500169E-1,4.239000320E0,9.022050858E0,9.982948488E0
2.246541799E0,5.790000558E-1,4.276950359E0,9.022050858E0,1.000124728E1
2.248505287E0,5.790000558E-1,4.315950394E0,9.060000420E0,1.005217770E1
2.250468159E0,5.410500169E-1,4.239000320E0,8.983950615E0,9.948528911E0
2.252431212E0,5.790000558E-1,4.315950394E0,8.983950615E0,9.983688573E0
2.254393933E0,5.790000558E-1,4.315950394E0,8.983950615E0,9.983688573E0
2.256356751E0,5.790000558E-1,4.276950359E0,8.983950615E0,9.966890894E0
2.258319843E0,5.410500169E-1,4.276950359E0,8.983950615E0,9.964758309E0
2.260282875E0,5.790000558E-1,4.276950359E0,8.983950615E0,9.966890894E0
2.262245059E0,5.790000558E-1,4.276950359E0,8.944950104E0,9.931750994E0
2.264207492E0,5.410500169E-1,4.315950394E0,9.022050858E0,1.001586564E1
2.266171400E0,6.169500351E-1,4.276950359E0,8.983950615E0,9.969167486E0
2.268134875E0,6.169500351E-1,4.315950394E0,8.983950615E0,9.985961336E0
2.270097274E0,6.169500351E-1,4.276950359E0,8.944950104E0,9.934035639E0
2.272060006E0,5.410500169E-1,4.276950359E0,8.944950104E0,9.929610861E0
2.274023321E0,5.790000558E-1,4.276950359E0,8.944950104E0,9.931750994E0
2.275986465E0,5.790000558E-1,4.276950359E0,8.983950615E0,9.966890894E0
2.277948991E0,5.410500169E-1,4.276950359E0,8.983950615E0,9.964758309E0
2.279911698E0,5.410500169E-1,4.276950359E0,8.944950104E0,9.929610861E0
2.281875555E0,5.410500169E-1,4.276950359E0,8.944950104E0,9.929610861E0
2.283839077E0,5.790000558E-1,4.276950359E0,8.983950615E0,9.966890894E0
2.285801358E0,5.790000558E-1,4.315950394E0,8.983950615E0,9.983688573E0
2.287764002E0,5.410500169E-1,4.276950359E0,8.983950615E0,9.964758309E0
2.289727152E0,5.790000558E-1,4.276950359E0,8.944950104E0,9.931750994E0
2.291690153E0,5.020500422E-1,4.315950394E0,8.983950615E0,9.979521567E0
2.293654009E0,5.410500169E-1,4.315950394E0,8.983950615E0,9.981559576E0
2.295617615E0,5.790000558E-1,4.315950394E0,8.983950615E0,9.983688573E0
2.297580963E0,5.020500422E-1,4.276950359E0,9.022050858E0,9.997087591E0
2.299544386E0,5.790000558E-1,4.315950394E0,8.944950104E0,9.948608004E0
2.301506818E0,5.410500169E-1,4.315950394E0,8.983950615E0,9.981559576E0
2.303469540E0,5.020500422E-1,4.315950394E0,8.944950104E0,9.944426298E0
2.305432575E0,5.020500422E-1,4.315950394E0,9.022050858E0,1.001383462E1
2.307395494E0,5.410500169E-1,4.315950394E0,8.983950615E0,9.981559576E0
2.309358779E0,5.020500422E-1,4.315950394E0,9.022050858E0,1.001383462E1
2.311321956E0,5.020500422E-1,4.315950394E0,8.983950615E0,9.979521567E0
2.313284837E0,5.410500169E-1,4.315950394E0,8.983950615E0,9.981559576E0
2.315247804E0,5.020500422E-1,4.354050159E0,8.983950615E0,9.996058007E0
2.317211240E0,6.169500351E-1,4.354050159E0,8.983950615E0,1.000248713E1
2.319174552E0,5.790000558E-1,4.315950394E0,8.944950104E0,9.948608004E0
2.321136824E0,5.410500169E-1,4.315950394E0,8.944950104E0,9.946471499E0
2.323099400E0,5.020500422E-1,4.392000198E0,8.944950104E0,9.977667681E0
2.325062427E0,5.020500422E-1,4.354050159E0,8.944950104E0,9.961021002E0
2.327025321E0,5.410500169E-1,4.354050159E0,8.944950104E0,9.963062796E0
2.328988795E0,5.020500422E-1,4.354050159E0,8.907000542E0,9.926956517E0
2.330952096E0,5.410500169E-1,4.354050159E0,8.907000542E0,9.929005316E0
2.332915450E0,5.410500169E-1,4.315950394E0,8.907000542E0,9.912357014E0
2.334878788E0,5.410500169E-1,4.354050159E0,8.869050026E0,9.894975304E0
2.336842766E0,5.410500169E-1,4.354050159E0,8.869050026E0,9.894975304E0
2.338806557E0,5.790000558E-1,4.354050159E0,8.869050026E0,9.897122926E0
2.340768593E0,5.410500169E-1,4.392000198E0,8.869050026E0,9.911732907E0
2.342731156E0,5.020500422E-1,4.354050159E0,8.907000542E0,9.926956517E0
2.344694140E0,5.410500169E-1,4.354050159E0,8.869050026E0,9.894975304E0
2.346657000E0,5.410500169E-1,4.354050159E0,8.907000542E0,9.929005316E0
2.348620429E0,5.410500169E-1,4.354050159E0,8.869050026E0,9.894975304E0
2.350583692E0,5.020500422E-1,4.354050159E0,8.869050026E0,9.892919458E0
2.352546718E0,5.020500422E-1,4.392000198E0,8.907000542E0,9.943660223E0
2.354509828E0,5.410500169E-1,4.392000198E0,8.907000542E0,9.945705581E0
2.356472719E0,4.639500082E-1,4.354050159E0,8.907000542E0,9.925102571E0
2.358435674E0,4.260000288E-1,4.315950394E0,8.907000542E0,9.906743283E0
2.360398636E0,5.020500422E-1,4.315950394E0,8.944950104E0,9.944426298E0
2.362361595E0,5.410500169E-1,4.315950394E0,8.907000542E0,9.912357014E0
2.364324338E0,4.260000288E-1,4.354050159E0,8.944950104E0,9.957477651E0
2.366287141E0,4.260000288E-1,4.354050159E0,8.983950615E0,9.992527081E0
2.368250038E0,4.639500082E-1,4.392000198E0,9.022050858E0,1.004501454E1
2.370212908E0,4.639500082E-1,4.354050159E0,8.907000542E0,9.925102571E0
2.372175661E0,4.260000288E-1,4.315950394E0,8.983950615E0,9.975984787E0
2.374138448E0,4.260000288E-1,4.354050159E0,9.022050858E0,1.002679562E1
2.376101443E0,4.260000288E-1,4.354050159E0,9.022050858E0,1.002679562E1
2.378064374E0,5.020500422E-1,4.315950394E0,9.060000420E0,1.004803909E1
2.380027476E0,4.639500082E-1,4.315950394E0,9.060000420E0,1.004620749E1
2.381990528E0,3.870000243E-1,4.354050159E0,9.022050858E0,1.002521439E1
2.383953430E0,4.260000288E-1,4.315950394E0,9.022050858E0,1.001030996E1
2.385916376E0,4.639500082E-1,4.315950394E0,9.022050858E0,1.001199676E1
2.387878875E0,4.260000288E-1,4.315950394E0,9.060000420E0,1.004452644E1
2.389841515E0,4.639500082E-1,4.315950394E0,9.060000420E0,1.004620749E1
2.391804666E0,4.260000288E-1,4.315950394E0,9.022050858E0,1.001030996E1
2.393767667E0,4.639500082E-1,4.315950394E0,9.060000420E0,1.004620749E1
2.395730578E0,3.870000243E-1,4.315950394E0,9.022050858E0,1.000872612E1
2.397693515E0,4.639500082E-1,4.315950394E0,9.022050858E0,1.001199676E1
2.399656665E0,4.260000288E-1,4.354050159E0,9.022050858E0,1.002679562E1
2.401619749E0,4.260000288E-1,4.315950394E0,9.060000420E0,1.004452644E1
2.403582781E0,4.260000288E-1,4.315950394E0,9.022050858E0,1.001030996E1
2.405545828E0,5.020500422E-1,4.315950394E0,8.983950615E0,9.979521567E0
2.407508414E0,4.639500082E-1,4.354050159E0,9.022050858E0,1.002847965E1
2.409471136E0,4.639500082E-1,4.354050159E0,8.983950615E0,9.994216880E0
2.411434116E0,5.020500422E-1,4.315950394E0,8.983950615E0,9.979521567E0
2.413397004E0,5.020500422E-1,4.315950394E0,9.022050858E0,1.001383462E1
2.415359933E0,5.410500169E-1,4.315950394E0,8.983950615E0,9.981559576E0
2.417322850E0,5.410500169E-1,4.315950394E0,9.022050858E0,1.001586564E1
2.419285550E0,5.410500169E-1,4.315950394E0,8.983950615E0,9.981559576E0
2.421248314E0,5.020500422E-1,4.315950394E0,9.022050858E0,1.001383462E1
2.423211343E0,5.410500169E-1,4.315950394E0,8.983950615E0,9.981559576E0
2.425174270E0,5.020500422E-1,4.315950394E0,8.983950615E0,9.979521567E0
2.427137373E0,5.410500169E-1,4.315950394E0,9.060000420E0,1.005006321E1
2.429100424E0,5.410500169E-1,4.239000320E0,9.022050858E0,9.982948488E0
2.431063281E0,5.410500169E-1,4.315950394E0,8.983950615E0,9.981559576E0
2.433026195E0,5.410500169E-1,4.315950394E0,9.022050858E0,1.001586564E1
2.434989294E0,5.020500422E-1,4.276950359E0,8.983950615E0,9.962716862E0
2.436952342E0,5.410500169E-1,4.276950359E0,8.983950615E0,9.964758309E0
2.438915649E0,5.410500169E-1,4.315950394E0,9.022050858E0,1.001586564E1
2.440878880E0,5.790000558E-1,4.315950394E0,9.022050858E0,1.001798735E1
2.442841887E0,5.790000558E-1,4.276950359E0,9.022050858E0,1.000124728E1
2.444804959E0,5.790000558E-1,4.276950359E0,9.022050858E0,1.000124728E1
2.446767404E0,5.410500169E-1,4.315950394E0,9.022050858E0,1.001586564E1
2.448730002E0,5.410500169E-1,4.276950359E0,8.983950615E0,9.964758309E0
2.450693836E0,5.410500169E-1,4.239000320E0,8.983950615E0,9.948528911E0
2.452657308E0,6.169500351E-1,4.276950359E0,9.022050858E0,1.000351605E1
2.454620363E0,5.410500169E-1,4.276950359E0,8.983950615E0,9.964758309E0
2.456583541E0,5.790000558E-1,4.239000320E0,9.022050858E0,9.985077188E0
2.458545884E0,5.790000558E-1,4.276950359E0,8.983950615E0,9.966890894E0
2.460508469E0,5.020500422E-1,4.276950359E0,8.983950615E0,9.962716862E0
2.462472125E0,5.410500169E-1,4.239000320E0,9.022050858E0,9.982948488E0
2.464435467E0,5.410500169E-1,4.276950359E0,8.944950104E0,9.929610861E0
2.466398679E0,5.790000558E-1,4.276950359E0,8.983950615E0,9.966890894E0
2.468361930E0,5.410500169E-1,4.239000320E0,9.022050858E0,9.982948488E0
2.470325682E0,6.169500351E-1,4.276950359E0,8.944950104E0,9.934035639E0
2.472289298E0,5.790000558E-1,4.276950359E0,8.983950615E0,9.966890894E0
2.474251968E0,5.790000558E-1,4.354050159E0,8.983950615E0,1.000021812E1
2.476214915E0,5.410500169E-1,4.315950394E0,8.944950104E0,9.946471499E0
2.478178915E0,5.410500169E-1,4.315950394E0,9.022050858E0,1.001586564E1
2.480142606E0,5.790000558E-1,4.239000320E0,8.983950615E0,9.950664974E0
2.482106094E0,5.410500169E-1,4.276950359E0,8.983950615E0,9.964758309E0
2.484069628E0,5.790000558E-1,4.239000320E0,8.944950104E0,9.915467570E0
2.486032851E0,5.410500169E-1,4.276950359E0,9.022050858E0,9.999122020E0
2.487996166E0,5.790000558E-1,4.276950359E0,8.983950615E0,9.966890894E0
2.489958977E0,5.790000558E-1,4.276950359E0,8.944950104E0,9.931750994E0
2.491921935E0,5.410500169E-1,4.315950394E0,8.944950104E0,9.946471499E0
2.493885752E0,5.790000558E-1,4.276950359E0,8.983950615E0,9.966890894E0
2.495849318E0,5.790000558E-1,4.276950359E0,9.022050858E0,1.000124728E1
2.497812177E0,5.790000558E-1,4.276950359E0,8.983950615E0,9.966890894E0
2.499775243E0,5.790000558E-1,4.239000320E0,9.022050858E0,9.985077188E0
2.501738501E0,6.169500351E-1,4.276950359E0,8.983950615E0,9.969167486E0
2.503701703E0,5.790000558E-1,4.239000320E0,9.022050858E0,9.985077188E0
2.505665107E0,5.790000558E-1,4.276950359E0,9.022050858E0,1.000124728E1
2.507628428E0,5.790000558E-1,4.239000320E0,9.022050858E0,9.985077188E0
2.509591464E0,5.790000558E-1,4.239000320E0,9.022050858E0,9.985077188E0
2.511554584E0,5.790000558E-1,4.239000320E0,9.060000420E0,1.001937984E1
2.513517877E0,6.550500393E-1,4.276950359E0,9.022050858E0,1.000593807E1
2.515481120E0,5.790000558E-1,4.276950359E0,9.060000420E0,1.003549466E1
2.517445035E0,5.790000558E-1,4.201050282E0,9.060000420E0,1.000338303E1
2.519408746E0,6.169500351E-1,4.276950359E0,9.060000420E0,1.003775569E1
2.521371535E0,6.169500351E-1,4.315950394E0,9.022050858E0,1.002025233E1
2.523334594E0,5.790000558E-1,4.239000320E0,9.022050858E0,9.985077188E0
2.525298259E0,6.169500351E-1,4.239000320E0,8.983950615E0,9.952945278E0
2.527261746E0,5.790000558E-1,4.239000320E0,9.022050858E0,9.985077188E0
2.529224948E0,5.790000558E-1,4.239000320E0,8.983950615E0,9.950664974E0
2.531188223E0,5.790000558E-1,4.276950359E0,8.983950615E0,9.966890894E0
2.533151221E0,5.790000558E-1,4.276950359E0,9.022050858E0,1.000124728E1
2.535114300E0,5.790000558E-1,4.239000320E0,9.022050858E0,9.985077188E0
2.537077601E0,5.410500169E-1,4.276950359E0,8.983950615E0,9.964758309E0
2.539040837E0,6.169500351E-1,4.276950359E0,8.983950615E0,9.969167486E0
2.541004228E0,5.790000558E-1,4.239000320E0,8.983950615E0,9.950664974E0
2.542967587E0,5.790000558E-1,4.239000320E0,8.944950104E0,9.915467570E0
2.544930976E0,5.410500169E-1,4.276950359E0,8.983950615E0,9.964758309E0
2.546894356E0,5.790000558E-1,4.315950394E0,8.944950104E0,9.948608004E0
2.548857877E0,6.169500351E-1,4.276950359E0,8.983950615E0,9.969167486E0
2.550821356E0,5.790000558E-1,4.276950359E0,8.983950615E0,9.966890894E0
2.552784591E0,6.169500351E-1,4.276950359E0,8.944950104E0,9.934035639E0
2.554747897E0,6.169500351E-1,4.276950359E0,8.944950104E0,9.934035639E0
2.556710934E0,5.790000558E-1,4.276950359E0,8.944950104E0,9.931750994E0
2.558674050E0,5.790000558E-1,4.276950359E0,8.983950615E0,9.966890894E0
2.560636534E0,5.790000558E-1,4.315950394E0,8.944950104E0,9.948608004E0
2.562599204E0,5.410500169E-1,4.315950394E0,8.944950104E0,9.946471499E0
2.564562414E0,5.790000558E-1,4.354050159E0,8.983950615E0,1.000021812E1
2.566525452E0,5.410500169E-1,4.315950394E0,8.944950104E0,9.946471499E0
2.568488671E0,5.410500169E-1,4.315950394E0,8.907000542E0,9.912357014E0
2.570451837E0,5.020500422E-1,4.315950394E0,9.022050858E0,1.001383462E1
2.572414899E0,5.790000558E-1,4.315950394E0,9.022050858E0,1.001798735E1
2.574377992E0,5.020500422E-1,4.315950394E0,8.983950615E0,9.979521567E0
2.576340955E0,5.020500422E-1,4.354050159E0,8.944950104E0,9.961021002E0
2.578303940E0,4.639500082E-1,4.315950394E0,8.907000542E0,9.908447712E0
2.580267347E0,5.790000558E-1,4.315950394E0,8.983950615E0,9.983688573E0
2.582230630E0,5.020500422E-1,4.315950394E0,8.944950104E0,9.944426298E0
2.584193673E0,5.020500422E-1,4.315950394E0,8.944950104E0,9.944426298E0
2.586156786E0,5.020500422E-1,4.315950394E0,8.907000542E0,9.910304773E0
2.588120963E0,5.410500169E-1,4.276950359E0,8.983950615E0,9.964758309E0
2.590084842E0,5.790000558E-1,4.354050159E0,8.983950615E0,1.000021812E1
2.592047377E0,5.020500422E-1,4.315950394E0,8.944950104E0,9.944426298E0
2.594010305E0,4.639500082E-1,4.315950394E0,8.944950104E0,9.942575610E0
2.595974173E0,5.020500422E-1,4.315950394E0,8.983950615E0,9.979521567E0
2.597937765E0,5.410500169E-1,4.276950359E0,8.944950104E0,9.929610861E0
2.599901665E0,5.790000558E-1,4.315950394E0,8.944950104E0,9.948608004E0
2.601865467E0,5.790000558E-1,4.276950359E0,8.944950104E0,9.931750994E0
2.603828556E0,5.020500422E-1,4.276950359E0,8.907000542E0,9.893382499E0
2.605791854E0,5.790000558E-1,4.276950359E0,8.944950104E0,9.931750994E0
2.607754217E0,5.020500422E-1,4.315950394E0,8.944950104E0,9.944426298E0
2.609716854E0,5.020500422E-1,4.276950359E0,8.983950615E0,9.962716862E0
2.611680710E0,5.020500422E-1,4.315950394E0,8.983950615E0,9.979521567E0
2.613644220E0,5.790000558E-1,4.315950394E0,8.944950104E0,9.948608004E0
2.615606458E0,5.020500422E-1,4.276950359E0,8.907000542E0,9.893382499E0
2.617569069E0,5.410500169E-1,4.276950359E0,8.907000542E0,9.895438249E0
2.619531729E0,5.410500169E-1,4.276950359E0,8.907000542E0,9.895438249E0
2.621494374E0,5.410500169E-1,4.276950359E0,8.983950615E0,9.964758309E0
2.623457637E0,5.410500169E-1,4.276950359E0,8.983950615E0,9.964758309E0
2.625420735E0,5.410500169E-1,4.276950359E0,8.944950104E0,9.929610861E0
2.627383269E0,5.410500169E-1,4.315950394E0,8.944950104E0,9.946471499E0
2.629345968E0,5.020500422E-1,4.315950394E0,8.944950104E0,9.944426298E0
2.631308793E0,4.639500082E-1,4.276950359E0,8.983950615E0,9.960869572E0
2.633271581E0,5.020500422E-1,4.315950394E0,8.983950615E0,9.979521567E0
2.635234679E0,4.639500082E-1,4.315950394E0,8.944950104E0,9.942575610E0
2.637197706E0,4.639500082E-1,4.315950394E0,9.022050858E0,1.001199676E1
2.639160747E0,5.410500169E-1,4.315950394E0,8.983950615E0,9.981559576E0
2.641123783E0,5.020500422E-1,4.315950394E0,8.983950615E0,9.979521567E0
2.643086912E0,4.639500082E-1,4.315950394E0,8.983950615E0,9.977677388E0
2.645050014E0,5.410500169E-1,4.276950359E0,8.944950104E0,9.929610861E0
2.647013587E0,5.020500422E-1,4.315950394E0,9.022050858E0,1.001383462E1
2.648977019E0,5.020500422E-1,4.315950394E0,9.022050858E0,1.001383462E1
2.650940036E0,5.020500422E-1,4.315950394E0,8.944950104E0,9.944426298E0
2.652903174E0,4.639500082E-1,4.276950359E0,8.983950615E0,9.960869572E0
2.654866420E0,5.020500422E-1,4.315950394E0,9.022050858E0,1.001383462E1
2.656829634E0,5.410500169E-1,4.276950359E0,9.022050858E0,9.999122020E0
2.658793428E0,5.020500422E-1,4.315950394E0,9.022050858E0,1.001383462E1
2.660757038E0,5.790000558E-1,4.315950394E0,8.983950615E0,9.983688573E0
2.662719168E0,4.639500082E-1,4.276950359E0,8.983950615E0,9.960869572E0
2.664681732E0,5.410500169E-1,4.354050159E0,9.022050858E0,1.003234218E1
2.666644670E0,5.410500169E-1,4.315950394E0,8.983950615E0,9.981559576E0
2.668607499E0,5.410500169E-1,4.276950359E0,8.983950615E0,9.964758309E0
2.670570619E0,5.020500422E-1,4.276950359E0,9.022050858E0,9.997087591E0
2.672533653E0,5.020500422E-1,4.276950359E0,9.022050858E0,9.997087591E0
2.674496423E0,5.020500422E-1,4.276950359E0,9.060000420E0,1.003134917E1
2.676459270E0,4.639500082E-1,4.315950394E0,9.022050858E0,1.001199676E1
2.678422385E0,5.020500422E-1,4.354050159E0,8.983950615E0,9.996058007E0
2.680385422E0,5.020500422E-1,4.315950394E0,9.022050858E0,1.001383462E1
2.682348069E0,5.410500169E-1,4.276950359E0,9.060000420E0,1.003337665E1
2.684310853E0,5.020500422E-1,4.276950359E0,8.983950615E0,9.962716862E0
2.686273663E0,5.410500169E-1,4.276950359E0,8.983950615E0,9.964758309E0
2.688236466E0,5.410500169E-1,4.315950394E0,8.983950615E0,9.981559576E0
2.690199545E0,5.020500422E-1,4.315950394E0,9.022050858E0,1.001383462E1
2.692162543E0,5.410500169E-1,4.315950394E0,8.944950104E0,9.946471499E0
2.694125124E0,5.410500169E-1,4.276950359E0,8.983950615E0,9.964758309E0
2.696087838E0,4.639500082E-1,4.315950394E0,8.944950104E0,9.942575610E0
2.698051336E0,5.410500169E-1,4.276950359E0,8.944950104E0,9.929610861E0
2.700014605E0,5.020500422E-1,4.315950394E0,8.944950104E0,9.944426298E0
2.701977425E0,5.020500422E-1,4.315950394E0,8.944950104E0,9.944426298E0
2.703940376E0,5.020500422E-1,4.315950394E0,8.944950104E0,9.944426298E0
2.705903294E0,5.020500422E-1,4.276950359E0,8.944950104E0,9.927562187E0
2.707866222E0,5.410500169E-1,4.276950359E0,8.944950104E0,9.929610861E0
2.709829189E0,5.020500422E-1,4.354050159E0,8.944950104E0,9.961021002E0
2.711792144E0,5.410500169E-1,4.315950394E0,8.944950104E0,9.946471499E0
2.713755377E0,5.410500169E-1,4.315950394E0,8.944950104E0,9.946471499E0
2.715718528E0,5.020500422E-1,4.315950394E0,8.944950104E0,9.944426298E0
2.717681579E0,5.410500169E-1,4.315950394E0,8.944950104E0,9.946471499E0
2.719644670E0,5.410500169E-1,4.315950394E0,8.944950104E0,9.946471499E0
2.721607249E0,5.410500169E-1,4.315950394E0,9.022050858E0,1.001586564E1
2.723569978E0,4.639500082E-1,4.315950394E0,9.022050858E0,1.001199676E1
2.725532753E0,5.020500422E-1,4.315950394E0,8.944950104E0,9.944426298E0
2.727495514E0,5.410500169E-1,4.276950359E0,9.022050858E0,9.999122020E0
2.729458643E0,5.410500169E-1,4.276950359E0,9.022050858E0,9.999122020E0
2.731421634E0,5.410500169E-1,4.276950359E0,9.022050858E0,9.999122020E0
2.733384546E0,5.410500169E-1,4.276950359E0,8.983950615E0,9.964758309E0
2.735347482E0,5.410500169E-1,4.315950394E0,8.983950615E0,9.981559576E0
2.737310943E0,5.790000558E-1,4.276950359E0,8.983950615E0,9.966890894E0
2.739274250E0,5.410500169E-1,4.315950394E0,8.983950615E0,9.981559576E0
2.741236441E0,5.790000558E-1,4.276950359E0,9.022050858E0,1.000124728E1
2.743198953E0,5.410500169E-1,4.315950394E0,9.022050858E0,1.001586564E1
2.745162847E0,5.020500422E-1,4.276950359E0,9.022050858E0,9.997087591E0
2.747126336E0,6.169500351E-1,4.315950394E0,9.060000420E0,1.005443498E1
2.749089298E0,5.790000558E-1,4.276950359E0,8.983950615E0,9.966890894E0
2.751052414E0,6.169500351E-1,4.276950359E0,9.060000420E0,1.003775569E1
2.753015160E0,5.410500169E-1,4.276950359E0,9.022050858E0,9.999122020E0
2.754978021E0,5.790000558E-1,4.315950394E0,9.022050858E0,1.001798735E1
2.756940774E0,5.790000558E-1,4.276950359E0,9.060000420E0,1.003549466E1
2.758903559E0,5.790000558E-1,4.276950359E0,9.022050858E0,1.000124728E1
2.760867046E0,5.410500169E-1,4.276950359E0,8.983950615E0,9.964758309E0
2.762830327E0,5.790000558E-1,4.276950359E0,8.983950615E0,9.966890894E0
2.764793319E0,5.410500169E-1,4.315950394E0,8.983950615E0,9.981559576E0
2.766756400E0,5.790000558E-1,4.315950394E0,9.022050858E0,1.001798735E1
2.768719341E0,5.790000558E-1,4.315950394E0,9.022050858E0,1.001798735E1
2.770682324E0,5.790000558E-1,4.276950359E0,9.022050858E0,1.000124728E1
2.772645776E0,5.410500169E-1,4.276950359E0,8.983950615E0,9.964758309E0
2.774609091E0,6.169500351E-1,4.315950394E0,8.983950615E0,9.985961336E0
2.776571537E0,5.790000558E-1,4.315950394E0,8.983950615E0,9.983688573E0
2.778534242E0,5.790000558E-1,4.315950394E0,9.022050858E0,1.001798735E1
2.780497922E0,6.169500351E-1,4.276950359E0,8.983950615E0,9.969167486E0
2.782461317E0,5.790000558E-1,4.315950394E0,8.983950615E0,9.983688573E0
2.784424205E0,6.169500351E-1,4.315950394E0,8.907000542E0,9.916789490E0
2.786387242E0,6.169500351E-1,4.239000320E0,8.983950615E0,9.952945278E0
2.788349692E0,5.410500169E-1,4.315950394E0,8.983950615E0,9.981559576E0
2.790312348E0,5.410500169E-1,4.276950359E0,9.022050858E0,9.999122020E0
2.792276622E0,5.790000558E-1,4.276950359E0,8.983950615E0,9.966890894E0
2.794240422E0,5.790000558E-1,4.276950359E0,8.983950615E0,9.966890894E0
2.796202656E0,5.790000558E-1,4.276950359E0,9.022050858E0,1.000124728E1
2.798165348E0,5.020500422E-1,4.276950359E0,8.983950615E0,9.962716862E0
2.800129397E0,5.790000558E-1,4.315950394E0,9.022050858E0,1.001798735E1
2.802093044E0,5.790000558E-1,4.276950359E0,8.983950615E0,9.966890894E0
2.804056159E0,5.410500169E-1,4.354050159E0,8.944950104E0,9.963062796E0
2.806019430E0,5.790000558E-1,4.276950359E0,8.944950104E0,9.931750994E0
2.807982158E0,5.790000558E-1,4.315950394E0,8.983950615E0,9.983688573E0
2.809945046E0,5.790000558E-1,4.315950394E0,8.983950615E0,9.983688573E0
2.811908493E0,5.790000558E-1,4.276950359E0,8.944950104E0,9.931750994E0
2.813871760E0,5.790000558E-1,4.276950359E0,8.983950615E0,9.966890894E0
2.815834084E0,5.410500169E-1,4.315950394E0,8.983950615E0,9.981559576E0
2.817796685E0,5.410500169E-1,4.276950359E0,8.944950104E0,9.929610861E0
2.819760744E0,5.410500169E-1,4.276950359E0,8.944950104E0,9.929610861E0
2.821724376E0,5.790000558E-1,4.276950359E0,8.983950615E0,9.966890894E0
2.823687043E0,5.410500169E-1,4.276950359E0,8.983950615E0,9.964758309E0
2.825649993E0,5.790000558E-1,4.315950394E0,8.983950615E0,9.983688573E0
2.827612731E0,5.410500169E-1,4.276950359E0,8.983950615E0,9.964758309E0
2.829575531E0,5.020500422E-1,4.315950394E0,9.022050858E0,1.001383462E1
2.831539511E0,5.790000558E-1,4.276950359E0,8.944950104E0,9.931750994E0
2.833503145E0,5.790000558E-1,4.239000320E0,8.944950104E0,9.915467570E0
2.835465465E0,5.410500169E-1,4.315950394E0,8.944950104E0,9.946471499E0
2.837428160E0,5.410500169E-1,4.315950394E0,8.907000542E0,9.912357014E0
2.839390896E0,5.410500169E-1,4.239000320E0,8.944950104E0,9.913323923E0
2.841353619E0,5.410500169E-1,4.276950359E0,8.944950104E0,9.929610861E0
2.843317703E0,5.790000558E-1,4.276950359E0,8.983950615E0,9.966890894E0
2.845281389E0,5.790000558E-1,4.239000320E0,8.983950615E0,9.950664974E0
2.847244345E0,5.790000558E-1,4.276950359E0,8.944950104E0,9.931750994E0
2.849207527E0,5.790000558E-1,4.276950359E0,8.983950615E0,9.966890894E0
2.851169684E0,5.020500422E-1,4.315950394E0,8.983950615E0,9.979521567E0
2.853132142E0,5.020500422E-1,4.276950359E0,8.983950615E0,9.962716862E0
2.855094783E0,5.410500169E-1,4.315950394E0,8.944950104E0,9.946471499E0
2.857057371E0,4.639500082E-1,4.315950394E0,8.983950615E0,9.977677388E0
2.859020301E0,4.639500082E-1,4.315950394E0,8.983950615E0,9.977677388E0
2.860983135E0,4.639500082E-1,4.315950394E0,8.983950615E0,9.977677388E0
2.862945939E0,5.410500169E-1,4.315950394E0,8.983950615E0,9.981559576E0
2.864908752E0,5.410500169E-1,4.354050159E0,8.983950615E0,9.998092646E0
2.866871693E0,5.020500422E-1,4.315950394E0,8.983950615E0,9.979521567E0
2.868834596E0,5.020500422E-1,4.354050159E0,8.944950104E0,9.961021002E0
2.870797528E0,5.020500422E-1,4.315950394E0,9.060000420E0,1.004803909E1
2.872760448E0,4.639500082E-1,4.354050159E0,8.983950615E0,9.994216880E0
2.874723732E0,4.639500082E-1,4.354050159E0,8.944950104E0,9.959173397E0
2.876686909E0,5.020500422E-1,4.354050159E0,8.983950615E0,9.996058007E0
2.878650285E0,4.639500082E-1,4.354050159E0,8.944950104E0,9.959173397E0
2.880613602E0,5.020500422E-1,4.315950394E0,8.944950104E0,9.944426298E0
2.882576697E0,5.020500422E-1,4.315950394E0,8.944950104E0,9.944426298E0
2.884539848E0,5.410500169E-1,4.354050159E0,8.907000542E0,9.929005316E0
2.886502912E0,5.020500422E-1,4.315950394E0,8.907000542E0,9.910304773E0
2.888466002E0,5.020500422E-1,4.354050159E0,8.944950104E0,9.961021002E0
2.890429977E0,5.410500169E-1,4.315950394E0,8.944950104E0,9.946471499E0
2.892393692E0,5.790000558E-1,4.276950359E0,8.907000542E0,9.897585771E0
2.894356255E0,5.410500169E-1,4.276950359E0,8.907000542E0,9.895438249E0
2.896319156E0,5.410500169E-1,4.276950359E0,8.944950104E0,9.929610861E0
2.898282262E0,5.790000558E-1,4.276950359E0,8.907000542E0,9.897585771E0
2.900245308E0,5.410500169E-1,4.315950394E0,8.944950104E0,9.946471499E0
2.902209291E0,5.790000558E-1,4.315950394E0,8.907000542E0,9.914500871E0
2.904173000E0,6.169500351E-1,4.315950394E0,8.869050026E0,9.882717415E0
2.906135667E0,5.790000558E-1,4.315950394E0,8.907000542E0,9.914500871E0
2.908098631E0,5.790000558E-1,4.276950359E0,8.907000542E0,9.897585771E0
2.910061906E0,5.410500169E-1,4.315950394E0,8.907000542E0,9.912357014E0
2.912025090E0,5.790000558E-1,4.315950394E0,8.907000542E0,9.914500871E0
2.913987429E0,5.790000558E-1,4.315950394E0,8.944950104E0,9.948608004E0
2.915950015E0,5.790000558E-1,4.276950359E0,8.907000542E0,9.897585771E0
2.917913906E0,6.550500393E-1,4.276950359E0,8.907000542E0,9.902325665E0
2.919877408E0,5.790000558E-1,4.276950359E0,8.907000542E0,9.897585771E0
2.921840548E0,5.790000558E-1,4.276950359E0,8.944950104E0,9.931750994E0
2.923803794E0,6.169500351E-1,4.315950394E0,8.983950615E0,9.985961336E0
2.925767022E0,6.169500351E-1,4.315950394E0,8.944950104E0,9.950888780E0
2.927730256E0,5.790000558E-1,4.276950359E0,8.944950104E0,9.931750994E0
2.929693520E0,6.169500351E-1,4.276950359E0,8.944950104E0,9.934035639E0
2.931656782E0,5.790000558E-1,4.354050159E0,8.944950104E0,9.965195744E0
2.933619243E0,5.790000558E-1,4.315950394E0,8.944950104E0,9.948608004E0
2.935581938E0,5.410500169E-1,4.354050159E0,9.022050858E0,1.003234218E1
2.937544944E0,6.169500351E-1,4.315950394E0,9.022050858E0,1.002025233E1
2.939507859E0,5.410500169E-1,4.315950394E0,8.983950615E0,9.981559576E0
2.941471811E0,6.169500351E-1,4.315950394E0,9.022050858E0,1.002025233E1
2.943435466E0,5.790000558E-1,4.315950394E0,8.983950615E0,9.983688573E0
2.945398490E0,5.790000558E-1,4.354050159E0,8.944950104E0,9.965195744E0
2.947361699E0,5.790000558E-1,4.315950394E0,9.022050858E0,1.001798735E1
2.949324753E0,5.020500422E-1,4.315950394E0,8.983950615E0,9.979521567E0
2.951287852E0,6.169500351E-1,4.354050159E0,9.022050858E0,1.003672167E1
2.953250413E0,5.020500422E-1,4.315950394E0,9.022050858E0,1.001383462E1
2.955213112E0,5.020500422E-1,4.315950394E0,9.060000420E0,1.004803909E1
2.957176072E0,5.410500169E-1,4.315950394E0,9.022050858E0,1.001586564E1
2.959138956E0,5.020500422E-1,4.276950359E0,9.022050858E0,9.997087591E0
2.961102066E0,5.410500169E-1,4.315950394E0,9.060000420E0,1.005006321E1
2.963065110E0,4.639500082E-1,4.315950394E0,9.060000420E0,1.004620749E1
2.965028193E0,5.410500169E-1,4.354050159E0,9.060000420E0,1.006648377E1
2.966991264E0,5.020500422E-1,4.315950394E0,9.060000420E0,1.004803909E1
2.968954163E0,5.020500422E-1,4.276950359E0,9.098999977E0,1.006658627E1
2.970917112E0,5.020500422E-1,4.276950359E0,9.022050858E0,9.997087591E0
2.972880210E0,4.639500082E-1,4.315950394E0,9.060000420E0,1.004620749E1
2.974843264E0,5.410500169E-1,4.276950359E0,9.060000420E0,1.003337665E1
2.976806508E0,5.410500169E-1,4.276950359E0,9.098999977E0,1.006860666E1
2.978769677E0,5.020500422E-1,4.239000320E0,9.098999977E0,1.005052131E1
2.980732784E0,5.020500422E-1,4.315950394E0,9.098999977E0,1.008321787E1
2.982695910E0,5.020500422E-1,4.239000320E0,9.060000420E0,1.001522768E1
2.984659157E0,5.020500422E-1,4.239000320E0,9.060000420E0,1.001522768E1
2.986622369E0,5.410500169E-1,4.239000320E0,9.136950493E0,1.008690850E1
2.988586090E0,5.410500169E-1,4.239000320E0,9.136950493E0,1.008690850E1
2.990549668E0,5.790000558E-1,4.276950359E0,9.136950493E0,1.010501904E1
2.992513020E0,5.410500169E-1,4.239000320E0,9.060000420E0,1.001725843E1
2.994476439E0,5.790000558E-1,4.201050282E0,9.136950493E0,1.007312905E1
2.996439862E0,6.169500351E-1,4.276950359E0,9.136950493E0,1.010726452E1
2.998403283E0,5.790000558E-1,4.201050282E0,9.098999977E0,1.003871830E1
3.000366257E0,5.790000558E-1,4.201050282E0,9.098999977E0,1.003871830E1
3.002329362E0,5.790000558E-1,4.239000320E0,9.136950493E0,1.008901527E1
3.004292614E0,5.790000558E-1,4.239000320E0,9.136950493E0,1.008901527E1
3.006255822E0,5.790000558E-1,4.239000320E0,9.060000420E0,1.001937984E1
3.008218922E0,6.169500351E-1,4.239000320E0,9.136950493E0,1.009126431E1
3.010182054E0,5.790000558E-1,4.239000320E0,9.060000420E0,1.001937984E1
3.012144911E0,5.790000558E-1,4.201050282E0,9.098999977E0,1.003871830E1
3.014107838E0,5.790000558E-1,4.239000320E0,9.060000420E0,1.001937984E1
3.016070940E0,5.410500169E-1,4.239000320E0,9.060000420E0,1.001725843E1
3.018033990E0,5.790000558E-1,4.201050282E0,9.022050858E0,9.969025339E0
3.019997116E0,6.169500351E-1,4.162050247E0,9.060000420E0,9.989339178E0
3.021960220E0,5.790000558E-1,4.239000320E0,9.060000420E0,1.001937984E1
3.023922928E0,5.410500169E-1,4.239000320E0,9.060000420E0,1.001725843E1
3.025885756E0,6.169500351E-1,4.239000320E0,9.098999977E0,1.005691561E1
3.027847974E0,5.790000558E-1,4.239000320E0,9.022050858E0,9.985077188E0
3.029810371E0,5.410500169E-1,4.276950359E0,8.983950615E0,9.964758309E0
3.031774240E0,6.169500351E-1,4.276950359E0,8.983950615E0,9.969167486E0
3.033737677E0,5.790000558E-1,4.276950359E0,9.022050858E0,1.000124728E1
3.035700713E0,5.790000558E-1,4.276950359E0,8.983950615E0,9.966890894E0
3.037663853E0,5.790000558E-1,4.276950359E0,8.983950615E0,9.966890894E0
3.039626784E0,5.790000558E-1,4.276950359E0,8.983950615E0,9.966890894E0
3.041589776E0,5.790000558E-1,4.315950394E0,8.944950104E0,9.948608004E0
3.043552866E0,5.790000558E-1,4.315950394E0,8.983950615E0,9.983688573E0
3.045515928E0,6.550500393E-1,4.276950359E0,9.022050858E0,1.000593807E1
3.047478998E0,5.790000558E-1,4.315950394E0,9.022050858E0,1.001798735E1
3.049442072E0,6.169500351E-1,4.315950394E0,8.944950104E0,9.950888780E0
3.051404069E0,5.410500169E-1,4.315950394E0,8.944950104E0,9.946471499E0
3.053366381E0,5.410500169E-1,4.276950359E0,8.944950104E0,9.929610861E0
3.055330129E0,5.790000558E-1,4.315950394E0,8.983950615E0,9.983688573E0
3.057293456E0,5.790000558E-1,4.276950359E0,8.944950104E0,9.931750994E0
3.059256481E0,5.410500169E-1,4.315950394E0,8.944950104E0,9.946471499E0
3.061219602E0,5.790000558E-1,4.315950394E0,8.983950615E0,9.983688573E0
3.063182626E0,5.790000558E-1,4.315950394E0,8.983950615E0,9.983688573E0
3.065145679E0,5.790000558E-1,4.315950394E0,8.983950615E0,9.983688573E0
3.067108984E0,5.410500169E-1,4.315950394E0,8.944950104E0,9.946471499E0
3.069072215E0,5.790000558E-1,4.315950394E0,8.944950104E0,9.948608004E0
3.071034498E0,6.169500351E-1,4.276950359E0,8.944950104E0,9.934035639E0
3.072997093E0,5.410500169E-1,4.315950394E0,8.907000542E0,9.912357014E0
3.074961288E0,5.410500169E-1,4.315950394E0,8.983950615E0,9.981559576E0
3.076925014E0,5.410500169E-1,4.354050159E0,8.944950104E0,9.963062796E0
3.078887305E0,4.639500082E-1,4.315950394E0,8.944950104E0,9.942575610E0
3.080850016E0,4.639500082E-1,4.315950394E0,8.944950104E0,9.942575610E0
3.082813451E0,5.020500422E-1,4.276950359E0,8.983950615E0,9.962716862E0
3.084776687E0,5.020500422E-1,4.276950359E0,8.944950104E0,9.927562187E0
3.086740638E0,5.020500422E-1,4.276950359E0,8.983950615E0,9.962716862E0
3.088704379E0,5.790000558E-1,4.239000320E0,8.944950104E0,9.915467570E0
3.090666848E0,5.020500422E-1,4.315950394E0,8.944950104E0,9.944426298E0
3.092629689E0,5.410500169E-1,4.276950359E0,8.944950104E0,9.929610861E0
3.094594038E0,5.410500169E-1,4.276950359E0,8.944950104E0,9.929610861E0
3.096557966E0,5.790000558E-1,4.354050159E0,8.944950104E0,9.965195744E0
3.098520673E0,5.410500169E-1,4.315950394E0,8.944950104E0,9.946471499E0
3.100483737E0,5.790000558E-1,4.315950394E0,8.983950615E0,9.983688573E0
3.102446681E0,5.410500169E-1,4.276950359E0,8.983950615E0,9.964758309E0
3.104409660E0,6.169500351E-1,4.276950359E0,8.944950104E0,9.934035639E0
3.106371838E0,5.790000558E-1,4.315950394E0,8.944950104E0,9.948608004E0
3.108334261E0,5.410500169E-1,4.315950394E0,8.983950615E0,9.981559576E0
3.110298351E0,5.790000558E-1,4.315950394E0,8.944950104E0,9.948608004E0
3.112261952E0,5.790000558E-1,4.276950359E0,8.983950615E0,9.966890894E0
3.114225075E0,6.550500393E-1,4.315950394E0,8.983950615E0,9.988387608E0
3.116188338E0,5.790000558E-1,4.276950359E0,8.983950615E0,9.966890894E0
3.118151603E0,5.790000558E-1,4.276950359E0,9.022050858E0,1.000124728E1
3.120114870E0,6.169500351E-1,4.276950359E0,8.983950615E0,9.969167486E0
3.122078095E0,6.169500351E-1,4.276950359E0,9.060000420E0,1.003775569E1
3.124041333E0,6.169500351E-1,4.276950359E0,8.983950615E0,9.969167486E0
3.126004697E0,5.790000558E-1,4.276950359E0,8.944950104E0,9.931750994E0
3.127968024E0,6.169500351E-1,4.276950359E0,8.944950104E0,9.934035639E0
3.129931239E0,5.790000558E-1,4.239000320E0,8.944950104E0,9.915467570E0
3.131894487E0,5.790000558E-1,4.276950359E0,8.983950615E0,9.966890894E0
3.133857399E0,6.169500351E-1,4.276950359E0,8.983950615E0,9.969167486E0
3.135820410E0,5.790000558E-1,4.276950359E0,9.022050858E0,1.000124728E1
3.137783452E0,6.169500351E-1,4.276950359E0,8.983950615E0,9.969167486E0
3.139746485E0,5.790000558E-1,4.315950394E0,8.983950615E0,9.983688573E0
3.141708880E0,5.790000558E-1,4.276950359E0,8.983950615E0,9.966890894E0
3.143671472E0,5.410500169E-1,4.315950394E0,8.944950104E0,9.946471499E0
3.145635307E0,5.410500169E-1,4.315950394E0,8.983950615E0,9.981559576E0
3.147598778E0,5.790000558E-1,4.276950359E0,9.022050858E0,1.000124728E1
3.149561248E0,5.790000558E-1,4.315950394E0,8.983950615E0,9.983688573E0
3.151524011E0,5.020500422E-1,4.276950359E0,8.983950615E0,9.962716862E0
3.153487204E0,5.020500422E-1,4.315950394E0,9.022050858E0,1.001383462E1
3.155450258E0,5.020500422E-1,4.315950394E0,8.944950104E0,9.944426298E0
3.157413655E0,4.260000288E-1,4.276950359E0,8.983950615E0,9.959174115E0
3.159376951E0,5.020500422E-1,4.315950394E0,8.983950615E0,9.979521567E0
3.161340351E0,5.410500169E-1,4.276950359E0,9.022050858E0,9.999122020E0
3.163303720E0,5.410500169E-1,4.315950394E0,8.983950615E0,9.981559576E0
3.165267449E0,5.410500169E-1,4.315950394E0,8.983950615E0,9.981559576E0
3.167231086E0,5.410500169E-1,4.239000320E0,8.983950615E0,9.948528911E0
3.169193527E0,5.790000558E-1,4.276950359E0,8.983950615E0,9.966890894E0
3.171156318E0,5.020500422E-1,4.315950394E0,8.983950615E0,9.979521567E0
3.173119849E0,5.020500422E-1,4.315950394E0,8.944950104E0,9.944426298E0
3.175083163E0,5.410500169E-1,4.276950359E0,9.022050858E0,9.999122020E0
3.177046520E0,5.410500169E-1,4.276950359E0,9.022050858E0,9.999122020E0
3.179009860E0,5.410500169E-1,4.276950359E0,8.983950615E0,9.964758309E0
3.180973793E0,5.410500169E-1,4.276950359E0,8.983950615E0,9.964758309E0
3.182937552E0,5.790000558E-1,4.276950359E0,9.060000420E0,1.003549466E1
3.184899837E0,5.790000558E-1,4.276950359E0,9.022050858E0,1.000124728E1
3.186862554E0,5.410500169E-1,4.276950359E0,9.060000420E0,1.003337665E1
3.188826714E0,5.790000558E-1,4.276950359E0,9.060000420E0,1.003549466E1
3.190790461E0,5.790000558E-1,4.315950394E0,9.060000420E0,1.005217770E1
3.192752929E0,5.410500169E-1,4.276950359E0,8.983950615E0,9.964758309E0
3.194715771E0,5.410500169E-1,4.276950359E0,9.060000420E0,1.003337665E1
3.196678842E0,5.410500169E-1,4.315950394E0,9.022050858E0,1.001586564E1
3.198641846E0,5.020500422E-1,4.276950359E0,9.022050858E0,9.997087591E0
3.200604612E0,5.410500169E-1,4.276950359E0,9.060000420E0,1.003337665E1
3.202567454E0,5.410500169E-1,4.276950359E0,9.022050858E0,9.999122020E0
3.204530390E0,5.020500422E-1,4.276950359E0,9.022050858E0,9.997087591E0
3.206493299E0,5.410500169E-1,4.276950359E0,8.983950615E0,9.964758309E0
3.208456359E0,5.410500169E-1,4.315950394E0,9.022050858E0,1.001586564E1
3.210419375E0,5.410500169E-1,4.354050159E0,9.022050858E0,1.003234218E1
3.212383359E0,5.790000558E-1,4.276950359E0,9.022050858E0,1.000124728E1
3.214347063E0,6.169500351E-1,4.276950359E0,8.944950104E0,9.934035639E0
3.216309673E0,5.410500169E-1,4.315950394E0,8.944950104E0,9.946471499E0
3.218272603E0,5.790000558E-1,4.315950394E0,8.983950615E0,9.983688573E0
3.220235749E0,5.410500169E-1,4.276950359E0,8.983950615E0,9.964758309E0
3.222198832E0,5.790000558E-1,4.276950359E0,8.983950615E0,9.966890894E0
3.224162078E0,5.790000558E-1,4.276950359E0,8.944950104E0,9.931750994E0
3.226125284E0,5.790000558E-1,4.276950359E0,8.983950615E0,9.966890894E0
3.228088295E0,5.790000558E-1,4.276950359E0,8.983950615E0,9.966890894E0
3.230051363E0,5.790000558E-1,4.276950359E0,9.022050858E0,1.000124728E1
3.232013720E0,5.410500169E-1,4.315950394E0,9.022050858E0,1.001586564E1
3.233976286E0,5.020500422E-1,4.315950394E0,8.983950615E0,9.979521567E0
3.235940050E0,5.790000558E-1,4.354050159E0,9.022050858E0,1.003446040E1
3.237903452E0,5.790000558E-1,4.315950394E0,8.983950615E0,9.983688573E0
3.239865709E0,5.410500169E-1,4.315950394E0,9.022050858E0,1.001586564E1
3.241828301E0,5.410500169E-1,4.276950359E0,8.983950615E0,9.964758309E0
3.243791460E0,5.020500422E-1,4.354050159E0,8.944950104E0,9.961021002E0
3.245754452E0,5.020500422E-1,4.315950394E0,8.944950104E0,9.944426298E0
3.247717626E0,5.020500422E-1,4.315950394E0,8.983950615E0,9.979521567E0
3.249680720E0,5.020500422E-1,4.315950394E0,8.944950104E0,9.944426298E0
3.251644110E0,5.790000558E-1,4.276950359E0,9.060000420E0,1.003549466E1
3.253607413E0,5.020500422E-1,4.315950394E0,8.983950615E0,9.979521567E0
3.255570497E0,4.639500082E-1,4.354050159E0,8.983950615E0,9.994216880E0
3.257533645E0,4.639500082E-1,4.354050159E0,8.983950615E0,9.994216880E0
3.259496904E0,4.639500082E-1,4.315950394E0,9.022050858E0,1.001199676E1
3.261460120E0,4.639500082E-1,4.315950394E0,9.098999977E0,1.008139266E1
3.263423488E0,4.639500082E-1,4.315950394E0,8.983950615E0,9.977677388E0
3.265386812E0,5.020500422E-1,4.354050159E0,9.022050858E0,1.003031449E1
3.267349848E0,5.020500422E-1,4.315950394E0,9.022050858E0,1.001383462E1
3.269312968E0,4.260000288E-1,4.315950394E0,9.022050858E0,1.001030996E1
3.271276057E0,5.020500422E-1,4.276950359E0,8.983950615E0,9.962716862E0
3.273239141E0,4.639500082E-1,4.315950394E0,8.983950615E0,9.977677388E0
3.275202081E0,4.260000288E-1,4.354050159E0,9.022050858E0,1.002679562E1
3.277165064E0,5.020500422E-1,4.315950394E0,8.983950615E0,9.979521567E0
3.279128336E0,4.639500082E-1,4.276950359E0,9.022050858E0,9.995246653E0
3.281091524E0,4.639500082E-1,4.315950394E0,8.983950615E0,9.977677388E0
3.283054436E0,4.639500082E-1,4.315950394E0,9.022050858E0,1.001199676E1
3.285017405E0,5.020500422E-1,4.315950394E0,8.983950615E0,9.979521567E0
3.286980679E0,4.639500082E-1,4.315950394E0,9.060000420E0,1.004620749E1
3.288943864E0,5.410500169E-1,4.276950359E0,9.022050858E0,9.999122020E0
3.290907463E0,4.639500082E-1,4.315950394E0,9.060000420E0,1.004620749E1
3.292870941E0,5.410500169E-1,4.315950394E0,9.022050858E0,1.001586564E1
3.294833877E0,5.020500422E-1,4.276950359E0,9.022050858E0,9.997087591E0
3.296796992E0,5.020500422E-1,4.276950359E0,9.060000420E0,1.003134917E1
3.298759927E0,4.639500082E-1,4.276950359E0,9.060000420E0,1.002951452E1
3.300722915E0,5.020500422E-1,4.315950394E0,9.060000420E0,1.004803909E1
3.302686322E0,5.410500169E-1,4.315950394E0,9.022050858E0,1.001586564E1
3.304649606E0,5.410500169E-1,4.276950359E0,9.022050858E0,9.999122020E0
3.306612847E0,5.410500169E-1,4.276950359E0,8.983950615E0,9.964758309E0
3.308576088E0,5.410500169E-1,4.276950359E0,9.022050858E0,9.999122020E0
3.310539496E0,5.790000558E-1,4.276950359E0,9.022050858E0,1.000124728E1
3.312502855E0,5.410500169E-1,4.276950359E0,9.022050858E0,9.999122020E0
3.314466650E0,5.410500169E-1,4.354050159E0,8.983950615E0,9.998092646E0
3.316430317E0,6.169500351E-1,4.276950359E0,8.983950615E0,9.969167486E0
3.318393294E0,6.169500351E-1,4.276950359E0,8.944950104E0,9.934035639E0
3.320356473E0,5.790000558E-1,4.276950359E0,8.983950615E0,9.966890894E0
3.322320027E0,6.169500351E-1,4.276950359E0,8.944950104E0,9.934035639E0
3.324283471E0,5.790000558E-1,4.315950394E0,8.983950615E0,9.983688573E0
3.326245630E0,5.020500422E-1,4.315950394E0,8.944950104E0,9.944426298E0
3.328208165E0,5.410500169E-1,4.315950394E0,8.944950104E0,9.946471499E0
3.330172190E0,5.790000558E-1,4.239000320E0,8.907000542E0,9.881246046E0
3.332135778E0,5.790000558E-1,4.276950359E0,8.907000542E0,9.897585771E0
