"Time (s)","Acceleration x (m/s^2)","Acceleration y (m/s^2)","Acceleration z (m/s^2)","Absolute acceleration (m/s^2)"
3.535182500E-2,1.189500093E-1,4.621950150E0,8.599950790E0,9.764001530E0
3.731373100E-2,8.100000024E-2,4.621950150E0,8.677050591E0,9.831591485E0
3.927821000E-2,1.189500093E-1,4.584000111E0,8.677050591E0,9.814194469E0
4.124127100E-2,1.189500093E-1,4.621950150E0,8.638950348E0,9.798369017E0
4.320474800E-2,8.100000024E-2,4.621950150E0,8.677050591E0,9.831591485E0
4.516770600E-2,1.189500093E-1,4.584000111E0,8.599950790E0,9.746094588E0
4.713082000E-2,1.189500093E-1,4.584000111E0,8.638950348E0,9.780524998E0
4.909393500E-2,1.189500093E-1,4.584000111E0,8.599950790E0,9.746094588E0
5.105704900E-2,8.100000024E-2,4.545000076E0,8.677050591E0,9.795651772E0
5.302061500E-2,1.189500093E-1,4.621950150E0,8.638950348E0,9.798369017E0
5.498404900E-2,1.570500135E-1,4.545000076E0,8.599950790E0,9.728352584E0
5.694709100E-2,1.189500093E-1,4.545000076E0,8.715000153E0,9.829669499E0
5.891026200E-2,1.570500135E-1,4.584000111E0,8.715000153E0,9.848296776E0
6.087350200E-2,1.570500135E-1,4.584000111E0,8.715000153E0,9.848296776E0
6.283672200E-2,1.189500093E-1,4.545000076E0,8.715000153E0,9.829669499E0
6.480031500E-2,1.570500135E-1,4.545000076E0,8.715000153E0,9.830204375E0
6.676379900E-2,1.570500135E-1,4.545000076E0,8.754000664E0,9.864796907E0
6.872690900E-2,1.570500135E-1,4.545000076E0,8.754000664E0,9.864796907E0
7.069015200E-2,1.570500135E-1,4.545000076E0,8.754000664E0,9.864796907E0
7.265360500E-2,1.570500135E-1,4.507050037E0,8.791950226E0,9.881121066E0
7.461699600E-2,1.570500135E-1,4.545000076E0,8.754000664E0,9.864796907E0
7.658033500E-2,1.570500135E-1,4.507050037E0,8.715000153E0,9.812715853E0
7.854369000E-2,1.570500135E-1,4.545000076E0,8.830050468E0,9.932345225E0
8.050704900E-2,1.189500093E-1,4.507050037E0,8.754000664E0,9.846835876E0
8.247042800E-2,1.570500135E-1,4.507050037E0,8.791950226E0,9.881121066E0
8.443385900E-2,1.570500135E-1,4.545000076E0,8.754000664E0,9.864796907E0
8.639727400E-2,1.189500093E-1,4.545000076E0,8.754000664E0,9.864263907E0
8.836096900E-2,1.570500135E-1,4.507050037E0,8.715000153E0,9.812715853E0
9.032458200E-2,1.570500135E-1,4.545000076E0,8.754000664E0,9.864796907E0
9.228777500E-2,1.570500135E-1,4.545000076E0,8.791950226E0,9.898488732E0
9.425110400E-2,1.960500032E-1,4.507050037E0,8.754000664E0,9.848069012E0
9.621445200E-2,1.960500032E-1,4.507050037E0,8.830050468E0,9.915731285E0
9.817779400E-2,1.960500032E-1,4.507050037E0,8.791950226E0,9.881817870E0
1.001410520E-1,2.340000123E-1,4.507050037E0,8.754000664E0,9.848897586E0
1.021043340E-1,1.960500032E-1,4.507050037E0,8.754000664E0,9.848069012E0
1.040674720E-1,1.960500032E-1,4.507050037E0,8.754000664E0,9.848069012E0
1.060306800E-1,1.960500032E-1,4.507050037E0,8.791950226E0,9.881817870E0
1.079939590E-1,1.570500135E-1,4.545000076E0,8.791950226E0,9.898488732E0
1.099572170E-1,1.960500032E-1,4.507050037E0,8.754000664E0,9.848069012E0
1.119205780E-1,2.340000123E-1,4.468950272E0,8.791950226E0,9.865326214E0
1.138839090E-1,1.189500093E-1,4.545000076E0,8.791950226E0,9.897957545E0
1.158471230E-1,1.570500135E-1,4.545000076E0,8.830050468E0,9.932345225E0
1.178103720E-1,1.570500135E-1,4.507050037E0,8.830050468E0,9.915036864E0
1.197734190E-1,1.570500135E-1,4.507050037E0,8.869050026E0,9.949784576E0
1.217365260E-1,1.570500135E-1,4.507050037E0,8.830050468E0,9.915036864E0
1.236994620E-1,1.960500032E-1,4.545000076E0,8.830050468E0,9.933038436E0
1.256624490E-1,1.570500135E-1,4.545000076E0,8.869050026E0,9.967032596E0
1.276258810E-1,1.570500135E-1,4.584000111E0,8.907000542E0,1.001860172E1
1.295891970E-1,1.570500135E-1,4.545000076E0,8.944950104E0,1.003463117E1
1.315524140E-1,1.960500032E-1,4.584000111E0,8.907000542E0,1.001928896E1
1.335156600E-1,1.570500135E-1,4.507050037E0,8.944950104E0,1.001749954E1
1.354787080E-1,1.960500032E-1,4.545000076E0,8.907000542E0,1.000150588E1
1.374418140E-1,1.570500135E-1,4.545000076E0,8.907000542E0,1.000081742E1
1.394051860E-1,1.570500135E-1,4.545000076E0,8.944950104E0,1.003463117E1
1.413684900E-1,1.570500135E-1,4.545000076E0,8.944950104E0,1.003463117E1
1.433317100E-1,1.189500093E-1,4.584000111E0,8.944950104E0,1.005183259E1
1.452949540E-1,1.189500093E-1,4.545000076E0,8.907000542E0,1.000029167E1
1.472580020E-1,1.570500135E-1,4.584000111E0,8.944950104E0,1.005235565E1
1.492211080E-1,8.100000024E-2,4.507050037E0,8.944950104E0,1.001659590E1
1.511842040E-1,8.100000024E-2,4.584000111E0,8.983950615E0,1.008617800E1
1.531473170E-1,1.189500093E-1,4.545000076E0,8.907000542E0,1.000029167E1
1.551105230E-1,1.189500093E-1,4.545000076E0,8.983950615E0,1.006888988E1
1.570737020E-1,8.100000024E-2,4.584000111E0,8.944950104E0,1.005145514E1
1.590368080E-1,4.200000316E-2,4.621950150E0,9.060000420E0,1.017092890E1
1.609999350E-1,8.100000024E-2,4.621950150E0,9.022050858E0,1.013737569E1
1.629632780E-1,4.200000316E-2,4.584000111E0,8.983950615E0,1.008594020E1
1.649265860E-1,4.200000316E-2,4.584000111E0,8.983950615E0,1.008594020E1
1.668898050E-1,4.200000316E-2,4.584000111E0,9.060000420E0,1.015373964E1
1.688530500E-1,4.200000316E-2,4.584000111E0,8.983950615E0,1.008594020E1
1.708163220E-1,4.200000316E-2,4.545000076E0,8.983950615E0,1.006827484E1
1.727795860E-1,4.200000316E-2,4.545000076E0,9.022050858E0,1.010228644E1
1.747428020E-1,4.200000316E-2,4.584000111E0,8.944950104E0,1.005121651E1
1.767060400E-1,4.050000105E-3,4.584000111E0,9.022050858E0,1.011980608E1
1.786694030E-1,4.050000105E-3,4.621950150E0,8.983950615E0,1.010315833E1
1.806327300E-1,4.050000105E-3,4.584000111E0,8.983950615E0,1.008585356E1
1.825956300E-1,-3.299999982E-2,4.545000076E0,8.983950615E0,1.006824132E1
1.845586550E-1,4.050000105E-3,4.545000076E0,8.983950615E0,1.006818806E1
1.865219360E-1,-7.200000435E-2,4.584000111E0,8.944950104E0,1.005138664E1
1.884851310E-1,-3.299999982E-2,4.584000111E0,8.983950615E0,1.008590673E1
1.904481440E-1,4.050000105E-3,4.584000111E0,8.983950615E0,1.008585356E1
1.924112100E-1,-3.299999982E-2,4.584000111E0,8.983950615E0,1.008590673E1
1.943745130E-1,4.050000105E-3,4.545000076E0,8.944950104E0,1.003340293E1
1.963377460E-1,4.050000105E-3,4.584000111E0,8.944950104E0,1.005112958E1
1.983007580E-1,4.050000105E-3,4.584000111E0,8.944950104E0,1.005112958E1
2.002638630E-1,4.050000105E-3,4.545000076E0,8.869050026E0,9.965796027E0
2.022272940E-1,4.200000316E-2,4.584000111E0,8.869050026E0,9.983730234E0
2.041906300E-1,4.200000316E-2,4.584000111E0,8.944950104E0,1.005121651E1
2.061540230E-1,4.200000316E-2,4.584000111E0,8.830050468E0,9.949101079E0
2.081173990E-1,4.200000316E-2,4.584000111E0,8.869050026E0,9.983730234E0
2.100803380E-1,8.100000024E-2,4.545000076E0,8.869050026E0,9.966124375E0
2.120434350E-1,4.050000105E-3,4.545000076E0,8.907000542E0,9.999585029E0
2.140063730E-1,4.050000105E-3,4.584000111E0,8.830050468E0,9.949013252E0
2.159693580E-1,4.050000105E-3,4.621950150E0,8.869050026E0,1.000112433E1
2.179326300E-1,4.050000105E-3,4.584000111E0,8.907000542E0,1.001737151E1
2.198958180E-1,4.050000105E-3,4.584000111E0,8.869050026E0,9.983642711E0
2.218590650E-1,4.050000105E-3,4.621950150E0,8.869050026E0,1.000112433E1
2.238222890E-1,4.050000105E-3,4.584000111E0,8.830050468E0,9.949013252E0
2.257855210E-1,8.100000024E-2,4.584000111E0,8.830050468E0,9.949342154E0
2.277487500E-1,8.100000024E-2,4.621950150E0,8.830050468E0,9.966883939E0
2.297121160E-1,4.050000105E-3,4.621950150E0,8.791950226E0,9.932815732E0
2.316754420E-1,8.100000024E-2,4.584000111E0,8.830050468E0,9.949342154E0
2.336386390E-1,8.100000024E-2,4.584000111E0,8.791950226E0,9.915543696E0
2.356018870E-1,4.200000316E-2,4.621950150E0,8.754000664E0,9.899329008E0
2.375653390E-1,8.100000024E-2,4.584000111E0,8.791950226E0,9.915543696E0
2.395287310E-1,-3.299999982E-2,4.621950150E0,8.754000664E0,9.899294915E0
2.414921150E-1,8.100000024E-2,4.621950150E0,8.791950226E0,9.933145169E0
2.434555020E-1,8.100000024E-2,4.621950150E0,8.830050468E0,9.966883939E0
2.454191870E-1,4.200000316E-2,4.621950150E0,8.754000664E0,9.899329008E0
2.473827940E-1,8.100000024E-2,4.584000111E0,8.715000153E0,9.847377604E0
2.493461410E-1,1.189500093E-1,4.584000111E0,8.754000664E0,9.882293951E0
2.513095650E-1,8.100000024E-2,4.621950150E0,8.754000664E0,9.899571294E0
2.532726270E-1,8.100000024E-2,4.545000076E0,8.754000664E0,9.863879273E0
2.552357960E-1,8.100000024E-2,4.584000111E0,8.754000664E0,9.881910020E0
2.571988310E-1,8.100000024E-2,4.584000111E0,8.754000664E0,9.881910020E0
2.591618920E-1,4.200000316E-2,4.584000111E0,8.754000664E0,9.881667300E0
2.611255110E-1,1.189500093E-1,4.545000076E0,8.715000153E0,9.829669499E0
2.630889670E-1,8.100000024E-2,4.584000111E0,8.791950226E0,9.915543696E0
2.650523850E-1,4.200000316E-2,4.545000076E0,8.754000664E0,9.863636110E0
2.670158150E-1,1.189500093E-1,4.621950150E0,8.715000153E0,9.865485287E0
2.689791800E-1,1.189500093E-1,4.545000076E0,8.754000664E0,9.864263907E0
2.709425400E-1,8.100000024E-2,4.545000076E0,8.791950226E0,9.897574221E0
2.729057490E-1,8.100000024E-2,4.545000076E0,8.754000664E0,9.863879273E0
2.748690020E-1,1.189500093E-1,4.545000076E0,8.754000664E0,9.864263907E0
2.768324080E-1,1.189500093E-1,4.545000076E0,8.830050468E0,9.931815850E0
2.787957690E-1,1.189500093E-1,4.507050037E0,8.754000664E0,9.846835876E0
2.807591890E-1,1.189500093E-1,4.545000076E0,8.754000664E0,9.864263907E0
2.827226010E-1,1.189500093E-1,4.545000076E0,8.754000664E0,9.864263907E0
2.846862970E-1,1.570500135E-1,4.584000111E0,8.754000664E0,9.882825980E0
2.866499090E-1,1.570500135E-1,4.545000076E0,8.791950226E0,9.898488732E0
2.886131210E-1,1.570500135E-1,4.545000076E0,8.791950226E0,9.898488732E0
2.905764500E-1,1.189500093E-1,4.545000076E0,8.791950226E0,9.897957545E0
2.925396080E-1,1.189500093E-1,4.584000111E0,8.791950226E0,9.915926325E0
2.945028240E-1,1.189500093E-1,4.584000111E0,8.754000664E0,9.882293951E0
2.964661020E-1,1.189500093E-1,4.545000076E0,8.754000664E0,9.864263907E0
2.984293610E-1,1.189500093E-1,4.507050037E0,8.754000664E0,9.846835876E0
3.003925880E-1,1.189500093E-1,4.584000111E0,8.830050468E0,9.949723483E0
3.023558240E-1,1.570500135E-1,4.507050037E0,8.715000153E0,9.812715853E0
3.043190540E-1,1.189500093E-1,4.584000111E0,8.791950226E0,9.915926325E0
3.062822860E-1,1.570500135E-1,4.584000111E0,8.791950226E0,9.916456549E0
3.082453360E-1,1.570500135E-1,4.584000111E0,8.754000664E0,9.882825980E0
3.102084400E-1,1.570500135E-1,4.545000076E0,8.791950226E0,9.898488732E0
3.121716460E-1,1.570500135E-1,4.545000076E0,8.830050468E0,9.932345225E0
3.141348220E-1,1.570500135E-1,4.545000076E0,8.791950226E0,9.898488732E0
3.160977290E-1,1.189500093E-1,4.545000076E0,8.830050468E0,9.931815850E0
3.180607280E-1,1.570500135E-1,4.584000111E0,8.791950226E0,9.916456549E0
3.200241780E-1,1.570500135E-1,4.584000111E0,8.830050468E0,9.950251906E0
3.219874960E-1,1.189500093E-1,4.507050037E0,8.754000664E0,9.846835876E0
3.239506670E-1,1.960500032E-1,4.545000076E0,8.754000664E0,9.865494864E0
3.259138820E-1,1.960500032E-1,4.545000076E0,8.754000664E0,9.865494864E0
3.278771250E-1,1.570500135E-1,4.584000111E0,8.791950226E0,9.916456549E0
3.298403520E-1,1.570500135E-1,4.545000076E0,8.791950226E0,9.898488732E0
3.318038090E-1,1.570500135E-1,4.545000076E0,8.754000664E0,9.864796907E0
3.337671980E-1,1.960500032E-1,4.584000111E0,8.754000664E0,9.883522663E0
3.357304020E-1,1.189500093E-1,4.545000076E0,8.830050468E0,9.931815850E0
3.376936610E-1,1.570500135E-1,4.545000076E0,8.830050468E0,9.932345225E0
3.396569150E-1,1.570500135E-1,4.584000111E0,8.791950226E0,9.916456549E0
3.416201510E-1,1.570500135E-1,4.545000076E0,8.830050468E0,9.932345225E0
3.435833360E-1,1.570500135E-1,4.507050037E0,8.791950226E0,9.881121066E0
3.455465360E-1,1.570500135E-1,4.545000076E0,8.791950226E0,9.898488732E0
3.475097710E-1,1.570500135E-1,4.545000076E0,8.869050026E0,9.967032596E0
3.494729950E-1,1.570500135E-1,4.584000111E0,8.830050468E0,9.950251906E0
3.514364070E-1,1.189500093E-1,4.545000076E0,8.791950226E0,9.897957545E0
3.533997640E-1,1.189500093E-1,4.545000076E0,8.830050468E0,9.931815850E0
3.553631990E-1,1.570500135E-1,4.545000076E0,8.869050026E0,9.967032596E0
3.573266110E-1,1.189500093E-1,4.507050037E0,8.830050468E0,9.914506565E0
3.592901260E-1,1.570500135E-1,4.584000111E0,8.830050468E0,9.950251906E0
3.612536110E-1,1.570500135E-1,4.545000076E0,8.830050468E0,9.932345225E0
3.632171500E-1,1.570500135E-1,4.507050037E0,8.869050026E0,9.949784576E0
3.651806790E-1,1.570500135E-1,4.507050037E0,8.830050468E0,9.915036864E0
3.671440400E-1,1.960500032E-1,4.507050037E0,8.907000542E0,9.984317417E0
3.691074500E-1,2.340000123E-1,4.507050037E0,8.869050026E0,9.951296619E0
3.710708300E-1,1.189500093E-1,4.545000076E0,8.907000542E0,1.000029167E1
3.730342190E-1,1.570500135E-1,4.545000076E0,8.869050026E0,9.967032596E0
3.749974070E-1,1.189500093E-1,4.545000076E0,8.869050026E0,9.966505063E0
3.769606650E-1,1.189500093E-1,4.584000111E0,8.907000542E0,1.001807690E1
3.789240700E-1,1.189500093E-1,4.545000076E0,8.830050468E0,9.931815850E0
3.808874320E-1,1.189500093E-1,4.584000111E0,8.830050468E0,9.949723483E0
3.828505060E-1,1.189500093E-1,4.584000111E0,8.830050468E0,9.949723483E0
3.848136650E-1,1.189500093E-1,4.621950150E0,8.869050026E0,1.000183087E1
3.867769270E-1,1.189500093E-1,4.545000076E0,8.907000542E0,1.000029167E1
3.887401440E-1,1.189500093E-1,4.584000111E0,8.869050026E0,9.984350479E0
3.907035120E-1,1.189500093E-1,4.584000111E0,8.869050026E0,9.984350479E0
3.926668360E-1,1.189500093E-1,4.584000111E0,8.869050026E0,9.984350479E0
3.946298720E-1,1.189500093E-1,4.584000111E0,8.869050026E0,9.984350479E0
3.965929920E-1,1.189500093E-1,4.621950150E0,8.907000542E0,1.003549854E1
3.985562600E-1,1.189500093E-1,4.584000111E0,8.907000542E0,1.001807690E1
4.005194710E-1,8.100000024E-2,4.584000111E0,8.907000542E0,1.001769817E1
4.024828850E-1,8.100000024E-2,4.621950150E0,8.907000542E0,1.003512047E1
4.044462400E-1,8.100000024E-2,4.584000111E0,8.907000542E0,1.001769817E1
4.064093150E-1,8.100000024E-2,4.621950150E0,8.907000542E0,1.003512047E1
4.083724730E-1,1.189500093E-1,4.584000111E0,8.869050026E0,9.984350479E0
4.103355450E-1,8.100000024E-2,4.621950150E0,8.907000542E0,1.003512047E1
4.122986360E-1,8.100000024E-2,4.584000111E0,8.869050026E0,9.983970472E0
4.142618890E-1,1.189500093E-1,4.584000111E0,8.830050468E0,9.949723483E0
4.162250950E-1,1.189500093E-1,4.584000111E0,8.869050026E0,9.984350479E0
4.181882860E-1,8.100000024E-2,4.621950150E0,8.907000542E0,1.003512047E1
4.201514820E-1,8.100000024E-2,4.584000111E0,8.869050026E0,9.983970472E0
4.221145240E-1,8.100000024E-2,4.621950150E0,8.869050026E0,1.000145152E1
4.240776220E-1,1.189500093E-1,4.584000111E0,8.869050026E0,9.984350479E0
4.260407390E-1,8.100000024E-2,4.621950150E0,8.869050026E0,1.000145152E1
4.280038510E-1,8.100000024E-2,4.621950150E0,8.907000542E0,1.003512047E1
4.299672820E-1,1.189500093E-1,4.621950150E0,8.869050026E0,1.000183087E1
4.319306200E-1,8.100000024E-2,4.621950150E0,8.869050026E0,1.000145152E1
4.338936670E-1,8.100000024E-2,4.584000111E0,8.869050026E0,9.983970472E0
4.358567900E-1,4.200000316E-2,4.584000111E0,8.869050026E0,9.983730234E0
4.378200380E-1,8.100000024E-2,4.621950150E0,8.869050026E0,1.000145152E1
4.397832490E-1,8.100000024E-2,4.584000111E0,8.907000542E0,1.001769817E1
4.417464390E-1,4.200000316E-2,4.584000111E0,8.830050468E0,9.949101079E0
4.437096360E-1,4.200000316E-2,4.584000111E0,8.869050026E0,9.983730234E0
4.456726730E-1,4.200000316E-2,4.584000111E0,8.869050026E0,9.983730234E0
4.476357710E-1,4.200000316E-2,4.621950150E0,8.830050468E0,9.966643290E0
4.495990230E-1,4.200000316E-2,4.545000076E0,8.869050026E0,9.965883707E0
4.515622300E-1,8.100000024E-2,4.621950150E0,8.869050026E0,1.000145152E1
4.535255100E-1,4.200000316E-2,4.584000111E0,8.830050468E0,9.949101079E0
4.554887690E-1,8.100000024E-2,4.584000111E0,8.791950226E0,9.915543696E0
4.574519820E-1,1.189500093E-1,4.621950150E0,8.830050468E0,9.967264598E0
4.594152180E-1,8.100000024E-2,4.584000111E0,8.830050468E0,9.949342154E0
4.613786270E-1,8.100000024E-2,4.621950150E0,8.830050468E0,9.966883939E0
4.633419850E-1,8.100000024E-2,4.584000111E0,8.791950226E0,9.915543696E0
4.653048350E-1,8.100000024E-2,4.584000111E0,8.830050468E0,9.949342154E0
4.672678340E-1,8.100000024E-2,4.584000111E0,8.830050468E0,9.949342154E0
4.692311220E-1,8.100000024E-2,4.621950150E0,8.830050468E0,9.966883939E0
4.711943120E-1,8.100000024E-2,4.584000111E0,8.791950226E0,9.915543696E0
4.731571900E-1,8.100000024E-2,4.584000111E0,8.830050468E0,9.949342154E0
4.751201600E-1,1.189500093E-1,4.584000111E0,8.830050468E0,9.949723483E0
4.770836150E-1,8.100000024E-2,4.584000111E0,8.791950226E0,9.915543696E0
4.790469280E-1,4.200000316E-2,4.584000111E0,8.754000664E0,9.881667300E0
4.810101690E-1,8.100000024E-2,4.621950150E0,8.791950226E0,9.933145169E0
4.829734150E-1,8.100000024E-2,4.584000111E0,8.791950226E0,9.915543696E0
4.849364180E-1,1.189500093E-1,4.584000111E0,8.830050468E0,9.949723483E0
4.868994920E-1,1.189500093E-1,4.621950150E0,8.830050468E0,9.967264598E0
4.888625680E-1,1.189500093E-1,4.621950150E0,8.754000664E0,9.899954541E0
4.908256440E-1,1.189500093E-1,4.621950150E0,8.830050468E0,9.967264598E0
4.927886970E-1,1.189500093E-1,4.621950150E0,8.754000664E0,9.899954541E0
4.947517740E-1,8.100000024E-2,4.584000111E0,8.791950226E0,9.915543696E0
4.967150310E-1,1.189500093E-1,4.584000111E0,8.791950226E0,9.915926325E0
4.986782350E-1,1.189500093E-1,4.621950150E0,8.754000664E0,9.899954541E0
5.006416510E-1,1.189500093E-1,4.584000111E0,8.830050468E0,9.949723483E0
5.026050050E-1,1.189500093E-1,4.584000111E0,8.791950226E0,9.915926325E0
5.045680350E-1,8.100000024E-2,4.584000111E0,8.791950226E0,9.915543696E0
5.065311600E-1,1.570500135E-1,4.584000111E0,8.791950226E0,9.916456549E0
5.084944080E-1,1.570500135E-1,4.545000076E0,8.791950226E0,9.898488732E0
5.104576200E-1,1.189500093E-1,4.621950150E0,8.791950226E0,9.933527121E0
5.124208990E-1,1.570500135E-1,4.545000076E0,8.791950226E0,9.898488732E0
5.143841580E-1,1.960500032E-1,4.545000076E0,8.830050468E0,9.933038436E0
5.163470250E-1,1.189500093E-1,4.545000076E0,8.791950226E0,9.897957545E0
5.183100070E-1,1.570500135E-1,4.584000111E0,8.791950226E0,9.916456549E0
5.202734140E-1,1.570500135E-1,4.584000111E0,8.754000664E0,9.882825980E0
5.222366970E-1,1.189500093E-1,4.545000076E0,8.754000664E0,9.864263907E0
5.241997850E-1,1.960500032E-1,4.545000076E0,8.830050468E0,9.933038436E0
5.261629300E-1,1.189500093E-1,4.545000076E0,8.791950226E0,9.897957545E0
5.281261590E-1,1.570500135E-1,4.545000076E0,8.754000664E0,9.864796907E0
5.300893740E-1,1.570500135E-1,4.584000111E0,8.830050468E0,9.950251906E0
5.320526080E-1,1.570500135E-1,4.545000076E0,8.830050468E0,9.932345225E0
5.340158360E-1,1.570500135E-1,4.545000076E0,8.830050468E0,9.932345225E0
5.359794280E-1,1.570500135E-1,4.507050037E0,8.791950226E0,9.881121066E0
5.379429130E-1,1.189500093E-1,4.507050037E0,8.791950226E0,9.880588946E0
5.399061200E-1,1.570500135E-1,4.545000076E0,8.830050468E0,9.932345225E0
5.418693950E-1,1.960500032E-1,4.507050037E0,8.791950226E0,9.881817870E0
5.438325730E-1,1.960500032E-1,4.507050037E0,8.869050026E0,9.950476572E0
5.457957800E-1,1.570500135E-1,4.545000076E0,8.869050026E0,9.967032596E0
5.477588800E-1,1.570500135E-1,4.507050037E0,8.869050026E0,9.949784576E0
5.497220110E-1,1.189500093E-1,4.545000076E0,8.830050468E0,9.931815850E0
5.516850790E-1,1.960500032E-1,4.507050037E0,8.830050468E0,9.915731285E0
5.536481650E-1,1.570500135E-1,4.545000076E0,8.869050026E0,9.967032596E0
5.556115550E-1,1.570500135E-1,4.507050037E0,8.907000542E0,9.983627767E0
5.575748550E-1,1.570500135E-1,4.545000076E0,8.869050026E0,9.967032596E0
5.595384350E-1,1.960500032E-1,4.545000076E0,8.907000542E0,1.000150588E1
5.615019320E-1,1.189500093E-1,4.545000076E0,8.907000542E0,1.000029167E1
5.634651290E-1,1.570500135E-1,4.545000076E0,8.869050026E0,9.967032596E0
5.654284060E-1,1.960500032E-1,4.507050037E0,8.869050026E0,9.950476572E0
5.673916740E-1,1.960500032E-1,4.545000076E0,8.869050026E0,9.967723394E0
5.693549450E-1,1.570500135E-1,4.545000076E0,8.830050468E0,9.932345225E0
5.713183030E-1,1.570500135E-1,4.545000076E0,8.869050026E0,9.967032596E0
5.732816350E-1,1.570500135E-1,4.545000076E0,8.791950226E0,9.898488732E0
5.752446350E-1,1.960500032E-1,4.545000076E0,8.830050468E0,9.933038436E0
5.772077570E-1,1.960500032E-1,4.545000076E0,8.791950226E0,9.899184313E0
5.791711850E-1,1.570500135E-1,4.545000076E0,8.754000664E0,9.864796907E0
5.811345240E-1,1.570500135E-1,4.507050037E0,8.754000664E0,9.847369820E0
5.830981420E-1,1.570500135E-1,4.584000111E0,8.754000664E0,9.882825980E0
5.850616780E-1,1.570500135E-1,4.584000111E0,8.791950226E0,9.916456549E0
5.870249870E-1,1.570500135E-1,4.584000111E0,8.791950226E0,9.916456549E0
5.889883670E-1,1.570500135E-1,4.621950150E0,8.754000664E0,9.900485620E0
5.909514370E-1,1.570500135E-1,4.545000076E0,8.791950226E0,9.898488732E0
5.929145980E-1,1.189500093E-1,4.584000111E0,8.754000664E0,9.882293951E0
5.948778400E-1,8.100000024E-2,4.584000111E0,8.715000153E0,9.847377604E0
5.968410580E-1,1.570500135E-1,4.584000111E0,8.791950226E0,9.916456549E0
5.988042770E-1,1.570500135E-1,4.545000076E0,8.869050026E0,9.967032596E0
6.007675050E-1,1.960500032E-1,4.545000076E0,8.791950226E0,9.899184313E0
6.027306920E-1,1.570500135E-1,4.545000076E0,8.830050468E0,9.932345225E0
6.046938920E-1,1.570500135E-1,4.545000076E0,8.791950226E0,9.898488732E0
6.066571720E-1,1.570500135E-1,4.545000076E0,8.791950226E0,9.898488732E0
6.086204280E-1,2.340000123E-1,4.545000076E0,8.869050026E0,9.968542023E0
6.105836300E-1,1.570500135E-1,4.545000076E0,8.830050468E0,9.932345225E0
6.125468340E-1,1.570500135E-1,4.584000111E0,8.830050468E0,9.950251906E0
6.145102480E-1,1.570500135E-1,4.545000076E0,8.869050026E0,9.967032596E0
6.164736010E-1,1.570500135E-1,4.584000111E0,8.869050026E0,9.984877069E0
6.184366770E-1,1.189500093E-1,4.584000111E0,8.830050468E0,9.949723483E0
6.203998340E-1,1.570500135E-1,4.545000076E0,8.869050026E0,9.967032596E0
6.223628570E-1,1.570500135E-1,4.584000111E0,8.907000542E0,1.001860172E1
6.243259160E-1,1.189500093E-1,4.584000111E0,8.830050468E0,9.949723483E0
6.262889950E-1,1.189500093E-1,4.545000076E0,8.869050026E0,9.966505063E0
6.282520680E-1,8.100000024E-2,4.545000076E0,8.869050026E0,9.966124375E0
6.302150110E-1,8.100000024E-2,4.584000111E0,8.907000542E0,1.001769817E1
6.321779930E-1,8.100000024E-2,4.507050037E0,8.907000542E0,9.982721056E0
6.341410540E-1,1.189500093E-1,4.584000111E0,8.791950226E0,9.915926325E0
6.361040820E-1,1.189500093E-1,4.584000111E0,8.869050026E0,9.984350479E0
6.380670330E-1,1.189500093E-1,4.545000076E0,8.869050026E0,9.966505063E0
6.400300070E-1,8.100000024E-2,4.584000111E0,8.907000542E0,1.001769817E1
6.419931010E-1,8.100000024E-2,4.545000076E0,8.830050468E0,9.931433832E0
6.439561590E-1,1.189500093E-1,4.584000111E0,8.907000542E0,1.001807690E1
6.459191860E-1,1.189500093E-1,4.584000111E0,8.907000542E0,1.001807690E1
6.478822290E-1,1.570500135E-1,4.545000076E0,8.869050026E0,9.967032596E0
6.498453550E-1,1.189500093E-1,4.584000111E0,8.830050468E0,9.949723483E0
6.518084570E-1,1.189500093E-1,4.584000111E0,8.830050468E0,9.949723483E0
6.537717100E-1,1.960500032E-1,4.545000076E0,8.869050026E0,9.967723394E0
6.557349190E-1,1.189500093E-1,4.545000076E0,8.830050468E0,9.931815850E0
6.576979090E-1,1.960500032E-1,4.584000111E0,8.869050026E0,9.985566633E0
6.596609780E-1,1.960500032E-1,4.545000076E0,8.869050026E0,9.967723394E0
6.616242350E-1,1.960500032E-1,4.584000111E0,8.869050026E0,9.985566633E0
6.635874370E-1,1.189500093E-1,4.545000076E0,8.907000542E0,1.000029167E1
6.655504940E-1,1.189500093E-1,4.545000076E0,8.830050468E0,9.931815850E0
6.675135930E-1,1.189500093E-1,4.545000076E0,8.869050026E0,9.966505063E0
6.694770620E-1,1.189500093E-1,4.545000076E0,8.869050026E0,9.966505063E0
6.714404280E-1,8.100000024E-2,4.545000076E0,8.830050468E0,9.931433832E0
6.734038160E-1,8.100000024E-2,4.584000111E0,8.830050468E0,9.949342154E0
6.753671980E-1,8.100000024E-2,4.584000111E0,8.791950226E0,9.915543696E0
6.773307630E-1,1.189500093E-1,4.621950150E0,8.791950226E0,9.933527121E0
6.792942750E-1,4.200000316E-2,4.660050392E0,8.830050468E0,9.984369030E0
6.812576180E-1,4.200000316E-2,4.621950150E0,8.830050468E0,9.966643290E0
6.832209930E-1,8.100000024E-2,4.621950150E0,8.830050468E0,9.966883939E0
6.851843780E-1,4.200000316E-2,4.621950150E0,8.830050468E0,9.966643290E0
6.871477600E-1,4.200000316E-2,4.660050392E0,8.791950226E0,9.950689546E0
6.891106500E-1,4.050000105E-3,4.660050392E0,8.791950226E0,9.950601732E0
6.910736850E-1,4.050000105E-3,4.660050392E0,8.830050468E0,9.984281513E0
6.930372990E-1,4.200000316E-2,4.621950150E0,8.830050468E0,9.966643290E0
6.950007500E-1,4.050000105E-3,4.660050392E0,8.791950226E0,9.950601732E0
6.969643040E-1,4.200000316E-2,4.621950150E0,8.830050468E0,9.966643290E0
6.989278270E-1,4.200000316E-2,4.621950150E0,8.754000664E0,9.899329008E0
7.008911440E-1,4.200000316E-2,4.660050392E0,8.754000664E0,9.917175065E0
7.028545210E-1,4.200000316E-2,4.660050392E0,8.791950226E0,9.950689546E0
7.048177480E-1,4.200000316E-2,4.621950150E0,8.830050468E0,9.966643290E0
7.067810360E-1,4.200000316E-2,4.621950150E0,8.791950226E0,9.932903702E0
7.087438510E-1,8.100000024E-2,4.621950150E0,8.791950226E0,9.933145169E0
7.107068050E-1,8.100000024E-2,4.584000111E0,8.754000664E0,9.881910020E0
7.126699020E-1,8.100000024E-2,4.621950150E0,8.791950226E0,9.933145169E0
7.146329570E-1,1.189500093E-1,4.584000111E0,8.754000664E0,9.882293951E0
7.165959230E-1,1.189500093E-1,4.545000076E0,8.754000664E0,9.864263907E0
7.185589010E-1,1.189500093E-1,4.584000111E0,8.754000664E0,9.882293951E0
7.205221290E-1,1.189500093E-1,4.584000111E0,8.791950226E0,9.915926325E0
7.224852840E-1,1.189500093E-1,4.545000076E0,8.791950226E0,9.897957545E0
7.244483940E-1,1.189500093E-1,4.545000076E0,8.830050468E0,9.931815850E0
7.264115170E-1,1.570500135E-1,4.545000076E0,8.715000153E0,9.830204375E0
7.283747150E-1,1.570500135E-1,4.584000111E0,8.791950226E0,9.916456549E0
7.303378940E-1,1.570500135E-1,4.545000076E0,8.830050468E0,9.932345225E0
7.323010000E-1,1.960500032E-1,4.545000076E0,8.791950226E0,9.899184313E0
7.342641270E-1,1.960500032E-1,4.584000111E0,8.830050468E0,9.950943869E0
7.362273300E-1,2.340000123E-1,4.584000111E0,8.869050026E0,9.986383799E0
7.381905100E-1,2.340000123E-1,4.584000111E0,8.869050026E0,9.986383799E0
7.401537640E-1,1.570500135E-1,4.545000076E0,8.830050468E0,9.932345225E0
7.421169860E-1,1.570500135E-1,4.545000076E0,8.830050468E0,9.932345225E0
7.440799040E-1,2.719500065E-1,4.584000111E0,8.830050468E0,9.952728525E0
7.460429110E-1,2.340000123E-1,4.584000111E0,8.830050468E0,9.951763879E0
7.480063150E-1,1.960500032E-1,4.507050037E0,8.830050468E0,9.915731285E0
7.499696020E-1,1.960500032E-1,4.545000076E0,8.754000664E0,9.865494864E0
7.519328690E-1,2.340000123E-1,4.545000076E0,8.830050468E0,9.933859923E0
7.538961420E-1,1.960500032E-1,4.584000111E0,8.791950226E0,9.917150871E0
7.558591850E-1,1.570500135E-1,4.584000111E0,8.791950226E0,9.916456549E0
7.578222960E-1,1.570500135E-1,4.584000111E0,8.830050468E0,9.950251906E0
7.597851420E-1,1.570500135E-1,4.584000111E0,8.830050468E0,9.950251906E0
7.617480650E-1,1.570500135E-1,4.584000111E0,8.791950226E0,9.916456549E0
7.637112210E-1,1.960500032E-1,4.584000111E0,8.830050468E0,9.950943869E0
7.656743030E-1,1.960500032E-1,4.621950150E0,8.830050468E0,9.968482837E0
7.676375590E-1,1.960500032E-1,4.584000111E0,8.830050468E0,9.950943869E0
7.696007640E-1,1.570500135E-1,4.584000111E0,8.869050026E0,9.984877069E0
7.715637750E-1,1.189500093E-1,4.545000076E0,8.830050468E0,9.931815850E0
7.735268430E-1,1.570500135E-1,4.621950150E0,8.869050026E0,1.000235654E1
7.754899110E-1,1.189500093E-1,4.584000111E0,8.869050026E0,9.984350479E0
7.774529860E-1,1.570500135E-1,4.584000111E0,8.869050026E0,9.984877069E0
7.794157040E-1,1.570500135E-1,4.584000111E0,8.944950104E0,1.005235565E1
7.813785270E-1,1.189500093E-1,4.584000111E0,8.869050026E0,9.984350479E0
7.833416910E-1,1.189500093E-1,4.584000111E0,8.907000542E0,1.001807690E1
7.853047550E-1,1.960500032E-1,4.584000111E0,8.907000542E0,1.001928896E1
7.872679600E-1,1.189500093E-1,4.584000111E0,8.944950104E0,1.005183259E1
7.892311300E-1,1.189500093E-1,4.545000076E0,8.944950104E0,1.003410719E1
7.911942370E-1,1.570500135E-1,4.584000111E0,8.907000542E0,1.001860172E1
7.931573630E-1,1.570500135E-1,4.507050037E0,8.944950104E0,1.001749954E1
7.951206100E-1,1.570500135E-1,4.584000111E0,8.944950104E0,1.005235565E1
7.970838220E-1,1.570500135E-1,4.545000076E0,8.944950104E0,1.003463117E1
7.990468320E-1,1.570500135E-1,4.545000076E0,8.907000542E0,1.000081742E1
8.010099010E-1,1.570500135E-1,4.545000076E0,8.907000542E0,1.000081742E1
8.029726640E-1,1.960500032E-1,4.545000076E0,8.944950104E0,1.003531732E1
8.049355170E-1,1.570500135E-1,4.545000076E0,8.907000542E0,1.000081742E1
8.068985860E-1,1.570500135E-1,4.545000076E0,8.907000542E0,1.000081742E1
8.088615920E-1,1.570500135E-1,4.545000076E0,8.907000542E0,1.000081742E1
8.108248560E-1,1.189500093E-1,4.545000076E0,8.907000542E0,1.000029167E1
8.127880480E-1,1.570500135E-1,4.545000076E0,8.869050026E0,9.967032596E0
8.147509260E-1,1.570500135E-1,4.545000076E0,8.830050468E0,9.932345225E0
8.167138960E-1,1.570500135E-1,4.545000076E0,8.907000542E0,1.000081742E1
8.186775310E-1,1.960500032E-1,4.545000076E0,8.907000542E0,1.000150588E1
8.206409710E-1,1.570500135E-1,4.507050037E0,8.907000542E0,9.983627767E0
8.226043390E-1,1.570500135E-1,4.545000076E0,8.869050026E0,9.967032596E0
8.245677340E-1,1.570500135E-1,4.545000076E0,8.907000542E0,1.000081742E1
8.265309810E-1,1.570500135E-1,4.468950272E0,8.907000542E0,9.966485834E0
8.284942720E-1,1.189500093E-1,4.545000076E0,8.830050468E0,9.931815850E0
8.304574480E-1,1.570500135E-1,4.507050037E0,8.869050026E0,9.949784576E0
8.324206570E-1,1.570500135E-1,4.545000076E0,8.830050468E0,9.932345225E0
8.343840850E-1,1.570500135E-1,4.507050037E0,8.830050468E0,9.915036864E0
8.363474380E-1,1.189500093E-1,4.545000076E0,8.830050468E0,9.931815850E0
8.383106490E-1,1.570500135E-1,4.468950272E0,8.830050468E0,9.897776140E0
8.402739010E-1,1.570500135E-1,4.507050037E0,8.869050026E0,9.949784576E0
8.422373080E-1,1.960500032E-1,4.507050037E0,8.830050468E0,9.915731285E0
8.442006690E-1,1.960500032E-1,4.507050037E0,8.791950226E0,9.881817870E0
8.461636980E-1,2.340000123E-1,4.507050037E0,8.791950226E0,9.882643615E0
8.481268250E-1,1.189500093E-1,4.507050037E0,8.791950226E0,9.880588946E0
8.500900720E-1,1.960500032E-1,4.507050037E0,8.830050468E0,9.915731285E0
8.520532840E-1,2.340000123E-1,4.507050037E0,8.830050468E0,9.916554206E0
8.540165180E-1,2.340000123E-1,4.507050037E0,8.830050468E0,9.916554206E0
8.559797460E-1,1.960500032E-1,4.507050037E0,8.754000664E0,9.848069012E0
8.579429820E-1,1.960500032E-1,4.545000076E0,8.754000664E0,9.865494864E0
8.599062120E-1,1.960500032E-1,4.507050037E0,8.754000664E0,9.848069012E0
8.618696230E-1,1.960500032E-1,4.507050037E0,8.791950226E0,9.881817870E0
8.638329810E-1,2.340000123E-1,4.545000076E0,8.830050468E0,9.933859923E0
8.657960110E-1,1.960500032E-1,4.545000076E0,8.791950226E0,9.899184313E0
8.677591370E-1,1.570500135E-1,4.468950272E0,8.754000664E0,9.829990278E0
8.697223800E-1,1.960500032E-1,4.545000076E0,8.791950226E0,9.899184313E0
8.716855920E-1,1.960500032E-1,4.545000076E0,8.754000664E0,9.865494864E0
8.736488710E-1,1.960500032E-1,4.545000076E0,8.791950226E0,9.899184313E0
8.756121300E-1,2.340000123E-1,4.584000111E0,8.791950226E0,9.917973674E0
8.775754920E-1,1.960500032E-1,4.584000111E0,8.754000664E0,9.883522663E0
8.795388230E-1,1.570500135E-1,4.584000111E0,8.677050591E0,9.814730188E0
8.815021010E-1,1.570500135E-1,4.621950150E0,8.715000153E0,9.866018222E0
8.834653820E-1,1.570500135E-1,4.584000111E0,8.754000664E0,9.882825980E0
8.854286040E-1,1.570500135E-1,4.621950150E0,8.754000664E0,9.900485620E0
8.873918440E-1,1.570500135E-1,4.621950150E0,8.677050591E0,9.832512133E0
8.893552070E-1,1.570500135E-1,4.621950150E0,8.715000153E0,9.866018222E0
8.913185340E-1,8.100000024E-2,4.621950150E0,8.754000664E0,9.899571294E0
8.932821490E-1,1.189500093E-1,4.621950150E0,8.715000153E0,9.865485287E0
8.952456830E-1,1.189500093E-1,4.621950150E0,8.754000664E0,9.899954541E0
8.972089980E-1,1.189500093E-1,4.621950150E0,8.754000664E0,9.899954541E0
8.991723770E-1,1.189500093E-1,4.660050392E0,8.715000153E0,9.883392455E0
9.011358060E-1,1.189500093E-1,4.660050392E0,8.754000664E0,9.917799473E0
9.030992210E-1,8.100000024E-2,4.660050392E0,8.754000664E0,9.917416916E0
9.050627510E-1,1.189500093E-1,4.621950150E0,8.715000153E0,9.865485287E0
9.070262360E-1,1.189500093E-1,4.660050392E0,8.754000664E0,9.917799473E0
9.089898290E-1,1.189500093E-1,4.660050392E0,8.791950226E0,9.951311850E0
9.109533900E-1,1.189500093E-1,4.621950150E0,8.754000664E0,9.899954541E0
9.129167450E-1,1.189500093E-1,4.660050392E0,8.830050468E0,9.984989236E0
9.148801610E-1,1.189500093E-1,4.584000111E0,8.754000664E0,9.882293951E0
9.168436400E-1,1.570500135E-1,4.621950150E0,8.830050468E0,9.967792091E0
9.188071250E-1,8.100000024E-2,4.621950150E0,8.830050468E0,9.966883939E0
9.207703140E-1,1.189500093E-1,4.660050392E0,8.791950226E0,9.951311850E0
9.227335890E-1,4.200000316E-2,4.621950150E0,8.830050468E0,9.966643290E0
9.246971720E-1,8.100000024E-2,4.584000111E0,8.869050026E0,9.983970472E0
9.266606640E-1,1.189500093E-1,4.660050392E0,8.830050468E0,9.984989236E0
9.286238820E-1,8.100000024E-2,4.621950150E0,8.830050468E0,9.966883939E0
9.305871900E-1,8.100000024E-2,4.621950150E0,8.791950226E0,9.933145169E0
9.325505420E-1,4.200000316E-2,4.621950150E0,8.830050468E0,9.966643290E0
9.345138810E-1,4.200000316E-2,4.660050392E0,8.791950226E0,9.950689546E0
9.364770940E-1,8.100000024E-2,4.621950150E0,8.869050026E0,1.000145152E1
9.384403440E-1,8.100000024E-2,4.660050392E0,8.830050468E0,9.984609253E0
9.404037390E-1,8.100000024E-2,4.660050392E0,8.791950226E0,9.950930581E0
9.423671000E-1,1.189500093E-1,4.584000111E0,8.830050468E0,9.949723483E0
9.443307140E-1,8.100000024E-2,4.584000111E0,8.830050468E0,9.949342154E0
9.462942540E-1,8.100000024E-2,4.660050392E0,8.869050026E0,1.001911568E1
9.482572530E-1,1.189500093E-1,4.621950150E0,8.830050468E0,9.967264598E0
9.502204100E-1,8.100000024E-2,4.621950150E0,8.830050468E0,9.966883939E0
9.521839920E-1,8.100000024E-2,4.621950150E0,8.830050468E0,9.966883939E0
9.541474320E-1,8.100000024E-2,4.584000111E0,8.869050026E0,9.983970472E0
9.561108530E-1,1.189500093E-1,4.621950150E0,8.791950226E0,9.933527121E0
9.580742800E-1,1.189500093E-1,4.621950150E0,8.830050468E0,9.967264598E0
9.600374320E-1,8.100000024E-2,4.584000111E0,8.791950226E0,9.915543696E0
9.620006650E-1,1.189500093E-1,4.584000111E0,8.791950226E0,9.915926325E0
9.639640840E-1,8.100000024E-2,4.621950150E0,8.791950226E0,9.933145169E0
9.659274420E-1,8.100000024E-2,4.584000111E0,8.791950226E0,9.915543696E0
9.678906520E-1,1.189500093E-1,4.621950150E0,8.830050468E0,9.967264598E0
9.698539060E-1,1.189500093E-1,4.621950150E0,8.791950226E0,9.933527121E0
9.718173570E-1,1.189500093E-1,4.545000076E0,8.791950226E0,9.897957545E0
9.737807500E-1,1.189500093E-1,4.621950150E0,8.791950226E0,9.933527121E0
9.757437880E-1,1.189500093E-1,4.584000111E0,8.754000664E0,9.882293951E0
9.777069200E-1,1.189500093E-1,4.584000111E0,8.715000153E0,9.847762882E0
9.796699870E-1,1.570500135E-1,4.584000111E0,8.754000664E0,9.882825980E0
9.816330740E-1,1.189500093E-1,4.621950150E0,8.754000664E0,9.899954541E0
9.835963280E-1,1.570500135E-1,4.621950150E0,8.791950226E0,9.934056405E0
9.855595330E-1,1.570500135E-1,4.584000111E0,8.754000664E0,9.882825980E0
9.875227240E-1,1.570500135E-1,4.545000076E0,8.830050468E0,9.932345225E0
9.894859200E-1,1.570500135E-1,4.584000111E0,8.791950226E0,9.916456549E0
9.914492000E-1,1.189500093E-1,4.545000076E0,8.791950226E0,9.897957545E0
9.934124560E-1,1.960500032E-1,4.545000076E0,8.791950226E0,9.899184313E0
9.953756840E-1,1.189500093E-1,4.584000111E0,8.791950226E0,9.915926325E0
9.973389200E-1,1.189500093E-1,4.545000076E0,8.830050468E0,9.931815850E0
9.993022740E-1,1.570500135E-1,4.545000076E0,8.754000664E0,9.864796907E0
1.001265600E0,1.570500135E-1,4.507050037E0,8.830050468E0,9.915036864E0
1.003228500E0,1.570500135E-1,4.545000076E0,8.830050468E0,9.932345225E0
1.005191525E0,1.570500135E-1,4.507050037E0,8.830050468E0,9.915036864E0
1.007154926E0,1.570500135E-1,4.545000076E0,8.791950226E0,9.898488732E0
1.009118216E0,1.960500032E-1,4.507050037E0,8.830050468E0,9.915731285E0
1.011081492E0,1.189500093E-1,4.545000076E0,8.791950226E0,9.897957545E0
1.013044766E0,1.570500135E-1,4.545000076E0,8.869050026E0,9.967032596E0
1.015007944E0,1.960500032E-1,4.507050037E0,8.830050468E0,9.915731285E0
1.016971151E0,1.960500032E-1,4.507050037E0,8.830050468E0,9.915731285E0
1.018934384E0,1.960500032E-1,4.545000076E0,8.869050026E0,9.967723394E0
1.020897610E0,1.960500032E-1,4.545000076E0,8.869050026E0,9.967723394E0
1.022861053E0,1.570500135E-1,4.545000076E0,8.869050026E0,9.967032596E0
1.024824442E0,1.570500135E-1,4.545000076E0,8.830050468E0,9.932345225E0
1.026787782E0,1.570500135E-1,4.545000076E0,8.869050026E0,9.967032596E0
1.028751137E0,2.340000123E-1,4.545000076E0,8.869050026E0,9.968542023E0
1.030714391E0,1.960500032E-1,4.507050037E0,8.830050468E0,9.915731285E0
1.032677675E0,2.340000123E-1,4.545000076E0,8.869050026E0,9.968542023E0
1.034641045E0,1.960500032E-1,4.545000076E0,8.869050026E0,9.967723394E0
1.036604379E0,2.340000123E-1,4.545000076E0,8.830050468E0,9.933859923E0
1.038567593E0,1.960500032E-1,4.545000076E0,8.830050468E0,9.933038436E0
1.040530843E0,1.960500032E-1,4.545000076E0,8.830050468E0,9.933038436E0
1.042493935E0,1.960500032E-1,4.545000076E0,8.869050026E0,9.967723394E0
1.044457074E0,1.960500032E-1,4.584000111E0,8.830050468E0,9.950943869E0
1.046420150E0,1.189500093E-1,4.545000076E0,8.791950226E0,9.897957545E0
1.048383238E0,1.570500135E-1,4.545000076E0,8.830050468E0,9.932345225E0
1.050346087E0,1.960500032E-1,4.545000076E0,8.791950226E0,9.899184313E0
1.052309007E0,1.189500093E-1,4.584000111E0,8.830050468E0,9.949723483E0
1.054272335E0,1.960500032E-1,4.584000111E0,8.869050026E0,9.985566633E0
1.056235543E0,1.960500032E-1,4.584000111E0,8.830050468E0,9.950943869E0
1.058198958E0,1.570500135E-1,4.545000076E0,8.791950226E0,9.898488732E0
1.060162313E0,1.960500032E-1,4.584000111E0,8.830050468E0,9.950943869E0
1.062125659E0,1.960500032E-1,4.584000111E0,8.869050026E0,9.985566633E0
1.064089007E0,1.960500032E-1,4.584000111E0,8.830050468E0,9.950943869E0
1.066052262E0,1.570500135E-1,4.545000076E0,8.791950226E0,9.898488732E0
1.068015545E0,1.570500135E-1,4.584000111E0,8.830050468E0,9.950251906E0
1.069978591E0,1.570500135E-1,4.584000111E0,8.869050026E0,9.984877069E0
1.071941703E0,1.960500032E-1,4.584000111E0,8.869050026E0,9.985566633E0
1.073905089E0,1.570500135E-1,4.584000111E0,8.869050026E0,9.984877069E0
1.075868394E0,1.570500135E-1,4.584000111E0,8.907000542E0,1.001860172E1
1.077831658E0,1.570500135E-1,4.584000111E0,8.907000542E0,1.001860172E1
1.079794934E0,1.570500135E-1,4.584000111E0,8.791950226E0,9.916456549E0
1.081758325E0,1.189500093E-1,4.584000111E0,8.869050026E0,9.984350479E0
1.083721658E0,8.100000024E-2,4.584000111E0,8.791950226E0,9.915543696E0
1.085684918E0,1.189500093E-1,4.584000111E0,8.830050468E0,9.949723483E0
1.087648199E0,1.189500093E-1,4.584000111E0,8.907000542E0,1.001807690E1
1.089611555E0,1.189500093E-1,4.621950150E0,8.830050468E0,9.967264598E0
1.091574889E0,1.189500093E-1,4.584000111E0,8.907000542E0,1.001807690E1
1.093538120E0,8.100000024E-2,4.584000111E0,8.907000542E0,1.001769817E1
1.095501401E0,4.200000316E-2,4.584000111E0,8.869050026E0,9.983730234E0
1.097464623E0,8.100000024E-2,4.584000111E0,8.907000542E0,1.001769817E1
1.099427862E0,8.100000024E-2,4.584000111E0,8.944950104E0,1.005145514E1
1.101390911E0,4.200000316E-2,4.584000111E0,8.907000542E0,1.001745874E1
1.103354016E0,8.100000024E-2,4.584000111E0,8.907000542E0,1.001769817E1
1.105317436E0,4.200000316E-2,4.621950150E0,8.907000542E0,1.003488146E1
1.107280740E0,8.100000024E-2,4.584000111E0,8.907000542E0,1.001769817E1
1.109243960E0,4.200000316E-2,4.621950150E0,8.869050026E0,1.000121170E1
1.111207204E0,4.200000316E-2,4.621950150E0,8.907000542E0,1.003488146E1
1.113170476E0,4.200000316E-2,4.584000111E0,8.907000542E0,1.001745874E1
1.115133740E0,8.100000024E-2,4.584000111E0,8.944950104E0,1.005145514E1
1.117096606E0,4.200000316E-2,4.584000111E0,8.907000542E0,1.001745874E1
1.119059588E0,4.050000105E-3,4.507050037E0,8.907000542E0,9.982393255E0
1.121022680E0,4.200000316E-2,4.584000111E0,8.944950104E0,1.005121651E1
1.122985740E0,8.100000024E-2,4.584000111E0,8.907000542E0,1.001769817E1
1.124948776E0,8.100000024E-2,4.584000111E0,8.907000542E0,1.001769817E1
1.126911819E0,8.100000024E-2,4.584000111E0,8.869050026E0,9.983970472E0
1.128874761E0,4.200000316E-2,4.584000111E0,8.830050468E0,9.949101079E0
1.130837737E0,4.050000105E-3,4.584000111E0,8.830050468E0,9.949013252E0
1.132801011E0,8.100000024E-2,4.584000111E0,8.830050468E0,9.949342154E0
1.134764197E0,8.100000024E-2,4.584000111E0,8.791950226E0,9.915543696E0
1.136727616E0,8.100000024E-2,4.584000111E0,8.754000664E0,9.881910020E0
1.138690966E0,4.200000316E-2,4.584000111E0,8.791950226E0,9.915301800E0
1.140654163E0,8.100000024E-2,4.584000111E0,8.754000664E0,9.881910020E0
1.142617415E0,8.100000024E-2,4.621950150E0,8.791950226E0,9.933145169E0
1.144580776E0,4.200000316E-2,4.621950150E0,8.754000664E0,9.899329008E0
1.146544105E0,4.200000316E-2,4.621950150E0,8.754000664E0,9.899329008E0
1.148507140E0,4.050000105E-3,4.621950150E0,8.715000153E0,9.864768991E0
1.150470261E0,4.200000316E-2,4.584000111E0,8.715000153E0,9.847134034E0
1.152433731E0,4.200000316E-2,4.621950150E0,8.715000153E0,9.864857568E0
1.154397101E0,1.189500093E-1,4.621950150E0,8.715000153E0,9.865485287E0
1.156359723E0,4.200000316E-2,4.621950150E0,8.677050591E0,9.831347524E0
1.158322565E0,4.200000316E-2,4.621950150E0,8.754000664E0,9.899329008E0
1.160285546E0,4.200000316E-2,4.621950150E0,8.677050591E0,9.831347524E0
1.162248486E0,8.100000024E-2,4.584000111E0,8.677050591E0,9.813807873E0
1.164211735E0,8.100000024E-2,4.621950150E0,8.715000153E0,9.865100701E0
1.166174884E0,8.100000024E-2,4.621950150E0,8.677050591E0,9.831591485E0
1.168138174E0,4.200000316E-2,4.584000111E0,8.638950348E0,9.779891826E0
1.170101423E0,8.100000024E-2,4.584000111E0,8.677050591E0,9.813807873E0
1.172064472E0,1.189500093E-1,4.584000111E0,8.715000153E0,9.847762882E0
1.174027579E0,8.100000024E-2,4.621950150E0,8.754000664E0,9.899571294E0
1.175990750E0,8.100000024E-2,4.584000111E0,8.754000664E0,9.881910020E0
1.177953927E0,1.189500093E-1,4.621950150E0,8.715000153E0,9.865485287E0
1.179917212E0,8.100000024E-2,4.621950150E0,8.715000153E0,9.865100701E0
1.181880466E0,1.189500093E-1,4.621950150E0,8.754000664E0,9.899954541E0
1.183843873E0,8.100000024E-2,4.621950150E0,8.754000664E0,9.899571294E0
1.185807235E0,8.100000024E-2,4.621950150E0,8.791950226E0,9.933145169E0
1.187770464E0,1.189500093E-1,4.584000111E0,8.754000664E0,9.882293951E0
1.189733718E0,1.189500093E-1,4.584000111E0,8.791950226E0,9.915926325E0
1.191697259E0,1.189500093E-1,4.621950150E0,8.754000664E0,9.899954541E0
1.193660716E0,1.189500093E-1,4.584000111E0,8.791950226E0,9.915926325E0
1.195624090E0,1.189500093E-1,4.545000076E0,8.791950226E0,9.897957545E0
1.197587488E0,1.189500093E-1,4.584000111E0,8.754000664E0,9.882293951E0
1.199550680E0,1.189500093E-1,4.545000076E0,8.791950226E0,9.897957545E0
1.201513939E0,1.189500093E-1,4.584000111E0,8.791950226E0,9.915926325E0
1.203477524E0,1.570500135E-1,4.584000111E0,8.830050468E0,9.950251906E0
1.205441014E0,1.570500135E-1,4.584000111E0,8.791950226E0,9.916456549E0
1.207404247E0,1.189500093E-1,4.584000111E0,8.754000664E0,9.882293951E0
1.209367555E0,1.960500032E-1,4.584000111E0,8.830050468E0,9.950943869E0
1.211331161E0,1.570500135E-1,4.545000076E0,8.830050468E0,9.932345225E0
1.213294659E0,1.570500135E-1,4.584000111E0,8.869050026E0,9.984877069E0
1.215257800E0,1.570500135E-1,4.584000111E0,8.830050468E0,9.950251906E0
1.217221045E0,1.960500032E-1,4.584000111E0,8.869050026E0,9.985566633E0
1.219184318E0,1.960500032E-1,4.545000076E0,8.869050026E0,9.967723394E0
1.221147582E0,1.960500032E-1,4.584000111E0,8.869050026E0,9.985566633E0
1.223110753E0,1.960500032E-1,4.584000111E0,8.869050026E0,9.985566633E0
1.225073958E0,1.960500032E-1,4.545000076E0,8.869050026E0,9.967723394E0
1.227037192E0,1.960500032E-1,4.545000076E0,8.830050468E0,9.933038436E0
1.229000418E0,1.960500032E-1,4.545000076E0,8.907000542E0,1.000150588E1
1.230963649E0,1.960500032E-1,4.507050037E0,8.869050026E0,9.950476572E0
1.232926879E0,1.960500032E-1,4.545000076E0,8.907000542E0,1.000150588E1
1.234890095E0,2.340000123E-1,4.545000076E0,8.830050468E0,9.933859923E0
1.236853326E0,1.960500032E-1,4.584000111E0,8.869050026E0,9.985566633E0
1.238816423E0,1.960500032E-1,4.545000076E0,8.907000542E0,1.000150588E1
1.240779559E0,1.960500032E-1,4.545000076E0,8.907000542E0,1.000150588E1
1.242742760E0,1.960500032E-1,4.507050037E0,8.869050026E0,9.950476572E0
1.244705941E0,1.960500032E-1,4.507050037E0,8.869050026E0,9.950476572E0
1.246669406E0,2.340000123E-1,4.545000076E0,8.830050468E0,9.933859923E0
1.248632788E0,1.960500032E-1,4.584000111E0,8.830050468E0,9.950943869E0
1.250595813E0,2.340000123E-1,4.545000076E0,8.907000542E0,1.000232175E1
1.252558943E0,1.960500032E-1,4.584000111E0,8.830050468E0,9.950943869E0
1.254522145E0,1.960500032E-1,4.545000076E0,8.830050468E0,9.933038436E0
1.256485326E0,1.960500032E-1,4.545000076E0,8.869050026E0,9.967723394E0
1.258448571E0,1.960500032E-1,4.545000076E0,8.869050026E0,9.967723394E0
1.260411793E0,1.960500032E-1,4.507050037E0,8.944950104E0,1.001818686E1
1.262374846E0,1.960500032E-1,4.545000076E0,8.869050026E0,9.967723394E0
1.264337948E0,1.960500032E-1,4.545000076E0,8.869050026E0,9.967723394E0
1.266301065E0,1.960500032E-1,4.545000076E0,8.907000542E0,1.000150588E1
1.268264177E0,1.960500032E-1,4.545000076E0,8.869050026E0,9.967723394E0
1.270227434E0,1.960500032E-1,4.545000076E0,8.907000542E0,1.000150588E1
1.272190644E0,1.960500032E-1,4.545000076E0,8.907000542E0,1.000150588E1
1.274153878E0,1.570500135E-1,4.545000076E0,8.907000542E0,1.000081742E1
1.276117105E0,2.340000123E-1,4.545000076E0,8.907000542E0,1.000232175E1
1.278080157E0,1.570500135E-1,4.507050037E0,8.869050026E0,9.949784576E0
1.280043261E0,1.960500032E-1,4.507050037E0,8.869050026E0,9.950476572E0
1.282006343E0,1.960500032E-1,4.545000076E0,8.869050026E0,9.967723394E0
1.283969425E0,2.340000123E-1,4.545000076E0,8.907000542E0,1.000232175E1
1.285932996E0,1.960500032E-1,4.545000076E0,8.907000542E0,1.000150588E1
1.287896423E0,2.340000123E-1,4.584000111E0,8.944950104E0,1.005385227E1
1.289859846E0,1.570500135E-1,4.507050037E0,8.907000542E0,9.983627767E0
1.291823271E0,1.960500032E-1,4.507050037E0,8.869050026E0,9.950476572E0
1.293786259E0,1.960500032E-1,4.545000076E0,8.907000542E0,1.000150588E1
1.295749396E0,1.570500135E-1,4.507050037E0,8.869050026E0,9.949784576E0
1.297712642E0,1.960500032E-1,4.545000076E0,8.869050026E0,9.967723394E0
1.299675856E0,2.340000123E-1,4.545000076E0,8.907000542E0,1.000232175E1
1.301639089E0,1.570500135E-1,4.507050037E0,8.830050468E0,9.915036864E0
1.303602317E0,1.960500032E-1,4.545000076E0,8.869050026E0,9.967723394E0
1.305565923E0,1.570500135E-1,4.584000111E0,8.869050026E0,9.984877069E0
1.307529408E0,1.570500135E-1,4.545000076E0,8.830050468E0,9.932345225E0
1.309492776E0,1.570500135E-1,4.584000111E0,8.869050026E0,9.984877069E0
1.311456179E0,1.960500032E-1,4.584000111E0,8.830050468E0,9.950943869E0
1.313419516E0,1.570500135E-1,4.584000111E0,8.791950226E0,9.916456549E0
1.315382872E0,1.960500032E-1,4.584000111E0,8.791950226E0,9.917150871E0
1.317346280E0,1.570500135E-1,4.507050037E0,8.791950226E0,9.881121066E0
1.319309659E0,1.570500135E-1,4.584000111E0,8.791950226E0,9.916456549E0
1.321272730E0,1.189500093E-1,4.584000111E0,8.791950226E0,9.915926325E0
1.323235892E0,1.570500135E-1,4.584000111E0,8.754000664E0,9.882825980E0
1.325199314E0,1.570500135E-1,4.545000076E0,8.791950226E0,9.898488732E0
1.327162659E0,1.189500093E-1,4.621950150E0,8.791950226E0,9.933527121E0
1.329125876E0,1.570500135E-1,4.584000111E0,8.754000664E0,9.882825980E0
1.331089127E0,1.570500135E-1,4.584000111E0,8.791950226E0,9.916456549E0
1.333052849E0,1.570500135E-1,4.621950150E0,8.791950226E0,9.934056405E0
1.335016433E0,1.570500135E-1,4.621950150E0,8.791950226E0,9.934056405E0
1.336979650E0,1.570500135E-1,4.621950150E0,8.791950226E0,9.934056405E0
1.338942974E0,1.189500093E-1,4.621950150E0,8.754000664E0,9.899954541E0
1.340906198E0,1.570500135E-1,4.584000111E0,8.754000664E0,9.882825980E0
1.342869445E0,1.570500135E-1,4.621950150E0,8.754000664E0,9.900485620E0
1.344832312E0,1.189500093E-1,4.621950150E0,8.715000153E0,9.865485287E0
1.346795291E0,1.570500135E-1,4.621950150E0,8.791950226E0,9.934056405E0
1.348758924E0,1.570500135E-1,4.660050392E0,8.754000664E0,9.918329597E0
1.350722366E0,8.100000024E-2,4.621950150E0,8.754000664E0,9.899571294E0
1.352685557E0,8.100000024E-2,4.621950150E0,8.791950226E0,9.933145169E0
1.354648825E0,8.100000024E-2,4.660050392E0,8.754000664E0,9.917416916E0
1.356612364E0,1.189500093E-1,4.660050392E0,8.754000664E0,9.917799473E0
1.358575823E0,1.570500135E-1,4.621950150E0,8.754000664E0,9.900485620E0
1.360539375E0,1.570500135E-1,4.660050392E0,8.754000664E0,9.918329597E0
1.362502900E0,1.189500093E-1,4.660050392E0,8.754000664E0,9.917799473E0
1.364466340E0,8.100000024E-2,4.621950150E0,8.754000664E0,9.899571294E0
1.366429781E0,8.100000024E-2,4.699050426E0,8.754000664E0,9.935802108E0
1.368393470E0,1.189500093E-1,4.660050392E0,8.830050468E0,9.984989236E0
1.370357087E0,8.100000024E-2,4.660050392E0,8.754000664E0,9.917416916E0
1.372320433E0,4.200000316E-2,4.660050392E0,8.791950226E0,9.950689546E0
1.374283858E0,4.200000316E-2,4.584000111E0,8.791950226E0,9.915301800E0
1.376247257E0,8.100000024E-2,4.584000111E0,8.791950226E0,9.915543696E0
1.378210680E0,8.100000024E-2,4.621950150E0,8.830050468E0,9.966883939E0
1.380174013E0,4.200000316E-2,4.621950150E0,8.791950226E0,9.932903702E0
1.382137372E0,4.200000316E-2,4.621950150E0,8.830050468E0,9.966643290E0
1.384100805E0,8.100000024E-2,4.584000111E0,8.791950226E0,9.915543696E0
1.386064216E0,8.100000024E-2,4.621950150E0,8.791950226E0,9.933145169E0
1.388027608E0,1.189500093E-1,4.584000111E0,8.791950226E0,9.915926325E0
1.389990998E0,4.200000316E-2,4.584000111E0,8.830050468E0,9.949101079E0
1.391954516E0,4.200000316E-2,4.621950150E0,8.830050468E0,9.966643290E0
1.393917996E0,4.200000316E-2,4.584000111E0,8.830050468E0,9.949101079E0
1.395881005E0,8.100000024E-2,4.545000076E0,8.830050468E0,9.931433832E0
1.397844152E0,8.100000024E-2,4.584000111E0,8.791950226E0,9.915543696E0
1.399807621E0,1.570500135E-1,4.621950150E0,8.791950226E0,9.934056405E0
1.401770996E0,1.189500093E-1,4.584000111E0,8.830050468E0,9.949723483E0
1.403734338E0,1.189500093E-1,4.584000111E0,8.830050468E0,9.949723483E0
1.405697690E0,8.100000024E-2,4.584000111E0,8.791950226E0,9.915543696E0
1.407660900E0,1.570500135E-1,4.584000111E0,8.791950226E0,9.916456549E0
1.409624152E0,1.570500135E-1,4.545000076E0,8.830050468E0,9.932345225E0
1.411587369E0,8.100000024E-2,4.584000111E0,8.830050468E0,9.949342154E0
1.413550603E0,1.189500093E-1,4.621950150E0,8.791950226E0,9.933527121E0
1.415514238E0,1.570500135E-1,4.584000111E0,8.830050468E0,9.950251906E0
1.417477755E0,1.189500093E-1,4.545000076E0,8.791950226E0,9.897957545E0
1.419441253E0,1.570500135E-1,4.584000111E0,8.830050468E0,9.950251906E0
1.421404757E0,1.189500093E-1,4.584000111E0,8.791950226E0,9.915926325E0
1.423368369E0,1.570500135E-1,4.584000111E0,8.754000664E0,9.882825980E0
1.425331933E0,1.189500093E-1,4.545000076E0,8.754000664E0,9.864263907E0
1.427295423E0,1.189500093E-1,4.621950150E0,8.791950226E0,9.933527121E0
1.429258935E0,1.570500135E-1,4.621950150E0,8.791950226E0,9.934056405E0
1.431222477E0,1.570500135E-1,4.584000111E0,8.754000664E0,9.882825980E0
1.433186010E0,1.570500135E-1,4.660050392E0,8.715000153E0,9.883924424E0
1.435149250E0,1.189500093E-1,4.584000111E0,8.754000664E0,9.882293951E0
1.437112565E0,1.570500135E-1,4.584000111E0,8.754000664E0,9.882825980E0
1.439075961E0,1.570500135E-1,4.621950150E0,8.791950226E0,9.934056405E0
1.441039333E0,1.570500135E-1,4.621950150E0,8.754000664E0,9.900485620E0
1.443002540E0,1.189500093E-1,4.621950150E0,8.791950226E0,9.933527121E0
1.444965796E0,1.570500135E-1,4.584000111E0,8.754000664E0,9.882825980E0
1.446929160E0,1.189500093E-1,4.621950150E0,8.830050468E0,9.967264598E0
1.448892490E0,1.960500032E-1,4.584000111E0,8.754000664E0,9.883522663E0
1.450855705E0,1.189500093E-1,4.621950150E0,8.791950226E0,9.933527121E0
1.452818954E0,1.570500135E-1,4.584000111E0,8.754000664E0,9.882825980E0
1.454782047E0,1.570500135E-1,4.621950150E0,8.791950226E0,9.934056405E0
1.456745185E0,1.570500135E-1,4.584000111E0,8.791950226E0,9.916456549E0
1.458708562E0,1.189500093E-1,4.584000111E0,8.791950226E0,9.915926325E0
1.460671871E0,1.570500135E-1,4.584000111E0,8.791950226E0,9.916456549E0
1.462634774E0,1.570500135E-1,4.621950150E0,8.791950226E0,9.934056405E0
1.464597796E0,1.189500093E-1,4.584000111E0,8.754000664E0,9.882293951E0
1.466561062E0,1.570500135E-1,4.584000111E0,8.791950226E0,9.916456549E0
1.468524256E0,1.189500093E-1,4.621950150E0,8.754000664E0,9.899954541E0
1.470487854E0,8.100000024E-2,4.584000111E0,8.754000664E0,9.881910020E0
1.472451333E0,1.189500093E-1,4.621950150E0,8.791950226E0,9.933527121E0
1.474414657E0,1.570500135E-1,4.584000111E0,8.754000664E0,9.882825980E0
1.476378027E0,1.570500135E-1,4.621950150E0,8.791950226E0,9.934056405E0
1.478341413E0,1.189500093E-1,4.621950150E0,8.791950226E0,9.933527121E0
1.480304794E0,1.189500093E-1,4.584000111E0,8.754000664E0,9.882293951E0
1.482268243E0,1.189500093E-1,4.545000076E0,8.791950226E0,9.897957545E0
1.484231659E0,1.189500093E-1,4.584000111E0,8.869050026E0,9.984350479E0
1.486194995E0,1.189500093E-1,4.621950150E0,8.907000542E0,1.003549854E1
1.488158354E0,1.570500135E-1,4.584000111E0,8.830050468E0,9.950251906E0
1.490121562E0,1.189500093E-1,4.584000111E0,8.830050468E0,9.949723483E0
1.492084815E0,1.570500135E-1,4.545000076E0,8.869050026E0,9.967032596E0
1.494048022E0,1.570500135E-1,4.545000076E0,8.907000542E0,1.000081742E1
1.496011257E0,1.570500135E-1,4.584000111E0,8.830050468E0,9.950251906E0
1.497974352E0,1.570500135E-1,4.545000076E0,8.830050468E0,9.932345225E0
1.499937488E0,1.960500032E-1,4.584000111E0,8.830050468E0,9.950943869E0
1.501900734E0,1.570500135E-1,4.545000076E0,8.869050026E0,9.967032596E0
1.503863947E0,1.570500135E-1,4.584000111E0,8.869050026E0,9.984877069E0
1.505827486E0,1.570500135E-1,4.584000111E0,8.830050468E0,9.950251906E0
1.507790937E0,1.189500093E-1,4.507050037E0,8.869050026E0,9.949256128E0
1.509754176E0,1.570500135E-1,4.584000111E0,8.869050026E0,9.984877069E0
1.511717478E0,1.189500093E-1,4.584000111E0,8.869050026E0,9.984350479E0
1.513680516E0,1.189500093E-1,4.545000076E0,8.830050468E0,9.931815850E0
1.515643631E0,1.189500093E-1,4.584000111E0,8.869050026E0,9.984350479E0
1.517606841E0,1.570500135E-1,4.545000076E0,8.869050026E0,9.967032596E0
1.519570019E0,1.570500135E-1,4.584000111E0,8.830050468E0,9.950251906E0
1.521533125E0,1.189500093E-1,4.621950150E0,8.907000542E0,1.003549854E1
1.523496252E0,1.570500135E-1,4.584000111E0,8.907000542E0,1.001860172E1
1.525459680E0,1.960500032E-1,4.584000111E0,8.830050468E0,9.950943869E0
1.527423019E0,1.189500093E-1,4.545000076E0,8.869050026E0,9.966505063E0
1.529386346E0,1.570500135E-1,4.545000076E0,8.907000542E0,1.000081742E1
1.531349691E0,1.570500135E-1,4.507050037E0,8.869050026E0,9.949784576E0
1.533312588E0,1.189500093E-1,4.545000076E0,8.907000542E0,1.000029167E1
1.535275616E0,1.570500135E-1,4.545000076E0,8.907000542E0,1.000081742E1
1.537239016E0,1.570500135E-1,4.545000076E0,8.907000542E0,1.000081742E1
1.539202307E0,1.960500032E-1,4.545000076E0,8.907000542E0,1.000150588E1
1.541165909E0,1.960500032E-1,4.545000076E0,8.907000542E0,1.000150588E1
1.543129437E0,1.570500135E-1,4.545000076E0,8.869050026E0,9.967032596E0
1.545092618E0,1.960500032E-1,4.545000076E0,8.944950104E0,1.003531732E1
1.547055900E0,1.960500032E-1,4.507050037E0,8.907000542E0,9.984317417E0
1.549019481E0,1.570500135E-1,4.545000076E0,8.907000542E0,1.000081742E1
1.550982975E0,1.570500135E-1,4.545000076E0,8.907000542E0,1.000081742E1
1.552946712E0,1.570500135E-1,4.507050037E0,8.944950104E0,1.001749954E1
1.554910370E0,1.960500032E-1,4.545000076E0,8.944950104E0,1.003531732E1
1.556873709E0,1.960500032E-1,4.545000076E0,8.907000542E0,1.000150588E1
1.558837141E0,1.570500135E-1,4.545000076E0,8.907000542E0,1.000081742E1
1.560800652E0,1.189500093E-1,4.584000111E0,8.907000542E0,1.001807690E1
1.562764139E0,1.570500135E-1,4.584000111E0,8.907000542E0,1.001860172E1
1.564727356E0,1.189500093E-1,4.584000111E0,8.907000542E0,1.001807690E1
1.566690632E0,1.189500093E-1,4.584000111E0,8.907000542E0,1.001807690E1
1.568654079E0,8.100000024E-2,4.584000111E0,8.869050026E0,9.983970472E0
1.570617476E0,1.189500093E-1,4.621950150E0,8.869050026E0,1.000183087E1
1.572581039E0,8.100000024E-2,4.660050392E0,8.869050026E0,1.001911568E1
1.574544553E0,4.200000316E-2,4.621950150E0,8.869050026E0,1.000121170E1
1.576508061E0,8.100000024E-2,4.584000111E0,8.791950226E0,9.915543696E0
1.578471564E0,8.100000024E-2,4.621950150E0,8.791950226E0,9.933145169E0
1.580434973E0,1.189500093E-1,4.660050392E0,8.830050468E0,9.984989236E0
1.582398410E0,8.100000024E-2,4.660050392E0,8.791950226E0,9.950930581E0
1.584361785E0,8.100000024E-2,4.621950150E0,8.791950226E0,9.933145169E0
1.586325179E0,8.100000024E-2,4.584000111E0,8.715000153E0,9.847377604E0
1.588288498E0,8.100000024E-2,4.621950150E0,8.754000664E0,9.899571294E0
1.590251852E0,8.100000024E-2,4.584000111E0,8.754000664E0,9.881910020E0
1.592215107E0,1.189500093E-1,4.621950150E0,8.715000153E0,9.865485287E0
1.594178391E0,1.570500135E-1,4.621950150E0,8.715000153E0,9.866018222E0
1.596141747E0,1.189500093E-1,4.621950150E0,8.715000153E0,9.865485287E0
1.598105081E0,1.960500032E-1,4.584000111E0,8.677050591E0,9.815431706E0
1.600068700E0,1.570500135E-1,4.584000111E0,8.638950348E0,9.781062562E0
1.602032235E0,1.960500032E-1,4.584000111E0,8.677050591E0,9.815431706E0
1.603995774E0,1.960500032E-1,4.584000111E0,8.638950348E0,9.781766493E0
1.605959312E0,1.570500135E-1,4.621950150E0,8.677050591E0,9.832512133E0
1.607922986E0,1.960500032E-1,4.584000111E0,8.638950348E0,9.781766493E0
1.609886620E0,1.189500093E-1,4.545000076E0,8.677050591E0,9.796039085E0
1.611849979E0,1.570500135E-1,4.584000111E0,8.677050591E0,9.814730188E0
1.613813439E0,1.960500032E-1,4.584000111E0,8.638950348E0,9.781766493E0
1.615776810E0,1.960500032E-1,4.584000111E0,8.638950348E0,9.781766493E0
1.617740208E0,1.960500032E-1,4.584000111E0,8.677050591E0,9.815431706E0
1.619704130E0,1.960500032E-1,4.584000111E0,8.677050591E0,9.815431706E0
1.621667898E0,1.570500135E-1,4.584000111E0,8.638950348E0,9.781062562E0
1.623631343E0,1.960500032E-1,4.584000111E0,8.715000153E0,9.848995902E0
1.625594890E0,1.960500032E-1,4.621950150E0,8.677050591E0,9.833212381E0
1.627558112E0,1.960500032E-1,4.584000111E0,8.715000153E0,9.848995902E0
1.629521429E0,1.570500135E-1,4.621950150E0,8.677050591E0,9.832512133E0
1.631484959E0,1.960500032E-1,4.584000111E0,8.715000153E0,9.848995902E0
1.633448427E0,1.960500032E-1,4.621950150E0,8.754000664E0,9.901181061E0
1.635411853E0,1.960500032E-1,4.621950150E0,8.715000153E0,9.866716092E0
1.637375285E0,1.960500032E-1,4.584000111E0,8.715000153E0,9.848995902E0
1.639338976E0,1.960500032E-1,4.621950150E0,8.754000664E0,9.901181061E0
1.641302591E0,1.960500032E-1,4.621950150E0,8.754000664E0,9.901181061E0
1.643266117E0,1.570500135E-1,4.621950150E0,8.791950226E0,9.934056405E0
1.645229670E0,1.960500032E-1,4.584000111E0,8.754000664E0,9.883522663E0
1.647192840E0,1.570500135E-1,4.584000111E0,8.830050468E0,9.950251906E0
1.649156126E0,1.960500032E-1,4.584000111E0,8.791950226E0,9.917150871E0
1.651119752E0,1.570500135E-1,4.621950150E0,8.754000664E0,9.900485620E0
1.653083278E0,1.189500093E-1,4.621950150E0,8.830050468E0,9.967264598E0
1.655046414E0,1.570500135E-1,4.545000076E0,8.791950226E0,9.898488732E0
1.657009665E0,1.570500135E-1,4.621950150E0,8.869050026E0,1.000235654E1
1.658972882E0,1.570500135E-1,4.621950150E0,8.830050468E0,9.967792091E0
1.660936116E0,1.189500093E-1,4.621950150E0,8.869050026E0,1.000183087E1
1.662899346E0,1.189500093E-1,4.621950150E0,8.907000542E0,1.003549854E1
1.664862578E0,1.570500135E-1,4.621950150E0,8.907000542E0,1.003602245E1
1.666825852E0,1.189500093E-1,4.621950150E0,8.907000542E0,1.003549854E1
1.668789114E0,1.570500135E-1,4.545000076E0,8.907000542E0,1.000081742E1
1.670752475E0,1.189500093E-1,4.621950150E0,8.944950104E0,1.006919583E1
1.672715807E0,1.189500093E-1,4.584000111E0,8.907000542E0,1.001807690E1
1.674679246E0,1.189500093E-1,4.621950150E0,8.944950104E0,1.006919583E1
1.676642653E0,1.189500093E-1,4.621950150E0,8.907000542E0,1.003549854E1
1.678605990E0,1.189500093E-1,4.584000111E0,8.907000542E0,1.001807690E1
1.680569347E0,1.189500093E-1,4.545000076E0,8.907000542E0,1.000029167E1
1.682532606E0,8.100000024E-2,4.584000111E0,8.944950104E0,1.005145514E1
1.684495891E0,4.200000316E-2,4.660050392E0,8.983950615E0,1.012073131E1
1.686459112E0,1.189500093E-1,4.584000111E0,8.944950104E0,1.005183259E1
1.688422352E0,1.570500135E-1,4.584000111E0,8.944950104E0,1.005235565E1
1.690385581E0,8.100000024E-2,4.584000111E0,8.983950615E0,1.008617800E1
1.692348814E0,8.100000024E-2,4.584000111E0,8.983950615E0,1.008617800E1
1.694312055E0,1.189500093E-1,4.584000111E0,8.944950104E0,1.005183259E1
1.696275286E0,1.570500135E-1,4.584000111E0,8.907000542E0,1.001860172E1
1.698238696E0,1.189500093E-1,4.545000076E0,8.944950104E0,1.003410719E1
1.700202053E0,1.189500093E-1,4.584000111E0,9.022050858E0,1.012050433E1
1.702165083E0,1.189500093E-1,4.584000111E0,8.944950104E0,1.005183259E1
1.704128209E0,1.189500093E-1,4.545000076E0,8.907000542E0,1.000029167E1
1.706091637E0,8.100000024E-2,4.545000076E0,8.830050468E0,9.931433832E0
1.708054976E0,1.570500135E-1,4.545000076E0,8.944950104E0,1.003463117E1
1.710018369E0,1.570500135E-1,4.545000076E0,8.944950104E0,1.003463117E1
1.711981746E0,1.570500135E-1,4.507050037E0,8.869050026E0,9.949784576E0
1.713945267E0,1.189500093E-1,4.507050037E0,8.830050468E0,9.914506565E0
1.715908746E0,1.570500135E-1,4.507050037E0,8.869050026E0,9.949784576E0
1.717872148E0,1.960500032E-1,4.468950272E0,8.869050026E0,9.933277430E0
1.719835550E0,2.340000123E-1,4.507050037E0,8.869050026E0,9.951296619E0
1.721798210E0,1.570500135E-1,4.507050037E0,8.830050468E0,9.915036864E0
1.723761088E0,2.340000123E-1,4.545000076E0,8.830050468E0,9.933859923E0
1.725724063E0,1.570500135E-1,4.507050037E0,8.791950226E0,9.881121066E0
1.727687010E0,1.960500032E-1,4.507050037E0,8.791950226E0,9.881817870E0
1.729650249E0,2.340000123E-1,4.468950272E0,8.754000664E0,9.831520745E0
1.731613399E0,2.340000123E-1,4.468950272E0,8.791950226E0,9.865326214E0
1.733576329E0,2.340000123E-1,4.545000076E0,8.754000664E0,9.866321975E0
1.735539324E0,2.340000123E-1,4.468950272E0,8.754000664E0,9.831520745E0
1.737502774E0,1.960500032E-1,4.507050037E0,8.754000664E0,9.848069012E0
1.739466091E0,2.340000123E-1,4.545000076E0,8.830050468E0,9.933859923E0
1.741428938E0,2.340000123E-1,4.468950272E0,8.754000664E0,9.831520745E0
1.743391930E0,1.960500032E-1,4.507050037E0,8.754000664E0,9.848069012E0
1.745354975E0,1.960500032E-1,4.545000076E0,8.754000664E0,9.865494864E0
1.747318005E0,2.340000123E-1,4.545000076E0,8.754000664E0,9.866321975E0
1.749281090E0,1.960500032E-1,4.545000076E0,8.715000153E0,9.830904788E0
1.751244158E0,1.960500032E-1,4.545000076E0,8.715000153E0,9.830904788E0
1.753207398E0,1.960500032E-1,4.545000076E0,8.715000153E0,9.830904788E0
1.755170601E0,2.340000123E-1,4.507050037E0,8.754000664E0,9.848897586E0
1.757133522E0,1.960500032E-1,4.584000111E0,8.715000153E0,9.848995902E0
1.759096526E0,1.570500135E-1,4.584000111E0,8.715000153E0,9.848296776E0
1.761059975E0,1.960500032E-1,4.584000111E0,8.715000153E0,9.848995902E0
1.763023293E0,1.960500032E-1,4.621950150E0,8.715000153E0,9.866716092E0
1.764986486E0,1.570500135E-1,4.584000111E0,8.677050591E0,9.814730188E0
1.766949733E0,1.960500032E-1,4.584000111E0,8.754000664E0,9.883522663E0
1.768912915E0,1.570500135E-1,4.621950150E0,8.754000664E0,9.900485620E0
1.770876117E0,1.570500135E-1,4.621950150E0,8.830050468E0,9.967792091E0
1.772839218E0,1.570500135E-1,4.584000111E0,8.791950226E0,9.916456549E0
1.774802348E0,1.570500135E-1,4.621950150E0,8.715000153E0,9.866018222E0
1.776765600E0,1.189500093E-1,4.621950150E0,8.791950226E0,9.933527121E0
1.778728813E0,1.570500135E-1,4.621950150E0,8.830050468E0,9.967792091E0
1.780691868E0,1.189500093E-1,4.621950150E0,8.791950226E0,9.933527121E0
1.782654969E0,1.570500135E-1,4.621950150E0,8.791950226E0,9.934056405E0
1.784618356E0,1.189500093E-1,4.621950150E0,8.791950226E0,9.933527121E0
1.786581659E0,1.189500093E-1,4.621950150E0,8.869050026E0,1.000183087E1
1.788544743E0,1.189500093E-1,4.660050392E0,8.869050026E0,1.001949435E1
1.790507892E0,1.570500135E-1,4.584000111E0,8.830050468E0,9.950251906E0
1.792470957E0,1.570500135E-1,4.584000111E0,8.869050026E0,9.984877069E0
1.794434046E0,1.570500135E-1,4.621950150E0,8.907000542E0,1.003602245E1
1.796397300E0,1.189500093E-1,4.621950150E0,8.869050026E0,1.000183087E1
1.798360505E0,1.189500093E-1,4.621950150E0,8.830050468E0,9.967264598E0
1.800323575E0,1.570500135E-1,4.584000111E0,8.830050468E0,9.950251906E0
1.802286675E0,1.570500135E-1,4.621950150E0,8.907000542E0,1.003602245E1
1.804250062E0,1.189500093E-1,4.584000111E0,8.907000542E0,1.001807690E1
1.806213365E0,1.570500135E-1,4.621950150E0,8.791950226E0,9.934056405E0
1.808176449E0,1.570500135E-1,4.621950150E0,8.869050026E0,1.000235654E1
1.810139598E0,1.570500135E-1,4.621950150E0,8.830050468E0,9.967792091E0
1.812102630E0,1.570500135E-1,4.621950150E0,8.869050026E0,1.000235654E1
1.814065719E0,1.570500135E-1,4.621950150E0,8.830050468E0,9.967792091E0
1.816028973E0,8.100000024E-2,4.621950150E0,8.869050026E0,1.000145152E1
1.817992179E0,1.570500135E-1,4.621950150E0,8.830050468E0,9.967792091E0
1.819955189E0,4.200000316E-2,4.621950150E0,8.869050026E0,1.000121170E1
1.821918257E0,1.189500093E-1,4.584000111E0,8.830050468E0,9.949723483E0
1.823881122E0,1.189500093E-1,4.621950150E0,8.869050026E0,1.000183087E1
1.825844070E0,1.570500135E-1,4.584000111E0,8.830050468E0,9.950251906E0
1.827807348E0,8.100000024E-2,4.621950150E0,8.869050026E0,1.000145152E1
1.829770529E0,1.189500093E-1,4.621950150E0,8.830050468E0,9.967264598E0
1.831733769E0,1.570500135E-1,4.584000111E0,8.830050468E0,9.950251906E0
1.833696991E0,1.189500093E-1,4.621950150E0,8.869050026E0,1.000183087E1
1.835660218E0,1.189500093E-1,4.584000111E0,8.869050026E0,9.984350479E0
1.837623447E0,1.189500093E-1,4.584000111E0,8.869050026E0,9.984350479E0
1.839586858E0,1.189500093E-1,4.584000111E0,8.791950226E0,9.915926325E0
1.841550216E0,1.189500093E-1,4.621950150E0,8.830050468E0,9.967264598E0
1.843513786E0,1.189500093E-1,4.621950150E0,8.830050468E0,9.967264598E0
1.845477293E0,8.100000024E-2,4.621950150E0,8.869050026E0,1.000145152E1
1.847440528E0,1.570500135E-1,4.621950150E0,8.791950226E0,9.934056405E0
1.849403839E0,1.189500093E-1,4.584000111E0,8.791950226E0,9.915926325E0
1.851367415E0,8.100000024E-2,4.621950150E0,8.830050468E0,9.966883939E0
1.853330914E0,1.189500093E-1,4.621950150E0,8.830050468E0,9.967264598E0
1.855294414E0,1.189500093E-1,4.584000111E0,8.830050468E0,9.949723483E0
1.857257914E0,1.570500135E-1,4.584000111E0,8.830050468E0,9.950251906E0
1.859221294E0,1.570500135E-1,4.621950150E0,8.830050468E0,9.967792091E0
1.861184699E0,1.189500093E-1,4.621950150E0,8.907000542E0,1.003549854E1
1.863148304E0,1.189500093E-1,4.584000111E0,8.791950226E0,9.915926325E0
1.865111851E0,1.189500093E-1,4.545000076E0,8.830050468E0,9.931815850E0
1.867074984E0,1.189500093E-1,4.584000111E0,8.830050468E0,9.949723483E0
1.869038238E0,1.189500093E-1,4.584000111E0,8.830050468E0,9.949723483E0
1.871001479E0,1.189500093E-1,4.584000111E0,8.830050468E0,9.949723483E0
1.872964714E0,8.100000024E-2,4.584000111E0,8.869050026E0,9.983970472E0
1.874928123E0,1.570500135E-1,4.584000111E0,8.791950226E0,9.916456549E0
1.876891481E0,1.570500135E-1,4.545000076E0,8.830050468E0,9.932345225E0
1.878854871E0,1.570500135E-1,4.584000111E0,8.830050468E0,9.950251906E0
1.880818251E0,1.189500093E-1,4.545000076E0,8.869050026E0,9.966505063E0
1.882781446E0,1.570500135E-1,4.584000111E0,8.830050468E0,9.950251906E0
1.884744703E0,1.570500135E-1,4.545000076E0,8.869050026E0,9.967032596E0
1.886708334E0,1.570500135E-1,4.545000076E0,8.869050026E0,9.967032596E0
1.888671855E0,1.570500135E-1,4.545000076E0,8.907000542E0,1.000081742E1
1.890635037E0,1.960500032E-1,4.545000076E0,8.830050468E0,9.933038436E0
1.892598319E0,1.570500135E-1,4.545000076E0,8.791950226E0,9.898488732E0
1.894561495E0,1.570500135E-1,4.584000111E0,8.869050026E0,9.984877069E0
1.896524703E0,1.570500135E-1,4.545000076E0,8.830050468E0,9.932345225E0
1.898488117E0,1.960500032E-1,4.545000076E0,8.869050026E0,9.967723394E0
1.900451470E0,1.960500032E-1,4.545000076E0,8.869050026E0,9.967723394E0
1.902414681E0,1.960500032E-1,4.584000111E0,8.830050468E0,9.950943869E0
1.904377934E0,1.570500135E-1,4.584000111E0,8.830050468E0,9.950251906E0
1.906341187E0,1.570500135E-1,4.584000111E0,8.791950226E0,9.916456549E0
1.908304452E0,1.960500032E-1,4.545000076E0,8.830050468E0,9.933038436E0
1.910267678E0,1.570500135E-1,4.545000076E0,8.791950226E0,9.898488732E0
1.912230916E0,1.570500135E-1,4.545000076E0,8.791950226E0,9.898488732E0
1.914194325E0,1.570500135E-1,4.584000111E0,8.830050468E0,9.950251906E0
1.916157683E0,1.189500093E-1,4.545000076E0,8.791950226E0,9.897957545E0
1.918121077E0,1.570500135E-1,4.584000111E0,8.754000664E0,9.882825980E0
1.920084457E0,1.189500093E-1,4.584000111E0,8.754000664E0,9.882293951E0
1.922047843E0,1.570500135E-1,4.621950150E0,8.754000664E0,9.900485620E0
1.924011227E0,1.570500135E-1,4.621950150E0,8.754000664E0,9.900485620E0
1.925974387E0,1.960500032E-1,4.621950150E0,8.754000664E0,9.901181061E0
1.927937613E0,1.570500135E-1,4.621950150E0,8.715000153E0,9.866018222E0
1.929900884E0,1.189500093E-1,4.660050392E0,8.754000664E0,9.917799473E0
1.931864145E0,1.189500093E-1,4.660050392E0,8.715000153E0,9.883392455E0
1.933827506E0,1.189500093E-1,4.660050392E0,8.715000153E0,9.883392455E0
1.935790837E0,1.960500032E-1,4.660050392E0,8.754000664E0,9.919023787E0
1.937754231E0,1.570500135E-1,4.660050392E0,8.791950226E0,9.951840189E0
1.939717606E0,1.189500093E-1,4.660050392E0,8.754000664E0,9.917799473E0
1.941680974E0,1.189500093E-1,4.621950150E0,8.754000664E0,9.899954541E0
1.943644357E0,1.570500135E-1,4.584000111E0,8.754000664E0,9.882825980E0
1.945607742E0,1.570500135E-1,4.621950150E0,8.754000664E0,9.900485620E0
1.947571126E0,1.570500135E-1,4.621950150E0,8.830050468E0,9.967792091E0
1.949534691E0,1.570500135E-1,4.621950150E0,8.715000153E0,9.866018222E0
1.951498203E0,1.570500135E-1,4.621950150E0,8.791950226E0,9.934056405E0
1.953461445E0,1.189500093E-1,4.621950150E0,8.830050468E0,9.967264598E0
1.955424757E0,1.189500093E-1,4.621950150E0,8.754000664E0,9.899954541E0
1.957388288E0,1.189500093E-1,4.660050392E0,8.754000664E0,9.917799473E0
1.959351755E0,1.570500135E-1,4.660050392E0,8.791950226E0,9.951840189E0
1.961315126E0,1.570500135E-1,4.660050392E0,8.869050026E0,1.002001910E1
1.963278526E0,1.570500135E-1,4.584000111E0,8.830050468E0,9.950251906E0
1.965241908E0,1.189500093E-1,4.621950150E0,8.830050468E0,9.967264598E0
1.967205296E0,8.100000024E-2,4.621950150E0,8.830050468E0,9.966883939E0
1.969168499E0,1.570500135E-1,4.621950150E0,8.830050468E0,9.967792091E0
1.971131757E0,1.189500093E-1,4.621950150E0,8.830050468E0,9.967264598E0
1.973094803E0,8.100000024E-2,4.621950150E0,8.907000542E0,1.003512047E1
1.975057911E0,1.189500093E-1,4.621950150E0,8.907000542E0,1.003549854E1
1.977021185E0,1.189500093E-1,4.584000111E0,8.907000542E0,1.001807690E1
1.978984394E0,8.100000024E-2,4.621950150E0,8.830050468E0,9.966883939E0
1.980947628E0,1.189500093E-1,4.584000111E0,8.944950104E0,1.005183259E1
1.982910855E0,8.100000024E-2,4.584000111E0,8.869050026E0,9.983970472E0
1.984873907E0,8.100000024E-2,4.621950150E0,8.907000542E0,1.003512047E1
1.986837011E0,8.100000024E-2,4.584000111E0,8.907000542E0,1.001769817E1
1.988800250E0,8.100000024E-2,4.584000111E0,8.869050026E0,9.983970472E0
1.990763458E0,8.100000024E-2,4.545000076E0,8.907000542E0,9.999912267E0
1.992726738E0,8.100000024E-2,4.545000076E0,8.907000542E0,9.999912267E0
1.994689996E0,1.189500093E-1,4.545000076E0,8.907000542E0,1.000029167E1
1.996653223E0,1.189500093E-1,4.545000076E0,8.907000542E0,1.000029167E1
1.998616460E0,1.570500135E-1,4.545000076E0,8.944950104E0,1.003463117E1
2.000579676E0,1.189500093E-1,4.507050037E0,8.907000542E0,9.983101111E0
2.002542876E0,1.189500093E-1,4.507050037E0,8.907000542E0,9.983101111E0
2.004505751E0,1.570500135E-1,4.507050037E0,8.907000542E0,9.983627767E0
2.006468722E0,1.960500032E-1,4.545000076E0,8.944950104E0,1.003531732E1
2.008432042E0,1.570500135E-1,4.545000076E0,8.907000542E0,1.000081742E1
2.010395259E0,1.570500135E-1,4.507050037E0,8.830050468E0,9.915036864E0
2.012358877E0,1.570500135E-1,4.507050037E0,8.907000542E0,9.983627767E0
2.014322360E0,1.189500093E-1,4.507050037E0,8.869050026E0,9.949256128E0
2.016286043E0,1.189500093E-1,4.507050037E0,8.869050026E0,9.949256128E0
2.018249668E0,1.570500135E-1,4.545000076E0,8.791950226E0,9.898488732E0
2.020213012E0,1.189500093E-1,4.507050037E0,8.754000664E0,9.846835876E0
2.022176439E0,1.570500135E-1,4.545000076E0,8.791950226E0,9.898488732E0
2.024139866E0,1.570500135E-1,4.545000076E0,8.791950226E0,9.898488732E0
2.026103290E0,1.570500135E-1,4.545000076E0,8.830050468E0,9.932345225E0
2.028066487E0,1.570500135E-1,4.584000111E0,8.830050468E0,9.950251906E0
2.030029751E0,1.189500093E-1,4.584000111E0,8.830050468E0,9.949723483E0
2.031992976E0,1.570500135E-1,4.584000111E0,8.830050468E0,9.950251906E0
2.033956213E0,1.570500135E-1,4.584000111E0,8.830050468E0,9.950251906E0
2.035919622E0,1.189500093E-1,4.584000111E0,8.830050468E0,9.949723483E0
2.037882980E0,1.570500135E-1,4.545000076E0,8.830050468E0,9.932345225E0
2.039846326E0,1.570500135E-1,4.545000076E0,8.830050468E0,9.932345225E0
2.041809675E0,1.960500032E-1,4.584000111E0,8.830050468E0,9.950943869E0
2.043773110E0,1.189500093E-1,4.584000111E0,8.830050468E0,9.949723483E0
2.045736519E0,1.570500135E-1,4.621950150E0,8.791950226E0,9.934056405E0
2.047699895E0,1.570500135E-1,4.545000076E0,8.754000664E0,9.864796907E0
2.049663285E0,1.570500135E-1,4.507050037E0,8.791950226E0,9.881121066E0
2.051626444E0,1.570500135E-1,4.545000076E0,8.791950226E0,9.898488732E0
2.053589670E0,1.960500032E-1,4.545000076E0,8.791950226E0,9.899184313E0
2.055553081E0,1.960500032E-1,4.584000111E0,8.830050468E0,9.950943869E0
2.057516437E0,1.960500032E-1,4.584000111E0,8.791950226E0,9.917150871E0
2.059479812E0,1.570500135E-1,4.584000111E0,8.791950226E0,9.916456549E0
2.061443192E0,1.189500093E-1,4.584000111E0,8.754000664E0,9.882293951E0
2.063406399E0,1.960500032E-1,4.584000111E0,8.715000153E0,9.848995902E0
2.065369656E0,1.189500093E-1,4.584000111E0,8.791950226E0,9.915926325E0
2.067333061E0,1.570500135E-1,4.584000111E0,8.791950226E0,9.916456549E0
2.069296423E0,1.570500135E-1,4.584000111E0,8.754000664E0,9.882825980E0
2.071259828E0,1.570500135E-1,4.621950150E0,8.754000664E0,9.900485620E0
2.073223240E0,1.189500093E-1,4.584000111E0,8.754000664E0,9.882293951E0
2.075186261E0,1.189500093E-1,4.621950150E0,8.754000664E0,9.899954541E0
2.077149396E0,1.189500093E-1,4.584000111E0,8.791950226E0,9.915926325E0
2.079112418E0,1.189500093E-1,4.584000111E0,8.715000153E0,9.847762882E0
2.081075473E0,1.189500093E-1,4.621950150E0,8.754000664E0,9.899954541E0
2.083038423E0,8.100000024E-2,4.621950150E0,8.791950226E0,9.933145169E0
2.085001401E0,1.189500093E-1,4.621950150E0,8.791950226E0,9.933527121E0
2.086964494E0,1.189500093E-1,4.621950150E0,8.754000664E0,9.899954541E0
2.088927553E0,1.189500093E-1,4.621950150E0,8.754000664E0,9.899954541E0
2.090890633E0,1.189500093E-1,4.621950150E0,8.754000664E0,9.899954541E0
2.092853707E0,1.570500135E-1,4.584000111E0,8.715000153E0,9.848296776E0
2.094816923E0,8.100000024E-2,4.621950150E0,8.791950226E0,9.933145169E0
2.096780095E0,1.189500093E-1,4.621950150E0,8.830050468E0,9.967264598E0
2.098743336E0,1.570500135E-1,4.621950150E0,8.791950226E0,9.934056405E0
2.100706557E0,1.189500093E-1,4.621950150E0,8.830050468E0,9.967264598E0
2.102669475E0,1.570500135E-1,4.584000111E0,8.830050468E0,9.950251906E0
2.104632482E0,1.570500135E-1,4.584000111E0,8.830050468E0,9.950251906E0
2.106595750E0,1.570500135E-1,4.584000111E0,8.869050026E0,9.984877069E0
2.108558941E0,1.189500093E-1,4.584000111E0,8.869050026E0,9.984350479E0
2.110522134E0,1.189500093E-1,4.621950150E0,8.869050026E0,1.000183087E1
2.112485326E0,1.570500135E-1,4.584000111E0,8.830050468E0,9.950251906E0
2.114448564E0,1.570500135E-1,4.584000111E0,8.830050468E0,9.950251906E0
2.116411788E0,1.189500093E-1,4.584000111E0,8.830050468E0,9.949723483E0
2.118374871E0,1.189500093E-1,4.621950150E0,8.830050468E0,9.967264598E0
2.120338006E0,1.189500093E-1,4.621950150E0,8.907000542E0,1.003549854E1
2.122301388E0,1.570500135E-1,4.621950150E0,8.869050026E0,1.000235654E1
2.124264697E0,1.570500135E-1,4.584000111E0,8.869050026E0,9.984877069E0
2.126227960E0,1.189500093E-1,4.584000111E0,8.830050468E0,9.949723483E0
2.128191237E0,1.189500093E-1,4.545000076E0,8.869050026E0,9.966505063E0
2.130154439E0,1.189500093E-1,4.584000111E0,8.907000542E0,1.001807690E1
2.132117646E0,8.100000024E-2,4.584000111E0,8.869050026E0,9.983970472E0
2.134080879E0,1.570500135E-1,4.621950150E0,8.869050026E0,1.000235654E1
2.136044105E0,1.570500135E-1,4.584000111E0,8.907000542E0,1.001860172E1
2.138007158E0,1.570500135E-1,4.584000111E0,8.944950104E0,1.005235565E1
2.139970261E0,1.570500135E-1,4.584000111E0,8.907000542E0,1.001860172E1
2.141933503E0,1.189500093E-1,4.545000076E0,8.869050026E0,9.966505063E0
2.143896711E0,1.189500093E-1,4.545000076E0,8.907000542E0,1.000029167E1
2.145859767E0,1.570500135E-1,4.584000111E0,8.907000542E0,1.001860172E1
2.147822867E0,1.570500135E-1,4.584000111E0,8.907000542E0,1.001860172E1
2.149785939E0,1.570500135E-1,4.545000076E0,8.907000542E0,1.000081742E1
2.151749020E0,1.570500135E-1,4.584000111E0,8.907000542E0,1.001860172E1
2.153712111E0,1.960500032E-1,4.545000076E0,8.907000542E0,1.000150588E1
2.155675189E0,1.960500032E-1,4.584000111E0,8.869050026E0,9.985566633E0
2.157638266E0,1.570500135E-1,4.584000111E0,8.869050026E0,9.984877069E0
2.159601343E0,1.960500032E-1,4.584000111E0,8.907000542E0,1.001928896E1
2.161564599E0,1.570500135E-1,4.584000111E0,8.869050026E0,9.984877069E0
2.163527803E0,1.570500135E-1,4.584000111E0,8.830050468E0,9.950251906E0
2.165491078E0,1.570500135E-1,4.545000076E0,8.830050468E0,9.932345225E0
2.167454336E0,1.189500093E-1,4.545000076E0,8.869050026E0,9.966505063E0
2.169417698E0,1.189500093E-1,4.545000076E0,8.830050468E0,9.931815850E0
2.171381029E0,1.189500093E-1,4.545000076E0,8.830050468E0,9.931815850E0
2.173344288E0,1.570500135E-1,4.545000076E0,8.830050468E0,9.932345225E0
2.175307569E0,1.570500135E-1,4.545000076E0,8.830050468E0,9.932345225E0
2.177271090E0,1.570500135E-1,4.584000111E0,8.830050468E0,9.950251906E0
2.179234552E0,1.570500135E-1,4.621950150E0,8.830050468E0,9.967792091E0
2.181197789E0,1.570500135E-1,4.545000076E0,8.869050026E0,9.967032596E0
2.183161092E0,1.570500135E-1,4.584000111E0,8.830050468E0,9.950251906E0
2.185124490E0,1.189500093E-1,4.584000111E0,8.830050468E0,9.949723483E0
2.187087860E0,1.189500093E-1,4.545000076E0,8.830050468E0,9.931815850E0
2.189051423E0,1.570500135E-1,4.584000111E0,8.791950226E0,9.916456549E0
2.191014933E0,1.189500093E-1,4.545000076E0,8.791950226E0,9.897957545E0
2.192978432E0,1.570500135E-1,4.584000111E0,8.830050468E0,9.950251906E0
2.194941935E0,1.570500135E-1,4.545000076E0,8.791950226E0,9.898488732E0
2.196905299E0,1.570500135E-1,4.584000111E0,8.830050468E0,9.950251906E0
2.198868704E0,1.189500093E-1,4.584000111E0,8.830050468E0,9.949723483E0
2.200832268E0,1.570500135E-1,4.545000076E0,8.830050468E0,9.932345225E0
2.202795783E0,1.189500093E-1,4.621950150E0,8.830050468E0,9.967264598E0
2.204758966E0,1.189500093E-1,4.584000111E0,8.830050468E0,9.949723483E0
2.206722246E0,1.189500093E-1,4.584000111E0,8.830050468E0,9.949723483E0
2.208685514E0,1.570500135E-1,4.584000111E0,8.830050468E0,9.950251906E0
2.210648785E0,1.189500093E-1,4.621950150E0,8.830050468E0,9.967264598E0
2.212612323E0,1.189500093E-1,4.584000111E0,8.754000664E0,9.882293951E0
2.214575783E0,1.570500135E-1,4.584000111E0,8.791950226E0,9.916456549E0
2.216539156E0,1.570500135E-1,4.584000111E0,8.754000664E0,9.882825980E0
2.218502554E0,1.189500093E-1,4.584000111E0,8.791950226E0,9.915926325E0
2.220465801E0,1.189500093E-1,4.621950150E0,8.754000664E0,9.899954541E0
2.222429093E0,1.189500093E-1,4.584000111E0,8.791950226E0,9.915926325E0
2.224392457E0,1.189500093E-1,4.584000111E0,8.754000664E0,9.882293951E0
2.226355793E0,1.189500093E-1,4.621950150E0,8.754000664E0,9.899954541E0
2.228319052E0,1.189500093E-1,4.545000076E0,8.791950226E0,9.897957545E0
2.230282333E0,1.189500093E-1,4.621950150E0,8.715000153E0,9.865485287E0
2.232245869E0,1.189500093E-1,4.621950150E0,8.791950226E0,9.933527121E0
2.234209331E0,1.189500093E-1,4.621950150E0,8.754000664E0,9.899954541E0
2.236172749E0,1.570500135E-1,4.660050392E0,8.754000664E0,9.918329597E0
2.238136180E0,8.100000024E-2,4.621950150E0,8.791950226E0,9.933145169E0
2.240099331E0,4.200000316E-2,4.621950150E0,8.791950226E0,9.932903702E0
2.242062564E0,1.189500093E-1,4.621950150E0,8.791950226E0,9.933527121E0
2.244025795E0,1.189500093E-1,4.621950150E0,8.791950226E0,9.933527121E0
2.245989026E0,1.189500093E-1,4.621950150E0,8.715000153E0,9.865485287E0
2.247952121E0,1.189500093E-1,4.584000111E0,8.791950226E0,9.915926325E0
2.249915256E0,8.100000024E-2,4.621950150E0,8.791950226E0,9.933145169E0
2.251878502E0,1.189500093E-1,4.621950150E0,8.715000153E0,9.865485287E0
2.253841716E0,1.189500093E-1,4.621950150E0,8.754000664E0,9.899954541E0
2.255804950E0,8.100000024E-2,4.621950150E0,8.754000664E0,9.899571294E0
2.257768178E0,1.189500093E-1,4.621950150E0,8.754000664E0,9.899954541E0
2.259731603E0,8.100000024E-2,4.660050392E0,8.754000664E0,9.917416916E0
2.261694961E0,1.189500093E-1,4.584000111E0,8.754000664E0,9.882293951E0
2.263658666E0,1.189500093E-1,4.621950150E0,8.791950226E0,9.933527121E0
2.265622269E0,1.189500093E-1,4.621950150E0,8.791950226E0,9.933527121E0
2.267585797E0,1.189500093E-1,4.584000111E0,8.791950226E0,9.915926325E0
2.269549347E0,1.189500093E-1,4.621950150E0,8.791950226E0,9.933527121E0
2.271512568E0,1.189500093E-1,4.621950150E0,8.754000664E0,9.899954541E0
2.273475886E0,1.189500093E-1,4.584000111E0,8.754000664E0,9.882293951E0
2.275439597E0,1.189500093E-1,4.621950150E0,8.791950226E0,9.933527121E0
2.277403192E0,1.570500135E-1,4.584000111E0,8.754000664E0,9.882825980E0
2.279366541E0,1.189500093E-1,4.621950150E0,8.830050468E0,9.967264598E0
2.281329963E0,1.570500135E-1,4.584000111E0,8.791950226E0,9.916456549E0
2.283293347E0,1.960500032E-1,4.621950150E0,8.791950226E0,9.934749497E0
2.285256769E0,1.570500135E-1,4.584000111E0,8.830050468E0,9.950251906E0
2.287219923E0,1.189500093E-1,4.584000111E0,8.830050468E0,9.949723483E0
2.289183156E0,8.100000024E-2,4.584000111E0,8.791950226E0,9.915543696E0
2.291146746E0,1.189500093E-1,4.621950150E0,8.830050468E0,9.967264598E0
2.293110231E0,1.570500135E-1,4.621950150E0,8.869050026E0,1.000235654E1
2.295073852E0,1.189500093E-1,4.584000111E0,8.830050468E0,9.949723483E0
2.297037413E0,8.100000024E-2,4.584000111E0,8.869050026E0,9.983970472E0
2.299000769E0,1.570500135E-1,4.621950150E0,8.869050026E0,1.000235654E1
2.300964185E0,1.189500093E-1,4.621950150E0,8.791950226E0,9.933527121E0
2.302927923E0,1.189500093E-1,4.621950150E0,8.830050468E0,9.967264598E0
2.304891567E0,1.189500093E-1,4.621950150E0,8.754000664E0,9.899954541E0
2.306854562E0,1.570500135E-1,4.584000111E0,8.791950226E0,9.916456549E0
2.308817737E0,1.189500093E-1,4.584000111E0,8.791950226E0,9.915926325E0
2.310781111E0,1.570500135E-1,4.545000076E0,8.791950226E0,9.898488732E0
2.312744427E0,1.189500093E-1,4.584000111E0,8.791950226E0,9.915926325E0
2.314707824E0,1.189500093E-1,4.584000111E0,8.830050468E0,9.949723483E0
2.316671197E0,1.570500135E-1,4.584000111E0,8.754000664E0,9.882825980E0
2.318634624E0,1.570500135E-1,4.584000111E0,8.754000664E0,9.882825980E0
2.320598038E0,1.570500135E-1,4.584000111E0,8.830050468E0,9.950251906E0
2.322561419E0,1.570500135E-1,4.584000111E0,8.791950226E0,9.916456549E0
2.324524809E0,1.570500135E-1,4.584000111E0,8.715000153E0,9.848296776E0
2.326487787E0,1.189500093E-1,4.584000111E0,8.791950226E0,9.915926325E0
2.328450886E0,1.570500135E-1,4.545000076E0,8.791950226E0,9.898488732E0
2.330414149E0,1.189500093E-1,4.621950150E0,8.791950226E0,9.933527121E0
2.332377356E0,1.570500135E-1,4.545000076E0,8.830050468E0,9.932345225E0
2.334340636E0,1.189500093E-1,4.584000111E0,8.830050468E0,9.949723483E0
2.336303894E0,1.570500135E-1,4.584000111E0,8.830050468E0,9.950251906E0
2.338267481E0,1.570500135E-1,4.621950150E0,8.869050026E0,1.000235654E1
2.340230971E0,1.189500093E-1,4.545000076E0,8.869050026E0,9.966505063E0
2.342194479E0,1.570500135E-1,4.545000076E0,8.869050026E0,9.967032596E0
2.344158009E0,1.570500135E-1,4.545000076E0,8.830050468E0,9.932345225E0
2.346121009E0,1.960500032E-1,4.545000076E0,8.830050468E0,9.933038436E0
2.348084165E0,1.960500032E-1,4.545000076E0,8.830050468E0,9.933038436E0
2.350047407E0,1.960500032E-1,4.584000111E0,8.869050026E0,9.985566633E0
2.352010624E0,1.960500032E-1,4.545000076E0,8.869050026E0,9.967723394E0
2.353974038E0,1.960500032E-1,4.545000076E0,8.830050468E0,9.933038436E0
2.355937394E0,1.570500135E-1,4.545000076E0,8.791950226E0,9.898488732E0
2.357900783E0,1.960500032E-1,4.545000076E0,8.830050468E0,9.933038436E0
2.359864163E0,1.570500135E-1,4.545000076E0,8.830050468E0,9.932345225E0
2.361827504E0,1.960500032E-1,4.584000111E0,8.791950226E0,9.917150871E0
2.363790857E0,1.570500135E-1,4.545000076E0,8.791950226E0,9.898488732E0
2.365754436E0,1.570500135E-1,4.584000111E0,8.791950226E0,9.916456549E0
2.367717942E0,1.960500032E-1,4.545000076E0,8.791950226E0,9.899184313E0
2.369681352E0,1.960500032E-1,4.584000111E0,8.791950226E0,9.917150871E0
2.371644790E0,1.570500135E-1,4.545000076E0,8.791950226E0,9.898488732E0
2.373608300E0,1.960500032E-1,4.545000076E0,8.791950226E0,9.899184313E0
2.375571788E0,1.570500135E-1,4.584000111E0,8.830050468E0,9.950251906E0
2.377535201E0,1.570500135E-1,4.545000076E0,8.830050468E0,9.932345225E0
2.379498636E0,1.570500135E-1,4.545000076E0,8.830050468E0,9.932345225E0
2.381461967E0,1.960500032E-1,4.584000111E0,8.830050468E0,9.950943869E0
2.383425329E0,1.570500135E-1,4.584000111E0,8.830050468E0,9.950251906E0
2.385388582E0,1.570500135E-1,4.545000076E0,8.791950226E0,9.898488732E0
2.387351867E0,1.570500135E-1,4.507050037E0,8.830050468E0,9.915036864E0
2.389315055E0,1.189500093E-1,4.545000076E0,8.830050468E0,9.931815850E0
2.391278295E0,1.570500135E-1,4.621950150E0,8.791950226E0,9.934056405E0
2.393241524E0,1.570500135E-1,4.584000111E0,8.830050468E0,9.950251906E0
2.395204756E0,1.189500093E-1,4.584000111E0,8.830050468E0,9.949723483E0
2.397167806E0,1.570500135E-1,4.545000076E0,8.830050468E0,9.932345225E0
2.399130910E0,1.570500135E-1,4.545000076E0,8.791950226E0,9.898488732E0
2.401093972E0,1.570500135E-1,4.584000111E0,8.830050468E0,9.950251906E0
2.403057054E0,1.570500135E-1,4.584000111E0,8.869050026E0,9.984877069E0
2.405020130E0,1.570500135E-1,4.584000111E0,8.791950226E0,9.916456549E0
2.406983208E0,1.570500135E-1,4.545000076E0,8.869050026E0,9.967032596E0
2.408946104E0,1.570500135E-1,4.584000111E0,8.907000542E0,1.001860172E1
2.410909054E0,1.570500135E-1,4.584000111E0,8.869050026E0,9.984877069E0
2.412872268E0,1.570500135E-1,4.621950150E0,8.830050468E0,9.967792091E0
2.414835418E0,1.570500135E-1,4.545000076E0,8.791950226E0,9.898488732E0
2.416798168E0,1.189500093E-1,4.584000111E0,8.869050026E0,9.984350479E0
2.418761035E0,1.570500135E-1,4.584000111E0,8.830050468E0,9.950251906E0
2.420724102E0,1.570500135E-1,4.584000111E0,8.830050468E0,9.950251906E0
2.422687110E0,1.570500135E-1,4.584000111E0,8.791950226E0,9.916456549E0
2.424649884E0,1.570500135E-1,4.545000076E0,8.830050468E0,9.932345225E0
2.426612727E0,1.570500135E-1,4.545000076E0,8.869050026E0,9.967032596E0
2.428575843E0,1.189500093E-1,4.545000076E0,8.869050026E0,9.966505063E0
2.430538879E0,1.570500135E-1,4.545000076E0,8.830050468E0,9.932345225E0
2.432501963E0,1.189500093E-1,4.545000076E0,8.830050468E0,9.931815850E0
2.434465033E0,1.570500135E-1,4.545000076E0,8.869050026E0,9.967032596E0
2.436428067E0,1.570500135E-1,4.545000076E0,8.830050468E0,9.932345225E0
2.438391112E0,1.570500135E-1,4.545000076E0,8.869050026E0,9.967032596E0
2.440354239E0,1.570500135E-1,4.545000076E0,8.907000542E0,1.000081742E1
2.442317341E0,1.960500032E-1,4.545000076E0,8.869050026E0,9.967723394E0
2.444280370E0,1.960500032E-1,4.507050037E0,8.869050026E0,9.950476572E0
2.446243420E0,1.960500032E-1,4.545000076E0,8.907000542E0,1.000150588E1
2.448206900E0,1.960500032E-1,4.545000076E0,8.907000542E0,1.000150588E1
2.450170226E0,1.960500032E-1,4.545000076E0,8.907000542E0,1.000150588E1
2.452132946E0,1.960500032E-1,4.584000111E0,8.907000542E0,1.001928896E1
2.454095843E0,1.570500135E-1,4.584000111E0,8.869050026E0,9.984877069E0
2.456059266E0,1.189500093E-1,4.584000111E0,8.907000542E0,1.001807690E1
2.458022534E0,1.189500093E-1,4.545000076E0,8.869050026E0,9.966505063E0
2.459985610E0,1.570500135E-1,4.584000111E0,8.869050026E0,9.984877069E0
2.461948752E0,1.189500093E-1,4.621950150E0,8.907000542E0,1.003549854E1
2.463911997E0,1.189500093E-1,4.621950150E0,8.907000542E0,1.003549854E1
2.465875212E0,1.189500093E-1,4.584000111E0,8.830050468E0,9.949723483E0
2.467838446E0,1.189500093E-1,4.584000111E0,8.869050026E0,9.984350479E0
2.469801674E0,1.189500093E-1,4.584000111E0,8.869050026E0,9.984350479E0
2.471764719E0,1.189500093E-1,4.621950150E0,8.830050468E0,9.967264598E0
2.473727791E0,8.100000024E-2,4.621950150E0,8.907000542E0,1.003512047E1
2.475690554E0,8.100000024E-2,4.660050392E0,8.907000542E0,1.005272547E1
2.477653407E0,8.100000024E-2,4.621950150E0,8.869050026E0,1.000145152E1
2.479616476E0,8.100000024E-2,4.621950150E0,8.830050468E0,9.966883939E0
2.481579482E0,8.100000024E-2,4.660050392E0,8.907000542E0,1.005272547E1
2.483542601E0,8.100000024E-2,4.660050392E0,8.869050026E0,1.001911568E1
2.485505698E0,8.100000024E-2,4.621950150E0,8.791950226E0,9.933145169E0
2.487468951E0,1.189500093E-1,4.660050392E0,8.791950226E0,9.951311850E0
2.489432159E0,8.100000024E-2,4.621950150E0,8.791950226E0,9.933145169E0
2.491395170E0,8.100000024E-2,4.584000111E0,8.830050468E0,9.949342154E0
2.493358238E0,1.189500093E-1,4.621950150E0,8.830050468E0,9.967264598E0
2.495321351E0,8.100000024E-2,4.584000111E0,8.830050468E0,9.949342154E0
2.497284457E0,1.189500093E-1,4.584000111E0,8.791950226E0,9.915926325E0
2.499247709E0,8.100000024E-2,4.584000111E0,8.791950226E0,9.915543696E0
2.501210918E0,1.189500093E-1,4.584000111E0,8.754000664E0,9.882293951E0
2.503173973E0,1.189500093E-1,4.584000111E0,8.830050468E0,9.949723483E0
2.505137074E0,1.570500135E-1,4.584000111E0,8.754000664E0,9.882825980E0
2.507100497E0,1.189500093E-1,4.584000111E0,8.754000664E0,9.882293951E0
2.509063832E0,1.570500135E-1,4.545000076E0,8.791950226E0,9.898488732E0
2.511027541E0,1.570500135E-1,4.584000111E0,8.715000153E0,9.848296776E0
2.512991140E0,1.960500032E-1,4.545000076E0,8.754000664E0,9.865494864E0
2.514954309E0,1.570500135E-1,4.545000076E0,8.754000664E0,9.864796907E0
2.516917604E0,1.570500135E-1,4.584000111E0,8.715000153E0,9.848296776E0
2.518881008E0,1.570500135E-1,4.584000111E0,8.715000153E0,9.848296776E0
2.520844376E0,1.570500135E-1,4.584000111E0,8.715000153E0,9.848296776E0
2.522807763E0,1.570500135E-1,4.621950150E0,8.754000664E0,9.900485620E0
2.524771145E0,1.960500032E-1,4.584000111E0,8.754000664E0,9.883522663E0
2.526734530E0,1.189500093E-1,4.621950150E0,8.754000664E0,9.899954541E0
2.528697914E0,1.960500032E-1,4.584000111E0,8.715000153E0,9.848995902E0
2.530661148E0,8.100000024E-2,4.584000111E0,8.715000153E0,9.847377604E0
2.532624406E0,1.189500093E-1,4.584000111E0,8.715000153E0,9.847762882E0
2.534587811E0,1.570500135E-1,4.584000111E0,8.715000153E0,9.848296776E0
2.536551173E0,1.570500135E-1,4.584000111E0,8.754000664E0,9.882825980E0
2.538514247E0,1.570500135E-1,4.621950150E0,8.715000153E0,9.866018222E0
2.540477406E0,1.570500135E-1,4.621950150E0,8.715000153E0,9.866018222E0
2.542440995E0,1.570500135E-1,4.660050392E0,8.754000664E0,9.918329597E0
2.544404467E0,1.570500135E-1,4.621950150E0,8.715000153E0,9.866018222E0
2.546367792E0,1.960500032E-1,4.621950150E0,8.754000664E0,9.901181061E0
2.548331161E0,1.570500135E-1,4.660050392E0,8.754000664E0,9.918329597E0
2.550294413E0,1.570500135E-1,4.660050392E0,8.791950226E0,9.951840189E0
2.552257700E0,1.570500135E-1,4.660050392E0,8.791950226E0,9.951840189E0
2.554221300E0,1.570500135E-1,4.621950150E0,8.754000664E0,9.900485620E0
2.556184794E0,8.100000024E-2,4.621950150E0,8.754000664E0,9.899571294E0
2.558147980E0,1.189500093E-1,4.621950150E0,8.791950226E0,9.933527121E0
2.560111257E0,1.960500032E-1,4.584000111E0,8.754000664E0,9.883522663E0
2.562074300E0,1.189500093E-1,4.621950150E0,8.791950226E0,9.933527121E0
2.564037411E0,1.570500135E-1,4.584000111E0,8.791950226E0,9.916456549E0
2.566000662E0,8.100000024E-2,4.621950150E0,8.791950226E0,9.933145169E0
2.567963871E0,1.189500093E-1,4.621950150E0,8.830050468E0,9.967264598E0
2.569927105E0,1.189500093E-1,4.621950150E0,8.830050468E0,9.967264598E0
2.571890332E0,8.100000024E-2,4.660050392E0,8.830050468E0,9.984609253E0
2.573853520E0,8.100000024E-2,4.584000111E0,8.830050468E0,9.949342154E0
2.575816719E0,8.100000024E-2,4.584000111E0,8.869050026E0,9.983970472E0
2.577780018E0,8.100000024E-2,4.621950150E0,8.830050468E0,9.966883939E0
2.579743274E0,1.189500093E-1,4.584000111E0,8.869050026E0,9.984350479E0
2.581706502E0,8.100000024E-2,4.545000076E0,8.869050026E0,9.966124375E0
2.583669738E0,8.100000024E-2,4.584000111E0,8.869050026E0,9.983970472E0
2.585632922E0,1.189500093E-1,4.584000111E0,8.907000542E0,1.001807690E1
2.587596122E0,8.100000024E-2,4.545000076E0,8.869050026E0,9.966124375E0
2.589559159E0,1.189500093E-1,4.545000076E0,8.869050026E0,9.966505063E0
2.591522257E0,1.189500093E-1,4.545000076E0,8.907000542E0,1.000029167E1
2.593485510E0,1.189500093E-1,4.584000111E0,8.907000542E0,1.001807690E1
2.595448717E0,1.570500135E-1,4.545000076E0,8.869050026E0,9.967032596E0
2.597412177E0,8.100000024E-2,4.545000076E0,8.907000542E0,9.999912267E0
2.599375563E0,8.100000024E-2,4.545000076E0,8.907000542E0,9.999912267E0
2.601339292E0,1.570500135E-1,4.545000076E0,8.869050026E0,9.967032596E0
2.603302900E0,1.189500093E-1,4.545000076E0,8.869050026E0,9.966505063E0
2.605266428E0,1.570500135E-1,4.545000076E0,8.869050026E0,9.967032596E0
2.607229979E0,1.189500093E-1,4.507050037E0,8.869050026E0,9.949256128E0
2.609193380E0,1.189500093E-1,4.545000076E0,8.907000542E0,1.000029167E1
2.611156825E0,1.570500135E-1,4.545000076E0,8.830050468E0,9.932345225E0
2.613120184E0,1.189500093E-1,4.507050037E0,8.907000542E0,9.983101111E0
2.615083579E0,1.189500093E-1,4.507050037E0,8.869050026E0,9.949256128E0
2.617047141E0,1.189500093E-1,4.545000076E0,8.907000542E0,1.000029167E1
2.619010654E0,1.189500093E-1,4.545000076E0,8.869050026E0,9.966505063E0
2.620974197E0,1.960500032E-1,4.545000076E0,8.869050026E0,9.967723394E0
2.622937731E0,1.570500135E-1,4.507050037E0,8.869050026E0,9.949784576E0
2.624901387E0,1.189500093E-1,4.507050037E0,8.869050026E0,9.949256128E0
2.626865020E0,1.189500093E-1,4.545000076E0,8.830050468E0,9.931815850E0
2.628828408E0,1.570500135E-1,4.545000076E0,8.869050026E0,9.967032596E0
2.630791868E0,1.189500093E-1,4.545000076E0,8.869050026E0,9.966505063E0
2.632755419E0,8.100000024E-2,4.507050037E0,8.907000542E0,9.982721056E0
2.634718943E0,1.960500032E-1,4.545000076E0,8.869050026E0,9.967723394E0
2.636682246E0,1.570500135E-1,4.545000076E0,8.869050026E0,9.967032596E0
2.638645623E0,1.960500032E-1,4.507050037E0,8.907000542E0,9.984317417E0
2.640609188E0,1.570500135E-1,4.507050037E0,8.830050468E0,9.915036864E0
2.642572698E0,1.960500032E-1,4.545000076E0,8.830050468E0,9.933038436E0
2.644535927E0,1.570500135E-1,4.545000076E0,8.907000542E0,1.000081742E1
2.646499238E0,1.570500135E-1,4.507050037E0,8.869050026E0,9.949784576E0
2.648462585E0,1.960500032E-1,4.545000076E0,8.830050468E0,9.933038436E0
2.650425924E0,1.960500032E-1,4.584000111E0,8.869050026E0,9.985566633E0
2.652389316E0,1.960500032E-1,4.507050037E0,8.830050468E0,9.915731285E0
2.654352693E0,1.570500135E-1,4.545000076E0,8.830050468E0,9.932345225E0
2.656315720E0,1.570500135E-1,4.545000076E0,8.907000542E0,1.000081742E1
2.658278849E0,1.570500135E-1,4.507050037E0,8.830050468E0,9.915036864E0
2.660241859E0,1.960500032E-1,4.507050037E0,8.830050468E0,9.915731285E0
2.662204945E0,1.570500135E-1,4.584000111E0,8.791950226E0,9.916456549E0
2.664167840E0,1.960500032E-1,4.545000076E0,8.830050468E0,9.933038436E0
2.666130791E0,1.570500135E-1,4.545000076E0,8.869050026E0,9.967032596E0
2.668094068E0,1.570500135E-1,4.584000111E0,8.869050026E0,9.984877069E0
2.670057250E0,2.340000123E-1,4.545000076E0,8.869050026E0,9.968542023E0
2.672020141E0,1.960500032E-1,4.584000111E0,8.869050026E0,9.985566633E0
2.673983141E0,1.570500135E-1,4.584000111E0,8.830050468E0,9.950251906E0
2.675946546E0,1.189500093E-1,4.584000111E0,8.791950226E0,9.915926325E0
2.677909832E0,1.189500093E-1,4.545000076E0,8.869050026E0,9.966505063E0
2.679873099E0,1.189500093E-1,4.584000111E0,8.869050026E0,9.984350479E0
2.681836372E0,1.570500135E-1,4.584000111E0,8.869050026E0,9.984877069E0
2.683799370E0,1.570500135E-1,4.545000076E0,8.830050468E0,9.932345225E0
2.685762449E0,1.189500093E-1,4.584000111E0,8.830050468E0,9.949723483E0
2.687725570E0,1.570500135E-1,4.545000076E0,8.830050468E0,9.932345225E0
2.689688678E0,1.570500135E-1,4.584000111E0,8.869050026E0,9.984877069E0
2.691652110E0,1.570500135E-1,4.584000111E0,8.869050026E0,9.984877069E0
2.693615447E0,1.189500093E-1,4.584000111E0,8.869050026E0,9.984350479E0
2.695578810E0,1.570500135E-1,4.584000111E0,8.791950226E0,9.916456549E0
2.697542155E0,1.570500135E-1,4.584000111E0,8.791950226E0,9.916456549E0
2.699505726E0,1.570500135E-1,4.621950150E0,8.869050026E0,1.000235654E1
2.701469231E0,1.189500093E-1,4.584000111E0,8.869050026E0,9.984350479E0
2.703432642E0,1.189500093E-1,4.584000111E0,8.791950226E0,9.915926325E0
2.705396080E0,1.189500093E-1,4.621950150E0,8.830050468E0,9.967264598E0
2.707359424E0,1.189500093E-1,4.621950150E0,8.791950226E0,9.933527121E0
2.709322786E0,1.189500093E-1,4.621950150E0,8.830050468E0,9.967264598E0
2.711286173E0,8.100000024E-2,4.660050392E0,8.791950226E0,9.950930581E0
2.713249553E0,1.189500093E-1,4.621950150E0,8.830050468E0,9.967264598E0
2.715213119E0,8.100000024E-2,4.621950150E0,8.791950226E0,9.933145169E0
2.717176630E0,1.189500093E-1,4.584000111E0,8.791950226E0,9.915926325E0
2.719139975E0,1.189500093E-1,4.584000111E0,8.791950226E0,9.915926325E0
2.721103382E0,8.100000024E-2,4.621950150E0,8.830050468E0,9.966883939E0
2.723066763E0,8.100000024E-2,4.660050392E0,8.830050468E0,9.984609253E0
2.725030152E0,1.189500093E-1,4.621950150E0,8.830050468E0,9.967264598E0
2.726993715E0,8.100000024E-2,4.621950150E0,8.830050468E0,9.966883939E0
2.728957227E0,8.100000024E-2,4.621950150E0,8.791950226E0,9.933145169E0
2.730920650E0,8.100000024E-2,4.621950150E0,8.791950226E0,9.933145169E0
2.732884089E0,1.189500093E-1,4.621950150E0,8.791950226E0,9.933527121E0
2.734847959E0,8.100000024E-2,4.621950150E0,8.791950226E0,9.933145169E0
2.736811702E0,8.100000024E-2,4.584000111E0,8.791950226E0,9.915543696E0
2.738775432E0,8.100000024E-2,4.584000111E0,8.791950226E0,9.915543696E0
2.740739166E0,1.189500093E-1,4.584000111E0,8.754000664E0,9.882293951E0
2.742702626E0,1.189500093E-1,4.621950150E0,8.791950226E0,9.933527121E0
2.744666166E0,1.189500093E-1,4.545000076E0,8.791950226E0,9.897957545E0
2.746629704E0,1.189500093E-1,4.584000111E0,8.754000664E0,9.882293951E0
2.748593243E0,1.189500093E-1,4.621950150E0,8.754000664E0,9.899954541E0
2.750556601E0,8.100000024E-2,4.621950150E0,8.791950226E0,9.933145169E0
2.752520012E0,1.570500135E-1,4.660050392E0,8.715000153E0,9.883924424E0
2.754483397E0,1.189500093E-1,4.621950150E0,8.754000664E0,9.899954541E0
2.756446786E0,1.189500093E-1,4.621950150E0,8.754000664E0,9.899954541E0
2.758410035E0,8.100000024E-2,4.660050392E0,8.754000664E0,9.917416916E0
2.760373325E0,1.189500093E-1,4.621950150E0,8.715000153E0,9.865485287E0
2.762336904E0,1.189500093E-1,4.660050392E0,8.791950226E0,9.951311850E0
2.764300399E0,8.100000024E-2,4.621950150E0,8.677050591E0,9.831591485E0
2.766263959E0,8.100000024E-2,4.621950150E0,8.754000664E0,9.899571294E0
2.768227490E0,8.100000024E-2,4.660050392E0,8.791950226E0,9.950930581E0
2.770190851E0,8.100000024E-2,4.621950150E0,8.791950226E0,9.933145169E0
2.772154262E0,1.189500093E-1,4.621950150E0,8.754000664E0,9.899954541E0
2.774117461E0,8.100000024E-2,4.660050392E0,8.791950226E0,9.950930581E0
2.776080723E0,8.100000024E-2,4.621950150E0,8.754000664E0,9.899571294E0
2.778044098E0,1.189500093E-1,4.621950150E0,8.754000664E0,9.899954541E0
2.780007429E0,8.100000024E-2,4.621950150E0,8.830050468E0,9.966883939E0
2.781971048E0,1.189500093E-1,4.584000111E0,8.791950226E0,9.915926325E0
2.783934582E0,1.189500093E-1,4.584000111E0,8.830050468E0,9.949723483E0
2.785898121E0,1.189500093E-1,4.621950150E0,8.791950226E0,9.933527121E0
2.787861659E0,4.200000316E-2,4.584000111E0,8.869050026E0,9.983730234E0
2.789825309E0,1.189500093E-1,4.584000111E0,8.869050026E0,9.984350479E0
2.791788943E0,1.189500093E-1,4.584000111E0,8.869050026E0,9.984350479E0
2.793752511E0,1.189500093E-1,4.584000111E0,8.830050468E0,9.949723483E0
2.795716099E0,1.189500093E-1,4.584000111E0,8.869050026E0,9.984350479E0
2.797679629E0,1.570500135E-1,4.621950150E0,8.791950226E0,9.934056405E0
2.799643176E0,8.100000024E-2,4.584000111E0,8.791950226E0,9.915543696E0
2.801607060E0,1.189500093E-1,4.545000076E0,8.907000542E0,1.000029167E1
2.803570822E0,8.100000024E-2,4.584000111E0,8.830050468E0,9.949342154E0
2.805534323E0,1.189500093E-1,4.584000111E0,8.869050026E0,9.984350479E0
2.807497901E0,8.100000024E-2,4.621950150E0,8.869050026E0,1.000145152E1
2.809461297E0,8.100000024E-2,4.584000111E0,8.830050468E0,9.949342154E0
2.811424747E0,1.960500032E-1,4.584000111E0,8.830050468E0,9.950943869E0
2.813388469E0,1.189500093E-1,4.621950150E0,8.791950226E0,9.933527121E0
2.815352087E0,1.189500093E-1,4.545000076E0,8.869050026E0,9.966505063E0
2.817315433E0,8.100000024E-2,4.621950150E0,8.830050468E0,9.966883939E0
2.819278858E0,1.189500093E-1,4.621950150E0,8.791950226E0,9.933527121E0
2.821242235E0,1.189500093E-1,4.621950150E0,8.791950226E0,9.933527121E0
2.823205627E0,1.570500135E-1,4.584000111E0,8.791950226E0,9.916456549E0
2.825169230E0,1.960500032E-1,4.621950150E0,8.754000664E0,9.901181061E0
2.827132774E0,1.189500093E-1,4.584000111E0,8.791950226E0,9.915926325E0
2.829096447E0,1.189500093E-1,4.545000076E0,8.754000664E0,9.864263907E0
2.831060082E0,1.189500093E-1,4.584000111E0,8.791950226E0,9.915926325E0
2.833023830E0,1.960500032E-1,4.584000111E0,8.754000664E0,9.883522663E0
2.834987544E0,1.960500032E-1,4.545000076E0,8.791950226E0,9.899184313E0
2.836951058E0,1.960500032E-1,4.584000111E0,8.754000664E0,9.883522663E0
2.838914627E0,1.960500032E-1,4.584000111E0,8.791950226E0,9.917150871E0
2.840878160E0,1.960500032E-1,4.584000111E0,8.791950226E0,9.917150871E0
2.842841704E0,1.960500032E-1,4.584000111E0,8.830050468E0,9.950943869E0
2.844805196E0,2.340000123E-1,4.545000076E0,8.830050468E0,9.933859923E0
2.846768704E0,1.960500032E-1,4.545000076E0,8.830050468E0,9.933038436E0
2.848731805E0,2.340000123E-1,4.545000076E0,8.869050026E0,9.968542023E0
2.850694988E0,1.960500032E-1,4.545000076E0,8.830050468E0,9.933038436E0
2.852658722E0,1.960500032E-1,4.545000076E0,8.830050468E0,9.933038436E0
2.854622294E0,1.570500135E-1,4.545000076E0,8.830050468E0,9.932345225E0
2.856585512E0,1.960500032E-1,4.584000111E0,8.830050468E0,9.950943869E0
2.858548834E0,1.960500032E-1,4.545000076E0,8.830050468E0,9.933038436E0
2.860512456E0,1.570500135E-1,4.545000076E0,8.869050026E0,9.967032596E0
2.862475956E0,1.570500135E-1,4.545000076E0,8.869050026E0,9.967032596E0
2.864439637E0,1.189500093E-1,4.545000076E0,8.869050026E0,9.966505063E0
2.866403264E0,1.570500135E-1,4.545000076E0,8.907000542E0,1.000081742E1
2.868366653E0,1.960500032E-1,4.545000076E0,8.907000542E0,1.000150588E1
2.870330112E0,1.189500093E-1,4.584000111E0,8.869050026E0,9.984350479E0
2.872293653E0,1.570500135E-1,4.621950150E0,8.907000542E0,1.003602245E1
2.874257177E0,1.189500093E-1,4.584000111E0,8.869050026E0,9.984350479E0
2.876220674E0,1.570500135E-1,4.545000076E0,8.830050468E0,9.932345225E0
2.878184179E0,1.189500093E-1,4.584000111E0,8.907000542E0,1.001807690E1
2.880147722E0,1.570500135E-1,4.584000111E0,8.869050026E0,9.984877069E0
2.882111254E0,1.570500135E-1,4.584000111E0,8.830050468E0,9.950251906E0
2.884074794E0,1.570500135E-1,4.621950150E0,8.907000542E0,1.003602245E1
2.886038331E0,1.570500135E-1,4.545000076E0,8.944950104E0,1.003463117E1
2.888001690E0,1.189500093E-1,4.584000111E0,8.869050026E0,9.984350479E0
2.889965102E0,1.189500093E-1,4.545000076E0,8.869050026E0,9.966505063E0
2.891928661E0,1.570500135E-1,4.584000111E0,8.869050026E0,9.984877069E0
2.893892177E0,1.189500093E-1,4.545000076E0,8.907000542E0,1.000029167E1
2.895855682E0,1.189500093E-1,4.545000076E0,8.869050026E0,9.966505063E0
2.897819217E0,8.100000024E-2,4.507050037E0,8.869050026E0,9.948874781E0
2.899782397E0,1.189500093E-1,4.545000076E0,8.907000542E0,1.000029167E1
2.901745681E0,1.189500093E-1,4.545000076E0,8.869050026E0,9.966505063E0
2.903709127E0,1.189500093E-1,4.545000076E0,8.907000542E0,1.000029167E1
2.905672525E0,1.189500093E-1,4.584000111E0,8.869050026E0,9.984350479E0
2.907635741E0,1.570500135E-1,4.545000076E0,8.869050026E0,9.967032596E0
2.909599001E0,1.189500093E-1,4.545000076E0,8.869050026E0,9.966505063E0
2.911562182E0,1.189500093E-1,4.545000076E0,8.830050468E0,9.931815850E0
2.913525386E0,1.189500093E-1,4.545000076E0,8.907000542E0,1.000029167E1
2.915488665E0,1.189500093E-1,4.545000076E0,8.830050468E0,9.931815850E0
2.917451922E0,1.570500135E-1,4.584000111E0,8.830050468E0,9.950251906E0
2.919415649E0,1.189500093E-1,4.545000076E0,8.830050468E0,9.931815850E0
2.921379235E0,1.189500093E-1,4.545000076E0,8.791950226E0,9.897957545E0
2.923342766E0,1.189500093E-1,4.584000111E0,8.830050468E0,9.949723483E0
2.925306314E0,1.570500135E-1,4.507050037E0,8.830050468E0,9.915036864E0
2.927269851E0,1.189500093E-1,4.507050037E0,8.754000664E0,9.846835876E0
2.929233391E0,1.189500093E-1,4.545000076E0,8.830050468E0,9.931815850E0
2.931196915E0,8.100000024E-2,4.584000111E0,8.791950226E0,9.915543696E0
2.933160454E0,1.189500093E-1,4.584000111E0,8.830050468E0,9.949723483E0
2.935123631E0,1.189500093E-1,4.545000076E0,8.791950226E0,9.897957545E0
2.937086915E0,1.570500135E-1,4.584000111E0,8.791950226E0,9.916456549E0
2.939050677E0,1.570500135E-1,4.584000111E0,8.830050468E0,9.950251906E0
2.941014298E0,1.189500093E-1,4.584000111E0,8.791950226E0,9.915926325E0
2.942978197E0,1.189500093E-1,4.545000076E0,8.754000664E0,9.864263907E0
2.944942004E0,1.189500093E-1,4.584000111E0,8.791950226E0,9.915926325E0
2.946905363E0,1.570500135E-1,4.545000076E0,8.754000664E0,9.864796907E0
2.948868853E0,1.189500093E-1,4.584000111E0,8.754000664E0,9.882293951E0
2.950832399E0,1.189500093E-1,4.584000111E0,8.830050468E0,9.949723483E0
2.952795928E0,1.189500093E-1,4.584000111E0,8.830050468E0,9.949723483E0
2.954759280E0,1.570500135E-1,4.584000111E0,8.791950226E0,9.916456549E0
2.956722690E0,1.570500135E-1,4.660050392E0,8.754000664E0,9.918329597E0
2.958686025E0,1.189500093E-1,4.584000111E0,8.791950226E0,9.915926325E0
2.960649382E0,1.189500093E-1,4.584000111E0,8.754000664E0,9.882293951E0
2.962612456E0,1.189500093E-1,4.660050392E0,8.791950226E0,9.951311850E0
2.964575613E0,8.100000024E-2,4.621950150E0,8.715000153E0,9.865100701E0
2.966539039E0,1.570500135E-1,4.621950150E0,8.754000664E0,9.900485620E0
2.968502384E0,4.200000316E-2,4.660050392E0,8.754000664E0,9.917175065E0
2.970465911E0,8.100000024E-2,4.621950150E0,8.754000664E0,9.899571294E0
2.972429384E0,1.189500093E-1,4.621950150E0,8.791950226E0,9.933527121E0
2.974392439E0,8.100000024E-2,4.621950150E0,8.791950226E0,9.933145169E0
2.976355617E0,1.189500093E-1,4.660050392E0,8.869050026E0,1.001949435E1
2.978319212E0,8.100000024E-2,4.545000076E0,8.791950226E0,9.897574221E0
2.980282688E0,1.189500093E-1,4.621950150E0,8.791950226E0,9.933527121E0
2.982245877E0,1.189500093E-1,4.584000111E0,8.791950226E0,9.915926325E0
2.984209151E0,1.189500093E-1,4.584000111E0,8.754000664E0,9.882293951E0
2.986172914E0,1.189500093E-1,4.584000111E0,8.830050468E0,9.949723483E0
2.988136534E0,1.189500093E-1,4.621950150E0,8.830050468E0,9.967264598E0
2.990099805E0,8.100000024E-2,4.584000111E0,8.830050468E0,9.949342154E0
2.992063199E0,1.189500093E-1,4.621950150E0,8.830050468E0,9.967264598E0
2.994026761E0,1.570500135E-1,4.584000111E0,8.830050468E0,9.950251906E0
2.995990274E0,1.189500093E-1,4.584000111E0,8.791950226E0,9.915926325E0
2.997953458E0,1.189500093E-1,4.621950150E0,8.830050468E0,9.967264598E0
2.999916738E0,1.189500093E-1,4.545000076E0,8.830050468E0,9.931815850E0
3.001880120E0,1.570500135E-1,4.584000111E0,8.791950226E0,9.916456549E0
3.003843486E0,1.189500093E-1,4.584000111E0,8.830050468E0,9.949723483E0
3.005806740E0,1.570500135E-1,4.621950150E0,8.830050468E0,9.967792091E0
3.007770027E0,1.570500135E-1,4.621950150E0,8.830050468E0,9.967792091E0
3.009733382E0,8.100000024E-2,4.584000111E0,8.907000542E0,1.001769817E1
3.011696717E0,1.570500135E-1,4.545000076E0,8.869050026E0,9.967032596E0
3.013660160E0,1.570500135E-1,4.545000076E0,8.869050026E0,9.967032596E0
3.015623568E0,1.570500135E-1,4.507050037E0,8.869050026E0,9.949784576E0
3.017587084E0,1.570500135E-1,4.545000076E0,8.907000542E0,1.000081742E1
3.019550568E0,1.960500032E-1,4.545000076E0,8.830050468E0,9.933038436E0
3.021513757E0,1.570500135E-1,4.584000111E0,8.791950226E0,9.916456549E0
3.023477032E0,1.189500093E-1,4.545000076E0,8.869050026E0,9.966505063E0
3.025440503E0,1.189500093E-1,4.545000076E0,8.869050026E0,9.966505063E0
3.027403900E0,1.570500135E-1,4.584000111E0,8.869050026E0,9.984877069E0
3.029367283E0,1.570500135E-1,4.507050037E0,8.907000542E0,9.983627767E0
3.031330671E0,1.570500135E-1,4.507050037E0,8.944950104E0,1.001749954E1
3.033294010E0,1.570500135E-1,4.545000076E0,8.869050026E0,9.967032596E0
3.035257363E0,1.189500093E-1,4.545000076E0,8.907000542E0,1.000029167E1
3.037220757E0,1.960500032E-1,4.507050037E0,8.907000542E0,9.984317417E0
3.039184136E0,1.960500032E-1,4.545000076E0,8.944950104E0,1.003531732E1
3.041147522E0,2.340000123E-1,4.545000076E0,8.907000542E0,1.000232175E1
3.043110905E0,1.960500032E-1,4.545000076E0,8.907000542E0,1.000150588E1
3.045074335E0,1.960500032E-1,4.545000076E0,8.869050026E0,9.967723394E0
3.047037751E0,1.570500135E-1,4.507050037E0,8.907000542E0,9.983627767E0
3.049001296E0,1.570500135E-1,4.545000076E0,8.869050026E0,9.967032596E0
3.050964813E0,1.960500032E-1,4.545000076E0,8.869050026E0,9.967723394E0
3.052928311E0,1.570500135E-1,4.507050037E0,8.830050468E0,9.915036864E0
3.054891815E0,1.570500135E-1,4.545000076E0,8.830050468E0,9.932345225E0
3.056855179E0,1.960500032E-1,4.545000076E0,8.830050468E0,9.933038436E0
3.058818584E0,1.570500135E-1,4.545000076E0,8.869050026E0,9.967032596E0
3.060782349E0,1.960500032E-1,4.545000076E0,8.869050026E0,9.967723394E0
3.062745991E0,1.960500032E-1,4.507050037E0,8.907000542E0,9.984317417E0
3.064709692E0,1.570500135E-1,4.584000111E0,8.830050468E0,9.950251906E0
3.066673375E0,1.960500032E-1,4.545000076E0,8.830050468E0,9.933038436E0
3.068636935E0,1.570500135E-1,4.507050037E0,8.791950226E0,9.881121066E0
3.070600531E0,1.960500032E-1,4.545000076E0,8.791950226E0,9.899184313E0
3.072563830E0,1.570500135E-1,4.545000076E0,8.830050468E0,9.932345225E0
3.074527219E0,1.570500135E-1,4.545000076E0,8.830050468E0,9.932345225E0
3.076490781E0,1.570500135E-1,4.545000076E0,8.754000664E0,9.864796907E0
3.078454293E0,1.960500032E-1,4.584000111E0,8.791950226E0,9.917150871E0
3.080418017E0,1.189500093E-1,4.545000076E0,8.830050468E0,9.931815850E0
3.082381678E0,1.570500135E-1,4.584000111E0,8.869050026E0,9.984877069E0
3.084345081E0,1.570500135E-1,4.584000111E0,8.830050468E0,9.950251906E0
3.086308546E0,1.960500032E-1,4.584000111E0,8.791950226E0,9.917150871E0
3.088272096E0,1.570500135E-1,4.621950150E0,8.869050026E0,1.000235654E1
3.090235621E0,1.960500032E-1,4.545000076E0,8.830050468E0,9.933038436E0
3.092199342E0,1.570500135E-1,4.584000111E0,8.830050468E0,9.950251906E0
3.094163006E0,1.960500032E-1,4.507050037E0,8.830050468E0,9.915731285E0
3.096126823E0,1.570500135E-1,4.584000111E0,8.791950226E0,9.916456549E0
3.098090606E0,1.960500032E-1,4.584000111E0,8.830050468E0,9.950943869E0
3.100054149E0,1.570500135E-1,4.584000111E0,8.869050026E0,9.984877069E0
3.102017762E0,1.570500135E-1,4.621950150E0,8.869050026E0,1.000235654E1
3.103981107E0,1.189500093E-1,4.545000076E0,8.830050468E0,9.931815850E0
3.105944531E0,1.570500135E-1,4.584000111E0,8.791950226E0,9.916456549E0
3.107908088E0,1.189500093E-1,4.584000111E0,8.830050468E0,9.949723483E0
3.109871606E0,1.570500135E-1,4.584000111E0,8.830050468E0,9.950251906E0
3.111835148E0,1.189500093E-1,4.621950150E0,8.830050468E0,9.967264598E0
3.113798683E0,1.570500135E-1,4.584000111E0,8.830050468E0,9.950251906E0
3.115762358E0,1.570500135E-1,4.621950150E0,8.830050468E0,9.967792091E0
3.117725991E0,1.189500093E-1,4.584000111E0,8.869050026E0,9.984350479E0
3.119689398E0,1.189500093E-1,4.584000111E0,8.791950226E0,9.915926325E0
3.121652858E0,1.570500135E-1,4.584000111E0,8.869050026E0,9.984877069E0
3.123616589E0,1.189500093E-1,4.584000111E0,8.869050026E0,9.984350479E0
3.125580241E0,1.189500093E-1,4.584000111E0,8.830050468E0,9.949723483E0
3.127543895E0,1.570500135E-1,4.584000111E0,8.830050468E0,9.950251906E0
3.129507548E0,1.570500135E-1,4.621950150E0,8.830050468E0,9.967792091E0
3.131471044E0,1.189500093E-1,4.621950150E0,8.830050468E0,9.967264598E0
3.133434603E0,1.570500135E-1,4.621950150E0,8.830050468E0,9.967792091E0
3.135398182E0,1.189500093E-1,4.621950150E0,8.869050026E0,1.000183087E1
3.137361755E0,1.189500093E-1,4.621950150E0,8.830050468E0,9.967264598E0
3.139325423E0,1.189500093E-1,4.621950150E0,8.869050026E0,1.000183087E1
3.141289063E0,1.189500093E-1,4.621950150E0,8.830050468E0,9.967264598E0
3.143252804E0,1.189500093E-1,4.621950150E0,8.830050468E0,9.967264598E0
3.145216519E0,4.200000316E-2,4.621950150E0,8.830050468E0,9.966643290E0
3.147180388E0,1.189500093E-1,4.584000111E0,8.869050026E0,9.984350479E0
3.149144212E0,8.100000024E-2,4.621950150E0,8.830050468E0,9.966883939E0
3.151107882E0,8.100000024E-2,4.584000111E0,8.830050468E0,9.949342154E0
3.153071598E0,1.189500093E-1,4.584000111E0,8.869050026E0,9.984350479E0
3.155034917E0,1.189500093E-1,4.621950150E0,8.830050468E0,9.967264598E0
3.156998359E0,8.100000024E-2,4.621950150E0,8.830050468E0,9.966883939E0
3.158961912E0,8.100000024E-2,4.621950150E0,8.869050026E0,1.000145152E1
3.160925433E0,8.100000024E-2,4.584000111E0,8.791950226E0,9.915543696E0
3.162888975E0,1.189500093E-1,4.660050392E0,8.791950226E0,9.951311850E0
3.164852510E0,1.189500093E-1,4.584000111E0,8.830050468E0,9.949723483E0
3.166816190E0,8.100000024E-2,4.584000111E0,8.830050468E0,9.949342154E0
3.168779823E0,1.189500093E-1,4.621950150E0,8.791950226E0,9.933527121E0
3.170743571E0,1.189500093E-1,4.584000111E0,8.791950226E0,9.915926325E0
3.172707285E0,1.189500093E-1,4.584000111E0,8.754000664E0,9.882293951E0
3.174670749E0,8.100000024E-2,4.621950150E0,8.754000664E0,9.899571294E0
3.176634287E0,1.189500093E-1,4.545000076E0,8.791950226E0,9.897957545E0
3.178597884E0,1.189500093E-1,4.545000076E0,8.791950226E0,9.897957545E0
3.180561453E0,1.189500093E-1,4.621950150E0,8.791950226E0,9.933527121E0
3.182525121E0,8.100000024E-2,4.584000111E0,8.754000664E0,9.881910020E0
3.184488760E0,1.189500093E-1,4.545000076E0,8.791950226E0,9.897957545E0
3.186452327E0,1.189500093E-1,4.584000111E0,8.791950226E0,9.915926325E0
3.188415916E0,1.189500093E-1,4.621950150E0,8.830050468E0,9.967264598E0
3.190379465E0,1.189500093E-1,4.584000111E0,8.830050468E0,9.949723483E0
3.192343012E0,1.189500093E-1,4.584000111E0,8.869050026E0,9.984350479E0
3.194306549E0,8.100000024E-2,4.584000111E0,8.869050026E0,9.983970472E0
3.196270089E0,1.189500093E-1,4.621950150E0,8.830050468E0,9.967264598E0
3.198233582E0,1.189500093E-1,4.621950150E0,8.830050468E0,9.967264598E0
3.200197089E0,4.200000316E-2,4.621950150E0,8.869050026E0,1.000121170E1
3.202160092E0,1.189500093E-1,4.621950150E0,8.830050468E0,9.967264598E0
3.204123243E0,1.189500093E-1,4.584000111E0,8.869050026E0,9.984350479E0
3.206086486E0,1.570500135E-1,4.545000076E0,8.791950226E0,9.898488732E0
3.208049702E0,1.189500093E-1,4.584000111E0,8.830050468E0,9.949723483E0
3.210012981E0,1.570500135E-1,4.584000111E0,8.830050468E0,9.950251906E0
3.211976241E0,1.570500135E-1,4.584000111E0,8.791950226E0,9.916456549E0
3.213939939E0,1.189500093E-1,4.584000111E0,8.791950226E0,9.915926325E0
3.215903525E0,1.570500135E-1,4.621950150E0,8.791950226E0,9.934056405E0
3.217867235E0,1.570500135E-1,4.545000076E0,8.791950226E0,9.898488732E0
3.219830909E0,1.570500135E-1,4.584000111E0,8.791950226E0,9.916456549E0
3.221794605E0,1.189500093E-1,4.621950150E0,8.791950226E0,9.933527121E0
3.223758294E0,1.570500135E-1,4.545000076E0,8.791950226E0,9.898488732E0
3.225721987E0,1.570500135E-1,4.584000111E0,8.791950226E0,9.916456549E0
3.227685678E0,1.960500032E-1,4.545000076E0,8.830050468E0,9.933038436E0
3.229649191E0,1.960500032E-1,4.545000076E0,8.791950226E0,9.899184313E0
3.231612757E0,1.960500032E-1,4.545000076E0,8.791950226E0,9.899184313E0
3.233576291E0,1.189500093E-1,4.584000111E0,8.791950226E0,9.915926325E0
3.235539834E0,1.570500135E-1,4.545000076E0,8.830050468E0,9.932345225E0
3.237503546E0,1.570500135E-1,4.584000111E0,8.791950226E0,9.916456549E0
3.239467212E0,1.960500032E-1,4.584000111E0,8.791950226E0,9.917150871E0
3.241430909E0,1.960500032E-1,4.545000076E0,8.754000664E0,9.865494864E0
3.243394597E0,1.570500135E-1,4.545000076E0,8.791950226E0,9.898488732E0
3.245358110E0,1.960500032E-1,4.584000111E0,8.754000664E0,9.883522663E0
3.247321675E0,1.570500135E-1,4.584000111E0,8.791950226E0,9.916456549E0
3.249284894E0,1.960500032E-1,4.545000076E0,8.754000664E0,9.865494864E0
3.251248214E0,1.570500135E-1,4.584000111E0,8.754000664E0,9.882825980E0
3.253211608E0,1.570500135E-1,4.545000076E0,8.791950226E0,9.898488732E0
3.255174981E0,1.570500135E-1,4.545000076E0,8.791950226E0,9.898488732E0
3.257138008E0,1.189500093E-1,4.545000076E0,8.754000664E0,9.864263907E0
3.259101137E0,1.960500032E-1,4.545000076E0,8.791950226E0,9.899184313E0
3.261064719E0,2.340000123E-1,4.545000076E0,8.791950226E0,9.900008610E0
3.263028154E0,1.570500135E-1,4.584000111E0,8.791950226E0,9.916456549E0
3.264991710E0,1.570500135E-1,4.584000111E0,8.791950226E0,9.916456549E0
3.266955231E0,1.960500032E-1,4.545000076E0,8.754000664E0,9.865494864E0
3.268918953E0,1.570500135E-1,4.584000111E0,8.791950226E0,9.916456549E0
3.270882616E0,1.960500032E-1,4.545000076E0,8.791950226E0,9.899184313E0
3.272845809E0,1.960500032E-1,4.621950150E0,8.791950226E0,9.934749497E0
3.274809147E0,1.570500135E-1,4.545000076E0,8.754000664E0,9.864796907E0
3.276772538E0,1.570500135E-1,4.545000076E0,8.791950226E0,9.898488732E0
3.278735914E0,1.570500135E-1,4.545000076E0,8.754000664E0,9.864796907E0
3.280699435E0,1.189500093E-1,4.545000076E0,8.830050468E0,9.931815850E0
3.282662914E0,1.570500135E-1,4.584000111E0,8.754000664E0,9.882825980E0
3.284626342E0,1.570500135E-1,4.584000111E0,8.791950226E0,9.916456549E0
3.286589776E0,1.960500032E-1,4.621950150E0,8.830050468E0,9.968482837E0
3.288553153E0,1.960500032E-1,4.584000111E0,8.830050468E0,9.950943869E0
3.290516546E0,1.960500032E-1,4.584000111E0,8.869050026E0,9.985566633E0
3.292480063E0,1.189500093E-1,4.584000111E0,8.830050468E0,9.949723483E0
3.294443544E0,1.570500135E-1,4.584000111E0,8.830050468E0,9.950251906E0
3.296407058E0,1.570500135E-1,4.584000111E0,8.791950226E0,9.916456549E0
3.298370587E0,1.570500135E-1,4.584000111E0,8.830050468E0,9.950251906E0
3.300333993E0,1.570500135E-1,4.584000111E0,8.869050026E0,9.984877069E0
3.302297435E0,1.189500093E-1,4.584000111E0,8.830050468E0,9.949723483E0
3.304260989E0,1.570500135E-1,4.584000111E0,8.830050468E0,9.950251906E0
3.306224510E0,1.189500093E-1,4.621950150E0,8.830050468E0,9.967264598E0
3.308188008E0,1.960500032E-1,4.545000076E0,8.869050026E0,9.967723394E0
3.310151513E0,8.100000024E-2,4.584000111E0,8.869050026E0,9.983970472E0
3.312114741E0,1.570500135E-1,4.584000111E0,8.869050026E0,9.984877069E0
3.314078051E0,1.960500032E-1,4.584000111E0,8.830050468E0,9.950943869E0
3.316041403E0,1.570500135E-1,4.545000076E0,8.869050026E0,9.967032596E0
3.318004742E0,1.189500093E-1,4.545000076E0,8.830050468E0,9.931815850E0
3.319968129E0,1.570500135E-1,4.545000076E0,8.869050026E0,9.967032596E0
3.321931506E0,1.570500135E-1,4.545000076E0,8.869050026E0,9.967032596E0
3.323894533E0,1.960500032E-1,4.545000076E0,8.907000542E0,1.000150588E1
3.325857662E0,1.570500135E-1,4.545000076E0,8.869050026E0,9.967032596E0
3.327821089E0,1.570500135E-1,4.584000111E0,8.869050026E0,9.984877069E0
3.329784429E0,1.570500135E-1,4.507050037E0,8.907000542E0,9.983627767E0
3.331747851E0,1.570500135E-1,4.545000076E0,8.869050026E0,9.967032596E0
3.333711260E0,1.960500032E-1,4.545000076E0,8.869050026E0,9.967723394E0
