"Time (s)","Acceleration x (m/s^2)","Acceleration y (m/s^2)","Acceleration z (m/s^2)","Absolute acceleration (m/s^2)"
3.224051800E-2,3.490500152E-1,4.009050369E0,9.060000420E0,9.913522501E0
3.420261800E-2,3.490500152E-1,4.009050369E0,8.983950615E0,9.844068744E0
3.616728800E-2,3.490500152E-1,3.970950127E0,9.060000420E0,9.898176015E0
3.813031700E-2,3.490500152E-1,4.009050369E0,9.022050858E0,9.878852284E0
4.009382600E-2,3.490500152E-1,4.009050369E0,8.983950615E0,9.844068744E0
4.205713400E-2,3.870000243E-1,4.009050369E0,9.022050858E0,9.880265966E0
4.402050800E-2,3.870000243E-1,4.009050369E0,9.022050858E0,9.880265966E0
4.598393900E-2,3.870000243E-1,4.009050369E0,9.022050858E0,9.880265966E0
4.794735300E-2,4.260000288E-1,4.047000408E0,9.060000420E0,9.931933142E0
4.991050800E-2,4.260000288E-1,4.009050369E0,9.060000420E0,9.916530063E0
5.187373900E-2,4.260000288E-1,4.047000408E0,9.098999977E0,9.967521704E0
5.383700400E-2,3.870000243E-1,4.009050369E0,9.060000420E0,9.914931240E0
5.580026600E-2,4.260000288E-1,4.009050369E0,9.060000420E0,9.916530063E0
5.776362600E-2,4.639500082E-1,3.970950127E0,9.098999977E0,9.938586172E0
5.972695800E-2,4.639500082E-1,4.009050369E0,9.060000420E0,9.918232810E0
6.169039700E-2,4.639500082E-1,3.931950092E0,9.098999977E0,9.923068161E0
6.365380400E-2,4.639500082E-1,3.970950127E0,9.098999977E0,9.938586172E0
6.561695300E-2,4.639500082E-1,3.970950127E0,9.098999977E0,9.938586172E0
6.758021500E-2,5.020500422E-1,3.970950127E0,9.098999977E0,9.940437603E0
6.954326000E-2,4.260000288E-1,3.894000292E0,9.136950493E0,9.941256390E0
7.150636900E-2,4.639500082E-1,4.009050369E0,9.136950493E0,9.988573411E0
7.346939500E-2,4.639500082E-1,3.931950092E0,9.098999977E0,9.923068161E0
7.543244600E-2,4.639500082E-1,3.894000292E0,9.136950493E0,9.942954902E0
7.739539200E-2,5.020500422E-1,3.931950092E0,9.060000420E0,9.889180622E0
7.935836900E-2,4.639500082E-1,3.931950092E0,9.136950493E0,9.957878562E0
8.132146100E-2,4.260000288E-1,3.931950092E0,9.136950493E0,9.956182595E0
8.328452000E-2,5.020500422E-1,3.894000292E0,9.136950493E0,9.944805520E0
8.524737600E-2,5.410500169E-1,3.894000292E0,9.098999977E0,9.912001512E0
8.721029200E-2,5.020500422E-1,3.931950092E0,9.136950493E0,9.959726406E0
8.917344500E-2,5.020500422E-1,3.894000292E0,9.175050735E0,9.979822068E0
9.113652500E-2,5.020500422E-1,3.931950092E0,9.060000420E0,9.889180622E0
9.309942200E-2,5.020500422E-1,3.931950092E0,9.060000420E0,9.889180622E0
9.506237300E-2,4.639500082E-1,3.894000292E0,9.098999977E0,9.908092070E0
9.702542500E-2,4.639500082E-1,3.894000292E0,9.022050858E0,9.837473739E0
9.898844800E-2,5.020500422E-1,3.894000292E0,9.060000420E0,9.874153134E0
1.009513710E-1,5.020500422E-1,3.931950092E0,9.060000420E0,9.889180622E0
1.029143440E-1,4.639500082E-1,3.894000292E0,9.060000420E0,9.872289273E0
1.048772580E-1,4.639500082E-1,3.931950092E0,9.098999977E0,9.923068161E0
1.068401900E-1,5.020500422E-1,3.931950092E0,9.022050858E0,9.854424765E0
1.088032910E-1,4.639500082E-1,3.931950092E0,9.060000420E0,9.887319593E0
1.107663420E-1,4.639500082E-1,3.931950092E0,9.098999977E0,9.923068161E0
1.127292240E-1,5.020500422E-1,3.894000292E0,9.136950493E0,9.944805520E0
1.146921700E-1,4.639500082E-1,3.894000292E0,9.136950493E0,9.942954902E0
1.166555840E-1,4.260000288E-1,3.931950092E0,9.136950493E0,9.956182595E0
1.186188600E-1,4.260000288E-1,3.894000292E0,9.175050735E0,9.976285396E0
1.205819040E-1,4.639500082E-1,3.931950092E0,9.136950493E0,9.957878562E0
1.225450160E-1,4.260000288E-1,3.894000292E0,9.175050735E0,9.976285396E0
1.245078770E-1,4.639500082E-1,3.894000292E0,9.175050735E0,9.977977946E0
1.264708330E-1,4.260000288E-1,3.894000292E0,9.214050293E0,1.001216446E1
1.284336160E-1,4.639500082E-1,3.931950092E0,9.214050293E0,1.002866910E1
1.303964490E-1,4.260000288E-1,3.931950092E0,9.214050293E0,1.002698511E1
1.323595220E-1,4.260000288E-1,3.931950092E0,9.214050293E0,1.002698511E1
1.343225240E-1,4.260000288E-1,3.931950092E0,9.252000809E0,1.006186993E1
1.362854660E-1,4.260000288E-1,3.894000292E0,9.289950371E0,1.008205793E1
1.382484350E-1,5.020500422E-1,3.894000292E0,9.214050293E0,1.001568846E1
1.402113500E-1,4.260000288E-1,3.931950092E0,9.252000809E0,1.006186993E1
1.421742810E-1,4.639500082E-1,3.894000292E0,9.252000809E0,1.004878136E1
1.441375620E-1,4.639500082E-1,3.894000292E0,9.289950371E0,1.008373273E1
1.461007400E-1,5.020500422E-1,3.894000292E0,9.328050613E0,1.012066306E1
1.480639940E-1,3.870000243E-1,3.931950092E0,9.214050293E0,1.002540390E1
1.500272160E-1,4.260000288E-1,3.894000292E0,9.252000809E0,1.004710074E1
1.519900440E-1,4.639500082E-1,3.856050253E0,9.214050293E0,9.999154762E0
1.539529870E-1,4.639500082E-1,3.931950092E0,9.252000809E0,1.006354809E1
1.559161310E-1,3.870000243E-1,3.931950092E0,9.252000809E0,1.006029421E1
1.578792160E-1,4.260000288E-1,3.894000292E0,9.252000809E0,1.004710074E1
1.598420520E-1,3.870000243E-1,3.894000292E0,9.252000809E0,1.004552270E1
1.618049720E-1,4.639500082E-1,3.931950092E0,9.252000809E0,1.006354809E1
1.637682550E-1,4.260000288E-1,3.894000292E0,9.214050293E0,1.001216446E1
1.657314320E-1,4.260000288E-1,3.931950092E0,9.252000809E0,1.006186993E1
1.676947170E-1,4.260000288E-1,3.931950092E0,9.252000809E0,1.006186993E1
1.696579700E-1,4.260000288E-1,3.970950127E0,9.214050293E0,1.004234254E1
1.716209990E-1,3.870000243E-1,3.894000292E0,9.252000809E0,1.004552270E1
1.735841070E-1,4.260000288E-1,3.970950127E0,9.289950371E0,1.011202743E1
1.755473130E-1,4.639500082E-1,3.931950092E0,9.252000809E0,1.006354809E1
1.775104900E-1,4.260000288E-1,3.931950092E0,9.252000809E0,1.006186993E1
1.794735500E-1,4.639500082E-1,3.894000292E0,9.252000809E0,1.004878136E1
1.814366450E-1,4.260000288E-1,3.931950092E0,9.289950371E0,1.009677599E1
1.833999290E-1,4.260000288E-1,3.970950127E0,9.289950371E0,1.011202743E1
1.853631680E-1,3.870000243E-1,3.856050253E0,9.289950371E0,1.006588647E1
1.873265320E-1,3.870000243E-1,3.931950092E0,9.328050613E0,1.013027782E1
1.892898600E-1,3.870000243E-1,3.931950092E0,9.214050293E0,1.002540390E1
1.912525800E-1,3.870000243E-1,3.931950092E0,9.289950371E0,1.009520572E1
1.932154780E-1,4.260000288E-1,3.894000292E0,9.214050293E0,1.001216446E1
1.951787050E-1,4.260000288E-1,3.894000292E0,9.252000809E0,1.004710074E1
1.971418460E-1,4.260000288E-1,3.894000292E0,9.214050293E0,1.001216446E1
1.991051380E-1,3.490500152E-1,3.894000292E0,9.289950371E0,1.007909977E1
2.010683850E-1,4.639500082E-1,3.931950092E0,9.252000809E0,1.006354809E1
2.030313890E-1,4.260000288E-1,3.931950092E0,9.252000809E0,1.006186993E1
2.049944640E-1,4.639500082E-1,3.931950092E0,9.252000809E0,1.006354809E1
2.069568310E-1,4.260000288E-1,3.894000292E0,9.252000809E0,1.004710074E1
2.089194300E-1,4.260000288E-1,3.894000292E0,9.289950371E0,1.008205793E1
2.108824080E-1,4.260000288E-1,3.894000292E0,9.252000809E0,1.004710074E1
2.128452740E-1,4.260000288E-1,3.894000292E0,9.289950371E0,1.008205793E1
2.148082070E-1,4.639500082E-1,3.894000292E0,9.252000809E0,1.004878136E1
2.167711200E-1,4.260000288E-1,3.894000292E0,9.252000809E0,1.004710074E1
2.187336910E-1,3.870000243E-1,3.894000292E0,9.214050293E0,1.001058091E1
2.206963580E-1,4.260000288E-1,3.894000292E0,9.289950371E0,1.008205793E1
2.226591430E-1,4.260000288E-1,3.894000292E0,9.252000809E0,1.004710074E1
2.246218940E-1,4.260000288E-1,3.894000292E0,9.252000809E0,1.004710074E1
2.265846670E-1,3.870000243E-1,3.894000292E0,9.175050735E0,9.974696150E0
2.285474330E-1,4.260000288E-1,3.894000292E0,9.214050293E0,1.001216446E1
2.305103000E-1,4.639500082E-1,3.856050253E0,9.214050293E0,9.999154762E0
2.324731640E-1,4.260000288E-1,3.931950092E0,9.252000809E0,1.006186993E1
2.344362780E-1,4.260000288E-1,3.856050253E0,9.252000809E0,1.003245327E1
2.363993180E-1,4.260000288E-1,3.894000292E0,9.214050293E0,1.001216446E1
2.383624010E-1,4.639500082E-1,3.894000292E0,9.175050735E0,9.977977946E0
2.403254720E-1,4.260000288E-1,3.894000292E0,9.136950493E0,9.941256390E0
2.422885500E-1,4.260000288E-1,3.894000292E0,9.175050735E0,9.976285396E0
2.442516260E-1,4.260000288E-1,3.894000292E0,9.175050735E0,9.976285396E0
2.462148830E-1,4.260000288E-1,3.894000292E0,9.136950493E0,9.941256390E0
2.481780870E-1,4.260000288E-1,3.894000292E0,9.060000420E0,9.870578600E0
2.501411430E-1,5.020500422E-1,3.931950092E0,9.136950493E0,9.959726406E0
2.521042430E-1,5.020500422E-1,3.894000292E0,9.136950493E0,9.944805520E0
2.540672050E-1,5.020500422E-1,3.894000292E0,9.098999977E0,9.909949198E0
2.560301900E-1,4.260000288E-1,3.894000292E0,9.098999977E0,9.906387580E0
2.579932370E-1,5.020500422E-1,3.894000292E0,9.136950493E0,9.944805520E0
2.599562650E-1,4.639500082E-1,3.894000292E0,9.136950493E0,9.942954902E0
2.619195310E-1,5.020500422E-1,3.931950092E0,9.098999977E0,9.924922486E0
2.638827270E-1,5.020500422E-1,3.931950092E0,9.060000420E0,9.889180622E0
2.658459940E-1,4.639500082E-1,3.931950092E0,9.098999977E0,9.923068161E0
2.678092500E-1,5.410500169E-1,3.894000292E0,9.098999977E0,9.912001512E0
2.697726120E-1,5.020500422E-1,3.931950092E0,9.098999977E0,9.924922486E0
2.717359420E-1,4.639500082E-1,3.931950092E0,9.060000420E0,9.887319593E0
2.736995160E-1,5.410500169E-1,3.970950127E0,9.060000420E0,9.906805117E0
2.756630190E-1,5.020500422E-1,3.970950127E0,9.098999977E0,9.940437603E0
2.776265400E-1,5.410500169E-1,3.894000292E0,9.098999977E0,9.912001512E0
2.795900720E-1,5.410500169E-1,3.931950092E0,9.098999977E0,9.926971705E0
2.815532520E-1,5.410500169E-1,3.931950092E0,9.098999977E0,9.926971705E0
2.835165360E-1,5.020500422E-1,3.894000292E0,9.136950493E0,9.944805520E0
2.854799820E-1,5.410500169E-1,3.931950092E0,9.098999977E0,9.926971705E0
2.874433800E-1,5.020500422E-1,3.931950092E0,9.060000420E0,9.889180622E0
2.894067080E-1,4.639500082E-1,3.894000292E0,9.060000420E0,9.872289273E0
2.913700640E-1,5.020500422E-1,3.931950092E0,9.022050858E0,9.854424765E0
2.933336330E-1,5.020500422E-1,3.970950127E0,9.060000420E0,9.904751726E0
2.952971390E-1,5.020500422E-1,3.931950092E0,9.022050858E0,9.854424765E0
2.972606830E-1,5.410500169E-1,3.894000292E0,9.060000420E0,9.876212887E0
2.992242160E-1,5.410500169E-1,3.894000292E0,9.022050858E0,9.841411234E0
3.011875610E-1,4.639500082E-1,3.931950092E0,9.098999977E0,9.923068161E0
3.031509720E-1,5.410500169E-1,3.970950127E0,9.060000420E0,9.906805117E0
3.051141720E-1,4.639500082E-1,3.970950127E0,9.098999977E0,9.938586172E0
3.070774340E-1,4.260000288E-1,4.009050369E0,9.175050735E0,1.002175219E1
3.090406590E-1,4.260000288E-1,4.009050369E0,9.214050293E0,1.005746905E1
3.110038950E-1,3.490500152E-1,3.970950127E0,9.136950493E0,9.968658141E0
3.129669400E-1,3.870000243E-1,3.970950127E0,9.136950493E0,9.970059089E0
3.149300440E-1,3.490500152E-1,4.009050369E0,9.136950493E0,9.983896288E0
3.168932960E-1,3.490500152E-1,4.047000408E0,9.214050293E0,1.006969568E1
3.188565040E-1,3.490500152E-1,4.047000408E0,9.175050735E0,1.003402233E1
3.208197840E-1,3.490500152E-1,4.009050369E0,9.136950493E0,9.983896288E0
3.227830420E-1,3.490500152E-1,4.009050369E0,9.136950493E0,9.983896288E0
3.247464440E-1,3.109500110E-1,4.009050369E0,9.098999977E0,9.947913116E0
3.267098070E-1,3.490500152E-1,4.047000408E0,9.136950493E0,9.999195594E0
3.286731510E-1,3.870000243E-1,4.009050369E0,9.136950493E0,9.985295098E0
3.306365010E-1,3.490500152E-1,3.970950127E0,9.136950493E0,9.968658141E0
3.325998900E-1,3.870000243E-1,4.009050369E0,9.136950493E0,9.985295098E0
3.345632680E-1,4.260000288E-1,3.970950127E0,9.136950493E0,9.971649073E0
3.365266710E-1,4.260000288E-1,3.970950127E0,9.098999977E0,9.936886913E0
3.384900860E-1,4.639500082E-1,3.931950092E0,9.136950493E0,9.957878562E0
3.404534660E-1,4.639500082E-1,3.970950127E0,9.136950493E0,9.973342410E0
3.424168570E-1,5.020500422E-1,3.970950127E0,9.136950493E0,9.975187390E0
3.443804200E-1,4.639500082E-1,3.931950092E0,9.098999977E0,9.923068161E0
3.463439320E-1,5.410500169E-1,3.931950092E0,9.136950493E0,9.961768465E0
3.483074450E-1,4.639500082E-1,3.931950092E0,9.136950493E0,9.957878562E0
3.502709480E-1,5.020500422E-1,3.894000292E0,9.136950493E0,9.944805520E0
3.522341770E-1,5.020500422E-1,3.931950092E0,9.136950493E0,9.959726406E0
3.541974870E-1,5.020500422E-1,3.894000292E0,9.136950493E0,9.944805520E0
3.561612440E-1,5.020500422E-1,3.894000292E0,9.136950493E0,9.944805520E0
3.581248700E-1,5.020500422E-1,3.894000292E0,9.136950493E0,9.944805520E0
3.600881740E-1,5.020500422E-1,3.931950092E0,9.098999977E0,9.924922486E0
3.620515690E-1,5.020500422E-1,3.931950092E0,9.098999977E0,9.924922486E0
3.640149960E-1,5.410500169E-1,3.970950127E0,9.175050735E0,1.001212945E1
3.659784130E-1,5.410500169E-1,3.931950092E0,9.175050735E0,9.996725596E0
3.679413880E-1,5.020500422E-1,3.894000292E0,9.136950493E0,9.944805520E0
3.699044920E-1,5.020500422E-1,3.931950092E0,9.175050735E0,9.994690679E0
3.718677040E-1,4.639500082E-1,3.931950092E0,9.136950493E0,9.957878562E0
3.738309120E-1,5.020500422E-1,3.970950127E0,9.175050735E0,1.001009766E1
3.757941920E-1,4.639500082E-1,3.931950092E0,9.175050735E0,9.992849300E0
3.777574510E-1,4.639500082E-1,3.931950092E0,9.214050293E0,1.002866910E1
3.797206330E-1,4.639500082E-1,3.931950092E0,9.136950493E0,9.957878562E0
3.816838380E-1,4.639500082E-1,3.931950092E0,9.136950493E0,9.957878562E0
3.836470530E-1,5.020500422E-1,3.894000292E0,9.175050735E0,9.979822068E0
3.856102780E-1,5.020500422E-1,3.931950092E0,9.175050735E0,9.994690679E0
3.875733760E-1,5.410500169E-1,3.931950092E0,9.098999977E0,9.926971705E0
3.895365110E-1,5.020500422E-1,3.894000292E0,9.136950493E0,9.944805520E0
3.914999370E-1,5.020500422E-1,3.894000292E0,9.136950493E0,9.944805520E0
3.934632780E-1,4.639500082E-1,3.931950092E0,9.136950493E0,9.957878562E0
3.954266840E-1,4.639500082E-1,3.931950092E0,9.175050735E0,9.992849300E0
3.973900610E-1,4.639500082E-1,3.894000292E0,9.098999977E0,9.908092070E0
3.993534030E-1,4.639500082E-1,3.894000292E0,9.060000420E0,9.872289273E0
4.013167560E-1,4.260000288E-1,3.931950092E0,9.136950493E0,9.956182595E0
4.032803700E-1,5.020500422E-1,3.931950092E0,9.098999977E0,9.924922486E0
4.052439080E-1,5.410500169E-1,3.894000292E0,9.136950493E0,9.946850642E0
4.072070470E-1,4.639500082E-1,3.894000292E0,9.098999977E0,9.908092070E0
4.091702990E-1,5.020500422E-1,3.894000292E0,9.136950493E0,9.944805520E0
4.111338860E-1,5.410500169E-1,3.894000292E0,9.136950493E0,9.946850642E0
4.130973740E-1,5.020500422E-1,3.894000292E0,9.136950493E0,9.944805520E0
4.150605620E-1,5.020500422E-1,3.931950092E0,9.175050735E0,9.994690679E0
4.170238380E-1,5.020500422E-1,3.894000292E0,9.214050293E0,1.001568846E1
4.189874680E-1,5.020500422E-1,3.894000292E0,9.136950493E0,9.944805520E0
4.209509610E-1,4.639500082E-1,3.931950092E0,9.098999977E0,9.923068161E0
4.229140120E-1,4.639500082E-1,3.970950127E0,9.175050735E0,1.000825912E1
4.248771930E-1,4.260000288E-1,3.970950127E0,9.175050735E0,1.000657169E1
4.268405670E-1,5.020500422E-1,3.894000292E0,9.136950493E0,9.944805520E0
4.288038840E-1,5.410500169E-1,3.931950092E0,9.175050735E0,9.996725596E0
4.307671270E-1,5.020500422E-1,3.970950127E0,9.136950493E0,9.975187390E0
4.327304050E-1,4.260000288E-1,3.970950127E0,9.175050735E0,1.000657169E1
4.346934470E-1,5.020500422E-1,3.931950092E0,9.136950493E0,9.959726406E0
4.366565590E-1,4.639500082E-1,3.970950127E0,9.214050293E0,1.004402396E1
4.386196300E-1,5.020500422E-1,3.931950092E0,9.175050735E0,9.994690679E0
4.405827130E-1,4.639500082E-1,3.970950127E0,9.175050735E0,1.000825912E1
4.425460940E-1,4.639500082E-1,3.970950127E0,9.098999977E0,9.938586172E0
4.445093940E-1,3.870000243E-1,3.970950127E0,9.175050735E0,1.000498725E1
4.464724790E-1,4.639500082E-1,3.970950127E0,9.214050293E0,1.004402396E1
4.484356270E-1,4.639500082E-1,4.009050369E0,9.175050735E0,1.002343706E1
4.503986920E-1,3.870000243E-1,4.047000408E0,9.175050735E0,1.003541416E1
4.523617810E-1,3.870000243E-1,4.047000408E0,9.175050735E0,1.003541416E1
4.543249990E-1,4.260000288E-1,3.970950127E0,9.136950493E0,9.971649073E0
4.562881720E-1,4.260000288E-1,3.970950127E0,9.175050735E0,1.000657169E1
4.582512790E-1,4.260000288E-1,4.009050369E0,9.175050735E0,1.002175219E1
4.602144050E-1,4.260000288E-1,4.009050369E0,9.175050735E0,1.002175219E1
4.621774740E-1,4.260000288E-1,4.009050369E0,9.214050293E0,1.005746905E1
4.641405590E-1,4.260000288E-1,4.009050369E0,9.214050293E0,1.005746905E1
4.661033990E-1,4.260000288E-1,4.009050369E0,9.098999977E0,9.952173706E0
4.680663180E-1,3.870000243E-1,4.009050369E0,9.098999977E0,9.950580609E0
4.700292860E-1,3.870000243E-1,3.970950127E0,9.136950493E0,9.970059089E0
4.719922390E-1,4.639500082E-1,3.970950127E0,9.136950493E0,9.973342410E0
4.739553370E-1,4.260000288E-1,3.931950092E0,9.136950493E0,9.956182595E0
4.759183930E-1,4.639500082E-1,3.970950127E0,9.098999977E0,9.938586172E0
4.778813040E-1,4.260000288E-1,3.970950127E0,9.175050735E0,1.000657169E1
4.798442510E-1,4.639500082E-1,3.931950092E0,9.136950493E0,9.957878562E0
4.818075300E-1,4.639500082E-1,3.970950127E0,9.098999977E0,9.938586172E0
4.837707110E-1,4.639500082E-1,3.970950127E0,9.136950493E0,9.973342410E0
4.857337260E-1,4.639500082E-1,3.970950127E0,9.136950493E0,9.973342410E0
4.876967900E-1,5.020500422E-1,3.970950127E0,9.175050735E0,1.001009766E1
4.896600590E-1,5.020500422E-1,3.931950092E0,9.214050293E0,1.003050390E1
4.916232600E-1,5.020500422E-1,3.931950092E0,9.214050293E0,1.003050390E1
4.935863170E-1,4.639500082E-1,3.970950127E0,9.175050735E0,1.000825912E1
4.955494160E-1,5.020500422E-1,3.931950092E0,9.136950493E0,9.959726406E0
4.975127140E-1,4.639500082E-1,3.931950092E0,9.175050735E0,9.992849300E0
4.994759530E-1,5.020500422E-1,3.931950092E0,9.175050735E0,9.994690679E0
5.014390270E-1,4.639500082E-1,3.931950092E0,9.136950493E0,9.957878562E0
5.034021330E-1,5.020500422E-1,3.931950092E0,9.175050735E0,9.994690679E0
5.053652050E-1,4.639500082E-1,3.931950092E0,9.136950493E0,9.957878562E0
5.073282870E-1,4.639500082E-1,3.931950092E0,9.175050735E0,9.992849300E0
5.092913170E-1,5.020500422E-1,3.894000292E0,9.098999977E0,9.909949198E0
5.112543630E-1,5.020500422E-1,3.970950127E0,9.098999977E0,9.940437603E0
5.132174340E-1,5.410500169E-1,3.931950092E0,9.175050735E0,9.996725596E0
5.151805050E-1,5.020500422E-1,3.894000292E0,9.098999977E0,9.909949198E0
5.171434040E-1,4.639500082E-1,3.970950127E0,9.060000420E0,9.902893624E0
5.191063530E-1,5.020500422E-1,3.931950092E0,9.098999977E0,9.924922486E0
5.210694510E-1,4.639500082E-1,3.931950092E0,9.060000420E0,9.887319593E0
5.230325050E-1,5.020500422E-1,3.894000292E0,9.098999977E0,9.909949198E0
5.249956120E-1,4.639500082E-1,3.931950092E0,9.136950493E0,9.957878562E0
5.269587170E-1,5.020500422E-1,3.894000292E0,9.098999977E0,9.909949198E0
5.289217450E-1,4.639500082E-1,3.894000292E0,9.060000420E0,9.872289273E0
5.308847960E-1,4.639500082E-1,3.931950092E0,9.022050858E0,9.852557171E0
5.328480570E-1,4.639500082E-1,3.931950092E0,9.022050858E0,9.852557171E0
5.348112560E-1,5.410500169E-1,3.931950092E0,9.060000420E0,9.891237246E0
5.367741630E-1,4.639500082E-1,3.970950127E0,9.022050858E0,9.868186064E0
5.387371660E-1,4.639500082E-1,3.970950127E0,9.022050858E0,9.868186064E0
5.407004340E-1,4.639500082E-1,3.970950127E0,9.060000420E0,9.902893624E0
5.426636250E-1,4.639500082E-1,3.970950127E0,9.060000420E0,9.902893624E0
5.446268630E-1,5.020500422E-1,4.009050369E0,9.098999977E0,9.955718944E0
5.465900870E-1,4.639500082E-1,3.970950127E0,9.060000420E0,9.902893624E0
5.485531310E-1,4.260000288E-1,3.970950127E0,9.060000420E0,9.901188239E0
5.505162340E-1,4.639500082E-1,4.009050369E0,9.060000420E0,9.918232810E0
5.524791260E-1,4.639500082E-1,4.009050369E0,9.136950493E0,9.988573411E0
5.544420800E-1,3.870000243E-1,4.009050369E0,9.060000420E0,9.914931240E0
5.564051770E-1,4.639500082E-1,3.970950127E0,9.098999977E0,9.938586172E0
5.583682320E-1,4.260000288E-1,4.009050369E0,9.098999977E0,9.952173706E0
5.603311330E-1,4.639500082E-1,3.970950127E0,9.136950493E0,9.973342410E0
5.622940800E-1,5.410500169E-1,4.009050369E0,9.175050735E0,1.002730153E1
5.642571780E-1,5.410500169E-1,4.009050369E0,9.175050735E0,1.002730153E1
5.662202320E-1,5.410500169E-1,3.970950127E0,9.136950493E0,9.977226285E0
5.681829530E-1,5.790000558E-1,3.970950127E0,9.022050858E0,9.874263904E0
5.701457720E-1,5.410500169E-1,3.931950092E0,9.022050858E0,9.856488641E0
5.721086860E-1,5.020500422E-1,3.894000292E0,9.022050858E0,9.839344195E0
5.740715580E-1,5.020500422E-1,3.970950127E0,9.060000420E0,9.904751726E0
5.760345350E-1,5.020500422E-1,3.970950127E0,9.022050858E0,9.870050700E0
5.779974810E-1,5.020500422E-1,3.894000292E0,9.060000420E0,9.874153134E0
5.799605810E-1,4.639500082E-1,3.931950092E0,9.022050858E0,9.852557171E0
5.819236350E-1,5.020500422E-1,3.970950127E0,9.098999977E0,9.940437603E0
5.838864870E-1,5.410500169E-1,3.931950092E0,9.098999977E0,9.926971705E0
5.858494020E-1,5.410500169E-1,3.931950092E0,9.060000420E0,9.891237246E0
5.878123700E-1,5.020500422E-1,3.931950092E0,9.098999977E0,9.924922486E0
5.897753230E-1,4.639500082E-1,3.931950092E0,9.098999977E0,9.923068161E0
5.917386010E-1,5.020500422E-1,3.931950092E0,9.136950493E0,9.959726406E0
5.937017840E-1,5.410500169E-1,3.931950092E0,9.175050735E0,9.996725596E0
5.956649830E-1,5.020500422E-1,3.970950127E0,9.136950493E0,9.975187390E0
5.976281740E-1,5.020500422E-1,3.931950092E0,9.175050735E0,9.994690679E0
5.995914110E-1,5.790000558E-1,3.894000292E0,9.175050735E0,9.983988949E0
6.015546350E-1,5.410500169E-1,3.931950092E0,9.252000809E0,1.006739716E1
6.035186330E-1,5.020500422E-1,3.894000292E0,9.214050293E0,1.001568846E1
6.054824050E-1,5.790000558E-1,3.894000292E0,9.175050735E0,9.983988949E0
6.074449430E-1,5.410500169E-1,3.894000292E0,9.214050293E0,1.001771911E1
6.094078530E-1,5.020500422E-1,3.894000292E0,9.175050735E0,9.979822068E0
6.113710030E-1,5.790000558E-1,3.894000292E0,9.214050293E0,1.001984042E1
6.133340820E-1,5.020500422E-1,3.931950092E0,9.175050735E0,9.994690679E0
6.152971600E-1,5.410500169E-1,3.856050253E0,9.175050735E0,9.967116668E0
6.172602380E-1,5.020500422E-1,3.931950092E0,9.175050735E0,9.994690679E0
6.192233400E-1,5.020500422E-1,3.894000292E0,9.136950493E0,9.944805520E0
6.211864170E-1,5.410500169E-1,3.894000292E0,9.175050735E0,9.981860017E0
6.231498080E-1,5.020500422E-1,3.931950092E0,9.098999977E0,9.924922486E0
6.251131070E-1,5.410500169E-1,3.931950092E0,9.136950493E0,9.961768465E0
6.270758310E-1,6.169500351E-1,3.931950092E0,9.098999977E0,9.931397659E0
6.290387240E-1,5.410500169E-1,3.931950092E0,9.098999977E0,9.926971705E0
6.310020070E-1,5.790000558E-1,3.931950092E0,9.098999977E0,9.929112406E0
6.329651790E-1,5.410500169E-1,3.894000292E0,9.136950493E0,9.946850642E0
6.349284200E-1,5.410500169E-1,3.894000292E0,9.136950493E0,9.946850642E0
6.368916400E-1,5.790000558E-1,3.894000292E0,9.098999977E0,9.914145446E0
6.388545140E-1,5.790000558E-1,3.931950092E0,9.136950493E0,9.963901691E0
6.408174890E-1,5.790000558E-1,3.894000292E0,9.175050735E0,9.983988949E0
6.427800230E-1,5.020500422E-1,3.894000292E0,9.136950493E0,9.944805520E0
6.447427000E-1,5.020500422E-1,3.931950092E0,9.136950493E0,9.959726406E0
6.467060250E-1,5.410500169E-1,3.970950127E0,9.136950493E0,9.977226285E0
6.486691600E-1,4.639500082E-1,3.931950092E0,9.136950493E0,9.957878562E0
6.506322280E-1,5.410500169E-1,3.931950092E0,9.175050735E0,9.996725596E0
6.525953160E-1,4.639500082E-1,3.970950127E0,9.098999977E0,9.938586172E0
6.545587290E-1,5.020500422E-1,3.970950127E0,9.136950493E0,9.975187390E0
6.565220300E-1,4.639500082E-1,3.970950127E0,9.175050735E0,1.000825912E1
6.584852950E-1,5.020500422E-1,3.931950092E0,9.214050293E0,1.003050390E1
6.604485710E-1,5.020500422E-1,4.009050369E0,9.136950493E0,9.990415578E0
6.624113880E-1,5.410500169E-1,3.931950092E0,9.136950493E0,9.961768465E0
6.643743400E-1,4.639500082E-1,3.931950092E0,9.136950493E0,9.957878562E0
6.663376420E-1,5.020500422E-1,3.970950127E0,9.175050735E0,1.001009766E1
6.683008560E-1,4.639500082E-1,3.970950127E0,9.175050735E0,1.000825912E1
6.702639110E-1,4.260000288E-1,4.009050369E0,9.136950493E0,9.986882657E0
6.722270120E-1,4.260000288E-1,3.970950127E0,9.136950493E0,9.971649073E0
6.741902190E-1,4.639500082E-1,3.970950127E0,9.136950493E0,9.973342410E0
6.761533950E-1,4.639500082E-1,3.970950127E0,9.098999977E0,9.938586172E0
6.781166350E-1,4.260000288E-1,3.970950127E0,9.175050735E0,1.000657169E1
6.800798560E-1,4.639500082E-1,4.009050369E0,9.175050735E0,1.002343706E1
6.820434490E-1,4.260000288E-1,3.931950092E0,9.136950493E0,9.956182595E0
6.840069330E-1,5.020500422E-1,3.931950092E0,9.136950493E0,9.959726406E0
6.859701220E-1,4.260000288E-1,3.970950127E0,9.136950493E0,9.971649073E0
6.879333970E-1,4.260000288E-1,4.009050369E0,9.175050735E0,1.002175219E1
6.898966460E-1,4.639500082E-1,3.894000292E0,9.175050735E0,9.977977946E0
6.918599160E-1,5.020500422E-1,3.931950092E0,9.136950493E0,9.959726406E0
6.938231400E-1,4.639500082E-1,3.894000292E0,9.136950493E0,9.942954902E0
6.957863780E-1,4.639500082E-1,3.931950092E0,9.136950493E0,9.957878562E0
6.977497870E-1,4.639500082E-1,3.894000292E0,9.175050735E0,9.977977946E0
6.997131450E-1,5.020500422E-1,3.931950092E0,9.098999977E0,9.924922486E0
7.016763450E-1,5.020500422E-1,3.931950092E0,9.098999977E0,9.924922486E0
7.036395990E-1,5.410500169E-1,3.970950127E0,9.136950493E0,9.977226285E0
7.056028250E-1,5.410500169E-1,3.970950127E0,9.136950493E0,9.977226285E0
7.075660600E-1,5.020500422E-1,3.931950092E0,9.175050735E0,9.994690679E0
7.095298300E-1,4.639500082E-1,3.970950127E0,9.175050735E0,1.000825912E1
7.114934430E-1,5.410500169E-1,3.931950092E0,9.136950493E0,9.961768465E0
7.134562830E-1,5.020500422E-1,3.970950127E0,9.175050735E0,1.001009766E1
7.154193250E-1,5.020500422E-1,3.970950127E0,9.098999977E0,9.940437603E0
7.173829020E-1,5.020500422E-1,4.009050369E0,9.098999977E0,9.955718944E0
7.193463230E-1,5.020500422E-1,3.970950127E0,9.098999977E0,9.940437603E0
7.213095220E-1,4.639500082E-1,4.009050369E0,9.136950493E0,9.988573411E0
7.232727860E-1,5.020500422E-1,4.009050369E0,9.175050735E0,1.002527282E1
7.252360210E-1,4.639500082E-1,4.009050369E0,9.175050735E0,1.002343706E1
7.271992580E-1,5.020500422E-1,3.970950127E0,9.175050735E0,1.001009766E1
7.291623530E-1,4.639500082E-1,3.970950127E0,9.175050735E0,1.000825912E1
7.311254890E-1,5.020500422E-1,3.970950127E0,9.175050735E0,1.001009766E1
7.330888700E-1,5.020500422E-1,3.970950127E0,9.175050735E0,1.001009766E1
7.350521790E-1,5.020500422E-1,3.970950127E0,9.136950493E0,9.975187390E0
7.370154570E-1,5.020500422E-1,4.009050369E0,9.175050735E0,1.002527282E1
7.389787340E-1,5.020500422E-1,4.009050369E0,9.175050735E0,1.002527282E1
7.409419560E-1,4.639500082E-1,3.970950127E0,9.175050735E0,1.000825912E1
7.429051950E-1,4.260000288E-1,3.970950127E0,9.252000809E0,1.007717420E1
7.448686030E-1,4.639500082E-1,4.009050369E0,9.175050735E0,1.002343706E1
7.468319620E-1,4.260000288E-1,3.970950127E0,9.136950493E0,9.971649073E0
7.487953210E-1,3.870000243E-1,3.931950092E0,9.136950493E0,9.954590140E0
7.507586710E-1,4.260000288E-1,3.970950127E0,9.214050293E0,1.004234254E1
7.527221050E-1,4.260000288E-1,3.931950092E0,9.175050735E0,9.991159270E0
7.546855150E-1,4.639500082E-1,3.970950127E0,9.175050735E0,1.000825912E1
7.566490760E-1,5.020500422E-1,3.931950092E0,9.214050293E0,1.003050390E1
7.586125920E-1,4.260000288E-1,3.970950127E0,9.214050293E0,1.004234254E1
7.605760760E-1,4.639500082E-1,3.931950092E0,9.136950493E0,9.957878562E0
7.625395800E-1,4.639500082E-1,3.931950092E0,9.214050293E0,1.002866910E1
7.645029440E-1,4.639500082E-1,3.970950127E0,9.175050735E0,1.000825912E1
7.664663490E-1,4.260000288E-1,3.931950092E0,9.214050293E0,1.002698511E1
7.684299090E-1,4.260000288E-1,3.931950092E0,9.175050735E0,9.991159270E0
7.703934240E-1,4.639500082E-1,3.931950092E0,9.214050293E0,1.002866910E1
7.723565850E-1,4.639500082E-1,3.931950092E0,9.175050735E0,9.992849300E0
7.743198970E-1,4.639500082E-1,3.894000292E0,9.136950493E0,9.942954902E0
7.762832480E-1,4.639500082E-1,3.894000292E0,9.214050293E0,1.001385094E1
7.782465880E-1,5.020500422E-1,3.894000292E0,9.214050293E0,1.001568846E1
7.802096660E-1,4.639500082E-1,3.931950092E0,9.175050735E0,9.992849300E0
7.821728210E-1,4.639500082E-1,3.931950092E0,9.252000809E0,1.006354809E1
7.841360030E-1,3.870000243E-1,3.931950092E0,9.252000809E0,1.006029421E1
7.860991880E-1,4.639500082E-1,3.931950092E0,9.252000809E0,1.006354809E1
7.880626070E-1,5.020500422E-1,3.894000292E0,9.289950371E0,1.008555752E1
7.900259570E-1,4.639500082E-1,3.894000292E0,9.214050293E0,1.001385094E1
7.919895280E-1,4.639500082E-1,3.931950092E0,9.328050613E0,1.013350923E1
7.939530340E-1,5.020500422E-1,3.894000292E0,9.289950371E0,1.008555752E1
7.959162050E-1,4.639500082E-1,3.931950092E0,9.289950371E0,1.009844835E1
7.978794840E-1,5.020500422E-1,3.894000292E0,9.252000809E0,1.005061249E1
7.998427060E-1,5.020500422E-1,3.931950092E0,9.289950371E0,1.010027047E1
8.018059450E-1,4.639500082E-1,3.894000292E0,9.252000809E0,1.004878136E1
8.037691750E-1,5.020500422E-1,3.894000292E0,9.252000809E0,1.005061249E1
8.057324070E-1,5.020500422E-1,3.894000292E0,9.289950371E0,1.008555752E1
8.076956900E-1,4.639500082E-1,3.931950092E0,9.214050293E0,1.002866910E1
8.096589520E-1,5.020500422E-1,3.894000292E0,9.252000809E0,1.005061249E1
8.116226730E-1,5.020500422E-1,3.894000292E0,9.252000809E0,1.005061249E1
8.135862600E-1,5.790000558E-1,3.931950092E0,9.214050293E0,1.003464974E1
8.155492960E-1,5.020500422E-1,3.931950092E0,9.214050293E0,1.003050390E1
8.175124930E-1,5.020500422E-1,3.931950092E0,9.136950493E0,9.959726406E0
8.194764330E-1,5.410500169E-1,3.894000292E0,9.136950493E0,9.946850642E0
8.214401350E-1,5.020500422E-1,3.894000292E0,9.214050293E0,1.001568846E1
8.234036470E-1,4.639500082E-1,3.931950092E0,9.136950493E0,9.957878562E0
8.253672140E-1,4.639500082E-1,3.931950092E0,9.175050735E0,9.992849300E0
8.273304320E-1,5.020500422E-1,3.931950092E0,9.175050735E0,9.994690679E0
8.292937530E-1,5.020500422E-1,3.931950092E0,9.136950493E0,9.959726406E0
8.312569870E-1,5.020500422E-1,3.931950092E0,9.136950493E0,9.959726406E0
8.332202330E-1,5.020500422E-1,3.931950092E0,9.098999977E0,9.924922486E0
8.351836410E-1,5.020500422E-1,3.931950092E0,9.175050735E0,9.994690679E0
8.371470010E-1,5.410500169E-1,3.894000292E0,9.175050735E0,9.981860017E0
8.391103460E-1,5.410500169E-1,3.894000292E0,9.136950493E0,9.946850642E0
8.410736950E-1,5.410500169E-1,3.894000292E0,9.136950493E0,9.946850642E0
8.430378060E-1,5.020500422E-1,3.856050253E0,9.098999977E0,9.895098705E0
8.450016930E-1,5.790000558E-1,3.894000292E0,9.098999977E0,9.914145446E0
8.469641370E-1,5.410500169E-1,3.894000292E0,9.136950493E0,9.946850642E0
8.489270030E-1,5.020500422E-1,3.894000292E0,9.098999977E0,9.909949198E0
8.508909710E-1,5.790000558E-1,3.894000292E0,9.098999977E0,9.914145446E0
8.528546160E-1,5.790000558E-1,3.856050253E0,9.136950493E0,9.934194931E0
8.548172410E-1,6.169500351E-1,3.856050253E0,9.175050735E0,9.971524803E0
8.567801610E-1,5.410500169E-1,3.894000292E0,9.098999977E0,9.912001512E0
8.587436700E-1,5.790000558E-1,3.894000292E0,9.098999977E0,9.914145446E0
8.607070060E-1,5.790000558E-1,3.856050253E0,9.136950493E0,9.934194931E0
8.626707590E-1,5.410500169E-1,3.856050253E0,9.175050735E0,9.967116668E0
8.646343900E-1,5.790000558E-1,3.894000292E0,9.098999977E0,9.914145446E0
8.665975270E-1,5.790000558E-1,3.856050253E0,9.098999977E0,9.899301248E0
8.685607960E-1,5.410500169E-1,3.894000292E0,9.175050735E0,9.981860017E0
8.705242440E-1,5.020500422E-1,3.894000292E0,9.098999977E0,9.909949198E0
8.724876400E-1,5.020500422E-1,3.931950092E0,9.136950493E0,9.959726406E0
8.744513830E-1,5.410500169E-1,3.931950092E0,9.136950493E0,9.961768465E0
8.764150250E-1,5.410500169E-1,3.894000292E0,9.098999977E0,9.912001512E0
8.783781910E-1,5.410500169E-1,3.931950092E0,9.175050735E0,9.996725596E0
8.803414930E-1,5.020500422E-1,3.931950092E0,9.136950493E0,9.959726406E0
8.823050260E-1,5.020500422E-1,3.931950092E0,9.136950493E0,9.959726406E0
8.842684910E-1,5.020500422E-1,3.970950127E0,9.136950493E0,9.975187390E0
8.862322230E-1,4.260000288E-1,3.970950127E0,9.136950493E0,9.971649073E0
8.881958760E-1,5.020500422E-1,3.894000292E0,9.175050735E0,9.979822068E0
8.901592400E-1,4.639500082E-1,3.970950127E0,9.136950493E0,9.973342410E0
8.921226710E-1,4.260000288E-1,3.970950127E0,9.136950493E0,9.971649073E0
8.940860470E-1,5.020500422E-1,3.970950127E0,9.098999977E0,9.940437603E0
8.960494400E-1,4.639500082E-1,3.970950127E0,9.098999977E0,9.938586172E0
8.980125080E-1,5.020500422E-1,4.009050369E0,9.098999977E0,9.955718944E0
8.999756710E-1,5.020500422E-1,3.931950092E0,9.175050735E0,9.994690679E0
9.019390370E-1,5.020500422E-1,3.970950127E0,9.136950493E0,9.975187390E0
9.039023510E-1,4.639500082E-1,3.970950127E0,9.136950493E0,9.973342410E0
9.058659280E-1,4.639500082E-1,3.970950127E0,9.098999977E0,9.938586172E0
9.078294280E-1,4.260000288E-1,3.970950127E0,9.136950493E0,9.971649073E0
9.097930180E-1,3.870000243E-1,3.970950127E0,9.136950493E0,9.970059089E0
9.117565820E-1,5.020500422E-1,4.047000408E0,9.136950493E0,1.000570492E1
9.137199270E-1,4.260000288E-1,4.009050369E0,9.136950493E0,9.986882657E0
9.156833430E-1,4.639500082E-1,4.009050369E0,9.136950493E0,9.988573411E0
9.176464970E-1,4.260000288E-1,3.970950127E0,9.098999977E0,9.936886913E0
9.196097280E-1,4.260000288E-1,3.970950127E0,9.060000420E0,9.901188239E0
9.215728240E-1,4.639500082E-1,4.009050369E0,9.060000420E0,9.918232810E0
9.235359590E-1,4.260000288E-1,4.009050369E0,9.136950493E0,9.986882657E0
9.254993160E-1,4.260000288E-1,4.009050369E0,9.136950493E0,9.986882657E0
9.274626250E-1,4.639500082E-1,4.009050369E0,9.098999977E0,9.953870356E0
9.294257080E-1,3.870000243E-1,4.009050369E0,9.098999977E0,9.950580609E0
9.313888580E-1,4.639500082E-1,3.970950127E0,9.136950493E0,9.973342410E0
9.333522370E-1,3.870000243E-1,3.970950127E0,9.060000420E0,9.899586937E0
9.353155480E-1,3.870000243E-1,3.970950127E0,9.098999977E0,9.935291365E0
9.372787860E-1,4.260000288E-1,4.009050369E0,9.098999977E0,9.952173706E0
9.392420320E-1,4.260000288E-1,4.047000408E0,9.136950493E0,1.000217739E1
9.412053040E-1,4.260000288E-1,4.009050369E0,9.098999977E0,9.952173706E0
9.431685680E-1,3.870000243E-1,3.970950127E0,9.098999977E0,9.935291365E0
9.451316140E-1,4.260000288E-1,4.009050369E0,9.136950493E0,9.986882657E0
9.470947240E-1,4.260000288E-1,3.970950127E0,9.098999977E0,9.936886913E0
9.490581230E-1,3.870000243E-1,4.009050369E0,9.098999977E0,9.950580609E0
9.510214280E-1,4.260000288E-1,4.009050369E0,9.060000420E0,9.916530063E0
9.529844670E-1,4.260000288E-1,3.970950127E0,9.136950493E0,9.971649073E0
9.549475840E-1,4.639500082E-1,3.970950127E0,9.175050735E0,1.000825912E1
9.569104740E-1,4.260000288E-1,4.009050369E0,9.175050735E0,1.002175219E1
9.588734300E-1,4.639500082E-1,3.970950127E0,9.175050735E0,1.000825912E1
9.608366390E-1,4.260000288E-1,3.931950092E0,9.136950493E0,9.956182595E0
9.627997260E-1,4.639500082E-1,3.970950127E0,9.098999977E0,9.938586172E0
9.647627570E-1,4.639500082E-1,3.970950127E0,9.098999977E0,9.938586172E0
9.667258050E-1,4.639500082E-1,3.970950127E0,9.098999977E0,9.938586172E0
9.686888860E-1,5.410500169E-1,3.931950092E0,9.098999977E0,9.926971705E0
9.706519570E-1,4.639500082E-1,3.970950127E0,9.136950493E0,9.973342410E0
9.726152700E-1,5.020500422E-1,3.931950092E0,9.175050735E0,9.994690679E0
9.745785050E-1,5.020500422E-1,3.970950127E0,9.136950493E0,9.975187390E0
9.765418710E-1,5.410500169E-1,3.970950127E0,9.136950493E0,9.977226285E0
9.785051980E-1,5.020500422E-1,3.970950127E0,9.175050735E0,1.001009766E1
9.804680980E-1,5.020500422E-1,3.931950092E0,9.136950493E0,9.959726406E0
9.824311230E-1,5.410500169E-1,3.931950092E0,9.136950493E0,9.961768465E0
9.843945180E-1,5.410500169E-1,3.970950127E0,9.098999977E0,9.942483624E0
9.863578080E-1,4.639500082E-1,3.931950092E0,9.175050735E0,9.992849300E0
9.883208950E-1,5.020500422E-1,3.931950092E0,9.098999977E0,9.924922486E0
9.902840410E-1,5.410500169E-1,3.970950127E0,9.060000420E0,9.906805117E0
9.922472850E-1,5.410500169E-1,3.931950092E0,9.136950493E0,9.961768465E0
9.942105010E-1,5.020500422E-1,3.970950127E0,9.136950493E0,9.975187390E0
9.961738590E-1,5.790000558E-1,3.970950127E0,9.098999977E0,9.944620986E0
9.981371830E-1,5.410500169E-1,3.894000292E0,9.098999977E0,9.912001512E0
1.000100083E0,5.410500169E-1,3.931950092E0,9.098999977E0,9.926971705E0
1.002063108E0,5.020500422E-1,3.970950127E0,9.098999977E0,9.940437603E0
1.004026688E0,5.020500422E-1,3.970950127E0,9.060000420E0,9.904751726E0
1.005990106E0,5.410500169E-1,3.931950092E0,9.098999977E0,9.926971705E0
1.007952611E0,5.410500169E-1,3.970950127E0,9.098999977E0,9.942483624E0
1.009915397E0,5.410500169E-1,3.931950092E0,9.098999977E0,9.926971705E0
1.011878658E0,5.020500422E-1,3.970950127E0,9.175050735E0,1.001009766E1
1.013841779E0,5.410500169E-1,3.970950127E0,9.136950493E0,9.977226285E0
1.015804850E0,5.410500169E-1,4.009050369E0,9.098999977E0,9.957761825E0
1.017767935E0,5.020500422E-1,3.970950127E0,9.060000420E0,9.904751726E0
1.019731360E0,4.639500082E-1,3.970950127E0,9.175050735E0,1.000825912E1
1.021694692E0,5.020500422E-1,3.970950127E0,9.136950493E0,9.975187390E0
1.023657591E0,4.639500082E-1,3.970950127E0,9.098999977E0,9.938586172E0
1.025620617E0,5.410500169E-1,3.970950127E0,9.136950493E0,9.977226285E0
1.027583837E0,5.020500422E-1,3.970950127E0,9.136950493E0,9.975187390E0
1.029547000E0,5.020500422E-1,3.931950092E0,9.175050735E0,9.994690679E0
1.031510253E0,4.639500082E-1,4.009050369E0,9.136950493E0,9.988573411E0
1.033473472E0,4.260000288E-1,3.931950092E0,9.136950493E0,9.956182595E0
1.035436525E0,4.639500082E-1,3.970950127E0,9.136950493E0,9.973342410E0
1.037399627E0,4.260000288E-1,4.009050369E0,9.136950493E0,9.986882657E0
1.039362700E0,4.639500082E-1,3.931950092E0,9.175050735E0,9.992849300E0
1.041325781E0,4.260000288E-1,3.931950092E0,9.098999977E0,9.921366243E0
1.043288896E0,5.020500422E-1,3.931950092E0,9.136950493E0,9.959726406E0
1.045252005E0,4.639500082E-1,3.970950127E0,9.175050735E0,1.000825912E1
1.047215798E0,5.410500169E-1,4.009050369E0,9.175050735E0,1.002730153E1
1.049179390E0,4.639500082E-1,3.931950092E0,9.214050293E0,1.002866910E1
1.051142514E0,4.260000288E-1,3.970950127E0,9.136950493E0,9.971649073E0
1.053105776E0,4.639500082E-1,3.970950127E0,9.175050735E0,1.000825912E1
1.055069167E0,4.639500082E-1,3.931950092E0,9.175050735E0,9.992849300E0
1.057032530E0,4.639500082E-1,4.009050369E0,9.214050293E0,1.005914794E1
1.058995918E0,4.639500082E-1,4.009050369E0,9.214050293E0,1.005914794E1
1.060959299E0,4.260000288E-1,4.009050369E0,9.214050293E0,1.005746905E1
1.062922550E0,4.260000288E-1,4.009050369E0,9.214050293E0,1.005746905E1
1.064885839E0,5.020500422E-1,3.970950127E0,9.175050735E0,1.001009766E1
1.066849234E0,4.260000288E-1,3.970950127E0,9.175050735E0,1.000657169E1
1.068812602E0,3.870000243E-1,4.009050369E0,9.214050293E0,1.005589263E1
1.070776169E0,4.260000288E-1,4.009050369E0,9.214050293E0,1.005746905E1
1.072739678E0,4.260000288E-1,4.009050369E0,9.214050293E0,1.005746905E1
1.074702817E0,4.260000288E-1,4.009050369E0,9.252000809E0,1.009224850E1
1.076666065E0,4.639500082E-1,4.009050369E0,9.214050293E0,1.005914794E1
1.078629158E0,4.639500082E-1,3.970950127E0,9.214050293E0,1.004402396E1
1.080592296E0,4.639500082E-1,3.970950127E0,9.175050735E0,1.000825912E1
1.082555362E0,4.260000288E-1,3.970950127E0,9.214050293E0,1.004234254E1
1.084518450E0,4.260000288E-1,3.970950127E0,9.214050293E0,1.004234254E1
1.086481839E0,4.639500082E-1,4.009050369E0,9.252000809E0,1.009392161E1
1.088445140E0,4.639500082E-1,3.970950127E0,9.175050735E0,1.000825912E1
1.090408370E0,4.639500082E-1,3.970950127E0,9.252000809E0,1.007884981E1
1.092371614E0,4.639500082E-1,3.931950092E0,9.252000809E0,1.006354809E1
1.094334886E0,4.260000288E-1,3.970950127E0,9.214050293E0,1.004234254E1
1.096298150E0,4.639500082E-1,3.970950127E0,9.252000809E0,1.007884981E1
1.098261196E0,5.020500422E-1,3.970950127E0,9.252000809E0,1.008067548E1
1.100224306E0,4.260000288E-1,3.894000292E0,9.252000809E0,1.004710074E1
1.102187201E0,5.020500422E-1,3.931950092E0,9.214050293E0,1.003050390E1
1.104150156E0,4.260000288E-1,3.931950092E0,9.252000809E0,1.006186993E1
1.106113748E0,4.639500082E-1,3.931950092E0,9.252000809E0,1.006354809E1
1.108077154E0,4.639500082E-1,3.931950092E0,9.175050735E0,9.992849300E0
1.110040040E0,5.020500422E-1,3.931950092E0,9.214050293E0,1.003050390E1
1.112003079E0,5.020500422E-1,3.931950092E0,9.252000809E0,1.006537653E1
1.113966006E0,4.639500082E-1,3.931950092E0,9.214050293E0,1.002866910E1
1.115928949E0,4.639500082E-1,3.931950092E0,9.252000809E0,1.006354809E1
1.117892228E0,4.639500082E-1,3.894000292E0,9.175050735E0,9.977977946E0
1.119855409E0,5.020500422E-1,3.894000292E0,9.214050293E0,1.001568846E1
1.121818604E0,5.020500422E-1,3.894000292E0,9.214050293E0,1.001568846E1
1.123781794E0,4.260000288E-1,3.931950092E0,9.214050293E0,1.002698511E1
1.125744848E0,4.639500082E-1,3.894000292E0,9.214050293E0,1.001385094E1
1.127707945E0,4.639500082E-1,3.931950092E0,9.252000809E0,1.006354809E1
1.129671198E0,4.639500082E-1,3.894000292E0,9.214050293E0,1.001385094E1
1.131634405E0,5.020500422E-1,3.894000292E0,9.136950493E0,9.944805520E0
1.133598000E0,4.639500082E-1,3.931950092E0,9.214050293E0,1.002866910E1
1.135561482E0,4.639500082E-1,3.931950092E0,9.175050735E0,9.992849300E0
1.137524335E0,5.020500422E-1,3.894000292E0,9.136950493E0,9.944805520E0
1.139487387E0,5.020500422E-1,3.931950092E0,9.214050293E0,1.003050390E1
1.141450467E0,5.020500422E-1,3.931950092E0,9.175050735E0,9.994690679E0
1.143413539E0,5.020500422E-1,3.931950092E0,9.175050735E0,9.994690679E0
1.145377473E0,5.410500169E-1,3.894000292E0,9.175050735E0,9.981860017E0
1.147341154E0,5.410500169E-1,3.894000292E0,9.175050735E0,9.981860017E0
1.149303619E0,5.020500422E-1,3.931950092E0,9.214050293E0,1.003050390E1
1.151266450E0,5.020500422E-1,3.894000292E0,9.175050735E0,9.979822068E0
1.153229208E0,5.410500169E-1,3.931950092E0,9.175050735E0,9.996725596E0
1.155191988E0,5.410500169E-1,3.931950092E0,9.136950493E0,9.961768465E0
1.157155250E0,5.410500169E-1,3.931950092E0,9.136950493E0,9.961768465E0
1.159118371E0,5.020500422E-1,3.931950092E0,9.175050735E0,9.994690679E0
1.161081246E0,5.410500169E-1,3.931950092E0,9.136950493E0,9.961768465E0
1.163044204E0,5.020500422E-1,3.931950092E0,9.060000420E0,9.889180622E0
1.165007165E0,5.410500169E-1,3.931950092E0,9.098999977E0,9.926971705E0
1.166970125E0,5.410500169E-1,3.931950092E0,9.098999977E0,9.926971705E0
1.168933357E0,5.410500169E-1,3.970950127E0,9.060000420E0,9.906805117E0
1.170896510E0,5.020500422E-1,3.931950092E0,9.098999977E0,9.924922486E0
1.172860675E0,5.020500422E-1,3.931950092E0,9.098999977E0,9.924922486E0
1.174824530E0,5.790000558E-1,3.970950127E0,9.060000420E0,9.908950175E0
1.176786979E0,5.020500422E-1,3.970950127E0,9.098999977E0,9.940437603E0
1.178749840E0,5.020500422E-1,3.931950092E0,9.060000420E0,9.889180622E0
1.180713313E0,5.790000558E-1,3.931950092E0,9.098999977E0,9.929112406E0
1.182676607E0,5.410500169E-1,3.970950127E0,9.098999977E0,9.942483624E0
1.184639749E0,5.410500169E-1,3.894000292E0,9.098999977E0,9.912001512E0
1.186602959E0,5.410500169E-1,3.894000292E0,9.060000420E0,9.876212887E0
1.188566373E0,5.410500169E-1,3.894000292E0,9.136950493E0,9.946850642E0
1.190529727E0,5.410500169E-1,3.931950092E0,9.060000420E0,9.891237246E0
1.192493342E0,5.410500169E-1,3.931950092E0,9.060000420E0,9.891237246E0
1.194456881E0,5.790000558E-1,3.931950092E0,9.098999977E0,9.929112406E0
1.196420544E0,5.790000558E-1,3.970950127E0,9.175050735E0,1.001425194E1
1.198384178E0,5.790000558E-1,3.894000292E0,9.098999977E0,9.914145446E0
1.200347341E0,5.790000558E-1,3.970950127E0,9.098999977E0,9.944620986E0
1.202310642E0,5.790000558E-1,3.970950127E0,9.098999977E0,9.944620986E0
1.204273004E0,5.410500169E-1,3.894000292E0,9.098999977E0,9.912001512E0
1.206235642E0,5.020500422E-1,3.931950092E0,9.098999977E0,9.924922486E0
1.208199153E0,5.790000558E-1,3.894000292E0,9.060000420E0,9.878364588E0
1.210162409E0,5.410500169E-1,3.970950127E0,9.060000420E0,9.906805117E0
1.212125816E0,5.020500422E-1,3.894000292E0,9.060000420E0,9.874153134E0
1.214089178E0,5.020500422E-1,3.931950092E0,9.136950493E0,9.959726406E0
1.216052567E0,5.410500169E-1,3.931950092E0,9.022050858E0,9.856488641E0
1.218015948E0,5.410500169E-1,3.931950092E0,9.098999977E0,9.926971705E0
1.219979324E0,5.790000558E-1,3.931950092E0,9.098999977E0,9.929112406E0
1.221942708E0,5.410500169E-1,3.970950127E0,9.060000420E0,9.906805117E0
1.223906049E0,5.790000558E-1,3.970950127E0,9.060000420E0,9.908950175E0
1.225869402E0,4.639500082E-1,3.931950092E0,9.060000420E0,9.887319593E0
1.227832477E0,5.020500422E-1,3.931950092E0,9.060000420E0,9.889180622E0
1.229795633E0,5.020500422E-1,3.970950127E0,9.098999977E0,9.940437603E0
1.231758889E0,5.020500422E-1,3.970950127E0,9.098999977E0,9.940437603E0
1.233722106E0,4.639500082E-1,3.931950092E0,9.098999977E0,9.923068161E0
1.235685160E0,5.410500169E-1,3.970950127E0,9.098999977E0,9.942483624E0
1.237648262E0,4.260000288E-1,4.009050369E0,9.136950493E0,9.986882657E0
1.239611109E0,4.639500082E-1,4.009050369E0,9.136950493E0,9.988573411E0
1.241574031E0,4.639500082E-1,4.009050369E0,9.060000420E0,9.918232810E0
1.243537354E0,4.639500082E-1,3.970950127E0,9.136950493E0,9.973342410E0
1.245500563E0,4.260000288E-1,4.009050369E0,9.136950493E0,9.986882657E0
1.247463798E0,5.020500422E-1,3.970950127E0,9.136950493E0,9.975187390E0
1.249427025E0,4.639500082E-1,3.970950127E0,9.136950493E0,9.973342410E0
1.251390392E0,5.410500169E-1,4.009050369E0,9.136950493E0,9.992451366E0
1.253353717E0,4.639500082E-1,4.009050369E0,9.214050293E0,1.005914794E1
1.255316946E0,4.260000288E-1,4.009050369E0,9.214050293E0,1.005746905E1
1.257280194E0,4.639500082E-1,3.970950127E0,9.136950493E0,9.973342410E0
1.259243466E0,4.260000288E-1,4.009050369E0,9.214050293E0,1.005746905E1
1.261206731E0,4.260000288E-1,3.970950127E0,9.136950493E0,9.971649073E0
1.263169596E0,4.260000288E-1,3.970950127E0,9.175050735E0,1.000657169E1
1.265132579E0,4.260000288E-1,4.009050369E0,9.136950493E0,9.986882657E0
1.267095972E0,5.410500169E-1,4.009050369E0,9.175050735E0,1.002730153E1
1.269059255E0,5.020500422E-1,4.009050369E0,9.136950493E0,9.990415578E0
1.271022298E0,4.639500082E-1,4.009050369E0,9.136950493E0,9.988573411E0
1.272985411E0,4.639500082E-1,3.970950127E0,9.175050735E0,1.000825912E1
1.274948886E0,5.020500422E-1,4.009050369E0,9.175050735E0,1.002527282E1
1.276912255E0,4.639500082E-1,4.009050369E0,9.136950493E0,9.988573411E0
1.278875458E0,4.639500082E-1,4.047000408E0,9.175050735E0,1.003867610E1
1.280838714E0,4.639500082E-1,4.009050369E0,9.175050735E0,1.002343706E1
1.282801896E0,5.020500422E-1,4.009050369E0,9.136950493E0,9.990415578E0
1.284765099E0,5.020500422E-1,4.009050369E0,9.136950493E0,9.990415578E0
1.286728199E0,4.639500082E-1,4.009050369E0,9.098999977E0,9.953870356E0
1.288691329E0,4.639500082E-1,4.009050369E0,9.136950493E0,9.988573411E0
1.290654552E0,4.639500082E-1,4.009050369E0,9.098999977E0,9.953870356E0
1.292617765E0,4.639500082E-1,4.009050369E0,9.098999977E0,9.953870356E0
1.294580999E0,4.260000288E-1,4.009050369E0,9.136950493E0,9.986882657E0
1.296544226E0,4.260000288E-1,3.970950127E0,9.060000420E0,9.901188239E0
1.298507458E0,4.260000288E-1,4.009050369E0,9.060000420E0,9.916530063E0
1.300470688E0,5.020500422E-1,3.970950127E0,9.098999977E0,9.940437603E0
1.302433865E0,4.260000288E-1,3.931950092E0,9.060000420E0,9.885611522E0
1.304397065E0,4.639500082E-1,4.047000408E0,9.098999977E0,9.969215741E0
1.306360525E0,4.639500082E-1,4.009050369E0,9.098999977E0,9.953870356E0
1.308323909E0,5.410500169E-1,3.970950127E0,9.136950493E0,9.977226285E0
1.310286934E0,4.639500082E-1,4.009050369E0,9.136950493E0,9.988573411E0
1.312250065E0,4.639500082E-1,3.970950127E0,9.098999977E0,9.938586172E0
1.314213457E0,5.020500422E-1,3.970950127E0,9.098999977E0,9.940437603E0
1.316176765E0,5.020500422E-1,3.970950127E0,9.136950493E0,9.975187390E0
1.318140163E0,5.020500422E-1,3.970950127E0,9.136950493E0,9.975187390E0
1.320103534E0,5.410500169E-1,3.970950127E0,9.098999977E0,9.942483624E0
1.322067282E0,5.020500422E-1,3.970950127E0,9.136950493E0,9.975187390E0
1.324030919E0,5.790000558E-1,3.970950127E0,9.098999977E0,9.944620986E0
1.325993590E0,4.639500082E-1,3.970950127E0,9.098999977E0,9.938586172E0
1.327956541E0,5.020500422E-1,3.931950092E0,9.136950493E0,9.959726406E0
1.329920134E0,5.410500169E-1,3.931950092E0,9.136950493E0,9.961768465E0
1.331883539E0,5.020500422E-1,3.970950127E0,9.098999977E0,9.940437603E0
1.333846965E0,5.410500169E-1,3.970950127E0,9.136950493E0,9.977226285E0
1.335810385E0,5.410500169E-1,3.970950127E0,9.098999977E0,9.942483624E0
1.337773770E0,5.020500422E-1,3.931950092E0,9.175050735E0,9.994690679E0
1.339737162E0,5.410500169E-1,3.970950127E0,9.136950493E0,9.977226285E0
1.341700320E0,4.639500082E-1,3.970950127E0,9.136950493E0,9.973342410E0
1.343663546E0,5.020500422E-1,3.970950127E0,9.136950493E0,9.975187390E0
1.345627182E0,5.020500422E-1,3.970950127E0,9.098999977E0,9.940437603E0
1.347590698E0,5.410500169E-1,3.970950127E0,9.136950493E0,9.977226285E0
1.349553360E0,5.020500422E-1,4.009050369E0,9.098999977E0,9.955718944E0
1.351516258E0,5.410500169E-1,3.970950127E0,9.060000420E0,9.906805117E0
1.353479499E0,5.020500422E-1,4.009050369E0,9.098999977E0,9.955718944E0
1.355442640E0,5.410500169E-1,3.970950127E0,9.098999977E0,9.942483624E0
1.357405932E0,5.410500169E-1,3.970950127E0,9.098999977E0,9.942483624E0
1.359369179E0,5.410500169E-1,3.970950127E0,9.060000420E0,9.906805117E0
1.361332329E0,5.020500422E-1,3.970950127E0,9.022050858E0,9.870050700E0
1.363295531E0,5.020500422E-1,3.931950092E0,9.060000420E0,9.889180622E0
1.365258811E0,4.639500082E-1,3.970950127E0,9.060000420E0,9.902893624E0
1.367222068E0,5.020500422E-1,3.970950127E0,9.022050858E0,9.870050700E0
1.369185295E0,5.020500422E-1,3.970950127E0,9.060000420E0,9.904751726E0
1.371148531E0,5.020500422E-1,3.931950092E0,9.022050858E0,9.854424765E0
1.373111761E0,5.020500422E-1,3.970950127E0,9.060000420E0,9.904751726E0
1.375074993E0,5.020500422E-1,3.970950127E0,9.022050858E0,9.870050700E0
1.377038357E0,5.020500422E-1,3.970950127E0,8.983950615E0,9.835236032E0
1.379001683E0,5.020500422E-1,3.931950092E0,8.983950615E0,9.819554696E0
1.380964944E0,5.020500422E-1,3.931950092E0,9.022050858E0,9.854424765E0
1.382928224E0,4.639500082E-1,3.931950092E0,9.022050858E0,9.852557171E0
1.384891475E0,5.020500422E-1,3.970950127E0,9.098999977E0,9.940437603E0
1.386854714E0,5.020500422E-1,3.970950127E0,9.098999977E0,9.940437603E0
1.388817898E0,5.020500422E-1,3.970950127E0,9.060000420E0,9.904751726E0
1.390781099E0,5.020500422E-1,3.970950127E0,9.060000420E0,9.904751726E0
1.392744739E0,5.410500169E-1,3.970950127E0,9.098999977E0,9.942483624E0
1.394708251E0,5.790000558E-1,3.970950127E0,9.098999977E0,9.944620986E0
1.396670507E0,5.020500422E-1,3.931950092E0,9.098999977E0,9.924922486E0
1.398633118E0,5.020500422E-1,3.931950092E0,9.136950493E0,9.959726406E0
1.400596815E0,5.410500169E-1,3.931950092E0,9.098999977E0,9.926971705E0
1.402560193E0,5.410500169E-1,3.931950092E0,9.136950493E0,9.961768465E0
1.404523264E0,5.020500422E-1,3.931950092E0,9.098999977E0,9.924922486E0
1.406486425E0,5.790000558E-1,3.856050253E0,9.098999977E0,9.899301248E0
1.408449137E0,5.410500169E-1,3.931950092E0,9.136950493E0,9.961768465E0
1.410411974E0,5.020500422E-1,3.931950092E0,9.136950493E0,9.959726406E0
1.412375046E0,5.410500169E-1,3.970950127E0,9.098999977E0,9.942483624E0
1.414338049E0,5.410500169E-1,3.931950092E0,9.098999977E0,9.926971705E0
1.416301679E0,5.020500422E-1,3.931950092E0,9.136950493E0,9.959726406E0
1.418265126E0,5.410500169E-1,3.970950127E0,9.098999977E0,9.942483624E0
1.420228171E0,5.020500422E-1,3.931950092E0,9.136950493E0,9.959726406E0
1.422191344E0,5.020500422E-1,3.970950127E0,9.136950493E0,9.975187390E0
1.424154719E0,5.020500422E-1,3.931950092E0,9.098999977E0,9.924922486E0
1.426118034E0,5.020500422E-1,3.931950092E0,9.136950493E0,9.959726406E0
1.428081116E0,5.020500422E-1,3.931950092E0,9.175050735E0,9.994690679E0
1.430044267E0,5.020500422E-1,3.931950092E0,9.136950493E0,9.959726406E0
1.432007470E0,5.410500169E-1,3.931950092E0,9.214050293E0,1.003253156E1
1.433970654E0,5.020500422E-1,4.009050369E0,9.175050735E0,1.002527282E1
1.435933893E0,5.020500422E-1,3.894000292E0,9.175050735E0,9.979822068E0
1.437897116E0,4.639500082E-1,3.931950092E0,9.175050735E0,9.992849300E0
1.439860393E0,4.260000288E-1,3.931950092E0,9.175050735E0,9.991159270E0
1.441823654E0,5.020500422E-1,3.931950092E0,9.175050735E0,9.994690679E0
1.443787015E0,5.410500169E-1,3.894000292E0,9.136950493E0,9.946850642E0
1.445750347E0,4.639500082E-1,3.970950127E0,9.136950493E0,9.973342410E0
1.447713246E0,4.639500082E-1,3.970950127E0,9.175050735E0,1.000825912E1
1.449676272E0,5.410500169E-1,3.931950092E0,9.098999977E0,9.926971705E0
1.451639177E0,5.020500422E-1,3.970950127E0,9.136950493E0,9.975187390E0
1.453602118E0,5.020500422E-1,3.970950127E0,9.136950493E0,9.975187390E0
1.455565546E0,4.639500082E-1,3.970950127E0,9.136950493E0,9.973342410E0
1.457528822E0,4.639500082E-1,3.931950092E0,9.136950493E0,9.957878562E0
1.459491866E0,5.020500422E-1,3.970950127E0,9.098999977E0,9.940437603E0
1.461454978E0,4.639500082E-1,4.009050369E0,9.060000420E0,9.918232810E0
1.463418049E0,5.790000558E-1,4.009050369E0,9.136950493E0,9.994578042E0
1.465381132E0,5.020500422E-1,3.931950092E0,9.136950493E0,9.959726406E0
1.467344452E0,4.639500082E-1,3.970950127E0,9.060000420E0,9.902893624E0
1.469307688E0,4.639500082E-1,3.970950127E0,9.098999977E0,9.938586172E0
1.471270694E0,5.020500422E-1,3.931950092E0,9.098999977E0,9.924922486E0
1.473233767E0,5.020500422E-1,3.931950092E0,9.136950493E0,9.959726406E0
1.475196844E0,5.410500169E-1,3.931950092E0,9.136950493E0,9.961768465E0
1.477159919E0,5.410500169E-1,3.931950092E0,9.136950493E0,9.961768465E0
1.479123196E0,5.410500169E-1,3.894000292E0,9.136950493E0,9.946850642E0
1.481086400E0,5.410500169E-1,3.894000292E0,9.136950493E0,9.946850642E0
1.483049501E0,5.410500169E-1,3.970950127E0,9.136950493E0,9.977226285E0
1.485012633E0,5.410500169E-1,3.931950092E0,9.214050293E0,1.003253156E1
1.486975295E0,5.410500169E-1,3.970950127E0,9.060000420E0,9.906805117E0
1.488938094E0,5.020500422E-1,3.931950092E0,9.098999977E0,9.924922486E0
1.490901067E0,5.410500169E-1,3.931950092E0,9.136950493E0,9.961768465E0
1.492864000E0,5.020500422E-1,3.931950092E0,9.136950493E0,9.959726406E0
1.494827102E0,5.020500422E-1,3.970950127E0,9.098999977E0,9.940437603E0
1.496790154E0,5.020500422E-1,3.970950127E0,9.136950493E0,9.975187390E0
1.498753191E0,5.020500422E-1,3.931950092E0,9.175050735E0,9.994690679E0
1.500716233E0,4.639500082E-1,3.931950092E0,9.136950493E0,9.957878562E0
1.502679491E0,4.639500082E-1,3.931950092E0,9.098999977E0,9.923068161E0
1.504642688E0,4.260000288E-1,3.931950092E0,9.136950493E0,9.956182595E0
1.506605745E0,3.870000243E-1,3.970950127E0,9.136950493E0,9.970059089E0
1.508568844E0,4.639500082E-1,3.970950127E0,9.136950493E0,9.973342410E0
1.510532097E0,4.639500082E-1,3.970950127E0,9.175050735E0,1.000825912E1
1.512495304E0,4.639500082E-1,3.970950127E0,9.214050293E0,1.004402396E1
1.514458553E0,4.639500082E-1,4.009050369E0,9.136950493E0,9.988573411E0
1.516421779E0,4.260000288E-1,4.009050369E0,9.175050735E0,1.002175219E1
1.518384877E0,4.639500082E-1,4.009050369E0,9.175050735E0,1.002343706E1
1.520348012E0,4.639500082E-1,3.970950127E0,9.136950493E0,9.973342410E0
1.522311754E0,4.260000288E-1,4.009050369E0,9.175050735E0,1.002175219E1
1.524275318E0,4.260000288E-1,4.009050369E0,9.175050735E0,1.002175219E1
1.526238532E0,4.639500082E-1,4.009050369E0,9.175050735E0,1.002343706E1
1.528201853E0,4.639500082E-1,4.009050369E0,9.136950493E0,9.988573411E0
1.530164888E0,4.260000288E-1,4.009050369E0,9.136950493E0,9.986882657E0
1.532128007E0,4.639500082E-1,4.009050369E0,9.098999977E0,9.953870356E0
1.534091391E0,5.020500422E-1,4.009050369E0,9.136950493E0,9.990415578E0
1.536054698E0,4.639500082E-1,4.009050369E0,9.098999977E0,9.953870356E0
1.538017596E0,4.639500082E-1,4.047000408E0,9.098999977E0,9.969215741E0
1.539980618E0,4.639500082E-1,3.970950127E0,9.098999977E0,9.938586172E0
1.541943838E0,4.639500082E-1,4.009050369E0,9.022050858E0,9.883579116E0
1.543907000E0,4.260000288E-1,4.009050369E0,9.098999977E0,9.952173706E0
1.545870109E0,3.870000243E-1,3.970950127E0,9.022050858E0,9.864867744E0
1.547833233E0,4.639500082E-1,3.970950127E0,9.060000420E0,9.902893624E0
1.549796470E0,5.410500169E-1,3.970950127E0,9.022050858E0,9.872111309E0
1.551759650E0,4.639500082E-1,4.009050369E0,9.022050858E0,9.883579116E0
1.553722889E0,5.410500169E-1,4.009050369E0,9.022050858E0,9.887498251E0
1.555686111E0,5.020500422E-1,3.931950092E0,9.060000420E0,9.889180622E0
1.557649164E0,5.020500422E-1,3.970950127E0,9.098999977E0,9.940437603E0
1.559612267E0,4.639500082E-1,3.970950127E0,9.098999977E0,9.938586172E0
1.561576272E0,5.020500422E-1,3.970950127E0,9.098999977E0,9.940437603E0
1.563539990E0,5.410500169E-1,3.931950092E0,9.136950493E0,9.961768465E0
1.565502237E0,5.020500422E-1,3.931950092E0,9.175050735E0,9.994690679E0
1.567464915E0,5.020500422E-1,3.931950092E0,9.136950493E0,9.959726406E0
1.569428600E0,5.020500422E-1,3.931950092E0,9.175050735E0,9.994690679E0
1.571391990E0,5.790000558E-1,3.894000292E0,9.136950493E0,9.948987066E0
1.573354621E0,5.790000558E-1,3.931950092E0,9.136950493E0,9.963901691E0
1.575317498E0,5.410500169E-1,3.931950092E0,9.136950493E0,9.961768465E0
1.577281149E0,6.169500351E-1,3.894000292E0,9.175050735E0,9.986261644E0
1.579244573E0,5.790000558E-1,3.931950092E0,9.175050735E0,9.998851364E0
1.581207637E0,5.410500169E-1,3.894000292E0,9.214050293E0,1.001771911E1
1.583170806E0,5.790000558E-1,3.894000292E0,9.175050735E0,9.983988949E0
1.585132975E0,5.410500169E-1,3.894000292E0,9.175050735E0,9.981860017E0
1.587095430E0,5.020500422E-1,3.931950092E0,9.175050735E0,9.994690679E0
1.589058793E0,5.410500169E-1,3.970950127E0,9.214050293E0,1.004788051E1
1.591021890E0,5.020500422E-1,3.931950092E0,9.214050293E0,1.003050390E1
1.592985098E0,5.020500422E-1,3.970950127E0,9.175050735E0,1.001009766E1
1.594948274E0,4.639500082E-1,3.970950127E0,9.252000809E0,1.007884981E1
1.596911506E0,5.020500422E-1,3.970950127E0,9.175050735E0,1.001009766E1
1.598874727E0,5.020500422E-1,3.970950127E0,9.214050293E0,1.004585596E1
1.600838185E0,5.020500422E-1,3.970950127E0,9.136950493E0,9.975187390E0
1.602801573E0,5.020500422E-1,3.970950127E0,9.214050293E0,1.004585596E1
1.604764733E0,5.410500169E-1,3.970950127E0,9.214050293E0,1.004788051E1
1.606727960E0,4.260000288E-1,3.970950127E0,9.252000809E0,1.007717420E1
1.608690890E0,4.639500082E-1,3.970950127E0,9.214050293E0,1.004402396E1
1.610653897E0,5.020500422E-1,3.970950127E0,9.214050293E0,1.004585596E1
1.612616940E0,4.260000288E-1,4.009050369E0,9.214050293E0,1.005746905E1
1.614579972E0,3.870000243E-1,3.970950127E0,9.175050735E0,1.000498725E1
1.616542877E0,4.639500082E-1,3.970950127E0,9.175050735E0,1.000825912E1
1.618505820E0,5.020500422E-1,3.970950127E0,9.175050735E0,1.001009766E1
1.620468798E0,4.260000288E-1,4.009050369E0,9.214050293E0,1.005746905E1
1.622431755E0,4.639500082E-1,4.009050369E0,9.214050293E0,1.005914794E1
1.624394853E0,4.639500082E-1,4.009050369E0,9.214050293E0,1.005914794E1
1.626357909E0,4.260000288E-1,4.009050369E0,9.214050293E0,1.005746905E1
1.628320946E0,4.260000288E-1,4.009050369E0,9.252000809E0,1.009224850E1
1.630283988E0,4.639500082E-1,3.970950127E0,9.214050293E0,1.004402396E1
1.632246917E0,4.639500082E-1,3.970950127E0,9.214050293E0,1.004402396E1
1.634209892E0,5.020500422E-1,3.970950127E0,9.252000809E0,1.008067548E1
1.636172985E0,5.020500422E-1,3.970950127E0,9.252000809E0,1.008067548E1
1.638136044E0,5.020500422E-1,3.970950127E0,9.175050735E0,1.001009766E1
1.640099259E0,5.410500169E-1,3.970950127E0,9.175050735E0,1.001212945E1
1.642062428E0,5.020500422E-1,3.970950127E0,9.175050735E0,1.001009766E1
1.644025305E0,4.639500082E-1,3.931950092E0,9.214050293E0,1.002866910E1
1.645988271E0,4.639500082E-1,3.970950127E0,9.136950493E0,9.973342410E0
1.647951187E0,5.020500422E-1,3.970950127E0,9.098999977E0,9.940437603E0
1.649914117E0,5.410500169E-1,3.970950127E0,9.175050735E0,1.001212945E1
1.651877039E0,4.639500082E-1,3.931950092E0,9.175050735E0,9.992849300E0
1.653839964E0,4.639500082E-1,3.931950092E0,9.175050735E0,9.992849300E0
1.655803097E0,4.639500082E-1,3.894000292E0,9.136950493E0,9.942954902E0
1.657766178E0,5.020500422E-1,3.931950092E0,9.098999977E0,9.924922486E0
1.659729390E0,5.020500422E-1,3.894000292E0,9.136950493E0,9.944805520E0
1.661692563E0,4.260000288E-1,3.856050253E0,9.136950493E0,9.926452734E0
1.663655804E0,4.639500082E-1,3.970950127E0,9.098999977E0,9.938586172E0
1.665619025E0,5.410500169E-1,3.894000292E0,9.136950493E0,9.946850642E0
1.667582078E0,4.639500082E-1,3.931950092E0,9.136950493E0,9.957878562E0
1.669545180E0,4.639500082E-1,3.931950092E0,9.098999977E0,9.923068161E0
1.671508073E0,4.639500082E-1,3.931950092E0,9.136950493E0,9.957878562E0
1.673471027E0,4.639500082E-1,3.894000292E0,9.098999977E0,9.908092070E0
1.675434123E0,4.260000288E-1,3.931950092E0,9.098999977E0,9.921366243E0
1.677397178E0,4.260000288E-1,3.931950092E0,9.136950493E0,9.956182595E0
1.679360144E0,4.639500082E-1,3.931950092E0,9.098999977E0,9.923068161E0
1.681323123E0,4.260000288E-1,3.931950092E0,9.098999977E0,9.921366243E0
1.683286711E0,5.020500422E-1,3.931950092E0,9.060000420E0,9.889180622E0
1.685250121E0,4.639500082E-1,3.931950092E0,9.060000420E0,9.887319593E0
1.687213141E0,4.639500082E-1,3.931950092E0,9.098999977E0,9.923068161E0
1.689176276E0,5.020500422E-1,3.970950127E0,9.136950493E0,9.975187390E0
1.691139383E0,4.260000288E-1,3.894000292E0,9.098999977E0,9.906387580E0
1.693102502E0,4.639500082E-1,3.931950092E0,9.136950493E0,9.957878562E0
1.695065527E0,5.410500169E-1,3.931950092E0,9.098999977E0,9.926971705E0
1.697028579E0,5.020500422E-1,3.931950092E0,9.060000420E0,9.889180622E0
1.698991345E0,5.020500422E-1,3.894000292E0,9.060000420E0,9.874153134E0
1.700954195E0,5.020500422E-1,3.931950092E0,9.098999977E0,9.924922486E0
1.702917685E0,5.410500169E-1,3.970950127E0,9.098999977E0,9.942483624E0
1.704880977E0,5.020500422E-1,3.931950092E0,9.136950493E0,9.959726406E0
1.706844153E0,5.410500169E-1,3.970950127E0,9.098999977E0,9.942483624E0
1.708807363E0,5.410500169E-1,3.931950092E0,9.060000420E0,9.891237246E0
1.710770282E0,5.020500422E-1,3.970950127E0,9.060000420E0,9.904751726E0
1.712733286E0,5.410500169E-1,3.931950092E0,9.060000420E0,9.891237246E0
1.714696495E0,5.410500169E-1,3.931950092E0,9.098999977E0,9.926971705E0
1.716659654E0,5.410500169E-1,3.970950127E0,9.098999977E0,9.942483624E0
1.718623303E0,4.639500082E-1,3.970950127E0,9.136950493E0,9.973342410E0
1.720586808E0,5.790000558E-1,3.931950092E0,9.098999977E0,9.929112406E0
1.722549272E0,5.020500422E-1,3.931950092E0,9.136950493E0,9.959726406E0
1.724512041E0,5.020500422E-1,3.970950127E0,9.060000420E0,9.904751726E0
1.726475516E0,5.020500422E-1,4.009050369E0,9.136950493E0,9.990415578E0
1.728438794E0,5.410500169E-1,3.970950127E0,9.098999977E0,9.942483624E0
1.730402197E0,5.410500169E-1,3.970950127E0,9.098999977E0,9.942483624E0
1.732365563E0,5.410500169E-1,3.970950127E0,9.136950493E0,9.977226285E0
1.734328546E0,4.639500082E-1,3.970950127E0,9.098999977E0,9.938586172E0
1.736291642E0,5.020500422E-1,3.970950127E0,9.060000420E0,9.904751726E0
1.738255266E0,5.020500422E-1,4.009050369E0,9.098999977E0,9.955718944E0
1.740218760E0,5.020500422E-1,4.009050369E0,9.060000420E0,9.920088040E0
1.742182127E0,5.020500422E-1,3.970950127E0,9.098999977E0,9.940437603E0
1.744145531E0,5.020500422E-1,3.970950127E0,9.098999977E0,9.940437603E0
1.746109091E0,4.639500082E-1,4.009050369E0,9.098999977E0,9.953870356E0
1.748072606E0,4.639500082E-1,3.970950127E0,9.060000420E0,9.902893624E0
1.750035964E0,4.639500082E-1,3.970950127E0,9.060000420E0,9.902893624E0
1.751999372E0,4.639500082E-1,4.047000408E0,9.098999977E0,9.969215741E0
1.753962932E0,5.020500422E-1,4.009050369E0,9.136950493E0,9.990415578E0
1.755926447E0,5.020500422E-1,4.009050369E0,9.136950493E0,9.990415578E0
1.757889766E0,4.639500082E-1,4.009050369E0,9.136950493E0,9.988573411E0
1.759853142E0,4.639500082E-1,4.009050369E0,9.175050735E0,1.002343706E1
1.761816527E0,4.639500082E-1,3.970950127E0,9.136950493E0,9.973342410E0
1.763779909E0,4.639500082E-1,4.009050369E0,9.098999977E0,9.953870356E0
1.765743294E0,4.639500082E-1,4.009050369E0,9.214050293E0,1.005914794E1
1.767706678E0,5.020500422E-1,3.970950127E0,9.175050735E0,1.001009766E1
1.769669703E0,4.639500082E-1,3.970950127E0,9.214050293E0,1.004402396E1
1.771632834E0,4.260000288E-1,4.009050369E0,9.214050293E0,1.005746905E1
1.773596237E0,4.639500082E-1,3.970950127E0,9.175050735E0,1.000825912E1
1.775559577E0,4.639500082E-1,3.970950127E0,9.214050293E0,1.004402396E1
1.777522430E0,4.639500082E-1,4.009050369E0,9.175050735E0,1.002343706E1
1.779485425E0,4.639500082E-1,3.970950127E0,9.214050293E0,1.004402396E1
1.781448921E0,4.639500082E-1,4.009050369E0,9.136950493E0,9.988573411E0
1.783412270E0,4.260000288E-1,4.009050369E0,9.136950493E0,9.986882657E0
1.785375481E0,4.639500082E-1,3.970950127E0,9.098999977E0,9.938586172E0
1.787338733E0,4.639500082E-1,4.009050369E0,9.060000420E0,9.918232810E0
1.789302274E0,4.639500082E-1,4.009050369E0,9.175050735E0,1.002343706E1
1.791265731E0,5.020500422E-1,3.970950127E0,9.175050735E0,1.001009766E1
1.793229149E0,5.020500422E-1,3.970950127E0,9.136950493E0,9.975187390E0
1.795192579E0,4.639500082E-1,3.970950127E0,9.098999977E0,9.938586172E0
1.797156227E0,4.639500082E-1,4.009050369E0,9.098999977E0,9.953870356E0
1.799119842E0,4.639500082E-1,4.009050369E0,9.098999977E0,9.953870356E0
1.801083233E0,4.639500082E-1,3.970950127E0,9.098999977E0,9.938586172E0
1.803046690E0,4.639500082E-1,3.970950127E0,9.060000420E0,9.902893624E0
1.805010017E0,4.639500082E-1,4.009050369E0,9.060000420E0,9.918232810E0
1.806973382E0,4.260000288E-1,4.009050369E0,9.060000420E0,9.916530063E0
1.808936994E0,4.260000288E-1,4.009050369E0,9.136950493E0,9.986882657E0
1.810900534E0,4.639500082E-1,4.047000408E0,9.136950493E0,1.000386556E1
1.812863893E0,4.639500082E-1,4.047000408E0,9.060000420E0,9.933633249E0
1.814827306E0,4.639500082E-1,3.970950127E0,9.060000420E0,9.902893624E0
1.816790864E0,4.260000288E-1,3.970950127E0,9.136950493E0,9.971649073E0
1.818754380E0,4.639500082E-1,3.970950127E0,9.060000420E0,9.902893624E0
1.820718063E0,4.260000288E-1,3.970950127E0,9.175050735E0,1.000657169E1
1.822681693E0,4.260000288E-1,3.970950127E0,9.098999977E0,9.936886913E0
1.824645036E0,4.639500082E-1,3.970950127E0,9.136950493E0,9.973342410E0
1.826608464E0,4.260000288E-1,3.931950092E0,9.136950493E0,9.956182595E0
1.828572020E0,4.639500082E-1,3.970950127E0,9.098999977E0,9.938586172E0
1.830535539E0,4.260000288E-1,3.931950092E0,9.175050735E0,9.991159270E0
1.832499159E0,4.260000288E-1,3.970950127E0,9.136950493E0,9.971649073E0
1.834462726E0,5.020500422E-1,3.931950092E0,9.175050735E0,9.994690679E0
1.836426216E0,4.260000288E-1,3.931950092E0,9.136950493E0,9.956182595E0
1.838389728E0,5.020500422E-1,3.931950092E0,9.214050293E0,1.003050390E1
1.840353811E0,5.410500169E-1,3.894000292E0,9.136950493E0,9.946850642E0
1.842317726E0,5.790000558E-1,3.970950127E0,9.214050293E0,1.004999546E1
1.844279939E0,5.020500422E-1,3.931950092E0,9.175050735E0,9.994690679E0
1.846242651E0,5.020500422E-1,3.931950092E0,9.136950493E0,9.959726406E0
1.848206150E0,5.410500169E-1,3.931950092E0,9.175050735E0,9.996725596E0
1.850169419E0,5.410500169E-1,3.970950127E0,9.214050293E0,1.004788051E1
1.852132464E0,5.020500422E-1,3.931950092E0,9.175050735E0,9.994690679E0
1.854095574E0,4.260000288E-1,3.970950127E0,9.175050735E0,1.000657169E1
1.856058875E0,4.639500082E-1,3.931950092E0,9.136950493E0,9.957878562E0
1.858022116E0,5.020500422E-1,3.931950092E0,9.175050735E0,9.994690679E0
1.859985661E0,5.020500422E-1,3.931950092E0,9.175050735E0,9.994690679E0
1.861949116E0,5.020500422E-1,3.894000292E0,9.214050293E0,1.001568846E1
1.863912669E0,5.410500169E-1,3.970950127E0,9.175050735E0,1.001212945E1
1.865876193E0,5.410500169E-1,3.931950092E0,9.214050293E0,1.003253156E1
1.867839595E0,5.020500422E-1,3.970950127E0,9.175050735E0,1.001009766E1
1.869803036E0,5.410500169E-1,3.931950092E0,9.175050735E0,9.996725596E0
1.871766366E0,5.410500169E-1,3.970950127E0,9.175050735E0,1.001212945E1
1.873729728E0,5.020500422E-1,4.009050369E0,9.175050735E0,1.002527282E1
1.875692982E0,4.639500082E-1,3.970950127E0,9.175050735E0,1.000825912E1
1.877656267E0,5.020500422E-1,3.970950127E0,9.136950493E0,9.975187390E0
1.879619313E0,4.639500082E-1,3.931950092E0,9.214050293E0,1.002866910E1
1.881582426E0,5.020500422E-1,3.970950127E0,9.175050735E0,1.001009766E1
1.883545630E0,5.020500422E-1,3.970950127E0,9.175050735E0,1.001009766E1
1.885508808E0,4.639500082E-1,4.009050369E0,9.175050735E0,1.002343706E1
1.887472048E0,4.260000288E-1,4.009050369E0,9.175050735E0,1.002175219E1
1.889435270E0,4.639500082E-1,3.970950127E0,9.175050735E0,1.000825912E1
1.891398648E0,5.020500422E-1,3.970950127E0,9.136950493E0,9.975187390E0
1.893362005E0,5.020500422E-1,3.970950127E0,9.175050735E0,1.001009766E1
1.895325215E0,4.639500082E-1,4.009050369E0,9.175050735E0,1.002343706E1
1.897288469E0,4.639500082E-1,4.009050369E0,9.136950493E0,9.988573411E0
1.899251380E0,5.020500422E-1,4.009050369E0,9.098999977E0,9.955718944E0
1.901214392E0,5.020500422E-1,3.970950127E0,9.175050735E0,1.001009766E1
1.903177629E0,5.020500422E-1,3.970950127E0,9.098999977E0,9.940437603E0
1.905140789E0,5.020500422E-1,3.970950127E0,9.136950493E0,9.975187390E0
1.907104032E0,5.020500422E-1,4.009050369E0,9.214050293E0,1.006097718E1
1.909067251E0,4.639500082E-1,3.970950127E0,9.136950493E0,9.973342410E0
1.911030350E0,4.639500082E-1,3.970950127E0,9.136950493E0,9.973342410E0
1.912993484E0,5.410500169E-1,3.931950092E0,9.175050735E0,9.996725596E0
1.914956570E0,5.020500422E-1,3.970950127E0,9.214050293E0,1.004585596E1
1.916919656E0,5.020500422E-1,3.931950092E0,9.214050293E0,1.003050390E1
1.918882866E0,5.020500422E-1,3.931950092E0,9.214050293E0,1.003050390E1
1.920846039E0,4.639500082E-1,3.931950092E0,9.214050293E0,1.002866910E1
1.922809146E0,5.410500169E-1,3.970950127E0,9.175050735E0,1.001212945E1
1.924772272E0,4.639500082E-1,3.970950127E0,9.175050735E0,1.000825912E1
1.926735394E0,4.260000288E-1,3.931950092E0,9.175050735E0,9.991159270E0
1.928698479E0,5.020500422E-1,3.931950092E0,9.136950493E0,9.959726406E0
1.930661374E0,5.020500422E-1,3.931950092E0,9.214050293E0,1.003050390E1
1.932624325E0,5.020500422E-1,3.970950127E0,9.175050735E0,1.001009766E1
1.934587738E0,5.020500422E-1,3.894000292E0,9.175050735E0,9.979822068E0
1.936551015E0,4.260000288E-1,3.931950092E0,9.175050735E0,9.991159270E0
1.938513937E0,5.020500422E-1,3.931950092E0,9.136950493E0,9.959726406E0
1.940476954E0,4.639500082E-1,3.931950092E0,9.136950493E0,9.957878562E0
1.942440040E0,5.790000558E-1,3.931950092E0,9.098999977E0,9.929112406E0
1.944403106E0,4.639500082E-1,4.009050369E0,9.214050293E0,1.005914794E1
1.946366320E0,4.639500082E-1,3.894000292E0,9.175050735E0,9.977977946E0
1.948329491E0,5.020500422E-1,3.931950092E0,9.175050735E0,9.994690679E0
1.950292211E0,5.020500422E-1,3.931950092E0,9.136950493E0,9.959726406E0
1.952255050E0,4.260000288E-1,3.931950092E0,9.098999977E0,9.921366243E0
1.954217986E0,4.639500082E-1,3.931950092E0,9.136950493E0,9.957878562E0
1.956180894E0,4.639500082E-1,3.931950092E0,9.136950493E0,9.957878562E0
1.958144000E0,5.020500422E-1,3.931950092E0,9.175050735E0,9.994690679E0
1.960107048E0,5.020500422E-1,3.931950092E0,9.175050735E0,9.994690679E0
1.962069947E0,5.020500422E-1,3.931950092E0,9.175050735E0,9.994690679E0
1.964032892E0,4.639500082E-1,3.931950092E0,9.136950493E0,9.957878562E0
1.965996171E0,5.410500169E-1,3.970950127E0,9.136950493E0,9.977226285E0
1.967959352E0,5.410500169E-1,3.931950092E0,9.136950493E0,9.961768465E0
1.969922457E0,5.020500422E-1,3.931950092E0,9.098999977E0,9.924922486E0
1.971885585E0,5.020500422E-1,3.931950092E0,9.098999977E0,9.924922486E0
1.973848633E0,5.020500422E-1,3.931950092E0,9.098999977E0,9.924922486E0
1.975811719E0,5.020500422E-1,3.931950092E0,9.098999977E0,9.924922486E0
1.977774973E0,4.639500082E-1,3.931950092E0,9.098999977E0,9.923068161E0
1.979738178E0,4.639500082E-1,3.931950092E0,9.022050858E0,9.852557171E0
1.981701234E0,4.639500082E-1,3.931950092E0,9.098999977E0,9.923068161E0
1.983664334E0,4.260000288E-1,3.931950092E0,9.060000420E0,9.885611522E0
1.985627271E0,4.639500082E-1,3.970950127E0,9.022050858E0,9.868186064E0
1.987590224E0,5.020500422E-1,3.931950092E0,9.060000420E0,9.889180622E0
1.989553502E0,4.639500082E-1,3.931950092E0,9.022050858E0,9.852557171E0
1.991516684E0,5.020500422E-1,3.931950092E0,9.098999977E0,9.924922486E0
1.993480058E0,5.410500169E-1,3.931950092E0,9.060000420E0,9.891237246E0
1.995443376E0,5.410500169E-1,3.931950092E0,9.060000420E0,9.891237246E0
1.997406267E0,5.410500169E-1,3.931950092E0,9.060000420E0,9.891237246E0
1.999369291E0,5.410500169E-1,4.009050369E0,9.060000420E0,9.922138257E0
2.001332691E0,5.410500169E-1,3.970950127E0,9.098999977E0,9.942483624E0
2.003295981E0,5.020500422E-1,3.970950127E0,9.098999977E0,9.940437603E0
2.005259382E0,5.020500422E-1,3.931950092E0,9.098999977E0,9.924922486E0
2.007222751E0,5.790000558E-1,3.931950092E0,9.098999977E0,9.929112406E0
2.009185297E0,5.020500422E-1,4.009050369E0,9.098999977E0,9.955718944E0
2.011148074E0,5.020500422E-1,3.931950092E0,9.136950493E0,9.959726406E0
2.013111562E0,5.410500169E-1,3.931950092E0,9.060000420E0,9.891237246E0
2.015074842E0,5.020500422E-1,3.931950092E0,9.136950493E0,9.959726406E0
2.017037885E0,5.020500422E-1,3.931950092E0,9.136950493E0,9.959726406E0
2.019000997E0,5.020500422E-1,3.931950092E0,9.098999977E0,9.924922486E0
2.020964399E0,4.639500082E-1,3.970950127E0,9.136950493E0,9.973342410E0
2.022927736E0,5.790000558E-1,3.931950092E0,9.136950493E0,9.963901691E0
2.024890724E0,5.020500422E-1,3.931950092E0,9.175050735E0,9.994690679E0
2.026853815E0,5.020500422E-1,3.970950127E0,9.098999977E0,9.940437603E0
2.028817294E0,5.020500422E-1,3.931950092E0,9.136950493E0,9.959726406E0
2.030780659E0,4.639500082E-1,3.970950127E0,9.098999977E0,9.938586172E0
2.032743503E0,4.639500082E-1,3.970950127E0,9.098999977E0,9.938586172E0
2.034706503E0,5.020500422E-1,3.970950127E0,9.136950493E0,9.975187390E0
2.036669592E0,5.410500169E-1,3.894000292E0,9.060000420E0,9.876212887E0
2.038632655E0,4.639500082E-1,3.970950127E0,9.098999977E0,9.938586172E0
2.040595510E0,5.020500422E-1,3.970950127E0,9.060000420E0,9.904751726E0
2.042558426E0,5.020500422E-1,3.970950127E0,9.098999977E0,9.940437603E0
2.044521491E0,4.639500082E-1,3.970950127E0,9.136950493E0,9.973342410E0
2.046484539E0,5.410500169E-1,3.970950127E0,9.098999977E0,9.942483624E0
2.048447801E0,4.639500082E-1,4.009050369E0,9.098999977E0,9.953870356E0
2.050411000E0,4.639500082E-1,3.970950127E0,9.060000420E0,9.902893624E0
2.052374102E0,4.639500082E-1,4.009050369E0,9.136950493E0,9.988573411E0
2.054337233E0,5.020500422E-1,3.970950127E0,9.060000420E0,9.904751726E0
2.056300425E0,4.639500082E-1,3.970950127E0,9.098999977E0,9.938586172E0
2.058263606E0,4.260000288E-1,4.009050369E0,9.136950493E0,9.986882657E0
2.060226711E0,4.639500082E-1,3.970950127E0,9.136950493E0,9.973342410E0
2.062189839E0,4.639500082E-1,3.970950127E0,9.060000420E0,9.902893624E0
2.064153447E0,4.639500082E-1,3.970950127E0,9.175050735E0,1.000825912E1
2.066116914E0,5.410500169E-1,3.970950127E0,9.098999977E0,9.942483624E0
2.068080240E0,5.020500422E-1,3.970950127E0,9.098999977E0,9.940437603E0
2.070043608E0,5.020500422E-1,4.009050369E0,9.098999977E0,9.955718944E0
2.072006860E0,5.410500169E-1,3.931950092E0,9.136950493E0,9.961768465E0
2.073970146E0,4.639500082E-1,3.970950127E0,9.136950493E0,9.973342410E0
2.075932601E0,5.020500422E-1,3.970950127E0,9.136950493E0,9.975187390E0
2.077895300E0,4.639500082E-1,3.970950127E0,9.175050735E0,1.000825912E1
2.079858325E0,5.020500422E-1,4.009050369E0,9.136950493E0,9.990415578E0
2.081821241E0,4.639500082E-1,4.009050369E0,9.136950493E0,9.988573411E0
2.083784481E0,5.020500422E-1,3.970950127E0,9.175050735E0,1.001009766E1
2.085747626E0,5.410500169E-1,4.009050369E0,9.175050735E0,1.002730153E1
2.087711458E0,5.020500422E-1,4.047000408E0,9.214050293E0,1.007615945E1
2.089675088E0,5.790000558E-1,4.009050369E0,9.252000809E0,1.009986361E1
2.091638572E0,6.169500351E-1,3.931950092E0,9.289950371E0,1.010663331E1
2.093602095E0,6.550500393E-1,3.931950092E0,9.175050735E0,1.000354328E1
2.095565140E0,6.169500351E-1,3.931950092E0,9.214050293E0,1.003691096E1
2.097528325E0,5.790000558E-1,3.894000292E0,9.136950493E0,9.948987066E0
2.099490843E0,5.020500422E-1,3.894000292E0,9.136950493E0,9.944805520E0
2.101453556E0,4.639500082E-1,3.894000292E0,9.022050858E0,9.837473739E0
2.103416698E0,4.639500082E-1,3.894000292E0,8.983950615E0,9.802543371E0
2.105379712E0,4.639500082E-1,3.931950092E0,9.022050858E0,9.852557171E0
2.107343295E0,5.020500422E-1,3.894000292E0,9.022050858E0,9.839344195E0
2.109306712E0,5.020500422E-1,3.931950092E0,9.022050858E0,9.854424765E0
2.111269957E0,5.020500422E-1,3.894000292E0,9.098999977E0,9.909949198E0
2.113233252E0,5.020500422E-1,3.931950092E0,9.060000420E0,9.889180622E0
2.115196408E0,4.639500082E-1,3.931950092E0,9.098999977E0,9.923068161E0
2.117159618E0,5.020500422E-1,3.931950092E0,9.136950493E0,9.959726406E0
2.119122492E0,5.020500422E-1,3.931950092E0,9.098999977E0,9.924922486E0
2.121085464E0,5.020500422E-1,3.970950127E0,9.098999977E0,9.940437603E0
2.123048738E0,4.260000288E-1,3.970950127E0,9.136950493E0,9.971649073E0
2.125011924E0,3.870000243E-1,3.970950127E0,9.060000420E0,9.899586937E0
2.126975023E0,4.639500082E-1,3.931950092E0,9.175050735E0,9.992849300E0
2.128938152E0,5.020500422E-1,4.009050369E0,9.214050293E0,1.006097718E1
2.130901354E0,5.020500422E-1,3.931950092E0,9.175050735E0,9.994690679E0
2.132864534E0,5.020500422E-1,3.970950127E0,9.175050735E0,1.001009766E1
2.134827640E0,5.020500422E-1,3.970950127E0,9.214050293E0,1.004585596E1
2.136790767E0,5.410500169E-1,3.931950092E0,9.214050293E0,1.003253156E1
2.138753800E0,5.020500422E-1,3.970950127E0,9.252000809E0,1.008067548E1
2.140716854E0,5.020500422E-1,3.931950092E0,9.252000809E0,1.006537653E1
2.142679934E0,5.410500169E-1,3.970950127E0,9.175050735E0,1.001212945E1
2.144643006E0,5.410500169E-1,3.931950092E0,9.214050293E0,1.003253156E1
2.146606444E0,5.410500169E-1,3.970950127E0,9.252000809E0,1.008269304E1
2.148569775E0,5.410500169E-1,4.009050369E0,9.252000809E0,1.009775911E1
2.150532829E0,5.410500169E-1,3.970950127E0,9.175050735E0,1.001212945E1
2.152495950E0,5.410500169E-1,4.009050369E0,9.214050293E0,1.006299870E1
2.154459243E0,5.410500169E-1,4.009050369E0,9.252000809E0,1.009775911E1
2.156422486E0,5.020500422E-1,3.970950127E0,9.214050293E0,1.004585596E1
2.158385850E0,4.639500082E-1,3.970950127E0,9.175050735E0,1.000825912E1
2.160349179E0,5.410500169E-1,3.970950127E0,9.214050293E0,1.004788051E1
2.162312277E0,5.020500422E-1,3.970950127E0,9.214050293E0,1.004585596E1
2.164275430E0,5.410500169E-1,3.970950127E0,9.136950493E0,9.977226285E0
2.166238494E0,5.410500169E-1,3.931950092E0,9.175050735E0,9.996725596E0
2.168201584E0,5.020500422E-1,4.009050369E0,9.136950493E0,9.990415578E0
2.170164973E0,5.020500422E-1,4.009050369E0,9.098999977E0,9.955718944E0
2.172128275E0,5.410500169E-1,4.009050369E0,9.098999977E0,9.957761825E0
2.174091129E0,5.410500169E-1,3.970950127E0,9.060000420E0,9.906805117E0
2.176054118E0,5.020500422E-1,3.970950127E0,9.098999977E0,9.940437603E0
2.178017209E0,5.410500169E-1,4.009050369E0,9.098999977E0,9.957761825E0
2.179980270E0,5.410500169E-1,4.009050369E0,9.060000420E0,9.922138257E0
2.181943394E0,5.020500422E-1,4.009050369E0,9.022050858E0,9.885440849E0
2.183906500E0,5.020500422E-1,3.970950127E0,9.060000420E0,9.904751726E0
2.185869568E0,5.020500422E-1,4.009050369E0,9.098999977E0,9.955718944E0
2.187832651E0,4.639500082E-1,4.009050369E0,9.098999977E0,9.953870356E0
2.189796086E0,5.410500169E-1,4.009050369E0,9.060000420E0,9.922138257E0
2.191759418E0,5.020500422E-1,3.970950127E0,9.098999977E0,9.940437603E0
2.193722407E0,5.020500422E-1,3.970950127E0,9.098999977E0,9.940437603E0
2.195685497E0,5.020500422E-1,3.970950127E0,9.098999977E0,9.940437603E0
2.197648407E0,5.020500422E-1,3.931950092E0,9.060000420E0,9.889180622E0
2.199611359E0,5.020500422E-1,3.970950127E0,9.136950493E0,9.975187390E0
2.201574501E0,5.410500169E-1,3.931950092E0,9.098999977E0,9.926971705E0
2.203537587E0,5.410500169E-1,3.970950127E0,9.136950493E0,9.977226285E0
2.205500978E0,5.410500169E-1,3.970950127E0,9.136950493E0,9.977226285E0
2.207464280E0,5.020500422E-1,3.970950127E0,9.136950493E0,9.975187390E0
2.209427319E0,5.020500422E-1,3.931950092E0,9.136950493E0,9.959726406E0
2.211390435E0,5.020500422E-1,3.970950127E0,9.098999977E0,9.940437603E0
2.213353325E0,5.020500422E-1,3.931950092E0,9.136950493E0,9.959726406E0
2.215316282E0,4.639500082E-1,3.931950092E0,9.060000420E0,9.887319593E0
2.217279423E0,5.020500422E-1,3.894000292E0,9.136950493E0,9.944805520E0
2.219242510E0,5.020500422E-1,3.931950092E0,9.175050735E0,9.994690679E0
2.221205721E0,5.410500169E-1,3.970950127E0,9.136950493E0,9.977226285E0
2.223168895E0,5.020500422E-1,3.931950092E0,9.136950493E0,9.959726406E0
2.225132136E0,5.020500422E-1,3.931950092E0,9.136950493E0,9.959726406E0
2.227095357E0,4.639500082E-1,3.970950127E0,9.214050293E0,1.004402396E1
2.229058455E0,5.410500169E-1,3.931950092E0,9.175050735E0,9.996725596E0
2.231021589E0,5.020500422E-1,3.931950092E0,9.098999977E0,9.924922486E0
2.232984473E0,5.410500169E-1,3.894000292E0,9.175050735E0,9.981860017E0
2.234947401E0,5.020500422E-1,3.970950127E0,9.136950493E0,9.975187390E0
2.236910547E0,5.410500169E-1,3.931950092E0,9.175050735E0,9.996725596E0
2.238873629E0,5.410500169E-1,3.970950127E0,9.136950493E0,9.977226285E0
2.240836841E0,5.020500422E-1,3.970950127E0,9.175050735E0,1.001009766E1
2.242800014E0,5.410500169E-1,3.931950092E0,9.136950493E0,9.961768465E0
2.244763806E0,5.410500169E-1,3.894000292E0,9.136950493E0,9.946850642E0
2.246727409E0,5.410500169E-1,3.931950092E0,9.214050293E0,1.003253156E1
2.248690216E0,5.020500422E-1,3.931950092E0,9.214050293E0,1.003050390E1
2.250653257E0,5.410500169E-1,3.894000292E0,9.175050735E0,9.981860017E0
2.252616384E0,4.639500082E-1,3.894000292E0,9.136950493E0,9.942954902E0
2.254579486E0,5.020500422E-1,3.931950092E0,9.175050735E0,9.994690679E0
2.256542544E0,5.410500169E-1,3.931950092E0,9.214050293E0,1.003253156E1
2.258505626E0,5.410500169E-1,3.931950092E0,9.175050735E0,9.996725596E0
2.260468881E0,5.020500422E-1,3.894000292E0,9.098999977E0,9.909949198E0
2.262432086E0,5.410500169E-1,3.931950092E0,9.175050735E0,9.996725596E0
2.264395277E0,5.790000558E-1,3.931950092E0,9.175050735E0,9.998851364E0
2.266358473E0,5.790000558E-1,3.894000292E0,9.175050735E0,9.983988949E0
2.268321205E0,5.020500422E-1,3.970950127E0,9.175050735E0,1.001009766E1
2.270284079E0,5.020500422E-1,3.931950092E0,9.136950493E0,9.959726406E0
2.272247190E0,5.020500422E-1,3.931950092E0,9.136950493E0,9.959726406E0
2.274210231E0,5.410500169E-1,3.931950092E0,9.175050735E0,9.996725596E0
2.276173135E0,5.020500422E-1,3.894000292E0,9.136950493E0,9.944805520E0
2.278136079E0,5.020500422E-1,3.970950127E0,9.175050735E0,1.001009766E1
2.280100048E0,5.020500422E-1,3.931950092E0,9.175050735E0,9.994690679E0
2.282063706E0,5.790000558E-1,3.970950127E0,9.175050735E0,1.001425194E1
2.284025603E0,5.410500169E-1,3.970950127E0,9.136950493E0,9.977226285E0
2.285988016E0,5.020500422E-1,3.894000292E0,9.136950493E0,9.944805520E0
2.287951071E0,5.410500169E-1,3.894000292E0,9.136950493E0,9.946850642E0
2.289913937E0,5.020500422E-1,3.931950092E0,9.136950493E0,9.959726406E0
2.291877902E0,5.410500169E-1,3.931950092E0,9.214050293E0,1.003253156E1
2.293841548E0,5.790000558E-1,3.931950092E0,9.175050735E0,9.998851364E0
2.295803807E0,4.639500082E-1,3.931950092E0,9.175050735E0,9.992849300E0
2.297766473E0,5.020500422E-1,3.931950092E0,9.175050735E0,9.994690679E0
2.299729619E0,5.020500422E-1,3.931950092E0,9.175050735E0,9.994690679E0
2.301692625E0,5.410500169E-1,4.009050369E0,9.175050735E0,1.002730153E1
2.303655729E0,5.410500169E-1,4.009050369E0,9.098999977E0,9.957761825E0
2.305618793E0,5.020500422E-1,3.970950127E0,9.136950493E0,9.975187390E0
2.307582053E0,4.639500082E-1,3.970950127E0,9.136950493E0,9.973342410E0
2.309545255E0,4.639500082E-1,3.970950127E0,9.098999977E0,9.938586172E0
2.311508491E0,5.020500422E-1,3.970950127E0,9.136950493E0,9.975187390E0
2.313471717E0,5.410500169E-1,3.931950092E0,9.098999977E0,9.926971705E0
2.315434643E0,5.410500169E-1,3.931950092E0,9.175050735E0,9.996725596E0
2.317397651E0,5.410500169E-1,3.970950127E0,9.136950493E0,9.977226285E0
2.319360559E0,5.410500169E-1,3.931950092E0,9.098999977E0,9.926971705E0
2.321323497E0,5.020500422E-1,3.931950092E0,9.098999977E0,9.924922486E0
2.323286731E0,5.410500169E-1,3.931950092E0,9.098999977E0,9.926971705E0
2.325249879E0,5.020500422E-1,3.931950092E0,9.098999977E0,9.924922486E0
2.327213159E0,5.410500169E-1,3.931950092E0,9.060000420E0,9.891237246E0
2.329176408E0,5.410500169E-1,3.931950092E0,9.136950493E0,9.961768465E0
2.331139951E0,5.790000558E-1,3.931950092E0,9.098999977E0,9.929112406E0
2.333103408E0,5.790000558E-1,3.931950092E0,9.060000420E0,9.893385679E0
2.335065519E0,5.790000558E-1,3.894000292E0,9.098999977E0,9.914145446E0
2.337028025E0,5.020500422E-1,3.894000292E0,9.098999977E0,9.909949198E0
2.338991766E0,5.020500422E-1,3.894000292E0,9.175050735E0,9.979822068E0
2.340955158E0,5.790000558E-1,3.970950127E0,9.175050735E0,1.001425194E1
2.342917641E0,5.410500169E-1,3.931950092E0,9.098999977E0,9.926971705E0
2.344880391E0,5.410500169E-1,3.931950092E0,9.098999977E0,9.926971705E0
2.346844379E0,5.790000558E-1,3.931950092E0,9.175050735E0,9.998851364E0
2.348808004E0,5.410500169E-1,3.931950092E0,9.136950493E0,9.961768465E0
2.350770673E0,4.639500082E-1,3.931950092E0,9.136950493E0,9.957878562E0
2.352733622E0,5.020500422E-1,3.894000292E0,9.098999977E0,9.909949198E0
2.354696855E0,5.410500169E-1,3.931950092E0,9.098999977E0,9.926971705E0
2.356660004E0,5.410500169E-1,3.931950092E0,9.136950493E0,9.961768465E0
2.358623294E0,5.020500422E-1,3.931950092E0,9.136950493E0,9.959726406E0
2.360586543E0,5.020500422E-1,3.931950092E0,9.098999977E0,9.924922486E0
2.362549551E0,5.020500422E-1,3.931950092E0,9.175050735E0,9.994690679E0
2.364512627E0,5.020500422E-1,3.931950092E0,9.098999977E0,9.924922486E0
2.366475569E0,5.020500422E-1,3.931950092E0,9.098999977E0,9.924922486E0
2.368438550E0,5.020500422E-1,3.931950092E0,9.136950493E0,9.959726406E0
2.370401597E0,5.020500422E-1,3.970950127E0,9.136950493E0,9.975187390E0
2.372364625E0,4.639500082E-1,3.931950092E0,9.098999977E0,9.923068161E0
2.374328131E0,5.020500422E-1,3.970950127E0,9.060000420E0,9.904751726E0
2.376291486E0,5.410500169E-1,3.894000292E0,9.136950493E0,9.946850642E0
2.378253931E0,5.020500422E-1,4.009050369E0,9.060000420E0,9.920088040E0
2.380216642E0,5.020500422E-1,3.931950092E0,9.136950493E0,9.959726406E0
2.382179826E0,5.410500169E-1,3.931950092E0,9.136950493E0,9.961768465E0
2.384142871E0,5.410500169E-1,3.894000292E0,9.098999977E0,9.912001512E0
2.386106485E0,5.410500169E-1,3.931950092E0,9.136950493E0,9.961768465E0
2.388069938E0,5.790000558E-1,3.931950092E0,9.136950493E0,9.963901691E0
2.390032411E0,5.020500422E-1,3.894000292E0,9.136950493E0,9.944805520E0
2.391995171E0,5.410500169E-1,3.931950092E0,9.175050735E0,9.996725596E0
2.393958256E0,5.410500169E-1,3.894000292E0,9.136950493E0,9.946850642E0
2.395921246E0,5.410500169E-1,3.931950092E0,9.175050735E0,9.996725596E0
2.397884043E0,5.790000558E-1,3.931950092E0,9.175050735E0,9.998851364E0
2.399846883E0,5.410500169E-1,3.931950092E0,9.175050735E0,9.996725596E0
2.401809595E0,5.790000558E-1,3.894000292E0,9.175050735E0,9.983988949E0
2.403772344E0,5.410500169E-1,3.931950092E0,9.175050735E0,9.996725596E0
2.405735476E0,5.790000558E-1,3.894000292E0,9.175050735E0,9.983988949E0
2.407698496E0,5.790000558E-1,3.970950127E0,9.214050293E0,1.004999546E1
2.409661277E0,5.410500169E-1,3.931950092E0,9.214050293E0,1.003253156E1
2.411624122E0,5.020500422E-1,3.970950127E0,9.252000809E0,1.008067548E1
2.413587914E0,5.790000558E-1,3.931950092E0,9.214050293E0,1.003464974E1
2.415551428E0,5.790000558E-1,3.894000292E0,9.214050293E0,1.001984042E1
2.417513936E0,5.790000558E-1,3.931950092E0,9.175050735E0,9.998851364E0
2.419476738E0,5.020500422E-1,3.931950092E0,9.252000809E0,1.006537653E1
2.421440032E0,5.410500169E-1,3.970950127E0,9.214050293E0,1.004788051E1
2.423403188E0,5.020500422E-1,3.931950092E0,9.252000809E0,1.006537653E1
2.425366253E0,5.410500169E-1,3.970950127E0,9.214050293E0,1.004788051E1
2.427329344E0,5.020500422E-1,3.970950127E0,9.214050293E0,1.004585596E1
2.429292733E0,5.410500169E-1,3.931950092E0,9.252000809E0,1.006739716E1
2.431256034E0,5.020500422E-1,3.970950127E0,9.252000809E0,1.008067548E1
2.433219074E0,5.020500422E-1,3.931950092E0,9.136950493E0,9.959726406E0
2.435182190E0,4.260000288E-1,3.970950127E0,9.252000809E0,1.007717420E1
2.437145305E0,5.020500422E-1,4.009050369E0,9.175050735E0,1.002527282E1
2.439108421E0,5.020500422E-1,4.009050369E0,9.252000809E0,1.009574455E1
2.441071446E0,4.639500082E-1,3.970950127E0,9.214050293E0,1.004402396E1
2.443034498E0,4.639500082E-1,4.009050369E0,9.214050293E0,1.005914794E1
2.444997818E0,4.639500082E-1,4.009050369E0,9.175050735E0,1.002343706E1
2.446961049E0,4.260000288E-1,3.970950127E0,9.214050293E0,1.004234254E1
2.448924280E0,4.260000288E-1,4.009050369E0,9.214050293E0,1.005746905E1
2.450887511E0,4.639500082E-1,3.970950127E0,9.214050293E0,1.004402396E1
2.452850876E0,4.260000288E-1,4.009050369E0,9.214050293E0,1.005746905E1
2.454814202E0,4.639500082E-1,4.009050369E0,9.214050293E0,1.005914794E1
2.456777473E0,4.639500082E-1,3.970950127E0,9.214050293E0,1.004402396E1
2.458740753E0,4.639500082E-1,3.970950127E0,9.214050293E0,1.004402396E1
2.460704109E0,5.020500422E-1,4.009050369E0,9.175050735E0,1.002527282E1
2.462667443E0,4.639500082E-1,3.970950127E0,9.214050293E0,1.004402396E1
2.464630342E0,4.260000288E-1,3.970950127E0,9.214050293E0,1.004234254E1
2.466593368E0,4.639500082E-1,4.009050369E0,9.252000809E0,1.009392161E1
2.468556213E0,5.020500422E-1,3.970950127E0,9.252000809E0,1.008067548E1
2.470519122E0,5.020500422E-1,4.009050369E0,9.289950371E0,1.013053390E1
2.472482272E0,5.020500422E-1,3.931950092E0,9.289950371E0,1.010027047E1
2.474445351E0,5.410500169E-1,3.931950092E0,9.289950371E0,1.010228412E1
2.476408743E0,5.020500422E-1,3.970950127E0,9.252000809E0,1.008067548E1
2.478372044E0,5.020500422E-1,3.894000292E0,9.214050293E0,1.001568846E1
2.480335295E0,5.020500422E-1,3.894000292E0,9.252000809E0,1.005061249E1
2.482298570E0,5.410500169E-1,3.931950092E0,9.252000809E0,1.006739716E1
2.484262288E0,5.020500422E-1,3.931950092E0,9.214050293E0,1.003050390E1
2.486225876E0,5.410500169E-1,3.931950092E0,9.214050293E0,1.003253156E1
2.488189091E0,5.410500169E-1,3.894000292E0,9.175050735E0,9.981860017E0
2.490152416E0,5.020500422E-1,3.970950127E0,9.214050293E0,1.004585596E1
2.492115592E0,5.410500169E-1,3.931950092E0,9.214050293E0,1.003253156E1
2.494078839E0,5.020500422E-1,3.931950092E0,9.214050293E0,1.003050390E1
2.496042021E0,4.639500082E-1,3.931950092E0,9.214050293E0,1.002866910E1
2.498005223E0,4.639500082E-1,3.970950127E0,9.175050735E0,1.000825912E1
2.499968324E0,4.639500082E-1,3.894000292E0,9.136950493E0,9.942954902E0
2.501931454E0,5.410500169E-1,3.931950092E0,9.175050735E0,9.996725596E0
2.503894322E0,5.410500169E-1,3.894000292E0,9.175050735E0,9.981860017E0
2.505857281E0,5.410500169E-1,3.931950092E0,9.175050735E0,9.996725596E0
2.507820512E0,5.410500169E-1,3.894000292E0,9.175050735E0,9.981860017E0
2.509783664E0,5.020500422E-1,3.931950092E0,9.175050735E0,9.994690679E0
2.511747088E0,5.410500169E-1,3.894000292E0,9.214050293E0,1.001771911E1
2.513710433E0,5.410500169E-1,3.894000292E0,9.214050293E0,1.001771911E1
2.515673280E0,5.410500169E-1,3.894000292E0,9.214050293E0,1.001771911E1
2.517636276E0,5.410500169E-1,3.894000292E0,9.136950493E0,9.946850642E0
2.519599411E0,5.410500169E-1,3.931950092E0,9.175050735E0,9.996725596E0
2.521562505E0,5.020500422E-1,3.894000292E0,9.175050735E0,9.979822068E0
2.523526300E0,5.410500169E-1,3.931950092E0,9.175050735E0,9.996725596E0
2.525489890E0,5.790000558E-1,3.894000292E0,9.175050735E0,9.983988949E0
2.527452174E0,5.790000558E-1,3.894000292E0,9.098999977E0,9.914145446E0
2.529414830E0,5.410500169E-1,3.894000292E0,9.136950493E0,9.946850642E0
2.531378474E0,5.790000558E-1,3.894000292E0,9.136950493E0,9.948987066E0
2.533341828E0,5.790000558E-1,3.894000292E0,9.136950493E0,9.948987066E0
2.535304723E0,5.790000558E-1,3.894000292E0,9.136950493E0,9.948987066E0
2.537267753E0,5.790000558E-1,3.931950092E0,9.175050735E0,9.998851364E0
2.539231152E0,6.169500351E-1,3.894000292E0,9.098999977E0,9.916434148E0
2.541194443E0,5.790000558E-1,3.931950092E0,9.060000420E0,9.893385679E0
2.543157349E0,6.169500351E-1,3.894000292E0,9.060000420E0,9.880661578E0
2.545120368E0,6.169500351E-1,3.894000292E0,9.060000420E0,9.880661578E0
2.547083275E0,5.410500169E-1,3.931950092E0,9.022050858E0,9.856488641E0
2.549046215E0,5.790000558E-1,3.931950092E0,8.983950615E0,9.823789556E0
2.551009475E0,5.790000558E-1,3.894000292E0,9.022050858E0,9.843570542E0
2.552972655E0,5.790000558E-1,3.931950092E0,8.983950615E0,9.823789556E0
2.554934949E0,5.790000558E-1,3.894000292E0,9.022050858E0,9.843570542E0
2.556897503E0,5.410500169E-1,3.894000292E0,9.022050858E0,9.841411234E0
2.558861209E0,5.790000558E-1,3.856050253E0,9.060000420E0,9.863466542E0
2.560824578E0,6.169500351E-1,3.931950092E0,9.022050858E0,9.860946230E0
2.562787925E0,5.790000558E-1,3.894000292E0,9.060000420E0,9.878364588E0
2.564751307E0,5.790000558E-1,3.894000292E0,9.098999977E0,9.914145446E0
2.566713657E0,5.790000558E-1,3.931950092E0,9.060000420E0,9.893385679E0
2.568676309E0,5.410500169E-1,3.931950092E0,9.136950493E0,9.961768465E0
2.570640359E0,5.790000558E-1,3.931950092E0,9.098999977E0,9.929112406E0
2.572604000E0,5.790000558E-1,3.970950127E0,9.098999977E0,9.944620986E0
2.574567306E0,5.790000558E-1,3.931950092E0,9.098999977E0,9.929112406E0
2.576530704E0,5.790000558E-1,3.931950092E0,9.175050735E0,9.998851364E0
2.578493366E0,6.169500351E-1,3.931950092E0,9.175050735E0,1.000112068E1
2.580456243E0,5.790000558E-1,3.970950127E0,9.136950493E0,9.979356206E0
2.582419893E0,6.169500351E-1,3.894000292E0,9.175050735E0,9.986261644E0
2.584383317E0,5.790000558E-1,3.894000292E0,9.175050735E0,9.983988949E0
2.586345289E0,5.790000558E-1,3.931950092E0,9.136950493E0,9.963901691E0
2.588307694E0,5.790000558E-1,3.970950127E0,9.136950493E0,9.979356206E0
2.590271381E0,6.169500351E-1,3.894000292E0,9.136950493E0,9.951267755E0
2.592234692E0,5.790000558E-1,3.931950092E0,9.136950493E0,9.963901691E0
2.594197009E0,5.020500422E-1,3.970950127E0,9.136950493E0,9.975187390E0
2.596159617E0,5.410500169E-1,3.970950127E0,9.098999977E0,9.942483624E0
2.598122574E0,5.790000558E-1,3.970950127E0,9.136950493E0,9.979356206E0
2.600085442E0,5.410500169E-1,3.970950127E0,9.214050293E0,1.004788051E1
2.602048735E0,5.020500422E-1,4.009050369E0,9.136950493E0,9.990415578E0
2.604011904E0,5.020500422E-1,3.931950092E0,9.136950493E0,9.959726406E0
2.605974966E0,5.410500169E-1,3.970950127E0,9.136950493E0,9.977226285E0
2.607938060E0,5.020500422E-1,4.009050369E0,9.136950493E0,9.990415578E0
2.609901154E0,5.020500422E-1,4.009050369E0,9.098999977E0,9.955718944E0
2.611864265E0,4.639500082E-1,3.931950092E0,9.060000420E0,9.887319593E0
2.613827516E0,5.020500422E-1,4.009050369E0,9.098999977E0,9.955718944E0
2.615790726E0,5.020500422E-1,4.009050369E0,9.060000420E0,9.920088040E0
2.617753556E0,4.639500082E-1,4.009050369E0,9.136950493E0,9.988573411E0
2.619716497E0,4.639500082E-1,3.970950127E0,9.060000420E0,9.902893624E0
2.621679456E0,4.639500082E-1,3.970950127E0,9.136950493E0,9.973342410E0
2.623642413E0,5.020500422E-1,3.970950127E0,9.175050735E0,1.001009766E1
2.625605511E0,4.639500082E-1,4.009050369E0,9.098999977E0,9.953870356E0
2.627568567E0,4.639500082E-1,3.970950127E0,9.136950493E0,9.973342410E0
2.629531604E0,5.020500422E-1,4.009050369E0,9.136950493E0,9.990415578E0
2.631494646E0,5.410500169E-1,3.970950127E0,9.136950493E0,9.977226285E0
2.633457198E0,5.020500422E-1,3.970950127E0,9.136950493E0,9.975187390E0
2.635419887E0,5.020500422E-1,3.970950127E0,9.136950493E0,9.975187390E0
2.637382669E0,5.020500422E-1,3.970950127E0,9.175050735E0,1.001009766E1
2.639345423E0,4.639500082E-1,3.970950127E0,9.098999977E0,9.938586172E0
2.641308195E0,4.260000288E-1,3.970950127E0,9.060000420E0,9.901188239E0
2.643270962E0,4.639500082E-1,3.931950092E0,9.136950493E0,9.957878562E0
2.645234122E0,5.020500422E-1,3.970950127E0,9.136950493E0,9.975187390E0
2.647197178E0,4.260000288E-1,4.009050369E0,9.175050735E0,1.002175219E1
2.649160259E0,5.020500422E-1,4.009050369E0,9.136950493E0,9.990415578E0
2.651123332E0,5.020500422E-1,4.009050369E0,9.175050735E0,1.002527282E1
2.653086185E0,5.020500422E-1,3.970950127E0,9.098999977E0,9.940437603E0
2.655049103E0,5.020500422E-1,4.009050369E0,9.098999977E0,9.955718944E0
2.657012216E0,4.639500082E-1,3.970950127E0,9.136950493E0,9.973342410E0
2.658975265E0,4.260000288E-1,4.009050369E0,9.136950493E0,9.986882657E0
2.660938213E0,4.639500082E-1,3.970950127E0,9.098999977E0,9.938586172E0
2.662901190E0,4.639500082E-1,3.931950092E0,9.098999977E0,9.923068161E0
2.664864238E0,4.639500082E-1,3.970950127E0,9.136950493E0,9.973342410E0
2.666827265E0,4.639500082E-1,3.931950092E0,9.136950493E0,9.957878562E0
2.668790370E0,4.260000288E-1,3.931950092E0,9.136950493E0,9.956182595E0
2.670753438E0,5.020500422E-1,3.931950092E0,9.136950493E0,9.959726406E0
2.672716516E0,5.020500422E-1,3.931950092E0,9.098999977E0,9.924922486E0
2.674679591E0,4.639500082E-1,3.931950092E0,9.136950493E0,9.957878562E0
2.676642534E0,4.639500082E-1,3.894000292E0,9.175050735E0,9.977977946E0
2.678605516E0,5.020500422E-1,3.931950092E0,9.175050735E0,9.994690679E0
2.680568587E0,5.020500422E-1,3.894000292E0,9.136950493E0,9.944805520E0
2.682531615E0,5.410500169E-1,3.894000292E0,9.098999977E0,9.912001512E0
2.684494926E0,5.410500169E-1,3.894000292E0,9.175050735E0,9.981860017E0
2.686458154E0,5.410500169E-1,3.931950092E0,9.136950493E0,9.961768465E0
2.688420845E0,5.790000558E-1,3.931950092E0,9.136950493E0,9.963901691E0
2.690383694E0,5.020500422E-1,3.931950092E0,9.175050735E0,9.994690679E0
2.692346939E0,5.410500169E-1,3.931950092E0,9.136950493E0,9.961768465E0
2.694310072E0,5.020500422E-1,3.931950092E0,9.136950493E0,9.959726406E0
2.696273319E0,5.410500169E-1,3.931950092E0,9.098999977E0,9.926971705E0
2.698236533E0,5.410500169E-1,3.931950092E0,9.098999977E0,9.926971705E0
2.700199812E0,5.410500169E-1,3.894000292E0,9.098999977E0,9.912001512E0
2.702163072E0,5.790000558E-1,3.931950092E0,9.136950493E0,9.963901691E0
2.704125893E0,5.020500422E-1,3.931950092E0,9.136950493E0,9.959726406E0
2.706088843E0,5.020500422E-1,3.894000292E0,9.136950493E0,9.944805520E0
2.708051941E0,5.410500169E-1,3.894000292E0,9.136950493E0,9.946850642E0
2.710014995E0,5.410500169E-1,3.931950092E0,9.098999977E0,9.926971705E0
2.711978121E0,5.020500422E-1,3.931950092E0,9.098999977E0,9.924922486E0
2.713941226E0,5.410500169E-1,3.970950127E0,9.098999977E0,9.942483624E0
2.715904069E0,5.410500169E-1,3.970950127E0,9.136950493E0,9.977226285E0
2.717866992E0,5.020500422E-1,4.009050369E0,9.098999977E0,9.955718944E0
2.719830094E0,5.410500169E-1,3.970950127E0,9.136950493E0,9.977226285E0
2.721793144E0,5.410500169E-1,3.970950127E0,9.175050735E0,1.001212945E1
2.723756226E0,5.410500169E-1,3.931950092E0,9.136950493E0,9.961768465E0
2.725719298E0,5.020500422E-1,3.970950127E0,9.175050735E0,1.001009766E1
2.727682601E0,5.020500422E-1,3.970950127E0,9.175050735E0,1.001009766E1
2.729645836E0,5.020500422E-1,3.970950127E0,9.175050735E0,1.001009766E1
2.731608842E0,5.790000558E-1,4.009050369E0,9.175050735E0,1.002942082E1
2.733571915E0,4.639500082E-1,4.009050369E0,9.136950493E0,9.988573411E0
2.735534857E0,4.639500082E-1,3.970950127E0,9.214050293E0,1.004402396E1
2.737497838E0,5.020500422E-1,4.009050369E0,9.175050735E0,1.002527282E1
2.739461126E0,5.020500422E-1,3.970950127E0,9.136950493E0,9.975187390E0
2.741424313E0,5.410500169E-1,4.009050369E0,9.214050293E0,1.006299870E1
2.743387327E0,5.410500169E-1,4.009050369E0,9.175050735E0,1.002730153E1
2.745350392E0,4.260000288E-1,3.970950127E0,9.214050293E0,1.004234254E1
2.747313650E0,4.639500082E-1,4.009050369E0,9.175050735E0,1.002343706E1
2.749276851E0,5.020500422E-1,4.009050369E0,9.214050293E0,1.006097718E1
2.751240112E0,5.020500422E-1,4.009050369E0,9.175050735E0,1.002527282E1
2.753203338E0,5.020500422E-1,3.970950127E0,9.175050735E0,1.001009766E1
2.755166614E0,5.410500169E-1,3.970950127E0,9.214050293E0,1.004788051E1
2.757129876E0,5.410500169E-1,3.970950127E0,9.175050735E0,1.001212945E1
2.759093237E0,5.410500169E-1,4.009050369E0,9.214050293E0,1.006299870E1
2.761056569E0,5.020500422E-1,3.931950092E0,9.175050735E0,9.994690679E0
2.763019993E0,5.410500169E-1,3.931950092E0,9.175050735E0,9.996725596E0
2.764983400E0,4.639500082E-1,3.931950092E0,9.175050735E0,9.992849300E0
2.766946782E0,5.410500169E-1,3.931950092E0,9.175050735E0,9.996725596E0
2.768910171E0,5.020500422E-1,3.894000292E0,9.214050293E0,1.001568846E1
2.770873555E0,5.020500422E-1,3.894000292E0,9.214050293E0,1.001568846E1
2.772836940E0,5.410500169E-1,3.894000292E0,9.175050735E0,9.981860017E0
2.774800085E0,5.410500169E-1,3.931950092E0,9.175050735E0,9.996725596E0
2.776763311E0,5.410500169E-1,3.931950092E0,9.175050735E0,9.996725596E0
2.778726227E0,5.020500422E-1,3.931950092E0,9.175050735E0,9.994690679E0
2.780689234E0,5.410500169E-1,3.894000292E0,9.175050735E0,9.981860017E0
2.782652322E0,5.410500169E-1,3.931950092E0,9.214050293E0,1.003253156E1
2.784615386E0,5.020500422E-1,3.931950092E0,9.175050735E0,9.994690679E0
2.786578401E0,5.790000558E-1,3.894000292E0,9.136950493E0,9.948987066E0
2.788541445E0,5.410500169E-1,3.856050253E0,9.214050293E0,1.000302862E1
2.790504887E0,5.410500169E-1,3.894000292E0,9.252000809E0,1.005263609E1
2.792468212E0,5.020500422E-1,3.894000292E0,9.175050735E0,9.979822068E0
2.794431067E0,5.410500169E-1,3.856050253E0,9.136950493E0,9.932055325E0
2.796394060E0,5.410500169E-1,3.894000292E0,9.175050735E0,9.981860017E0
2.798357941E0,5.410500169E-1,3.894000292E0,9.214050293E0,1.001771911E1
2.800321544E0,5.790000558E-1,3.856050253E0,9.175050735E0,9.969248749E0
2.802284487E0,5.020500422E-1,3.894000292E0,9.252000809E0,1.005061249E1
2.804247623E0,5.790000558E-1,3.931950092E0,9.175050735E0,9.998851364E0
2.806210329E0,5.020500422E-1,3.931950092E0,9.175050735E0,9.994690679E0
2.808173161E0,5.410500169E-1,3.931950092E0,9.175050735E0,9.996725596E0
2.810136509E0,5.790000558E-1,3.931950092E0,9.175050735E0,9.998851364E0
2.812099703E0,5.410500169E-1,3.931950092E0,9.175050735E0,9.996725596E0
2.814062896E0,5.020500422E-1,3.931950092E0,9.136950493E0,9.959726406E0
2.816026089E0,5.020500422E-1,3.931950092E0,9.136950493E0,9.959726406E0
2.817989191E0,5.020500422E-1,3.970950127E0,9.136950493E0,9.975187390E0
2.819952320E0,5.410500169E-1,3.931950092E0,9.175050735E0,9.996725596E0
2.821915388E0,5.410500169E-1,3.931950092E0,9.098999977E0,9.926971705E0
2.823878474E0,5.410500169E-1,3.894000292E0,9.136950493E0,9.946850642E0
2.825841324E0,5.410500169E-1,3.931950092E0,9.136950493E0,9.961768465E0
2.827804243E0,5.020500422E-1,3.894000292E0,9.098999977E0,9.909949198E0
2.829767346E0,5.020500422E-1,3.970950127E0,9.098999977E0,9.940437603E0
2.831730395E0,5.410500169E-1,3.931950092E0,9.098999977E0,9.926971705E0
2.833693536E0,5.410500169E-1,3.931950092E0,9.060000420E0,9.891237246E0
2.835656640E0,5.020500422E-1,3.931950092E0,9.060000420E0,9.889180622E0
2.837619892E0,5.020500422E-1,3.970950127E0,9.098999977E0,9.940437603E0
2.839583101E0,4.639500082E-1,3.931950092E0,9.136950493E0,9.957878562E0
2.841546516E0,5.790000558E-1,3.931950092E0,9.060000420E0,9.893385679E0
2.843509871E0,5.020500422E-1,3.931950092E0,9.098999977E0,9.924922486E0
2.845472726E0,5.020500422E-1,3.931950092E0,9.098999977E0,9.924922486E0
2.847435724E0,5.410500169E-1,3.931950092E0,9.060000420E0,9.891237246E0
2.849398768E0,5.410500169E-1,3.931950092E0,9.098999977E0,9.926971705E0
2.851361799E0,5.410500169E-1,3.931950092E0,9.136950493E0,9.961768465E0
2.853324569E0,4.639500082E-1,3.894000292E0,9.098999977E0,9.908092070E0
2.855287416E0,5.020500422E-1,3.894000292E0,9.098999977E0,9.909949198E0
2.857250818E0,5.020500422E-1,3.970950127E0,9.136950493E0,9.975187390E0
2.859214077E0,5.020500422E-1,3.894000292E0,9.098999977E0,9.909949198E0
2.861177304E0,5.020500422E-1,3.931950092E0,9.136950493E0,9.959726406E0
2.863140541E0,5.410500169E-1,3.931950092E0,9.098999977E0,9.926971705E0
2.865103455E0,5.790000558E-1,3.894000292E0,9.175050735E0,9.983988949E0
2.867066464E0,5.410500169E-1,3.931950092E0,9.136950493E0,9.961768465E0
2.869029173E0,5.410500169E-1,3.894000292E0,9.175050735E0,9.981860017E0
2.870991983E0,5.410500169E-1,3.931950092E0,9.136950493E0,9.961768465E0
2.872955060E0,5.410500169E-1,3.894000292E0,9.175050735E0,9.981860017E0
2.874918058E0,5.410500169E-1,3.894000292E0,9.175050735E0,9.981860017E0
2.876880789E0,4.639500082E-1,3.894000292E0,9.175050735E0,9.977977946E0
2.878843599E0,5.410500169E-1,3.931950092E0,9.175050735E0,9.996725596E0
2.880806887E0,5.410500169E-1,3.894000292E0,9.175050735E0,9.981860017E0
2.882770044E0,5.410500169E-1,3.856050253E0,9.175050735E0,9.967116668E0
2.884733333E0,5.020500422E-1,3.894000292E0,9.214050293E0,1.001568846E1
2.886696583E0,5.020500422E-1,3.931950092E0,9.175050735E0,9.994690679E0
2.888659946E0,5.790000558E-1,3.894000292E0,9.175050735E0,9.983988949E0
2.890623275E0,5.020500422E-1,3.931950092E0,9.136950493E0,9.959726406E0
2.892586160E0,5.410500169E-1,3.894000292E0,9.175050735E0,9.981860017E0
2.894549185E0,5.020500422E-1,3.931950092E0,9.175050735E0,9.994690679E0
2.896512631E0,5.020500422E-1,3.894000292E0,9.175050735E0,9.979822068E0
2.898475953E0,5.410500169E-1,3.856050253E0,9.136950493E0,9.932055325E0
2.900439348E0,5.410500169E-1,3.931950092E0,9.175050735E0,9.996725596E0
2.902402722E0,5.410500169E-1,3.931950092E0,9.214050293E0,1.003253156E1
2.904366259E0,5.410500169E-1,3.931950092E0,9.136950493E0,9.961768465E0
2.906329737E0,5.020500422E-1,3.931950092E0,9.136950493E0,9.959726406E0
2.908292791E0,5.410500169E-1,3.931950092E0,9.136950493E0,9.961768465E0
2.910255970E0,5.020500422E-1,3.931950092E0,9.136950493E0,9.959726406E0
2.912219208E0,4.639500082E-1,3.931950092E0,9.175050735E0,9.992849300E0
2.914182429E0,4.639500082E-1,3.931950092E0,9.175050735E0,9.992849300E0
2.916145618E0,5.410500169E-1,3.931950092E0,9.175050735E0,9.996725596E0
2.918108816E0,5.020500422E-1,3.970950127E0,9.175050735E0,1.001009766E1
2.920071917E0,5.020500422E-1,3.931950092E0,9.136950493E0,9.959726406E0
2.922035046E0,5.020500422E-1,3.931950092E0,9.175050735E0,9.994690679E0
2.923998474E0,5.020500422E-1,3.931950092E0,9.136950493E0,9.959726406E0
2.925961814E0,5.020500422E-1,3.931950092E0,9.098999977E0,9.924922486E0
2.927925132E0,5.020500422E-1,3.931950092E0,9.136950493E0,9.959726406E0
2.929888477E0,5.020500422E-1,3.931950092E0,9.175050735E0,9.994690679E0
2.931851690E0,5.020500422E-1,3.970950127E0,9.060000420E0,9.904751726E0
2.933814941E0,5.020500422E-1,3.970950127E0,9.214050293E0,1.004585596E1
2.935778168E0,4.639500082E-1,3.970950127E0,9.175050735E0,1.000825912E1
2.937741402E0,4.639500082E-1,3.931950092E0,9.136950493E0,9.957878562E0
2.939704616E0,4.639500082E-1,3.931950092E0,9.252000809E0,1.006354809E1
2.941667848E0,4.260000288E-1,3.931950092E0,9.175050735E0,9.991159270E0
2.943631258E0,5.020500422E-1,3.970950127E0,9.214050293E0,1.004585596E1
2.945594615E0,4.639500082E-1,3.931950092E0,9.214050293E0,1.002866910E1
2.947558185E0,5.020500422E-1,3.970950127E0,9.252000809E0,1.008067548E1
2.949521692E0,4.639500082E-1,3.970950127E0,9.136950493E0,9.973342410E0
2.951484857E0,5.020500422E-1,3.970950127E0,9.175050735E0,1.001009766E1
2.953448136E0,5.020500422E-1,3.931950092E0,9.252000809E0,1.006537653E1
2.955411718E0,4.260000288E-1,3.970950127E0,9.214050293E0,1.004234254E1
2.957375211E0,5.020500422E-1,3.931950092E0,9.175050735E0,9.994690679E0
2.959338443E0,5.020500422E-1,3.931950092E0,9.214050293E0,1.003050390E1
2.961301752E0,5.410500169E-1,3.970950127E0,9.214050293E0,1.004788051E1
2.963265129E0,5.020500422E-1,3.970950127E0,9.175050735E0,1.001009766E1
2.965228500E0,5.410500169E-1,3.970950127E0,9.214050293E0,1.004788051E1
2.967191708E0,4.639500082E-1,3.970950127E0,9.252000809E0,1.007884981E1
2.969154964E0,5.020500422E-1,3.931950092E0,9.252000809E0,1.006537653E1
2.971118685E0,4.639500082E-1,3.931950092E0,9.175050735E0,9.992849300E0
2.973082269E0,5.020500422E-1,3.931950092E0,9.175050735E0,9.994690679E0
2.975045343E0,5.020500422E-1,3.970950127E0,9.252000809E0,1.008067548E1
2.977008540E0,5.020500422E-1,3.970950127E0,9.214050293E0,1.004585596E1
2.978972271E0,5.020500422E-1,3.931950092E0,9.214050293E0,1.003050390E1
2.980935846E0,4.639500082E-1,3.970950127E0,9.214050293E0,1.004402396E1
2.982899919E0,5.020500422E-1,3.970950127E0,9.214050293E0,1.004585596E1
2.984863846E0,5.790000558E-1,3.970950127E0,9.175050735E0,1.001425194E1
2.986826263E0,5.020500422E-1,3.970950127E0,9.214050293E0,1.004585596E1
2.988789136E0,5.020500422E-1,3.970950127E0,9.175050735E0,1.001009766E1
2.990752563E0,5.020500422E-1,3.931950092E0,9.214050293E0,1.003050390E1
2.992715827E0,4.639500082E-1,3.970950127E0,9.175050735E0,1.000825912E1
2.994679277E0,5.410500169E-1,3.931950092E0,9.136950493E0,9.961768465E0
2.996642673E0,5.020500422E-1,3.970950127E0,9.136950493E0,9.975187390E0
2.998605818E0,5.020500422E-1,3.970950127E0,9.098999977E0,9.940437603E0
3.000569046E0,5.020500422E-1,3.970950127E0,9.098999977E0,9.940437603E0
3.002532321E0,5.020500422E-1,3.931950092E0,9.060000420E0,9.889180622E0
3.004495582E0,5.020500422E-1,3.970950127E0,9.136950493E0,9.975187390E0
3.006458764E0,4.639500082E-1,3.970950127E0,9.098999977E0,9.938586172E0
3.008421969E0,5.020500422E-1,3.970950127E0,9.060000420E0,9.904751726E0
3.010385169E0,4.639500082E-1,3.970950127E0,9.060000420E0,9.902893624E0
3.012348394E0,4.639500082E-1,3.970950127E0,9.098999977E0,9.938586172E0
3.014311671E0,5.410500169E-1,3.931950092E0,9.060000420E0,9.891237246E0
3.016274933E0,5.020500422E-1,3.931950092E0,9.098999977E0,9.924922486E0
3.018238293E0,5.020500422E-1,3.931950092E0,9.136950493E0,9.959726406E0
3.020201625E0,5.020500422E-1,3.970950127E0,9.098999977E0,9.940437603E0
3.022165010E0,5.020500422E-1,3.931950092E0,9.136950493E0,9.959726406E0
3.024128385E0,5.020500422E-1,4.009050369E0,9.175050735E0,1.002527282E1
3.026092132E0,5.410500169E-1,4.009050369E0,9.136950493E0,9.992451366E0
3.028055770E0,5.790000558E-1,3.931950092E0,9.136950493E0,9.963901691E0
3.030018617E0,5.020500422E-1,3.970950127E0,9.136950493E0,9.975187390E0
3.031981695E0,5.410500169E-1,3.931950092E0,9.175050735E0,9.996725596E0
3.033944786E0,5.410500169E-1,3.931950092E0,9.136950493E0,9.961768465E0
3.035907863E0,5.790000558E-1,3.931950092E0,9.098999977E0,9.929112406E0
3.037870219E0,5.020500422E-1,3.970950127E0,9.136950493E0,9.975187390E0
3.039832786E0,5.020500422E-1,3.970950127E0,9.136950493E0,9.975187390E0
3.041796265E0,5.410500169E-1,3.931950092E0,9.098999977E0,9.926971705E0
3.043759476E0,5.410500169E-1,3.894000292E0,9.060000420E0,9.876212887E0
3.045723485E0,5.410500169E-1,3.970950127E0,9.175050735E0,1.001212945E1
3.047687254E0,5.790000558E-1,3.970950127E0,9.098999977E0,9.944620986E0
3.049650349E0,5.790000558E-1,3.931950092E0,9.136950493E0,9.963901691E0
3.051613641E0,5.790000558E-1,3.931950092E0,9.136950493E0,9.963901691E0
3.053576681E0,5.410500169E-1,3.931950092E0,9.136950493E0,9.961768465E0
3.055539795E0,5.790000558E-1,3.894000292E0,9.098999977E0,9.914145446E0
3.057501799E0,5.790000558E-1,3.931950092E0,9.098999977E0,9.929112406E0
3.059464118E0,5.410500169E-1,3.931950092E0,9.098999977E0,9.926971705E0
3.061428044E0,5.410500169E-1,3.894000292E0,9.098999977E0,9.912001512E0
3.063391500E0,5.790000558E-1,3.931950092E0,9.136950493E0,9.963901691E0
3.065354333E0,5.020500422E-1,3.931950092E0,9.098999977E0,9.924922486E0
3.067317348E0,5.410500169E-1,3.970950127E0,9.098999977E0,9.942483624E0
3.069280444E0,5.020500422E-1,3.931950092E0,9.175050735E0,9.994690679E0
3.071243509E0,5.410500169E-1,3.970950127E0,9.136950493E0,9.977226285E0
3.073206814E0,5.410500169E-1,3.931950092E0,9.175050735E0,9.996725596E0
3.075170048E0,5.020500422E-1,3.970950127E0,9.136950493E0,9.975187390E0
3.077133458E0,5.790000558E-1,3.970950127E0,9.098999977E0,9.944620986E0
3.079096817E0,5.410500169E-1,3.970950127E0,9.098999977E0,9.942483624E0
3.081060548E0,5.020500422E-1,3.931950092E0,9.175050735E0,9.994690679E0
3.083024183E0,5.410500169E-1,4.009050369E0,9.136950493E0,9.992451366E0
3.084987481E0,5.410500169E-1,3.970950127E0,9.136950493E0,9.977226285E0
3.086950877E0,5.410500169E-1,3.970950127E0,9.136950493E0,9.977226285E0
3.088914304E0,5.410500169E-1,3.931950092E0,9.098999977E0,9.926971705E0
3.090877721E0,5.410500169E-1,3.931950092E0,9.098999977E0,9.926971705E0
3.092841014E0,5.410500169E-1,3.970950127E0,9.098999977E0,9.942483624E0
3.094804373E0,5.410500169E-1,3.931950092E0,9.098999977E0,9.926971705E0
3.096767582E0,5.790000558E-1,3.931950092E0,9.098999977E0,9.929112406E0
3.098730835E0,5.410500169E-1,3.970950127E0,9.098999977E0,9.942483624E0
3.100694467E0,5.790000558E-1,3.931950092E0,9.098999977E0,9.929112406E0
3.102657987E0,5.790000558E-1,3.970950127E0,9.060000420E0,9.908950175E0
3.104621149E0,5.410500169E-1,3.931950092E0,9.098999977E0,9.926971705E0
3.106584430E0,5.020500422E-1,3.894000292E0,9.022050858E0,9.839344195E0
3.108548012E0,5.790000558E-1,3.970950127E0,9.060000420E0,9.908950175E0
3.110511505E0,5.410500169E-1,3.970950127E0,9.060000420E0,9.906805117E0
3.112474873E0,5.790000558E-1,3.970950127E0,9.022050858E0,9.874263904E0
3.114438277E0,5.020500422E-1,3.970950127E0,9.022050858E0,9.870050700E0
3.116402532E0,5.410500169E-1,3.970950127E0,9.098999977E0,9.942483624E0
3.118366524E0,5.790000558E-1,3.931950092E0,9.060000420E0,9.893385679E0
3.120329671E0,5.790000558E-1,3.931950092E0,9.098999977E0,9.929112406E0
3.122293065E0,5.790000558E-1,3.970950127E0,9.060000420E0,9.908950175E0
3.124256448E0,5.410500169E-1,3.970950127E0,9.060000420E0,9.906805117E0
3.126219834E0,6.169500351E-1,3.931950092E0,9.098999977E0,9.931397659E0
3.128182803E0,5.410500169E-1,3.970950127E0,9.098999977E0,9.942483624E0
3.130145901E0,5.410500169E-1,3.970950127E0,9.060000420E0,9.906805117E0
3.132109694E0,5.410500169E-1,3.931950092E0,9.060000420E0,9.891237246E0
3.134073284E0,5.410500169E-1,3.970950127E0,9.098999977E0,9.942483624E0
3.136036815E0,5.790000558E-1,3.931950092E0,9.136950493E0,9.963901691E0
3.138000363E0,5.410500169E-1,3.970950127E0,9.098999977E0,9.942483624E0
3.139963359E0,6.169500351E-1,3.931950092E0,9.098999977E0,9.931397659E0
3.141926516E0,5.410500169E-1,3.970950127E0,9.098999977E0,9.942483624E0
3.143889984E0,5.410500169E-1,3.894000292E0,9.098999977E0,9.912001512E0
3.145853361E0,5.020500422E-1,3.970950127E0,9.136950493E0,9.975187390E0
3.147817288E0,5.410500169E-1,3.894000292E0,9.136950493E0,9.946850642E0
3.149781053E0,6.169500351E-1,3.894000292E0,9.098999977E0,9.916434148E0
3.151743496E0,5.410500169E-1,3.931950092E0,9.060000420E0,9.891237246E0
3.153706310E0,5.790000558E-1,3.931950092E0,9.060000420E0,9.893385679E0
3.155670152E0,6.169500351E-1,3.931950092E0,9.098999977E0,9.931397659E0
3.157633692E0,5.790000558E-1,3.894000292E0,9.098999977E0,9.914145446E0
3.159596871E0,5.790000558E-1,3.931950092E0,9.098999977E0,9.929112406E0
3.161560156E0,5.790000558E-1,3.931950092E0,9.136950493E0,9.963901691E0
3.163522988E0,5.790000558E-1,3.931950092E0,9.136950493E0,9.963901691E0
3.165485973E0,5.020500422E-1,3.931950092E0,9.098999977E0,9.924922486E0
3.167449425E0,5.020500422E-1,3.894000292E0,9.136950493E0,9.944805520E0
3.169412740E0,5.410500169E-1,3.931950092E0,9.060000420E0,9.891237246E0
3.171375777E0,5.410500169E-1,3.894000292E0,9.098999977E0,9.912001512E0
3.173338896E0,5.410500169E-1,3.894000292E0,9.175050735E0,9.981860017E0
3.175301770E0,5.410500169E-1,3.894000292E0,9.175050735E0,9.981860017E0
3.177264727E0,5.410500169E-1,3.931950092E0,9.175050735E0,9.996725596E0
3.179227644E0,5.020500422E-1,3.931950092E0,9.098999977E0,9.924922486E0
3.181190573E0,5.020500422E-1,3.894000292E0,9.098999977E0,9.909949198E0
3.183153495E0,5.410500169E-1,3.931950092E0,9.175050735E0,9.996725596E0
3.185116420E0,5.020500422E-1,3.931950092E0,9.214050293E0,1.003050390E1
3.187079468E0,4.639500082E-1,3.931950092E0,9.175050735E0,9.992849300E0
3.189042486E0,5.020500422E-1,3.931950092E0,9.136950493E0,9.959726406E0
3.191005439E0,4.639500082E-1,3.970950127E0,9.136950493E0,9.973342410E0
3.192968411E0,5.410500169E-1,3.931950092E0,9.136950493E0,9.961768465E0
3.194931280E0,5.020500422E-1,3.970950127E0,9.136950493E0,9.975187390E0
3.196894180E0,4.639500082E-1,3.970950127E0,9.136950493E0,9.973342410E0
3.198857549E0,5.020500422E-1,3.970950127E0,9.136950493E0,9.975187390E0
3.200820754E0,4.639500082E-1,3.970950127E0,9.175050735E0,1.000825912E1
3.202784125E0,4.639500082E-1,3.970950127E0,9.098999977E0,9.938586172E0
3.204747447E0,5.020500422E-1,3.931950092E0,9.098999977E0,9.924922486E0
3.206710482E0,4.639500082E-1,3.970950127E0,9.136950493E0,9.973342410E0
3.208673602E0,5.020500422E-1,3.894000292E0,9.098999977E0,9.909949198E0
3.210636861E0,4.639500082E-1,3.970950127E0,9.136950493E0,9.973342410E0
3.212600072E0,5.020500422E-1,3.970950127E0,9.175050735E0,1.001009766E1
3.214563172E0,4.639500082E-1,3.931950092E0,9.136950493E0,9.957878562E0
3.216526305E0,4.639500082E-1,3.931950092E0,9.136950493E0,9.957878562E0
3.218489686E0,5.020500422E-1,3.931950092E0,9.175050735E0,9.994690679E0
3.220452995E0,4.639500082E-1,3.931950092E0,9.136950493E0,9.957878562E0
3.222416009E0,4.639500082E-1,3.931950092E0,9.136950493E0,9.957878562E0
3.224379127E0,5.410500169E-1,3.894000292E0,9.175050735E0,9.981860017E0
3.226342197E0,5.410500169E-1,3.931950092E0,9.214050293E0,1.003253156E1
3.228305281E0,4.639500082E-1,3.931950092E0,9.175050735E0,9.992849300E0
3.230268536E0,5.410500169E-1,3.931950092E0,9.175050735E0,9.996725596E0
3.232231740E0,5.020500422E-1,3.931950092E0,9.136950493E0,9.959726406E0
3.234195016E0,5.410500169E-1,3.894000292E0,9.136950493E0,9.946850642E0
3.236158274E0,5.410500169E-1,3.856050253E0,9.175050735E0,9.967116668E0
3.238121276E0,5.790000558E-1,3.894000292E0,9.214050293E0,1.001984042E1
3.240084353E0,5.020500422E-1,3.894000292E0,9.252000809E0,1.005061249E1
3.242047249E0,5.410500169E-1,3.856050253E0,9.214050293E0,1.000302862E1
3.244010199E0,5.020500422E-1,3.894000292E0,9.175050735E0,9.979822068E0
3.245974188E0,5.410500169E-1,3.894000292E0,9.214050293E0,1.001771911E1
3.247937879E0,5.790000558E-1,3.894000292E0,9.175050735E0,9.983988949E0
3.249900131E0,5.410500169E-1,3.931950092E0,9.214050293E0,1.003253156E1
3.251862804E0,5.410500169E-1,3.931950092E0,9.175050735E0,9.996725596E0
3.253826175E0,5.020500422E-1,3.931950092E0,9.175050735E0,9.994690679E0
3.255789341E0,5.020500422E-1,3.894000292E0,9.214050293E0,1.001568846E1
3.257752519E0,5.790000558E-1,3.970950127E0,9.136950493E0,9.979356206E0
3.259715706E0,5.020500422E-1,3.931950092E0,9.214050293E0,1.003050390E1
3.261679125E0,5.410500169E-1,3.970950127E0,9.175050735E0,1.001212945E1
3.263642476E0,5.410500169E-1,3.931950092E0,9.214050293E0,1.003253156E1
3.265605732E0,5.790000558E-1,3.931950092E0,9.175050735E0,9.998851364E0
3.267569016E0,5.020500422E-1,3.931950092E0,9.252000809E0,1.006537653E1
3.269532246E0,5.020500422E-1,3.970950127E0,9.214050293E0,1.004585596E1
3.271495454E0,5.020500422E-1,3.931950092E0,9.175050735E0,9.994690679E0
3.273458373E0,5.020500422E-1,3.970950127E0,9.175050735E0,1.001009766E1
3.275421377E0,5.020500422E-1,3.970950127E0,9.214050293E0,1.004585596E1
3.277384781E0,5.020500422E-1,3.970950127E0,9.175050735E0,1.001009766E1
3.279348067E0,5.020500422E-1,3.970950127E0,9.175050735E0,1.001009766E1
3.281310993E0,4.639500082E-1,4.009050369E0,9.175050735E0,1.002343706E1
3.283274011E0,5.020500422E-1,3.970950127E0,9.214050293E0,1.004585596E1
3.285238133E0,6.169500351E-1,3.970950127E0,9.214050293E0,1.005225323E1
3.287201932E0,6.169500351E-1,3.970950127E0,9.328050613E0,1.015684993E1
3.289164886E0,6.169500351E-1,3.970950127E0,9.289950371E0,1.012186989E1
3.291128088E0,5.790000558E-1,3.931950092E0,9.136950493E0,9.963901691E0
3.293091008E0,5.790000558E-1,3.894000292E0,9.214050293E0,1.001984042E1
3.295054011E0,5.790000558E-1,3.931950092E0,9.136950493E0,9.963901691E0
3.297016380E0,5.410500169E-1,3.931950092E0,9.098999977E0,9.926971705E0
3.298978934E0,5.020500422E-1,3.894000292E0,9.098999977E0,9.909949198E0
3.300942460E0,4.639500082E-1,3.894000292E0,9.060000420E0,9.872289273E0
3.302905702E0,3.870000243E-1,3.894000292E0,9.060000420E0,9.868972332E0
3.304868751E0,5.020500422E-1,3.894000292E0,9.098999977E0,9.909949198E0
3.306831857E0,4.639500082E-1,3.931950092E0,9.136950493E0,9.957878562E0
3.308795244E0,5.020500422E-1,3.894000292E0,9.136950493E0,9.944805520E0
3.310758548E0,5.410500169E-1,3.970950127E0,9.136950493E0,9.977226285E0
3.312721767E0,4.639500082E-1,3.931950092E0,9.214050293E0,1.002866910E1
3.314685011E0,5.020500422E-1,3.931950092E0,9.214050293E0,1.003050390E1
3.316648474E0,5.020500422E-1,3.970950127E0,9.214050293E0,1.004585596E1
3.318611866E0,5.020500422E-1,3.894000292E0,9.252000809E0,1.005061249E1
3.320575025E0,5.410500169E-1,3.931950092E0,9.252000809E0,1.006739716E1
3.322538252E0,5.020500422E-1,3.931950092E0,9.252000809E0,1.006537653E1
3.324501843E0,5.410500169E-1,3.856050253E0,9.214050293E0,1.000302862E1
3.326465327E0,5.410500169E-1,3.856050253E0,9.289950371E0,1.007298548E1
3.328428380E0,5.790000558E-1,3.894000292E0,9.289950371E0,1.008968073E1
3.330391560E0,5.410500169E-1,3.931950092E0,9.252000809E0,1.006739716E1
