"Time (s)","Acceleration x (m/s^2)","Acceleration y (m/s^2)","Acceleration z (m/s^2)","Absolute acceleration (m/s^2)"
3.473246600E-2,3.870000243E-1,4.507050037E0,8.677050591E0,9.785421606E0
3.669462400E-2,4.639500082E-1,4.507050037E0,8.638950348E0,9.755009624E0
3.865923500E-2,3.870000243E-1,4.507050037E0,8.599950790E0,9.717120080E0
4.062204900E-2,5.020500422E-1,4.507050037E0,8.599950790E0,9.722381801E0
4.258538900E-2,4.260000288E-1,4.507050037E0,8.638950348E0,9.753278381E0
4.454836000E-2,4.260000288E-1,4.468950272E0,8.638950348E0,9.735730875E0
4.651145000E-2,4.639500082E-1,4.507050037E0,8.677050591E0,9.788766858E0
4.847474900E-2,5.020500422E-1,4.507050037E0,8.677050591E0,9.790646620E0
5.043798600E-2,4.639500082E-1,4.468950272E0,8.677050591E0,9.771283083E0
5.240135100E-2,4.260000288E-1,4.468950272E0,8.677050591E0,9.769554724E0
5.436467900E-2,4.260000288E-1,4.468950272E0,8.677050591E0,9.769554724E0
5.632774500E-2,4.639500082E-1,4.431000233E0,8.677050591E0,9.753984807E0
5.829089700E-2,4.639500082E-1,4.468950272E0,8.677050591E0,9.771283083E0
6.025391600E-2,4.639500082E-1,4.431000233E0,8.754000664E0,9.822501733E0
6.221697400E-2,4.260000288E-1,4.392000198E0,8.754000664E0,9.803247900E0
6.417987400E-2,3.490500152E-1,4.431000233E0,8.791950226E0,9.851598233E0
6.614282000E-2,4.639500082E-1,4.431000233E0,8.754000664E0,9.822501733E0
6.810611000E-2,5.020500422E-1,4.431000233E0,8.754000664E0,9.824375040E0
7.006932300E-2,4.639500082E-1,4.392000198E0,8.754000664E0,9.804970320E0
7.203287200E-2,3.870000243E-1,4.392000198E0,8.791950226E0,9.835538802E0
7.399632300E-2,4.260000288E-1,4.392000198E0,8.754000664E0,9.803247900E0
7.595969700E-2,3.490500152E-1,4.431000233E0,8.869050026E0,9.920466085E0
7.792309400E-2,4.260000288E-1,4.392000198E0,8.869050026E0,9.906118823E0
7.988632300E-2,3.870000243E-1,4.392000198E0,8.907000542E0,9.938515654E0
8.184961400E-2,4.260000288E-1,4.392000198E0,8.907000542E0,9.940110684E0
8.381296800E-2,4.260000288E-1,4.392000198E0,8.869050026E0,9.906118823E0
8.577630400E-2,3.870000243E-1,4.392000198E0,8.907000542E0,9.938515654E0
8.773992200E-2,3.870000243E-1,4.354050159E0,8.907000542E0,9.921803287E0
8.970345800E-2,4.260000288E-1,4.354050159E0,8.907000542E0,9.923401003E0
9.166679100E-2,3.870000243E-1,4.354050159E0,8.983950615E0,9.990940419E0
9.363017100E-2,4.260000288E-1,4.354050159E0,8.983950615E0,9.992527081E0
9.559342100E-2,3.870000243E-1,4.354050159E0,8.983950615E0,9.990940419E0
9.755671000E-2,3.870000243E-1,4.392000198E0,8.944950104E0,9.972540655E0
9.952024500E-2,3.490500152E-1,4.392000198E0,8.983950615E0,1.000614163E1
1.014837080E-1,3.870000243E-1,4.354050159E0,8.907000542E0,9.921803287E0
1.034471150E-1,3.870000243E-1,4.392000198E0,8.983950615E0,1.000753733E1
1.054105460E-1,3.870000243E-1,4.392000198E0,8.983950615E0,1.000753733E1
1.073735620E-1,3.870000243E-1,4.354050159E0,8.983950615E0,9.990940419E0
1.093367000E-1,3.870000243E-1,4.392000198E0,8.983950615E0,1.000753733E1
1.112999450E-1,4.260000288E-1,4.392000198E0,8.944950104E0,9.974130244E0
1.132631590E-1,4.260000288E-1,4.392000198E0,8.983950615E0,1.000912136E1
1.152263730E-1,3.870000243E-1,4.392000198E0,9.060000420E0,1.007586435E1
1.171896010E-1,3.870000243E-1,4.354050159E0,9.060000420E0,1.005938017E1
1.191529670E-1,3.870000243E-1,4.392000198E0,9.022050858E0,1.004175465E1
1.211162930E-1,3.109500110E-1,4.431000233E0,9.022050858E0,1.005623462E1
1.230795530E-1,3.109500110E-1,4.431000233E0,8.983950615E0,1.002206673E1
1.250428330E-1,3.490500152E-1,4.468950272E0,9.022050858E0,1.007426196E1
1.270060420E-1,3.870000243E-1,4.431000233E0,9.098999977E0,1.012794810E1
1.289692810E-1,3.490500152E-1,4.468950272E0,9.022050858E0,1.007426196E1
1.309326890E-1,3.870000243E-1,4.468950272E0,9.022050858E0,1.007564823E1
1.328960480E-1,3.490500152E-1,4.468950272E0,9.060000420E0,1.010826197E1
1.348592580E-1,3.109500110E-1,4.431000233E0,9.022050858E0,1.005623462E1
1.368225120E-1,3.870000243E-1,4.431000233E0,8.983950615E0,1.002471450E1
1.387858680E-1,3.490500152E-1,4.468950272E0,9.060000420E0,1.010826197E1
1.407491970E-1,3.870000243E-1,4.431000233E0,8.983950615E0,1.002471450E1
1.427125910E-1,3.490500152E-1,4.468950272E0,9.022050858E0,1.007426196E1
1.446759660E-1,3.490500152E-1,4.431000233E0,9.060000420E0,1.009154134E1
1.466392180E-1,3.870000243E-1,4.468950272E0,9.022050858E0,1.007564823E1
1.486025070E-1,3.870000243E-1,4.468950272E0,9.060000420E0,1.010964357E1
1.505658090E-1,3.490500152E-1,4.468950272E0,9.022050858E0,1.007426196E1
1.525291440E-1,3.870000243E-1,4.468950272E0,8.983950615E0,1.004154640E1
1.544921780E-1,3.870000243E-1,4.507050037E0,9.022050858E0,1.009260475E1
1.564553000E-1,3.490500152E-1,4.468950272E0,9.022050858E0,1.007426196E1
1.584183690E-1,3.109500110E-1,4.468950272E0,8.983950615E0,1.003890308E1
1.603814540E-1,3.490500152E-1,4.468950272E0,8.983950615E0,1.004015543E1
1.623446890E-1,3.109500110E-1,4.507050037E0,9.022050858E0,1.008997481E1
1.643078940E-1,3.109500110E-1,4.507050037E0,9.022050858E0,1.008997481E1
1.662706350E-1,3.109500110E-1,4.507050037E0,9.060000420E0,1.012392204E1
1.682335120E-1,2.719500065E-1,4.507050037E0,9.060000420E0,1.012279924E1
1.701968020E-1,2.719500065E-1,4.507050037E0,8.983950615E0,1.005479117E1
1.721599710E-1,3.109500110E-1,4.545000076E0,9.022050858E0,1.010698359E1
1.741235580E-1,3.109500110E-1,4.507050037E0,8.983950615E0,1.005592157E1
1.760870330E-1,3.109500110E-1,4.507050037E0,8.983950615E0,1.005592157E1
1.780505370E-1,2.719500065E-1,4.507050037E0,9.022050858E0,1.008884823E1
1.800140330E-1,2.719500065E-1,4.507050037E0,8.944950104E0,1.001995954E1
1.819775790E-1,2.340000123E-1,4.468950272E0,8.983950615E0,1.003681429E1
1.839411100E-1,2.719500065E-1,4.507050037E0,8.983950615E0,1.005479117E1
1.859044940E-1,2.719500065E-1,4.545000076E0,9.022050858E0,1.010585890E1
1.878679050E-1,3.109500110E-1,4.507050037E0,8.944950104E0,1.002109387E1
1.898314640E-1,3.109500110E-1,4.507050037E0,8.944950104E0,1.002109387E1
1.917949800E-1,3.109500110E-1,4.545000076E0,8.944950104E0,1.003821936E1
1.937585680E-1,3.109500110E-1,4.507050037E0,8.944950104E0,1.002109387E1
1.957221340E-1,3.109500110E-1,4.507050037E0,8.944950104E0,1.002109387E1
1.976856260E-1,2.719500065E-1,4.507050037E0,8.944950104E0,1.001995954E1
1.996491700E-1,3.490500152E-1,4.468950272E0,8.907000542E0,9.971359541E0
2.016127070E-1,2.719500065E-1,4.507050037E0,8.907000542E0,9.986096109E0
2.035762470E-1,3.109500110E-1,4.468950272E0,8.944950104E0,1.000401613E1
2.055396050E-1,3.109500110E-1,4.468950272E0,8.907000542E0,9.970098550E0
2.075030160E-1,3.109500110E-1,4.468950272E0,8.907000542E0,9.970098550E0
2.094664250E-1,3.109500110E-1,4.507050037E0,8.869050026E0,9.953403353E0
2.114298150E-1,3.109500110E-1,4.507050037E0,8.869050026E0,9.953403353E0
2.133935130E-1,2.719500065E-1,4.468950272E0,8.830050468E0,9.900265886E0
2.153571200E-1,3.109500110E-1,4.431000233E0,8.869050026E0,9.919198624E0
2.173205130E-1,3.109500110E-1,4.468950272E0,8.869050026E0,9.936209277E0
2.192839680E-1,2.719500065E-1,4.468950272E0,8.830050468E0,9.900265886E0
2.212471600E-1,3.870000243E-1,4.468950272E0,8.869050026E0,9.938879912E0
2.232104300E-1,2.719500065E-1,4.468950272E0,8.791950226E0,9.866299312E0
2.251736090E-1,3.109500110E-1,4.468950272E0,8.830050468E0,9.901413925E0
2.271368150E-1,3.490500152E-1,4.468950272E0,8.830050468E0,9.902683662E0
2.291000490E-1,3.870000243E-1,4.392000198E0,8.791950226E0,9.835538802E0
2.310632740E-1,4.260000288E-1,4.431000233E0,8.791950226E0,9.854624694E0
2.330266960E-1,4.260000288E-1,4.431000233E0,8.830050468E0,9.888631370E0
2.349900530E-1,3.870000243E-1,4.392000198E0,8.830050468E0,9.869611240E0
2.369531280E-1,4.260000288E-1,4.431000233E0,8.754000664E0,9.820782388E0
2.389162860E-1,3.870000243E-1,4.392000198E0,8.791950226E0,9.835538802E0
2.408794830E-1,3.870000243E-1,4.431000233E0,8.791950226E0,9.853015825E0
2.428426690E-1,3.870000243E-1,4.392000198E0,8.791950226E0,9.835538802E0
2.448061280E-1,3.870000243E-1,4.431000233E0,8.791950226E0,9.853015825E0
2.467695100E-1,4.260000288E-1,4.431000233E0,8.791950226E0,9.854624694E0
2.487328510E-1,3.870000243E-1,4.392000198E0,8.830050468E0,9.869611240E0
2.506962040E-1,4.260000288E-1,4.468950272E0,8.830050468E0,9.905694515E0
2.526594590E-1,3.490500152E-1,4.431000233E0,8.830050468E0,9.885615320E0
2.546227430E-1,3.109500110E-1,4.431000233E0,8.830050468E0,9.884343390E0
2.565864740E-1,3.109500110E-1,4.468950272E0,8.791950226E0,9.867451303E0
2.585500640E-1,3.490500152E-1,4.468950272E0,8.791950226E0,9.868725410E0
2.605138190E-1,3.109500110E-1,4.507050037E0,8.754000664E0,9.851026219E0
2.624775250E-1,3.109500110E-1,4.507050037E0,8.715000153E0,9.816385160E0
2.644411710E-1,2.719500065E-1,4.468950272E0,8.791950226E0,9.866299312E0
2.664048350E-1,3.109500110E-1,4.468950272E0,8.791950226E0,9.867451303E0
2.683684260E-1,2.719500065E-1,4.507050037E0,8.791950226E0,9.883615008E0
2.703320180E-1,3.490500152E-1,4.507050037E0,8.754000664E0,9.852302450E0
2.722956810E-1,2.719500065E-1,4.545000076E0,8.754000664E0,9.867294975E0
2.742593230E-1,3.109500110E-1,4.507050037E0,8.715000153E0,9.816385160E0
2.762227100E-1,3.109500110E-1,4.545000076E0,8.754000664E0,9.868446850E0
2.781861710E-1,3.109500110E-1,4.545000076E0,8.754000664E0,9.868446850E0
2.801496620E-1,3.490500152E-1,4.545000076E0,8.677050591E0,9.801533990E0
2.821131540E-1,3.109500110E-1,4.545000076E0,8.677050591E0,9.800251147E0
2.840761610E-1,3.109500110E-1,4.545000076E0,8.754000664E0,9.868446850E0
2.860393100E-1,3.490500152E-1,4.507050037E0,8.754000664E0,9.852302450E0
2.880024200E-1,3.109500110E-1,4.507050037E0,8.715000153E0,9.816385160E0
2.899655410E-1,3.109500110E-1,4.545000076E0,8.754000664E0,9.868446850E0
2.919287360E-1,3.490500152E-1,4.545000076E0,8.754000664E0,9.869720828E0
2.938919150E-1,3.870000243E-1,4.507050037E0,8.791950226E0,9.887449511E0
2.958552000E-1,3.490500152E-1,4.507050037E0,8.715000153E0,9.817665894E0
2.978184530E-1,3.490500152E-1,4.507050037E0,8.830050468E0,9.919935848E0
2.997816360E-1,3.870000243E-1,4.507050037E0,8.754000664E0,9.853719941E0
3.017448400E-1,3.490500152E-1,4.507050037E0,8.830050468E0,9.919935848E0
3.037081090E-1,3.490500152E-1,4.507050037E0,8.754000664E0,9.852302450E0
3.056713660E-1,3.490500152E-1,4.468950272E0,8.791950226E0,9.868725410E0
3.076347730E-1,3.490500152E-1,4.468950272E0,8.791950226E0,9.868725410E0
3.095981360E-1,3.490500152E-1,4.507050037E0,8.830050468E0,9.919935848E0
3.115614800E-1,3.870000243E-1,4.507050037E0,8.830050468E0,9.921343676E0
3.135248300E-1,3.870000243E-1,4.507050037E0,8.830050468E0,9.921343676E0
3.154880250E-1,3.870000243E-1,4.468950272E0,8.907000542E0,9.972760109E0
3.174512760E-1,3.870000243E-1,4.468950272E0,8.869050026E0,9.938879912E0
3.194143230E-1,3.870000243E-1,4.468950272E0,8.907000542E0,9.972760109E0
3.213774300E-1,3.870000243E-1,4.468950272E0,8.869050026E0,9.938879912E0
3.233407260E-1,3.490500152E-1,4.468950272E0,8.869050026E0,9.937474569E0
3.253039670E-1,3.870000243E-1,4.468950272E0,8.869050026E0,9.938879912E0
3.272671970E-1,3.490500152E-1,4.468950272E0,8.907000542E0,9.971359541E0
3.292304300E-1,3.870000243E-1,4.468950272E0,8.944950104E0,1.000666867E1
3.311936610E-1,3.870000243E-1,4.468950272E0,8.983950615E0,1.004154640E1
3.331568920E-1,3.490500152E-1,4.468950272E0,8.907000542E0,9.971359541E0
3.351203020E-1,3.870000243E-1,4.468950272E0,8.907000542E0,9.972760109E0
3.370836590E-1,3.109500110E-1,4.507050037E0,8.944950104E0,1.002109387E1
3.390472080E-1,3.109500110E-1,4.468950272E0,8.944950104E0,1.000401613E1
3.410106830E-1,3.490500152E-1,4.507050037E0,8.983950615E0,1.005717180E1
3.429739180E-1,3.490500152E-1,4.468950272E0,8.944950104E0,1.000527285E1
3.449372240E-1,3.490500152E-1,4.468950272E0,9.022050858E0,1.007426196E1
3.469007560E-1,3.109500110E-1,4.468950272E0,8.944950104E0,1.000401613E1
3.488642220E-1,3.109500110E-1,4.507050037E0,8.944950104E0,1.002109387E1
3.508272740E-1,3.109500110E-1,4.468950272E0,8.983950615E0,1.003890308E1
3.527904500E-1,3.870000243E-1,4.507050037E0,9.022050858E0,1.009260475E1
3.547540050E-1,3.490500152E-1,4.507050037E0,8.944950104E0,1.002234844E1
3.567174480E-1,2.719500065E-1,4.507050037E0,8.983950615E0,1.005479117E1
3.586805080E-1,2.719500065E-1,4.468950272E0,9.022050858E0,1.007188538E1
3.606436810E-1,3.109500110E-1,4.507050037E0,8.983950615E0,1.005592157E1
3.626070810E-1,3.109500110E-1,4.468950272E0,9.022050858E0,1.007301385E1
3.645704280E-1,2.719500065E-1,4.468950272E0,9.098999977E0,1.014087146E1
3.665338200E-1,3.490500152E-1,4.468950272E0,9.098999977E0,1.014323188E1
3.684971980E-1,3.109500110E-1,4.431000233E0,9.098999977E0,1.012532733E1
3.704605400E-1,3.109500110E-1,4.468950272E0,9.022050858E0,1.007301385E1
3.724238920E-1,2.719500065E-1,4.431000233E0,9.060000420E0,1.008916882E1
3.743874880E-1,3.109500110E-1,4.468950272E0,9.022050858E0,1.007301385E1
3.763510250E-1,3.109500110E-1,4.468950272E0,9.022050858E0,1.007301385E1
3.783141590E-1,3.109500110E-1,4.431000233E0,9.022050858E0,1.005623462E1
3.802774110E-1,3.490500152E-1,4.431000233E0,9.060000420E0,1.009154134E1
3.822405030E-1,3.109500110E-1,4.392000198E0,9.098999977E0,1.010832114E1
3.842036420E-1,3.109500110E-1,4.431000233E0,8.983950615E0,1.002206673E1
3.861672530E-1,3.490500152E-1,4.392000198E0,9.060000420E0,1.007447811E1
3.881307220E-1,2.719500065E-1,4.354050159E0,9.022050858E0,1.002143260E1
3.900940480E-1,3.109500110E-1,4.392000198E0,8.983950615E0,1.000488502E1
3.920574160E-1,3.490500152E-1,4.392000198E0,8.983950615E0,1.000614163E1
3.940206690E-1,3.490500152E-1,4.392000198E0,8.983950615E0,1.000614163E1
3.959839550E-1,3.490500152E-1,4.392000198E0,9.022050858E0,1.004036371E1
3.979474620E-1,3.490500152E-1,4.431000233E0,8.983950615E0,1.002332119E1
3.999109240E-1,3.870000243E-1,4.354050159E0,9.022050858E0,1.002521439E1
4.018741610E-1,3.490500152E-1,4.392000198E0,8.983950615E0,1.000614163E1
4.038374640E-1,3.490500152E-1,4.392000198E0,8.944950104E0,9.971140056E0
4.058008620E-1,3.490500152E-1,4.392000198E0,8.944950104E0,9.971140056E0
4.077642320E-1,3.490500152E-1,4.354050159E0,8.983950615E0,9.989542400E0
4.097276240E-1,3.870000243E-1,4.354050159E0,8.983950615E0,9.990940419E0
4.116910060E-1,3.490500152E-1,4.392000198E0,8.944950104E0,9.971140056E0
4.136545260E-1,3.490500152E-1,4.354050159E0,8.983950615E0,9.989542400E0
4.156180060E-1,3.870000243E-1,4.431000233E0,9.022050858E0,1.005887338E1
4.175812400E-1,4.260000288E-1,4.354050159E0,8.983950615E0,9.992527081E0
4.195445460E-1,4.260000288E-1,4.354050159E0,8.944950104E0,9.957477651E0
4.215079270E-1,3.870000243E-1,4.354050159E0,8.944950104E0,9.955885404E0
4.234712980E-1,4.260000288E-1,4.431000233E0,8.944950104E0,9.991364844E0
4.254345050E-1,3.870000243E-1,4.431000233E0,8.907000542E0,9.955811907E0
4.273977610E-1,4.260000288E-1,4.392000198E0,8.944950104E0,9.974130244E0
4.293611210E-1,4.639500082E-1,4.392000198E0,8.944950104E0,9.975823160E0
4.313244510E-1,3.870000243E-1,4.392000198E0,8.907000542E0,9.938515654E0
4.332876610E-1,4.260000288E-1,4.354050159E0,8.907000542E0,9.923401003E0
4.352509100E-1,5.020500422E-1,4.392000198E0,8.907000542E0,9.943660223E0
4.372141810E-1,4.260000288E-1,4.392000198E0,8.907000542E0,9.940110684E0
4.391774460E-1,3.870000243E-1,4.392000198E0,8.907000542E0,9.938515654E0
4.411408070E-1,3.870000243E-1,4.468950272E0,8.869050026E0,9.938879912E0
4.431041390E-1,4.260000288E-1,4.468950272E0,8.830050468E0,9.905694515E0
4.450675540E-1,3.870000243E-1,4.468950272E0,8.869050026E0,9.938879912E0
4.470309610E-1,4.260000288E-1,4.468950272E0,8.869050026E0,9.940474884E0
4.489943430E-1,3.870000243E-1,4.431000233E0,8.869050026E0,9.921873837E0
4.509577320E-1,3.870000243E-1,4.468950272E0,8.830050468E0,9.904093943E0
4.529212950E-1,3.870000243E-1,4.468950272E0,8.791950226E0,9.870140542E0
4.548848070E-1,3.490500152E-1,4.468950272E0,8.830050468E0,9.902683662E0
4.568483360E-1,3.490500152E-1,4.431000233E0,8.791950226E0,9.851598233E0
4.588118700E-1,3.490500152E-1,4.468950272E0,8.830050468E0,9.902683662E0
4.607755450E-1,3.490500152E-1,4.468950272E0,8.830050468E0,9.902683662E0
4.627391780E-1,3.490500152E-1,4.507050037E0,8.830050468E0,9.919935848E0
4.647027010E-1,3.490500152E-1,4.507050037E0,8.791950226E0,9.886036856E0
4.666662570E-1,3.870000243E-1,4.507050037E0,8.791950226E0,9.887449511E0
4.686298460E-1,3.870000243E-1,4.507050037E0,8.830050468E0,9.921343676E0
4.705934180E-1,3.490500152E-1,4.507050037E0,8.754000664E0,9.852302450E0
4.725569510E-1,3.490500152E-1,4.507050037E0,8.791950226E0,9.886036856E0
4.745204960E-1,3.109500110E-1,4.507050037E0,8.754000664E0,9.851026219E0
4.764838530E-1,3.490500152E-1,4.545000076E0,8.830050468E0,9.937235676E0
4.784472660E-1,3.870000243E-1,4.507050037E0,8.791950226E0,9.887449511E0
4.804107950E-1,3.490500152E-1,4.468950272E0,8.830050468E0,9.902683662E0
4.823742790E-1,3.490500152E-1,4.468950272E0,8.754000664E0,9.834931625E0
4.843376480E-1,3.109500110E-1,4.507050037E0,8.791950226E0,9.884764981E0
4.863010500E-1,3.490500152E-1,4.468950272E0,8.791950226E0,9.868725410E0
4.882642960E-1,3.490500152E-1,4.507050037E0,8.754000664E0,9.852302450E0
4.902275880E-1,3.490500152E-1,4.468950272E0,8.791950226E0,9.868725410E0
4.921909970E-1,3.490500152E-1,4.507050037E0,8.791950226E0,9.886036856E0
4.941543650E-1,3.490500152E-1,4.468950272E0,8.830050468E0,9.902683662E0
4.961178880E-1,3.109500110E-1,4.468950272E0,8.830050468E0,9.901413925E0
4.980813650E-1,3.109500110E-1,4.468950272E0,8.791950226E0,9.867451303E0
5.000445990E-1,3.490500152E-1,4.507050037E0,8.791950226E0,9.886036856E0
5.020079050E-1,3.109500110E-1,4.507050037E0,8.791950226E0,9.884764981E0
5.039714180E-1,3.490500152E-1,4.507050037E0,8.830050468E0,9.919935848E0
5.059348840E-1,3.109500110E-1,4.507050037E0,8.830050468E0,9.918668319E0
5.078978950E-1,3.490500152E-1,4.545000076E0,8.869050026E0,9.971906035E0
5.098610400E-1,3.109500110E-1,4.507050037E0,8.830050468E0,9.918668319E0
5.118244650E-1,3.109500110E-1,4.507050037E0,8.754000664E0,9.851026219E0
5.137878070E-1,3.490500152E-1,4.468950272E0,8.754000664E0,9.834931625E0
5.157511650E-1,3.490500152E-1,4.507050037E0,8.869050026E0,9.954666459E0
5.177145430E-1,3.109500110E-1,4.507050037E0,8.830050468E0,9.918668319E0
5.196777490E-1,3.109500110E-1,4.507050037E0,8.869050026E0,9.953403353E0
5.216410060E-1,3.490500152E-1,4.468950272E0,8.869050026E0,9.937474569E0
5.236042320E-1,3.109500110E-1,4.468950272E0,8.869050026E0,9.936209277E0
5.255674680E-1,2.719500065E-1,4.468950272E0,8.907000542E0,9.968958420E0
5.275305620E-1,3.490500152E-1,4.468950272E0,8.869050026E0,9.937474569E0
5.294936980E-1,3.109500110E-1,4.507050037E0,8.869050026E0,9.953403353E0
5.314567650E-1,3.109500110E-1,4.468950272E0,8.869050026E0,9.936209277E0
5.334198520E-1,3.109500110E-1,4.468950272E0,8.944950104E0,1.000401613E1
5.353829270E-1,3.109500110E-1,4.507050037E0,8.907000542E0,9.987234282E0
5.373460060E-1,3.870000243E-1,4.468950272E0,8.907000542E0,9.972760109E0
5.393092370E-1,3.109500110E-1,4.468950272E0,8.944950104E0,1.000401613E1
5.412724090E-1,2.719500065E-1,4.468950272E0,8.944950104E0,1.000287987E1
5.432355150E-1,3.490500152E-1,4.468950272E0,8.907000542E0,9.971359541E0
5.451986410E-1,3.109500110E-1,4.507050037E0,8.944950104E0,1.002109387E1
5.471618890E-1,3.870000243E-1,4.507050037E0,8.944950104E0,1.002374189E1
5.491251010E-1,3.490500152E-1,4.507050037E0,8.983950615E0,1.005717180E1
5.510881410E-1,3.109500110E-1,4.468950272E0,8.944950104E0,1.000401613E1
5.530512420E-1,3.490500152E-1,4.468950272E0,8.944950104E0,1.000527285E1
5.550143150E-1,3.109500110E-1,4.468950272E0,8.983950615E0,1.003890308E1
5.569773960E-1,3.870000243E-1,4.431000233E0,8.983950615E0,1.002471450E1
5.589407860E-1,3.870000243E-1,4.468950272E0,8.983950615E0,1.004154640E1
5.609040860E-1,3.490500152E-1,4.431000233E0,8.983950615E0,1.002332119E1
5.628671580E-1,3.109500110E-1,4.392000198E0,8.983950615E0,1.000488502E1
5.648303060E-1,3.490500152E-1,4.431000233E0,8.983950615E0,1.002332119E1
5.667935040E-1,3.870000243E-1,4.392000198E0,8.944950104E0,9.972540655E0
5.687566880E-1,3.490500152E-1,4.431000233E0,9.022050858E0,1.005748481E1
5.707199270E-1,3.490500152E-1,4.392000198E0,8.983950615E0,1.000614163E1
5.726831500E-1,3.109500110E-1,4.354050159E0,8.983950615E0,9.988283704E0
5.746462610E-1,3.490500152E-1,4.392000198E0,8.983950615E0,1.000614163E1
5.766093960E-1,3.870000243E-1,4.392000198E0,9.022050858E0,1.004175465E1
5.785725970E-1,3.490500152E-1,4.431000233E0,9.022050858E0,1.005748481E1
5.805357780E-1,3.870000243E-1,4.431000233E0,9.022050858E0,1.005887338E1
5.824990630E-1,3.870000243E-1,4.392000198E0,9.060000420E0,1.007586435E1
5.844623170E-1,3.870000243E-1,4.392000198E0,9.022050858E0,1.004175465E1
5.864253650E-1,4.260000288E-1,4.392000198E0,8.983950615E0,1.000912136E1
5.883884730E-1,3.870000243E-1,4.392000198E0,9.060000420E0,1.007586435E1
5.903516780E-1,3.490500152E-1,4.392000198E0,8.983950615E0,1.000614163E1
5.923148550E-1,4.260000288E-1,4.431000233E0,9.022050858E0,1.006044933E1
5.942783210E-1,4.260000288E-1,4.431000233E0,8.944950104E0,9.991364844E0
5.962417020E-1,4.260000288E-1,4.468950272E0,8.983950615E0,1.004312507E1
5.982047010E-1,4.260000288E-1,4.468950272E0,8.944950104E0,1.000825284E1
6.001677990E-1,3.870000243E-1,4.431000233E0,8.944950104E0,9.989777998E0
6.021312770E-1,3.490500152E-1,4.431000233E0,8.907000542E0,9.954408954E0
6.040946440E-1,3.870000243E-1,4.468950272E0,8.907000542E0,9.972760109E0
6.060578520E-1,3.870000243E-1,4.468950272E0,8.944950104E0,1.000666867E1
6.080211070E-1,3.490500152E-1,4.507050037E0,8.907000542E0,9.988493110E0
6.099841640E-1,3.870000243E-1,4.468950272E0,8.907000542E0,9.972760109E0
6.119472720E-1,3.490500152E-1,4.468950272E0,8.830050468E0,9.902683662E0
6.139103440E-1,3.870000243E-1,4.507050037E0,8.830050468E0,9.921343676E0
6.158734260E-1,3.870000243E-1,4.468950272E0,8.907000542E0,9.972760109E0
6.178365020E-1,3.490500152E-1,4.507050037E0,8.869050026E0,9.954666459E0
6.197995800E-1,4.260000288E-1,4.468950272E0,8.869050026E0,9.940474884E0
6.217629520E-1,3.870000243E-1,4.468950272E0,8.907000542E0,9.972760109E0
6.237262510E-1,3.870000243E-1,4.507050037E0,8.869050026E0,9.956069376E0
6.256896500E-1,3.490500152E-1,4.545000076E0,8.907000542E0,1.000567440E1
6.276530200E-1,3.870000243E-1,4.507050037E0,8.869050026E0,9.956069376E0
6.296162730E-1,3.870000243E-1,4.545000076E0,8.869050026E0,9.973306527E0
6.315795610E-1,3.870000243E-1,4.468950272E0,8.907000542E0,9.972760109E0
6.335429300E-1,3.870000243E-1,4.468950272E0,8.907000542E0,9.972760109E0
6.355062650E-1,3.870000243E-1,4.507050037E0,8.907000542E0,9.989891276E0
6.374694790E-1,4.260000288E-1,4.468950272E0,8.830050468E0,9.905694515E0
6.394327290E-1,3.870000243E-1,4.468950272E0,8.907000542E0,9.972760109E0
6.413960000E-1,3.490500152E-1,4.468950272E0,8.907000542E0,9.971359541E0
6.433592650E-1,3.490500152E-1,4.468950272E0,8.907000542E0,9.971359541E0
6.453222710E-1,3.109500110E-1,4.507050037E0,8.907000542E0,9.987234282E0
6.472853490E-1,3.109500110E-1,4.507050037E0,8.907000542E0,9.987234282E0
6.492484260E-1,3.870000243E-1,4.507050037E0,8.907000542E0,9.989891276E0
6.512115030E-1,3.490500152E-1,4.507050037E0,8.907000542E0,9.988493110E0
6.531749840E-1,3.109500110E-1,4.507050037E0,8.907000542E0,9.987234282E0
6.551383470E-1,3.109500110E-1,4.507050037E0,8.944950104E0,1.002109387E1
6.571016810E-1,3.109500110E-1,4.468950272E0,8.907000542E0,9.970098550E0
6.590650310E-1,3.490500152E-1,4.507050037E0,8.907000542E0,9.988493110E0
6.610282870E-1,3.109500110E-1,4.507050037E0,8.869050026E0,9.953403353E0
6.629915700E-1,3.109500110E-1,4.507050037E0,8.907000542E0,9.987234282E0
6.649549710E-1,3.490500152E-1,4.468950272E0,8.907000542E0,9.971359541E0
6.669183370E-1,3.109500110E-1,4.468950272E0,8.869050026E0,9.936209277E0
6.688822010E-1,3.490500152E-1,4.468950272E0,8.944950104E0,1.000527285E1
6.708459330E-1,3.109500110E-1,4.507050037E0,8.944950104E0,1.002109387E1
6.728094840E-1,3.109500110E-1,4.468950272E0,8.869050026E0,9.936209277E0
6.747730890E-1,3.109500110E-1,4.468950272E0,8.983950615E0,1.003890308E1
6.767365710E-1,3.109500110E-1,4.468950272E0,8.944950104E0,1.000401613E1
6.787000890E-1,2.719500065E-1,4.468950272E0,8.944950104E0,1.000287987E1
6.806638550E-1,3.490500152E-1,4.468950272E0,8.907000542E0,9.971359541E0
6.826275490E-1,3.490500152E-1,4.431000233E0,8.907000542E0,9.954408954E0
6.845908810E-1,3.109500110E-1,4.545000076E0,8.907000542E0,1.000441774E1
6.865543200E-1,3.109500110E-1,4.468950272E0,8.869050026E0,9.936209277E0
6.885176500E-1,3.109500110E-1,4.468950272E0,8.869050026E0,9.936209277E0
6.904810120E-1,3.109500110E-1,4.468950272E0,8.907000542E0,9.970098550E0
6.924444290E-1,3.109500110E-1,4.468950272E0,8.869050026E0,9.936209277E0
6.944078090E-1,3.109500110E-1,4.507050037E0,8.907000542E0,9.987234282E0
6.963708800E-1,3.490500152E-1,4.468950272E0,8.944950104E0,1.000527285E1
6.983340410E-1,3.870000243E-1,4.468950272E0,8.907000542E0,9.972760109E0
7.002974630E-1,3.109500110E-1,4.431000233E0,8.907000542E0,9.953145815E0
7.022608090E-1,3.109500110E-1,4.468950272E0,8.907000542E0,9.970098550E0
7.042243400E-1,3.109500110E-1,4.468950272E0,8.869050026E0,9.936209277E0
7.061878130E-1,3.870000243E-1,4.468950272E0,8.830050468E0,9.904093943E0
7.081510480E-1,3.490500152E-1,4.468950272E0,8.907000542E0,9.971359541E0
7.101143530E-1,3.109500110E-1,4.431000233E0,8.869050026E0,9.919198624E0
7.120773910E-1,3.490500152E-1,4.468950272E0,8.869050026E0,9.937474569E0
7.140405070E-1,3.109500110E-1,4.468950272E0,8.869050026E0,9.936209277E0
7.160039510E-1,2.719500065E-1,4.431000233E0,8.830050468E0,9.883193368E0
7.179672890E-1,2.719500065E-1,4.468950272E0,8.791950226E0,9.866299312E0
7.199303220E-1,3.870000243E-1,4.468950272E0,8.830050468E0,9.904093943E0
7.218934450E-1,3.490500152E-1,4.468950272E0,8.869050026E0,9.937474569E0
7.238571890E-1,3.490500152E-1,4.431000233E0,8.791950226E0,9.851598233E0
7.258207510E-1,3.109500110E-1,4.468950272E0,8.791950226E0,9.867451303E0
7.277845100E-1,3.109500110E-1,4.431000233E0,8.791950226E0,9.850321911E0
7.297482120E-1,3.109500110E-1,4.431000233E0,8.907000542E0,9.953145815E0
7.317113630E-1,3.490500152E-1,4.468950272E0,8.869050026E0,9.937474569E0
7.336746760E-1,3.490500152E-1,4.431000233E0,8.830050468E0,9.885615320E0
7.356382520E-1,3.870000243E-1,4.431000233E0,8.830050468E0,9.887028035E0
7.376017510E-1,3.870000243E-1,4.431000233E0,8.830050468E0,9.887028035E0
7.395653290E-1,3.870000243E-1,4.431000233E0,8.791950226E0,9.853015825E0
7.415288610E-1,3.109500110E-1,4.468950272E0,8.830050468E0,9.901413925E0
7.434923570E-1,3.490500152E-1,4.431000233E0,8.830050468E0,9.885615320E0
7.454558630E-1,3.490500152E-1,4.431000233E0,8.830050468E0,9.885615320E0
7.474190460E-1,3.490500152E-1,4.431000233E0,8.907000542E0,9.954408954E0
7.493823240E-1,3.490500152E-1,4.431000233E0,8.869050026E0,9.920466085E0
7.513453660E-1,3.490500152E-1,4.468950272E0,8.944950104E0,1.000527285E1
7.533084780E-1,3.490500152E-1,4.468950272E0,8.869050026E0,9.937474569E0
7.552720890E-1,3.490500152E-1,4.431000233E0,8.869050026E0,9.920466085E0
7.572355530E-1,3.490500152E-1,4.468950272E0,8.907000542E0,9.971359541E0
7.591989700E-1,3.490500152E-1,4.468950272E0,8.907000542E0,9.971359541E0
7.611624010E-1,3.109500110E-1,4.468950272E0,8.907000542E0,9.970098550E0
7.631262350E-1,3.109500110E-1,4.468950272E0,8.907000542E0,9.970098550E0
7.650899770E-1,3.109500110E-1,4.468950272E0,8.944950104E0,1.000401613E1
7.670533460E-1,3.490500152E-1,4.468950272E0,8.944950104E0,1.000527285E1
7.690168250E-1,3.109500110E-1,4.468950272E0,8.983950615E0,1.003890308E1
7.709800130E-1,3.490500152E-1,4.431000233E0,8.983950615E0,1.002332119E1
7.729432860E-1,3.109500110E-1,4.431000233E0,8.869050026E0,9.919198624E0
7.749064700E-1,3.870000243E-1,4.431000233E0,8.944950104E0,9.989777998E0
7.768696760E-1,3.490500152E-1,4.431000233E0,8.944950104E0,9.988379815E0
7.788329550E-1,3.870000243E-1,4.431000233E0,8.944950104E0,9.989777998E0
7.807962130E-1,3.490500152E-1,4.507050037E0,8.944950104E0,1.002234844E1
7.827590800E-1,3.490500152E-1,4.468950272E0,8.944950104E0,1.000527285E1
7.847220610E-1,3.490500152E-1,4.468950272E0,9.022050858E0,1.007426196E1
7.866854780E-1,3.870000243E-1,4.468950272E0,9.022050858E0,1.007564823E1
7.886487600E-1,3.490500152E-1,4.468950272E0,8.983950615E0,1.004015543E1
7.906119830E-1,3.870000243E-1,4.507050037E0,8.944950104E0,1.002374189E1
7.925752240E-1,3.870000243E-1,4.431000233E0,8.983950615E0,1.002471450E1
7.945384530E-1,3.870000243E-1,4.392000198E0,8.983950615E0,1.000753733E1
7.965016850E-1,3.870000243E-1,4.468950272E0,8.983950615E0,1.004154640E1
7.984649400E-1,3.870000243E-1,4.468950272E0,8.944950104E0,1.000666867E1
8.004282020E-1,4.260000288E-1,4.468950272E0,8.944950104E0,1.000825284E1
8.023919230E-1,3.870000243E-1,4.431000233E0,8.944950104E0,9.989777998E0
8.043555090E-1,3.490500152E-1,4.468950272E0,8.944950104E0,1.000527285E1
8.063186800E-1,3.490500152E-1,4.392000198E0,8.983950615E0,1.000614163E1
8.082819730E-1,3.870000243E-1,4.468950272E0,8.983950615E0,1.004154640E1
8.102451980E-1,4.260000288E-1,4.468950272E0,8.944950104E0,1.000825284E1
8.122084390E-1,3.870000243E-1,4.431000233E0,8.944950104E0,9.989777998E0
8.141716680E-1,3.870000243E-1,4.468950272E0,8.907000542E0,9.972760109E0
8.161349010E-1,3.870000243E-1,4.431000233E0,8.907000542E0,9.955811907E0
8.180981310E-1,4.260000288E-1,4.468950272E0,8.907000542E0,9.974349663E0
8.200613620E-1,3.870000243E-1,4.392000198E0,8.907000542E0,9.938515654E0
8.220245880E-1,3.870000243E-1,4.431000233E0,8.944950104E0,9.989777998E0
8.239878190E-1,3.870000243E-1,4.431000233E0,8.907000542E0,9.955811907E0
8.259512740E-1,3.490500152E-1,4.431000233E0,8.907000542E0,9.954408954E0
8.279146630E-1,3.870000243E-1,4.431000233E0,8.907000542E0,9.955811907E0
8.298783630E-1,3.490500152E-1,4.431000233E0,8.944950104E0,9.988379815E0
8.318419710E-1,3.870000243E-1,4.431000233E0,8.944950104E0,9.989777998E0
8.338055080E-1,3.870000243E-1,4.431000233E0,8.907000542E0,9.955811907E0
8.357690590E-1,3.490500152E-1,4.431000233E0,8.907000542E0,9.954408954E0
8.377324150E-1,3.490500152E-1,4.431000233E0,8.907000542E0,9.954408954E0
8.396958280E-1,4.260000288E-1,4.431000233E0,8.907000542E0,9.957404167E0
8.416592520E-1,3.870000243E-1,4.431000233E0,8.869050026E0,9.921873837E0
8.436226720E-1,4.260000288E-1,4.468950272E0,8.869050026E0,9.940474884E0
8.455863520E-1,3.870000243E-1,4.468950272E0,8.907000542E0,9.972760109E0
8.475499660E-1,3.870000243E-1,4.468950272E0,8.907000542E0,9.972760109E0
8.495133570E-1,3.870000243E-1,4.468950272E0,8.830050468E0,9.904093943E0
8.514768140E-1,3.870000243E-1,4.431000233E0,8.869050026E0,9.921873837E0
8.534403650E-1,4.260000288E-1,4.431000233E0,8.907000542E0,9.957404167E0
8.554038890E-1,3.870000243E-1,4.392000198E0,8.907000542E0,9.938515654E0
8.573674000E-1,3.109500110E-1,4.431000233E0,8.907000542E0,9.953145815E0
8.593309050E-1,3.490500152E-1,4.431000233E0,8.869050026E0,9.920466085E0
8.612939540E-1,3.490500152E-1,4.431000233E0,8.907000542E0,9.954408954E0
8.632571360E-1,3.490500152E-1,4.431000233E0,8.907000542E0,9.954408954E0
8.652205090E-1,3.870000243E-1,4.468950272E0,8.907000542E0,9.972760109E0
8.671838260E-1,3.490500152E-1,4.507050037E0,8.944950104E0,1.002234844E1
8.691468890E-1,4.260000288E-1,4.468950272E0,8.869050026E0,9.940474884E0
8.711100400E-1,3.870000243E-1,4.468950272E0,8.830050468E0,9.904093943E0
8.730734180E-1,3.490500152E-1,4.468950272E0,8.907000542E0,9.971359541E0
8.750367300E-1,3.109500110E-1,4.468950272E0,8.830050468E0,9.901413925E0
8.769999930E-1,3.490500152E-1,4.507050037E0,8.869050026E0,9.954666459E0
8.789632710E-1,3.870000243E-1,4.468950272E0,8.869050026E0,9.938879912E0
8.809266540E-1,3.490500152E-1,4.468950272E0,8.869050026E0,9.937474569E0
8.828900190E-1,3.490500152E-1,4.507050037E0,8.830050468E0,9.919935848E0
8.848534070E-1,3.490500152E-1,4.468950272E0,8.907000542E0,9.971359541E0
8.868167880E-1,3.490500152E-1,4.468950272E0,8.907000542E0,9.971359541E0
8.887801290E-1,3.109500110E-1,4.468950272E0,8.869050026E0,9.936209277E0
8.907434820E-1,3.490500152E-1,4.468950272E0,8.907000542E0,9.971359541E0
8.927069460E-1,3.490500152E-1,4.468950272E0,8.830050468E0,9.902683662E0
8.946703560E-1,3.109500110E-1,4.507050037E0,8.907000542E0,9.987234282E0
8.966337370E-1,3.490500152E-1,4.507050037E0,8.869050026E0,9.954666459E0
8.985971270E-1,3.490500152E-1,4.507050037E0,8.907000542E0,9.988493110E0
9.005605100E-1,3.109500110E-1,4.507050037E0,8.869050026E0,9.953403353E0
9.025238960E-1,3.490500152E-1,4.507050037E0,8.869050026E0,9.954666459E0
9.044872400E-1,3.870000243E-1,4.468950272E0,8.869050026E0,9.938879912E0
9.064505930E-1,3.490500152E-1,4.468950272E0,8.869050026E0,9.937474569E0
9.084138480E-1,3.490500152E-1,4.507050037E0,8.907000542E0,9.988493110E0
9.103771320E-1,3.490500152E-1,4.468950272E0,8.944950104E0,1.000527285E1
9.123405330E-1,3.109500110E-1,4.507050037E0,8.869050026E0,9.953403353E0
9.143038990E-1,3.490500152E-1,4.468950272E0,8.869050026E0,9.937474569E0
9.162672430E-1,3.490500152E-1,4.431000233E0,8.869050026E0,9.920466085E0
9.182305930E-1,3.490500152E-1,4.507050037E0,8.907000542E0,9.988493110E0
9.201939830E-1,3.109500110E-1,4.507050037E0,8.869050026E0,9.953403353E0
9.221573610E-1,3.109500110E-1,4.468950272E0,8.907000542E0,9.970098550E0
9.241204320E-1,3.490500152E-1,4.468950272E0,8.944950104E0,1.000527285E1
9.260835930E-1,3.109500110E-1,4.468950272E0,8.907000542E0,9.970098550E0
9.280471400E-1,3.109500110E-1,4.468950272E0,8.869050026E0,9.936209277E0
9.300105810E-1,3.109500110E-1,4.507050037E0,8.869050026E0,9.953403353E0
9.319739570E-1,3.109500110E-1,4.468950272E0,8.830050468E0,9.901413925E0
9.339373530E-1,3.109500110E-1,4.468950272E0,8.869050026E0,9.936209277E0
9.359005550E-1,3.109500110E-1,4.468950272E0,8.869050026E0,9.936209277E0
9.378638140E-1,2.719500065E-1,4.507050037E0,8.869050026E0,9.952261311E0
9.398274490E-1,3.109500110E-1,4.468950272E0,8.907000542E0,9.970098550E0
9.417909710E-1,3.109500110E-1,4.468950272E0,8.830050468E0,9.901413925E0
9.437543330E-1,3.109500110E-1,4.507050037E0,8.869050026E0,9.953403353E0
9.457177420E-1,2.719500065E-1,4.468950272E0,8.907000542E0,9.968958420E0
9.476811230E-1,3.490500152E-1,4.468950272E0,8.907000542E0,9.971359541E0
9.496445120E-1,3.109500110E-1,4.431000233E0,8.907000542E0,9.953145815E0
9.516079150E-1,3.109500110E-1,4.431000233E0,8.869050026E0,9.919198624E0
9.535713000E-1,3.490500152E-1,4.468950272E0,8.830050468E0,9.902683662E0
9.555348190E-1,3.490500152E-1,4.507050037E0,8.869050026E0,9.954666459E0
9.574982980E-1,3.490500152E-1,4.431000233E0,8.869050026E0,9.920466085E0
9.594615320E-1,3.490500152E-1,4.468950272E0,8.907000542E0,9.971359541E0
9.614248380E-1,3.109500110E-1,4.468950272E0,8.907000542E0,9.970098550E0
9.633883990E-1,3.109500110E-1,4.468950272E0,8.907000542E0,9.970098550E0
9.653518650E-1,3.490500152E-1,4.468950272E0,8.869050026E0,9.937474569E0
9.673151020E-1,3.490500152E-1,4.507050037E0,8.907000542E0,9.988493110E0
9.692784060E-1,3.490500152E-1,4.507050037E0,8.869050026E0,9.954666459E0
9.712418030E-1,3.490500152E-1,4.507050037E0,8.869050026E0,9.954666459E0
9.732051730E-1,3.490500152E-1,4.507050037E0,8.907000542E0,9.988493110E0
9.751686800E-1,3.870000243E-1,4.507050037E0,8.907000542E0,9.989891276E0
9.771321580E-1,4.260000288E-1,4.507050037E0,8.907000542E0,9.991478105E0
9.790955730E-1,3.870000243E-1,4.507050037E0,8.869050026E0,9.956069376E0
9.810590060E-1,3.490500152E-1,4.468950272E0,8.907000542E0,9.971359541E0
9.830223380E-1,3.490500152E-1,4.507050037E0,8.944950104E0,1.002234844E1
9.849856990E-1,3.870000243E-1,4.468950272E0,8.869050026E0,9.938879912E0
9.869489770E-1,3.870000243E-1,4.468950272E0,8.907000542E0,9.972760109E0
9.889122620E-1,3.870000243E-1,4.431000233E0,8.869050026E0,9.921873837E0
9.908756170E-1,3.870000243E-1,4.431000233E0,8.830050468E0,9.887028035E0
9.928389520E-1,3.870000243E-1,4.431000233E0,8.830050468E0,9.887028035E0
9.948022110E-1,4.260000288E-1,4.468950272E0,8.907000542E0,9.974349663E0
9.967654930E-1,3.870000243E-1,4.431000233E0,8.869050026E0,9.921873837E0
9.987288990E-1,3.870000243E-1,4.431000233E0,8.907000542E0,9.955811907E0
1.000692265E0,4.260000288E-1,4.431000233E0,8.907000542E0,9.957404167E0
1.002655833E0,3.490500152E-1,4.431000233E0,8.907000542E0,9.954408954E0
1.004619342E0,4.260000288E-1,4.468950272E0,8.944950104E0,1.000825284E1
1.006583021E0,3.870000243E-1,4.431000233E0,8.907000542E0,9.955811907E0
1.008546650E0,3.490500152E-1,4.392000198E0,8.944950104E0,9.971140056E0
1.010510169E0,3.870000243E-1,4.431000233E0,8.983950615E0,1.002471450E1
1.012473724E0,3.490500152E-1,4.431000233E0,8.944950104E0,9.988379815E0
1.014437124E0,3.870000243E-1,4.431000233E0,8.944950104E0,9.989777998E0
1.016400570E0,3.490500152E-1,4.431000233E0,8.983950615E0,1.002332119E1
1.018364123E0,3.490500152E-1,4.431000233E0,8.944950104E0,9.988379815E0
1.020327645E0,3.109500110E-1,4.392000198E0,8.944950104E0,9.969879037E0
1.022291292E0,3.490500152E-1,4.468950272E0,8.944950104E0,1.000527285E1
1.024254923E0,3.490500152E-1,4.468950272E0,8.944950104E0,1.000527285E1
1.026218492E0,3.109500110E-1,4.468950272E0,8.944950104E0,1.000401613E1
1.028182079E0,3.109500110E-1,4.468950272E0,8.907000542E0,9.970098550E0
1.030145609E0,2.719500065E-1,4.507050037E0,8.907000542E0,9.986096109E0
1.032109156E0,3.109500110E-1,4.507050037E0,8.869050026E0,9.953403353E0
1.034072663E0,3.870000243E-1,4.431000233E0,8.869050026E0,9.921873837E0
1.036036171E0,3.109500110E-1,4.507050037E0,8.830050468E0,9.918668319E0
1.037999354E0,2.340000123E-1,4.468950272E0,8.830050468E0,9.899296127E0
1.039962633E0,3.490500152E-1,4.468950272E0,8.791950226E0,9.868725410E0
1.041926035E0,3.109500110E-1,4.507050037E0,8.830050468E0,9.918668319E0
1.043889400E0,3.109500110E-1,4.545000076E0,8.791950226E0,9.902126255E0
1.045852464E0,3.109500110E-1,4.507050037E0,8.830050468E0,9.918668319E0
1.047815623E0,2.719500065E-1,4.507050037E0,8.791950226E0,9.883615008E0
1.049778865E0,2.719500065E-1,4.468950272E0,8.830050468E0,9.900265886E0
1.051742082E0,3.109500110E-1,4.468950272E0,8.791950226E0,9.867451303E0
1.053705496E0,3.109500110E-1,4.468950272E0,8.869050026E0,9.936209277E0
1.055668852E0,3.490500152E-1,4.507050037E0,8.791950226E0,9.886036856E0
1.057632246E0,3.109500110E-1,4.468950272E0,8.791950226E0,9.867451303E0
1.059595626E0,3.870000243E-1,4.431000233E0,8.830050468E0,9.887028035E0
1.061559011E0,3.109500110E-1,4.507050037E0,8.830050468E0,9.918668319E0
1.063522395E0,3.490500152E-1,4.468950272E0,8.830050468E0,9.902683662E0
1.065485601E0,3.490500152E-1,4.468950272E0,8.791950226E0,9.868725410E0
1.067448859E0,3.870000243E-1,4.468950272E0,8.791950226E0,9.870140542E0
1.069412288E0,3.490500152E-1,4.431000233E0,8.754000664E0,9.817745495E0
1.071375650E0,3.870000243E-1,4.468950272E0,8.830050468E0,9.904093943E0
1.073338679E0,3.870000243E-1,4.507050037E0,8.830050468E0,9.921343676E0
1.075301806E0,3.870000243E-1,4.431000233E0,8.907000542E0,9.955811907E0
1.077264829E0,3.870000243E-1,4.431000233E0,8.869050026E0,9.921873837E0
1.079227883E0,3.490500152E-1,4.468950272E0,8.869050026E0,9.937474569E0
1.081190947E0,3.870000243E-1,4.431000233E0,8.944950104E0,9.989777998E0
1.083154019E0,3.109500110E-1,4.468950272E0,8.830050468E0,9.901413925E0
1.085117142E0,3.870000243E-1,4.468950272E0,8.944950104E0,1.000666867E1
1.087080250E0,3.870000243E-1,4.468950272E0,8.869050026E0,9.938879912E0
1.089043457E0,3.870000243E-1,4.431000233E0,8.907000542E0,9.955811907E0
1.091006635E0,3.870000243E-1,4.468950272E0,8.944950104E0,1.000666867E1
1.092969541E0,3.490500152E-1,4.507050037E0,8.869050026E0,9.954666459E0
1.094932541E0,3.870000243E-1,4.507050037E0,8.907000542E0,9.989891276E0
1.096896171E0,3.870000243E-1,4.507050037E0,8.907000542E0,9.989891276E0
1.098859616E0,3.490500152E-1,4.468950272E0,8.830050468E0,9.902683662E0
1.100822451E0,3.870000243E-1,4.507050037E0,8.869050026E0,9.956069376E0
1.102785464E0,3.490500152E-1,4.507050037E0,8.869050026E0,9.954666459E0
1.104748880E0,3.490500152E-1,4.507050037E0,8.869050026E0,9.954666459E0
1.106712168E0,3.490500152E-1,4.545000076E0,8.944950104E0,1.003947180E1
1.108675255E0,3.490500152E-1,4.507050037E0,8.907000542E0,9.988493110E0
1.110638401E0,3.490500152E-1,4.468950272E0,8.907000542E0,9.971359541E0
1.112602186E0,3.490500152E-1,4.545000076E0,8.944950104E0,1.003947180E1
1.114565784E0,3.490500152E-1,4.545000076E0,8.983950615E0,1.007423596E1
1.116529103E0,3.109500110E-1,4.507050037E0,8.907000542E0,9.987234282E0
1.118492493E0,3.870000243E-1,4.507050037E0,9.022050858E0,1.009260475E1
1.120455921E0,3.109500110E-1,4.545000076E0,8.944950104E0,1.003821936E1
1.122419337E0,3.109500110E-1,4.507050037E0,8.944950104E0,1.002109387E1
1.124382537E0,3.109500110E-1,4.507050037E0,8.983950615E0,1.005592157E1
1.126345801E0,3.109500110E-1,4.545000076E0,8.944950104E0,1.003821936E1
1.128308976E0,3.109500110E-1,4.468950272E0,8.944950104E0,1.000401613E1
1.130272180E0,2.719500065E-1,4.468950272E0,8.944950104E0,1.000287987E1
1.132235460E0,3.109500110E-1,4.507050037E0,8.983950615E0,1.005592157E1
1.134198717E0,3.490500152E-1,4.507050037E0,8.983950615E0,1.005717180E1
1.136161944E0,3.490500152E-1,4.507050037E0,8.944950104E0,1.002234844E1
1.138125180E0,3.870000243E-1,4.468950272E0,8.944950104E0,1.000666867E1
1.140088568E0,3.490500152E-1,4.468950272E0,8.869050026E0,9.937474569E0
1.142051895E0,3.490500152E-1,4.468950272E0,8.907000542E0,9.971359541E0
1.144015110E0,3.490500152E-1,4.468950272E0,8.944950104E0,1.000527285E1
1.145978358E0,3.490500152E-1,4.468950272E0,8.944950104E0,1.000527285E1
1.147941586E0,3.870000243E-1,4.431000233E0,8.983950615E0,1.002471450E1
1.149904820E0,3.870000243E-1,4.431000233E0,8.944950104E0,9.989777998E0
1.151867915E0,3.490500152E-1,4.468950272E0,8.944950104E0,1.000527285E1
1.153831051E0,4.260000288E-1,4.431000233E0,8.944950104E0,9.991364844E0
1.155794477E0,3.870000243E-1,4.392000198E0,8.907000542E0,9.938515654E0
1.157757818E0,4.639500082E-1,4.431000233E0,8.907000542E0,9.959099925E0
1.159721345E0,3.870000243E-1,4.392000198E0,8.944950104E0,9.972540655E0
1.161684818E0,3.870000243E-1,4.392000198E0,8.907000542E0,9.938515654E0
1.163647892E0,4.260000288E-1,4.392000198E0,8.944950104E0,9.974130244E0
1.165611070E0,3.870000243E-1,4.392000198E0,8.869050026E0,9.904518319E0
1.167574444E0,3.870000243E-1,4.354050159E0,8.869050026E0,9.887748489E0
1.169537760E0,3.870000243E-1,4.392000198E0,8.869050026E0,9.904518319E0
1.171501022E0,3.490500152E-1,4.392000198E0,8.907000542E0,9.937110259E0
1.173464300E0,3.870000243E-1,4.431000233E0,8.869050026E0,9.921873837E0
1.175427707E0,3.870000243E-1,4.392000198E0,8.830050468E0,9.869611240E0
1.177391073E0,3.870000243E-1,4.392000198E0,8.869050026E0,9.904518319E0
1.179354596E0,4.639500082E-1,4.392000198E0,8.869050026E0,9.907823359E0
1.181318073E0,3.870000243E-1,4.392000198E0,8.869050026E0,9.904518319E0
1.183281307E0,4.260000288E-1,4.392000198E0,8.830050468E0,9.871217404E0
1.185244613E0,3.870000243E-1,4.392000198E0,8.830050468E0,9.869611240E0
1.187207601E0,4.260000288E-1,4.431000233E0,8.869050026E0,9.923471542E0
1.189170685E0,3.870000243E-1,4.431000233E0,8.869050026E0,9.921873837E0
1.191133805E0,4.260000288E-1,4.431000233E0,8.869050026E0,9.923471542E0
1.193096914E0,4.260000288E-1,4.431000233E0,8.830050468E0,9.888631370E0
1.195060346E0,4.260000288E-1,4.392000198E0,8.869050026E0,9.906118823E0
1.197023683E0,4.260000288E-1,4.392000198E0,8.869050026E0,9.906118823E0
1.198987071E0,3.870000243E-1,4.431000233E0,8.830050468E0,9.887028035E0
1.200950447E0,4.260000288E-1,4.431000233E0,8.830050468E0,9.888631370E0
1.202913474E0,4.260000288E-1,4.431000233E0,8.869050026E0,9.923471542E0
1.204876603E0,3.870000243E-1,4.431000233E0,8.907000542E0,9.955811907E0
1.206840166E0,3.870000243E-1,4.431000233E0,8.907000542E0,9.955811907E0
1.208803601E0,3.870000243E-1,4.468950272E0,8.830050468E0,9.904093943E0
1.210767177E0,3.490500152E-1,4.507050037E0,8.869050026E0,9.954666459E0
1.212730698E0,3.870000243E-1,4.468950272E0,8.869050026E0,9.938879912E0
1.214693880E0,3.870000243E-1,4.468950272E0,8.869050026E0,9.938879912E0
1.216657162E0,3.490500152E-1,4.468950272E0,8.830050468E0,9.902683662E0
1.218620563E0,3.490500152E-1,4.431000233E0,8.869050026E0,9.920466085E0
1.220583929E0,3.490500152E-1,4.507050037E0,8.907000542E0,9.988493110E0
1.222547012E0,3.490500152E-1,4.468950272E0,8.944950104E0,1.000527285E1
1.224510171E0,3.109500110E-1,4.468950272E0,8.869050026E0,9.936209277E0
1.226473189E0,3.870000243E-1,4.507050037E0,8.907000542E0,9.989891276E0
1.228436248E0,3.490500152E-1,4.507050037E0,8.944950104E0,1.002234844E1
1.230399327E0,3.109500110E-1,4.468950272E0,8.983950615E0,1.003890308E1
1.232362400E0,3.490500152E-1,4.468950272E0,8.944950104E0,1.000527285E1
1.234325912E0,3.490500152E-1,4.507050037E0,8.983950615E0,1.005717180E1
1.236289275E0,3.109500110E-1,4.468950272E0,8.944950104E0,1.000401613E1
1.238252978E0,3.109500110E-1,4.468950272E0,8.983950615E0,1.003890308E1
1.240216582E0,3.490500152E-1,4.468950272E0,8.907000542E0,9.971359541E0
1.242180155E0,3.109500110E-1,4.545000076E0,8.944950104E0,1.003821936E1
1.244143738E0,3.109500110E-1,4.468950272E0,8.944950104E0,1.000401613E1
1.246107044E0,3.490500152E-1,4.507050037E0,8.983950615E0,1.005717180E1
1.248070431E0,3.490500152E-1,4.468950272E0,8.983950615E0,1.004015543E1
1.250033635E0,2.719500065E-1,4.507050037E0,8.944950104E0,1.001995954E1
1.251996892E0,3.109500110E-1,4.545000076E0,8.944950104E0,1.003821936E1
1.253960297E0,2.719500065E-1,4.545000076E0,8.907000542E0,1.000328152E1
1.255923659E0,2.719500065E-1,4.468950272E0,8.944950104E0,1.000287987E1
1.257886919E0,3.109500110E-1,4.431000233E0,8.907000542E0,9.953145815E0
1.259850205E0,3.490500152E-1,4.468950272E0,8.944950104E0,1.000527285E1
1.261813426E0,3.109500110E-1,4.507050037E0,8.944950104E0,1.002109387E1
1.263776666E0,3.109500110E-1,4.468950272E0,8.907000542E0,9.970098550E0
1.265739895E0,3.490500152E-1,4.431000233E0,8.907000542E0,9.954408954E0
1.267703128E0,3.109500110E-1,4.468950272E0,8.983950615E0,1.003890308E1
1.269666353E0,2.719500065E-1,4.468950272E0,8.944950104E0,1.000287987E1
1.271629584E0,3.490500152E-1,4.468950272E0,8.944950104E0,1.000527285E1
1.273592815E0,3.490500152E-1,4.507050037E0,8.907000542E0,9.988493110E0
1.275556046E0,3.870000243E-1,4.431000233E0,8.907000542E0,9.955811907E0
1.277519277E0,3.109500110E-1,4.431000233E0,8.907000542E0,9.953145815E0
1.279482508E0,3.490500152E-1,4.468950272E0,8.944950104E0,1.000527285E1
1.281446292E0,3.490500152E-1,4.431000233E0,8.944950104E0,9.988379815E0
1.283409904E0,3.870000243E-1,4.468950272E0,8.907000542E0,9.972760109E0
1.285373386E0,3.490500152E-1,4.468950272E0,8.907000542E0,9.971359541E0
1.287336906E0,3.490500152E-1,4.392000198E0,8.907000542E0,9.937110259E0
1.289300267E0,3.870000243E-1,4.431000233E0,8.907000542E0,9.955811907E0
1.291263675E0,3.870000243E-1,4.431000233E0,8.907000542E0,9.955811907E0
1.293227023E0,3.490500152E-1,4.431000233E0,8.869050026E0,9.920466085E0
1.295190412E0,3.870000243E-1,4.431000233E0,8.869050026E0,9.921873837E0
1.297153796E0,3.490500152E-1,4.468950272E0,8.907000542E0,9.971359541E0
1.299117181E0,3.870000243E-1,4.431000233E0,8.869050026E0,9.921873837E0
1.301080250E0,3.870000243E-1,4.468950272E0,8.830050468E0,9.904093943E0
1.303043412E0,3.870000243E-1,4.468950272E0,8.830050468E0,9.904093943E0
1.305006954E0,3.490500152E-1,4.468950272E0,8.869050026E0,9.937474569E0
1.306970395E0,3.870000243E-1,4.468950272E0,8.869050026E0,9.938879912E0
1.308933590E0,3.490500152E-1,4.468950272E0,8.791950226E0,9.868725410E0
1.310896858E0,3.490500152E-1,4.468950272E0,8.791950226E0,9.868725410E0
1.312860307E0,3.870000243E-1,4.468950272E0,8.791950226E0,9.870140542E0
1.314823702E0,3.870000243E-1,4.431000233E0,8.791950226E0,9.853015825E0
1.316786880E0,4.260000288E-1,4.468950272E0,8.830050468E0,9.905694515E0
1.318750108E0,3.870000243E-1,4.468950272E0,8.791950226E0,9.870140542E0
1.320713384E0,4.260000288E-1,4.468950272E0,8.791950226E0,9.871746620E0
1.322676645E0,3.870000243E-1,4.468950272E0,8.791950226E0,9.870140542E0
1.324639826E0,3.870000243E-1,4.392000198E0,8.791950226E0,9.835538802E0
1.326603031E0,3.870000243E-1,4.431000233E0,8.830050468E0,9.887028035E0
1.328566246E0,4.260000288E-1,4.468950272E0,8.830050468E0,9.905694515E0
1.330529472E0,3.490500152E-1,4.431000233E0,8.830050468E0,9.885615320E0
1.332492703E0,4.260000288E-1,4.431000233E0,8.830050468E0,9.888631370E0
1.334455933E0,4.260000288E-1,4.431000233E0,8.869050026E0,9.923471542E0
1.336419525E0,3.870000243E-1,4.468950272E0,8.830050468E0,9.904093943E0
1.338383010E0,4.260000288E-1,4.468950272E0,8.907000542E0,9.974349663E0
1.340346574E0,3.870000243E-1,4.431000233E0,8.869050026E0,9.921873837E0
1.342310135E0,4.260000288E-1,4.431000233E0,8.907000542E0,9.957404167E0
1.344273626E0,4.260000288E-1,4.431000233E0,8.830050468E0,9.888631370E0
1.346237137E0,3.870000243E-1,4.431000233E0,8.869050026E0,9.921873837E0
1.348200545E0,3.490500152E-1,4.431000233E0,8.944950104E0,9.988379815E0
1.350163983E0,3.490500152E-1,4.431000233E0,8.869050026E0,9.920466085E0
1.352127344E0,3.490500152E-1,4.431000233E0,8.830050468E0,9.885615320E0
1.354090738E0,3.870000243E-1,4.431000233E0,8.830050468E0,9.887028035E0
1.356054300E0,3.490500152E-1,4.431000233E0,8.869050026E0,9.920466085E0
1.358017813E0,3.490500152E-1,4.468950272E0,8.791950226E0,9.868725410E0
1.359981356E0,3.490500152E-1,4.468950272E0,8.869050026E0,9.937474569E0
1.361944890E0,3.490500152E-1,4.468950272E0,8.869050026E0,9.937474569E0
1.363908419E0,3.490500152E-1,4.431000233E0,8.869050026E0,9.920466085E0
1.365871957E0,3.490500152E-1,4.507050037E0,8.869050026E0,9.954666459E0
1.367835452E0,3.870000243E-1,4.507050037E0,8.907000542E0,9.989891276E0
1.369798959E0,4.260000288E-1,4.431000233E0,8.869050026E0,9.923471542E0
1.371762682E0,3.490500152E-1,4.468950272E0,8.869050026E0,9.937474569E0
1.373726342E0,3.490500152E-1,4.468950272E0,8.869050026E0,9.937474569E0
1.375689851E0,3.870000243E-1,4.431000233E0,8.869050026E0,9.921873837E0
1.377653411E0,3.870000243E-1,4.392000198E0,8.907000542E0,9.938515654E0
1.379616810E0,3.490500152E-1,4.468950272E0,8.907000542E0,9.971359541E0
1.381580257E0,4.260000288E-1,4.468950272E0,8.907000542E0,9.974349663E0
1.383543631E0,3.490500152E-1,4.468950272E0,8.907000542E0,9.971359541E0
1.385507026E0,3.109500110E-1,4.507050037E0,8.907000542E0,9.987234282E0
1.387470553E0,3.870000243E-1,4.468950272E0,8.907000542E0,9.972760109E0
1.389434034E0,3.870000243E-1,4.507050037E0,8.944950104E0,1.002374189E1
1.391397268E0,3.870000243E-1,4.507050037E0,8.944950104E0,1.002374189E1
1.393360575E0,3.870000243E-1,4.507050037E0,8.983950615E0,1.005856042E1
1.395323972E0,3.870000243E-1,4.507050037E0,8.944950104E0,1.002374189E1
1.397287342E0,3.490500152E-1,4.545000076E0,8.907000542E0,1.000567440E1
1.399250885E0,3.490500152E-1,4.507050037E0,8.944950104E0,1.002234844E1
1.401214395E0,3.109500110E-1,4.507050037E0,8.944950104E0,1.002109387E1
1.403177534E0,3.109500110E-1,4.545000076E0,8.983950615E0,1.007298785E1
1.405140781E0,3.490500152E-1,4.507050037E0,8.983950615E0,1.005717180E1
1.407104368E0,3.109500110E-1,4.507050037E0,8.944950104E0,1.002109387E1
1.409067856E0,3.490500152E-1,4.507050037E0,8.907000542E0,9.988493110E0
1.411031079E0,3.109500110E-1,4.545000076E0,8.944950104E0,1.003821936E1
1.412994387E0,2.719500065E-1,4.468950272E0,8.944950104E0,1.000287987E1
1.414957604E0,3.109500110E-1,4.507050037E0,8.983950615E0,1.005592157E1
1.416920848E0,3.109500110E-1,4.507050037E0,8.983950615E0,1.005592157E1
1.418884211E0,3.109500110E-1,4.468950272E0,8.983950615E0,1.003890308E1
1.420847539E0,2.719500065E-1,4.545000076E0,9.022050858E0,1.010585890E1
1.422810964E0,2.719500065E-1,4.507050037E0,8.944950104E0,1.001995954E1
1.424774371E0,2.719500065E-1,4.507050037E0,8.983950615E0,1.005479117E1
1.426737753E0,2.719500065E-1,4.507050037E0,8.944950104E0,1.001995954E1
1.428701142E0,3.109500110E-1,4.507050037E0,8.983950615E0,1.005592157E1
1.430664346E0,2.340000123E-1,4.545000076E0,9.022050858E0,1.010490888E1
1.432627604E0,3.109500110E-1,4.507050037E0,9.022050858E0,1.008997481E1
1.434590820E0,2.719500065E-1,4.507050037E0,8.983950615E0,1.005479117E1
1.436554055E0,3.109500110E-1,4.545000076E0,8.983950615E0,1.007298785E1
1.438517464E0,2.340000123E-1,4.545000076E0,8.983950615E0,1.007090613E1
1.440480822E0,3.109500110E-1,4.545000076E0,8.944950104E0,1.003821936E1
1.442444212E0,2.719500065E-1,4.507050037E0,9.060000420E0,1.012279924E1
1.444407592E0,2.719500065E-1,4.507050037E0,8.944950104E0,1.001995954E1
1.446370953E0,2.719500065E-1,4.507050037E0,8.907000542E0,9.986096109E0
1.448334337E0,2.719500065E-1,4.468950272E0,8.944950104E0,1.000287987E1
1.450297543E0,2.719500065E-1,4.545000076E0,8.907000542E0,1.000328152E1
1.452260801E0,2.719500065E-1,4.468950272E0,8.907000542E0,9.968958420E0
1.454224161E0,2.719500065E-1,4.507050037E0,8.907000542E0,9.986096109E0
1.456187491E0,2.719500065E-1,4.507050037E0,8.907000542E0,9.986096109E0
1.458151085E0,2.719500065E-1,4.468950272E0,8.869050026E0,9.935065259E0
1.460114588E0,3.109500110E-1,4.507050037E0,8.907000542E0,9.987234282E0
1.462078313E0,2.719500065E-1,4.468950272E0,8.907000542E0,9.968958420E0
1.464041972E0,2.719500065E-1,4.507050037E0,8.830050468E0,9.917522277E0
1.466005356E0,3.109500110E-1,4.468950272E0,8.869050026E0,9.936209277E0
1.467968821E0,2.719500065E-1,4.431000233E0,8.869050026E0,9.918052643E0
1.469932131E0,2.719500065E-1,4.468950272E0,8.869050026E0,9.935065259E0
1.471895498E0,3.490500152E-1,4.468950272E0,8.830050468E0,9.902683662E0
1.473858525E0,3.490500152E-1,4.431000233E0,8.830050468E0,9.885615320E0
1.475821652E0,3.490500152E-1,4.431000233E0,8.944950104E0,9.988379815E0
1.477784899E0,3.870000243E-1,4.392000198E0,8.830050468E0,9.869611240E0
1.479748111E0,3.490500152E-1,4.392000198E0,8.869050026E0,9.903108099E0
1.481711409E0,3.490500152E-1,4.431000233E0,8.907000542E0,9.954408954E0
1.483674669E0,3.870000243E-1,4.431000233E0,8.907000542E0,9.955811907E0
1.485638075E0,3.490500152E-1,4.392000198E0,8.869050026E0,9.903108099E0
1.487601438E0,3.870000243E-1,4.431000233E0,8.830050468E0,9.887028035E0
1.489564826E0,3.870000243E-1,4.392000198E0,8.907000542E0,9.938515654E0
1.491528207E0,3.870000243E-1,4.392000198E0,8.869050026E0,9.904518319E0
1.493491597E0,3.870000243E-1,4.431000233E0,8.830050468E0,9.887028035E0
1.495454981E0,3.870000243E-1,4.392000198E0,8.830050468E0,9.869611240E0
1.497418322E0,3.490500152E-1,4.392000198E0,8.869050026E0,9.903108099E0
1.499381676E0,3.490500152E-1,4.431000233E0,8.869050026E0,9.920466085E0
1.501345065E0,3.870000243E-1,4.431000233E0,8.907000542E0,9.955811907E0
1.503308443E0,4.260000288E-1,4.468950272E0,8.830050468E0,9.905694515E0
1.505271874E0,3.490500152E-1,4.392000198E0,8.830050468E0,9.868196032E0
1.507235289E0,3.490500152E-1,4.431000233E0,8.830050468E0,9.885615320E0
1.509198624E0,3.490500152E-1,4.431000233E0,8.869050026E0,9.920466085E0
1.511161983E0,4.260000288E-1,4.468950272E0,8.830050468E0,9.905694515E0
1.513125192E0,3.870000243E-1,4.431000233E0,8.830050468E0,9.887028035E0
1.515088445E0,3.870000243E-1,4.431000233E0,8.907000542E0,9.955811907E0
1.517051302E0,3.870000243E-1,4.431000233E0,8.830050468E0,9.887028035E0
1.519014282E0,3.870000243E-1,4.431000233E0,8.869050026E0,9.921873837E0
1.520977600E0,4.260000288E-1,4.431000233E0,8.830050468E0,9.888631370E0
1.522940819E0,3.870000243E-1,4.431000233E0,8.869050026E0,9.921873837E0
1.524904187E0,3.870000243E-1,4.431000233E0,8.869050026E0,9.921873837E0
1.526867511E0,3.870000243E-1,4.468950272E0,8.830050468E0,9.904093943E0
1.528830591E0,4.260000288E-1,4.468950272E0,8.830050468E0,9.905694515E0
1.530793743E0,3.870000243E-1,4.431000233E0,8.869050026E0,9.921873837E0
1.532756986E0,4.639500082E-1,4.468950272E0,8.869050026E0,9.942173530E0
1.534720202E0,4.260000288E-1,4.468950272E0,8.869050026E0,9.940474884E0
1.536683751E0,4.639500082E-1,4.468950272E0,8.869050026E0,9.942173530E0
1.538647202E0,5.020500422E-1,4.468950272E0,8.907000542E0,9.977887022E0
1.540610621E0,4.260000288E-1,4.468950272E0,8.869050026E0,9.940474884E0
1.542574050E0,3.870000243E-1,4.507050037E0,8.907000542E0,9.989891276E0
1.544537382E0,3.870000243E-1,4.468950272E0,8.869050026E0,9.938879912E0
1.546500743E0,3.870000243E-1,4.468950272E0,8.830050468E0,9.904093943E0
1.548463951E0,3.870000243E-1,4.468950272E0,8.869050026E0,9.938879912E0
1.550427204E0,4.260000288E-1,4.468950272E0,8.907000542E0,9.974349663E0
1.552390465E0,3.490500152E-1,4.468950272E0,8.869050026E0,9.937474569E0
1.554353731E0,4.260000288E-1,4.468950272E0,8.907000542E0,9.974349663E0
1.556317091E0,3.490500152E-1,4.431000233E0,8.907000542E0,9.954408954E0
1.558280423E0,3.870000243E-1,4.468950272E0,8.907000542E0,9.972760109E0
1.560243817E0,3.490500152E-1,4.468950272E0,8.944950104E0,1.000527285E1
1.562207192E0,3.870000243E-1,4.468950272E0,8.944950104E0,1.000666867E1
1.564170778E0,3.870000243E-1,4.468950272E0,8.944950104E0,1.000666867E1
1.566134288E0,4.260000288E-1,4.431000233E0,8.869050026E0,9.923471542E0
1.568097472E0,3.870000243E-1,4.431000233E0,8.944950104E0,9.989777998E0
1.570060752E0,4.260000288E-1,4.431000233E0,8.944950104E0,9.991364844E0
1.572024334E0,4.260000288E-1,4.431000233E0,8.944950104E0,9.991364844E0
1.573987827E0,3.870000243E-1,4.431000233E0,8.944950104E0,9.989777998E0
1.575951210E0,4.260000288E-1,4.431000233E0,8.944950104E0,9.991364844E0
1.577914646E0,3.870000243E-1,4.431000233E0,8.944950104E0,9.989777998E0
1.579878156E0,3.490500152E-1,4.468950272E0,8.944950104E0,1.000527285E1
1.581841644E0,3.490500152E-1,4.431000233E0,8.944950104E0,9.988379815E0
1.583805012E0,3.490500152E-1,4.468950272E0,8.944950104E0,1.000527285E1
1.585768415E0,3.870000243E-1,4.431000233E0,8.944950104E0,9.989777998E0
1.587731845E0,4.260000288E-1,4.468950272E0,8.907000542E0,9.974349663E0
1.589695264E0,3.870000243E-1,4.468950272E0,8.830050468E0,9.904093943E0
1.591658599E0,3.870000243E-1,4.431000233E0,8.907000542E0,9.955811907E0
1.593621959E0,3.490500152E-1,4.431000233E0,8.869050026E0,9.920466085E0
1.595585212E0,3.490500152E-1,4.431000233E0,8.869050026E0,9.920466085E0
1.597548497E0,3.109500110E-1,4.468950272E0,8.830050468E0,9.901413925E0
1.599511897E0,3.490500152E-1,4.431000233E0,8.869050026E0,9.920466085E0
1.601475264E0,3.490500152E-1,4.431000233E0,8.830050468E0,9.885615320E0
1.603438608E0,3.490500152E-1,4.468950272E0,8.791950226E0,9.868725410E0
1.605401959E0,3.490500152E-1,4.468950272E0,8.830050468E0,9.902683662E0
1.607365393E0,3.109500110E-1,4.468950272E0,8.830050468E0,9.901413925E0
1.609328803E0,3.109500110E-1,4.431000233E0,8.830050468E0,9.884343390E0
1.611292139E0,2.719500065E-1,4.431000233E0,8.830050468E0,9.883193368E0
1.613255497E0,2.719500065E-1,4.507050037E0,8.907000542E0,9.986096109E0
1.615218571E0,3.490500152E-1,4.507050037E0,8.830050468E0,9.919935848E0
1.617181728E0,3.109500110E-1,4.468950272E0,8.907000542E0,9.970098550E0
1.619145150E0,3.490500152E-1,4.468950272E0,8.907000542E0,9.971359541E0
1.621108495E0,3.490500152E-1,4.468950272E0,8.944950104E0,1.000527285E1
1.623071691E0,3.109500110E-1,4.468950272E0,8.944950104E0,1.000401613E1
1.625034911E0,3.109500110E-1,4.468950272E0,8.907000542E0,9.970098550E0
1.626998187E0,3.490500152E-1,4.468950272E0,8.907000542E0,9.971359541E0
1.628961447E0,2.719500065E-1,4.468950272E0,8.944950104E0,1.000287987E1
1.630924674E0,3.109500110E-1,4.468950272E0,8.907000542E0,9.970098550E0
1.632887911E0,3.109500110E-1,4.468950272E0,8.907000542E0,9.970098550E0
1.634851344E0,2.719500065E-1,4.468950272E0,8.907000542E0,9.968958420E0
1.636814702E0,3.490500152E-1,4.507050037E0,8.907000542E0,9.988493110E0
1.638777732E0,3.109500110E-1,4.507050037E0,8.907000542E0,9.987234282E0
1.640740858E0,3.109500110E-1,4.507050037E0,8.983950615E0,1.005592157E1
1.642703927E0,2.719500065E-1,4.507050037E0,8.944950104E0,1.001995954E1
1.644667012E0,2.719500065E-1,4.468950272E0,8.944950104E0,1.000287987E1
1.646630591E0,2.340000123E-1,4.468950272E0,8.983950615E0,1.003681429E1
1.648594019E0,2.719500065E-1,4.468950272E0,8.983950615E0,1.003777077E1
1.650557442E0,2.719500065E-1,4.507050037E0,8.944950104E0,1.001995954E1
1.652520867E0,2.719500065E-1,4.468950272E0,8.983950615E0,1.003777077E1
1.654484199E0,3.109500110E-1,4.507050037E0,8.983950615E0,1.005592157E1
1.656447559E0,2.719500065E-1,4.507050037E0,9.022050858E0,1.008884823E1
1.658410828E0,3.109500110E-1,4.545000076E0,8.983950615E0,1.007298785E1
1.660374113E0,2.719500065E-1,4.507050037E0,9.022050858E0,1.008884823E1
1.662337829E0,2.719500065E-1,4.507050037E0,8.983950615E0,1.005479117E1
1.664301418E0,3.490500152E-1,4.507050037E0,8.983950615E0,1.005717180E1
1.666264814E0,3.109500110E-1,4.545000076E0,8.983950615E0,1.007298785E1
1.668228267E0,3.109500110E-1,4.507050037E0,8.944950104E0,1.002109387E1
1.670191459E0,3.109500110E-1,4.507050037E0,8.944950104E0,1.002109387E1
1.672154728E0,3.490500152E-1,4.545000076E0,8.944950104E0,1.003947180E1
1.674118627E0,3.490500152E-1,4.507050037E0,8.907000542E0,9.988493110E0
1.676082342E0,3.109500110E-1,4.507050037E0,8.907000542E0,9.987234282E0
1.678045851E0,3.109500110E-1,4.507050037E0,8.944950104E0,1.002109387E1
1.680009421E0,3.490500152E-1,4.507050037E0,8.907000542E0,9.988493110E0
1.681973022E0,3.490500152E-1,4.507050037E0,8.907000542E0,9.988493110E0
1.683936596E0,3.109500110E-1,4.507050037E0,8.907000542E0,9.987234282E0
1.685900084E0,3.490500152E-1,4.545000076E0,8.869050026E0,9.971906035E0
1.687863598E0,3.490500152E-1,4.507050037E0,8.907000542E0,9.988493110E0
1.689827500E0,3.490500152E-1,4.507050037E0,8.869050026E0,9.954666459E0
1.691791289E0,3.109500110E-1,4.468950272E0,8.830050468E0,9.901413925E0
1.693754816E0,3.870000243E-1,4.468950272E0,8.830050468E0,9.904093943E0
1.695718430E0,3.490500152E-1,4.545000076E0,8.830050468E0,9.937235676E0
1.697682089E0,3.490500152E-1,4.507050037E0,8.869050026E0,9.954666459E0
1.699645735E0,3.490500152E-1,4.507050037E0,8.791950226E0,9.886036856E0
1.701609436E0,3.870000243E-1,4.507050037E0,8.830050468E0,9.921343676E0
1.703573120E0,3.109500110E-1,4.507050037E0,8.791950226E0,9.884764981E0
1.705536528E0,3.109500110E-1,4.468950272E0,8.830050468E0,9.901413925E0
1.707499997E0,3.490500152E-1,4.545000076E0,8.830050468E0,9.937235676E0
1.709463546E0,3.109500110E-1,4.468950272E0,8.791950226E0,9.867451303E0
1.711427072E0,3.490500152E-1,4.507050037E0,8.830050468E0,9.919935848E0
1.713390613E0,3.109500110E-1,4.507050037E0,8.830050468E0,9.918668319E0
1.715354149E0,3.490500152E-1,4.468950272E0,8.830050468E0,9.902683662E0
1.717317654E0,3.490500152E-1,4.468950272E0,8.830050468E0,9.902683662E0
1.719281161E0,3.490500152E-1,4.468950272E0,8.754000664E0,9.834931625E0
1.721244704E0,3.490500152E-1,4.468950272E0,8.830050468E0,9.902683662E0
1.723208236E0,3.870000243E-1,4.468950272E0,8.791950226E0,9.870140542E0
1.725171821E0,3.870000243E-1,4.468950272E0,8.791950226E0,9.870140542E0
1.727135390E0,3.870000243E-1,4.468950272E0,8.830050468E0,9.904093943E0
1.729098904E0,3.870000243E-1,4.468950272E0,8.791950226E0,9.870140542E0
1.731062449E0,3.490500152E-1,4.468950272E0,8.754000664E0,9.834931625E0
1.733026165E0,3.870000243E-1,4.468950272E0,8.754000664E0,9.836351619E0
1.734989831E0,3.490500152E-1,4.468950272E0,8.791950226E0,9.868725410E0
1.736953168E0,3.870000243E-1,4.431000233E0,8.830050468E0,9.887028035E0
1.738916602E0,4.260000288E-1,4.468950272E0,8.791950226E0,9.871746620E0
1.740880157E0,3.870000243E-1,4.468950272E0,8.830050468E0,9.904093943E0
1.742843677E0,3.870000243E-1,4.431000233E0,8.791950226E0,9.853015825E0
1.744806995E0,4.260000288E-1,4.431000233E0,8.830050468E0,9.888631370E0
1.746770372E0,4.260000288E-1,4.468950272E0,8.869050026E0,9.940474884E0
1.748733802E0,3.870000243E-1,4.468950272E0,8.869050026E0,9.938879912E0
1.750697216E0,3.870000243E-1,4.431000233E0,8.791950226E0,9.853015825E0
1.752660597E0,4.260000288E-1,4.431000233E0,8.830050468E0,9.888631370E0
1.754623987E0,3.870000243E-1,4.392000198E0,8.907000542E0,9.938515654E0
1.756587685E0,3.870000243E-1,4.431000233E0,8.869050026E0,9.921873837E0
1.758551293E0,4.639500082E-1,4.431000233E0,8.907000542E0,9.959099925E0
1.760514821E0,4.260000288E-1,4.392000198E0,8.907000542E0,9.940110684E0
1.762478372E0,3.870000243E-1,4.392000198E0,8.869050026E0,9.904518319E0
1.764442152E0,5.020500422E-1,4.468950272E0,8.907000542E0,9.977887022E0
1.766405851E0,4.260000288E-1,4.431000233E0,8.907000542E0,9.957404167E0
1.768369498E0,5.020500422E-1,4.431000233E0,8.907000542E0,9.960947543E0
1.770333161E0,3.870000243E-1,4.468950272E0,8.907000542E0,9.972760109E0
1.772296678E0,4.639500082E-1,4.431000233E0,8.944950104E0,9.993054840E0
1.774260238E0,4.260000288E-1,4.431000233E0,8.944950104E0,9.991364844E0
1.776223846E0,3.870000243E-1,4.468950272E0,8.944950104E0,1.000666867E1
1.778187419E0,3.870000243E-1,4.468950272E0,8.944950104E0,1.000666867E1
1.780151087E0,4.639500082E-1,4.468950272E0,8.907000542E0,9.976042541E0
1.782114727E0,4.260000288E-1,4.431000233E0,8.869050026E0,9.923471542E0
1.784078114E0,3.870000243E-1,4.468950272E0,8.869050026E0,9.938879912E0
1.786041575E0,4.260000288E-1,4.431000233E0,8.830050468E0,9.888631370E0
1.788004965E0,3.870000243E-1,4.468950272E0,8.907000542E0,9.972760109E0
1.789968363E0,4.260000288E-1,4.468950272E0,8.944950104E0,1.000825284E1
1.791931925E0,4.639500082E-1,4.468950272E0,8.907000542E0,9.976042541E0
1.793895438E0,5.020500422E-1,4.431000233E0,8.944950104E0,9.994896181E0
1.795858802E0,4.260000288E-1,4.468950272E0,8.944950104E0,1.000825284E1
1.797822209E0,3.870000243E-1,4.468950272E0,8.907000542E0,9.972760109E0
1.799785365E0,4.260000288E-1,4.431000233E0,8.907000542E0,9.957404167E0
1.801748594E0,4.260000288E-1,4.431000233E0,8.944950104E0,9.991364844E0
1.803712049E0,4.260000288E-1,4.354050159E0,8.907000542E0,9.923401003E0
1.805675438E0,4.260000288E-1,4.431000233E0,8.944950104E0,9.991364844E0
1.807639183E0,3.870000243E-1,4.392000198E0,8.983950615E0,1.000753733E1
1.809602823E0,3.870000243E-1,4.392000198E0,8.944950104E0,9.972540655E0
1.811566290E0,3.870000243E-1,4.431000233E0,9.022050858E0,1.005887338E1
1.813529815E0,3.870000243E-1,4.392000198E0,8.944950104E0,9.972540655E0
1.815493354E0,3.870000243E-1,4.392000198E0,8.983950615E0,1.000753733E1
1.817456889E0,4.260000288E-1,4.431000233E0,8.944950104E0,9.991364844E0
1.819420114E0,3.490500152E-1,4.431000233E0,8.983950615E0,1.002332119E1
1.821383430E0,3.490500152E-1,4.431000233E0,8.983950615E0,1.002332119E1
1.823346941E0,3.870000243E-1,4.392000198E0,8.983950615E0,1.000753733E1
1.825310409E0,3.490500152E-1,4.431000233E0,8.944950104E0,9.988379815E0
1.827273780E0,3.109500110E-1,4.431000233E0,8.944950104E0,9.987120973E0
1.829237180E0,3.109500110E-1,4.431000233E0,8.983950615E0,1.002206673E1
1.831200427E0,3.109500110E-1,4.507050037E0,9.060000420E0,1.012392204E1
1.833163719E0,2.719500065E-1,4.507050037E0,8.944950104E0,1.001995954E1
1.835127230E0,2.719500065E-1,4.507050037E0,8.944950104E0,1.001995954E1
1.837090693E0,2.719500065E-1,4.468950272E0,8.907000542E0,9.968958420E0
1.839054110E0,2.719500065E-1,4.507050037E0,8.907000542E0,9.986096109E0
1.841017541E0,3.109500110E-1,4.468950272E0,8.907000542E0,9.970098550E0
1.842980917E0,2.719500065E-1,4.507050037E0,8.907000542E0,9.986096109E0
1.844944310E0,2.719500065E-1,4.507050037E0,8.907000542E0,9.986096109E0
1.846907463E0,2.719500065E-1,4.545000076E0,8.907000542E0,1.000328152E1
1.848870690E0,2.719500065E-1,4.507050037E0,8.907000542E0,9.986096109E0
1.850834146E0,2.719500065E-1,4.468950272E0,8.907000542E0,9.968958420E0
1.852797534E0,2.340000123E-1,4.507050037E0,8.869050026E0,9.951296619E0
1.854761098E0,2.340000123E-1,4.507050037E0,8.830050468E0,9.916554206E0
1.856724611E0,2.719500065E-1,4.507050037E0,8.830050468E0,9.917522277E0
1.858687760E0,2.719500065E-1,4.507050037E0,8.830050468E0,9.917522277E0
1.860651040E0,2.719500065E-1,4.507050037E0,8.869050026E0,9.952261311E0
1.862614217E0,2.719500065E-1,4.507050037E0,8.830050468E0,9.917522277E0
1.864577425E0,3.870000243E-1,4.468950272E0,8.869050026E0,9.938879912E0
1.866540658E0,3.490500152E-1,4.545000076E0,8.830050468E0,9.937235676E0
1.868503884E0,3.490500152E-1,4.468950272E0,8.791950226E0,9.868725410E0
1.870467147E0,3.109500110E-1,4.468950272E0,8.869050026E0,9.936209277E0
1.872430409E0,3.109500110E-1,4.468950272E0,8.869050026E0,9.936209277E0
1.874393636E0,3.109500110E-1,4.507050037E0,8.791950226E0,9.884764981E0
1.876356873E0,3.490500152E-1,4.431000233E0,8.830050468E0,9.885615320E0
1.878320102E0,3.490500152E-1,4.507050037E0,8.869050026E0,9.954666459E0
1.880283334E0,3.490500152E-1,4.468950272E0,8.830050468E0,9.902683662E0
1.882246893E0,3.870000243E-1,4.507050037E0,8.869050026E0,9.956069376E0
1.884210346E0,3.490500152E-1,4.507050037E0,8.830050468E0,9.919935848E0
1.886173585E0,3.490500152E-1,4.468950272E0,8.869050026E0,9.937474569E0
1.888136887E0,3.109500110E-1,4.468950272E0,8.830050468E0,9.901413925E0
1.890100464E0,3.109500110E-1,4.507050037E0,8.869050026E0,9.953403353E0
1.892063961E0,3.870000243E-1,4.507050037E0,8.869050026E0,9.956069376E0
1.894027488E0,3.870000243E-1,4.507050037E0,8.830050468E0,9.921343676E0
1.895991019E0,3.109500110E-1,4.507050037E0,8.907000542E0,9.987234282E0
1.897954335E0,3.109500110E-1,4.468950272E0,8.869050026E0,9.936209277E0
1.899917714E0,3.870000243E-1,4.545000076E0,8.869050026E0,9.973306527E0
1.901880964E0,3.490500152E-1,4.507050037E0,8.869050026E0,9.954666459E0
1.903844252E0,3.490500152E-1,4.507050037E0,8.907000542E0,9.988493110E0
1.905807492E0,3.490500152E-1,4.507050037E0,8.907000542E0,9.988493110E0
1.907770733E0,3.490500152E-1,4.507050037E0,8.944950104E0,1.002234844E1
1.909733962E0,2.719500065E-1,4.545000076E0,8.907000542E0,1.000328152E1
1.911697194E0,3.109500110E-1,4.507050037E0,8.907000542E0,9.987234282E0
1.913660425E0,2.719500065E-1,4.545000076E0,8.907000542E0,1.000328152E1
1.915623656E0,3.490500152E-1,4.545000076E0,8.944950104E0,1.003947180E1
1.917586823E0,3.490500152E-1,4.468950272E0,8.907000542E0,9.971359541E0
1.919550054E0,3.870000243E-1,4.507050037E0,8.944950104E0,1.002374189E1
1.921513285E0,3.490500152E-1,4.507050037E0,8.944950104E0,1.002234844E1
1.923476516E0,3.109500110E-1,4.507050037E0,8.944950104E0,1.002109387E1
1.925439881E0,3.490500152E-1,4.507050037E0,8.983950615E0,1.005717180E1
1.927403206E0,3.490500152E-1,4.507050037E0,8.983950615E0,1.005717180E1
1.929366438E0,3.490500152E-1,4.468950272E0,9.022050858E0,1.007426196E1
1.931329686E0,3.490500152E-1,4.507050037E0,8.983950615E0,1.005717180E1
1.933293093E0,3.870000243E-1,4.507050037E0,8.983950615E0,1.005856042E1
1.935256453E0,3.870000243E-1,4.468950272E0,8.983950615E0,1.004154640E1
1.937219708E0,3.870000243E-1,4.507050037E0,8.983950615E0,1.005856042E1
1.939182994E0,4.260000288E-1,4.468950272E0,8.944950104E0,1.000825284E1
1.941146165E0,3.870000243E-1,4.468950272E0,8.944950104E0,1.000666867E1
1.943109373E0,3.870000243E-1,4.507050037E0,8.907000542E0,9.989891276E0
1.945072473E0,3.870000243E-1,4.468950272E0,8.944950104E0,1.000666867E1
1.947035604E0,3.870000243E-1,4.392000198E0,8.944950104E0,9.972540655E0
1.948998986E0,3.490500152E-1,4.468950272E0,8.944950104E0,1.000527285E1
1.950962294E0,4.260000288E-1,4.392000198E0,8.944950104E0,9.974130244E0
1.952925358E0,3.490500152E-1,4.431000233E0,8.983950615E0,1.002332119E1
1.954888507E0,3.870000243E-1,4.431000233E0,8.944950104E0,9.989777998E0
1.956851751E0,3.870000243E-1,4.431000233E0,8.907000542E0,9.955811907E0
1.958814967E0,3.870000243E-1,4.468950272E0,8.869050026E0,9.938879912E0
1.960778516E0,3.870000243E-1,4.392000198E0,8.907000542E0,9.938515654E0
1.962741967E0,4.260000288E-1,4.431000233E0,8.907000542E0,9.957404167E0
1.964705163E0,3.490500152E-1,4.468950272E0,8.869050026E0,9.937474569E0
1.966668464E0,4.260000288E-1,4.468950272E0,8.907000542E0,9.974349663E0
1.968631817E0,3.870000243E-1,4.468950272E0,8.907000542E0,9.972760109E0
1.970595154E0,3.870000243E-1,4.392000198E0,8.907000542E0,9.938515654E0
1.972558368E0,3.870000243E-1,4.392000198E0,8.869050026E0,9.904518319E0
1.974521618E0,3.870000243E-1,4.392000198E0,8.830050468E0,9.869611240E0
1.976485010E0,3.490500152E-1,4.392000198E0,8.830050468E0,9.868196032E0
1.978448371E0,3.870000243E-1,4.431000233E0,8.907000542E0,9.955811907E0
1.980411581E0,3.490500152E-1,4.431000233E0,8.791950226E0,9.851598233E0
1.982374835E0,4.260000288E-1,4.392000198E0,8.830050468E0,9.871217404E0
1.984338241E0,3.870000243E-1,4.392000198E0,8.830050468E0,9.869611240E0
1.986301602E0,4.260000288E-1,4.392000198E0,8.791950226E0,9.837150530E0
1.988264991E0,3.870000243E-1,4.392000198E0,8.830050468E0,9.869611240E0
1.990228371E0,4.260000288E-1,4.468950272E0,8.830050468E0,9.905694515E0
1.992191756E0,4.260000288E-1,4.431000233E0,8.830050468E0,9.888631370E0
1.994155140E0,4.260000288E-1,4.431000233E0,8.791950226E0,9.854624694E0
1.996118525E0,3.870000243E-1,4.431000233E0,8.830050468E0,9.887028035E0
1.998081910E0,4.260000288E-1,4.431000233E0,8.869050026E0,9.923471542E0
2.000045160E0,4.639500082E-1,4.468950272E0,8.830050468E0,9.907399125E0
2.002008450E0,4.260000288E-1,4.431000233E0,8.830050468E0,9.888631370E0
2.003971850E0,4.260000288E-1,4.468950272E0,8.791950226E0,9.871746620E0
2.005935217E0,3.870000243E-1,4.468950272E0,8.830050468E0,9.904093943E0
2.007898785E0,3.870000243E-1,4.431000233E0,8.830050468E0,9.887028035E0
2.009862294E0,4.260000288E-1,4.468950272E0,8.869050026E0,9.940474884E0
2.011825673E0,4.260000288E-1,4.468950272E0,8.791950226E0,9.871746620E0
2.013789080E0,3.870000243E-1,4.468950272E0,8.791950226E0,9.870140542E0
2.015752280E0,3.870000243E-1,4.468950272E0,8.791950226E0,9.870140542E0
2.017715541E0,3.870000243E-1,4.507050037E0,8.830050468E0,9.921343676E0
2.019678946E0,4.260000288E-1,4.507050037E0,8.830050468E0,9.922941466E0
2.021642308E0,3.870000243E-1,4.507050037E0,8.754000664E0,9.853719941E0
2.023605896E0,3.870000243E-1,4.507050037E0,8.869050026E0,9.956069376E0
2.025569404E0,3.870000243E-1,4.507050037E0,8.830050468E0,9.921343676E0
2.027532768E0,3.870000243E-1,4.507050037E0,8.869050026E0,9.956069376E0
2.029496175E0,3.490500152E-1,4.507050037E0,8.869050026E0,9.954666459E0
2.031459556E0,3.490500152E-1,4.545000076E0,8.907000542E0,1.000567440E1
2.033422945E0,3.109500110E-1,4.507050037E0,8.907000542E0,9.987234282E0
2.035386279E0,3.109500110E-1,4.468950272E0,8.907000542E0,9.970098550E0
2.037349632E0,3.490500152E-1,4.507050037E0,8.869050026E0,9.954666459E0
2.039313066E0,3.490500152E-1,4.507050037E0,8.907000542E0,9.988493110E0
2.041276476E0,3.109500110E-1,4.507050037E0,8.907000542E0,9.987234282E0
2.043239857E0,3.109500110E-1,4.507050037E0,8.907000542E0,9.987234282E0
2.045203247E0,3.109500110E-1,4.507050037E0,8.907000542E0,9.987234282E0
2.047166775E0,3.109500110E-1,4.545000076E0,8.869050026E0,9.970645113E0
2.049130255E0,3.109500110E-1,4.507050037E0,8.869050026E0,9.953403353E0
2.051093625E0,3.490500152E-1,4.507050037E0,8.907000542E0,9.988493110E0
2.053057027E0,3.109500110E-1,4.468950272E0,8.907000542E0,9.970098550E0
2.055020588E0,3.109500110E-1,4.431000233E0,8.907000542E0,9.953145815E0
2.056984102E0,3.490500152E-1,4.468950272E0,8.944950104E0,1.000527285E1
2.058947451E0,3.109500110E-1,4.507050037E0,8.869050026E0,9.953403353E0
2.060910859E0,3.109500110E-1,4.507050037E0,8.907000542E0,9.987234282E0
2.062874283E0,3.490500152E-1,4.507050037E0,8.944950104E0,1.002234844E1
2.064837703E0,3.490500152E-1,4.507050037E0,8.907000542E0,9.988493110E0
2.066801037E0,3.870000243E-1,4.468950272E0,8.907000542E0,9.972760109E0
2.068764397E0,3.870000243E-1,4.507050037E0,8.944950104E0,1.002374189E1
2.070727785E0,3.490500152E-1,4.468950272E0,8.944950104E0,1.000527285E1
2.072691165E0,3.109500110E-1,4.468950272E0,8.869050026E0,9.936209277E0
2.074654236E0,3.490500152E-1,4.507050037E0,8.907000542E0,9.988493110E0
2.076617397E0,3.490500152E-1,4.545000076E0,8.944950104E0,1.003947180E1
2.078580235E0,3.109500110E-1,4.468950272E0,8.907000542E0,9.970098550E0
2.080543167E0,3.109500110E-1,4.507050037E0,8.907000542E0,9.987234282E0
2.082505962E0,3.490500152E-1,4.468950272E0,8.944950104E0,1.000527285E1
2.084468791E0,3.490500152E-1,4.468950272E0,8.944950104E0,1.000527285E1
2.086431909E0,3.109500110E-1,4.468950272E0,8.944950104E0,1.000401613E1
2.088394943E0,3.490500152E-1,4.468950272E0,8.944950104E0,1.000527285E1
2.090358343E0,3.109500110E-1,4.507050037E0,8.907000542E0,9.987234282E0
2.092321635E0,3.490500152E-1,4.507050037E0,8.944950104E0,1.002234844E1
2.094284883E0,3.109500110E-1,4.468950272E0,8.944950104E0,1.000401613E1
2.096248157E0,3.490500152E-1,4.468950272E0,8.944950104E0,1.000527285E1
2.098211335E0,3.870000243E-1,4.468950272E0,8.944950104E0,1.000666867E1
2.100174541E0,3.109500110E-1,4.468950272E0,8.983950615E0,1.003890308E1
2.102137596E0,3.490500152E-1,4.468950272E0,8.944950104E0,1.000527285E1
2.104100695E0,3.870000243E-1,4.468950272E0,8.944950104E0,1.000666867E1
2.106063710E0,3.490500152E-1,4.431000233E0,8.944950104E0,9.988379815E0
2.108026695E0,3.870000243E-1,4.468950272E0,8.869050026E0,9.938879912E0
2.109989427E0,3.490500152E-1,4.431000233E0,8.907000542E0,9.954408954E0
2.111952234E0,4.260000288E-1,4.468950272E0,8.907000542E0,9.974349663E0
2.113915356E0,4.260000288E-1,4.468950272E0,8.869050026E0,9.940474884E0
2.115878386E0,4.260000288E-1,4.431000233E0,8.944950104E0,9.991364844E0
2.117841631E0,4.260000288E-1,4.468950272E0,8.907000542E0,9.974349663E0
2.119804827E0,3.490500152E-1,4.507050037E0,8.944950104E0,1.002234844E1
2.121768020E0,4.260000288E-1,4.468950272E0,8.944950104E0,1.000825284E1
2.123731214E0,4.260000288E-1,4.431000233E0,8.869050026E0,9.923471542E0
2.125694090E0,3.490500152E-1,4.468950272E0,8.907000542E0,9.971359541E0
2.127657060E0,3.109500110E-1,4.431000233E0,8.869050026E0,9.919198624E0
2.129620338E0,3.490500152E-1,4.468950272E0,8.907000542E0,9.971359541E0
2.131583523E0,3.870000243E-1,4.468950272E0,8.869050026E0,9.938879912E0
2.133546448E0,3.870000243E-1,4.468950272E0,8.907000542E0,9.972760109E0
2.135509449E0,3.490500152E-1,4.468950272E0,8.907000542E0,9.971359541E0
2.137472537E0,3.870000243E-1,4.431000233E0,8.869050026E0,9.921873837E0
2.139435600E0,4.260000288E-1,4.431000233E0,8.869050026E0,9.923471542E0
2.141399060E0,3.870000243E-1,4.468950272E0,8.869050026E0,9.938879912E0
2.143362390E0,3.490500152E-1,4.468950272E0,8.869050026E0,9.937474569E0
2.145325739E0,3.870000243E-1,4.392000198E0,8.869050026E0,9.904518319E0
2.147289082E0,3.870000243E-1,4.431000233E0,8.869050026E0,9.921873837E0
2.149252339E0,3.870000243E-1,4.507050037E0,8.869050026E0,9.956069376E0
2.151215622E0,3.870000243E-1,4.545000076E0,8.869050026E0,9.973306527E0
2.153179011E0,3.870000243E-1,4.468950272E0,8.830050468E0,9.904093943E0
2.155142346E0,3.870000243E-1,4.468950272E0,8.869050026E0,9.938879912E0
2.157105560E0,4.260000288E-1,4.468950272E0,8.869050026E0,9.940474884E0
2.159068809E0,4.260000288E-1,4.468950272E0,8.830050468E0,9.905694515E0
2.161031902E0,3.870000243E-1,4.507050037E0,8.907000542E0,9.989891276E0
2.162995040E0,3.870000243E-1,4.507050037E0,8.869050026E0,9.956069376E0
2.164958042E0,3.870000243E-1,4.507050037E0,8.907000542E0,9.989891276E0
2.166921098E0,4.260000288E-1,4.468950272E0,8.869050026E0,9.940474884E0
2.168884402E0,4.260000288E-1,4.507050037E0,8.869050026E0,9.957661594E0
2.170847634E0,3.490500152E-1,4.468950272E0,8.869050026E0,9.937474569E0
2.172810685E0,3.870000243E-1,4.468950272E0,8.830050468E0,9.904093943E0
2.174773790E0,4.260000288E-1,4.468950272E0,8.907000542E0,9.974349663E0
2.176736691E0,3.870000243E-1,4.468950272E0,8.791950226E0,9.870140542E0
2.178699645E0,4.260000288E-1,4.468950272E0,8.830050468E0,9.905694515E0
2.180662877E0,4.260000288E-1,4.468950272E0,8.830050468E0,9.905694515E0
2.182626028E0,3.870000243E-1,4.507050037E0,8.869050026E0,9.956069376E0
2.184589138E0,3.870000243E-1,4.507050037E0,8.830050468E0,9.921343676E0
2.186552261E0,4.260000288E-1,4.431000233E0,8.830050468E0,9.888631370E0
2.188515290E0,3.870000243E-1,4.468950272E0,8.830050468E0,9.904093943E0
2.190478343E0,4.639500082E-1,4.507050037E0,8.830050468E0,9.924643113E0
2.192441289E0,3.870000243E-1,4.468950272E0,8.830050468E0,9.904093943E0
2.194404266E0,3.870000243E-1,4.468950272E0,8.830050468E0,9.904093943E0
2.196367539E0,3.870000243E-1,4.468950272E0,8.830050468E0,9.904093943E0
2.198330725E0,4.260000288E-1,4.468950272E0,8.907000542E0,9.974349663E0
2.200293905E0,3.870000243E-1,4.507050037E0,8.869050026E0,9.956069376E0
2.202257096E0,4.639500082E-1,4.507050037E0,8.869050026E0,9.959357309E0
2.204220514E0,4.260000288E-1,4.468950272E0,8.869050026E0,9.940474884E0
2.206183865E0,3.490500152E-1,4.507050037E0,8.907000542E0,9.988493110E0
2.208146896E0,4.260000288E-1,4.468950272E0,8.869050026E0,9.940474884E0
2.210110021E0,3.870000243E-1,4.468950272E0,8.907000542E0,9.972760109E0
2.212073254E0,3.870000243E-1,4.468950272E0,8.869050026E0,9.938879912E0
2.214036466E0,3.870000243E-1,4.468950272E0,8.907000542E0,9.972760109E0
2.215999700E0,3.870000243E-1,4.507050037E0,8.944950104E0,1.002374189E1
2.217962927E0,3.870000243E-1,4.468950272E0,8.944950104E0,1.000666867E1
2.219925799E0,3.490500152E-1,4.507050037E0,8.944950104E0,1.002234844E1
2.221888775E0,3.870000243E-1,4.468950272E0,8.907000542E0,9.972760109E0
2.223852090E0,3.109500110E-1,4.507050037E0,8.869050026E0,9.953403353E0
2.225815308E0,3.490500152E-1,4.545000076E0,8.907000542E0,1.000567440E1
2.227778497E0,3.109500110E-1,4.468950272E0,8.907000542E0,9.970098550E0
2.229741695E0,3.490500152E-1,4.507050037E0,8.944950104E0,1.002234844E1
2.231704616E0,2.719500065E-1,4.507050037E0,8.907000542E0,9.986096109E0
2.233667618E0,3.109500110E-1,4.507050037E0,8.907000542E0,9.987234282E0
2.235630370E0,3.109500110E-1,4.507050037E0,8.907000542E0,9.987234282E0
2.237593179E0,2.719500065E-1,4.507050037E0,8.944950104E0,1.001995954E1
2.239556256E0,3.109500110E-1,4.545000076E0,8.944950104E0,1.003821936E1
2.241519254E0,3.109500110E-1,4.507050037E0,8.944950104E0,1.002109387E1
2.243482525E0,2.719500065E-1,4.545000076E0,8.983950615E0,1.007185937E1
2.245445716E0,3.109500110E-1,4.468950272E0,9.022050858E0,1.007301385E1
2.247408654E0,3.109500110E-1,4.468950272E0,9.022050858E0,1.007301385E1
2.249371656E0,3.109500110E-1,4.507050037E0,8.944950104E0,1.002109387E1
2.251335285E0,3.109500110E-1,4.507050037E0,8.983950615E0,1.005592157E1
2.253298731E0,3.490500152E-1,4.431000233E0,8.983950615E0,1.002332119E1
2.255261926E0,3.109500110E-1,4.468950272E0,8.983950615E0,1.003890308E1
2.257225194E0,3.109500110E-1,4.468950272E0,8.983950615E0,1.003890308E1
2.259188419E0,3.109500110E-1,4.468950272E0,8.983950615E0,1.003890308E1
2.261151656E0,3.109500110E-1,4.507050037E0,8.944950104E0,1.002109387E1
2.263115020E0,2.719500065E-1,4.468950272E0,8.983950615E0,1.003777077E1
2.265078346E0,3.109500110E-1,4.468950272E0,8.944950104E0,1.000401613E1
2.267041606E0,3.109500110E-1,4.431000233E0,8.944950104E0,9.987120973E0
2.269004886E0,3.490500152E-1,4.431000233E0,8.944950104E0,9.988379815E0
2.270968053E0,3.109500110E-1,4.507050037E0,8.983950615E0,1.005592157E1
2.272931261E0,3.490500152E-1,4.468950272E0,8.983950615E0,1.004015543E1
2.274894540E0,3.490500152E-1,4.431000233E0,8.907000542E0,9.954408954E0
2.276857798E0,3.490500152E-1,4.431000233E0,8.944950104E0,9.988379815E0
2.278821519E0,3.490500152E-1,4.431000233E0,8.944950104E0,9.988379815E0
2.280785105E0,3.870000243E-1,4.431000233E0,8.907000542E0,9.955811907E0
2.282748506E0,3.870000243E-1,4.468950272E0,8.944950104E0,1.000666867E1
2.284711958E0,3.109500110E-1,4.507050037E0,8.944950104E0,1.002109387E1
2.286675331E0,3.490500152E-1,4.431000233E0,8.944950104E0,9.988379815E0
2.288638728E0,3.490500152E-1,4.507050037E0,8.907000542E0,9.988493110E0
2.290601885E0,3.109500110E-1,4.468950272E0,8.944950104E0,1.000401613E1
2.292565112E0,3.490500152E-1,4.507050037E0,8.869050026E0,9.954666459E0
2.294528523E0,3.490500152E-1,4.507050037E0,8.944950104E0,1.002234844E1
2.296491880E0,3.109500110E-1,4.468950272E0,8.907000542E0,9.970098550E0
2.298455314E0,4.260000288E-1,4.507050037E0,8.869050026E0,9.957661594E0
2.300418726E0,3.490500152E-1,4.468950272E0,8.869050026E0,9.937474569E0
2.302382241E0,4.260000288E-1,4.431000233E0,8.869050026E0,9.923471542E0
2.304345726E0,3.490500152E-1,4.468950272E0,8.907000542E0,9.971359541E0
2.306309159E0,3.109500110E-1,4.507050037E0,8.869050026E0,9.953403353E0
2.308272594E0,3.490500152E-1,4.468950272E0,8.907000542E0,9.971359541E0
2.310235609E0,3.490500152E-1,4.468950272E0,8.830050468E0,9.902683662E0
2.312198748E0,3.870000243E-1,4.468950272E0,8.869050026E0,9.938879912E0
2.314161993E0,3.490500152E-1,4.468950272E0,8.830050468E0,9.902683662E0
2.316125207E0,3.870000243E-1,4.468950272E0,8.869050026E0,9.938879912E0
2.318088456E0,4.260000288E-1,4.468950272E0,8.830050468E0,9.905694515E0
2.320051684E0,3.870000243E-1,4.468950272E0,8.830050468E0,9.904093943E0
2.322014556E0,3.870000243E-1,4.507050037E0,8.907000542E0,9.989891276E0
2.323977532E0,4.260000288E-1,4.431000233E0,8.791950226E0,9.854624694E0
2.325940761E0,3.870000243E-1,4.431000233E0,8.830050468E0,9.887028035E0
2.327903915E0,4.260000288E-1,4.468950272E0,8.830050468E0,9.905694515E0
2.329867218E0,3.490500152E-1,4.468950272E0,8.869050026E0,9.937474569E0
2.331830467E0,3.870000243E-1,4.468950272E0,8.830050468E0,9.904093943E0
2.333793290E0,3.870000243E-1,4.507050037E0,8.791950226E0,9.887449511E0
2.335756238E0,3.870000243E-1,4.468950272E0,8.830050468E0,9.904093943E0
2.337718841E0,4.260000288E-1,4.507050037E0,8.830050468E0,9.922941466E0
2.339681546E0,4.260000288E-1,4.468950272E0,8.830050468E0,9.905694515E0
2.341644306E0,4.260000288E-1,4.507050037E0,8.830050468E0,9.922941466E0
2.343607063E0,3.870000243E-1,4.468950272E0,8.791950226E0,9.870140542E0
2.345570330E0,3.870000243E-1,4.507050037E0,8.830050468E0,9.921343676E0
2.347533448E0,3.870000243E-1,4.507050037E0,8.791950226E0,9.887449511E0
2.349496698E0,3.490500152E-1,4.507050037E0,8.791950226E0,9.886036856E0
2.351459910E0,3.870000243E-1,4.468950272E0,8.830050468E0,9.904093943E0
2.353422854E0,3.490500152E-1,4.507050037E0,8.830050468E0,9.919935848E0
2.355385859E0,4.260000288E-1,4.507050037E0,8.830050468E0,9.922941466E0
2.357349082E0,4.260000288E-1,4.468950272E0,8.791950226E0,9.871746620E0
2.359312241E0,3.870000243E-1,4.507050037E0,8.791950226E0,9.887449511E0
2.361275350E0,3.870000243E-1,4.507050037E0,8.869050026E0,9.956069376E0
2.363238474E0,4.260000288E-1,4.507050037E0,8.869050026E0,9.957661594E0
2.365201548E0,3.870000243E-1,4.468950272E0,8.869050026E0,9.938879912E0
2.367164633E0,3.870000243E-1,4.507050037E0,8.907000542E0,9.989891276E0
2.369127663E0,4.639500082E-1,4.507050037E0,8.907000542E0,9.993168081E0
2.371090710E0,4.260000288E-1,4.468950272E0,8.907000542E0,9.974349663E0
2.373053791E0,4.260000288E-1,4.507050037E0,8.869050026E0,9.957661594E0
2.375016862E0,4.260000288E-1,4.468950272E0,8.869050026E0,9.940474884E0
2.376979801E0,4.260000288E-1,4.468950272E0,8.907000542E0,9.974349663E0
2.378942782E0,4.260000288E-1,4.507050037E0,8.907000542E0,9.991478105E0
2.380906054E0,4.260000288E-1,4.468950272E0,8.907000542E0,9.974349663E0
2.382869241E0,4.260000288E-1,4.431000233E0,8.869050026E0,9.923471542E0
2.384832435E0,4.639500082E-1,4.507050037E0,8.907000542E0,9.993168081E0
2.386795626E0,4.639500082E-1,4.468950272E0,8.944950104E0,1.000993998E1
2.388758739E0,3.870000243E-1,4.468950272E0,8.869050026E0,9.938879912E0
2.390721868E0,4.260000288E-1,4.468950272E0,8.869050026E0,9.940474884E0
2.392685115E0,4.260000288E-1,4.431000233E0,8.830050468E0,9.888631370E0
2.394648327E0,4.260000288E-1,4.468950272E0,8.830050468E0,9.905694515E0
2.396611337E0,4.260000288E-1,4.468950272E0,8.869050026E0,9.940474884E0
2.398574406E0,4.260000288E-1,4.468950272E0,8.830050468E0,9.905694515E0
2.400537373E0,3.870000243E-1,4.468950272E0,8.907000542E0,9.972760109E0
2.402500353E0,3.490500152E-1,4.507050037E0,8.869050026E0,9.954666459E0
2.404463761E0,4.260000288E-1,4.468950272E0,8.869050026E0,9.940474884E0
2.406427044E0,4.260000288E-1,4.468950272E0,8.869050026E0,9.940474884E0
2.408389951E0,4.260000288E-1,4.507050037E0,8.907000542E0,9.991478105E0
2.410352969E0,4.639500082E-1,4.507050037E0,8.869050026E0,9.959357309E0
2.412316025E0,3.870000243E-1,4.468950272E0,8.869050026E0,9.938879912E0
2.414279059E0,4.260000288E-1,4.507050037E0,8.907000542E0,9.991478105E0
2.416241964E0,3.870000243E-1,4.468950272E0,8.907000542E0,9.972760109E0
2.418204907E0,3.870000243E-1,4.507050037E0,8.869050026E0,9.956069376E0
2.420168051E0,3.870000243E-1,4.431000233E0,8.830050468E0,9.887028035E0
2.422131136E0,4.260000288E-1,4.468950272E0,8.869050026E0,9.940474884E0
2.424094541E0,3.870000243E-1,4.431000233E0,8.907000542E0,9.955811907E0
2.426057842E0,4.260000288E-1,4.507050037E0,8.830050468E0,9.922941466E0
2.428020927E0,4.260000288E-1,4.507050037E0,8.869050026E0,9.957661594E0
2.429984075E0,4.260000288E-1,4.468950272E0,8.869050026E0,9.940474884E0
2.431947140E0,4.260000288E-1,4.431000233E0,8.830050468E0,9.888631370E0
2.433910229E0,4.260000288E-1,4.431000233E0,8.830050468E0,9.888631370E0
2.435873604E0,4.260000288E-1,4.431000233E0,8.869050026E0,9.923471542E0
2.437836905E0,4.260000288E-1,4.431000233E0,8.869050026E0,9.923471542E0
2.439800304E0,3.870000243E-1,4.468950272E0,8.869050026E0,9.938879912E0
2.441763674E0,4.260000288E-1,4.431000233E0,8.869050026E0,9.923471542E0
2.443727061E0,3.870000243E-1,4.431000233E0,8.869050026E0,9.921873837E0
2.445690443E0,3.870000243E-1,4.468950272E0,8.869050026E0,9.938879912E0
2.447653309E0,3.870000243E-1,4.507050037E0,8.869050026E0,9.956069376E0
2.449616344E0,4.260000288E-1,4.468950272E0,8.869050026E0,9.940474884E0
2.451579608E0,3.870000243E-1,4.507050037E0,8.907000542E0,9.989891276E0
2.453542804E0,3.870000243E-1,4.507050037E0,8.907000542E0,9.989891276E0
2.455505997E0,3.870000243E-1,4.468950272E0,8.907000542E0,9.972760109E0
2.457469191E0,4.260000288E-1,4.507050037E0,8.907000542E0,9.991478105E0
2.459431932E0,3.870000243E-1,4.468950272E0,8.907000542E0,9.972760109E0
2.461394806E0,3.490500152E-1,4.507050037E0,8.907000542E0,9.988493110E0
2.463358052E0,3.490500152E-1,4.545000076E0,8.907000542E0,1.000567440E1
2.465321189E0,3.109500110E-1,4.468950272E0,8.907000542E0,9.970098550E0
2.467284481E0,3.870000243E-1,4.507050037E0,8.907000542E0,9.989891276E0
2.469247727E0,3.109500110E-1,4.468950272E0,8.944950104E0,1.000401613E1
2.471210942E0,3.490500152E-1,4.507050037E0,8.944950104E0,1.002234844E1
2.473174176E0,3.490500152E-1,4.507050037E0,8.944950104E0,1.002234844E1
2.475137181E0,3.870000243E-1,4.468950272E0,8.944950104E0,1.000666867E1
2.477100253E0,3.870000243E-1,4.468950272E0,8.907000542E0,9.972760109E0
2.479063690E0,4.260000288E-1,4.507050037E0,8.944950104E0,1.002532336E1
2.481027020E0,3.870000243E-1,4.468950272E0,8.907000542E0,9.972760109E0
2.482990235E0,3.870000243E-1,4.468950272E0,8.869050026E0,9.938879912E0
2.484953483E0,3.490500152E-1,4.507050037E0,8.944950104E0,1.002234844E1
2.486916531E0,3.870000243E-1,4.507050037E0,8.907000542E0,9.989891276E0
2.488879637E0,4.260000288E-1,4.468950272E0,8.944950104E0,1.000825284E1
2.490842753E0,3.490500152E-1,4.468950272E0,8.907000542E0,9.971359541E0
2.492805866E0,3.490500152E-1,4.468950272E0,8.907000542E0,9.971359541E0
2.494769117E0,4.260000288E-1,4.468950272E0,8.907000542E0,9.974349663E0
2.496732328E0,3.870000243E-1,4.431000233E0,8.907000542E0,9.955811907E0
2.498695697E0,3.490500152E-1,4.507050037E0,8.907000542E0,9.988493110E0
2.500659020E0,3.490500152E-1,4.507050037E0,8.944950104E0,1.002234844E1
2.502622281E0,3.490500152E-1,4.507050037E0,8.944950104E0,1.002234844E1
2.504585560E0,3.870000243E-1,4.468950272E0,8.944950104E0,1.000666867E1
2.506548902E0,3.870000243E-1,4.468950272E0,8.983950615E0,1.004154640E1
2.508512236E0,3.490500152E-1,4.507050037E0,8.983950615E0,1.005717180E1
2.510475135E0,3.870000243E-1,4.468950272E0,8.983950615E0,1.004154640E1
2.512438161E0,4.260000288E-1,4.468950272E0,8.944950104E0,1.000825284E1
2.514401021E0,3.870000243E-1,4.468950272E0,8.944950104E0,1.000666867E1
2.516363930E0,3.490500152E-1,4.468950272E0,8.944950104E0,1.000527285E1
2.518327016E0,3.870000243E-1,4.468950272E0,8.983950615E0,1.004154640E1
2.520290063E0,3.870000243E-1,4.431000233E0,8.944950104E0,9.989777998E0
2.522253145E0,3.870000243E-1,4.468950272E0,8.983950615E0,1.004154640E1
2.524216217E0,4.260000288E-1,4.468950272E0,8.983950615E0,1.004312507E1
2.526179340E0,3.870000243E-1,4.468950272E0,8.907000542E0,9.972760109E0
2.528142448E0,3.870000243E-1,4.507050037E0,8.983950615E0,1.005856042E1
2.530105654E0,3.870000243E-1,4.468950272E0,8.944950104E0,1.000666867E1
2.532068832E0,3.870000243E-1,4.468950272E0,8.983950615E0,1.004154640E1
2.534032252E0,3.870000243E-1,4.468950272E0,8.983950615E0,1.004154640E1
2.535995601E0,4.260000288E-1,4.468950272E0,8.944950104E0,1.000825284E1
2.537958678E0,4.260000288E-1,4.431000233E0,8.944950104E0,9.991364844E0
2.539921834E0,4.260000288E-1,4.468950272E0,8.944950104E0,1.000825284E1
2.541884868E0,4.260000288E-1,4.468950272E0,8.907000542E0,9.974349663E0
2.543847959E0,3.490500152E-1,4.468950272E0,8.869050026E0,9.937474569E0
2.545810988E0,3.870000243E-1,4.507050037E0,8.907000542E0,9.989891276E0
2.547774036E0,4.639500082E-1,4.468950272E0,8.907000542E0,9.976042541E0
2.549737117E0,4.260000288E-1,4.507050037E0,8.907000542E0,9.991478105E0
2.551700188E0,3.870000243E-1,4.468950272E0,8.944950104E0,1.000666867E1
2.553663311E0,4.260000288E-1,4.431000233E0,8.869050026E0,9.923471542E0
2.555626419E0,3.870000243E-1,4.431000233E0,8.869050026E0,9.921873837E0
2.557589491E0,3.870000243E-1,4.507050037E0,8.830050468E0,9.921343676E0
2.559552574E0,3.870000243E-1,4.507050037E0,8.869050026E0,9.956069376E0
2.561515965E0,4.260000288E-1,4.468950272E0,8.869050026E0,9.940474884E0
2.563479265E0,4.260000288E-1,4.507050037E0,8.907000542E0,9.991478105E0
2.565442346E0,4.260000288E-1,4.507050037E0,8.869050026E0,9.957661594E0
2.567405494E0,3.870000243E-1,4.507050037E0,8.907000542E0,9.989891276E0
2.569368333E0,3.870000243E-1,4.507050037E0,8.869050026E0,9.956069376E0
2.571331263E0,3.870000243E-1,4.507050037E0,8.907000542E0,9.989891276E0
2.573294185E0,3.870000243E-1,4.507050037E0,8.830050468E0,9.921343676E0
2.575257109E0,4.639500082E-1,4.468950272E0,8.944950104E0,1.000993998E1
2.577220061E0,4.260000288E-1,4.468950272E0,8.907000542E0,9.974349663E0
2.579183015E0,4.260000288E-1,4.507050037E0,8.907000542E0,9.991478105E0
2.581146068E0,4.639500082E-1,4.507050037E0,8.830050468E0,9.924643113E0
2.583109092E0,4.260000288E-1,4.507050037E0,8.907000542E0,9.991478105E0
2.585072359E0,4.260000288E-1,4.507050037E0,8.830050468E0,9.922941466E0
2.587035554E0,4.639500082E-1,4.507050037E0,8.869050026E0,9.959357309E0
2.588998762E0,4.639500082E-1,4.468950272E0,8.869050026E0,9.942173530E0
2.590961986E0,4.639500082E-1,4.468950272E0,8.907000542E0,9.976042541E0
2.592924904E0,5.020500422E-1,4.468950272E0,8.869050026E0,9.944024293E0
2.594887911E0,5.020500422E-1,4.468950272E0,8.791950226E0,9.875320731E0
2.596850999E0,5.410500169E-1,4.507050037E0,8.830050468E0,9.928546038E0
2.598814063E0,5.020500422E-1,4.507050037E0,8.830050468E0,9.926497144E0
2.600777323E0,4.639500082E-1,4.507050037E0,8.715000153E0,9.822422171E0
2.602740525E0,4.639500082E-1,4.468950272E0,8.754000664E0,9.839679556E0
2.604703941E0,4.260000288E-1,4.507050037E0,8.791950226E0,9.889052778E0
2.606667294E0,4.260000288E-1,4.507050037E0,8.791950226E0,9.889052778E0
2.608630280E0,4.639500082E-1,4.468950272E0,8.791950226E0,9.873457090E0
2.610593373E0,3.870000243E-1,4.468950272E0,8.754000664E0,9.836351619E0
2.612556482E0,4.639500082E-1,4.507050037E0,8.754000664E0,9.857042014E0
2.614519593E0,4.260000288E-1,4.468950272E0,8.715000153E0,9.803275994E0
2.616482844E0,3.870000243E-1,4.468950272E0,8.754000664E0,9.836351619E0
2.618446054E0,4.260000288E-1,4.507050037E0,8.754000664E0,9.855328695E0
2.620409289E0,4.260000288E-1,4.468950272E0,8.754000664E0,9.837963213E0
2.622372516E0,3.870000243E-1,4.468950272E0,8.830050468E0,9.904093943E0
2.624335742E0,4.260000288E-1,4.468950272E0,8.830050468E0,9.905694515E0
2.626298972E0,3.870000243E-1,4.431000233E0,8.791950226E0,9.853015825E0
2.628262159E0,4.639500082E-1,4.507050037E0,8.791950226E0,9.890760255E0
2.630225359E0,4.639500082E-1,4.468950272E0,8.791950226E0,9.873457090E0
2.632188774E0,5.020500422E-1,4.431000233E0,8.791950226E0,9.858205013E0
2.634152126E0,5.020500422E-1,4.392000198E0,8.830050468E0,9.874791707E0
2.636115176E0,5.020500422E-1,4.431000233E0,8.869050026E0,9.927027031E0
2.638078301E0,4.639500082E-1,4.468950272E0,8.869050026E0,9.942173530E0
2.640041370E0,4.639500082E-1,4.431000233E0,8.869050026E0,9.925173098E0
2.642004455E0,5.020500422E-1,4.431000233E0,8.869050026E0,9.927027031E0
2.643967575E0,5.020500422E-1,4.431000233E0,8.869050026E0,9.927027031E0
2.645930684E0,5.020500422E-1,4.431000233E0,8.907000542E0,9.960947543E0
2.647894145E0,5.020500422E-1,4.431000233E0,8.907000542E0,9.960947543E0
2.649857482E0,5.020500422E-1,4.431000233E0,8.907000542E0,9.960947543E0
2.651820695E0,4.260000288E-1,4.431000233E0,8.869050026E0,9.923471542E0
2.653783945E0,4.260000288E-1,4.431000233E0,8.869050026E0,9.923471542E0
2.655747128E0,4.260000288E-1,4.431000233E0,8.944950104E0,9.991364844E0
2.657710330E0,3.870000243E-1,4.431000233E0,8.869050026E0,9.921873837E0
2.659673205E0,3.870000243E-1,4.431000233E0,8.944950104E0,9.989777998E0
2.661636176E0,4.260000288E-1,4.468950272E0,8.944950104E0,1.000825284E1
2.663599270E0,3.870000243E-1,4.468950272E0,8.944950104E0,1.000666867E1
2.665562328E0,3.490500152E-1,4.468950272E0,8.869050026E0,9.937474569E0
2.667525274E0,3.870000243E-1,4.468950272E0,8.907000542E0,9.972760109E0
2.669488253E0,3.490500152E-1,4.468950272E0,8.907000542E0,9.971359541E0
2.671451336E0,3.109500110E-1,4.507050037E0,8.907000542E0,9.987234282E0
2.673414395E0,3.109500110E-1,4.507050037E0,8.907000542E0,9.987234282E0
2.675377655E0,3.109500110E-1,4.468950272E0,8.907000542E0,9.970098550E0
2.677340856E0,3.109500110E-1,4.545000076E0,8.907000542E0,1.000441774E1
2.679303868E0,3.109500110E-1,4.507050037E0,8.944950104E0,1.002109387E1
2.681266935E0,3.109500110E-1,4.507050037E0,8.830050468E0,9.918668319E0
2.683230188E0,3.109500110E-1,4.468950272E0,8.869050026E0,9.936209277E0
2.685193390E0,3.109500110E-1,4.507050037E0,8.907000542E0,9.987234282E0
2.687156671E0,3.109500110E-1,4.507050037E0,8.907000542E0,9.987234282E0
2.689119928E0,3.490500152E-1,4.431000233E0,8.869050026E0,9.920466085E0
2.691082930E0,4.260000288E-1,4.545000076E0,8.869050026E0,9.974895993E0
2.693046007E0,3.870000243E-1,4.507050037E0,8.907000542E0,9.989891276E0
2.695008734E0,3.490500152E-1,4.468950272E0,8.869050026E0,9.937474569E0
2.696971556E0,3.490500152E-1,4.468950272E0,8.830050468E0,9.902683662E0
2.698934540E0,3.870000243E-1,4.468950272E0,8.869050026E0,9.938879912E0
2.700897477E0,4.639500082E-1,4.468950272E0,8.869050026E0,9.942173530E0
2.702860218E0,4.639500082E-1,4.468950272E0,8.907000542E0,9.976042541E0
2.704823017E0,3.870000243E-1,4.468950272E0,8.869050026E0,9.938879912E0
2.706785960E0,3.490500152E-1,4.431000233E0,8.907000542E0,9.954408954E0
2.708748861E0,3.870000243E-1,4.468950272E0,8.869050026E0,9.938879912E0
2.710711744E0,4.260000288E-1,4.468950272E0,8.907000542E0,9.974349663E0
2.712674633E0,3.870000243E-1,4.431000233E0,8.869050026E0,9.921873837E0
2.714637561E0,4.260000288E-1,4.507050037E0,8.869050026E0,9.957661594E0
2.716600477E0,3.870000243E-1,4.468950272E0,8.907000542E0,9.972760109E0
2.718563291E0,4.639500082E-1,4.507050037E0,8.907000542E0,9.993168081E0
2.720526118E0,5.020500422E-1,4.468950272E0,8.907000542E0,9.977887022E0
2.722489553E0,4.639500082E-1,4.468950272E0,8.907000542E0,9.976042541E0
2.724452809E0,4.639500082E-1,4.468950272E0,8.944950104E0,1.000993998E1
2.726415541E0,4.639500082E-1,4.507050037E0,8.907000542E0,9.993168081E0
2.728378426E0,4.639500082E-1,4.507050037E0,8.944950104E0,1.002700763E1
2.730341699E0,4.260000288E-1,4.545000076E0,8.944950104E0,1.004244164E1
2.732304838E0,3.870000243E-1,4.545000076E0,8.869050026E0,9.973306527E0
2.734268084E0,3.870000243E-1,4.584000111E0,8.907000542E0,1.002484337E1
2.736231299E0,3.490500152E-1,4.545000076E0,8.869050026E0,9.971906035E0
2.738194758E0,3.490500152E-1,4.545000076E0,8.907000542E0,1.000567440E1
2.740158145E0,3.870000243E-1,4.507050037E0,8.907000542E0,9.989891276E0
2.742121290E0,3.870000243E-1,4.545000076E0,8.907000542E0,1.000707017E1
2.744084517E0,3.870000243E-1,4.545000076E0,8.907000542E0,1.000707017E1
2.746047748E0,3.870000243E-1,4.545000076E0,8.944950104E0,1.004086286E1
2.748010977E0,3.490500152E-1,4.507050037E0,8.944950104E0,1.002234844E1
2.749974074E0,3.870000243E-1,4.545000076E0,8.944950104E0,1.004086286E1
2.751937209E0,3.490500152E-1,4.584000111E0,8.869050026E0,9.989741803E0
2.753900420E0,3.870000243E-1,4.545000076E0,8.944950104E0,1.004086286E1
2.755863602E0,3.490500152E-1,4.545000076E0,8.983950615E0,1.007423596E1
2.757826707E0,3.870000243E-1,4.545000076E0,8.944950104E0,1.004086286E1
2.759789835E0,3.870000243E-1,4.545000076E0,8.983950615E0,1.007562223E1
2.761753037E0,3.490500152E-1,4.507050037E0,8.983950615E0,1.005717180E1
2.763716217E0,3.490500152E-1,4.507050037E0,8.983950615E0,1.005717180E1
2.765679272E0,3.109500110E-1,4.545000076E0,9.022050858E0,1.010698359E1
2.767642368E0,3.490500152E-1,4.468950272E0,9.022050858E0,1.007426196E1
2.769605442E0,3.490500152E-1,4.507050037E0,9.022050858E0,1.009122082E1
2.771568522E0,3.490500152E-1,4.507050037E0,9.060000420E0,1.012516388E1
2.773531778E0,3.870000243E-1,4.507050037E0,9.060000420E0,1.012654317E1
2.775494982E0,3.870000243E-1,4.468950272E0,9.022050858E0,1.007564823E1
2.777458262E0,4.260000288E-1,4.468950272E0,9.022050858E0,1.007722155E1
2.779421520E0,3.870000243E-1,4.431000233E0,9.022050858E0,1.005887338E1
2.781384881E0,3.490500152E-1,4.468950272E0,8.983950615E0,1.004015543E1
2.783348212E0,3.870000243E-1,4.468950272E0,8.983950615E0,1.004154640E1
2.785311606E0,3.870000243E-1,4.468950272E0,8.983950615E0,1.004154640E1
2.787274982E0,3.490500152E-1,4.431000233E0,8.983950615E0,1.002332119E1
2.789238048E0,4.260000288E-1,4.468950272E0,9.022050858E0,1.007722155E1
2.791201209E0,3.870000243E-1,4.431000233E0,8.944950104E0,9.989777998E0
2.793164586E0,4.260000288E-1,4.431000233E0,8.944950104E0,9.991364844E0
2.795127900E0,4.260000288E-1,4.392000198E0,8.983950615E0,1.000912136E1
2.797090982E0,4.260000288E-1,4.431000233E0,8.944950104E0,9.991364844E0
2.799054132E0,3.870000243E-1,4.392000198E0,8.907000542E0,9.938515654E0
2.801017312E0,4.260000288E-1,4.431000233E0,8.907000542E0,9.957404167E0
2.802980496E0,3.870000243E-1,4.392000198E0,8.907000542E0,9.938515654E0
2.804943601E0,4.260000288E-1,4.354050159E0,8.907000542E0,9.923401003E0
2.806906729E0,4.260000288E-1,4.431000233E0,8.907000542E0,9.957404167E0
2.808869931E0,4.260000288E-1,4.392000198E0,8.869050026E0,9.906118823E0
2.810833112E0,4.639500082E-1,4.392000198E0,8.869050026E0,9.907823359E0
2.812796172E0,4.639500082E-1,4.392000198E0,8.907000542E0,9.941809393E0
2.814759267E0,4.639500082E-1,4.431000233E0,8.944950104E0,9.993054840E0
2.816722701E0,4.639500082E-1,4.392000198E0,8.907000542E0,9.941809393E0
2.818686035E0,4.639500082E-1,4.392000198E0,8.907000542E0,9.941809393E0
2.820649428E0,5.020500422E-1,4.431000233E0,8.944950104E0,9.994896181E0
2.822612804E0,4.639500082E-1,4.392000198E0,8.869050026E0,9.907823359E0
2.824576016E0,4.260000288E-1,4.392000198E0,8.869050026E0,9.906118823E0
2.826539272E0,4.260000288E-1,4.354050159E0,8.869050026E0,9.889351707E0
2.828502138E0,4.639500082E-1,4.392000198E0,8.830050468E0,9.872927966E0
2.830465119E0,4.639500082E-1,4.431000233E0,8.830050468E0,9.890338920E0
2.832428077E0,4.639500082E-1,4.392000198E0,8.830050468E0,9.872927966E0
2.834391042E0,4.260000288E-1,4.431000233E0,8.869050026E0,9.923471542E0
2.836354427E0,4.639500082E-1,4.392000198E0,8.791950226E0,9.838867014E0
2.838317707E0,4.639500082E-1,4.392000198E0,8.830050468E0,9.872927966E0
2.840280975E0,4.639500082E-1,4.468950272E0,8.791950226E0,9.873457090E0
2.842244247E0,5.020500422E-1,4.431000233E0,8.830050468E0,9.892199380E0
2.844207290E0,5.410500169E-1,4.468950272E0,8.791950226E0,9.877380241E0
2.846170401E0,5.020500422E-1,4.468950272E0,8.791950226E0,9.875320731E0
2.848133437E0,3.870000243E-1,4.431000233E0,8.830050468E0,9.887028035E0
2.850096488E0,5.020500422E-1,4.468950272E0,8.830050468E0,9.909256382E0
2.852059974E0,5.020500422E-1,4.507050037E0,8.869050026E0,9.961204879E0
2.854023332E0,4.639500082E-1,4.468950272E0,8.791950226E0,9.873457090E0
2.855986722E0,4.639500082E-1,4.468950272E0,8.791950226E0,9.873457090E0
2.857950102E0,5.020500422E-1,4.468950272E0,8.830050468E0,9.909256382E0
2.859913637E0,5.020500422E-1,4.431000233E0,8.869050026E0,9.927027031E0
2.861877116E0,4.639500082E-1,4.507050037E0,8.830050468E0,9.924643113E0
2.863840350E0,4.260000288E-1,4.507050037E0,8.830050468E0,9.922941466E0
2.865803656E0,4.260000288E-1,4.507050037E0,8.869050026E0,9.957661594E0
2.867766694E0,4.260000288E-1,4.507050037E0,8.869050026E0,9.957661594E0
2.869729810E0,4.639500082E-1,4.507050037E0,8.830050468E0,9.924643113E0
2.871693194E0,4.639500082E-1,4.507050037E0,8.869050026E0,9.959357309E0
2.873656500E0,4.639500082E-1,4.545000076E0,8.830050468E0,9.941934750E0
2.875619899E0,5.020500422E-1,4.507050037E0,8.869050026E0,9.961204879E0
2.877583270E0,4.639500082E-1,4.545000076E0,8.907000542E0,1.001034135E1
2.879546342E0,4.260000288E-1,4.545000076E0,8.869050026E0,9.974895993E0
2.881509502E0,4.260000288E-1,4.545000076E0,8.830050468E0,9.940236063E0
2.883472730E0,3.870000243E-1,4.507050037E0,8.830050468E0,9.921343676E0
2.885435948E0,4.260000288E-1,4.545000076E0,8.869050026E0,9.974895993E0
2.887399316E0,4.260000288E-1,4.468950272E0,8.907000542E0,9.974349663E0
2.889362640E0,3.870000243E-1,4.584000111E0,8.907000542E0,1.002484337E1
2.891325901E0,3.870000243E-1,4.507050037E0,8.869050026E0,9.956069376E0
2.893289181E0,3.490500152E-1,4.545000076E0,8.830050468E0,9.937235676E0
2.895252422E0,3.870000243E-1,4.545000076E0,8.907000542E0,1.000707017E1
2.897215661E0,3.870000243E-1,4.507050037E0,8.944950104E0,1.002374189E1
2.899178710E0,4.260000288E-1,4.545000076E0,8.907000542E0,1.000865427E1
2.901141815E0,3.870000243E-1,4.545000076E0,8.830050468E0,9.938641053E0
2.903104842E0,3.109500110E-1,4.545000076E0,8.907000542E0,1.000441774E1
2.905067892E0,3.870000243E-1,4.507050037E0,8.907000542E0,9.989891276E0
2.907030935E0,3.490500152E-1,4.545000076E0,8.907000542E0,1.000567440E1
2.908994006E0,3.490500152E-1,4.507050037E0,8.869050026E0,9.954666459E0
2.910957129E0,3.490500152E-1,4.507050037E0,8.907000542E0,9.988493110E0
2.912920237E0,3.490500152E-1,4.507050037E0,8.907000542E0,9.988493110E0
2.914883489E0,3.870000243E-1,4.507050037E0,8.907000542E0,9.989891276E0
2.916846698E0,3.490500152E-1,4.507050037E0,8.869050026E0,9.954666459E0
2.918810098E0,4.260000288E-1,4.545000076E0,8.907000542E0,1.000865427E1
2.920773452E0,3.870000243E-1,4.507050037E0,8.944950104E0,1.002374189E1
2.922736663E0,3.490500152E-1,4.507050037E0,8.907000542E0,9.988493110E0
2.924699916E0,4.260000288E-1,4.507050037E0,8.907000542E0,9.991478105E0
2.926663143E0,3.490500152E-1,4.507050037E0,8.944950104E0,1.002234844E1
2.928626377E0,3.870000243E-1,4.507050037E0,8.944950104E0,1.002374189E1
2.930589773E0,3.870000243E-1,4.468950272E0,8.944950104E0,1.000666867E1
2.932553131E0,3.490500152E-1,4.468950272E0,8.983950615E0,1.004015543E1
2.934516520E0,3.870000243E-1,4.507050037E0,8.907000542E0,9.989891276E0
2.936479900E0,3.490500152E-1,4.507050037E0,8.907000542E0,9.988493110E0
2.938443421E0,3.870000243E-1,4.468950272E0,8.869050026E0,9.938879912E0
2.940406900E0,3.870000243E-1,4.507050037E0,8.907000542E0,9.989891276E0
2.942369949E0,3.870000243E-1,4.507050037E0,8.907000542E0,9.989891276E0
2.944333128E0,3.490500152E-1,4.468950272E0,8.944950104E0,1.000527285E1
2.946296547E0,3.490500152E-1,4.468950272E0,8.907000542E0,9.971359541E0
2.948259895E0,3.490500152E-1,4.468950272E0,8.907000542E0,9.971359541E0
2.950223421E0,3.870000243E-1,4.468950272E0,8.907000542E0,9.972760109E0
2.952186895E0,3.870000243E-1,4.468950272E0,8.907000542E0,9.972760109E0
2.954149960E0,3.870000243E-1,4.431000233E0,8.869050026E0,9.921873837E0
2.956113138E0,3.870000243E-1,4.468950272E0,8.907000542E0,9.972760109E0
2.958076557E0,3.870000243E-1,4.431000233E0,8.907000542E0,9.955811907E0
2.960039905E0,3.490500152E-1,4.431000233E0,8.830050468E0,9.885615320E0
2.962003612E0,3.870000243E-1,4.468950272E0,8.830050468E0,9.904093943E0
2.963967213E0,4.260000288E-1,4.468950272E0,8.869050026E0,9.940474884E0
2.965930756E0,4.260000288E-1,4.507050037E0,8.830050468E0,9.922941466E0
2.967894306E0,4.260000288E-1,4.431000233E0,8.830050468E0,9.888631370E0
2.969857346E0,4.639500082E-1,4.468950272E0,8.907000542E0,9.976042541E0
2.971820536E0,4.260000288E-1,4.468950272E0,8.869050026E0,9.940474884E0
2.973783773E0,3.870000243E-1,4.468950272E0,8.830050468E0,9.904093943E0
2.975746996E0,4.639500082E-1,4.431000233E0,8.869050026E0,9.925173098E0
2.977710408E0,4.260000288E-1,4.468950272E0,8.869050026E0,9.940474884E0
2.979673765E0,4.260000288E-1,4.468950272E0,8.907000542E0,9.974349663E0
2.981637154E0,4.260000288E-1,4.507050037E0,8.791950226E0,9.889052778E0
2.983600534E0,3.870000243E-1,4.431000233E0,8.869050026E0,9.921873837E0
2.985563920E0,4.260000288E-1,4.468950272E0,8.869050026E0,9.940474884E0
2.987527304E0,4.260000288E-1,4.507050037E0,8.791950226E0,9.889052778E0
2.989490669E0,5.020500422E-1,4.468950272E0,8.830050468E0,9.909256382E0
2.991454022E0,5.020500422E-1,4.468950272E0,8.869050026E0,9.944024293E0
2.993417456E0,4.260000288E-1,4.468950272E0,8.830050468E0,9.905694515E0
2.995380866E0,4.260000288E-1,4.468950272E0,8.830050468E0,9.905694515E0
2.997343842E0,4.639500082E-1,4.468950272E0,8.830050468E0,9.907399125E0
2.999306945E0,4.260000288E-1,4.468950272E0,8.830050468E0,9.905694515E0
3.001270382E0,4.260000288E-1,4.468950272E0,8.830050468E0,9.905694515E0
3.003233717E0,4.639500082E-1,4.468950272E0,8.791950226E0,9.873457090E0
3.005196751E0,4.639500082E-1,4.468950272E0,8.907000542E0,9.976042541E0
3.007159873E0,4.639500082E-1,4.468950272E0,8.869050026E0,9.942173530E0
3.009122987E0,4.639500082E-1,4.468950272E0,8.907000542E0,9.976042541E0
3.011086104E0,4.639500082E-1,4.468950272E0,8.907000542E0,9.976042541E0
3.013049513E0,4.639500082E-1,4.468950272E0,8.907000542E0,9.976042541E0
3.015012851E0,4.260000288E-1,4.507050037E0,8.869050026E0,9.957661594E0
3.016976065E0,4.639500082E-1,4.468950272E0,8.944950104E0,1.000993998E1
3.018939315E0,4.639500082E-1,4.507050037E0,8.907000542E0,9.993168081E0
3.020902542E0,4.639500082E-1,4.507050037E0,8.907000542E0,9.993168081E0
3.022865776E0,4.639500082E-1,4.468950272E0,8.944950104E0,1.000993998E1
3.024829161E0,3.870000243E-1,4.507050037E0,8.944950104E0,1.002374189E1
3.026792487E0,4.260000288E-1,4.507050037E0,8.907000542E0,9.991478105E0
3.028755882E0,3.870000243E-1,4.468950272E0,8.944950104E0,1.000666867E1
3.030719256E0,3.870000243E-1,4.507050037E0,8.944950104E0,1.002374189E1
3.032682463E0,3.870000243E-1,4.507050037E0,8.907000542E0,9.989891276E0
3.034645719E0,4.260000288E-1,4.507050037E0,8.907000542E0,9.991478105E0
3.036609309E0,3.490500152E-1,4.507050037E0,8.907000542E0,9.988493110E0
3.038572798E0,3.870000243E-1,4.507050037E0,8.944950104E0,1.002374189E1
3.040536166E0,3.870000243E-1,4.507050037E0,8.944950104E0,1.002374189E1
3.042499570E0,3.870000243E-1,4.468950272E0,8.907000542E0,9.972760109E0
3.044462951E0,3.870000243E-1,4.468950272E0,8.907000542E0,9.972760109E0
3.046426339E0,3.490500152E-1,4.468950272E0,8.944950104E0,1.000527285E1
3.048389753E0,3.870000243E-1,4.507050037E0,8.944950104E0,1.002374189E1
3.050353169E0,3.490500152E-1,4.507050037E0,8.944950104E0,1.002234844E1
3.052316549E0,3.109500110E-1,4.468950272E0,8.983950615E0,1.003890308E1
3.054279940E0,3.490500152E-1,4.468950272E0,8.944950104E0,1.000527285E1
3.056243638E0,3.870000243E-1,4.468950272E0,8.944950104E0,1.000666867E1
3.058207246E0,3.870000243E-1,4.507050037E0,8.944950104E0,1.002374189E1
3.060170398E0,3.490500152E-1,4.507050037E0,8.907000542E0,9.988493110E0
3.062133694E0,3.490500152E-1,4.545000076E0,8.907000542E0,1.000567440E1
3.064096733E0,3.870000243E-1,4.468950272E0,8.944950104E0,1.000666867E1
3.066059848E0,3.490500152E-1,4.507050037E0,8.983950615E0,1.005717180E1
3.068023278E0,3.870000243E-1,4.545000076E0,8.907000542E0,1.000707017E1
3.069986616E0,3.490500152E-1,4.468950272E0,8.907000542E0,9.971359541E0
3.071949814E0,3.109500110E-1,4.507050037E0,8.907000542E0,9.987234282E0
3.073913064E0,3.490500152E-1,4.545000076E0,8.944950104E0,1.003947180E1
3.075876336E0,3.109500110E-1,4.545000076E0,8.944950104E0,1.003821936E1
3.077839601E0,3.490500152E-1,4.507050037E0,8.907000542E0,9.988493110E0
3.079802646E0,3.490500152E-1,4.468950272E0,8.907000542E0,9.971359541E0
3.081765756E0,3.870000243E-1,4.507050037E0,8.869050026E0,9.956069376E0
3.083729007E0,3.490500152E-1,4.507050037E0,8.907000542E0,9.988493110E0
3.085692216E0,3.490500152E-1,4.507050037E0,8.907000542E0,9.988493110E0
3.087655766E0,3.490500152E-1,4.507050037E0,8.907000542E0,9.988493110E0
3.089619216E0,3.870000243E-1,4.507050037E0,8.907000542E0,9.989891276E0
3.091582590E0,3.870000243E-1,4.507050037E0,8.869050026E0,9.956069376E0
3.093545987E0,3.109500110E-1,4.507050037E0,8.869050026E0,9.953403353E0
3.095509033E0,3.490500152E-1,4.507050037E0,8.907000542E0,9.988493110E0
3.097472165E0,3.490500152E-1,4.507050037E0,8.944950104E0,1.002234844E1
3.099435412E0,3.490500152E-1,4.507050037E0,8.907000542E0,9.988493110E0
3.101398625E0,3.490500152E-1,4.507050037E0,8.907000542E0,9.988493110E0
3.103362039E0,3.870000243E-1,4.507050037E0,8.869050026E0,9.956069376E0
3.105325394E0,3.870000243E-1,4.507050037E0,8.907000542E0,9.989891276E0
3.107288460E0,3.870000243E-1,4.468950272E0,8.907000542E0,9.972760109E0
3.109251618E0,3.870000243E-1,4.468950272E0,8.907000542E0,9.972760109E0
3.111214995E0,3.490500152E-1,4.468950272E0,8.869050026E0,9.937474569E0
3.113178308E0,4.260000288E-1,4.507050037E0,8.907000542E0,9.991478105E0
3.115141705E0,3.490500152E-1,4.507050037E0,8.983950615E0,1.005717180E1
3.117105077E0,3.870000243E-1,4.468950272E0,8.869050026E0,9.938879912E0
3.119068280E0,3.870000243E-1,4.468950272E0,8.907000542E0,9.972760109E0
3.121031536E0,3.870000243E-1,4.468950272E0,8.907000542E0,9.972760109E0
3.122994941E0,4.260000288E-1,4.468950272E0,8.907000542E0,9.974349663E0
3.124958303E0,4.260000288E-1,4.507050037E0,8.944950104E0,1.002532336E1
3.126921558E0,3.870000243E-1,4.468950272E0,8.907000542E0,9.972760109E0
3.128884844E0,4.639500082E-1,4.468950272E0,8.944950104E0,1.000993998E1
3.130848370E0,4.260000288E-1,4.431000233E0,8.907000542E0,9.957404167E0
3.132811832E0,4.639500082E-1,4.468950272E0,8.907000542E0,9.976042541E0
3.134775069E0,3.870000243E-1,4.431000233E0,8.944950104E0,9.989777998E0
3.136738372E0,4.260000288E-1,4.468950272E0,8.869050026E0,9.940474884E0
3.138701769E0,4.260000288E-1,4.468950272E0,8.869050026E0,9.940474884E0
3.140665139E0,4.260000288E-1,4.431000233E0,8.869050026E0,9.923471542E0
3.142628536E0,4.260000288E-1,4.468950272E0,8.907000542E0,9.974349663E0
3.144591918E0,4.260000288E-1,4.468950272E0,8.907000542E0,9.974349663E0
3.146555259E0,4.260000288E-1,4.468950272E0,8.944950104E0,1.000825284E1
3.148518613E0,4.639500082E-1,4.468950272E0,8.869050026E0,9.942173530E0
3.150482002E0,4.260000288E-1,4.468950272E0,8.907000542E0,9.974349663E0
3.152445380E0,3.870000243E-1,4.468950272E0,8.907000542E0,9.972760109E0
3.154408275E0,4.260000288E-1,4.507050037E0,8.907000542E0,9.991478105E0
3.156371309E0,4.639500082E-1,4.468950272E0,8.869050026E0,9.942173530E0
3.158334573E0,4.639500082E-1,4.468950272E0,8.869050026E0,9.942173530E0
3.160297769E0,3.870000243E-1,4.468950272E0,8.869050026E0,9.938879912E0
3.162260827E0,4.639500082E-1,4.468950272E0,8.907000542E0,9.976042541E0
3.164223925E0,4.260000288E-1,4.468950272E0,8.830050468E0,9.905694515E0
3.166186944E0,4.260000288E-1,4.468950272E0,8.907000542E0,9.974349663E0
3.168149992E0,4.639500082E-1,4.468950272E0,8.944950104E0,1.000993998E1
3.170112939E0,4.639500082E-1,4.468950272E0,8.869050026E0,9.942173530E0
3.172075916E0,4.639500082E-1,4.468950272E0,8.907000542E0,9.976042541E0
3.174039008E0,5.020500422E-1,4.431000233E0,8.869050026E0,9.927027031E0
3.176002067E0,4.260000288E-1,4.468950272E0,8.907000542E0,9.974349663E0
3.177965304E0,4.639500082E-1,4.468950272E0,8.869050026E0,9.942173530E0
3.179928505E0,4.639500082E-1,4.431000233E0,8.830050468E0,9.890338920E0
3.181891741E0,4.639500082E-1,4.431000233E0,8.830050468E0,9.890338920E0
3.183854966E0,4.639500082E-1,4.431000233E0,8.944950104E0,9.993054840E0
3.185818379E0,4.639500082E-1,4.468950272E0,8.869050026E0,9.942173530E0
3.187781736E0,4.639500082E-1,4.468950272E0,8.869050026E0,9.942173530E0
3.189745266E0,5.020500422E-1,4.431000233E0,8.869050026E0,9.927027031E0
3.191708741E0,4.260000288E-1,4.431000233E0,8.907000542E0,9.957404167E0
3.193671931E0,4.639500082E-1,4.468950272E0,8.869050026E0,9.942173530E0
3.195635204E0,4.639500082E-1,4.431000233E0,8.869050026E0,9.925173098E0
3.197598473E0,4.260000288E-1,4.431000233E0,8.907000542E0,9.957404167E0
3.199561743E0,4.639500082E-1,4.468950272E0,8.869050026E0,9.942173530E0
3.201524986E0,4.639500082E-1,4.468950272E0,8.907000542E0,9.976042541E0
3.203488223E0,5.020500422E-1,4.507050037E0,8.907000542E0,9.995009401E0
3.205451767E0,4.260000288E-1,4.468950272E0,8.907000542E0,9.974349663E0
3.207415221E0,4.260000288E-1,4.507050037E0,8.944950104E0,1.002532336E1
3.209378415E0,3.870000243E-1,4.468950272E0,8.983950615E0,1.004154640E1
3.211341685E0,3.870000243E-1,4.468950272E0,8.907000542E0,9.972760109E0
3.213304939E0,4.260000288E-1,4.468950272E0,8.907000542E0,9.974349663E0
3.215268208E0,4.639500082E-1,4.468950272E0,8.944950104E0,1.000993998E1
3.217231612E0,5.020500422E-1,4.468950272E0,8.869050026E0,9.944024293E0
3.219194976E0,5.020500422E-1,4.431000233E0,8.907000542E0,9.960947543E0
3.221158364E0,4.639500082E-1,4.468950272E0,8.869050026E0,9.942173530E0
3.223121745E0,4.260000288E-1,4.431000233E0,8.907000542E0,9.957404167E0
3.225084922E0,4.260000288E-1,4.431000233E0,8.869050026E0,9.923471542E0
3.227048179E0,4.639500082E-1,4.468950272E0,8.869050026E0,9.942173530E0
3.229011585E0,4.260000288E-1,4.431000233E0,8.907000542E0,9.957404167E0
3.230974947E0,4.260000288E-1,4.431000233E0,8.830050468E0,9.888631370E0
3.232938335E0,4.260000288E-1,4.431000233E0,8.869050026E0,9.923471542E0
3.234901716E0,4.260000288E-1,4.431000233E0,8.907000542E0,9.957404167E0
3.236865427E0,4.260000288E-1,4.431000233E0,8.830050468E0,9.888631370E0
3.238829034E0,3.870000243E-1,4.431000233E0,8.869050026E0,9.921873837E0
3.240792786E0,4.639500082E-1,4.431000233E0,8.869050026E0,9.925173098E0
3.242756495E0,3.870000243E-1,4.468950272E0,8.869050026E0,9.938879912E0
3.244719780E0,4.639500082E-1,4.392000198E0,8.907000542E0,9.941809393E0
3.246683189E0,3.870000243E-1,4.507050037E0,8.907000542E0,9.989891276E0
3.248646634E0,4.260000288E-1,4.507050037E0,8.869050026E0,9.957661594E0
3.250610054E0,4.639500082E-1,4.468950272E0,8.944950104E0,1.000993998E1
3.252573568E0,4.260000288E-1,4.468950272E0,8.983950615E0,1.004312507E1
3.254537054E0,4.260000288E-1,4.507050037E0,8.944950104E0,1.002532336E1
3.256500242E0,4.639500082E-1,4.468950272E0,8.944950104E0,1.000993998E1
3.258463517E0,4.260000288E-1,4.468950272E0,8.869050026E0,9.940474884E0
3.260426814E0,3.870000243E-1,4.468950272E0,8.907000542E0,9.972760109E0
3.262390085E0,4.260000288E-1,4.468950272E0,8.944950104E0,1.000825284E1
3.264353308E0,3.870000243E-1,4.507050037E0,8.907000542E0,9.989891276E0
3.266316546E0,3.870000243E-1,4.468950272E0,8.869050026E0,9.938879912E0
3.268280135E0,4.260000288E-1,4.507050037E0,8.907000542E0,9.991478105E0
3.270243621E0,4.639500082E-1,4.468950272E0,8.907000542E0,9.976042541E0
3.272207104E0,4.639500082E-1,4.468950272E0,8.869050026E0,9.942173530E0
3.274170602E0,4.260000288E-1,4.507050037E0,8.907000542E0,9.991478105E0
3.276133788E0,4.639500082E-1,4.507050037E0,8.907000542E0,9.993168081E0
3.278097066E0,4.260000288E-1,4.431000233E0,8.907000542E0,9.957404167E0
3.280060108E0,4.260000288E-1,4.507050037E0,8.907000542E0,9.991478105E0
3.282023219E0,4.639500082E-1,4.507050037E0,8.869050026E0,9.959357309E0
3.283986640E0,4.260000288E-1,4.507050037E0,8.907000542E0,9.991478105E0
3.285949977E0,4.260000288E-1,4.507050037E0,8.907000542E0,9.991478105E0
3.287913190E0,4.639500082E-1,4.468950272E0,8.907000542E0,9.976042541E0
3.289876440E0,4.639500082E-1,4.507050037E0,8.944950104E0,1.002700763E1
3.291839892E0,3.870000243E-1,4.507050037E0,8.907000542E0,9.989891276E0
3.293803284E0,4.639500082E-1,4.545000076E0,8.907000542E0,1.001034135E1
3.295766483E0,4.639500082E-1,4.507050037E0,8.907000542E0,9.993168081E0
3.297729743E0,3.870000243E-1,4.468950272E0,8.944950104E0,1.000666867E1
3.299692969E0,4.260000288E-1,4.507050037E0,8.907000542E0,9.991478105E0
3.301656205E0,3.870000243E-1,4.468950272E0,8.944950104E0,1.000666867E1
3.303619929E0,4.260000288E-1,4.507050037E0,8.907000542E0,9.991478105E0
3.305583510E0,3.870000243E-1,4.507050037E0,8.907000542E0,9.989891276E0
3.307546732E0,4.260000288E-1,4.468950272E0,8.907000542E0,9.974349663E0
3.309510056E0,4.639500082E-1,4.507050037E0,8.907000542E0,9.993168081E0
3.311473225E0,4.260000288E-1,4.468950272E0,8.907000542E0,9.974349663E0
3.313436440E0,4.260000288E-1,4.507050037E0,8.944950104E0,1.002532336E1
3.315399718E0,4.639500082E-1,4.468950272E0,8.907000542E0,9.976042541E0
3.317362977E0,4.260000288E-1,4.507050037E0,8.907000542E0,9.991478105E0
3.319326333E0,4.260000288E-1,4.507050037E0,8.944950104E0,1.002532336E1
3.321289664E0,4.260000288E-1,4.468950272E0,8.983950615E0,1.004312507E1
3.323253058E0,4.260000288E-1,4.468950272E0,8.907000542E0,9.974349663E0
3.325216433E0,4.639500082E-1,4.507050037E0,8.869050026E0,9.959357309E0
3.327179640E0,3.870000243E-1,4.545000076E0,8.907000542E0,1.000707017E1
3.329142897E0,4.639500082E-1,4.468950272E0,8.907000542E0,9.976042541E0
3.331106167E0,4.260000288E-1,4.468950272E0,8.907000542E0,9.974349663E0
3.333069433E0,5.020500422E-1,4.468950272E0,8.907000542E0,9.977887022E0
