"Time (s)","Acceleration x (m/s^2)","Acceleration y (m/s^2)","Acceleration z (m/s^2)","Absolute acceleration (m/s^2)"
3.004604200E-2,1.189500093E-1,4.545000076E0,8.944950104E0,1.003410719E1
3.200799900E-2,1.570500135E-1,4.507050037E0,8.907000542E0,9.983627767E0
3.397250400E-2,1.189500093E-1,4.507050037E0,8.944950104E0,1.001697467E1
3.593565100E-2,8.100000024E-2,4.545000076E0,8.869050026E0,9.966124375E0
3.789919600E-2,1.570500135E-1,4.507050037E0,8.944950104E0,1.001749954E1
3.986239800E-2,8.100000024E-2,4.507050037E0,8.944950104E0,1.001659590E1
4.182571400E-2,1.189500093E-1,4.507050037E0,8.869050026E0,9.949256128E0
4.378906500E-2,1.570500135E-1,4.468950272E0,8.869050026E0,9.932584236E0
4.575240500E-2,1.570500135E-1,4.468950272E0,8.830050468E0,9.897776140E0
4.771543800E-2,1.570500135E-1,4.468950272E0,8.869050026E0,9.932584236E0
4.967856100E-2,8.100000024E-2,4.507050037E0,8.791950226E0,9.880204948E0
5.164126400E-2,1.570500135E-1,4.468950272E0,8.830050468E0,9.897776140E0
5.360409400E-2,1.570500135E-1,4.468950272E0,8.830050468E0,9.897776140E0
5.556725700E-2,1.570500135E-1,4.468950272E0,8.791950226E0,9.863800992E0
5.753032300E-2,1.960500032E-1,4.431000233E0,8.791950226E0,9.847364492E0
5.949340200E-2,1.570500135E-1,4.468950272E0,8.715000153E0,9.795274825E0
6.145647700E-2,1.960500032E-1,4.468950272E0,8.715000153E0,9.795977735E0
6.341968000E-2,1.570500135E-1,4.468950272E0,8.715000153E0,9.795274825E0
6.538285200E-2,1.960500032E-1,4.431000233E0,8.677050591E0,9.744916912E0
6.734573300E-2,2.340000123E-1,4.468950272E0,8.715000153E0,9.796810716E0
6.930870000E-2,1.960500032E-1,4.431000233E0,8.715000153E0,9.778723144E0
7.127161600E-2,1.960500032E-1,4.431000233E0,8.715000153E0,9.778723144E0
7.323454700E-2,1.960500032E-1,4.431000233E0,8.677050591E0,9.744916912E0
7.519748400E-2,2.340000123E-1,4.431000233E0,8.754000664E0,9.814328642E0
7.716043900E-2,2.719500065E-1,4.431000233E0,8.715000153E0,9.780539225E0
7.912371700E-2,2.719500065E-1,4.392000198E0,8.715000153E0,9.762932459E0
8.108690000E-2,2.719500065E-1,4.431000233E0,8.715000153E0,9.780539225E0
8.305013900E-2,2.719500065E-1,4.431000233E0,8.791950226E0,9.849167916E0
8.501336200E-2,2.719500065E-1,4.431000233E0,8.791950226E0,9.849167916E0
8.697639000E-2,2.340000123E-1,4.392000198E0,8.791950226E0,9.830707529E0
8.893949300E-2,2.719500065E-1,4.392000198E0,8.754000664E0,9.797762508E0
9.090274400E-2,1.960500032E-1,4.431000233E0,8.715000153E0,9.778723144E0
9.286595200E-2,2.719500065E-1,4.392000198E0,8.754000664E0,9.797762508E0
9.482914300E-2,1.960500032E-1,4.468950272E0,8.869050026E0,9.933277430E0
9.679233900E-2,3.109500110E-1,4.431000233E0,8.869050026E0,9.919198624E0
9.875538800E-2,2.719500065E-1,4.431000233E0,8.830050468E0,9.883193368E0
1.007185170E-1,2.340000123E-1,4.468950272E0,8.830050468E0,9.899296127E0
1.026817190E-1,2.719500065E-1,4.468950272E0,8.907000542E0,9.968958420E0
1.046448990E-1,2.719500065E-1,4.468950272E0,8.869050026E0,9.935065259E0
1.066079590E-1,2.340000123E-1,4.468950272E0,8.907000542E0,9.967995344E0
1.085710550E-1,2.340000123E-1,4.468950272E0,8.907000542E0,9.967995344E0
1.105339100E-1,2.719500065E-1,4.468950272E0,8.907000542E0,9.968958420E0
1.124968630E-1,1.960500032E-1,4.468950272E0,8.983950615E0,1.003600123E1
1.144598250E-1,2.719500065E-1,4.468950272E0,8.983950615E0,1.003777077E1
1.164227840E-1,2.340000123E-1,4.468950272E0,8.983950615E0,1.003681429E1
1.183858810E-1,2.340000123E-1,4.431000233E0,9.022050858E0,1.005414943E1
1.203489380E-1,2.340000123E-1,4.431000233E0,9.022050858E0,1.005414943E1
1.223119850E-1,2.340000123E-1,4.468950272E0,8.983950615E0,1.003681429E1
1.242750580E-1,1.960500032E-1,4.468950272E0,8.983950615E0,1.003600123E1
1.262381360E-1,1.570500135E-1,4.468950272E0,9.022050858E0,1.006943806E1
1.282012120E-1,2.340000123E-1,4.468950272E0,8.944950104E0,1.000192006E1
1.301641100E-1,1.570500135E-1,4.431000233E0,9.022050858E0,1.005265286E1
1.321270600E-1,1.570500135E-1,4.468950272E0,8.983950615E0,1.003531514E1
1.340904390E-1,1.960500032E-1,4.468950272E0,8.983950615E0,1.003600123E1
1.360537160E-1,1.960500032E-1,4.431000233E0,8.983950615E0,1.001916001E1
1.380172990E-1,1.570500135E-1,4.507050037E0,8.983950615E0,1.005233970E1
1.399807930E-1,1.960500032E-1,4.468950272E0,8.983950615E0,1.003600123E1
1.419445200E-1,1.960500032E-1,4.468950272E0,9.022050858E0,1.007012184E1
1.439081780E-1,1.570500135E-1,4.507050037E0,8.983950615E0,1.005233970E1
1.458715290E-1,1.960500032E-1,4.507050037E0,8.983950615E0,1.005302463E1
1.478349930E-1,1.570500135E-1,4.468950272E0,8.944950104E0,1.000041567E1
1.497983640E-1,1.570500135E-1,4.468950272E0,8.983950615E0,1.003531514E1
1.517617620E-1,1.960500032E-1,4.431000233E0,8.983950615E0,1.001916001E1
1.537252780E-1,1.570500135E-1,4.468950272E0,8.983950615E0,1.003531514E1
1.556887600E-1,1.570500135E-1,4.468950272E0,8.944950104E0,1.000041567E1
1.576519890E-1,1.570500135E-1,4.468950272E0,8.944950104E0,1.000041567E1
1.596152960E-1,1.570500135E-1,4.431000233E0,8.983950615E0,1.001847276E1
1.615784680E-1,1.570500135E-1,4.468950272E0,8.983950615E0,1.003531514E1
1.635416800E-1,1.960500032E-1,4.468950272E0,9.022050858E0,1.007012184E1
1.655049580E-1,1.960500032E-1,4.468950272E0,8.983950615E0,1.003600123E1
1.674682170E-1,1.960500032E-1,4.468950272E0,8.983950615E0,1.003600123E1
1.694318040E-1,1.570500135E-1,4.468950272E0,8.983950615E0,1.003531514E1
1.713952940E-1,1.570500135E-1,4.507050037E0,8.983950615E0,1.005233970E1
1.733584810E-1,1.960500032E-1,4.468950272E0,8.983950615E0,1.003600123E1
1.753217570E-1,2.340000123E-1,4.468950272E0,8.983950615E0,1.003681429E1
1.772851150E-1,1.960500032E-1,4.468950272E0,8.944950104E0,1.000110416E1
1.792484480E-1,1.960500032E-1,4.468950272E0,8.944950104E0,1.000110416E1
1.812116570E-1,1.960500032E-1,4.468950272E0,8.944950104E0,1.000110416E1
1.831749060E-1,1.570500135E-1,4.468950272E0,8.907000542E0,9.966485834E0
1.851379990E-1,1.570500135E-1,4.468950272E0,8.907000542E0,9.966485834E0
1.871011370E-1,1.570500135E-1,4.468950272E0,8.907000542E0,9.966485834E0
1.890645180E-1,1.570500135E-1,4.507050037E0,8.869050026E0,9.949784576E0
1.910278270E-1,1.960500032E-1,4.545000076E0,8.869050026E0,9.967723394E0
1.929910560E-1,1.570500135E-1,4.507050037E0,8.907000542E0,9.983627767E0
1.949543330E-1,1.189500093E-1,4.545000076E0,8.830050468E0,9.931815850E0
1.969173760E-1,1.189500093E-1,4.545000076E0,8.830050468E0,9.931815850E0
1.988804870E-1,1.189500093E-1,4.545000076E0,8.869050026E0,9.966505063E0
2.008436920E-1,8.100000024E-2,4.545000076E0,8.830050468E0,9.931433832E0
2.028068690E-1,1.189500093E-1,4.584000111E0,8.830050468E0,9.949723483E0
2.047699440E-1,1.189500093E-1,4.545000076E0,8.830050468E0,9.931815850E0
2.067330390E-1,1.570500135E-1,4.507050037E0,8.869050026E0,9.949784576E0
2.086957980E-1,1.189500093E-1,4.584000111E0,8.791950226E0,9.915926325E0
2.106586550E-1,1.189500093E-1,4.545000076E0,8.830050468E0,9.931815850E0
2.126219480E-1,1.570500135E-1,4.545000076E0,8.869050026E0,9.967032596E0
2.145851140E-1,8.100000024E-2,4.545000076E0,8.907000542E0,9.999912267E0
2.165481230E-1,1.189500093E-1,4.545000076E0,8.830050468E0,9.931815850E0
2.185111840E-1,1.189500093E-1,4.545000076E0,8.791950226E0,9.897957545E0
2.204740830E-1,1.189500093E-1,4.545000076E0,8.869050026E0,9.966505063E0
2.224370300E-1,1.189500093E-1,4.507050037E0,8.830050468E0,9.914506565E0
2.244001730E-1,1.189500093E-1,4.507050037E0,8.830050468E0,9.914506565E0
2.263632590E-1,1.189500093E-1,4.545000076E0,8.869050026E0,9.966505063E0
2.283263210E-1,1.570500135E-1,4.545000076E0,8.830050468E0,9.932345225E0
2.302894000E-1,1.960500032E-1,4.468950272E0,8.830050468E0,9.898471771E0
2.322524770E-1,1.189500093E-1,4.507050037E0,8.830050468E0,9.914506565E0
2.342155540E-1,1.960500032E-1,4.507050037E0,8.869050026E0,9.950476572E0
2.361786310E-1,1.189500093E-1,4.507050037E0,8.869050026E0,9.949256128E0
2.381417080E-1,1.960500032E-1,4.507050037E0,8.869050026E0,9.950476572E0
2.401050750E-1,1.570500135E-1,4.468950272E0,8.907000542E0,9.966485834E0
2.420683740E-1,1.570500135E-1,4.545000076E0,8.830050468E0,9.932345225E0
2.440316390E-1,1.570500135E-1,4.468950272E0,8.869050026E0,9.932584236E0
2.459949140E-1,1.570500135E-1,4.507050037E0,8.830050468E0,9.915036864E0
2.479583170E-1,1.960500032E-1,4.507050037E0,8.830050468E0,9.915731285E0
2.499216820E-1,1.960500032E-1,4.507050037E0,8.830050468E0,9.915731285E0
2.518846660E-1,1.570500135E-1,4.507050037E0,8.791950226E0,9.881121066E0
2.538477610E-1,1.189500093E-1,4.507050037E0,8.830050468E0,9.914506565E0
2.558110140E-1,1.960500032E-1,4.468950272E0,8.791950226E0,9.864499020E0
2.577742200E-1,1.570500135E-1,4.507050037E0,8.791950226E0,9.881121066E0
2.597374550E-1,1.570500135E-1,4.507050037E0,8.791950226E0,9.881121066E0
2.617006820E-1,1.570500135E-1,4.468950272E0,8.754000664E0,9.829990278E0
2.636642930E-1,1.570500135E-1,4.507050037E0,8.754000664E0,9.847369820E0
2.656277780E-1,1.570500135E-1,4.584000111E0,8.791950226E0,9.916456549E0
2.675911460E-1,1.570500135E-1,4.545000076E0,8.791950226E0,9.898488732E0
2.695545490E-1,1.570500135E-1,4.545000076E0,8.791950226E0,9.898488732E0
2.715179740E-1,1.570500135E-1,4.507050037E0,8.830050468E0,9.915036864E0
2.734813930E-1,1.570500135E-1,4.507050037E0,8.830050468E0,9.915036864E0
2.754446080E-1,1.570500135E-1,4.545000076E0,8.830050468E0,9.932345225E0
2.774078720E-1,1.960500032E-1,4.507050037E0,8.869050026E0,9.950476572E0
2.793712310E-1,1.570500135E-1,4.507050037E0,8.791950226E0,9.881121066E0
2.813345620E-1,1.570500135E-1,4.507050037E0,8.830050468E0,9.915036864E0
2.832976420E-1,1.960500032E-1,4.507050037E0,8.830050468E0,9.915731285E0
2.852607950E-1,1.570500135E-1,4.507050037E0,8.869050026E0,9.949784576E0
2.872240620E-1,1.570500135E-1,4.545000076E0,8.869050026E0,9.967032596E0
2.891872780E-1,1.960500032E-1,4.507050037E0,8.830050468E0,9.915731285E0
2.911504680E-1,1.570500135E-1,4.545000076E0,8.830050468E0,9.932345225E0
2.931136650E-1,1.960500032E-1,4.545000076E0,8.869050026E0,9.967723394E0
2.950767660E-1,1.960500032E-1,4.507050037E0,8.830050468E0,9.915731285E0
2.970398960E-1,1.570500135E-1,4.507050037E0,8.830050468E0,9.915036864E0
2.990033060E-1,1.570500135E-1,4.507050037E0,8.907000542E0,9.983627767E0
3.009666140E-1,1.570500135E-1,4.468950272E0,8.869050026E0,9.932584236E0
3.029300120E-1,1.189500093E-1,4.468950272E0,8.830050468E0,9.897244915E0
3.048933830E-1,1.570500135E-1,4.468950272E0,8.869050026E0,9.932584236E0
3.068566360E-1,1.960500032E-1,4.468950272E0,8.830050468E0,9.898471771E0
3.088199240E-1,1.189500093E-1,4.468950272E0,8.869050026E0,9.932054873E0
3.107833240E-1,1.570500135E-1,4.507050037E0,8.907000542E0,9.983627767E0
3.127466910E-1,1.189500093E-1,4.468950272E0,8.869050026E0,9.932054873E0
3.147098990E-1,1.570500135E-1,4.507050037E0,8.830050468E0,9.915036864E0
3.166731540E-1,1.189500093E-1,4.468950272E0,8.830050468E0,9.897244915E0
3.186365600E-1,1.189500093E-1,4.507050037E0,8.869050026E0,9.949256128E0
3.205999220E-1,4.200000316E-2,4.468950272E0,8.869050026E0,9.931431362E0
3.225628920E-1,8.100000024E-2,4.468950272E0,8.869050026E0,9.931672865E0
3.245259870E-1,1.570500135E-1,4.507050037E0,8.944950104E0,1.001749954E1
3.264889260E-1,1.189500093E-1,4.468950272E0,8.869050026E0,9.932054873E0
3.284519100E-1,1.189500093E-1,4.545000076E0,8.830050468E0,9.931815850E0
3.304151370E-1,8.100000024E-2,4.545000076E0,8.869050026E0,9.966124375E0
3.323782920E-1,8.100000024E-2,4.507050037E0,8.907000542E0,9.982721056E0
3.343417310E-1,1.189500093E-1,4.545000076E0,8.830050468E0,9.931815850E0
3.363050760E-1,8.100000024E-2,4.507050037E0,8.907000542E0,9.982721056E0
3.382679730E-1,1.189500093E-1,4.507050037E0,8.869050026E0,9.949256128E0
3.402310010E-1,8.100000024E-2,4.507050037E0,8.907000542E0,9.982721056E0
3.421938610E-1,1.189500093E-1,4.545000076E0,8.869050026E0,9.966505063E0
3.441567700E-1,8.100000024E-2,4.507050037E0,8.907000542E0,9.982721056E0
3.461200910E-1,1.189500093E-1,4.507050037E0,8.830050468E0,9.914506565E0
3.480832970E-1,1.189500093E-1,4.507050037E0,8.869050026E0,9.949256128E0
3.500464880E-1,1.189500093E-1,4.507050037E0,8.869050026E0,9.949256128E0
3.520096840E-1,1.570500135E-1,4.545000076E0,8.907000542E0,1.000081742E1
3.539729190E-1,1.570500135E-1,4.507050037E0,8.869050026E0,9.949784576E0
3.559361430E-1,1.570500135E-1,4.545000076E0,8.869050026E0,9.967032596E0
3.578992310E-1,1.570500135E-1,4.507050037E0,8.830050468E0,9.915036864E0
3.598623660E-1,1.960500032E-1,4.545000076E0,8.830050468E0,9.933038436E0
3.618255670E-1,1.570500135E-1,4.545000076E0,8.830050468E0,9.932345225E0
3.637887490E-1,1.570500135E-1,4.545000076E0,8.830050468E0,9.932345225E0
3.657518090E-1,1.570500135E-1,4.507050037E0,8.830050468E0,9.915036864E0
3.677149050E-1,1.570500135E-1,4.507050037E0,8.830050468E0,9.915036864E0
3.696782080E-1,1.960500032E-1,4.468950272E0,8.830050468E0,9.898471771E0
3.716414460E-1,1.570500135E-1,4.507050037E0,8.830050468E0,9.915036864E0
3.736046320E-1,1.570500135E-1,4.507050037E0,8.791950226E0,9.881121066E0
3.755678330E-1,1.570500135E-1,4.507050037E0,8.791950226E0,9.881121066E0
3.775307080E-1,1.570500135E-1,4.545000076E0,8.830050468E0,9.932345225E0
3.794936790E-1,1.189500093E-1,4.507050037E0,8.830050468E0,9.914506565E0
3.814568180E-1,1.570500135E-1,4.507050037E0,8.830050468E0,9.915036864E0
3.834199080E-1,1.189500093E-1,4.545000076E0,8.869050026E0,9.966505063E0
3.853827580E-1,1.189500093E-1,4.507050037E0,8.869050026E0,9.949256128E0
3.873456790E-1,1.189500093E-1,4.507050037E0,8.869050026E0,9.949256128E0
3.893086460E-1,8.100000024E-2,4.507050037E0,8.869050026E0,9.948874781E0
3.912716000E-1,1.189500093E-1,4.468950272E0,8.830050468E0,9.897244915E0
3.932345050E-1,1.189500093E-1,4.507050037E0,8.907000542E0,9.983101111E0
3.951974340E-1,1.570500135E-1,4.468950272E0,8.907000542E0,9.966485834E0
3.971604900E-1,1.570500135E-1,4.468950272E0,8.869050026E0,9.932584236E0
3.991235090E-1,1.570500135E-1,4.468950272E0,8.944950104E0,1.000041567E1
4.010865960E-1,1.570500135E-1,4.468950272E0,8.983950615E0,1.003531514E1
4.030496630E-1,1.570500135E-1,4.468950272E0,8.944950104E0,1.000041567E1
4.050132960E-1,1.960500032E-1,4.431000233E0,8.944950104E0,9.984204076E0
4.069767540E-1,1.570500135E-1,4.431000233E0,8.944950104E0,9.983514418E0
4.089399920E-1,1.960500032E-1,4.468950272E0,8.983950615E0,1.003600123E1
4.109032940E-1,1.960500032E-1,4.431000233E0,8.944950104E0,9.984204076E0
4.128666920E-1,1.960500032E-1,4.507050037E0,8.983950615E0,1.005302463E1
4.148300620E-1,1.960500032E-1,4.468950272E0,8.983950615E0,1.003600123E1
4.167932700E-1,1.960500032E-1,4.392000198E0,8.907000542E0,9.932912966E0
4.187565250E-1,2.340000123E-1,4.431000233E0,8.983950615E0,1.001997444E1
4.207198860E-1,1.570500135E-1,4.468950272E0,8.983950615E0,1.003531514E1
4.226832160E-1,2.340000123E-1,4.431000233E0,8.983950615E0,1.001997444E1
4.246464760E-1,2.340000123E-1,4.431000233E0,8.944950104E0,9.985021353E0
4.266097560E-1,1.960500032E-1,4.468950272E0,8.983950615E0,1.003600123E1
4.285729600E-1,1.960500032E-1,4.468950272E0,8.944950104E0,1.000110416E1
4.305361990E-1,2.340000123E-1,4.468950272E0,8.944950104E0,1.000192006E1
4.324993830E-1,2.719500065E-1,4.431000233E0,8.944950104E0,9.985982787E0
4.344625830E-1,2.719500065E-1,4.431000233E0,8.944950104E0,9.985982787E0
4.364256840E-1,2.340000123E-1,4.468950272E0,8.907000542E0,9.967995344E0
4.383888140E-1,2.340000123E-1,4.431000233E0,8.944950104E0,9.985021353E0
4.403520650E-1,1.960500032E-1,4.431000233E0,8.983950615E0,1.001916001E1
4.423152780E-1,2.340000123E-1,4.431000233E0,8.944950104E0,9.985021353E0
4.442785120E-1,2.340000123E-1,4.468950272E0,8.907000542E0,9.967995344E0
4.462417390E-1,2.719500065E-1,4.468950272E0,8.944950104E0,1.000287987E1
4.482053310E-1,2.719500065E-1,4.468950272E0,8.907000542E0,9.968958420E0
4.501688160E-1,1.960500032E-1,4.507050037E0,8.944950104E0,1.001818686E1
4.521325040E-1,2.340000123E-1,4.468950272E0,8.869050026E0,9.934098897E0
4.540961290E-1,2.719500065E-1,4.507050037E0,8.869050026E0,9.952261311E0
4.560594730E-1,2.340000123E-1,4.468950272E0,8.907000542E0,9.967995344E0
4.580229000E-1,2.340000123E-1,4.507050037E0,8.869050026E0,9.951296619E0
4.599862770E-1,2.340000123E-1,4.507050037E0,8.907000542E0,9.985134686E0
4.619496690E-1,2.340000123E-1,4.468950272E0,8.869050026E0,9.934098897E0
4.639129030E-1,1.960500032E-1,4.468950272E0,8.869050026E0,9.933277430E0
4.658761940E-1,2.719500065E-1,4.468950272E0,8.869050026E0,9.935065259E0
4.678395480E-1,2.719500065E-1,4.431000233E0,8.830050468E0,9.883193368E0
4.698028840E-1,2.719500065E-1,4.468950272E0,8.907000542E0,9.968958420E0
4.717662770E-1,2.340000123E-1,4.507050037E0,8.869050026E0,9.951296619E0
4.737296530E-1,2.340000123E-1,4.468950272E0,8.830050468E0,9.899296127E0
4.756932700E-1,2.340000123E-1,4.468950272E0,8.830050468E0,9.899296127E0
4.776568120E-1,2.340000123E-1,4.431000233E0,8.869050026E0,9.917084624E0
4.796201710E-1,2.719500065E-1,4.468950272E0,8.830050468E0,9.900265886E0
4.815835830E-1,2.719500065E-1,4.468950272E0,8.830050468E0,9.900265886E0
4.835470970E-1,2.340000123E-1,4.468950272E0,8.791950226E0,9.865326214E0
4.855105810E-1,1.960500032E-1,4.431000233E0,8.830050468E0,9.881396153E0
4.874739400E-1,1.960500032E-1,4.468950272E0,8.791950226E0,9.864499020E0
4.894373430E-1,2.340000123E-1,4.468950272E0,8.830050468E0,9.899296127E0
4.914007240E-1,1.960500032E-1,4.431000233E0,8.830050468E0,9.881396153E0
4.933641120E-1,2.340000123E-1,4.507050037E0,8.830050468E0,9.916554206E0
4.953276750E-1,1.960500032E-1,4.468950272E0,8.830050468E0,9.898471771E0
4.972911870E-1,2.340000123E-1,4.468950272E0,8.791950226E0,9.865326214E0
4.992549150E-1,2.719500065E-1,4.468950272E0,8.830050468E0,9.900265886E0
5.012185760E-1,1.960500032E-1,4.468950272E0,8.791950226E0,9.864499020E0
5.031820950E-1,1.960500032E-1,4.468950272E0,8.869050026E0,9.933277430E0
5.051456550E-1,2.340000123E-1,4.468950272E0,8.830050468E0,9.899296127E0
5.071086490E-1,1.960500032E-1,4.545000076E0,8.830050468E0,9.933038436E0
5.090718090E-1,1.960500032E-1,4.507050037E0,8.869050026E0,9.950476572E0
5.110352500E-1,2.340000123E-1,4.468950272E0,8.830050468E0,9.899296127E0
5.129985950E-1,2.340000123E-1,4.468950272E0,8.869050026E0,9.934098897E0
5.149620320E-1,2.340000123E-1,4.468950272E0,8.830050468E0,9.899296127E0
5.169254420E-1,2.719500065E-1,4.431000233E0,8.830050468E0,9.883193368E0
5.188886430E-1,2.340000123E-1,4.468950272E0,8.830050468E0,9.899296127E0
5.208519050E-1,1.960500032E-1,4.431000233E0,8.791950226E0,9.847364492E0
5.228150990E-1,1.960500032E-1,4.468950272E0,8.830050468E0,9.898471771E0
5.247783040E-1,2.340000123E-1,4.507050037E0,8.754000664E0,9.848897586E0
5.267417180E-1,1.570500135E-1,4.468950272E0,8.830050468E0,9.897776140E0
5.287050710E-1,1.570500135E-1,4.507050037E0,8.830050468E0,9.915036864E0
5.306684610E-1,2.340000123E-1,4.507050037E0,8.830050468E0,9.916554206E0
5.326318400E-1,1.960500032E-1,4.468950272E0,8.791950226E0,9.864499020E0
5.345946910E-1,1.960500032E-1,4.507050037E0,8.791950226E0,9.881817870E0
5.365576930E-1,1.570500135E-1,4.468950272E0,8.830050468E0,9.897776140E0
5.385211880E-1,1.570500135E-1,4.507050037E0,8.907000542E0,9.983627767E0
5.404845380E-1,1.570500135E-1,4.507050037E0,8.944950104E0,1.001749954E1
5.424480640E-1,1.960500032E-1,4.468950272E0,8.907000542E0,9.967176671E0
5.444115380E-1,1.570500135E-1,4.507050037E0,8.907000542E0,9.983627767E0
5.463749390E-1,1.570500135E-1,4.507050037E0,8.907000542E0,9.983627767E0
5.483383720E-1,1.960500032E-1,4.507050037E0,8.907000542E0,9.984317417E0
5.503017480E-1,1.570500135E-1,4.507050037E0,8.983950615E0,1.005233970E1
5.522651410E-1,1.570500135E-1,4.507050037E0,8.944950104E0,1.001749954E1
5.542285240E-1,1.960500032E-1,4.507050037E0,8.944950104E0,1.001818686E1
5.561919100E-1,1.960500032E-1,4.507050037E0,8.944950104E0,1.001818686E1
5.581550540E-1,1.570500135E-1,4.545000076E0,8.983950615E0,1.006941205E1
5.601182800E-1,1.960500032E-1,4.507050037E0,8.944950104E0,1.001818686E1
5.620815550E-1,1.570500135E-1,4.468950272E0,8.907000542E0,9.966485834E0
5.640448160E-1,1.570500135E-1,4.468950272E0,8.944950104E0,1.000041567E1
5.660078170E-1,1.570500135E-1,4.468950272E0,8.944950104E0,1.000041567E1
5.679708950E-1,1.960500032E-1,4.507050037E0,8.907000542E0,9.984317417E0
5.699344110E-1,1.189500093E-1,4.507050037E0,8.944950104E0,1.001697467E1
5.718977740E-1,1.189500093E-1,4.507050037E0,8.983950615E0,1.005181664E1
5.738612980E-1,1.960500032E-1,4.507050037E0,8.944950104E0,1.001818686E1
5.758247740E-1,1.960500032E-1,4.507050037E0,8.869050026E0,9.950476572E0
5.777880090E-1,1.960500032E-1,4.545000076E0,8.907000542E0,1.000150588E1
5.797513150E-1,1.570500135E-1,4.507050037E0,8.907000542E0,9.983627767E0
5.817143530E-1,1.570500135E-1,4.507050037E0,8.907000542E0,9.983627767E0
5.836774690E-1,1.570500135E-1,4.468950272E0,8.907000542E0,9.966485834E0
5.856408530E-1,1.570500135E-1,4.507050037E0,8.907000542E0,9.983627767E0
5.876041590E-1,1.570500135E-1,4.431000233E0,8.907000542E0,9.949526944E0
5.895675570E-1,1.189500093E-1,4.468950272E0,8.830050468E0,9.897244915E0
5.915309280E-1,1.570500135E-1,4.507050037E0,8.830050468E0,9.915036864E0
5.934942950E-1,1.570500135E-1,4.507050037E0,8.869050026E0,9.949784576E0
5.954576780E-1,1.189500093E-1,4.507050037E0,8.907000542E0,9.983101111E0
5.974207480E-1,1.570500135E-1,4.468950272E0,8.869050026E0,9.932584236E0
5.993839100E-1,1.189500093E-1,4.468950272E0,8.907000542E0,9.965958272E0
6.013471520E-1,1.570500135E-1,4.507050037E0,8.907000542E0,9.983627767E0
6.033103700E-1,1.570500135E-1,4.545000076E0,8.869050026E0,9.967032596E0
6.052737740E-1,1.189500093E-1,4.507050037E0,8.907000542E0,9.983101111E0
6.072371300E-1,1.189500093E-1,4.468950272E0,8.869050026E0,9.932054873E0
6.092003410E-1,1.189500093E-1,4.507050037E0,8.869050026E0,9.949256128E0
6.111635940E-1,1.189500093E-1,4.507050037E0,8.869050026E0,9.949256128E0
6.131270000E-1,1.570500135E-1,4.545000076E0,8.869050026E0,9.967032596E0
6.150903610E-1,1.189500093E-1,4.507050037E0,8.830050468E0,9.914506565E0
6.170535890E-1,1.570500135E-1,4.468950272E0,8.830050468E0,9.897776140E0
6.190168430E-1,1.189500093E-1,4.507050037E0,8.830050468E0,9.914506565E0
6.209802490E-1,1.189500093E-1,4.468950272E0,8.869050026E0,9.932054873E0
6.229436110E-1,1.189500093E-1,4.507050037E0,8.830050468E0,9.914506565E0
6.249068200E-1,1.189500093E-1,4.507050037E0,8.830050468E0,9.914506565E0
6.268700740E-1,1.189500093E-1,4.507050037E0,8.791950226E0,9.880588946E0
6.288332270E-1,1.570500135E-1,4.468950272E0,8.791950226E0,9.863800992E0
6.307964300E-1,1.189500093E-1,4.468950272E0,8.830050468E0,9.897244915E0
6.327595300E-1,1.570500135E-1,4.507050037E0,8.830050468E0,9.915036864E0
6.347226610E-1,1.570500135E-1,4.468950272E0,8.869050026E0,9.932584236E0
6.366859070E-1,1.570500135E-1,4.507050037E0,8.830050468E0,9.915036864E0
6.386491200E-1,1.189500093E-1,4.507050037E0,8.830050468E0,9.914506565E0
6.406124840E-1,1.189500093E-1,4.545000076E0,8.791950226E0,9.897957545E0
6.425758070E-1,8.100000024E-2,4.507050037E0,8.791950226E0,9.880204948E0
6.445387080E-1,8.100000024E-2,4.545000076E0,8.830050468E0,9.931433832E0
6.465017330E-1,1.189500093E-1,4.468950272E0,8.791950226E0,9.863267938E0
6.484648170E-1,1.189500093E-1,4.507050037E0,8.869050026E0,9.949256128E0
6.504278840E-1,8.100000024E-2,4.507050037E0,8.830050468E0,9.914123880E0
6.523909000E-1,8.100000024E-2,4.507050037E0,8.791950226E0,9.880204948E0
6.543539440E-1,8.100000024E-2,4.507050037E0,8.830050468E0,9.914123880E0
6.563170710E-1,4.200000316E-2,4.545000076E0,8.869050026E0,9.965883707E0
6.582801730E-1,1.189500093E-1,4.507050037E0,8.830050468E0,9.914506565E0
6.602433810E-1,8.100000024E-2,4.507050037E0,8.830050468E0,9.914123880E0
6.622065580E-1,8.100000024E-2,4.507050037E0,8.869050026E0,9.948874781E0
6.641696040E-1,1.189500093E-1,4.468950272E0,8.830050468E0,9.897244915E0
6.661326990E-1,1.189500093E-1,4.468950272E0,8.869050026E0,9.932054873E0
6.680955920E-1,8.100000024E-2,4.507050037E0,8.869050026E0,9.948874781E0
6.700585450E-1,1.570500135E-1,4.507050037E0,8.944950104E0,1.001749954E1
6.720214630E-1,1.570500135E-1,4.468950272E0,8.869050026E0,9.932584236E0
6.739843910E-1,1.960500032E-1,4.468950272E0,8.869050026E0,9.933277430E0
6.759477080E-1,1.960500032E-1,4.431000233E0,8.907000542E0,9.950218958E0
6.779109180E-1,1.570500135E-1,4.468950272E0,8.907000542E0,9.966485834E0
6.798739730E-1,1.960500032E-1,4.507050037E0,8.869050026E0,9.950476572E0
6.818370740E-1,1.570500135E-1,4.468950272E0,8.944950104E0,1.000041567E1
6.838002810E-1,1.570500135E-1,4.468950272E0,8.907000542E0,9.966485834E0
6.857634570E-1,1.960500032E-1,4.468950272E0,8.944950104E0,1.000110416E1
6.877267510E-1,1.570500135E-1,4.468950272E0,8.907000542E0,9.966485834E0
6.896900040E-1,1.570500135E-1,4.431000233E0,8.944950104E0,9.983514418E0
6.916532320E-1,1.189500093E-1,4.468950272E0,8.944950104E0,9.999889899E0
6.936164680E-1,1.189500093E-1,4.507050037E0,8.907000542E0,9.983101111E0
6.955796530E-1,8.100000024E-2,4.468950272E0,8.907000542E0,9.965577564E0
6.975428530E-1,8.100000024E-2,4.507050037E0,8.944950104E0,1.001659590E1
6.995062640E-1,8.100000024E-2,4.507050037E0,8.944950104E0,1.001659590E1
7.014696160E-1,4.200000316E-2,4.507050037E0,8.907000542E0,9.982480788E0
7.034330510E-1,1.189500093E-1,4.545000076E0,8.907000542E0,1.000029167E1
7.053964620E-1,4.050000105E-3,4.507050037E0,8.944950104E0,1.001626921E1
7.073596630E-1,4.200000316E-2,4.507050037E0,8.907000542E0,9.982480788E0
7.093229250E-1,8.100000024E-2,4.507050037E0,8.944950104E0,1.001659590E1
7.112862820E-1,4.200000316E-2,4.545000076E0,8.907000542E0,9.999672412E0
7.132496450E-1,4.200000316E-2,4.507050037E0,8.907000542E0,9.982480788E0
7.152132140E-1,8.100000024E-2,4.468950272E0,8.830050468E0,9.896861563E0
7.171767220E-1,1.189500093E-1,4.545000076E0,8.869050026E0,9.966505063E0
7.191400860E-1,1.189500093E-1,4.507050037E0,8.907000542E0,9.983101111E0
7.211034930E-1,8.100000024E-2,4.507050037E0,8.869050026E0,9.948874781E0
7.230668590E-1,8.100000024E-2,4.507050037E0,8.830050468E0,9.914123880E0
7.250302470E-1,8.100000024E-2,4.468950272E0,8.791950226E0,9.862883265E0
7.269937650E-1,1.189500093E-1,4.507050037E0,8.830050468E0,9.914506565E0
7.289572450E-1,1.189500093E-1,4.507050037E0,8.754000664E0,9.846835876E0
7.309206590E-1,1.570500135E-1,4.468950272E0,8.791950226E0,9.863800992E0
7.328840930E-1,1.570500135E-1,4.468950272E0,8.830050468E0,9.897776140E0
7.348478130E-1,1.570500135E-1,4.468950272E0,8.869050026E0,9.932584236E0
7.368114280E-1,1.570500135E-1,4.468950272E0,8.791950226E0,9.863800992E0
7.387746390E-1,1.570500135E-1,4.431000233E0,8.754000664E0,9.812795493E0
7.407379680E-1,1.570500135E-1,4.468950272E0,8.791950226E0,9.863800992E0
7.427013160E-1,2.340000123E-1,4.468950272E0,8.791950226E0,9.865326214E0
7.446646590E-1,1.960500032E-1,4.431000233E0,8.791950226E0,9.847364492E0
7.466280720E-1,2.340000123E-1,4.468950272E0,8.754000664E0,9.831520745E0
7.485914810E-1,1.960500032E-1,4.431000233E0,8.791950226E0,9.847364492E0
7.505544570E-1,2.340000123E-1,4.431000233E0,8.791950226E0,9.848193126E0
7.525175600E-1,2.340000123E-1,4.431000233E0,8.830050468E0,9.882221934E0
7.544806770E-1,1.960500032E-1,4.507050037E0,8.791950226E0,9.881817870E0
7.564437890E-1,1.960500032E-1,4.431000233E0,8.791950226E0,9.847364492E0
7.584066810E-1,2.340000123E-1,4.507050037E0,8.869050026E0,9.951296619E0
7.603696370E-1,2.340000123E-1,4.468950272E0,8.830050468E0,9.899296127E0
7.623332740E-1,2.340000123E-1,4.507050037E0,8.830050468E0,9.916554206E0
7.642967120E-1,2.340000123E-1,4.468950272E0,8.791950226E0,9.865326214E0
7.662600430E-1,2.340000123E-1,4.507050037E0,8.791950226E0,9.882643615E0
7.682234060E-1,2.340000123E-1,4.507050037E0,8.869050026E0,9.951296619E0
7.701864290E-1,1.570500135E-1,4.468950272E0,8.830050468E0,9.897776140E0
7.721495550E-1,1.570500135E-1,4.507050037E0,8.869050026E0,9.949784576E0
7.741128020E-1,1.960500032E-1,4.545000076E0,8.830050468E0,9.933038436E0
7.760760140E-1,1.960500032E-1,4.545000076E0,8.830050468E0,9.933038436E0
7.780391140E-1,1.960500032E-1,4.507050037E0,8.869050026E0,9.950476572E0
7.800022470E-1,1.570500135E-1,4.507050037E0,8.830050468E0,9.915036864E0
7.819658400E-1,1.570500135E-1,4.545000076E0,8.830050468E0,9.932345225E0
7.839293080E-1,1.960500032E-1,4.507050037E0,8.869050026E0,9.950476572E0
7.858928140E-1,1.960500032E-1,4.545000076E0,8.830050468E0,9.933038436E0
7.878563080E-1,1.960500032E-1,4.507050037E0,8.869050026E0,9.950476572E0
7.898197200E-1,1.570500135E-1,4.507050037E0,8.869050026E0,9.949784576E0
7.917831560E-1,1.570500135E-1,4.507050037E0,8.907000542E0,9.983627767E0
7.937463160E-1,1.570500135E-1,4.507050037E0,8.907000542E0,9.983627767E0
7.957095500E-1,1.960500032E-1,4.507050037E0,8.944950104E0,1.001818686E1
7.976726450E-1,2.340000123E-1,4.507050037E0,9.022050858E0,1.008789660E1
7.996357810E-1,1.960500032E-1,4.468950272E0,9.022050858E0,1.007012184E1
8.015988030E-1,1.570500135E-1,4.468950272E0,8.944950104E0,1.000041567E1
8.035618580E-1,1.570500135E-1,4.468950272E0,9.022050858E0,1.006943806E1
8.055253430E-1,1.960500032E-1,4.468950272E0,9.022050858E0,1.007012184E1
8.074887020E-1,1.960500032E-1,4.507050037E0,8.983950615E0,1.005302463E1
8.094515510E-1,1.570500135E-1,4.507050037E0,9.022050858E0,1.008640503E1
8.114145500E-1,1.570500135E-1,4.468950272E0,9.060000420E0,1.010345430E1
8.133778200E-1,1.570500135E-1,4.468950272E0,9.136950493E0,1.017251422E1
8.153410100E-1,1.570500135E-1,4.468950272E0,9.098999977E0,1.013844080E1
8.173041880E-1,1.570500135E-1,4.468950272E0,9.098999977E0,1.013844080E1
8.192673800E-1,1.570500135E-1,4.468950272E0,9.060000420E0,1.010345430E1
8.212306180E-1,1.570500135E-1,4.507050037E0,9.060000420E0,1.012036424E1
8.231938420E-1,1.570500135E-1,4.431000233E0,9.060000420E0,1.008672570E1
8.251574350E-1,1.570500135E-1,4.468950272E0,9.022050858E0,1.006943806E1
8.271209190E-1,1.189500093E-1,4.468950272E0,9.098999977E0,1.013792218E1
8.290843020E-1,1.189500093E-1,4.468950272E0,9.060000420E0,1.010293389E1
8.310477040E-1,1.570500135E-1,4.431000233E0,9.060000420E0,1.008672570E1
8.330107700E-1,1.189500093E-1,4.431000233E0,9.022050858E0,1.005212982E1
8.349739350E-1,1.570500135E-1,4.431000233E0,9.060000420E0,1.008672570E1
8.369376710E-1,1.570500135E-1,4.468950272E0,8.983950615E0,1.003531514E1
8.389012400E-1,1.570500135E-1,4.431000233E0,8.983950615E0,1.001847276E1
8.408646150E-1,1.189500093E-1,4.392000198E0,8.983950615E0,1.000075915E1
8.428280320E-1,1.189500093E-1,4.431000233E0,8.944950104E0,9.982987755E0
8.447914110E-1,1.570500135E-1,4.431000233E0,8.983950615E0,1.001847276E1
8.467548010E-1,1.570500135E-1,4.392000198E0,8.944950104E0,9.966266242E0
8.487182290E-1,1.570500135E-1,4.468950272E0,8.983950615E0,1.003531514E1
8.506816450E-1,1.570500135E-1,4.431000233E0,8.944950104E0,9.983514418E0
8.526448490E-1,1.570500135E-1,4.392000198E0,8.983950615E0,1.000128487E1
8.546081130E-1,1.570500135E-1,4.431000233E0,8.983950615E0,1.001847276E1
8.565715170E-1,1.570500135E-1,4.392000198E0,8.983950615E0,1.000128487E1
8.585348800E-1,1.570500135E-1,4.468950272E0,8.983950615E0,1.003531514E1
8.604980890E-1,1.960500032E-1,4.392000198E0,8.983950615E0,1.000197331E1
8.624613430E-1,1.960500032E-1,4.431000233E0,9.022050858E0,1.005333777E1
8.644247440E-1,1.960500032E-1,4.431000233E0,8.944950104E0,9.984204076E0
8.663881060E-1,1.570500135E-1,4.392000198E0,8.944950104E0,9.966266242E0
8.683516300E-1,1.960500032E-1,4.431000233E0,8.907000542E0,9.950218958E0
8.703151060E-1,2.340000123E-1,4.431000233E0,8.907000542E0,9.951039027E0
8.722787000E-1,1.960500032E-1,4.431000233E0,8.944950104E0,9.984204076E0
8.742422590E-1,1.960500032E-1,4.431000233E0,8.869050026E0,9.916261747E0
8.762056010E-1,1.960500032E-1,4.431000233E0,8.869050026E0,9.916261747E0
8.781690170E-1,1.570500135E-1,4.468950272E0,8.869050026E0,9.932584236E0
8.801327100E-1,1.960500032E-1,4.431000233E0,8.830050468E0,9.881396153E0
8.820963220E-1,1.960500032E-1,4.468950272E0,8.791950226E0,9.864499020E0
8.840594890E-1,1.960500032E-1,4.431000233E0,8.830050468E0,9.881396153E0
8.860227860E-1,1.960500032E-1,4.468950272E0,8.791950226E0,9.864499020E0
8.879862300E-1,1.960500032E-1,4.468950272E0,8.754000664E0,9.830690706E0
8.899496300E-1,1.570500135E-1,4.468950272E0,8.791950226E0,9.863800992E0
8.919131470E-1,1.960500032E-1,4.507050037E0,8.754000664E0,9.848069012E0
8.938766300E-1,1.570500135E-1,4.507050037E0,8.754000664E0,9.847369820E0
8.958398190E-1,1.960500032E-1,4.468950272E0,8.715000153E0,9.795977735E0
8.978030940E-1,1.570500135E-1,4.468950272E0,8.715000153E0,9.795274825E0
8.997662100E-1,1.570500135E-1,4.468950272E0,8.791950226E0,9.863800992E0
9.017293530E-1,1.570500135E-1,4.507050037E0,8.715000153E0,9.812715853E0
9.036927780E-1,1.570500135E-1,4.507050037E0,8.791950226E0,9.881121066E0
9.056561210E-1,1.189500093E-1,4.507050037E0,8.791950226E0,9.880588946E0
9.076191530E-1,1.960500032E-1,4.507050037E0,8.791950226E0,9.881817870E0
9.095822770E-1,1.570500135E-1,4.507050037E0,8.754000664E0,9.847369820E0
9.115455390E-1,1.960500032E-1,4.507050037E0,8.869050026E0,9.950476572E0
9.135087500E-1,1.570500135E-1,4.507050037E0,8.791950226E0,9.881121066E0
9.154721640E-1,1.189500093E-1,4.545000076E0,8.791950226E0,9.897957545E0
9.174355190E-1,1.570500135E-1,4.507050037E0,8.791950226E0,9.881121066E0
9.193990890E-1,1.570500135E-1,4.545000076E0,8.791950226E0,9.898488732E0
9.213625960E-1,1.570500135E-1,4.468950272E0,8.791950226E0,9.863800992E0
9.233260480E-1,1.570500135E-1,4.507050037E0,8.754000664E0,9.847369820E0
9.252895500E-1,1.570500135E-1,4.507050037E0,8.791950226E0,9.881121066E0
9.272530940E-1,1.189500093E-1,4.507050037E0,8.754000664E0,9.846835876E0
9.292166250E-1,1.570500135E-1,4.545000076E0,8.715000153E0,9.830204375E0
9.311798060E-1,1.189500093E-1,4.545000076E0,8.791950226E0,9.897957545E0
9.331430890E-1,8.100000024E-2,4.584000111E0,8.715000153E0,9.847377604E0
9.351061740E-1,1.570500135E-1,4.545000076E0,8.754000664E0,9.864796907E0
9.370692860E-1,1.189500093E-1,4.545000076E0,8.791950226E0,9.897957545E0
9.390327610E-1,1.189500093E-1,4.545000076E0,8.791950226E0,9.897957545E0
9.409961300E-1,8.100000024E-2,4.584000111E0,8.791950226E0,9.915543696E0
9.429595170E-1,8.100000024E-2,4.545000076E0,8.791950226E0,9.897574221E0
9.449228990E-1,1.189500093E-1,4.545000076E0,8.791950226E0,9.897957545E0
9.468862840E-1,8.100000024E-2,4.545000076E0,8.830050468E0,9.931433832E0
9.488496680E-1,8.100000024E-2,4.545000076E0,8.830050468E0,9.931433832E0
9.508133680E-1,8.100000024E-2,4.507050037E0,8.830050468E0,9.914123880E0
9.527769760E-1,8.100000024E-2,4.545000076E0,8.791950226E0,9.897574221E0
9.547405040E-1,8.100000024E-2,4.545000076E0,8.869050026E0,9.966124375E0
9.567040550E-1,8.100000024E-2,4.507050037E0,8.830050468E0,9.914123880E0
9.586674160E-1,1.189500093E-1,4.507050037E0,8.830050468E0,9.914506565E0
9.606308290E-1,1.189500093E-1,4.545000076E0,8.869050026E0,9.966505063E0
9.625940740E-1,1.189500093E-1,4.507050037E0,8.907000542E0,9.983101111E0
9.645573680E-1,1.189500093E-1,4.507050037E0,8.907000542E0,9.983101111E0
9.665205880E-1,1.570500135E-1,4.468950272E0,8.944950104E0,1.000041567E1
9.684838290E-1,1.570500135E-1,4.468950272E0,8.944950104E0,1.000041567E1
9.704468880E-1,1.570500135E-1,4.468950272E0,8.907000542E0,9.966485834E0
9.724099930E-1,1.570500135E-1,4.468950272E0,8.944950104E0,1.000041567E1
9.743731990E-1,1.570500135E-1,4.468950272E0,8.944950104E0,1.000041567E1
9.763363760E-1,1.570500135E-1,4.468950272E0,8.983950615E0,1.003531514E1
9.782996610E-1,1.570500135E-1,4.431000233E0,8.944950104E0,9.983514418E0
9.802629140E-1,1.189500093E-1,4.431000233E0,8.983950615E0,1.001794793E1
9.822264650E-1,1.189500093E-1,4.468950272E0,8.944950104E0,9.999889899E0
9.841899230E-1,8.100000024E-2,4.468950272E0,8.944950104E0,9.999510482E0
9.861529810E-1,1.189500093E-1,4.468950272E0,8.983950615E0,1.003479119E1
9.881161560E-1,1.189500093E-1,4.431000233E0,8.983950615E0,1.001794793E1
9.900793500E-1,1.189500093E-1,4.468950272E0,8.983950615E0,1.003479119E1
9.920425390E-1,1.570500135E-1,4.468950272E0,8.944950104E0,1.000041567E1
9.940057770E-1,1.570500135E-1,4.468950272E0,8.944950104E0,1.000041567E1
9.959690000E-1,1.570500135E-1,4.468950272E0,8.983950615E0,1.003531514E1
9.979320530E-1,1.189500093E-1,4.468950272E0,8.907000542E0,9.965958272E0
9.998951560E-1,1.189500093E-1,4.431000233E0,8.907000542E0,9.948998483E0
1.001858588E0,1.570500135E-1,4.507050037E0,8.907000542E0,9.983627767E0
1.003821923E0,1.960500032E-1,4.468950272E0,8.869050026E0,9.933277430E0
1.005785580E0,1.189500093E-1,4.468950272E0,8.907000542E0,9.965958272E0
1.007749115E0,1.960500032E-1,4.468950272E0,8.944950104E0,1.000110416E1
1.009712115E0,1.189500093E-1,4.468950272E0,8.869050026E0,9.932054873E0
1.011675271E0,1.570500135E-1,4.507050037E0,8.907000542E0,9.983627767E0
1.013638694E0,1.960500032E-1,4.507050037E0,8.907000542E0,9.984317417E0
1.015602038E0,1.960500032E-1,4.507050037E0,8.907000542E0,9.984317417E0
1.017565731E0,1.189500093E-1,4.468950272E0,8.869050026E0,9.932054873E0
1.019529332E0,1.570500135E-1,4.468950272E0,8.944950104E0,1.000041567E1
1.021492861E0,1.570500135E-1,4.468950272E0,8.907000542E0,9.966485834E0
1.023456411E0,1.570500135E-1,4.507050037E0,8.944950104E0,1.001749954E1
1.025419812E0,1.189500093E-1,4.468950272E0,8.907000542E0,9.965958272E0
1.027383257E0,1.960500032E-1,4.468950272E0,8.944950104E0,1.000110416E1
1.029346617E0,1.960500032E-1,4.431000233E0,8.944950104E0,9.984204076E0
1.031310012E0,1.570500135E-1,4.468950272E0,8.944950104E0,1.000041567E1
1.033273350E0,1.960500032E-1,4.468950272E0,8.944950104E0,1.000110416E1
1.035236704E0,1.960500032E-1,4.507050037E0,8.907000542E0,9.984317417E0
1.037199778E0,1.570500135E-1,4.431000233E0,8.944950104E0,9.983514418E0
1.039162935E0,1.960500032E-1,4.431000233E0,8.907000542E0,9.950218958E0
1.041126488E0,2.340000123E-1,4.507050037E0,8.944950104E0,1.001900137E1
1.043089928E0,1.570500135E-1,4.468950272E0,8.944950104E0,1.000041567E1
1.045053124E0,1.189500093E-1,4.468950272E0,8.944950104E0,9.999889899E0
1.047016392E0,1.570500135E-1,4.468950272E0,8.944950104E0,1.000041567E1
1.048979660E0,1.570500135E-1,4.468950272E0,8.944950104E0,1.000041567E1
1.050942928E0,1.570500135E-1,4.468950272E0,8.907000542E0,9.966485834E0
1.052906158E0,1.570500135E-1,4.507050037E0,8.907000542E0,9.983627767E0
1.054869396E0,1.570500135E-1,4.431000233E0,8.907000542E0,9.949526944E0
1.056832759E0,1.570500135E-1,4.507050037E0,8.907000542E0,9.983627767E0
1.058796086E0,1.570500135E-1,4.507050037E0,8.907000542E0,9.983627767E0
1.060759480E0,1.570500135E-1,4.468950272E0,8.830050468E0,9.897776140E0
1.062722855E0,1.189500093E-1,4.507050037E0,8.791950226E0,9.880588946E0
1.064686437E0,1.570500135E-1,4.507050037E0,8.869050026E0,9.949784576E0
1.066649947E0,1.189500093E-1,4.507050037E0,8.869050026E0,9.949256128E0
1.068613356E0,1.570500135E-1,4.507050037E0,8.907000542E0,9.983627767E0
1.070576795E0,1.189500093E-1,4.507050037E0,8.907000542E0,9.983101111E0
1.072539945E0,1.570500135E-1,4.507050037E0,8.830050468E0,9.915036864E0
1.074503180E0,1.570500135E-1,4.545000076E0,8.907000542E0,1.000081742E1
1.076466487E0,1.570500135E-1,4.507050037E0,8.830050468E0,9.915036864E0
1.078429750E0,1.960500032E-1,4.507050037E0,8.830050468E0,9.915731285E0
1.080392796E0,1.960500032E-1,4.545000076E0,8.869050026E0,9.967723394E0
1.082355905E0,1.189500093E-1,4.584000111E0,8.869050026E0,9.984350479E0
1.084318976E0,1.570500135E-1,4.507050037E0,8.869050026E0,9.949784576E0
1.086282059E0,1.570500135E-1,4.545000076E0,8.869050026E0,9.967032596E0
1.088244959E0,1.960500032E-1,4.507050037E0,8.907000542E0,9.984317417E0
1.090207910E0,1.570500135E-1,4.545000076E0,8.907000542E0,1.000081742E1
1.092171143E0,1.570500135E-1,4.545000076E0,8.830050468E0,9.932345225E0
1.094134293E0,1.570500135E-1,4.584000111E0,8.830050468E0,9.950251906E0
1.096097538E0,1.570500135E-1,4.545000076E0,8.830050468E0,9.932345225E0
1.098060755E0,1.570500135E-1,4.507050037E0,8.869050026E0,9.949784576E0
1.100023859E0,1.570500135E-1,4.545000076E0,8.830050468E0,9.932345225E0
1.101986992E0,1.189500093E-1,4.545000076E0,8.869050026E0,9.966505063E0
1.103950239E0,8.100000024E-2,4.545000076E0,8.869050026E0,9.966124375E0
1.105913452E0,1.189500093E-1,4.545000076E0,8.869050026E0,9.966505063E0
1.107876462E0,1.189500093E-1,4.545000076E0,8.869050026E0,9.966505063E0
1.109839531E0,1.189500093E-1,4.545000076E0,8.869050026E0,9.966505063E0
1.111802867E0,1.189500093E-1,4.545000076E0,8.791950226E0,9.897957545E0
1.113766101E0,8.100000024E-2,4.545000076E0,8.869050026E0,9.966124375E0
1.115729647E0,8.100000024E-2,4.545000076E0,8.869050026E0,9.966124375E0
1.117693101E0,8.100000024E-2,4.545000076E0,8.869050026E0,9.966124375E0
1.119656475E0,1.189500093E-1,4.507050037E0,8.869050026E0,9.949256128E0
1.121619873E0,8.100000024E-2,4.545000076E0,8.907000542E0,9.999912267E0
1.123583474E0,4.200000316E-2,4.545000076E0,8.907000542E0,9.999672412E0
1.125547019E0,4.200000316E-2,4.507050037E0,8.907000542E0,9.982480788E0
1.127510378E0,1.189500093E-1,4.507050037E0,8.907000542E0,9.983101111E0
1.129473791E0,1.189500093E-1,4.507050037E0,8.907000542E0,9.983101111E0
1.131437530E0,8.100000024E-2,4.507050037E0,8.944950104E0,1.001659590E1
1.133401173E0,1.189500093E-1,4.507050037E0,8.944950104E0,1.001697467E1
1.135364500E0,4.200000316E-2,4.507050037E0,8.983950615E0,1.005120056E1
1.137327930E0,1.570500135E-1,4.507050037E0,8.907000542E0,9.983627767E0
1.139291486E0,1.189500093E-1,4.468950272E0,8.944950104E0,9.999889899E0
1.141255005E0,1.189500093E-1,4.431000233E0,8.944950104E0,9.982987755E0
1.143218503E0,1.570500135E-1,4.507050037E0,8.944950104E0,1.001749954E1
1.145182007E0,1.570500135E-1,4.431000233E0,8.907000542E0,9.949526944E0
1.147145397E0,1.189500093E-1,4.431000233E0,8.944950104E0,9.982987755E0
1.149108834E0,8.100000024E-2,4.468950272E0,8.907000542E0,9.965577564E0
1.151072389E0,1.960500032E-1,4.468950272E0,8.907000542E0,9.967176671E0
1.153035909E0,1.570500135E-1,4.468950272E0,8.944950104E0,1.000041567E1
1.154999271E0,1.189500093E-1,4.468950272E0,8.869050026E0,9.932054873E0
1.156962680E0,1.570500135E-1,4.468950272E0,8.869050026E0,9.932584236E0
1.158926428E0,1.570500135E-1,4.431000233E0,8.869050026E0,9.915567363E0
1.160890071E0,1.570500135E-1,4.468950272E0,8.869050026E0,9.932584236E0
1.162853772E0,1.960500032E-1,4.468950272E0,8.830050468E0,9.898471771E0
1.164817456E0,1.570500135E-1,4.431000233E0,8.830050468E0,9.880699320E0
1.166781150E0,1.189500093E-1,4.468950272E0,8.754000664E0,9.829455390E0
1.168744841E0,1.189500093E-1,4.468950272E0,8.830050468E0,9.897244915E0
1.170708480E0,1.570500135E-1,4.468950272E0,8.791950226E0,9.863800992E0
1.172672141E0,1.960500032E-1,4.468950272E0,8.830050468E0,9.898471771E0
1.174635704E0,1.570500135E-1,4.468950272E0,8.754000664E0,9.829990278E0
1.176599295E0,1.189500093E-1,4.468950272E0,8.830050468E0,9.897244915E0
1.178563184E0,1.570500135E-1,4.468950272E0,8.754000664E0,9.829990278E0
1.180526986E0,1.570500135E-1,4.468950272E0,8.754000664E0,9.829990278E0
1.182490634E0,1.570500135E-1,4.507050037E0,8.830050468E0,9.915036864E0
1.184454314E0,1.960500032E-1,4.507050037E0,8.754000664E0,9.848069012E0
1.186417828E0,1.570500135E-1,4.468950272E0,8.830050468E0,9.897776140E0
1.188381391E0,1.960500032E-1,4.507050037E0,8.715000153E0,9.813417514E0
1.190344745E0,1.960500032E-1,4.468950272E0,8.791950226E0,9.864499020E0
1.192308160E0,1.570500135E-1,4.468950272E0,8.791950226E0,9.863800992E0
1.194271750E0,1.570500135E-1,4.468950272E0,8.791950226E0,9.863800992E0
1.196235298E0,1.960500032E-1,4.468950272E0,8.830050468E0,9.898471771E0
1.198198836E0,1.570500135E-1,4.468950272E0,8.791950226E0,9.863800992E0
1.200162377E0,1.570500135E-1,4.507050037E0,8.830050468E0,9.915036864E0
1.202125870E0,1.570500135E-1,4.468950272E0,8.830050468E0,9.897776140E0
1.204089377E0,1.570500135E-1,4.468950272E0,8.754000664E0,9.829990278E0
1.206053135E0,1.570500135E-1,4.507050037E0,8.791950226E0,9.881121066E0
1.208016827E0,1.960500032E-1,4.507050037E0,8.791950226E0,9.881817870E0
1.209980295E0,1.570500135E-1,4.468950272E0,8.830050468E0,9.897776140E0
1.211943829E0,1.960500032E-1,4.468950272E0,8.830050468E0,9.898471771E0
1.213907367E0,1.960500032E-1,4.507050037E0,8.830050468E0,9.915731285E0
1.215870904E0,1.570500135E-1,4.507050037E0,8.830050468E0,9.915036864E0
1.217833957E0,1.570500135E-1,4.468950272E0,8.830050468E0,9.897776140E0
1.219797146E0,2.340000123E-1,4.507050037E0,8.791950226E0,9.882643615E0
1.221760698E0,1.960500032E-1,4.507050037E0,8.869050026E0,9.950476572E0
1.223724144E0,1.570500135E-1,4.468950272E0,8.830050468E0,9.897776140E0
1.225687743E0,1.960500032E-1,4.507050037E0,8.869050026E0,9.950476572E0
1.227651297E0,1.570500135E-1,4.507050037E0,8.907000542E0,9.983627767E0
1.229614761E0,1.960500032E-1,4.507050037E0,8.869050026E0,9.950476572E0
1.231578271E0,1.570500135E-1,4.507050037E0,8.869050026E0,9.949784576E0
1.233541680E0,1.960500032E-1,4.468950272E0,8.907000542E0,9.967176671E0
1.235505118E0,1.570500135E-1,4.507050037E0,8.869050026E0,9.949784576E0
1.237468493E0,1.570500135E-1,4.507050037E0,8.944950104E0,1.001749954E1
1.239431887E0,1.960500032E-1,4.507050037E0,8.944950104E0,1.001818686E1
1.241395599E0,1.570500135E-1,4.468950272E0,8.907000542E0,9.966485834E0
1.243359207E0,1.960500032E-1,4.468950272E0,8.944950104E0,1.000110416E1
1.245322734E0,1.960500032E-1,4.507050037E0,8.944950104E0,1.001818686E1
1.247286285E0,1.570500135E-1,4.507050037E0,8.944950104E0,1.001749954E1
1.249249641E0,1.960500032E-1,4.468950272E0,8.944950104E0,1.000110416E1
1.251213055E0,1.570500135E-1,4.468950272E0,8.944950104E0,1.000041567E1
1.253176304E0,1.189500093E-1,4.468950272E0,8.944950104E0,9.999889899E0
1.255139598E0,1.960500032E-1,4.468950272E0,8.907000542E0,9.967176671E0
1.257103313E0,1.960500032E-1,4.431000233E0,8.983950615E0,1.001916001E1
1.259066904E0,1.189500093E-1,4.468950272E0,8.983950615E0,1.003479119E1
1.261030299E0,1.189500093E-1,4.468950272E0,8.944950104E0,9.999889899E0
1.262993752E0,1.189500093E-1,4.431000233E0,8.944950104E0,9.982987755E0
1.264957110E0,1.189500093E-1,4.468950272E0,8.983950615E0,1.003479119E1
1.266920506E0,1.189500093E-1,4.431000233E0,8.907000542E0,9.948998483E0
1.268883709E0,1.960500032E-1,4.468950272E0,8.983950615E0,1.003600123E1
1.270846968E0,1.570500135E-1,4.507050037E0,8.944950104E0,1.001749954E1
1.272810733E0,1.570500135E-1,4.431000233E0,9.022050858E0,1.005265286E1
1.274774350E0,1.570500135E-1,4.468950272E0,8.983950615E0,1.003531514E1
1.276737986E0,1.960500032E-1,4.468950272E0,8.983950615E0,1.003600123E1
1.278701634E0,1.570500135E-1,4.431000233E0,8.983950615E0,1.001847276E1
1.280664840E0,2.719500065E-1,4.468950272E0,8.983950615E0,1.003777077E1
1.282628175E0,1.960500032E-1,4.468950272E0,8.944950104E0,1.000110416E1
1.284591522E0,1.570500135E-1,4.431000233E0,8.983950615E0,1.001847276E1
1.286554865E0,1.570500135E-1,4.431000233E0,8.944950104E0,9.983514418E0
1.288518312E0,1.960500032E-1,4.431000233E0,8.944950104E0,9.984204076E0
1.290481721E0,1.960500032E-1,4.431000233E0,8.944950104E0,9.984204076E0
1.292445057E0,1.960500032E-1,4.431000233E0,8.944950104E0,9.984204076E0
1.294408415E0,1.960500032E-1,4.468950272E0,8.907000542E0,9.967176671E0
1.296371444E0,2.340000123E-1,4.468950272E0,8.907000542E0,9.967995344E0
1.298334569E0,2.340000123E-1,4.468950272E0,8.869050026E0,9.934098897E0
1.300297867E0,1.960500032E-1,4.468950272E0,8.944950104E0,1.000110416E1
1.302261111E0,2.340000123E-1,4.431000233E0,8.944950104E0,9.985021353E0
1.304224340E0,1.960500032E-1,4.468950272E0,8.907000542E0,9.967176671E0
1.306187574E0,1.570500135E-1,4.468950272E0,8.869050026E0,9.932584236E0
1.308150624E0,1.570500135E-1,4.468950272E0,8.907000542E0,9.966485834E0
1.310113728E0,1.960500032E-1,4.468950272E0,8.907000542E0,9.967176671E0
1.312077128E0,1.570500135E-1,4.507050037E0,8.944950104E0,1.001749954E1
1.314040432E0,1.570500135E-1,4.431000233E0,8.907000542E0,9.949526944E0
1.316003697E0,1.570500135E-1,4.468950272E0,8.869050026E0,9.932584236E0
1.317966973E0,1.570500135E-1,4.468950272E0,8.907000542E0,9.966485834E0
1.319930375E0,1.570500135E-1,4.468950272E0,8.869050026E0,9.932584236E0
1.321893740E0,1.570500135E-1,4.468950272E0,8.907000542E0,9.966485834E0
1.323857084E0,1.570500135E-1,4.468950272E0,8.907000542E0,9.966485834E0
1.325820434E0,1.570500135E-1,4.507050037E0,8.869050026E0,9.949784576E0
1.327783509E0,1.570500135E-1,4.468950272E0,8.830050468E0,9.897776140E0
1.329746665E0,1.570500135E-1,4.545000076E0,8.830050468E0,9.932345225E0
1.331710223E0,1.570500135E-1,4.468950272E0,8.869050026E0,9.932584236E0
1.333673663E0,1.189500093E-1,4.545000076E0,8.869050026E0,9.966505063E0
1.335636923E0,1.189500093E-1,4.507050037E0,8.869050026E0,9.949256128E0
1.337600223E0,1.189500093E-1,4.468950272E0,8.869050026E0,9.932054873E0
1.339563801E0,1.189500093E-1,4.468950272E0,8.830050468E0,9.897244915E0
1.341527298E0,1.570500135E-1,4.507050037E0,8.869050026E0,9.949784576E0
1.343490799E0,1.960500032E-1,4.468950272E0,8.907000542E0,9.967176671E0
1.345454298E0,8.100000024E-2,4.507050037E0,8.791950226E0,9.880204948E0
1.347417709E0,1.570500135E-1,4.507050037E0,8.830050468E0,9.915036864E0
1.349381146E0,1.189500093E-1,4.545000076E0,8.869050026E0,9.966505063E0
1.351344656E0,1.570500135E-1,4.507050037E0,8.869050026E0,9.949784576E0
1.353308144E0,8.100000024E-2,4.507050037E0,8.869050026E0,9.948874781E0
1.355271197E0,1.189500093E-1,4.507050037E0,8.869050026E0,9.949256128E0
1.357234377E0,1.189500093E-1,4.545000076E0,8.869050026E0,9.966505063E0
1.359197941E0,8.100000024E-2,4.545000076E0,8.830050468E0,9.931433832E0
1.361161385E0,1.570500135E-1,4.507050037E0,8.830050468E0,9.915036864E0
1.363124760E0,1.189500093E-1,4.507050037E0,8.830050468E0,9.914506565E0
1.365088156E0,1.570500135E-1,4.545000076E0,8.869050026E0,9.967032596E0
1.367051583E0,8.100000024E-2,4.545000076E0,8.830050468E0,9.931433832E0
1.369015000E0,1.189500093E-1,4.584000111E0,8.830050468E0,9.949723483E0
1.370978325E0,8.100000024E-2,4.507050037E0,8.830050468E0,9.914123880E0
1.372941684E0,8.100000024E-2,4.545000076E0,8.869050026E0,9.966124375E0
1.374905252E0,1.189500093E-1,4.584000111E0,8.869050026E0,9.984350479E0
1.376868759E0,1.189500093E-1,4.545000076E0,8.869050026E0,9.966505063E0
1.378832124E0,1.189500093E-1,4.545000076E0,8.869050026E0,9.966505063E0
1.380795531E0,1.570500135E-1,4.545000076E0,8.869050026E0,9.967032596E0
1.382759105E0,1.189500093E-1,4.507050037E0,8.869050026E0,9.949256128E0
1.384722620E0,1.570500135E-1,4.545000076E0,8.869050026E0,9.967032596E0
1.386685848E0,1.189500093E-1,4.545000076E0,8.830050468E0,9.931815850E0
1.388649161E0,1.189500093E-1,4.545000076E0,8.869050026E0,9.966505063E0
1.390612512E0,1.570500135E-1,4.545000076E0,8.869050026E0,9.967032596E0
1.392575851E0,1.189500093E-1,4.507050037E0,8.869050026E0,9.949256128E0
1.394539110E0,1.189500093E-1,4.507050037E0,8.830050468E0,9.914506565E0
1.396502392E0,8.100000024E-2,4.507050037E0,8.830050468E0,9.914123880E0
1.398465928E0,8.100000024E-2,4.507050037E0,8.869050026E0,9.948874781E0
1.400429390E0,1.189500093E-1,4.507050037E0,8.830050468E0,9.914506565E0
1.402392762E0,1.570500135E-1,4.545000076E0,8.830050468E0,9.932345225E0
1.404356161E0,8.100000024E-2,4.507050037E0,8.830050468E0,9.914123880E0
1.406319528E0,1.189500093E-1,4.468950272E0,8.791950226E0,9.863267938E0
1.408282915E0,8.100000024E-2,4.545000076E0,8.830050468E0,9.931433832E0
1.410246299E0,1.189500093E-1,4.507050037E0,8.791950226E0,9.880588946E0
1.412209684E0,8.100000024E-2,4.507050037E0,8.869050026E0,9.948874781E0
1.414172934E0,4.200000316E-2,4.545000076E0,8.830050468E0,9.931192324E0
1.416136223E0,8.100000024E-2,4.545000076E0,8.791950226E0,9.897574221E0
1.418099758E0,1.189500093E-1,4.507050037E0,8.791950226E0,9.880588946E0
1.420063221E0,1.189500093E-1,4.468950272E0,8.791950226E0,9.863267938E0
1.422026458E0,1.189500093E-1,4.507050037E0,8.791950226E0,9.880588946E0
1.423989761E0,1.189500093E-1,4.507050037E0,8.791950226E0,9.880588946E0
1.425952754E0,8.100000024E-2,4.507050037E0,8.791950226E0,9.880204948E0
1.427915838E0,1.189500093E-1,4.545000076E0,8.869050026E0,9.966505063E0
1.429878958E0,1.570500135E-1,4.507050037E0,8.830050468E0,9.915036864E0
1.431842067E0,1.570500135E-1,4.468950272E0,8.830050468E0,9.897776140E0
1.433805454E0,1.570500135E-1,4.468950272E0,8.869050026E0,9.932584236E0
1.435768759E0,1.960500032E-1,4.507050037E0,8.869050026E0,9.950476572E0
1.437732383E0,1.570500135E-1,4.468950272E0,8.869050026E0,9.932584236E0
1.439695913E0,1.189500093E-1,4.507050037E0,8.907000542E0,9.983101111E0
1.441659583E0,1.189500093E-1,4.507050037E0,8.869050026E0,9.949256128E0
1.443623216E0,1.570500135E-1,4.468950272E0,8.830050468E0,9.897776140E0
1.445586604E0,1.570500135E-1,4.507050037E0,8.830050468E0,9.915036864E0
1.447550064E0,1.570500135E-1,4.468950272E0,8.830050468E0,9.897776140E0
1.449513570E0,1.189500093E-1,4.468950272E0,8.791950226E0,9.863267938E0
1.451477062E0,1.570500135E-1,4.507050037E0,8.907000542E0,9.983627767E0
1.453440585E0,1.570500135E-1,4.431000233E0,8.791950226E0,9.846665250E0
1.455404115E0,1.960500032E-1,4.468950272E0,8.869050026E0,9.933277430E0
1.457367296E0,1.570500135E-1,4.468950272E0,8.907000542E0,9.966485834E0
1.459330579E0,1.570500135E-1,4.468950272E0,8.791950226E0,9.863800992E0
1.461294160E0,1.189500093E-1,4.507050037E0,8.791950226E0,9.880588946E0
1.463257654E0,1.189500093E-1,4.507050037E0,8.791950226E0,9.880588946E0
1.465221031E0,1.570500135E-1,4.507050037E0,8.869050026E0,9.949784576E0
1.467184435E0,1.570500135E-1,4.468950272E0,8.869050026E0,9.932584236E0
1.469147816E0,1.570500135E-1,4.468950272E0,8.791950226E0,9.863800992E0
1.471111204E0,8.100000024E-2,4.468950272E0,8.830050468E0,9.896861563E0
1.473074408E0,1.570500135E-1,4.468950272E0,8.830050468E0,9.897776140E0
1.475037666E0,1.570500135E-1,4.545000076E0,8.791950226E0,9.898488732E0
1.477000912E0,1.570500135E-1,4.468950272E0,8.830050468E0,9.897776140E0
1.478964178E0,1.570500135E-1,4.507050037E0,8.869050026E0,9.949784576E0
1.480927538E0,1.570500135E-1,4.545000076E0,8.791950226E0,9.898488732E0
1.482890870E0,1.570500135E-1,4.545000076E0,8.830050468E0,9.932345225E0
1.484854085E0,1.570500135E-1,4.468950272E0,8.830050468E0,9.897776140E0
1.486817334E0,1.570500135E-1,4.507050037E0,8.869050026E0,9.949784576E0
1.488780731E0,1.960500032E-1,4.507050037E0,8.830050468E0,9.915731285E0
1.490744091E0,1.960500032E-1,4.468950272E0,8.869050026E0,9.933277430E0
1.492707705E0,1.570500135E-1,4.468950272E0,8.869050026E0,9.932584236E0
1.494671245E0,1.960500032E-1,4.507050037E0,8.869050026E0,9.950476572E0
1.496635098E0,1.960500032E-1,4.431000233E0,8.869050026E0,9.916261747E0
1.498598860E0,1.960500032E-1,4.468950272E0,8.869050026E0,9.933277430E0
1.500562227E0,1.570500135E-1,4.507050037E0,8.830050468E0,9.915036864E0
1.502525709E0,1.960500032E-1,4.468950272E0,8.869050026E0,9.933277430E0
1.504489571E0,1.960500032E-1,4.507050037E0,8.907000542E0,9.984317417E0
1.506453322E0,1.960500032E-1,4.468950272E0,8.907000542E0,9.967176671E0
1.508416690E0,1.189500093E-1,4.468950272E0,8.830050468E0,9.897244915E0
1.510380170E0,1.960500032E-1,4.468950272E0,8.869050026E0,9.933277430E0
1.512343898E0,1.570500135E-1,4.507050037E0,8.907000542E0,9.983627767E0
1.514307553E0,1.570500135E-1,4.507050037E0,8.944950104E0,1.001749954E1
1.516271073E0,1.570500135E-1,4.468950272E0,8.907000542E0,9.966485834E0
1.518234632E0,1.960500032E-1,4.468950272E0,8.907000542E0,9.967176671E0
1.520198301E0,1.960500032E-1,4.468950272E0,8.944950104E0,1.000110416E1
1.522161937E0,1.570500135E-1,4.468950272E0,8.944950104E0,1.000041567E1
1.524125446E0,1.960500032E-1,4.468950272E0,8.944950104E0,1.000110416E1
1.526089002E0,1.189500093E-1,4.468950272E0,8.907000542E0,9.965958272E0
1.528052582E0,1.570500135E-1,4.468950272E0,8.907000542E0,9.966485834E0
1.530016154E0,1.570500135E-1,4.468950272E0,8.907000542E0,9.966485834E0
1.531979822E0,1.960500032E-1,4.468950272E0,8.944950104E0,1.000110416E1
1.533943462E0,1.570500135E-1,4.431000233E0,8.944950104E0,9.983514418E0
1.535907164E0,1.570500135E-1,4.431000233E0,8.907000542E0,9.949526944E0
1.537870847E0,1.570500135E-1,4.431000233E0,8.944950104E0,9.983514418E0
1.539834586E0,1.570500135E-1,4.431000233E0,8.907000542E0,9.949526944E0
1.541798308E0,1.570500135E-1,4.431000233E0,8.944950104E0,9.983514418E0
1.543762311E0,2.340000123E-1,4.468950272E0,8.983950615E0,1.003681429E1
1.545726231E0,1.960500032E-1,4.431000233E0,8.983950615E0,1.001916001E1
1.547689916E0,2.340000123E-1,4.468950272E0,8.944950104E0,1.000192006E1
1.549653680E0,1.960500032E-1,4.431000233E0,8.983950615E0,1.001916001E1
1.551617494E0,1.960500032E-1,4.431000233E0,8.944950104E0,9.984204076E0
1.553581293E0,1.960500032E-1,4.431000233E0,8.983950615E0,1.001916001E1
1.555545192E0,1.570500135E-1,4.431000233E0,8.983950615E0,1.001847276E1
1.557509062E0,8.100000024E-2,4.431000233E0,8.907000542E0,9.948617126E0
1.559472356E0,1.189500093E-1,4.468950272E0,8.983950615E0,1.003479119E1
1.561435825E0,1.189500093E-1,4.468950272E0,9.022050858E0,1.006891590E1
1.563399195E0,1.189500093E-1,4.507050037E0,8.944950104E0,1.001697467E1
1.565362594E0,8.100000024E-2,4.545000076E0,8.983950615E0,1.006851307E1
1.567326291E0,1.189500093E-1,4.507050037E0,9.022050858E0,1.008588374E1
1.569289900E0,1.189500093E-1,4.507050037E0,9.060000420E0,1.011984470E1
1.571253282E0,4.200000316E-2,4.545000076E0,9.022050858E0,1.010228644E1
1.573216738E0,8.100000024E-2,4.545000076E0,8.944950104E0,1.003372907E1
1.575180424E0,8.100000024E-2,4.507050037E0,8.907000542E0,9.982721056E0
1.577144043E0,8.100000024E-2,4.507050037E0,8.907000542E0,9.982721056E0
1.579107434E0,4.050000105E-3,4.545000076E0,8.983950615E0,1.006818806E1
1.581070892E0,8.100000024E-2,4.507050037E0,8.983950615E0,1.005143919E1
1.583034288E0,4.200000316E-2,4.468950272E0,8.907000542E0,9.965336882E0
1.584997685E0,4.200000316E-2,4.468950272E0,8.907000542E0,9.965336882E0
1.586960887E0,1.189500093E-1,4.507050037E0,8.944950104E0,1.001697467E1
1.588924146E0,8.100000024E-2,4.507050037E0,8.907000542E0,9.982721056E0
1.590887506E0,8.100000024E-2,4.431000233E0,8.907000542E0,9.948617126E0
1.592850837E0,1.189500093E-1,4.468950272E0,8.869050026E0,9.932054873E0
1.594813925E0,8.100000024E-2,4.468950272E0,8.869050026E0,9.931672865E0
1.596777078E0,1.189500093E-1,4.431000233E0,8.907000542E0,9.948998483E0
1.598740636E0,1.189500093E-1,4.468950272E0,8.869050026E0,9.932054873E0
1.600704076E0,1.570500135E-1,4.431000233E0,8.869050026E0,9.915567363E0
1.602667453E0,1.570500135E-1,4.507050037E0,8.869050026E0,9.949784576E0
1.604630848E0,1.570500135E-1,4.507050037E0,8.869050026E0,9.949784576E0
1.606594290E0,1.570500135E-1,4.507050037E0,8.869050026E0,9.949784576E0
1.608557707E0,1.960500032E-1,4.431000233E0,8.907000542E0,9.950218958E0
1.610521087E0,2.340000123E-1,4.468950272E0,8.869050026E0,9.934098897E0
1.612484478E0,1.960500032E-1,4.468950272E0,8.869050026E0,9.933277430E0
1.614448041E0,1.960500032E-1,4.468950272E0,8.869050026E0,9.933277430E0
1.616411553E0,1.960500032E-1,4.431000233E0,8.830050468E0,9.881396153E0
1.618375052E0,1.960500032E-1,4.431000233E0,8.791950226E0,9.847364492E0
1.620338555E0,1.960500032E-1,4.507050037E0,8.830050468E0,9.915731285E0
1.622301739E0,1.960500032E-1,4.468950272E0,8.791950226E0,9.864499020E0
1.624265017E0,1.570500135E-1,4.507050037E0,8.791950226E0,9.881121066E0
1.626228464E0,1.570500135E-1,4.468950272E0,8.791950226E0,9.863800992E0
1.628191861E0,1.570500135E-1,4.507050037E0,8.754000664E0,9.847369820E0
1.630155170E0,1.960500032E-1,4.545000076E0,8.754000664E0,9.865494864E0
1.632118526E0,1.960500032E-1,4.507050037E0,8.754000664E0,9.848069012E0
1.634081914E0,1.189500093E-1,4.545000076E0,8.715000153E0,9.829669499E0
1.636045293E0,1.189500093E-1,4.545000076E0,8.791950226E0,9.897957545E0
1.638008679E0,1.960500032E-1,4.545000076E0,8.791950226E0,9.899184313E0
1.639972063E0,1.570500135E-1,4.545000076E0,8.791950226E0,9.898488732E0
1.641935618E0,1.570500135E-1,4.545000076E0,8.830050468E0,9.932345225E0
1.643899129E0,1.570500135E-1,4.545000076E0,8.791950226E0,9.898488732E0
1.645862853E0,1.189500093E-1,4.545000076E0,8.754000664E0,9.864263907E0
1.647826514E0,1.570500135E-1,4.584000111E0,8.869050026E0,9.984877069E0
1.649790033E0,1.189500093E-1,4.584000111E0,8.791950226E0,9.915926325E0
1.651753593E0,1.189500093E-1,4.545000076E0,8.830050468E0,9.931815850E0
1.653717331E0,1.570500135E-1,4.545000076E0,8.830050468E0,9.932345225E0
1.655681000E0,1.570500135E-1,4.545000076E0,8.754000664E0,9.864796907E0
1.657644517E0,1.570500135E-1,4.507050037E0,8.830050468E0,9.915036864E0
1.659608079E0,1.570500135E-1,4.545000076E0,8.830050468E0,9.932345225E0
1.661571433E0,1.189500093E-1,4.545000076E0,8.830050468E0,9.931815850E0
1.663534848E0,1.570500135E-1,4.545000076E0,8.830050468E0,9.932345225E0
1.665498246E0,1.570500135E-1,4.545000076E0,8.830050468E0,9.932345225E0
1.667461636E0,1.189500093E-1,4.507050037E0,8.869050026E0,9.949256128E0
1.669424704E0,1.189500093E-1,4.545000076E0,8.830050468E0,9.931815850E0
1.671387867E0,1.570500135E-1,4.507050037E0,8.869050026E0,9.949784576E0
1.673351424E0,1.570500135E-1,4.507050037E0,8.869050026E0,9.949784576E0
1.675314865E0,1.570500135E-1,4.507050037E0,8.907000542E0,9.983627767E0
1.677278258E0,1.960500032E-1,4.545000076E0,8.830050468E0,9.933038436E0
1.679241685E0,1.189500093E-1,4.545000076E0,8.869050026E0,9.966505063E0
1.681205422E0,1.570500135E-1,4.507050037E0,8.907000542E0,9.983627767E0
1.683169068E0,1.960500032E-1,4.468950272E0,8.830050468E0,9.898471771E0
1.685132589E0,1.960500032E-1,4.507050037E0,8.869050026E0,9.950476572E0
1.687096147E0,1.570500135E-1,4.468950272E0,8.869050026E0,9.932584236E0
1.689059682E0,1.570500135E-1,4.468950272E0,8.869050026E0,9.932584236E0
1.691023224E0,1.189500093E-1,4.468950272E0,8.869050026E0,9.932054873E0
1.692986896E0,1.189500093E-1,4.468950272E0,8.869050026E0,9.932054873E0
1.694950529E0,1.570500135E-1,4.507050037E0,8.869050026E0,9.949784576E0
1.696913917E0,1.189500093E-1,4.507050037E0,8.907000542E0,9.983101111E0
1.698877377E0,1.189500093E-1,4.468950272E0,8.869050026E0,9.932054873E0
1.700840923E0,1.189500093E-1,4.431000233E0,8.907000542E0,9.948998483E0
1.702804447E0,1.570500135E-1,4.431000233E0,8.907000542E0,9.949526944E0
1.704767809E0,1.960500032E-1,4.468950272E0,8.907000542E0,9.967176671E0
1.706731219E0,1.570500135E-1,4.468950272E0,8.907000542E0,9.966485834E0
1.708694733E0,1.570500135E-1,4.431000233E0,8.907000542E0,9.949526944E0
1.710658217E0,1.570500135E-1,4.468950272E0,8.944950104E0,1.000041567E1
1.712621764E0,1.570500135E-1,4.431000233E0,8.944950104E0,9.983514418E0
1.714585293E0,1.960500032E-1,4.431000233E0,8.983950615E0,1.001916001E1
1.716549059E0,1.960500032E-1,4.468950272E0,8.983950615E0,1.003600123E1
1.718512755E0,1.570500135E-1,4.431000233E0,8.983950615E0,1.001847276E1
1.720476087E0,1.570500135E-1,4.354050159E0,8.983950615E0,9.984677569E0
1.722439526E0,1.570500135E-1,4.431000233E0,8.907000542E0,9.949526944E0
1.724403080E0,1.570500135E-1,4.392000198E0,8.983950615E0,1.000128487E1
1.726366601E0,1.570500135E-1,4.431000233E0,8.944950104E0,9.983514418E0
1.728329919E0,2.340000123E-1,4.431000233E0,8.983950615E0,1.001997444E1
1.730293296E0,1.570500135E-1,4.392000198E0,8.983950615E0,1.000128487E1
1.732256366E0,1.960500032E-1,4.431000233E0,8.983950615E0,1.001916001E1
1.734219526E0,2.340000123E-1,4.431000233E0,8.944950104E0,9.985021353E0
1.736182753E0,1.960500032E-1,4.431000233E0,8.983950615E0,1.001916001E1
1.738145971E0,1.960500032E-1,4.431000233E0,8.944950104E0,9.984204076E0
1.740109339E0,1.960500032E-1,4.431000233E0,8.944950104E0,9.984204076E0
1.742072663E0,1.570500135E-1,4.431000233E0,8.944950104E0,9.983514418E0
1.744036058E0,1.960500032E-1,4.431000233E0,8.944950104E0,9.984204076E0
1.745999432E0,2.340000123E-1,4.468950272E0,8.907000542E0,9.967995344E0
1.747962435E0,1.570500135E-1,4.507050037E0,8.869050026E0,9.949784576E0
1.749925564E0,1.570500135E-1,4.431000233E0,8.869050026E0,9.915567363E0
1.751888992E0,1.570500135E-1,4.468950272E0,8.869050026E0,9.932584236E0
1.753852332E0,1.570500135E-1,4.468950272E0,8.907000542E0,9.966485834E0
1.755815724E0,1.570500135E-1,4.468950272E0,8.869050026E0,9.932584236E0
1.757779101E0,1.960500032E-1,4.507050037E0,8.907000542E0,9.984317417E0
1.759742542E0,1.960500032E-1,4.507050037E0,8.907000542E0,9.984317417E0
1.761705957E0,1.960500032E-1,4.468950272E0,8.907000542E0,9.967176671E0
1.763669517E0,1.189500093E-1,4.468950272E0,8.907000542E0,9.965958272E0
1.765633034E0,1.570500135E-1,4.468950272E0,8.907000542E0,9.966485834E0
1.767596712E0,1.960500032E-1,4.468950272E0,8.907000542E0,9.967176671E0
1.769560342E0,1.189500093E-1,4.507050037E0,8.869050026E0,9.949256128E0
1.771523516E0,1.570500135E-1,4.507050037E0,8.869050026E0,9.949784576E0
1.773486848E0,1.570500135E-1,4.468950272E0,8.869050026E0,9.932584236E0
1.775450376E0,1.189500093E-1,4.468950272E0,8.907000542E0,9.965958272E0
1.777413846E0,1.960500032E-1,4.468950272E0,8.907000542E0,9.967176671E0
1.779377082E0,1.570500135E-1,4.507050037E0,8.869050026E0,9.949784576E0
1.781340386E0,1.570500135E-1,4.507050037E0,8.907000542E0,9.983627767E0
1.783303789E0,1.189500093E-1,4.468950272E0,8.944950104E0,9.999889899E0
1.785267159E0,1.570500135E-1,4.468950272E0,8.907000542E0,9.966485834E0
1.787230726E0,1.960500032E-1,4.468950272E0,8.944950104E0,1.000110416E1
1.789194236E0,1.570500135E-1,4.507050037E0,8.869050026E0,9.949784576E0
1.791157555E0,1.570500135E-1,4.507050037E0,8.869050026E0,9.949784576E0
1.793120930E0,1.189500093E-1,4.507050037E0,8.907000542E0,9.983101111E0
1.795084514E0,1.189500093E-1,4.507050037E0,8.907000542E0,9.983101111E0
1.797048024E0,1.570500135E-1,4.468950272E0,8.830050468E0,9.897776140E0
1.799011073E0,1.189500093E-1,4.545000076E0,8.907000542E0,1.000029167E1
1.800974257E0,1.570500135E-1,4.545000076E0,8.830050468E0,9.932345225E0
1.802937449E0,1.570500135E-1,4.507050037E0,8.830050468E0,9.915036864E0
1.804900639E0,1.570500135E-1,4.545000076E0,8.830050468E0,9.932345225E0
1.806863498E0,1.189500093E-1,4.507050037E0,8.830050468E0,9.914506565E0
1.808826468E0,8.100000024E-2,4.545000076E0,8.869050026E0,9.966124375E0
1.810789788E0,1.570500135E-1,4.545000076E0,8.791950226E0,9.898488732E0
1.812753005E0,1.570500135E-1,4.545000076E0,8.791950226E0,9.898488732E0
1.814716418E0,1.189500093E-1,4.545000076E0,8.869050026E0,9.966505063E0
1.816679774E0,8.100000024E-2,4.584000111E0,8.791950226E0,9.915543696E0
1.818643323E0,8.100000024E-2,4.545000076E0,8.791950226E0,9.897574221E0
1.820606798E0,1.189500093E-1,4.545000076E0,8.791950226E0,9.897957545E0
1.822570033E0,4.200000316E-2,4.545000076E0,8.791950226E0,9.897331886E0
1.824533339E0,1.189500093E-1,4.545000076E0,8.791950226E0,9.897957545E0
1.826496736E0,8.100000024E-2,4.507050037E0,8.791950226E0,9.880204948E0
1.828460106E0,8.100000024E-2,4.545000076E0,8.791950226E0,9.897574221E0
1.830423666E0,1.189500093E-1,4.545000076E0,8.791950226E0,9.897957545E0
1.832387144E0,1.189500093E-1,4.507050037E0,8.830050468E0,9.914506565E0
1.834350514E0,1.189500093E-1,4.507050037E0,8.791950226E0,9.880588946E0
1.836313915E0,8.100000024E-2,4.545000076E0,8.791950226E0,9.897574221E0
1.838277162E0,1.189500093E-1,4.507050037E0,8.830050468E0,9.914506565E0
1.840240454E0,1.570500135E-1,4.507050037E0,8.830050468E0,9.915036864E0
1.842203829E0,8.100000024E-2,4.468950272E0,8.830050468E0,9.896861563E0
1.844167197E0,1.960500032E-1,4.468950272E0,8.830050468E0,9.898471771E0
1.846130765E0,1.189500093E-1,4.507050037E0,8.830050468E0,9.914506565E0
1.848094274E0,1.189500093E-1,4.468950272E0,8.869050026E0,9.932054873E0
1.850057774E0,1.189500093E-1,4.507050037E0,8.830050468E0,9.914506565E0
1.852021276E0,1.189500093E-1,4.468950272E0,8.869050026E0,9.932054873E0
1.853984640E0,1.189500093E-1,4.545000076E0,8.791950226E0,9.897957545E0
1.855948045E0,1.189500093E-1,4.507050037E0,8.830050468E0,9.914506565E0
1.857911426E0,1.189500093E-1,4.507050037E0,8.830050468E0,9.914506565E0
1.859874814E0,8.100000024E-2,4.507050037E0,8.869050026E0,9.948874781E0
1.861838063E0,1.189500093E-1,4.507050037E0,8.869050026E0,9.949256128E0
1.863801353E0,1.189500093E-1,4.507050037E0,8.791950226E0,9.880588946E0
1.865764562E0,1.570500135E-1,4.507050037E0,8.830050468E0,9.915036864E0
1.867727771E0,1.189500093E-1,4.507050037E0,8.869050026E0,9.949256128E0
1.869691050E0,8.100000024E-2,4.468950272E0,8.907000542E0,9.965577564E0
1.871654308E0,1.570500135E-1,4.507050037E0,8.869050026E0,9.949784576E0
1.873617669E0,1.570500135E-1,4.468950272E0,8.907000542E0,9.966485834E0
1.875581000E0,1.189500093E-1,4.431000233E0,8.907000542E0,9.948998483E0
1.877544226E0,1.570500135E-1,4.468950272E0,8.944950104E0,1.000041567E1
1.879507507E0,1.960500032E-1,4.468950272E0,8.907000542E0,9.967176671E0
1.881470908E0,1.570500135E-1,4.468950272E0,8.983950615E0,1.003531514E1
1.883434274E0,1.570500135E-1,4.468950272E0,8.907000542E0,9.966485834E0
1.885397618E0,1.960500032E-1,4.507050037E0,8.944950104E0,1.001818686E1
1.887360968E0,1.960500032E-1,4.468950272E0,8.944950104E0,1.000110416E1
1.889324342E0,1.960500032E-1,4.468950272E0,8.944950104E0,1.000110416E1
1.891287720E0,1.570500135E-1,4.468950272E0,8.907000542E0,9.966485834E0
1.893250792E0,1.960500032E-1,4.468950272E0,8.944950104E0,1.000110416E1
1.895213953E0,1.960500032E-1,4.468950272E0,8.944950104E0,1.000110416E1
1.897177150E0,1.570500135E-1,4.468950272E0,8.983950615E0,1.003531514E1
1.899140336E0,2.340000123E-1,4.468950272E0,8.983950615E0,1.003681429E1
1.901103450E0,2.340000123E-1,4.431000233E0,8.944950104E0,9.985021353E0
1.903066579E0,1.960500032E-1,4.468950272E0,8.907000542E0,9.967176671E0
1.905030187E0,2.719500065E-1,4.468950272E0,8.944950104E0,1.000287987E1
1.906993654E0,1.960500032E-1,4.468950272E0,8.944950104E0,1.000110416E1
1.908957025E0,2.340000123E-1,4.431000233E0,8.944950104E0,9.985021353E0
1.910920425E0,1.960500032E-1,4.431000233E0,8.983950615E0,1.001916001E1
1.912883821E0,2.340000123E-1,4.468950272E0,8.944950104E0,1.000192006E1
1.914847208E0,2.340000123E-1,4.468950272E0,8.907000542E0,9.967995344E0
1.916810726E0,1.960500032E-1,4.431000233E0,8.907000542E0,9.950218958E0
1.918774206E0,2.340000123E-1,4.507050037E0,8.907000542E0,9.985134686E0
1.920737575E0,1.960500032E-1,4.431000233E0,8.869050026E0,9.916261747E0
1.922700977E0,2.340000123E-1,4.431000233E0,8.869050026E0,9.917084624E0
1.924664227E0,2.340000123E-1,4.468950272E0,8.869050026E0,9.934098897E0
1.926627487E0,2.340000123E-1,4.468950272E0,8.869050026E0,9.934098897E0
1.928590937E0,2.340000123E-1,4.468950272E0,8.830050468E0,9.899296127E0
1.930554331E0,1.960500032E-1,4.468950272E0,8.791950226E0,9.864499020E0
1.932517535E0,2.340000123E-1,4.431000233E0,8.830050468E0,9.882221934E0
1.934480795E0,2.340000123E-1,4.431000233E0,8.869050026E0,9.917084624E0
1.936444224E0,2.340000123E-1,4.468950272E0,8.830050468E0,9.899296127E0
1.938407586E0,2.340000123E-1,4.468950272E0,8.830050468E0,9.899296127E0
1.940370974E0,1.960500032E-1,4.431000233E0,8.830050468E0,9.881396153E0
1.942334355E0,1.960500032E-1,4.431000233E0,8.830050468E0,9.881396153E0
1.944297696E0,2.340000123E-1,4.507050037E0,8.830050468E0,9.916554206E0
1.946261049E0,1.960500032E-1,4.468950272E0,8.791950226E0,9.864499020E0
1.948224443E0,1.960500032E-1,4.507050037E0,8.869050026E0,9.950476572E0
1.950187822E0,2.340000123E-1,4.468950272E0,8.830050468E0,9.899296127E0
1.952151253E0,1.960500032E-1,4.468950272E0,8.830050468E0,9.898471771E0
1.954114668E0,1.960500032E-1,4.468950272E0,8.869050026E0,9.933277430E0
1.956078183E0,1.960500032E-1,4.507050037E0,8.830050468E0,9.915731285E0
1.958041668E0,1.960500032E-1,4.468950272E0,8.869050026E0,9.933277430E0
1.960005100E0,1.960500032E-1,4.468950272E0,8.869050026E0,9.933277430E0
1.961968535E0,1.960500032E-1,4.468950272E0,8.869050026E0,9.933277430E0
1.963932045E0,1.570500135E-1,4.507050037E0,8.869050026E0,9.949784576E0
1.965895533E0,1.570500135E-1,4.507050037E0,8.869050026E0,9.949784576E0
1.967858720E0,1.570500135E-1,4.545000076E0,8.907000542E0,1.000081742E1
1.969821996E0,1.570500135E-1,4.507050037E0,8.869050026E0,9.949784576E0
1.971785610E0,1.570500135E-1,4.468950272E0,8.830050468E0,9.897776140E0
1.973749134E0,1.189500093E-1,4.468950272E0,8.869050026E0,9.932054873E0
1.975712451E0,8.100000024E-2,4.507050037E0,8.907000542E0,9.982721056E0
1.977675829E0,1.189500093E-1,4.468950272E0,8.907000542E0,9.965958272E0
1.979639259E0,1.570500135E-1,4.507050037E0,8.944950104E0,1.001749954E1
1.981602673E0,1.189500093E-1,4.431000233E0,8.944950104E0,9.982987755E0
1.983566228E0,1.570500135E-1,4.507050037E0,8.907000542E0,9.983627767E0
1.985529745E0,1.189500093E-1,4.507050037E0,8.944950104E0,1.001697467E1
1.987493243E0,1.189500093E-1,4.507050037E0,8.944950104E0,1.001697467E1
1.989456747E0,1.189500093E-1,4.507050037E0,8.944950104E0,1.001697467E1
1.991419930E0,1.570500135E-1,4.507050037E0,8.907000542E0,9.983627767E0
1.993383208E0,8.100000024E-2,4.507050037E0,8.944950104E0,1.001659590E1
1.995346669E0,8.100000024E-2,4.507050037E0,8.944950104E0,1.001659590E1
1.997310066E0,1.189500093E-1,4.468950272E0,8.944950104E0,9.999889899E0
1.999273270E0,8.100000024E-2,4.545000076E0,8.944950104E0,1.003372907E1
2.001236530E0,4.200000316E-2,4.468950272E0,8.983950615E0,1.003417407E1
2.003199935E0,1.189500093E-1,4.507050037E0,8.944950104E0,1.001697467E1
2.005163297E0,1.189500093E-1,4.507050037E0,8.944950104E0,1.001697467E1
2.007126507E0,8.100000024E-2,4.507050037E0,8.907000542E0,9.982721056E0
2.009089761E0,8.100000024E-2,4.507050037E0,8.944950104E0,1.001659590E1
2.011053302E0,1.189500093E-1,4.507050037E0,8.907000542E0,9.983101111E0
2.013016759E0,8.100000024E-2,4.507050037E0,8.907000542E0,9.982721056E0
2.014979772E0,4.200000316E-2,4.507050037E0,8.869050026E0,9.948633695E0
2.016942915E0,4.200000316E-2,4.507050037E0,8.869050026E0,9.948633695E0
2.018906181E0,8.100000024E-2,4.507050037E0,8.869050026E0,9.948874781E0
2.020869427E0,1.189500093E-1,4.507050037E0,8.869050026E0,9.949256128E0
2.022832790E0,4.200000316E-2,4.468950272E0,8.830050468E0,9.896619211E0
2.024796119E0,8.100000024E-2,4.507050037E0,8.907000542E0,9.982721056E0
2.026759334E0,4.200000316E-2,4.507050037E0,8.869050026E0,9.948633695E0
2.028722583E0,1.189500093E-1,4.468950272E0,8.830050468E0,9.897244915E0
2.030685811E0,8.100000024E-2,4.545000076E0,8.907000542E0,9.999912267E0
2.032649045E0,1.570500135E-1,4.468950272E0,8.869050026E0,9.932584236E0
2.034612275E0,1.189500093E-1,4.468950272E0,8.830050468E0,9.897244915E0
2.036575506E0,1.189500093E-1,4.507050037E0,8.791950226E0,9.880588946E0
2.038538961E0,1.189500093E-1,4.468950272E0,8.791950226E0,9.863267938E0
2.040502350E0,1.189500093E-1,4.507050037E0,8.754000664E0,9.846835876E0
2.042465864E0,8.100000024E-2,4.507050037E0,8.830050468E0,9.914123880E0
2.044429345E0,8.100000024E-2,4.468950272E0,8.791950226E0,9.862883265E0
2.046392715E0,1.189500093E-1,4.507050037E0,8.791950226E0,9.880588946E0
2.048356117E0,8.100000024E-2,4.507050037E0,8.830050468E0,9.914123880E0
2.050319318E0,8.100000024E-2,4.507050037E0,8.830050468E0,9.914123880E0
2.052282578E0,4.200000316E-2,4.507050037E0,8.830050468E0,9.913881950E0
2.054246320E0,8.100000024E-2,4.507050037E0,8.869050026E0,9.948874781E0
2.056209937E0,8.100000024E-2,4.507050037E0,8.791950226E0,9.880204948E0
2.058173508E0,8.100000024E-2,4.468950272E0,8.830050468E0,9.896861563E0
2.060137093E0,1.189500093E-1,4.507050037E0,8.830050468E0,9.914506565E0
2.062100938E0,8.100000024E-2,4.507050037E0,8.869050026E0,9.948874781E0
2.064064706E0,8.100000024E-2,4.507050037E0,8.869050026E0,9.948874781E0
2.066028565E0,8.100000024E-2,4.507050037E0,8.791950226E0,9.880204948E0
2.067992398E0,1.189500093E-1,4.507050037E0,8.830050468E0,9.914506565E0
2.069955707E0,8.100000024E-2,4.545000076E0,8.830050468E0,9.931433832E0
2.071919169E0,1.570500135E-1,4.468950272E0,8.830050468E0,9.897776140E0
2.073882405E0,1.189500093E-1,4.507050037E0,8.830050468E0,9.914506565E0
2.075845708E0,8.100000024E-2,4.545000076E0,8.907000542E0,9.999912267E0
2.077809236E0,1.189500093E-1,4.545000076E0,8.869050026E0,9.966505063E0
2.079772701E0,1.189500093E-1,4.545000076E0,8.830050468E0,9.931815850E0
2.081736252E0,1.189500093E-1,4.468950272E0,8.869050026E0,9.932054873E0
2.083699778E0,1.189500093E-1,4.507050037E0,8.830050468E0,9.914506565E0
2.085663319E0,1.189500093E-1,4.468950272E0,8.907000542E0,9.965958272E0
2.087626855E0,4.200000316E-2,4.468950272E0,8.907000542E0,9.965336882E0
2.089590541E0,1.189500093E-1,4.507050037E0,8.869050026E0,9.949256128E0
2.091554206E0,8.100000024E-2,4.507050037E0,8.907000542E0,9.982721056E0
2.093517948E0,8.100000024E-2,4.468950272E0,8.907000542E0,9.965577564E0
2.095481668E0,1.189500093E-1,4.507050037E0,8.907000542E0,9.983101111E0
2.097445491E0,1.189500093E-1,4.507050037E0,8.944950104E0,1.001697467E1
2.099409283E0,8.100000024E-2,4.507050037E0,8.944950104E0,1.001659590E1
2.101373169E0,1.189500093E-1,4.507050037E0,8.983950615E0,1.005181664E1
2.103337038E0,1.189500093E-1,4.507050037E0,8.944950104E0,1.001697467E1
2.105300656E0,8.100000024E-2,4.507050037E0,8.983950615E0,1.005143919E1
2.107264347E0,1.570500135E-1,4.507050037E0,8.983950615E0,1.005233970E1
2.109228084E0,1.570500135E-1,4.468950272E0,9.022050858E0,1.006943806E1
2.111191807E0,1.189500093E-1,4.468950272E0,8.983950615E0,1.003479119E1
2.113155466E0,1.189500093E-1,4.507050037E0,9.022050858E0,1.008588374E1
2.115119165E0,1.960500032E-1,4.468950272E0,8.983950615E0,1.003600123E1
2.117082990E0,1.189500093E-1,4.468950272E0,9.022050858E0,1.006891590E1
2.119046778E0,1.570500135E-1,4.468950272E0,9.060000420E0,1.010345430E1
2.121010500E0,1.570500135E-1,4.431000233E0,9.022050858E0,1.005265286E1
2.122974241E0,1.189500093E-1,4.468950272E0,9.022050858E0,1.006891590E1
2.124938059E0,1.960500032E-1,4.431000233E0,9.022050858E0,1.005333777E1
2.126901855E0,2.719500065E-1,4.431000233E0,9.022050858E0,1.005510425E1
2.128865530E0,1.570500135E-1,4.431000233E0,8.983950615E0,1.001847276E1
2.130829241E0,1.570500135E-1,4.431000233E0,9.022050858E0,1.005265286E1
2.132792615E0,1.960500032E-1,4.392000198E0,8.983950615E0,1.000197331E1
2.134756088E0,1.570500135E-1,4.431000233E0,8.983950615E0,1.001847276E1
2.136719766E0,1.960500032E-1,4.431000233E0,8.944950104E0,9.984204076E0
2.138683388E0,1.960500032E-1,4.431000233E0,8.944950104E0,9.984204076E0
2.140647093E0,2.340000123E-1,4.431000233E0,8.983950615E0,1.001997444E1
2.142610773E0,2.340000123E-1,4.392000198E0,8.907000542E0,9.933734464E0
2.144574468E0,2.340000123E-1,4.431000233E0,8.944950104E0,9.985021353E0
2.146538158E0,2.340000123E-1,4.431000233E0,8.983950615E0,1.001997444E1
2.148501551E0,1.960500032E-1,4.431000233E0,8.944950104E0,9.984204076E0
2.150465021E0,2.340000123E-1,4.392000198E0,8.944950104E0,9.967775785E0
2.152429066E0,2.340000123E-1,4.392000198E0,8.907000542E0,9.933734464E0
2.154392942E0,2.340000123E-1,4.431000233E0,8.907000542E0,9.951039027E0
2.156356604E0,2.340000123E-1,4.431000233E0,8.944950104E0,9.985021353E0
2.158320328E0,2.340000123E-1,4.392000198E0,8.944950104E0,9.967775785E0
2.160284393E0,2.340000123E-1,4.431000233E0,8.869050026E0,9.917084624E0
2.162248345E0,2.719500065E-1,4.431000233E0,8.830050468E0,9.883193368E0
2.164212174E0,2.340000123E-1,4.431000233E0,8.869050026E0,9.917084624E0
2.166176040E0,2.340000123E-1,4.431000233E0,8.869050026E0,9.917084624E0
2.168139747E0,2.340000123E-1,4.431000233E0,8.830050468E0,9.882221934E0
2.170103501E0,2.340000123E-1,4.431000233E0,8.830050468E0,9.882221934E0
2.172067002E0,2.719500065E-1,4.431000233E0,8.791950226E0,9.849167916E0
2.174030578E0,2.719500065E-1,4.431000233E0,8.791950226E0,9.849167916E0
2.175994425E0,2.719500065E-1,4.392000198E0,8.869050026E0,9.900690426E0
2.177958192E0,3.109500110E-1,4.431000233E0,8.830050468E0,9.884343390E0
2.179921692E0,2.719500065E-1,4.431000233E0,8.791950226E0,9.849167916E0
2.181885271E0,2.340000123E-1,4.468950272E0,8.830050468E0,9.899296127E0
2.183849026E0,2.719500065E-1,4.468950272E0,8.791950226E0,9.866299312E0
2.185812730E0,2.340000123E-1,4.392000198E0,8.830050468E0,9.864796654E0
2.187776422E0,2.340000123E-1,4.431000233E0,8.791950226E0,9.848193126E0
2.189740117E0,2.719500065E-1,4.431000233E0,8.791950226E0,9.849167916E0
2.191703943E0,2.340000123E-1,4.468950272E0,8.791950226E0,9.865326214E0
2.193667730E0,2.340000123E-1,4.468950272E0,8.791950226E0,9.865326214E0
2.195630902E0,2.340000123E-1,4.468950272E0,8.791950226E0,9.865326214E0
2.197594261E0,1.960500032E-1,4.468950272E0,8.791950226E0,9.864499020E0
2.199557605E0,2.340000123E-1,4.468950272E0,8.715000153E0,9.796810716E0
2.201520953E0,2.340000123E-1,4.468950272E0,8.830050468E0,9.899296127E0
2.203484343E0,1.960500032E-1,4.468950272E0,8.754000664E0,9.830690706E0
2.205447720E0,2.340000123E-1,4.468950272E0,8.791950226E0,9.865326214E0
2.207411350E0,2.340000123E-1,4.468950272E0,8.754000664E0,9.831520745E0
2.209374893E0,1.570500135E-1,4.468950272E0,8.754000664E0,9.829990278E0
2.211338566E0,1.570500135E-1,4.468950272E0,8.791950226E0,9.863800992E0
2.213302201E0,2.340000123E-1,4.507050037E0,8.754000664E0,9.848897586E0
2.215265724E0,1.570500135E-1,4.468950272E0,8.754000664E0,9.829990278E0
2.217229280E0,1.570500135E-1,4.468950272E0,8.754000664E0,9.829990278E0
2.219192870E0,1.960500032E-1,4.468950272E0,8.791950226E0,9.864499020E0
2.221156442E0,1.960500032E-1,4.468950272E0,8.754000664E0,9.830690706E0
2.223120110E0,1.960500032E-1,4.468950272E0,8.791950226E0,9.864499020E0
2.225083749E0,1.570500135E-1,4.507050037E0,8.791950226E0,9.881121066E0
2.227046731E0,1.960500032E-1,4.507050037E0,8.754000664E0,9.848069012E0
2.229009905E0,1.570500135E-1,4.507050037E0,8.791950226E0,9.881121066E0
2.230973356E0,1.960500032E-1,4.468950272E0,8.791950226E0,9.864499020E0
2.232936735E0,1.570500135E-1,4.507050037E0,8.791950226E0,9.881121066E0
2.234900121E0,1.960500032E-1,4.507050037E0,8.791950226E0,9.881817870E0
2.236863505E0,1.960500032E-1,4.507050037E0,8.830050468E0,9.915731285E0
2.238826890E0,1.570500135E-1,4.507050037E0,8.830050468E0,9.915036864E0
2.240790274E0,1.570500135E-1,4.507050037E0,8.791950226E0,9.881121066E0
2.242753678E0,1.189500093E-1,4.545000076E0,8.830050468E0,9.931815850E0
2.244717062E0,1.570500135E-1,4.468950272E0,8.830050468E0,9.897776140E0
2.246680582E0,1.189500093E-1,4.468950272E0,8.869050026E0,9.932054873E0
2.248644062E0,1.960500032E-1,4.507050037E0,8.830050468E0,9.915731285E0
2.250607836E0,1.189500093E-1,4.507050037E0,8.869050026E0,9.949256128E0
2.252571524E0,1.570500135E-1,4.507050037E0,8.907000542E0,9.983627767E0
2.254535236E0,1.960500032E-1,4.507050037E0,8.907000542E0,9.984317417E0
2.256498927E0,1.570500135E-1,4.468950272E0,8.869050026E0,9.932584236E0
2.258462440E0,8.100000024E-2,4.468950272E0,8.869050026E0,9.931672865E0
2.260426006E0,1.570500135E-1,4.468950272E0,8.907000542E0,9.966485834E0
2.262389540E0,1.189500093E-1,4.468950272E0,8.944950104E0,9.999889899E0
2.264353083E0,1.189500093E-1,4.507050037E0,8.944950104E0,1.001697467E1
2.266316820E0,1.189500093E-1,4.545000076E0,8.907000542E0,1.000029167E1
2.268280486E0,4.200000316E-2,4.468950272E0,8.907000542E0,9.965336882E0
2.270244318E0,1.570500135E-1,4.507050037E0,8.983950615E0,1.005233970E1
2.272208101E0,1.189500093E-1,4.545000076E0,8.907000542E0,1.000029167E1
2.274171463E0,8.100000024E-2,4.468950272E0,8.944950104E0,9.999510482E0
2.276134949E0,1.189500093E-1,4.507050037E0,8.944950104E0,1.001697467E1
2.278098534E0,8.100000024E-2,4.507050037E0,8.983950615E0,1.005143919E1
2.280062063E0,8.100000024E-2,4.507050037E0,8.983950615E0,1.005143919E1
2.282025963E0,8.100000024E-2,4.507050037E0,8.983950615E0,1.005143919E1
2.283989755E0,8.100000024E-2,4.507050037E0,8.944950104E0,1.001659590E1
2.285953251E0,1.189500093E-1,4.507050037E0,8.983950615E0,1.005181664E1
2.287916834E0,1.189500093E-1,4.507050037E0,8.944950104E0,1.001697467E1
2.289880345E0,8.100000024E-2,4.507050037E0,8.983950615E0,1.005143919E1
2.291843891E0,1.189500093E-1,4.507050037E0,8.983950615E0,1.005181664E1
2.293807428E0,8.100000024E-2,4.507050037E0,8.944950104E0,1.001659590E1
2.295770968E0,8.100000024E-2,4.545000076E0,9.022050858E0,1.010252386E1
2.297734326E0,8.100000024E-2,4.507050037E0,8.983950615E0,1.005143919E1
2.299697738E0,8.100000024E-2,4.507050037E0,8.944950104E0,1.001659590E1
2.301661083E0,8.100000024E-2,4.545000076E0,8.983950615E0,1.006851307E1
2.303624440E0,8.100000024E-2,4.507050037E0,8.983950615E0,1.005143919E1
2.305587873E0,8.100000024E-2,4.507050037E0,8.944950104E0,1.001659590E1
2.307551284E0,8.100000024E-2,4.507050037E0,8.983950615E0,1.005143919E1
2.309514485E0,8.100000024E-2,4.584000111E0,8.944950104E0,1.005145514E1
2.311477748E0,8.100000024E-2,4.584000111E0,8.907000542E0,1.001769817E1
2.313441088E0,1.189500093E-1,4.545000076E0,8.907000542E0,1.000029167E1
2.315404419E0,4.200000316E-2,4.545000076E0,8.944950104E0,1.003349002E1
2.317367993E0,4.200000316E-2,4.545000076E0,8.983950615E0,1.006827484E1
2.319331496E0,4.200000316E-2,4.545000076E0,8.944950104E0,1.003349002E1
2.321294546E0,4.200000316E-2,4.545000076E0,8.869050026E0,9.965883707E0
2.323257729E0,8.100000024E-2,4.545000076E0,8.907000542E0,9.999912267E0
2.325220967E0,4.200000316E-2,4.507050037E0,8.944950104E0,1.001635644E1
2.327184188E0,8.100000024E-2,4.507050037E0,8.907000542E0,9.982721056E0
2.329147556E0,8.100000024E-2,4.507050037E0,8.907000542E0,9.982721056E0
2.331110880E0,1.189500093E-1,4.507050037E0,8.944950104E0,1.001697467E1
2.333074321E0,1.189500093E-1,4.507050037E0,8.907000542E0,9.983101111E0
2.335037727E0,1.189500093E-1,4.507050037E0,8.944950104E0,1.001697467E1
2.337001104E0,1.189500093E-1,4.507050037E0,8.907000542E0,9.983101111E0
2.338964493E0,1.189500093E-1,4.468950272E0,8.944950104E0,9.999889899E0
2.340928191E0,8.100000024E-2,4.468950272E0,8.944950104E0,9.999510482E0
2.342891799E0,1.570500135E-1,4.468950272E0,8.944950104E0,1.000041567E1
2.344855326E0,1.570500135E-1,4.468950272E0,8.869050026E0,9.932584236E0
2.346818877E0,1.570500135E-1,4.545000076E0,8.907000542E0,1.000081742E1
2.348782573E0,1.189500093E-1,4.468950272E0,8.907000542E0,9.965958272E0
2.350746240E0,1.960500032E-1,4.468950272E0,8.869050026E0,9.933277430E0
2.352709982E0,1.570500135E-1,4.507050037E0,8.869050026E0,9.949784576E0
2.354673702E0,1.570500135E-1,4.468950272E0,8.907000542E0,9.966485834E0
2.356637390E0,1.960500032E-1,4.468950272E0,8.869050026E0,9.933277430E0
2.358601088E0,1.570500135E-1,4.507050037E0,8.869050026E0,9.949784576E0
2.360564604E0,1.570500135E-1,4.468950272E0,8.869050026E0,9.932584236E0
2.362528170E0,1.960500032E-1,4.507050037E0,8.869050026E0,9.950476572E0
2.364491704E0,1.570500135E-1,4.507050037E0,8.830050468E0,9.915036864E0
2.366455247E0,1.960500032E-1,4.507050037E0,8.830050468E0,9.915731285E0
2.368418919E0,1.189500093E-1,4.507050037E0,8.830050468E0,9.914506565E0
2.370382553E0,1.570500135E-1,4.468950272E0,8.830050468E0,9.897776140E0
2.372346112E0,1.570500135E-1,4.468950272E0,8.869050026E0,9.932584236E0
2.374309700E0,1.570500135E-1,4.507050037E0,8.830050468E0,9.915036864E0
2.376273049E0,1.960500032E-1,4.468950272E0,8.791950226E0,9.864499020E0
2.378236469E0,2.340000123E-1,4.468950272E0,8.830050468E0,9.899296127E0
2.380199847E0,1.960500032E-1,4.431000233E0,8.791950226E0,9.847364492E0
2.382163238E0,1.960500032E-1,4.468950272E0,8.830050468E0,9.898471771E0
2.384126765E0,1.570500135E-1,4.431000233E0,8.791950226E0,9.846665250E0
2.386090245E0,1.570500135E-1,4.431000233E0,8.791950226E0,9.846665250E0
2.388053479E0,1.960500032E-1,4.431000233E0,8.869050026E0,9.916261747E0
2.390016786E0,1.960500032E-1,4.431000233E0,8.830050468E0,9.881396153E0
2.391979823E0,1.960500032E-1,4.431000233E0,8.791950226E0,9.847364492E0
2.393942939E0,2.719500065E-1,4.431000233E0,8.791950226E0,9.849167916E0
2.395906336E0,3.109500110E-1,4.431000233E0,8.754000664E0,9.816464771E0
2.397869674E0,2.340000123E-1,4.431000233E0,8.830050468E0,9.882221934E0
2.399833202E0,2.719500065E-1,4.431000233E0,8.869050026E0,9.918052643E0
2.401796674E0,2.340000123E-1,4.431000233E0,8.869050026E0,9.917084624E0
2.403760045E0,2.340000123E-1,4.431000233E0,8.869050026E0,9.917084624E0
2.405723445E0,2.719500065E-1,4.431000233E0,8.830050468E0,9.883193368E0
2.407687070E0,2.340000123E-1,4.431000233E0,8.830050468E0,9.882221934E0
2.409650616E0,2.340000123E-1,4.431000233E0,8.830050468E0,9.882221934E0
2.411614109E0,1.189500093E-1,4.392000198E0,8.791950226E0,9.828642003E0
2.413577618E0,1.570500135E-1,4.431000233E0,8.830050468E0,9.880699320E0
2.415541026E0,1.570500135E-1,4.468950272E0,8.830050468E0,9.897776140E0
2.417504464E0,1.570500135E-1,4.468950272E0,8.869050026E0,9.932584236E0
2.419467808E0,1.189500093E-1,4.431000233E0,8.869050026E0,9.915037092E0
2.421431170E0,1.570500135E-1,4.468950272E0,8.869050026E0,9.932584236E0
2.423394602E0,1.189500093E-1,4.468950272E0,8.869050026E0,9.932054873E0
2.425358014E0,1.189500093E-1,4.507050037E0,8.869050026E0,9.949256128E0
2.427321395E0,1.189500093E-1,4.507050037E0,8.869050026E0,9.949256128E0
2.429284786E0,1.570500135E-1,4.545000076E0,8.830050468E0,9.932345225E0
2.431248129E0,1.189500093E-1,4.468950272E0,8.869050026E0,9.932054873E0
2.433211483E0,1.189500093E-1,4.507050037E0,8.869050026E0,9.949256128E0
2.435174872E0,1.570500135E-1,4.545000076E0,8.869050026E0,9.967032596E0
2.437138250E0,1.189500093E-1,4.507050037E0,8.830050468E0,9.914506565E0
2.439101502E0,1.570500135E-1,4.545000076E0,8.869050026E0,9.967032596E0
2.441064791E0,1.189500093E-1,4.545000076E0,8.830050468E0,9.931815850E0
2.443028186E0,1.189500093E-1,4.507050037E0,8.830050468E0,9.914506565E0
2.444991553E0,1.570500135E-1,4.507050037E0,8.869050026E0,9.949784576E0
2.446954896E0,1.570500135E-1,4.507050037E0,8.869050026E0,9.949784576E0
2.448918247E0,1.570500135E-1,4.468950272E0,8.830050468E0,9.897776140E0
2.450881637E0,1.570500135E-1,4.507050037E0,8.830050468E0,9.915036864E0
2.452845015E0,1.189500093E-1,4.468950272E0,8.830050468E0,9.897244915E0
2.454808071E0,1.570500135E-1,4.468950272E0,8.869050026E0,9.932584236E0
2.456771232E0,1.570500135E-1,4.468950272E0,8.907000542E0,9.966485834E0
2.458734115E0,1.960500032E-1,4.468950272E0,8.907000542E0,9.967176671E0
2.460697079E0,1.570500135E-1,4.468950272E0,8.830050468E0,9.897776140E0
2.462660309E0,1.960500032E-1,4.468950272E0,8.830050468E0,9.898471771E0
2.464623461E0,1.960500032E-1,4.431000233E0,8.791950226E0,9.847364492E0
2.466586931E0,2.340000123E-1,4.468950272E0,8.869050026E0,9.934098897E0
2.468550307E0,2.340000123E-1,4.468950272E0,8.830050468E0,9.899296127E0
2.470513828E0,1.960500032E-1,4.468950272E0,8.830050468E0,9.898471771E0
2.472477307E0,2.340000123E-1,4.468950272E0,8.830050468E0,9.899296127E0
2.474440856E0,1.960500032E-1,4.431000233E0,8.830050468E0,9.881396153E0
2.476404384E0,1.960500032E-1,4.431000233E0,8.869050026E0,9.916261747E0
2.478367579E0,1.960500032E-1,4.468950272E0,8.830050468E0,9.898471771E0
2.480330862E0,1.960500032E-1,4.468950272E0,8.754000664E0,9.830690706E0
2.482294443E0,2.340000123E-1,4.507050037E0,8.791950226E0,9.882643615E0
2.484257937E0,1.960500032E-1,4.468950272E0,8.830050468E0,9.898471771E0
2.486220988E0,1.570500135E-1,4.507050037E0,8.869050026E0,9.949784576E0
2.488184169E0,1.960500032E-1,4.507050037E0,8.830050468E0,9.915731285E0
2.490147929E0,1.570500135E-1,4.507050037E0,8.791950226E0,9.881121066E0
2.492111533E0,1.570500135E-1,4.507050037E0,8.830050468E0,9.915036864E0
2.494075016E0,1.189500093E-1,4.507050037E0,8.869050026E0,9.949256128E0
2.496038535E0,1.570500135E-1,4.507050037E0,8.830050468E0,9.915036864E0
2.498001941E0,1.189500093E-1,4.468950272E0,8.869050026E0,9.932054873E0
2.499965381E0,1.189500093E-1,4.545000076E0,8.869050026E0,9.966505063E0
2.501928935E0,1.570500135E-1,4.507050037E0,8.869050026E0,9.949784576E0
2.503892456E0,1.189500093E-1,4.584000111E0,8.830050468E0,9.949723483E0
2.505856133E0,1.189500093E-1,4.507050037E0,8.830050468E0,9.914506565E0
2.507819764E0,1.189500093E-1,4.507050037E0,8.869050026E0,9.949256128E0
2.509783333E0,1.189500093E-1,4.507050037E0,8.907000542E0,9.983101111E0
2.511746920E0,1.189500093E-1,4.507050037E0,8.869050026E0,9.949256128E0
2.513710469E0,1.189500093E-1,4.507050037E0,8.907000542E0,9.983101111E0
2.515674016E0,1.189500093E-1,4.545000076E0,8.944950104E0,1.003410719E1
2.517637687E0,8.100000024E-2,4.545000076E0,8.907000542E0,9.999912267E0
2.519601321E0,1.189500093E-1,4.507050037E0,8.907000542E0,9.983101111E0
2.521564709E0,1.189500093E-1,4.545000076E0,8.944950104E0,1.003410719E1
2.523528170E0,1.570500135E-1,4.507050037E0,8.869050026E0,9.949784576E0
2.525491855E0,1.189500093E-1,4.507050037E0,8.944950104E0,1.001697467E1
2.527455475E0,1.189500093E-1,4.507050037E0,8.907000542E0,9.983101111E0
2.529419001E0,8.100000024E-2,4.507050037E0,8.907000542E0,9.982721056E0
2.531382554E0,8.100000024E-2,4.507050037E0,8.944950104E0,1.001659590E1
2.533345775E0,1.189500093E-1,4.545000076E0,8.907000542E0,1.000029167E1
2.535309093E0,1.570500135E-1,4.468950272E0,8.907000542E0,9.966485834E0
2.537272652E0,8.100000024E-2,4.507050037E0,8.907000542E0,9.982721056E0
2.539236120E0,1.189500093E-1,4.507050037E0,8.944950104E0,1.001697467E1
2.541199491E0,1.189500093E-1,4.507050037E0,8.907000542E0,9.983101111E0
2.543162891E0,1.189500093E-1,4.545000076E0,8.944950104E0,1.003410719E1
2.545126317E0,1.189500093E-1,4.507050037E0,8.907000542E0,9.983101111E0
2.547089735E0,8.100000024E-2,4.468950272E0,8.907000542E0,9.965577564E0
2.549053303E0,8.100000024E-2,4.507050037E0,8.944950104E0,1.001659590E1
2.551016821E0,1.189500093E-1,4.507050037E0,8.907000542E0,9.983101111E0
2.552980184E0,1.189500093E-1,4.507050037E0,8.944950104E0,1.001697467E1
2.554943592E0,1.570500135E-1,4.468950272E0,8.944950104E0,1.000041567E1
2.556907107E0,1.189500093E-1,4.468950272E0,8.907000542E0,9.965958272E0
2.558870590E0,8.100000024E-2,4.468950272E0,8.983950615E0,1.003441310E1
2.560833950E0,1.189500093E-1,4.507050037E0,8.944950104E0,1.001697467E1
2.562797353E0,1.189500093E-1,4.507050037E0,8.907000542E0,9.983101111E0
2.564760599E0,1.570500135E-1,4.431000233E0,8.944950104E0,9.983514418E0
2.566723891E0,1.570500135E-1,4.431000233E0,9.022050858E0,1.005265286E1
2.568687245E0,1.570500135E-1,4.431000233E0,8.944950104E0,9.983514418E0
2.570650581E0,1.570500135E-1,4.468950272E0,8.983950615E0,1.003531514E1
2.572614154E0,1.189500093E-1,4.431000233E0,8.907000542E0,9.948998483E0
2.574577658E0,1.570500135E-1,4.431000233E0,8.983950615E0,1.001847276E1
2.576541203E0,1.570500135E-1,4.431000233E0,8.944950104E0,9.983514418E0
2.578504735E0,1.570500135E-1,4.431000233E0,8.983950615E0,1.001847276E1
2.580468275E0,1.570500135E-1,4.431000233E0,8.944950104E0,9.983514418E0
2.582431812E0,1.189500093E-1,4.431000233E0,8.907000542E0,9.948998483E0
2.584395265E0,1.570500135E-1,4.431000233E0,8.983950615E0,1.001847276E1
2.586358708E0,1.960500032E-1,4.431000233E0,8.944950104E0,9.984204076E0
2.588322262E0,1.570500135E-1,4.431000233E0,8.944950104E0,9.983514418E0
2.590285783E0,1.570500135E-1,4.431000233E0,8.983950615E0,1.001847276E1
2.592249325E0,1.570500135E-1,4.431000233E0,8.944950104E0,9.983514418E0
2.594212860E0,1.570500135E-1,4.431000233E0,8.907000542E0,9.949526944E0
2.596176326E0,1.570500135E-1,4.468950272E0,8.907000542E0,9.966485834E0
2.598139833E0,1.570500135E-1,4.468950272E0,8.907000542E0,9.966485834E0
2.600103242E0,1.570500135E-1,4.468950272E0,8.907000542E0,9.966485834E0
2.602066679E0,1.570500135E-1,4.431000233E0,8.944950104E0,9.983514418E0
2.604030189E0,1.570500135E-1,4.468950272E0,8.869050026E0,9.932584236E0
2.605993677E0,1.570500135E-1,4.468950272E0,8.907000542E0,9.966485834E0
2.607956891E0,1.960500032E-1,4.431000233E0,8.907000542E0,9.950218958E0
2.609920199E0,1.570500135E-1,4.507050037E0,8.907000542E0,9.983627767E0
2.611883371E0,1.960500032E-1,4.468950272E0,8.907000542E0,9.967176671E0
2.613846583E0,1.960500032E-1,4.468950272E0,8.907000542E0,9.967176671E0
2.615809861E0,1.960500032E-1,4.468950272E0,8.944950104E0,1.000110416E1
2.617773120E0,1.570500135E-1,4.507050037E0,8.944950104E0,1.001749954E1
2.619736347E0,1.960500032E-1,4.468950272E0,8.983950615E0,1.003600123E1
2.621699583E0,1.570500135E-1,4.507050037E0,8.944950104E0,1.001749954E1
2.623662768E0,1.570500135E-1,4.507050037E0,8.907000542E0,9.983627767E0
2.625625968E0,1.570500135E-1,4.507050037E0,8.907000542E0,9.983627767E0
2.627589383E0,1.960500032E-1,4.468950272E0,8.907000542E0,9.967176671E0
2.629552735E0,1.960500032E-1,4.468950272E0,8.907000542E0,9.967176671E0
2.631515616E0,1.570500135E-1,4.507050037E0,8.869050026E0,9.949784576E0
2.633478645E0,1.570500135E-1,4.468950272E0,8.907000542E0,9.966485834E0
2.635442045E0,1.570500135E-1,4.468950272E0,8.907000542E0,9.966485834E0
2.637405336E0,1.570500135E-1,4.468950272E0,8.907000542E0,9.966485834E0
2.639368782E0,1.960500032E-1,4.468950272E0,8.907000542E0,9.967176671E0
2.641332182E0,1.570500135E-1,4.468950272E0,8.907000542E0,9.966485834E0
2.643295905E0,1.570500135E-1,4.468950272E0,8.907000542E0,9.966485834E0
2.645259515E0,1.570500135E-1,4.507050037E0,8.944950104E0,1.001749954E1
2.647223042E0,1.960500032E-1,4.507050037E0,8.907000542E0,9.984317417E0
2.649186593E0,1.189500093E-1,4.507050037E0,8.907000542E0,9.983101111E0
2.651149995E0,1.960500032E-1,4.468950272E0,8.907000542E0,9.967176671E0
2.653113440E0,1.960500032E-1,4.468950272E0,8.907000542E0,9.967176671E0
2.655076988E0,1.570500135E-1,4.507050037E0,8.869050026E0,9.949784576E0
2.657040510E0,1.570500135E-1,4.468950272E0,8.907000542E0,9.966485834E0
2.659004007E0,1.570500135E-1,4.507050037E0,8.830050468E0,9.915036864E0
2.660967512E0,1.960500032E-1,4.468950272E0,8.869050026E0,9.933277430E0
2.662931415E0,1.189500093E-1,4.507050037E0,8.869050026E0,9.949256128E0
2.664895202E0,1.189500093E-1,4.468950272E0,8.830050468E0,9.897244915E0
2.666858564E0,1.570500135E-1,4.468950272E0,8.830050468E0,9.897776140E0
2.668822050E0,1.960500032E-1,4.507050037E0,8.869050026E0,9.950476572E0
2.670785777E0,1.960500032E-1,4.468950272E0,8.830050468E0,9.898471771E0
2.672749433E0,1.960500032E-1,4.468950272E0,8.830050468E0,9.898471771E0
2.674713131E0,1.960500032E-1,4.468950272E0,8.791950226E0,9.864499020E0
2.676676817E0,1.189500093E-1,4.468950272E0,8.791950226E0,9.863267938E0
2.678640156E0,1.960500032E-1,4.468950272E0,8.830050468E0,9.898471771E0
2.680603594E0,1.960500032E-1,4.468950272E0,8.754000664E0,9.830690706E0
2.682566924E0,1.960500032E-1,4.468950272E0,8.754000664E0,9.830690706E0
2.684530286E0,1.570500135E-1,4.507050037E0,8.791950226E0,9.881121066E0
2.686493673E0,2.340000123E-1,4.468950272E0,8.830050468E0,9.899296127E0
2.688457053E0,1.960500032E-1,4.468950272E0,8.791950226E0,9.864499020E0
2.690420833E0,2.340000123E-1,4.431000233E0,8.791950226E0,9.848193126E0
2.692384472E0,1.960500032E-1,4.468950272E0,8.791950226E0,9.864499020E0
2.694347814E0,2.340000123E-1,4.468950272E0,8.791950226E0,9.865326214E0
2.696311243E0,1.570500135E-1,4.468950272E0,8.830050468E0,9.897776140E0
2.698274844E0,1.960500032E-1,4.468950272E0,8.791950226E0,9.864499020E0
2.700238395E0,1.570500135E-1,4.431000233E0,8.791950226E0,9.846665250E0
2.702201727E0,1.570500135E-1,4.468950272E0,8.754000664E0,9.829990278E0
2.704165141E0,1.570500135E-1,4.468950272E0,8.791950226E0,9.863800992E0
2.706128835E0,2.340000123E-1,4.468950272E0,8.869050026E0,9.934098897E0
2.708092447E0,1.960500032E-1,4.468950272E0,8.791950226E0,9.864499020E0
2.710056198E0,1.960500032E-1,4.468950272E0,8.791950226E0,9.864499020E0
2.712019908E0,1.960500032E-1,4.507050037E0,8.791950226E0,9.881817870E0
2.713983539E0,1.570500135E-1,4.468950272E0,8.791950226E0,9.863800992E0
2.715947204E0,1.960500032E-1,4.507050037E0,8.830050468E0,9.915731285E0
2.717910721E0,1.570500135E-1,4.468950272E0,8.869050026E0,9.932584236E0
2.719874281E0,1.960500032E-1,4.468950272E0,8.830050468E0,9.898471771E0
2.721837860E0,1.570500135E-1,4.507050037E0,8.830050468E0,9.915036864E0
2.723801433E0,1.570500135E-1,4.468950272E0,8.830050468E0,9.897776140E0
2.725765312E0,1.570500135E-1,4.468950272E0,8.869050026E0,9.932584236E0
2.727729111E0,1.960500032E-1,4.468950272E0,8.869050026E0,9.933277430E0
2.729692786E0,1.960500032E-1,4.431000233E0,8.907000542E0,9.950218958E0
2.731656498E0,1.570500135E-1,4.507050037E0,8.907000542E0,9.983627767E0
2.733620141E0,1.570500135E-1,4.507050037E0,8.869050026E0,9.949784576E0
2.735583805E0,1.570500135E-1,4.545000076E0,8.944950104E0,1.003463117E1
2.737547323E0,1.960500032E-1,4.468950272E0,8.944950104E0,1.000110416E1
2.739510915E0,1.570500135E-1,4.468950272E0,8.907000542E0,9.966485834E0
2.741474624E0,1.570500135E-1,4.468950272E0,8.869050026E0,9.932584236E0
2.743438298E0,1.570500135E-1,4.468950272E0,8.907000542E0,9.966485834E0
2.745402128E0,1.189500093E-1,4.468950272E0,8.944950104E0,9.999889899E0
2.747365913E0,1.960500032E-1,4.468950272E0,8.944950104E0,1.000110416E1
2.749329230E0,1.570500135E-1,4.431000233E0,8.983950615E0,1.001847276E1
2.751292685E0,1.960500032E-1,4.431000233E0,8.983950615E0,1.001916001E1
2.753256237E0,1.570500135E-1,4.468950272E0,8.944950104E0,1.000041567E1
2.755219760E0,1.960500032E-1,4.431000233E0,8.944950104E0,9.984204076E0
2.757183481E0,2.340000123E-1,4.431000233E0,8.907000542E0,9.951039027E0
2.759147144E0,1.960500032E-1,4.431000233E0,8.944950104E0,9.984204076E0
2.761110693E0,1.570500135E-1,4.431000233E0,8.983950615E0,1.001847276E1
2.763074286E0,1.960500032E-1,4.468950272E0,8.944950104E0,1.000110416E1
2.765038129E0,1.570500135E-1,4.468950272E0,8.944950104E0,1.000041567E1
2.767001899E0,1.960500032E-1,4.507050037E0,8.944950104E0,1.001818686E1
2.768965264E0,1.960500032E-1,4.507050037E0,8.907000542E0,9.984317417E0
2.770928748E0,1.960500032E-1,4.431000233E0,8.907000542E0,9.950218958E0
2.772892081E0,1.960500032E-1,4.468950272E0,8.907000542E0,9.967176671E0
2.774855483E0,1.189500093E-1,4.468950272E0,8.869050026E0,9.932054873E0
2.776818684E0,1.570500135E-1,4.507050037E0,8.869050026E0,9.949784576E0
2.778781944E0,1.570500135E-1,4.431000233E0,8.907000542E0,9.949526944E0
2.780745665E0,1.960500032E-1,4.468950272E0,8.830050468E0,9.898471771E0
2.782709250E0,1.960500032E-1,4.468950272E0,8.869050026E0,9.933277430E0
2.784672596E0,1.570500135E-1,4.468950272E0,8.869050026E0,9.932584236E0
2.786636016E0,1.960500032E-1,4.507050037E0,8.869050026E0,9.950476572E0
2.788599574E0,1.960500032E-1,4.507050037E0,8.830050468E0,9.915731285E0
2.790563091E0,1.960500032E-1,4.507050037E0,8.869050026E0,9.950476572E0
2.792526319E0,1.960500032E-1,4.507050037E0,8.830050468E0,9.915731285E0
2.794489632E0,1.570500135E-1,4.468950272E0,8.869050026E0,9.932584236E0
2.796453213E0,1.960500032E-1,4.468950272E0,8.869050026E0,9.933277430E0
2.798416712E0,2.340000123E-1,4.507050037E0,8.869050026E0,9.951296619E0
2.800379852E0,1.960500032E-1,4.507050037E0,8.869050026E0,9.950476572E0
2.802343098E0,1.960500032E-1,4.468950272E0,8.830050468E0,9.898471771E0
2.804306505E0,1.570500135E-1,4.507050037E0,8.869050026E0,9.949784576E0
2.806269865E0,1.960500032E-1,4.507050037E0,8.830050468E0,9.915731285E0
2.808233106E0,1.960500032E-1,4.507050037E0,8.791950226E0,9.881817870E0
2.810196392E0,1.570500135E-1,4.468950272E0,8.830050468E0,9.897776140E0
2.812159747E0,1.960500032E-1,4.507050037E0,8.791950226E0,9.881817870E0
2.814123082E0,1.960500032E-1,4.507050037E0,8.869050026E0,9.950476572E0
2.816086161E0,1.570500135E-1,4.468950272E0,8.869050026E0,9.932584236E0
2.818049315E0,1.189500093E-1,4.507050037E0,8.830050468E0,9.914506565E0
2.820012697E0,1.570500135E-1,4.468950272E0,8.830050468E0,9.897776140E0
2.821976009E0,1.189500093E-1,4.545000076E0,8.869050026E0,9.966505063E0
2.823939452E0,8.100000024E-2,4.468950272E0,8.830050468E0,9.896861563E0
2.825902856E0,1.189500093E-1,4.507050037E0,8.830050468E0,9.914506565E0
2.827866013E0,1.189500093E-1,4.545000076E0,8.869050026E0,9.966505063E0
2.829829242E0,8.100000024E-2,4.507050037E0,8.869050026E0,9.948874781E0
2.831792647E0,1.189500093E-1,4.507050037E0,8.791950226E0,9.880588946E0
2.833756004E0,1.189500093E-1,4.545000076E0,8.869050026E0,9.966505063E0
2.835719394E0,8.100000024E-2,4.545000076E0,8.869050026E0,9.966124375E0
2.837682774E0,1.189500093E-1,4.545000076E0,8.907000542E0,1.000029167E1
2.839646159E0,1.189500093E-1,4.545000076E0,8.869050026E0,9.966505063E0
2.841609543E0,8.100000024E-2,4.507050037E0,8.869050026E0,9.948874781E0
2.843572758E0,4.200000316E-2,4.507050037E0,8.907000542E0,9.982480788E0
2.845536016E0,8.100000024E-2,4.507050037E0,8.907000542E0,9.982721056E0
2.847499602E0,8.100000024E-2,4.545000076E0,8.907000542E0,9.999912267E0
2.849463091E0,8.100000024E-2,4.507050037E0,8.944950104E0,1.001659590E1
2.851426324E0,1.189500093E-1,4.507050037E0,8.907000542E0,9.983101111E0
2.853389632E0,1.189500093E-1,4.507050037E0,8.907000542E0,9.983101111E0
2.855352854E0,8.100000024E-2,4.507050037E0,8.944950104E0,1.001659590E1
2.857316098E0,8.100000024E-2,4.468950272E0,8.944950104E0,9.999510482E0
2.859279461E0,1.189500093E-1,4.507050037E0,8.907000542E0,9.983101111E0
2.861242789E0,1.189500093E-1,4.468950272E0,8.907000542E0,9.965958272E0
2.863206004E0,8.100000024E-2,4.468950272E0,8.907000542E0,9.965577564E0
2.865169252E0,8.100000024E-2,4.507050037E0,8.944950104E0,1.001659590E1
2.867132319E0,1.570500135E-1,4.468950272E0,8.869050026E0,9.932584236E0
2.869095425E0,1.570500135E-1,4.468950272E0,8.944950104E0,1.000041567E1
2.871058497E0,1.189500093E-1,4.507050037E0,8.869050026E0,9.949256128E0
2.873021579E0,1.570500135E-1,4.468950272E0,8.907000542E0,9.966485834E0
2.874984699E0,1.570500135E-1,4.468950272E0,8.907000542E0,9.966485834E0
2.876947808E0,1.960500032E-1,4.431000233E0,8.907000542E0,9.950218958E0
2.878911245E0,1.570500135E-1,4.468950272E0,8.944950104E0,1.000041567E1
2.880874582E0,1.960500032E-1,4.545000076E0,8.944950104E0,1.003531732E1
2.882837796E0,1.960500032E-1,4.468950272E0,8.907000542E0,9.967176671E0
2.884801046E0,1.960500032E-1,4.468950272E0,8.869050026E0,9.933277430E0
2.886764048E0,1.570500135E-1,4.468950272E0,8.869050026E0,9.932584236E0
2.888727122E0,1.570500135E-1,4.431000233E0,8.869050026E0,9.915567363E0
2.890690263E0,1.570500135E-1,4.468950272E0,8.907000542E0,9.966485834E0
2.892653370E0,1.570500135E-1,4.468950272E0,8.907000542E0,9.966485834E0
2.894616622E0,1.960500032E-1,4.468950272E0,8.869050026E0,9.933277430E0
2.896579832E0,1.960500032E-1,4.468950272E0,8.830050468E0,9.898471771E0
2.898543247E0,1.570500135E-1,4.431000233E0,8.869050026E0,9.915567363E0
2.900506601E0,1.960500032E-1,4.468950272E0,8.830050468E0,9.898471771E0
2.902469851E0,1.960500032E-1,4.431000233E0,8.869050026E0,9.916261747E0
2.904433104E0,1.570500135E-1,4.468950272E0,8.869050026E0,9.932584236E0
2.906396510E0,1.570500135E-1,4.468950272E0,8.869050026E0,9.932584236E0
2.908359871E0,1.960500032E-1,4.507050037E0,8.869050026E0,9.950476572E0
2.910322855E0,1.960500032E-1,4.468950272E0,8.869050026E0,9.933277430E0
2.912285950E0,1.570500135E-1,4.431000233E0,8.869050026E0,9.915567363E0
2.914249389E0,2.340000123E-1,4.468950272E0,8.907000542E0,9.967995344E0
2.916212755E0,2.340000123E-1,4.468950272E0,8.869050026E0,9.934098897E0
2.918176278E0,1.960500032E-1,4.468950272E0,8.869050026E0,9.933277430E0
2.920139755E0,1.960500032E-1,4.468950272E0,8.791950226E0,9.864499020E0
2.922103125E0,1.960500032E-1,4.431000233E0,8.869050026E0,9.916261747E0
2.924066526E0,1.960500032E-1,4.468950272E0,8.830050468E0,9.898471771E0
2.926029773E0,2.340000123E-1,4.431000233E0,8.869050026E0,9.917084624E0
2.927993065E0,2.340000123E-1,4.431000233E0,8.869050026E0,9.917084624E0
2.929956464E0,2.340000123E-1,4.468950272E0,8.869050026E0,9.934098897E0
2.931919832E0,2.340000123E-1,4.431000233E0,8.907000542E0,9.951039027E0
2.933883175E0,1.960500032E-1,4.468950272E0,8.869050026E0,9.933277430E0
2.935846526E0,2.340000123E-1,4.468950272E0,8.830050468E0,9.899296127E0
2.937809800E0,2.340000123E-1,4.468950272E0,8.869050026E0,9.934098897E0
2.939773084E0,2.340000123E-1,4.468950272E0,8.869050026E0,9.934098897E0
2.941736305E0,1.960500032E-1,4.468950272E0,8.869050026E0,9.933277430E0
2.943699545E0,2.340000123E-1,4.431000233E0,8.869050026E0,9.917084624E0
2.945662953E0,2.340000123E-1,4.431000233E0,8.830050468E0,9.882221934E0
2.947626312E0,2.340000123E-1,4.431000233E0,8.869050026E0,9.917084624E0
2.949589492E0,2.340000123E-1,4.431000233E0,8.907000542E0,9.951039027E0
2.951552714E0,2.340000123E-1,4.468950272E0,8.869050026E0,9.934098897E0
2.953515811E0,2.340000123E-1,4.431000233E0,8.869050026E0,9.917084624E0
2.955478945E0,2.719500065E-1,4.431000233E0,8.869050026E0,9.918052643E0
2.957442687E0,2.340000123E-1,4.468950272E0,8.869050026E0,9.934098897E0
2.959406251E0,2.340000123E-1,4.431000233E0,8.907000542E0,9.951039027E0
2.961369670E0,2.340000123E-1,4.431000233E0,8.907000542E0,9.951039027E0
2.963333118E0,2.719500065E-1,4.468950272E0,8.869050026E0,9.935065259E0
2.965296311E0,2.719500065E-1,4.468950272E0,8.869050026E0,9.935065259E0
2.967259579E0,2.340000123E-1,4.468950272E0,8.830050468E0,9.899296127E0
2.969223118E0,2.340000123E-1,4.431000233E0,8.830050468E0,9.882221934E0
2.971186577E0,2.340000123E-1,4.431000233E0,8.907000542E0,9.951039027E0
2.973149829E0,1.960500032E-1,4.468950272E0,8.869050026E0,9.933277430E0
2.975113132E0,1.960500032E-1,4.431000233E0,8.869050026E0,9.916261747E0
2.977076529E0,2.340000123E-1,4.468950272E0,8.907000542E0,9.967995344E0
2.979039899E0,1.960500032E-1,4.507050037E0,8.869050026E0,9.950476572E0
2.981002927E0,1.960500032E-1,4.468950272E0,8.869050026E0,9.933277430E0
2.982966055E0,1.570500135E-1,4.431000233E0,8.830050468E0,9.880699320E0
2.984929447E0,2.340000123E-1,4.507050037E0,8.907000542E0,9.985134686E0
2.986892755E0,1.960500032E-1,4.507050037E0,8.907000542E0,9.984317417E0
2.988855974E0,2.340000123E-1,4.468950272E0,8.907000542E0,9.967995344E0
2.990819219E0,1.960500032E-1,4.468950272E0,8.907000542E0,9.967176671E0
2.992782267E0,1.960500032E-1,4.431000233E0,8.907000542E0,9.950218958E0
2.994745373E0,1.960500032E-1,4.431000233E0,8.944950104E0,9.984204076E0
2.996708425E0,1.960500032E-1,4.431000233E0,8.869050026E0,9.916261747E0
2.998671507E0,1.570500135E-1,4.468950272E0,8.869050026E0,9.932584236E0
3.000634268E0,2.340000123E-1,4.468950272E0,8.869050026E0,9.934098897E0
3.002597123E0,1.960500032E-1,4.392000198E0,8.944950104E0,9.966957094E0
3.004560237E0,2.340000123E-1,4.468950272E0,8.944950104E0,1.000192006E1
3.006523275E0,1.960500032E-1,4.431000233E0,8.869050026E0,9.916261747E0
3.008486508E0,1.570500135E-1,4.468950272E0,8.907000542E0,9.966485834E0
3.010449673E0,1.960500032E-1,4.468950272E0,8.907000542E0,9.967176671E0
3.012412781E0,1.960500032E-1,4.431000233E0,8.944950104E0,9.984204076E0
3.014375906E0,1.960500032E-1,4.468950272E0,8.944950104E0,1.000110416E1
3.016339154E0,1.570500135E-1,4.431000233E0,8.944950104E0,9.983514418E0
3.018302366E0,1.960500032E-1,4.431000233E0,8.907000542E0,9.950218958E0
3.020265710E0,1.570500135E-1,4.431000233E0,8.944950104E0,9.983514418E0
3.022229033E0,1.189500093E-1,4.468950272E0,8.944950104E0,9.999889899E0
3.024192473E0,1.570500135E-1,4.431000233E0,8.944950104E0,9.983514418E0
3.026155879E0,1.570500135E-1,4.507050037E0,8.944950104E0,1.001749954E1
3.028119261E0,1.570500135E-1,4.431000233E0,8.944950104E0,9.983514418E0
3.030082650E0,1.189500093E-1,4.468950272E0,8.944950104E0,9.999889899E0
3.032045994E0,1.960500032E-1,4.468950272E0,8.983950615E0,1.003600123E1
3.034009348E0,1.570500135E-1,4.468950272E0,8.944950104E0,1.000041567E1
3.035972737E0,1.189500093E-1,4.468950272E0,8.983950615E0,1.003479119E1
3.037936115E0,1.570500135E-1,4.431000233E0,8.983950615E0,1.001847276E1
3.039899726E0,1.570500135E-1,4.468950272E0,8.944950104E0,1.000041567E1
3.041863269E0,1.570500135E-1,4.431000233E0,8.983950615E0,1.001847276E1
3.043826402E0,1.570500135E-1,4.507050037E0,8.983950615E0,1.005233970E1
3.045789655E0,1.570500135E-1,4.468950272E0,8.944950104E0,1.000041567E1
3.047752882E0,1.570500135E-1,4.468950272E0,8.944950104E0,1.000041567E1
3.049716117E0,1.189500093E-1,4.468950272E0,8.944950104E0,9.999889899E0
3.051679526E0,1.189500093E-1,4.468950272E0,8.907000542E0,9.965958272E0
3.053642884E0,1.189500093E-1,4.507050037E0,8.944950104E0,1.001697467E1
3.055606089E0,1.189500093E-1,4.468950272E0,8.907000542E0,9.965958272E0
3.057569343E0,1.189500093E-1,4.468950272E0,8.944950104E0,9.999889899E0
3.059532569E0,1.960500032E-1,4.507050037E0,8.944950104E0,1.001818686E1
3.061495804E0,1.570500135E-1,4.545000076E0,8.944950104E0,1.003463117E1
3.063458899E0,1.189500093E-1,4.468950272E0,8.983950615E0,1.003479119E1
3.065422035E0,1.570500135E-1,4.507050037E0,8.944950104E0,1.001749954E1
3.067385231E0,1.960500032E-1,4.507050037E0,8.907000542E0,9.984317417E0
3.069348413E0,1.570500135E-1,4.507050037E0,8.869050026E0,9.949784576E0
3.071311877E0,1.570500135E-1,4.468950272E0,8.869050026E0,9.932584236E0
3.073275259E0,1.570500135E-1,4.507050037E0,8.907000542E0,9.983627767E0
3.075238465E0,1.960500032E-1,4.507050037E0,8.907000542E0,9.984317417E0
3.077201722E0,1.570500135E-1,4.507050037E0,8.830050468E0,9.915036864E0
3.079165104E0,1.960500032E-1,4.507050037E0,8.907000542E0,9.984317417E0
3.081128466E0,1.570500135E-1,4.545000076E0,8.869050026E0,9.967032596E0
3.083091810E0,1.570500135E-1,4.545000076E0,8.830050468E0,9.932345225E0
3.085055160E0,1.570500135E-1,4.468950272E0,8.869050026E0,9.932584236E0
3.087018730E0,1.570500135E-1,4.507050037E0,8.791950226E0,9.881121066E0
3.088982235E0,1.960500032E-1,4.468950272E0,8.869050026E0,9.933277430E0
3.090945741E0,1.570500135E-1,4.507050037E0,8.830050468E0,9.915036864E0
3.092909274E0,1.570500135E-1,4.507050037E0,8.907000542E0,9.983627767E0
3.094872679E0,1.570500135E-1,4.545000076E0,8.830050468E0,9.932345225E0
3.096836122E0,1.960500032E-1,4.468950272E0,8.830050468E0,9.898471771E0
3.098799811E0,1.570500135E-1,4.468950272E0,8.869050026E0,9.932584236E0
3.100763428E0,1.960500032E-1,4.507050037E0,8.791950226E0,9.881817870E0
3.102726798E0,2.340000123E-1,4.507050037E0,8.830050468E0,9.916554206E0
3.104690223E0,1.960500032E-1,4.507050037E0,8.830050468E0,9.915731285E0
3.106653465E0,1.570500135E-1,4.468950272E0,8.830050468E0,9.897776140E0
3.108616761E0,1.570500135E-1,4.507050037E0,8.830050468E0,9.915036864E0
3.110580340E0,1.960500032E-1,4.545000076E0,8.791950226E0,9.899184313E0
3.112543836E0,1.570500135E-1,4.507050037E0,8.754000664E0,9.847369820E0
3.114507536E0,1.570500135E-1,4.507050037E0,8.791950226E0,9.881121066E0
3.116471163E0,1.960500032E-1,4.545000076E0,8.791950226E0,9.899184313E0
3.118434687E0,1.189500093E-1,4.507050037E0,8.791950226E0,9.880588946E0
3.120398242E0,1.570500135E-1,4.507050037E0,8.791950226E0,9.881121066E0
3.122361822E0,1.570500135E-1,4.507050037E0,8.830050468E0,9.915036864E0
3.124325394E0,1.189500093E-1,4.545000076E0,8.754000664E0,9.864263907E0
3.126288918E0,1.960500032E-1,4.507050037E0,8.791950226E0,9.881817870E0
3.128252463E0,1.570500135E-1,4.468950272E0,8.754000664E0,9.829990278E0
3.130215820E0,1.570500135E-1,4.507050037E0,8.830050468E0,9.915036864E0
3.132179232E0,1.570500135E-1,4.507050037E0,8.791950226E0,9.881121066E0
3.134142387E0,1.189500093E-1,4.468950272E0,8.791950226E0,9.863267938E0
3.136105617E0,1.189500093E-1,4.431000233E0,8.754000664E0,9.812259668E0
3.138068852E0,1.960500032E-1,4.468950272E0,8.830050468E0,9.898471771E0
3.140032082E0,1.570500135E-1,4.507050037E0,8.791950226E0,9.881121066E0
3.141995178E0,1.960500032E-1,4.468950272E0,8.754000664E0,9.830690706E0
3.143958314E0,1.570500135E-1,4.507050037E0,8.830050468E0,9.915036864E0
3.145921560E0,1.570500135E-1,4.468950272E0,8.791950226E0,9.863800992E0
3.147884773E0,1.570500135E-1,4.507050037E0,8.791950226E0,9.881121066E0
3.149848137E0,1.960500032E-1,4.468950272E0,8.791950226E0,9.864499020E0
3.151811461E0,2.340000123E-1,4.468950272E0,8.791950226E0,9.865326214E0
3.153774677E0,1.960500032E-1,4.468950272E0,8.830050468E0,9.898471771E0
3.155737924E0,1.570500135E-1,4.468950272E0,8.869050026E0,9.932584236E0
3.157701332E0,1.960500032E-1,4.431000233E0,8.791950226E0,9.847364492E0
3.159664692E0,1.960500032E-1,4.468950272E0,8.791950226E0,9.864499020E0
3.161627936E0,1.189500093E-1,4.468950272E0,8.830050468E0,9.897244915E0
3.163591222E0,1.960500032E-1,4.468950272E0,8.830050468E0,9.898471771E0
3.165554577E0,1.960500032E-1,4.507050037E0,8.791950226E0,9.881817870E0
3.167517912E0,1.570500135E-1,4.431000233E0,8.830050468E0,9.880699320E0
3.169481306E0,1.960500032E-1,4.468950272E0,8.830050468E0,9.898471771E0
3.171444682E0,1.960500032E-1,4.468950272E0,8.869050026E0,9.933277430E0
3.173407749E0,1.960500032E-1,4.468950272E0,8.830050468E0,9.898471771E0
3.175370910E0,1.570500135E-1,4.507050037E0,8.869050026E0,9.949784576E0
3.177333973E0,1.960500032E-1,4.507050037E0,8.830050468E0,9.915731285E0
3.179297064E0,1.960500032E-1,4.468950272E0,8.830050468E0,9.898471771E0
3.181260318E0,1.570500135E-1,4.468950272E0,8.830050468E0,9.897776140E0
3.183223524E0,2.340000123E-1,4.507050037E0,8.907000542E0,9.985134686E0
3.185187134E0,1.960500032E-1,4.468950272E0,8.907000542E0,9.967176671E0
3.187150615E0,1.960500032E-1,4.431000233E0,8.907000542E0,9.950218958E0
3.189113984E0,1.960500032E-1,4.431000233E0,8.869050026E0,9.916261747E0
3.191077386E0,1.960500032E-1,4.468950272E0,8.869050026E0,9.933277430E0
3.193040947E0,1.960500032E-1,4.468950272E0,8.907000542E0,9.967176671E0
3.195004461E0,2.340000123E-1,4.468950272E0,8.907000542E0,9.967995344E0
3.196967644E0,1.960500032E-1,4.468950272E0,8.907000542E0,9.967176671E0
3.198930924E0,2.340000123E-1,4.468950272E0,8.944950104E0,1.000192006E1
3.200894281E0,2.340000123E-1,4.468950272E0,8.907000542E0,9.967995344E0
3.202857615E0,2.340000123E-1,4.507050037E0,8.907000542E0,9.985134686E0
3.204821234E0,1.960500032E-1,4.468950272E0,8.944950104E0,1.000110416E1
3.206784769E0,1.960500032E-1,4.431000233E0,8.983950615E0,1.001916001E1
3.208748084E0,2.340000123E-1,4.468950272E0,9.022050858E0,1.007093214E1
3.210711463E0,1.960500032E-1,4.431000233E0,8.983950615E0,1.001916001E1
3.212675028E0,2.340000123E-1,4.431000233E0,8.944950104E0,9.985021353E0
3.214638538E0,2.340000123E-1,4.468950272E0,9.060000420E0,1.010494335E1
3.216601767E0,2.340000123E-1,4.468950272E0,8.983950615E0,1.003681429E1
3.218565078E0,2.340000123E-1,4.468950272E0,9.022050858E0,1.007093214E1
3.220528280E0,2.340000123E-1,4.507050037E0,8.983950615E0,1.005383632E1
3.222491525E0,2.340000123E-1,4.431000233E0,8.944950104E0,9.985021353E0
3.224454753E0,2.340000123E-1,4.431000233E0,8.983950615E0,1.001997444E1
3.226417986E0,1.960500032E-1,4.468950272E0,9.022050858E0,1.007012184E1
3.228381217E0,2.340000123E-1,4.431000233E0,9.022050858E0,1.005414943E1
3.230344448E0,2.340000123E-1,4.431000233E0,8.983950615E0,1.001997444E1
3.232307813E0,2.340000123E-1,4.468950272E0,9.022050858E0,1.007093214E1
3.234271138E0,1.960500032E-1,4.468950272E0,9.022050858E0,1.007012184E1
3.236234174E0,2.340000123E-1,4.431000233E0,9.022050858E0,1.005414943E1
3.238197294E0,2.340000123E-1,4.431000233E0,8.944950104E0,9.985021353E0
3.240160543E0,2.340000123E-1,4.431000233E0,8.944950104E0,9.985021353E0
3.242123754E0,2.340000123E-1,4.468950272E0,8.944950104E0,1.000192006E1
3.244087228E0,2.340000123E-1,4.468950272E0,8.944950104E0,1.000192006E1
3.246050615E0,2.340000123E-1,4.431000233E0,8.944950104E0,9.985021353E0
3.248014000E0,2.340000123E-1,4.468950272E0,8.907000542E0,9.967995344E0
3.249977386E0,2.340000123E-1,4.468950272E0,8.944950104E0,1.000192006E1
3.251940904E0,2.340000123E-1,4.468950272E0,8.983950615E0,1.003681429E1
3.253904384E0,1.960500032E-1,4.431000233E0,8.944950104E0,9.984204076E0
3.255867793E0,2.340000123E-1,4.431000233E0,8.907000542E0,9.951039027E0
3.257831227E0,2.719500065E-1,4.468950272E0,8.907000542E0,9.968958420E0
3.259794558E0,2.340000123E-1,4.431000233E0,8.944950104E0,9.985021353E0
3.261757920E0,1.960500032E-1,4.468950272E0,8.869050026E0,9.933277430E0
3.263721307E0,2.719500065E-1,4.468950272E0,8.907000542E0,9.968958420E0
3.265684687E0,1.960500032E-1,4.468950272E0,8.907000542E0,9.967176671E0
3.267647888E0,1.960500032E-1,4.468950272E0,8.907000542E0,9.967176671E0
3.269611145E0,2.719500065E-1,4.431000233E0,8.907000542E0,9.952003744E0
3.271574371E0,2.340000123E-1,4.431000233E0,8.907000542E0,9.951039027E0
3.273537607E0,2.340000123E-1,4.431000233E0,8.907000542E0,9.951039027E0
3.275501061E0,2.340000123E-1,4.468950272E0,8.907000542E0,9.967995344E0
3.277464451E0,2.340000123E-1,4.468950272E0,8.907000542E0,9.967995344E0
3.279427656E0,2.340000123E-1,4.468950272E0,8.869050026E0,9.934098897E0
3.281390915E0,2.340000123E-1,4.468950272E0,8.907000542E0,9.967995344E0
3.283354141E0,2.340000123E-1,4.468950272E0,8.907000542E0,9.967995344E0
3.285317376E0,2.340000123E-1,4.468950272E0,8.869050026E0,9.934098897E0
3.287280606E0,1.570500135E-1,4.507050037E0,8.907000542E0,9.983627767E0
3.289243838E0,1.570500135E-1,4.431000233E0,8.907000542E0,9.949526944E0
3.291207202E0,1.570500135E-1,4.468950272E0,8.830050468E0,9.897776140E0
3.293170528E0,8.100000024E-2,4.468950272E0,8.869050026E0,9.931672865E0
3.295133744E0,1.570500135E-1,4.468950272E0,8.869050026E0,9.932584236E0
3.297096992E0,1.189500093E-1,4.468950272E0,8.869050026E0,9.932054873E0
3.299060264E0,1.189500093E-1,4.468950272E0,8.830050468E0,9.897244915E0
3.301023528E0,1.570500135E-1,4.507050037E0,8.869050026E0,9.949784576E0
3.302987304E0,1.189500093E-1,4.507050037E0,8.869050026E0,9.949256128E0
3.304950923E0,1.189500093E-1,4.468950272E0,8.830050468E0,9.897244915E0
3.306914268E0,8.100000024E-2,4.468950272E0,8.830050468E0,9.896861563E0
3.308877694E0,8.100000024E-2,4.507050037E0,8.830050468E0,9.914123880E0
3.310841026E0,8.100000024E-2,4.507050037E0,8.791950226E0,9.880204948E0
3.312804386E0,8.100000024E-2,4.545000076E0,8.791950226E0,9.897574221E0
3.314767783E0,8.100000024E-2,4.507050037E0,8.869050026E0,9.948874781E0
3.316731162E0,1.189500093E-1,4.507050037E0,8.830050468E0,9.914506565E0
3.318694369E0,1.189500093E-1,4.545000076E0,8.791950226E0,9.897957545E0
3.320657626E0,1.189500093E-1,4.545000076E0,8.830050468E0,9.931815850E0
3.322620896E0,1.189500093E-1,4.507050037E0,8.791950226E0,9.880588946E0
3.324584162E0,1.189500093E-1,4.507050037E0,8.791950226E0,9.880588946E0
3.326547348E0,8.100000024E-2,4.507050037E0,8.791950226E0,9.880204948E0
3.328510554E0,4.200000316E-2,4.468950272E0,8.869050026E0,9.931431362E0
