"Time (s)","Acceleration x (m/s^2)","Acceleration y (m/s^2)","Acceleration z (m/s^2)","Absolute acceleration (m/s^2)"
3.212269100E-2,2.719500065E-1,4.468950272E0,8.944950104E0,1.000287987E1
3.408448800E-2,1.960500032E-1,4.468950272E0,8.907000542E0,9.967176671E0
3.604884500E-2,1.960500032E-1,4.468950272E0,8.944950104E0,1.000110416E1
3.801138700E-2,2.719500065E-1,4.431000233E0,8.907000542E0,9.952003744E0
3.997446000E-2,2.340000123E-1,4.431000233E0,8.944950104E0,9.985021353E0
4.193748700E-2,2.719500065E-1,4.468950272E0,8.983950615E0,1.003777077E1
4.390053200E-2,2.340000123E-1,4.431000233E0,8.944950104E0,9.985021353E0
4.586347900E-2,1.960500032E-1,4.392000198E0,8.907000542E0,9.932912966E0
4.782645500E-2,2.340000123E-1,4.392000198E0,8.907000542E0,9.933734464E0
4.978954800E-2,2.719500065E-1,4.431000233E0,8.944950104E0,9.985982787E0
5.175260700E-2,2.719500065E-1,4.392000198E0,8.907000542E0,9.934700861E0
5.371560400E-2,2.340000123E-1,4.392000198E0,8.944950104E0,9.967775785E0
5.567864700E-2,2.719500065E-1,4.392000198E0,8.944950104E0,9.968738882E0
5.764154900E-2,2.719500065E-1,4.354050159E0,8.907000542E0,9.917982065E0
5.960449300E-2,2.340000123E-1,4.354050159E0,8.907000542E0,9.917014039E0
6.156759200E-2,2.719500065E-1,4.392000198E0,8.869050026E0,9.900690426E0
6.353064500E-2,2.719500065E-1,4.354050159E0,8.869050026E0,9.883914101E0
6.549371200E-2,1.960500032E-1,4.392000198E0,8.830050468E0,9.863969415E0
6.745678500E-2,3.109500110E-1,4.315950394E0,8.830050468E0,9.833306107E0
6.942004300E-2,2.719500065E-1,4.354050159E0,8.830050468E0,9.848933997E0
7.138324700E-2,2.719500065E-1,4.315950394E0,8.830050468E0,9.832150115E0
7.334616800E-2,2.340000123E-1,4.354050159E0,8.907000542E0,9.917014039E0
7.530917200E-2,2.340000123E-1,4.354050159E0,8.869050026E0,9.882942738E0
7.727221900E-2,2.340000123E-1,4.315950394E0,8.869050026E0,9.866216710E0
7.923525100E-2,2.719500065E-1,4.315950394E0,8.869050026E0,9.867189720E0
8.119815600E-2,3.109500110E-1,4.354050159E0,8.907000542E0,9.919128054E0
8.316109900E-2,3.109500110E-1,4.276950359E0,8.869050026E0,9.851347250E0
8.512406300E-2,3.109500110E-1,4.354050159E0,8.907000542E0,9.919128054E0
8.708702000E-2,2.719500065E-1,4.315950394E0,8.869050026E0,9.867189720E0
8.905010400E-2,3.109500110E-1,4.315950394E0,8.869050026E0,9.868341607E0
9.101316000E-2,2.719500065E-1,4.354050159E0,8.869050026E0,9.883914101E0
9.297637500E-2,3.109500110E-1,4.354050159E0,8.907000542E0,9.919128054E0
9.493954400E-2,3.109500110E-1,4.315950394E0,8.869050026E0,9.868341607E0
9.690247100E-2,2.719500065E-1,4.392000198E0,8.869050026E0,9.900690426E0
9.886546900E-2,3.109500110E-1,4.354050159E0,8.791950226E0,9.815947813E0
1.008283270E-1,3.109500110E-1,4.354050159E0,8.791950226E0,9.815947813E0
1.027912630E-1,3.109500110E-1,4.354050159E0,8.791950226E0,9.815947813E0
1.047543180E-1,3.109500110E-1,4.354050159E0,8.791950226E0,9.815947813E0
1.067173380E-1,2.719500065E-1,4.392000198E0,8.715000153E0,9.762932459E0
1.086806500E-1,2.719500065E-1,4.354050159E0,8.791950226E0,9.814789777E0
1.106438760E-1,3.109500110E-1,4.392000198E0,8.791950226E0,9.832840100E0
1.126067000E-1,2.719500065E-1,4.392000198E0,8.830050468E0,9.865769804E0
1.145696760E-1,3.490500152E-1,4.431000233E0,8.791950226E0,9.851598233E0
1.165327240E-1,3.109500110E-1,4.392000198E0,8.830050468E0,9.866921857E0
1.184957510E-1,3.109500110E-1,4.431000233E0,8.791950226E0,9.850321911E0
1.204588820E-1,3.109500110E-1,4.431000233E0,8.830050468E0,9.884343390E0
1.224219820E-1,3.109500110E-1,4.392000198E0,8.791950226E0,9.832840100E0
1.243851560E-1,2.719500065E-1,4.392000198E0,8.830050468E0,9.865769804E0
1.263483330E-1,2.719500065E-1,4.392000198E0,8.830050468E0,9.865769804E0
1.283112590E-1,3.109500110E-1,4.392000198E0,8.830050468E0,9.866921857E0
1.302742580E-1,2.719500065E-1,4.431000233E0,8.830050468E0,9.883193368E0
1.322371680E-1,2.719500065E-1,4.392000198E0,8.869050026E0,9.900690426E0
1.342001040E-1,2.719500065E-1,4.392000198E0,8.830050468E0,9.865769804E0
1.361633190E-1,3.109500110E-1,4.431000233E0,8.791950226E0,9.850321911E0
1.381264660E-1,3.109500110E-1,4.392000198E0,8.869050026E0,9.901838416E0
1.400893520E-1,3.490500152E-1,4.392000198E0,8.830050468E0,9.868196032E0
1.420523150E-1,3.109500110E-1,4.468950272E0,8.791950226E0,9.867451303E0
1.440152760E-1,3.109500110E-1,4.392000198E0,8.830050468E0,9.866921857E0
1.459782380E-1,3.109500110E-1,4.431000233E0,8.830050468E0,9.884343390E0
1.479413300E-1,2.719500065E-1,4.431000233E0,8.869050026E0,9.918052643E0
1.499043860E-1,2.719500065E-1,4.392000198E0,8.869050026E0,9.900690426E0
1.518676010E-1,2.719500065E-1,4.431000233E0,8.869050026E0,9.918052643E0
1.538307700E-1,3.109500110E-1,4.431000233E0,8.869050026E0,9.919198624E0
1.557938770E-1,2.340000123E-1,4.468950272E0,8.983950615E0,1.003681429E1
1.577570030E-1,2.340000123E-1,4.431000233E0,8.944950104E0,9.985021353E0
1.597203660E-1,2.340000123E-1,4.468950272E0,8.944950104E0,1.000192006E1
1.616836730E-1,2.719500065E-1,4.468950272E0,8.944950104E0,1.000287987E1
1.636469370E-1,2.340000123E-1,4.507050037E0,8.907000542E0,9.985134686E0
1.656102140E-1,2.340000123E-1,4.431000233E0,8.983950615E0,1.001997444E1
1.675734360E-1,2.340000123E-1,4.468950272E0,8.907000542E0,9.967995344E0
1.695366750E-1,2.340000123E-1,4.468950272E0,8.944950104E0,1.000192006E1
1.715000250E-1,2.340000123E-1,4.431000233E0,8.944950104E0,9.985021353E0
1.734633520E-1,1.960500032E-1,4.431000233E0,8.944950104E0,9.984204076E0
1.754266120E-1,2.340000123E-1,4.431000233E0,8.944950104E0,9.985021353E0
1.773898920E-1,2.719500065E-1,4.392000198E0,8.983950615E0,1.000374886E1
1.793529340E-1,2.340000123E-1,4.431000233E0,8.944950104E0,9.985021353E0
1.813160460E-1,2.340000123E-1,4.431000233E0,8.983950615E0,1.001997444E1
1.832792860E-1,2.719500065E-1,4.431000233E0,8.944950104E0,9.985982787E0
1.852424950E-1,2.719500065E-1,4.431000233E0,9.022050858E0,1.005510425E1
1.872058650E-1,2.719500065E-1,4.392000198E0,8.983950615E0,1.000374886E1
1.891691880E-1,2.719500065E-1,4.392000198E0,9.022050858E0,1.003797909E1
1.911324490E-1,3.109500110E-1,4.392000198E0,9.022050858E0,1.003911138E1
1.930957280E-1,2.340000123E-1,4.392000198E0,8.983950615E0,1.000278913E1
1.950589170E-1,2.340000123E-1,4.392000198E0,8.944950104E0,9.967775785E0
1.970221560E-1,2.340000123E-1,4.392000198E0,9.022050858E0,1.003702264E1
1.989853850E-1,2.340000123E-1,4.392000198E0,8.983950615E0,1.000278913E1
2.009486170E-1,3.109500110E-1,4.392000198E0,8.983950615E0,1.000488502E1
2.029118480E-1,2.340000123E-1,4.354050159E0,9.022050858E0,1.002047456E1
2.048750790E-1,2.340000123E-1,4.431000233E0,8.944950104E0,9.985021353E0
2.068380310E-1,2.340000123E-1,4.392000198E0,8.983950615E0,1.000278913E1
2.088011030E-1,2.340000123E-1,4.392000198E0,8.983950615E0,1.000278913E1
2.107642250E-1,2.340000123E-1,4.431000233E0,8.983950615E0,1.001997444E1
2.127273320E-1,2.340000123E-1,4.392000198E0,8.983950615E0,1.000278913E1
2.146905840E-1,2.340000123E-1,4.392000198E0,8.907000542E0,9.933734464E0
2.166537930E-1,2.340000123E-1,4.392000198E0,8.983950615E0,1.000278913E1
2.186167980E-1,2.719500065E-1,4.392000198E0,8.907000542E0,9.934700861E0
2.205798670E-1,2.340000123E-1,4.354050159E0,8.944950104E0,9.951112559E0
2.225431250E-1,2.719500065E-1,4.392000198E0,8.869050026E0,9.900690426E0
2.245063270E-1,2.719500065E-1,4.354050159E0,8.907000542E0,9.917982065E0
2.264694280E-1,2.340000123E-1,4.392000198E0,8.869050026E0,9.899720709E0
2.284325590E-1,2.340000123E-1,4.392000198E0,8.944950104E0,9.967775785E0
2.303957610E-1,2.340000123E-1,4.392000198E0,8.907000542E0,9.933734464E0
2.323589420E-1,2.719500065E-1,4.392000198E0,8.944950104E0,9.968738882E0
2.343221820E-1,2.719500065E-1,4.392000198E0,8.907000542E0,9.934700861E0
2.362854040E-1,3.109500110E-1,4.354050159E0,8.869050026E0,9.885064039E0
2.382486360E-1,2.719500065E-1,4.392000198E0,8.869050026E0,9.900690426E0
2.402118650E-1,2.719500065E-1,4.354050159E0,8.907000542E0,9.917982065E0
2.421752810E-1,3.490500152E-1,4.354050159E0,8.869050026E0,9.886335877E0
2.441386390E-1,2.719500065E-1,4.392000198E0,8.869050026E0,9.900690426E0
2.461018490E-1,3.109500110E-1,4.315950394E0,8.907000542E0,9.902463146E0
2.480651030E-1,3.109500110E-1,4.392000198E0,8.907000542E0,9.935844921E0
2.500283290E-1,2.719500065E-1,4.354050159E0,8.907000542E0,9.917982065E0
2.519915640E-1,3.490500152E-1,4.392000198E0,8.907000542E0,9.937110259E0
2.539546690E-1,3.490500152E-1,4.392000198E0,8.907000542E0,9.937110259E0
2.559178050E-1,3.109500110E-1,4.431000233E0,8.944950104E0,9.987120973E0
2.578810510E-1,3.109500110E-1,4.392000198E0,8.907000542E0,9.935844921E0
2.598442650E-1,3.109500110E-1,4.392000198E0,8.869050026E0,9.901838416E0
2.618074540E-1,3.109500110E-1,4.392000198E0,8.907000542E0,9.935844921E0
2.637706510E-1,3.490500152E-1,4.354050159E0,8.907000542E0,9.920395524E0
2.657340780E-1,2.340000123E-1,4.431000233E0,8.907000542E0,9.951039027E0
2.676974620E-1,2.719500065E-1,4.392000198E0,8.907000542E0,9.934700861E0
2.696608030E-1,2.719500065E-1,4.392000198E0,8.869050026E0,9.900690426E0
2.716241560E-1,3.109500110E-1,4.431000233E0,8.907000542E0,9.953145815E0
2.735877250E-1,3.490500152E-1,4.354050159E0,8.830050468E0,9.851364371E0
2.755512310E-1,3.109500110E-1,4.392000198E0,8.869050026E0,9.901838416E0
2.775145820E-1,3.109500110E-1,4.392000198E0,8.869050026E0,9.901838416E0
2.794779880E-1,2.719500065E-1,4.392000198E0,8.869050026E0,9.900690426E0
2.814417740E-1,2.719500065E-1,4.431000233E0,8.907000542E0,9.952003744E0
2.834054480E-1,3.490500152E-1,4.431000233E0,8.869050026E0,9.920466085E0
2.853686030E-1,3.109500110E-1,4.392000198E0,8.907000542E0,9.935844921E0
2.873319110E-1,3.109500110E-1,4.468950272E0,8.869050026E0,9.936209277E0
2.892954620E-1,3.109500110E-1,4.392000198E0,8.907000542E0,9.935844921E0
2.912589280E-1,2.719500065E-1,4.431000233E0,8.944950104E0,9.985982787E0
2.932221200E-1,2.340000123E-1,4.392000198E0,8.944950104E0,9.967775785E0
2.951853920E-1,2.340000123E-1,4.431000233E0,8.944950104E0,9.985021353E0
2.971484350E-1,2.719500065E-1,4.431000233E0,8.869050026E0,9.918052643E0
2.991115460E-1,2.719500065E-1,4.431000233E0,8.944950104E0,9.985982787E0
3.010744820E-1,2.719500065E-1,4.431000233E0,8.907000542E0,9.952003744E0
3.030374690E-1,2.719500065E-1,4.431000233E0,8.869050026E0,9.918052643E0
3.050005600E-1,2.340000123E-1,4.392000198E0,8.907000542E0,9.933734464E0
3.069636210E-1,2.719500065E-1,4.431000233E0,8.983950615E0,1.002093252E1
3.089266560E-1,2.719500065E-1,4.431000233E0,8.944950104E0,9.985982787E0
3.108896990E-1,2.340000123E-1,4.468950272E0,8.869050026E0,9.934098897E0
3.128526520E-1,2.340000123E-1,4.431000233E0,8.907000542E0,9.951039027E0
3.148156280E-1,2.719500065E-1,4.431000233E0,8.944950104E0,9.985982787E0
3.167785420E-1,2.719500065E-1,4.431000233E0,8.944950104E0,9.985982787E0
3.187414740E-1,2.340000123E-1,4.468950272E0,8.944950104E0,1.000192006E1
3.207042150E-1,2.340000123E-1,4.431000233E0,8.983950615E0,1.001997444E1
3.226670120E-1,1.960500032E-1,4.431000233E0,8.983950615E0,1.001916001E1
3.246297770E-1,1.960500032E-1,4.431000233E0,8.983950615E0,1.001916001E1
3.265925510E-1,1.960500032E-1,4.468950272E0,9.022050858E0,1.007012184E1
3.285556790E-1,1.960500032E-1,4.468950272E0,9.060000420E0,1.010413577E1
3.305187030E-1,2.340000123E-1,4.431000233E0,9.022050858E0,1.005414943E1
3.324817430E-1,1.960500032E-1,4.468950272E0,8.907000542E0,9.967176671E0
3.344447790E-1,1.960500032E-1,4.431000233E0,8.983950615E0,1.001916001E1
3.364076880E-1,1.570500135E-1,4.431000233E0,8.983950615E0,1.001847276E1
3.383706320E-1,1.570500135E-1,4.431000233E0,8.944950104E0,9.983514418E0
3.403337750E-1,1.960500032E-1,4.431000233E0,8.907000542E0,9.950218958E0
3.422968600E-1,1.570500135E-1,4.431000233E0,8.983950615E0,1.001847276E1
3.442602510E-1,1.570500135E-1,4.392000198E0,8.983950615E0,1.000128487E1
3.462235530E-1,1.570500135E-1,4.431000233E0,8.983950615E0,1.001847276E1
3.481868320E-1,1.570500135E-1,4.431000233E0,8.983950615E0,1.001847276E1
3.501501080E-1,1.960500032E-1,4.431000233E0,8.944950104E0,9.984204076E0
3.521132860E-1,1.570500135E-1,4.468950272E0,8.983950615E0,1.003531514E1
3.540764930E-1,1.960500032E-1,4.392000198E0,8.983950615E0,1.000197331E1
3.560395930E-1,1.570500135E-1,4.431000233E0,8.983950615E0,1.001847276E1
3.580027240E-1,1.960500032E-1,4.431000233E0,9.060000420E0,1.008740830E1
3.599659650E-1,1.960500032E-1,4.431000233E0,9.022050858E0,1.005333777E1
3.619291780E-1,1.960500032E-1,4.431000233E0,9.060000420E0,1.008740830E1
3.638927270E-1,1.960500032E-1,4.392000198E0,9.060000420E0,1.007033808E1
3.658561780E-1,1.960500032E-1,4.392000198E0,9.022050858E0,1.003620959E1
3.678193720E-1,1.960500032E-1,4.431000233E0,9.022050858E0,1.005333777E1
3.697826420E-1,1.570500135E-1,4.392000198E0,8.944950104E0,9.966266242E0
3.717458760E-1,2.340000123E-1,4.392000198E0,8.944950104E0,9.967775785E0
3.737091130E-1,1.570500135E-1,4.392000198E0,8.944950104E0,9.966266242E0
3.756725220E-1,1.960500032E-1,4.392000198E0,8.983950615E0,1.000197331E1
3.776358800E-1,2.719500065E-1,4.392000198E0,9.022050858E0,1.003797909E1
3.795991350E-1,1.960500032E-1,4.431000233E0,8.944950104E0,9.984204076E0
3.815624210E-1,2.719500065E-1,4.354050159E0,9.022050858E0,1.002143260E1
3.835259660E-1,2.340000123E-1,4.354050159E0,9.022050858E0,1.002047456E1
3.854894280E-1,2.719500065E-1,4.354050159E0,8.944950104E0,9.952077268E0
3.874524850E-1,1.960500032E-1,4.392000198E0,8.983950615E0,1.000197331E1
3.894156610E-1,2.719500065E-1,4.431000233E0,8.944950104E0,9.985982787E0
3.913789000E-1,2.719500065E-1,4.392000198E0,8.944950104E0,9.968738882E0
3.933421200E-1,3.109500110E-1,4.392000198E0,8.907000542E0,9.935844921E0
3.953053580E-1,3.109500110E-1,4.354050159E0,8.944950104E0,9.953219331E0
3.972685870E-1,2.719500065E-1,4.315950394E0,8.907000542E0,9.901315229E0
3.992318180E-1,2.719500065E-1,4.392000198E0,8.944950104E0,9.968738882E0
4.011950480E-1,2.719500065E-1,4.315950394E0,8.944950104E0,9.935467627E0
4.031585940E-1,3.109500110E-1,4.354050159E0,8.869050026E0,9.885064039E0
4.051220480E-1,3.109500110E-1,4.354050159E0,8.907000542E0,9.919128054E0
4.070852870E-1,3.109500110E-1,4.315950394E0,8.869050026E0,9.868341607E0
4.090485890E-1,3.490500152E-1,4.354050159E0,8.907000542E0,9.920395524E0
4.110121220E-1,3.490500152E-1,4.354050159E0,8.869050026E0,9.886335877E0
4.129755870E-1,2.719500065E-1,4.354050159E0,8.869050026E0,9.883914101E0
4.149387780E-1,3.490500152E-1,4.315950394E0,8.869050026E0,9.869615599E0
4.169020500E-1,3.490500152E-1,4.354050159E0,8.869050026E0,9.886335877E0
4.188652790E-1,3.490500152E-1,4.354050159E0,8.869050026E0,9.886335877E0
4.208285170E-1,3.490500152E-1,4.354050159E0,8.907000542E0,9.920395524E0
4.227913860E-1,3.490500152E-1,4.354050159E0,8.869050026E0,9.886335877E0
4.247543630E-1,3.870000243E-1,4.392000198E0,8.830050468E0,9.869611240E0
4.267172770E-1,3.109500110E-1,4.392000198E0,8.830050468E0,9.866921857E0
4.286802090E-1,3.490500152E-1,4.354050159E0,8.830050468E0,9.851364371E0
4.306435390E-1,4.260000288E-1,4.354050159E0,8.869050026E0,9.889351707E0
4.326067500E-1,3.490500152E-1,4.354050159E0,8.869050026E0,9.886335877E0
4.345701190E-1,3.870000243E-1,4.431000233E0,8.830050468E0,9.887028035E0
4.365334420E-1,3.870000243E-1,4.392000198E0,8.907000542E0,9.938515654E0
4.384965230E-1,3.109500110E-1,4.392000198E0,8.869050026E0,9.901838416E0
4.404596750E-1,3.490500152E-1,4.392000198E0,8.830050468E0,9.868196032E0
4.424230390E-1,3.109500110E-1,4.392000198E0,8.869050026E0,9.901838416E0
4.443863510E-1,3.870000243E-1,4.392000198E0,8.869050026E0,9.904518319E0
4.463497930E-1,3.109500110E-1,4.392000198E0,8.869050026E0,9.901838416E0
4.483131970E-1,3.490500152E-1,4.431000233E0,8.869050026E0,9.920466085E0
4.502763540E-1,3.490500152E-1,4.392000198E0,8.830050468E0,9.868196032E0
4.522395840E-1,3.109500110E-1,4.392000198E0,8.869050026E0,9.901838416E0
4.542026450E-1,2.719500065E-1,4.392000198E0,8.907000542E0,9.934700861E0
4.561657480E-1,3.109500110E-1,4.392000198E0,8.907000542E0,9.935844921E0
4.581285050E-1,3.490500152E-1,4.392000198E0,8.869050026E0,9.903108099E0
4.600913630E-1,3.109500110E-1,4.392000198E0,8.869050026E0,9.901838416E0
4.620544760E-1,2.719500065E-1,4.392000198E0,8.907000542E0,9.934700861E0
4.640175150E-1,3.490500152E-1,4.392000198E0,8.907000542E0,9.937110259E0
4.659805940E-1,3.490500152E-1,4.431000233E0,8.983950615E0,1.002332119E1
4.679436640E-1,2.719500065E-1,4.392000198E0,8.907000542E0,9.934700861E0
4.699069220E-1,2.719500065E-1,4.392000198E0,8.944950104E0,9.968738882E0
4.718701250E-1,3.109500110E-1,4.392000198E0,8.907000542E0,9.935844921E0
4.738333610E-1,3.109500110E-1,4.392000198E0,8.907000542E0,9.935844921E0
4.757965870E-1,3.109500110E-1,4.392000198E0,8.944950104E0,9.969879037E0
4.777598240E-1,3.109500110E-1,4.392000198E0,8.944950104E0,9.969879037E0
4.797230540E-1,3.109500110E-1,4.392000198E0,9.022050858E0,1.003911138E1
4.816861050E-1,2.719500065E-1,4.392000198E0,8.944950104E0,9.968738882E0
4.836492090E-1,2.719500065E-1,4.392000198E0,8.944950104E0,9.968738882E0
4.856120560E-1,3.490500152E-1,4.354050159E0,8.983950615E0,9.989542400E0
4.875749790E-1,3.109500110E-1,4.354050159E0,8.944950104E0,9.953219331E0
4.895377860E-1,2.719500065E-1,4.354050159E0,9.022050858E0,1.002143260E1
4.915006130E-1,3.109500110E-1,4.392000198E0,9.022050858E0,1.003911138E1
4.934635510E-1,2.719500065E-1,4.354050159E0,8.983950615E0,9.987145651E0
4.954264570E-1,2.719500065E-1,4.354050159E0,8.944950104E0,9.952077268E0
4.973899240E-1,2.719500065E-1,4.392000198E0,8.983950615E0,1.000374886E1
4.993532260E-1,2.719500065E-1,4.315950394E0,9.022050858E0,1.000493809E1
5.013165930E-1,2.719500065E-1,4.354050159E0,9.022050858E0,1.002143260E1
5.032799320E-1,3.109500110E-1,4.354050159E0,8.944950104E0,9.953219331E0
5.052431450E-1,2.340000123E-1,4.392000198E0,8.983950615E0,1.000278913E1
5.072063950E-1,2.340000123E-1,4.354050159E0,8.944950104E0,9.951112559E0
5.091694420E-1,2.719500065E-1,4.392000198E0,9.022050858E0,1.003797909E1
5.111325490E-1,2.719500065E-1,4.431000233E0,8.983950615E0,1.002093252E1
5.130956650E-1,2.719500065E-1,4.392000198E0,8.983950615E0,1.000374886E1
5.150587780E-1,2.719500065E-1,4.392000198E0,8.983950615E0,1.000374886E1
5.170219840E-1,2.719500065E-1,4.431000233E0,8.907000542E0,9.952003744E0
5.189851630E-1,2.719500065E-1,4.392000198E0,8.907000542E0,9.934700861E0
5.209478630E-1,2.340000123E-1,4.431000233E0,8.907000542E0,9.951039027E0
5.229107030E-1,2.340000123E-1,4.392000198E0,8.944950104E0,9.967775785E0
5.248738700E-1,2.340000123E-1,4.431000233E0,8.983950615E0,1.001997444E1
5.268369370E-1,2.340000123E-1,4.392000198E0,8.944950104E0,9.967775785E0
5.288000160E-1,2.719500065E-1,4.431000233E0,8.907000542E0,9.952003744E0
5.307630910E-1,1.960500032E-1,4.392000198E0,8.944950104E0,9.966957094E0
5.327263030E-1,2.340000123E-1,4.392000198E0,8.983950615E0,1.000278913E1
5.346894750E-1,2.719500065E-1,4.392000198E0,8.944950104E0,9.968738882E0
5.366525960E-1,2.340000123E-1,4.431000233E0,8.869050026E0,9.917084624E0
5.386157220E-1,2.719500065E-1,4.431000233E0,8.944950104E0,9.985982787E0
5.405787450E-1,2.340000123E-1,4.431000233E0,8.983950615E0,1.001997444E1
5.425417990E-1,2.340000123E-1,4.392000198E0,8.944950104E0,9.967775785E0
5.445049240E-1,2.340000123E-1,4.431000233E0,8.944950104E0,9.985021353E0
5.464680280E-1,2.340000123E-1,4.468950272E0,8.944950104E0,1.000192006E1
5.484314220E-1,3.109500110E-1,4.431000233E0,8.944950104E0,9.987120973E0
5.503947260E-1,2.340000123E-1,4.431000233E0,8.907000542E0,9.951039027E0
5.523576300E-1,3.109500110E-1,4.431000233E0,8.907000542E0,9.953145815E0
5.543206510E-1,3.109500110E-1,4.431000233E0,8.907000542E0,9.953145815E0
5.562838720E-1,2.719500065E-1,4.392000198E0,8.907000542E0,9.934700861E0
5.582470340E-1,2.719500065E-1,4.392000198E0,8.907000542E0,9.934700861E0
5.602102420E-1,2.719500065E-1,4.431000233E0,8.944950104E0,9.985982787E0
5.621734610E-1,2.340000123E-1,4.392000198E0,8.907000542E0,9.933734464E0
5.641366940E-1,3.109500110E-1,4.354050159E0,8.869050026E0,9.885064039E0
5.660999230E-1,2.719500065E-1,4.392000198E0,8.869050026E0,9.900690426E0
5.680631540E-1,2.719500065E-1,4.431000233E0,8.869050026E0,9.918052643E0
5.700263840E-1,2.719500065E-1,4.431000233E0,8.944950104E0,9.985982787E0
5.719894860E-1,3.109500110E-1,4.392000198E0,8.944950104E0,9.969879037E0
5.739526220E-1,2.719500065E-1,4.431000233E0,8.907000542E0,9.952003744E0
5.759156440E-1,3.109500110E-1,4.431000233E0,8.907000542E0,9.953145815E0
5.778786990E-1,3.490500152E-1,4.431000233E0,8.944950104E0,9.988379815E0
5.798417790E-1,3.109500110E-1,4.431000233E0,8.907000542E0,9.953145815E0
5.818048510E-1,3.109500110E-1,4.431000233E0,8.907000542E0,9.953145815E0
5.837681640E-1,3.109500110E-1,4.431000233E0,8.944950104E0,9.987120973E0
5.857314000E-1,3.109500110E-1,4.392000198E0,8.907000542E0,9.935844921E0
5.876944500E-1,3.490500152E-1,4.431000233E0,8.907000542E0,9.954408954E0
5.896575550E-1,3.109500110E-1,4.392000198E0,8.907000542E0,9.935844921E0
5.916206270E-1,3.109500110E-1,4.431000233E0,8.907000542E0,9.953145815E0
5.935837090E-1,3.109500110E-1,4.392000198E0,8.869050026E0,9.901838416E0
5.955471000E-1,3.109500110E-1,4.431000233E0,8.830050468E0,9.884343390E0
5.975104000E-1,2.719500065E-1,4.431000233E0,8.869050026E0,9.918052643E0
5.994736650E-1,2.719500065E-1,4.431000233E0,8.869050026E0,9.918052643E0
6.014369400E-1,3.109500110E-1,4.431000233E0,8.869050026E0,9.919198624E0
6.034001180E-1,2.719500065E-1,4.431000233E0,8.869050026E0,9.918052643E0
6.053633250E-1,2.719500065E-1,4.431000233E0,8.907000542E0,9.952003744E0
6.073263500E-1,2.719500065E-1,4.431000233E0,8.907000542E0,9.952003744E0
6.092894490E-1,3.490500152E-1,4.431000233E0,8.907000542E0,9.954408954E0
6.112527020E-1,3.109500110E-1,4.431000233E0,8.907000542E0,9.953145815E0
6.132159090E-1,2.719500065E-1,4.392000198E0,8.944950104E0,9.968738882E0
6.151791440E-1,3.109500110E-1,4.392000198E0,8.907000542E0,9.935844921E0
6.171423710E-1,3.490500152E-1,4.392000198E0,8.907000542E0,9.937110259E0
6.191058080E-1,3.109500110E-1,4.392000198E0,8.907000542E0,9.935844921E0
6.210691970E-1,3.109500110E-1,4.431000233E0,8.907000542E0,9.953145815E0
6.230327160E-1,3.109500110E-1,4.392000198E0,8.944950104E0,9.969879037E0
6.249961970E-1,3.490500152E-1,4.431000233E0,8.869050026E0,9.920466085E0
6.269593860E-1,3.490500152E-1,4.392000198E0,8.907000542E0,9.937110259E0
6.289226600E-1,3.109500110E-1,4.431000233E0,8.907000542E0,9.953145815E0
6.308860830E-1,3.109500110E-1,4.392000198E0,8.907000542E0,9.935844921E0
6.328494480E-1,3.490500152E-1,4.431000233E0,8.907000542E0,9.954408954E0
6.348127020E-1,3.109500110E-1,4.431000233E0,8.944950104E0,9.987120973E0
6.367759880E-1,3.109500110E-1,4.468950272E0,8.830050468E0,9.901413925E0
6.387392090E-1,3.490500152E-1,4.431000233E0,8.869050026E0,9.920466085E0
6.407024500E-1,3.109500110E-1,4.431000233E0,8.907000542E0,9.953145815E0
6.426660570E-1,2.719500065E-1,4.354050159E0,8.907000542E0,9.917982065E0
6.446295430E-1,2.719500065E-1,4.354050159E0,8.907000542E0,9.917982065E0
6.465928670E-1,2.719500065E-1,4.354050159E0,8.869050026E0,9.883914101E0
6.485562380E-1,3.109500110E-1,4.392000198E0,8.907000542E0,9.935844921E0
6.505192640E-1,3.109500110E-1,4.354050159E0,8.907000542E0,9.919128054E0
6.524823920E-1,3.490500152E-1,4.392000198E0,8.907000542E0,9.937110259E0
6.544454650E-1,3.490500152E-1,4.354050159E0,8.907000542E0,9.920395524E0
6.564085510E-1,3.109500110E-1,4.354050159E0,8.907000542E0,9.919128054E0
6.583716700E-1,3.109500110E-1,4.315950394E0,8.907000542E0,9.902463146E0
6.603347790E-1,3.490500152E-1,4.354050159E0,8.944950104E0,9.954482461E0
6.622981660E-1,3.870000243E-1,4.354050159E0,8.983950615E0,9.990940419E0
6.642614720E-1,3.490500152E-1,4.315950394E0,9.022050858E0,1.000733058E1
6.662245500E-1,3.870000243E-1,4.315950394E0,8.944950104E0,9.939282126E0
6.681876990E-1,3.490500152E-1,4.315950394E0,8.944950104E0,9.937876839E0
6.701507640E-1,3.490500152E-1,4.315950394E0,8.944950104E0,9.937876839E0
6.721138530E-1,3.870000243E-1,4.354050159E0,8.944950104E0,9.955885404E0
6.740772430E-1,3.490500152E-1,4.315950394E0,8.983950615E0,9.972995155E0
6.760405440E-1,3.109500110E-1,4.315950394E0,8.983950615E0,9.971734371E0
6.780035940E-1,3.490500152E-1,4.354050159E0,8.983950615E0,9.989542400E0
6.799667420E-1,3.109500110E-1,4.392000198E0,9.022050858E0,1.003911138E1
6.819299410E-1,2.719500065E-1,4.392000198E0,8.983950615E0,1.000374886E1
6.838931250E-1,3.109500110E-1,4.392000198E0,8.983950615E0,1.000488502E1
6.858560490E-1,3.109500110E-1,4.392000198E0,8.983950615E0,1.000488502E1
6.878190500E-1,3.109500110E-1,4.392000198E0,8.983950615E0,1.000488502E1
6.897821010E-1,2.719500065E-1,4.431000233E0,8.983950615E0,1.002093252E1
6.917451640E-1,2.719500065E-1,4.392000198E0,8.944950104E0,9.968738882E0
6.937080640E-1,2.340000123E-1,4.431000233E0,8.944950104E0,9.985021353E0
6.956710120E-1,2.719500065E-1,4.431000233E0,8.907000542E0,9.952003744E0
6.976337510E-1,2.340000123E-1,4.431000233E0,8.907000542E0,9.951039027E0
6.995965510E-1,2.719500065E-1,4.431000233E0,8.907000542E0,9.952003744E0
7.015596140E-1,2.340000123E-1,4.431000233E0,8.944950104E0,9.985021353E0
7.035226100E-1,2.719500065E-1,4.431000233E0,8.869050026E0,9.918052643E0
7.054855670E-1,3.109500110E-1,4.431000233E0,8.869050026E0,9.919198624E0
7.074485360E-1,3.109500110E-1,4.468950272E0,8.830050468E0,9.901413925E0
7.094121260E-1,2.719500065E-1,4.431000233E0,8.869050026E0,9.918052643E0
7.113755340E-1,3.109500110E-1,4.431000233E0,8.830050468E0,9.884343390E0
7.133382210E-1,3.109500110E-1,4.431000233E0,8.869050026E0,9.919198624E0
7.153011320E-1,3.109500110E-1,4.431000233E0,8.907000542E0,9.953145815E0
7.172643720E-1,2.719500065E-1,4.431000233E0,8.869050026E0,9.918052643E0
7.192275150E-1,3.109500110E-1,4.392000198E0,8.869050026E0,9.901838416E0
7.211906260E-1,3.109500110E-1,4.431000233E0,8.830050468E0,9.884343390E0
7.231537470E-1,3.490500152E-1,4.431000233E0,8.869050026E0,9.920466085E0
7.251167870E-1,3.109500110E-1,4.431000233E0,8.869050026E0,9.919198624E0
7.270798720E-1,3.109500110E-1,4.392000198E0,8.907000542E0,9.935844921E0
7.290429480E-1,3.109500110E-1,4.392000198E0,8.907000542E0,9.935844921E0
7.310060260E-1,3.109500110E-1,4.392000198E0,8.869050026E0,9.901838416E0
7.329692370E-1,3.490500152E-1,4.392000198E0,8.869050026E0,9.903108099E0
7.349324090E-1,3.490500152E-1,4.315950394E0,8.907000542E0,9.903732749E0
7.368954560E-1,3.109500110E-1,4.354050159E0,8.869050026E0,9.885064039E0
7.388585500E-1,3.490500152E-1,4.354050159E0,8.907000542E0,9.920395524E0
7.408218030E-1,3.490500152E-1,4.354050159E0,8.869050026E0,9.886335877E0
7.427850090E-1,3.490500152E-1,4.354050159E0,8.907000542E0,9.920395524E0
7.447484240E-1,3.109500110E-1,4.354050159E0,8.944950104E0,9.953219331E0
7.467117780E-1,2.719500065E-1,4.354050159E0,8.907000542E0,9.917982065E0
7.486748180E-1,2.719500065E-1,4.392000198E0,8.944950104E0,9.968738882E0
7.506379430E-1,3.109500110E-1,4.431000233E0,8.944950104E0,9.987120973E0
7.526006970E-1,2.340000123E-1,4.392000198E0,8.944950104E0,9.967775785E0
7.545635590E-1,2.719500065E-1,4.431000233E0,9.022050858E0,1.005510425E1
7.565264460E-1,3.490500152E-1,4.392000198E0,8.944950104E0,9.971140056E0
7.584893260E-1,2.719500065E-1,4.431000233E0,8.983950615E0,1.002093252E1
7.604520990E-1,2.719500065E-1,4.431000233E0,9.022050858E0,1.005510425E1
7.624149200E-1,2.719500065E-1,4.392000198E0,8.983950615E0,1.000374886E1
7.643776350E-1,2.719500065E-1,4.431000233E0,8.983950615E0,1.002093252E1
7.663403820E-1,2.719500065E-1,4.392000198E0,8.983950615E0,1.000374886E1
7.683030190E-1,2.340000123E-1,4.392000198E0,8.983950615E0,1.000278913E1
7.702656890E-1,2.340000123E-1,4.468950272E0,8.944950104E0,1.000192006E1
7.722284290E-1,1.960500032E-1,4.431000233E0,8.983950615E0,1.001916001E1
7.741911490E-1,2.340000123E-1,4.392000198E0,8.983950615E0,1.000278913E1
7.761542870E-1,2.719500065E-1,4.431000233E0,9.022050858E0,1.005510425E1
7.781173030E-1,1.960500032E-1,4.431000233E0,9.060000420E0,1.008740830E1
7.800803910E-1,2.719500065E-1,4.431000233E0,9.060000420E0,1.008916882E1
7.820434570E-1,2.340000123E-1,4.468950272E0,8.983950615E0,1.003681429E1
7.840063380E-1,2.340000123E-1,4.431000233E0,8.983950615E0,1.001997444E1
7.859692860E-1,2.340000123E-1,4.468950272E0,9.060000420E0,1.010494335E1
7.879324290E-1,2.340000123E-1,4.431000233E0,9.022050858E0,1.005414943E1
7.898955150E-1,1.960500032E-1,4.431000233E0,9.022050858E0,1.005333777E1
7.918585460E-1,1.960500032E-1,4.431000233E0,9.022050858E0,1.005333777E1
7.938215940E-1,2.340000123E-1,4.392000198E0,9.060000420E0,1.007114836E1
7.957843690E-1,2.340000123E-1,4.431000233E0,9.022050858E0,1.005414943E1
7.977472180E-1,2.340000123E-1,4.392000198E0,9.060000420E0,1.007114836E1
7.997106480E-1,2.340000123E-1,4.392000198E0,8.983950615E0,1.000278913E1
8.016739080E-1,2.719500065E-1,4.354050159E0,9.022050858E0,1.002143260E1
8.036371350E-1,2.340000123E-1,4.392000198E0,9.060000420E0,1.007114836E1
8.056003720E-1,2.340000123E-1,4.392000198E0,9.022050858E0,1.003702264E1
8.075634400E-1,2.719500065E-1,4.392000198E0,9.022050858E0,1.003797909E1
8.095265450E-1,1.960500032E-1,4.354050159E0,9.022050858E0,1.001966018E1
8.114894370E-1,2.340000123E-1,4.392000198E0,8.983950615E0,1.000278913E1
8.134523910E-1,2.719500065E-1,4.354050159E0,9.022050858E0,1.002143260E1
8.154154880E-1,2.719500065E-1,4.315950394E0,8.944950104E0,9.935467627E0
8.173785430E-1,2.719500065E-1,4.354050159E0,8.983950615E0,9.987145651E0
8.193414940E-1,2.719500065E-1,4.315950394E0,8.944950104E0,9.935467627E0
8.213044720E-1,2.719500065E-1,4.276950359E0,8.907000542E0,9.884377564E0
8.232677000E-1,3.109500110E-1,4.315950394E0,8.944950104E0,9.936611599E0
8.252308540E-1,3.109500110E-1,4.315950394E0,8.907000542E0,9.902463146E0
8.271939640E-1,3.109500110E-1,4.315950394E0,8.907000542E0,9.902463146E0
8.291570870E-1,2.340000123E-1,4.315950394E0,8.944950104E0,9.934501304E0
8.311204830E-1,2.719500065E-1,4.315950394E0,8.907000542E0,9.901315229E0
8.330838220E-1,3.109500110E-1,4.315950394E0,8.907000542E0,9.902463146E0
8.350468550E-1,2.719500065E-1,4.276950359E0,8.907000542E0,9.884377564E0
8.370099780E-1,3.109500110E-1,4.276950359E0,8.907000542E0,9.885527449E0
8.389732260E-1,3.109500110E-1,4.276950359E0,8.869050026E0,9.851347250E0
8.409364380E-1,2.719500065E-1,4.315950394E0,8.907000542E0,9.901315229E0
8.428994620E-1,3.490500152E-1,4.315950394E0,8.869050026E0,9.869615599E0
8.448625310E-1,3.490500152E-1,4.315950394E0,8.869050026E0,9.869615599E0
8.468259690E-1,3.109500110E-1,4.392000198E0,8.830050468E0,9.866921857E0
8.487892980E-1,3.490500152E-1,4.354050159E0,8.869050026E0,9.886335877E0
8.507523330E-1,3.490500152E-1,4.354050159E0,8.869050026E0,9.886335877E0
8.527154540E-1,3.490500152E-1,4.354050159E0,8.869050026E0,9.886335877E0
8.546785180E-1,3.490500152E-1,4.392000198E0,8.830050468E0,9.868196032E0
8.566416030E-1,3.490500152E-1,4.392000198E0,8.869050026E0,9.903108099E0
8.586047230E-1,3.109500110E-1,4.392000198E0,8.791950226E0,9.832840100E0
8.605678320E-1,3.109500110E-1,4.392000198E0,8.830050468E0,9.866921857E0
8.625310380E-1,3.490500152E-1,4.354050159E0,8.791950226E0,9.817228605E0
8.644942160E-1,3.490500152E-1,4.392000198E0,8.791950226E0,9.834118691E0
8.664575200E-1,3.870000243E-1,4.392000198E0,8.791950226E0,9.835538802E0
8.684207740E-1,3.109500110E-1,4.392000198E0,8.754000664E0,9.798922557E0
8.703841810E-1,3.870000243E-1,4.392000198E0,8.791950226E0,9.835538802E0
8.723475430E-1,3.490500152E-1,4.354050159E0,8.791950226E0,9.817228605E0
8.743105270E-1,3.109500110E-1,4.392000198E0,8.830050468E0,9.866921857E0
8.762736220E-1,3.490500152E-1,4.431000233E0,8.830050468E0,9.885615320E0
8.782367200E-1,2.719500065E-1,4.431000233E0,8.791950226E0,9.849167916E0
8.801998000E-1,3.109500110E-1,4.392000198E0,8.830050468E0,9.866921857E0
8.821629200E-1,3.109500110E-1,4.431000233E0,8.830050468E0,9.884343390E0
8.841260280E-1,2.719500065E-1,4.468950272E0,8.830050468E0,9.900265886E0
8.860892350E-1,3.109500110E-1,4.468950272E0,8.869050026E0,9.936209277E0
8.880524130E-1,3.109500110E-1,4.431000233E0,8.869050026E0,9.919198624E0
8.900158470E-1,3.109500110E-1,4.468950272E0,8.869050026E0,9.936209277E0
8.919791960E-1,2.719500065E-1,4.431000233E0,8.907000542E0,9.952003744E0
8.939428120E-1,2.719500065E-1,4.468950272E0,8.869050026E0,9.935065259E0
8.959063500E-1,3.109500110E-1,4.431000233E0,8.907000542E0,9.953145815E0
8.978698890E-1,3.109500110E-1,4.431000233E0,8.944950104E0,9.987120973E0
8.998334270E-1,2.340000123E-1,4.431000233E0,8.944950104E0,9.985021353E0
9.017970960E-1,2.719500065E-1,4.468950272E0,8.983950615E0,1.003777077E1
9.037607300E-1,2.719500065E-1,4.468950272E0,8.944950104E0,1.000287987E1
9.057238920E-1,2.719500065E-1,4.431000233E0,8.983950615E0,1.002093252E1
9.076871930E-1,2.719500065E-1,4.392000198E0,8.944950104E0,9.968738882E0
9.096504120E-1,2.340000123E-1,4.431000233E0,8.907000542E0,9.951039027E0
9.116136550E-1,2.719500065E-1,4.431000233E0,8.907000542E0,9.952003744E0
9.135767180E-1,2.340000123E-1,4.431000233E0,8.944950104E0,9.985021353E0
9.155398240E-1,2.340000123E-1,4.431000233E0,8.983950615E0,1.001997444E1
9.175030750E-1,2.719500065E-1,4.392000198E0,8.944950104E0,9.968738882E0
9.194662830E-1,2.340000123E-1,4.431000233E0,8.944950104E0,9.985021353E0
9.214293390E-1,2.340000123E-1,4.431000233E0,9.022050858E0,1.005414943E1
9.233924390E-1,1.960500032E-1,4.431000233E0,8.983950615E0,1.001916001E1
9.253558810E-1,1.960500032E-1,4.431000233E0,8.944950104E0,9.984204076E0
9.273192160E-1,2.719500065E-1,4.468950272E0,9.022050858E0,1.007188538E1
9.292824750E-1,2.340000123E-1,4.431000233E0,8.944950104E0,9.985021353E0
9.312457570E-1,2.719500065E-1,4.392000198E0,9.022050858E0,1.003797909E1
9.332089790E-1,1.960500032E-1,4.468950272E0,8.983950615E0,1.003600123E1
9.351722180E-1,2.340000123E-1,4.431000233E0,8.944950104E0,9.985021353E0
9.371354580E-1,2.719500065E-1,4.392000198E0,9.022050858E0,1.003797909E1
9.390986900E-1,2.719500065E-1,4.431000233E0,8.983950615E0,1.002093252E1
9.410620540E-1,2.719500065E-1,4.392000198E0,8.944950104E0,9.968738882E0
9.430253800E-1,2.340000123E-1,4.392000198E0,8.944950104E0,9.967775785E0
9.449884600E-1,2.340000123E-1,4.392000198E0,8.944950104E0,9.967775785E0
9.469516130E-1,2.340000123E-1,4.431000233E0,8.983950615E0,1.001997444E1
9.489148750E-1,2.340000123E-1,4.392000198E0,8.944950104E0,9.967775785E0
9.508780920E-1,3.109500110E-1,4.392000198E0,8.983950615E0,1.000488502E1
9.528411010E-1,2.719500065E-1,4.431000233E0,8.983950615E0,1.002093252E1
9.548041710E-1,2.719500065E-1,4.392000198E0,8.944950104E0,9.968738882E0
9.567672480E-1,3.109500110E-1,4.431000233E0,8.907000542E0,9.953145815E0
9.587303220E-1,2.340000123E-1,4.392000198E0,8.983950615E0,1.000278913E1
9.606935650E-1,2.719500065E-1,4.392000198E0,8.907000542E0,9.934700861E0
9.626567690E-1,2.719500065E-1,4.392000198E0,8.983950615E0,1.000374886E1
9.646198250E-1,2.719500065E-1,4.431000233E0,8.907000542E0,9.952003744E0
9.665829250E-1,2.719500065E-1,4.431000233E0,8.944950104E0,9.985982787E0
9.685458180E-1,2.340000123E-1,4.431000233E0,8.944950104E0,9.985021353E0
9.705087710E-1,2.719500065E-1,4.392000198E0,8.944950104E0,9.968738882E0
9.724719470E-1,2.719500065E-1,4.392000198E0,9.022050858E0,1.003797909E1
9.744350340E-1,2.340000123E-1,4.392000198E0,8.944950104E0,9.967775785E0
9.763981100E-1,2.340000123E-1,4.392000198E0,8.907000542E0,9.933734464E0
9.783611900E-1,2.340000123E-1,4.392000198E0,8.944950104E0,9.967775785E0
9.803244000E-1,2.719500065E-1,4.392000198E0,8.983950615E0,1.000374886E1
9.822875720E-1,3.109500110E-1,4.392000198E0,8.983950615E0,1.000488502E1
9.842504430E-1,2.340000123E-1,4.354050159E0,8.944950104E0,9.951112559E0
9.862134100E-1,3.109500110E-1,4.354050159E0,8.944950104E0,9.953219331E0
9.881761910E-1,2.719500065E-1,4.354050159E0,8.983950615E0,9.987145651E0
9.901390260E-1,3.109500110E-1,4.354050159E0,8.907000542E0,9.919128054E0
9.921019630E-1,2.719500065E-1,4.392000198E0,8.907000542E0,9.934700861E0
9.940648700E-1,3.109500110E-1,4.354050159E0,8.983950615E0,9.988283704E0
9.960281850E-1,3.490500152E-1,4.315950394E0,8.944950104E0,9.937876839E0
9.979913600E-1,3.109500110E-1,4.354050159E0,8.907000542E0,9.919128054E0
9.999545560E-1,3.109500110E-1,4.354050159E0,8.944950104E0,9.953219331E0
1.001917745E0,3.109500110E-1,4.315950394E0,8.944950104E0,9.936611599E0
1.003880983E0,2.719500065E-1,4.354050159E0,8.907000542E0,9.917982065E0
1.005844207E0,2.719500065E-1,4.392000198E0,8.944950104E0,9.968738882E0
1.007807420E0,3.109500110E-1,4.354050159E0,8.907000542E0,9.919128054E0
1.009770649E0,3.870000243E-1,4.392000198E0,8.869050026E0,9.904518319E0
1.011733746E0,3.109500110E-1,4.392000198E0,8.869050026E0,9.901838416E0
1.013696882E0,3.490500152E-1,4.392000198E0,8.907000542E0,9.937110259E0
1.015659588E0,3.490500152E-1,4.392000198E0,8.869050026E0,9.903108099E0
1.017622420E0,3.109500110E-1,4.392000198E0,8.907000542E0,9.935844921E0
1.019585377E0,3.490500152E-1,4.392000198E0,8.907000542E0,9.937110259E0
1.021548284E0,3.490500152E-1,4.392000198E0,8.907000542E0,9.937110259E0
1.023511390E0,3.109500110E-1,4.354050159E0,8.869050026E0,9.885064039E0
1.025474437E0,3.109500110E-1,4.431000233E0,8.869050026E0,9.919198624E0
1.027437295E0,3.490500152E-1,4.431000233E0,8.830050468E0,9.885615320E0
1.029400209E0,3.109500110E-1,4.431000233E0,8.907000542E0,9.953145815E0
1.031363338E0,3.109500110E-1,4.392000198E0,8.830050468E0,9.866921857E0
1.033326418E0,3.109500110E-1,4.468950272E0,8.869050026E0,9.936209277E0
1.035290035E0,3.109500110E-1,4.431000233E0,8.869050026E0,9.919198624E0
1.037253495E0,3.109500110E-1,4.468950272E0,8.830050468E0,9.901413925E0
1.039216643E0,3.109500110E-1,4.431000233E0,8.830050468E0,9.884343390E0
1.041179882E0,3.109500110E-1,4.431000233E0,8.869050026E0,9.919198624E0
1.043142815E0,3.109500110E-1,4.431000233E0,8.791950226E0,9.850321911E0
1.045105824E0,3.109500110E-1,4.468950272E0,8.869050026E0,9.936209277E0
1.047069092E0,3.109500110E-1,4.431000233E0,8.869050026E0,9.919198624E0
1.049032284E0,3.109500110E-1,4.468950272E0,8.869050026E0,9.936209277E0
1.050995521E0,3.109500110E-1,4.431000233E0,8.791950226E0,9.850321911E0
1.052958745E0,2.719500065E-1,4.468950272E0,8.830050468E0,9.900265886E0
1.054922108E0,2.719500065E-1,4.468950272E0,8.830050468E0,9.900265886E0
1.056885433E0,3.109500110E-1,4.431000233E0,8.869050026E0,9.919198624E0
1.058848873E0,2.719500065E-1,4.468950272E0,8.907000542E0,9.968958420E0
1.060812279E0,2.719500065E-1,4.468950272E0,8.907000542E0,9.968958420E0
1.062775435E0,2.719500065E-1,4.468950272E0,8.869050026E0,9.935065259E0
1.064738665E0,2.340000123E-1,4.507050037E0,8.907000542E0,9.985134686E0
1.066701711E0,2.719500065E-1,4.468950272E0,8.944950104E0,1.000287987E1
1.068664814E0,2.340000123E-1,4.468950272E0,8.907000542E0,9.967995344E0
1.070627886E0,2.340000123E-1,4.468950272E0,8.907000542E0,9.967995344E0
1.072590968E0,2.340000123E-1,4.468950272E0,8.983950615E0,1.003681429E1
1.074554269E0,1.960500032E-1,4.431000233E0,8.944950104E0,9.984204076E0
1.076517505E0,2.340000123E-1,4.468950272E0,8.983950615E0,1.003681429E1
1.078480722E0,1.960500032E-1,4.468950272E0,9.022050858E0,1.007012184E1
1.080443954E0,1.960500032E-1,4.468950272E0,9.060000420E0,1.010413577E1
1.082407140E0,2.340000123E-1,4.392000198E0,9.060000420E0,1.007114836E1
1.084370339E0,1.960500032E-1,4.431000233E0,9.060000420E0,1.008740830E1
1.086333574E0,2.340000123E-1,4.468950272E0,9.022050858E0,1.007093214E1
1.088296798E0,1.960500032E-1,4.431000233E0,9.022050858E0,1.005333777E1
1.090260421E0,1.960500032E-1,4.431000233E0,9.022050858E0,1.005333777E1
1.092223937E0,1.960500032E-1,4.431000233E0,8.983950615E0,1.001916001E1
1.094187435E0,2.340000123E-1,4.354050159E0,8.983950615E0,9.986184329E0
1.096150939E0,1.960500032E-1,4.392000198E0,9.060000420E0,1.007033808E1
1.098114348E0,1.570500135E-1,4.431000233E0,9.022050858E0,1.005265286E1
1.100077785E0,2.340000123E-1,4.354050159E0,9.022050858E0,1.002047456E1
1.102040931E0,2.340000123E-1,4.392000198E0,8.983950615E0,1.000278913E1
1.104004166E0,1.570500135E-1,4.431000233E0,8.983950615E0,1.001847276E1
1.105967575E0,1.960500032E-1,4.392000198E0,8.983950615E0,1.000197331E1
1.107930933E0,2.340000123E-1,4.354050159E0,9.022050858E0,1.002047456E1
1.109894143E0,2.340000123E-1,4.392000198E0,8.944950104E0,9.967775785E0
1.111857397E0,1.960500032E-1,4.392000198E0,8.944950104E0,9.966957094E0
1.113820817E0,1.960500032E-1,4.392000198E0,8.944950104E0,9.966957094E0
1.115784178E0,1.960500032E-1,4.354050159E0,8.944950104E0,9.950292496E0
1.117747792E0,1.960500032E-1,4.392000198E0,8.944950104E0,9.966957094E0
1.119711332E0,2.719500065E-1,4.392000198E0,8.907000542E0,9.934700861E0
1.121675050E0,2.340000123E-1,4.392000198E0,8.944950104E0,9.967775785E0
1.123638716E0,2.340000123E-1,4.354050159E0,8.907000542E0,9.917014039E0
1.125602389E0,2.719500065E-1,4.354050159E0,8.907000542E0,9.917982065E0
1.127566077E0,2.340000123E-1,4.354050159E0,8.983950615E0,9.986184329E0
1.129529546E0,2.719500065E-1,4.354050159E0,8.944950104E0,9.952077268E0
1.131493079E0,2.340000123E-1,4.392000198E0,8.944950104E0,9.967775785E0
1.133456662E0,1.960500032E-1,4.354050159E0,8.944950104E0,9.950292496E0
1.135420231E0,2.340000123E-1,4.392000198E0,8.944950104E0,9.967775785E0
1.137383890E0,2.340000123E-1,4.431000233E0,8.983950615E0,1.001997444E1
1.139347529E0,2.719500065E-1,4.392000198E0,8.907000542E0,9.934700861E0
1.141310690E0,2.340000123E-1,4.354050159E0,8.944950104E0,9.951112559E0
1.143273992E0,2.719500065E-1,4.431000233E0,8.983950615E0,1.002093252E1
1.145237075E0,2.719500065E-1,4.392000198E0,8.983950615E0,1.000374886E1
1.147200223E0,3.109500110E-1,4.392000198E0,8.944950104E0,9.969879037E0
1.149163597E0,3.109500110E-1,4.392000198E0,8.944950104E0,9.969879037E0
1.151126908E0,3.109500110E-1,4.392000198E0,8.944950104E0,9.969879037E0
1.153089811E0,3.109500110E-1,4.431000233E0,8.944950104E0,9.987120973E0
1.155052833E0,2.340000123E-1,4.392000198E0,8.983950615E0,1.000278913E1
1.157016279E0,2.719500065E-1,4.392000198E0,8.944950104E0,9.968738882E0
1.158979601E0,2.719500065E-1,4.392000198E0,8.983950615E0,1.000374886E1
1.160942956E0,3.109500110E-1,4.392000198E0,8.907000542E0,9.935844921E0
1.162906298E0,3.109500110E-1,4.392000198E0,8.944950104E0,9.969879037E0
1.164869556E0,3.490500152E-1,4.431000233E0,8.944950104E0,9.988379815E0
1.166832838E0,3.490500152E-1,4.392000198E0,8.944950104E0,9.971140056E0
1.168796240E0,3.490500152E-1,4.392000198E0,8.944950104E0,9.971140056E0
1.170759606E0,3.109500110E-1,4.392000198E0,8.944950104E0,9.969879037E0
1.172722613E0,2.719500065E-1,4.354050159E0,8.907000542E0,9.917982065E0
1.174685709E0,3.109500110E-1,4.431000233E0,8.907000542E0,9.953145815E0
1.176649007E0,3.490500152E-1,4.392000198E0,8.983950615E0,1.000614163E1
1.178612245E0,3.109500110E-1,4.392000198E0,8.944950104E0,9.969879037E0
1.180575790E0,3.109500110E-1,4.354050159E0,8.907000542E0,9.919128054E0
1.182539245E0,2.719500065E-1,4.315950394E0,8.907000542E0,9.901315229E0
1.184502469E0,3.109500110E-1,4.392000198E0,8.907000542E0,9.935844921E0
1.186465771E0,3.490500152E-1,4.354050159E0,8.907000542E0,9.920395524E0
1.188429169E0,3.490500152E-1,4.392000198E0,8.944950104E0,9.971140056E0
1.190392539E0,3.109500110E-1,4.392000198E0,8.944950104E0,9.969879037E0
1.192355747E0,3.109500110E-1,4.354050159E0,8.907000542E0,9.919128054E0
1.194319002E0,3.109500110E-1,4.354050159E0,8.944950104E0,9.953219331E0
1.196282057E0,3.109500110E-1,4.392000198E0,8.983950615E0,1.000488502E1
1.198245165E0,3.490500152E-1,4.431000233E0,8.983950615E0,1.002332119E1
1.200208596E0,3.490500152E-1,4.392000198E0,8.983950615E0,1.000614163E1
1.202171932E0,3.490500152E-1,4.392000198E0,8.983950615E0,1.000614163E1
1.204135325E0,3.109500110E-1,4.354050159E0,8.983950615E0,9.988283704E0
1.206098702E0,3.490500152E-1,4.354050159E0,8.907000542E0,9.920395524E0
1.208062264E0,3.109500110E-1,4.392000198E0,8.944950104E0,9.969879037E0
1.210025775E0,3.490500152E-1,4.354050159E0,8.944950104E0,9.954482461E0
1.211989139E0,3.490500152E-1,4.392000198E0,8.907000542E0,9.937110259E0
1.213952546E0,3.490500152E-1,4.354050159E0,8.944950104E0,9.954482461E0
1.215916061E0,3.490500152E-1,4.315950394E0,8.983950615E0,9.972995155E0
1.217879544E0,3.490500152E-1,4.354050159E0,8.944950104E0,9.954482461E0
1.219842917E0,3.109500110E-1,4.354050159E0,8.944950104E0,9.953219331E0
1.221806319E0,3.109500110E-1,4.354050159E0,8.983950615E0,9.988283704E0
1.223769521E0,3.109500110E-1,4.354050159E0,8.944950104E0,9.953219331E0
1.225732781E0,3.109500110E-1,4.354050159E0,8.944950104E0,9.953219331E0
1.227696231E0,3.490500152E-1,4.354050159E0,8.944950104E0,9.954482461E0
1.229659625E0,3.490500152E-1,4.354050159E0,8.983950615E0,9.989542400E0
1.231622945E0,3.490500152E-1,4.354050159E0,8.983950615E0,9.989542400E0
1.233586300E0,3.490500152E-1,4.354050159E0,8.983950615E0,9.989542400E0
1.235549734E0,3.109500110E-1,4.431000233E0,8.944950104E0,9.987120973E0
1.237513144E0,3.490500152E-1,4.354050159E0,8.907000542E0,9.920395524E0
1.239475985E0,3.490500152E-1,4.354050159E0,8.983950615E0,9.989542400E0
1.241438992E0,3.109500110E-1,4.392000198E0,9.022050858E0,1.003911138E1
1.243402215E0,3.490500152E-1,4.354050159E0,8.944950104E0,9.954482461E0
1.245365375E0,3.490500152E-1,4.354050159E0,8.944950104E0,9.954482461E0
1.247328663E0,3.870000243E-1,4.354050159E0,8.944950104E0,9.955885404E0
1.249291913E0,3.490500152E-1,4.354050159E0,8.944950104E0,9.954482461E0
1.251255142E0,3.490500152E-1,4.315950394E0,8.944950104E0,9.937876839E0
1.253218377E0,3.109500110E-1,4.392000198E0,8.907000542E0,9.935844921E0
1.255181543E0,3.109500110E-1,4.392000198E0,8.944950104E0,9.969879037E0
1.257144743E0,3.490500152E-1,4.354050159E0,8.944950104E0,9.954482461E0
1.259107663E0,3.490500152E-1,4.354050159E0,8.907000542E0,9.920395524E0
1.261070666E0,3.490500152E-1,4.392000198E0,8.944950104E0,9.971140056E0
1.263033889E0,3.109500110E-1,4.354050159E0,8.944950104E0,9.953219331E0
1.264997048E0,3.109500110E-1,4.431000233E0,8.907000542E0,9.953145815E0
1.266959972E0,3.109500110E-1,4.392000198E0,8.907000542E0,9.935844921E0
1.268922968E0,3.109500110E-1,4.392000198E0,8.830050468E0,9.866921857E0
1.270886058E0,3.490500152E-1,4.392000198E0,8.907000542E0,9.937110259E0
1.272849120E0,3.109500110E-1,4.354050159E0,8.907000542E0,9.919128054E0
1.274812380E0,3.490500152E-1,4.354050159E0,8.944950104E0,9.954482461E0
1.276775582E0,3.490500152E-1,4.392000198E0,8.869050026E0,9.903108099E0
1.278738996E0,2.719500065E-1,4.392000198E0,8.869050026E0,9.900690426E0
1.280702317E0,3.870000243E-1,4.431000233E0,8.907000542E0,9.955811907E0
1.282665579E0,3.490500152E-1,4.392000198E0,8.907000542E0,9.937110259E0
1.284628858E0,3.109500110E-1,4.392000198E0,8.944950104E0,9.969879037E0
1.286592080E0,3.870000243E-1,4.392000198E0,8.869050026E0,9.904518319E0
1.288555319E0,3.490500152E-1,4.392000198E0,8.869050026E0,9.903108099E0
1.290518489E0,3.109500110E-1,4.392000198E0,8.869050026E0,9.901838416E0
1.292481690E0,3.109500110E-1,4.392000198E0,8.907000542E0,9.935844921E0
1.294444791E0,2.719500065E-1,4.392000198E0,8.944950104E0,9.968738882E0
1.296407921E0,3.490500152E-1,4.431000233E0,8.907000542E0,9.954408954E0
1.298371303E0,3.109500110E-1,4.392000198E0,8.944950104E0,9.969879037E0
1.300334611E0,3.490500152E-1,4.392000198E0,8.907000542E0,9.937110259E0
1.302298164E0,3.490500152E-1,4.392000198E0,8.907000542E0,9.937110259E0
1.304261663E0,2.719500065E-1,4.431000233E0,8.944950104E0,9.985982787E0
1.306224849E0,2.719500065E-1,4.392000198E0,8.907000542E0,9.934700861E0
1.308188126E0,3.109500110E-1,4.431000233E0,8.907000542E0,9.953145815E0
1.310151394E0,3.109500110E-1,4.392000198E0,8.907000542E0,9.935844921E0
1.312114665E0,3.109500110E-1,4.431000233E0,8.907000542E0,9.953145815E0
1.314077878E0,3.109500110E-1,4.468950272E0,8.944950104E0,1.000401613E1
1.316041116E0,2.719500065E-1,4.392000198E0,8.907000542E0,9.934700861E0
1.318004480E0,3.109500110E-1,4.431000233E0,8.907000542E0,9.953145815E0
1.319967807E0,2.719500065E-1,4.468950272E0,8.869050026E0,9.935065259E0
1.321931022E0,2.340000123E-1,4.468950272E0,8.869050026E0,9.934098897E0
1.323894270E0,2.719500065E-1,4.431000233E0,8.869050026E0,9.918052643E0
1.325857513E0,3.109500110E-1,4.431000233E0,8.869050026E0,9.919198624E0
1.327820747E0,3.109500110E-1,4.431000233E0,8.830050468E0,9.884343390E0
1.329784021E0,2.719500065E-1,4.468950272E0,8.907000542E0,9.968958420E0
1.331747283E0,2.719500065E-1,4.468950272E0,8.907000542E0,9.968958420E0
1.333710689E0,2.719500065E-1,4.431000233E0,8.869050026E0,9.918052643E0
1.335674053E0,2.340000123E-1,4.468950272E0,8.869050026E0,9.934098897E0
1.337637266E0,2.719500065E-1,4.468950272E0,8.830050468E0,9.900265886E0
1.339600520E0,2.719500065E-1,4.392000198E0,8.907000542E0,9.934700861E0
1.341564061E0,2.719500065E-1,4.431000233E0,8.869050026E0,9.918052643E0
1.343527518E0,2.340000123E-1,4.468950272E0,8.907000542E0,9.967995344E0
1.345491116E0,2.719500065E-1,4.507050037E0,8.869050026E0,9.952261311E0
1.347454672E0,2.719500065E-1,4.507050037E0,8.830050468E0,9.917522277E0
1.349418384E0,2.719500065E-1,4.431000233E0,8.907000542E0,9.952003744E0
1.351382053E0,2.719500065E-1,4.468950272E0,8.869050026E0,9.935065259E0
1.353344984E0,2.340000123E-1,4.431000233E0,8.907000542E0,9.951039027E0
1.355308131E0,2.340000123E-1,4.507050037E0,8.869050026E0,9.951296619E0
1.357271556E0,2.340000123E-1,4.431000233E0,8.869050026E0,9.917084624E0
1.359234899E0,1.960500032E-1,4.468950272E0,8.830050468E0,9.898471771E0
1.361197930E0,2.340000123E-1,4.431000233E0,8.869050026E0,9.917084624E0
1.363161054E0,3.109500110E-1,4.431000233E0,8.869050026E0,9.919198624E0
1.365124122E0,2.340000123E-1,4.392000198E0,8.830050468E0,9.864796654E0
1.367087207E0,2.719500065E-1,4.431000233E0,8.791950226E0,9.849167916E0
1.369050507E0,2.719500065E-1,4.431000233E0,8.830050468E0,9.883193368E0
1.371013744E0,3.490500152E-1,4.392000198E0,8.869050026E0,9.903108099E0
1.372977154E0,2.719500065E-1,4.392000198E0,8.869050026E0,9.900690426E0
1.374940513E0,2.719500065E-1,4.507050037E0,8.869050026E0,9.952261311E0
1.376903678E0,3.109500110E-1,4.392000198E0,8.907000542E0,9.935844921E0
1.378866900E0,3.109500110E-1,4.392000198E0,8.907000542E0,9.935844921E0
1.380829817E0,3.109500110E-1,4.392000198E0,8.907000542E0,9.935844921E0
1.382792823E0,3.109500110E-1,4.392000198E0,8.944950104E0,9.969879037E0
1.384756198E0,3.109500110E-1,4.392000198E0,8.869050026E0,9.901838416E0
1.386719485E0,3.109500110E-1,4.392000198E0,8.944950104E0,9.969879037E0
1.388682572E0,3.109500110E-1,4.392000198E0,8.907000542E0,9.935844921E0
1.390645718E0,2.719500065E-1,4.392000198E0,8.907000542E0,9.934700861E0
1.392608783E0,2.719500065E-1,4.431000233E0,8.907000542E0,9.952003744E0
1.394571872E0,3.109500110E-1,4.431000233E0,8.907000542E0,9.953145815E0
1.396535081E0,3.109500110E-1,4.431000233E0,8.907000542E0,9.953145815E0
1.398498254E0,3.109500110E-1,4.431000233E0,8.944950104E0,9.987120973E0
1.400461181E0,3.109500110E-1,4.431000233E0,8.907000542E0,9.953145815E0
1.402424180E0,3.109500110E-1,4.431000233E0,8.907000542E0,9.953145815E0
1.404387449E0,3.109500110E-1,4.431000233E0,8.944950104E0,9.987120973E0
1.406350639E0,3.109500110E-1,4.354050159E0,8.907000542E0,9.919128054E0
1.408313672E0,2.719500065E-1,4.468950272E0,8.944950104E0,1.000287987E1
1.410276737E0,2.719500065E-1,4.431000233E0,8.907000542E0,9.952003744E0
1.412239815E0,2.719500065E-1,4.392000198E0,8.944950104E0,9.968738882E0
1.414202889E0,2.719500065E-1,4.392000198E0,8.944950104E0,9.968738882E0
1.416166012E0,2.719500065E-1,4.431000233E0,8.907000542E0,9.952003744E0
1.418129120E0,3.109500110E-1,4.392000198E0,8.944950104E0,9.969879037E0
1.420092331E0,3.109500110E-1,4.431000233E0,8.944950104E0,9.987120973E0
1.422055509E0,3.109500110E-1,4.354050159E0,8.944950104E0,9.953219331E0
1.424018794E0,3.490500152E-1,4.392000198E0,8.944950104E0,9.971140056E0
1.425982048E0,2.719500065E-1,4.392000198E0,8.983950615E0,1.000374886E1
1.427945051E0,3.109500110E-1,4.392000198E0,9.022050858E0,1.003911138E1
1.429908127E0,3.490500152E-1,4.354050159E0,8.983950615E0,9.989542400E0
1.431871093E0,3.870000243E-1,4.392000198E0,8.983950615E0,1.000753733E1
1.433834074E0,3.490500152E-1,4.315950394E0,9.060000420E0,1.004155722E1
1.435796807E0,3.490500152E-1,4.354050159E0,8.983950615E0,9.989542400E0
1.437759612E0,3.109500110E-1,4.354050159E0,9.022050858E0,1.002256676E1
1.439723095E0,3.490500152E-1,4.315950394E0,9.098999977E0,1.007675862E1
1.441686379E0,3.109500110E-1,4.315950394E0,9.060000420E0,1.004030504E1
1.443649590E0,3.870000243E-1,4.392000198E0,9.098999977E0,1.011094631E1
1.445612799E0,3.490500152E-1,4.354050159E0,9.022050858E0,1.002382115E1
1.447576033E0,3.109500110E-1,4.354050159E0,9.060000420E0,1.005674154E1
1.449539259E0,3.490500152E-1,4.392000198E0,9.060000420E0,1.007447811E1
1.451502535E0,3.109500110E-1,4.354050159E0,9.022050858E0,1.002256676E1
1.453465797E0,2.719500065E-1,4.354050159E0,9.022050858E0,1.002143260E1
1.455429218E0,2.340000123E-1,4.392000198E0,8.983950615E0,1.000278913E1
1.457392581E0,2.719500065E-1,4.392000198E0,8.944950104E0,9.968738882E0
1.459356105E0,2.719500065E-1,4.431000233E0,8.944950104E0,9.985982787E0
1.461319581E0,2.719500065E-1,4.431000233E0,8.944950104E0,9.985982787E0
1.463282951E0,2.719500065E-1,4.431000233E0,8.944950104E0,9.985982787E0
1.465246353E0,2.340000123E-1,4.431000233E0,8.944950104E0,9.985021353E0
1.467209724E0,2.340000123E-1,4.431000233E0,8.944950104E0,9.985021353E0
1.469173112E0,2.340000123E-1,4.431000233E0,8.907000542E0,9.951039027E0
1.471136496E0,2.719500065E-1,4.431000233E0,8.907000542E0,9.952003744E0
1.473099881E0,2.340000123E-1,4.431000233E0,8.907000542E0,9.951039027E0
1.475063131E0,2.719500065E-1,4.468950272E0,8.869050026E0,9.935065259E0
1.477026420E0,2.719500065E-1,4.392000198E0,8.869050026E0,9.900690426E0
1.478989640E0,2.719500065E-1,4.431000233E0,8.907000542E0,9.952003744E0
1.480952881E0,2.719500065E-1,4.431000233E0,8.907000542E0,9.952003744E0
1.482916289E0,3.109500110E-1,4.392000198E0,8.907000542E0,9.935844921E0
1.484879648E0,3.109500110E-1,4.431000233E0,8.907000542E0,9.953145815E0
1.486842813E0,3.490500152E-1,4.354050159E0,8.869050026E0,9.886335877E0
1.488806035E0,2.719500065E-1,4.392000198E0,8.907000542E0,9.934700861E0
1.490769321E0,2.719500065E-1,4.392000198E0,8.869050026E0,9.900690426E0
1.492732581E0,3.870000243E-1,4.392000198E0,8.869050026E0,9.904518319E0
1.494695448E0,3.109500110E-1,4.392000198E0,8.830050468E0,9.866921857E0
1.496658430E0,3.490500152E-1,4.354050159E0,8.830050468E0,9.851364371E0
1.498621702E0,3.490500152E-1,4.354050159E0,8.830050468E0,9.851364371E0
1.500584889E0,3.490500152E-1,4.392000198E0,8.791950226E0,9.834118691E0
1.502548472E0,3.109500110E-1,4.392000198E0,8.869050026E0,9.901838416E0
1.504511918E0,3.870000243E-1,4.354050159E0,8.869050026E0,9.887748489E0
1.506474797E0,3.490500152E-1,4.392000198E0,8.869050026E0,9.903108099E0
1.508437843E0,3.870000243E-1,4.354050159E0,8.869050026E0,9.887748489E0
1.510401240E0,3.870000243E-1,4.392000198E0,8.869050026E0,9.904518319E0
1.512364534E0,3.109500110E-1,4.354050159E0,8.869050026E0,9.885064039E0
1.514327795E0,3.870000243E-1,4.354050159E0,8.869050026E0,9.887748489E0
1.516291069E0,3.490500152E-1,4.392000198E0,8.907000542E0,9.937110259E0
1.518254426E0,3.870000243E-1,4.392000198E0,8.907000542E0,9.938515654E0
1.520217759E0,3.870000243E-1,4.392000198E0,8.907000542E0,9.938515654E0
1.522180974E0,3.490500152E-1,4.392000198E0,8.869050026E0,9.903108099E0
1.524144223E0,3.870000243E-1,4.392000198E0,8.869050026E0,9.904518319E0
1.526107307E0,3.870000243E-1,4.392000198E0,8.830050468E0,9.869611240E0
1.528070445E0,3.870000243E-1,4.431000233E0,8.907000542E0,9.955811907E0
1.530034006E0,3.870000243E-1,4.431000233E0,8.869050026E0,9.921873837E0
1.531997443E0,3.490500152E-1,4.431000233E0,8.869050026E0,9.920466085E0
1.533960459E0,3.490500152E-1,4.431000233E0,8.869050026E0,9.920466085E0
1.535923599E0,3.490500152E-1,4.431000233E0,8.869050026E0,9.920466085E0
1.537887054E0,3.490500152E-1,4.468950272E0,8.907000542E0,9.971359541E0
1.539850428E0,2.719500065E-1,4.431000233E0,8.869050026E0,9.918052643E0
1.541813770E0,3.109500110E-1,4.468950272E0,8.907000542E0,9.970098550E0
1.543777122E0,3.109500110E-1,4.431000233E0,8.907000542E0,9.953145815E0
1.545740377E0,2.719500065E-1,4.468950272E0,8.907000542E0,9.968958420E0
1.547703660E0,2.340000123E-1,4.507050037E0,8.944950104E0,1.001900137E1
1.549667071E0,2.719500065E-1,4.507050037E0,8.944950104E0,1.001995954E1
1.551630438E0,2.719500065E-1,4.468950272E0,8.944950104E0,1.000287987E1
1.553593826E0,2.719500065E-1,4.507050037E0,8.983950615E0,1.005479117E1
1.555557207E0,2.340000123E-1,4.468950272E0,8.944950104E0,1.000192006E1
1.557520592E0,2.340000123E-1,4.468950272E0,8.983950615E0,1.003681429E1
1.559483976E0,3.109500110E-1,4.468950272E0,8.983950615E0,1.003890308E1
1.561447167E0,2.340000123E-1,4.431000233E0,8.907000542E0,9.951039027E0
1.563410425E0,1.960500032E-1,4.431000233E0,8.983950615E0,1.001916001E1
1.565373471E0,2.340000123E-1,4.431000233E0,9.022050858E0,1.005414943E1
1.567336579E0,2.719500065E-1,4.392000198E0,8.983950615E0,1.000374886E1
1.569300145E0,2.719500065E-1,4.431000233E0,8.983950615E0,1.002093252E1
1.571263577E0,2.719500065E-1,4.431000233E0,8.983950615E0,1.002093252E1
1.573226493E0,2.719500065E-1,4.392000198E0,8.983950615E0,1.000374886E1
1.575189536E0,2.719500065E-1,4.392000198E0,8.944950104E0,9.968738882E0
1.577152798E0,3.109500110E-1,4.431000233E0,8.983950615E0,1.002206673E1
1.579115995E0,2.340000123E-1,4.392000198E0,8.983950615E0,1.000278913E1
1.581079052E0,2.719500065E-1,4.392000198E0,8.983950615E0,1.000374886E1
1.583042151E0,2.719500065E-1,4.354050159E0,8.907000542E0,9.917982065E0
1.585005233E0,2.719500065E-1,4.392000198E0,8.907000542E0,9.934700861E0
1.586968314E0,2.719500065E-1,4.354050159E0,8.944950104E0,9.952077268E0
1.588931525E0,2.719500065E-1,4.392000198E0,8.944950104E0,9.968738882E0
1.590894697E0,2.719500065E-1,4.354050159E0,8.944950104E0,9.952077268E0
1.592857578E0,2.340000123E-1,4.354050159E0,8.944950104E0,9.951112559E0
1.594820545E0,3.109500110E-1,4.392000198E0,8.869050026E0,9.901838416E0
1.596783510E0,2.719500065E-1,4.354050159E0,8.944950104E0,9.952077268E0
1.598746473E0,1.960500032E-1,4.354050159E0,8.944950104E0,9.950292496E0
1.600709209E0,2.719500065E-1,4.354050159E0,8.944950104E0,9.952077268E0
1.602672011E0,2.719500065E-1,4.392000198E0,8.907000542E0,9.934700861E0
1.604634954E0,2.340000123E-1,4.354050159E0,8.944950104E0,9.951112559E0
1.606597855E0,2.340000123E-1,4.431000233E0,8.944950104E0,9.985021353E0
1.608560912E0,3.109500110E-1,4.354050159E0,8.869050026E0,9.885064039E0
1.610523927E0,2.340000123E-1,4.354050159E0,8.944950104E0,9.951112559E0
1.612486880E0,2.719500065E-1,4.354050159E0,8.907000542E0,9.917982065E0
1.614449852E0,2.719500065E-1,4.354050159E0,8.944950104E0,9.952077268E0
1.616413081E0,2.719500065E-1,4.392000198E0,8.869050026E0,9.900690426E0
1.618376235E0,2.340000123E-1,4.354050159E0,8.907000542E0,9.917014039E0
1.620339100E0,2.719500065E-1,4.392000198E0,8.907000542E0,9.934700861E0
1.622302064E0,2.719500065E-1,4.315950394E0,8.869050026E0,9.867189720E0
1.624265385E0,2.340000123E-1,4.315950394E0,8.907000542E0,9.900345573E0
1.626228601E0,2.340000123E-1,4.392000198E0,8.907000542E0,9.933734464E0
1.628191969E0,2.719500065E-1,4.354050159E0,8.907000542E0,9.917982065E0
1.630155293E0,3.109500110E-1,4.392000198E0,8.944950104E0,9.969879037E0
1.632118320E0,2.340000123E-1,4.392000198E0,8.907000542E0,9.933734464E0
1.634081440E0,3.109500110E-1,4.354050159E0,8.869050026E0,9.885064039E0
1.636044688E0,2.719500065E-1,4.392000198E0,8.869050026E0,9.900690426E0
1.638007899E0,2.719500065E-1,4.392000198E0,8.944950104E0,9.968738882E0
1.639971179E0,2.719500065E-1,4.431000233E0,8.944950104E0,9.985982787E0
1.641934438E0,2.719500065E-1,4.392000198E0,8.869050026E0,9.900690426E0
1.643897475E0,2.719500065E-1,4.392000198E0,8.907000542E0,9.934700861E0
1.645860584E0,2.719500065E-1,4.392000198E0,8.869050026E0,9.900690426E0
1.647824015E0,2.719500065E-1,4.431000233E0,8.907000542E0,9.952003744E0
1.649787351E0,2.719500065E-1,4.431000233E0,8.907000542E0,9.952003744E0
1.651750565E0,2.719500065E-1,4.431000233E0,8.907000542E0,9.952003744E0
1.653713815E0,2.719500065E-1,4.431000233E0,8.907000542E0,9.952003744E0
1.655677176E0,2.719500065E-1,4.431000233E0,8.830050468E0,9.883193368E0
1.657640505E0,3.109500110E-1,4.468950272E0,8.983950615E0,1.003890308E1
1.659603765E0,2.340000123E-1,4.431000233E0,8.907000542E0,9.951039027E0
1.661567045E0,3.109500110E-1,4.431000233E0,8.907000542E0,9.953145815E0
1.663530402E0,3.109500110E-1,4.431000233E0,8.907000542E0,9.953145815E0
1.665493736E0,2.719500065E-1,4.392000198E0,8.983950615E0,1.000374886E1
1.667456965E0,2.340000123E-1,4.392000198E0,8.944950104E0,9.967775785E0
1.669420214E0,2.340000123E-1,4.431000233E0,8.869050026E0,9.917084624E0
1.671382901E0,2.719500065E-1,4.431000233E0,8.907000542E0,9.952003744E0
1.673345753E0,2.719500065E-1,4.431000233E0,8.907000542E0,9.952003744E0
1.675309092E0,3.490500152E-1,4.431000233E0,8.983950615E0,1.002332119E1
1.677272289E0,2.719500065E-1,4.431000233E0,8.907000542E0,9.952003744E0
1.679235305E0,2.340000123E-1,4.431000233E0,8.869050026E0,9.917084624E0
1.681198372E0,3.109500110E-1,4.468950272E0,8.907000542E0,9.970098550E0
1.683161630E0,3.109500110E-1,4.431000233E0,8.907000542E0,9.953145815E0
1.685124832E0,3.109500110E-1,4.431000233E0,8.907000542E0,9.953145815E0
1.687087933E0,3.490500152E-1,4.392000198E0,8.907000542E0,9.937110259E0
1.689051064E0,2.719500065E-1,4.392000198E0,8.944950104E0,9.968738882E0
1.691014073E0,3.109500110E-1,4.431000233E0,8.944950104E0,9.987120973E0
1.692977127E0,3.490500152E-1,4.431000233E0,8.907000542E0,9.954408954E0
1.694940432E0,3.870000243E-1,4.431000233E0,8.944950104E0,9.989777998E0
1.696903664E0,3.109500110E-1,4.431000233E0,8.944950104E0,9.987120973E0
1.698866850E0,3.490500152E-1,4.431000233E0,8.907000542E0,9.954408954E0
1.700830050E0,3.490500152E-1,4.431000233E0,8.944950104E0,9.988379815E0
1.702793111E0,3.109500110E-1,4.392000198E0,8.907000542E0,9.935844921E0
1.704756209E0,3.109500110E-1,4.392000198E0,8.869050026E0,9.901838416E0
1.706719462E0,3.490500152E-1,4.431000233E0,8.983950615E0,1.002332119E1
1.708682669E0,3.109500110E-1,4.431000233E0,8.944950104E0,9.987120973E0
1.710645725E0,3.870000243E-1,4.431000233E0,8.907000542E0,9.955811907E0
1.712608825E0,3.109500110E-1,4.431000233E0,8.944950104E0,9.987120973E0
1.714571951E0,3.109500110E-1,4.431000233E0,8.907000542E0,9.953145815E0
1.716535063E0,3.109500110E-1,4.392000198E0,8.907000542E0,9.935844921E0
1.718498269E0,3.109500110E-1,4.392000198E0,8.907000542E0,9.935844921E0
1.720461447E0,3.870000243E-1,4.354050159E0,8.907000542E0,9.921803287E0
1.722424372E0,3.490500152E-1,4.431000233E0,8.944950104E0,9.988379815E0
1.724387372E0,3.109500110E-1,4.392000198E0,8.944950104E0,9.969879037E0
1.726350841E0,3.490500152E-1,4.431000233E0,8.944950104E0,9.988379815E0
1.728314159E0,3.109500110E-1,4.468950272E0,8.983950615E0,1.003890308E1
1.730277376E0,3.490500152E-1,4.392000198E0,8.907000542E0,9.937110259E0
1.732240623E0,3.109500110E-1,4.431000233E0,8.907000542E0,9.953145815E0
1.734204030E0,3.490500152E-1,4.431000233E0,8.944950104E0,9.988379815E0
1.736167390E0,3.490500152E-1,4.392000198E0,8.983950615E0,1.000614163E1
1.738130540E0,3.490500152E-1,4.392000198E0,8.907000542E0,9.937110259E0
1.740093762E0,3.109500110E-1,4.392000198E0,8.944950104E0,9.969879037E0
1.742056993E0,3.109500110E-1,4.468950272E0,8.944950104E0,1.000401613E1
1.744020221E0,3.490500152E-1,4.431000233E0,8.944950104E0,9.988379815E0
1.745983633E0,2.719500065E-1,4.392000198E0,8.944950104E0,9.968738882E0
1.747946991E0,3.490500152E-1,4.392000198E0,8.907000542E0,9.937110259E0
1.749910556E0,3.109500110E-1,4.392000198E0,8.944950104E0,9.969879037E0
1.751874063E0,3.109500110E-1,4.431000233E0,8.944950104E0,9.987120973E0
1.753837428E0,3.490500152E-1,4.392000198E0,8.983950615E0,1.000614163E1
1.755800834E0,3.490500152E-1,4.392000198E0,8.907000542E0,9.937110259E0
1.757764259E0,2.719500065E-1,4.392000198E0,8.907000542E0,9.934700861E0
1.759727678E0,3.490500152E-1,4.354050159E0,8.944950104E0,9.954482461E0
1.761690664E0,3.109500110E-1,4.354050159E0,8.944950104E0,9.953219331E0
1.763653801E0,3.870000243E-1,4.354050159E0,8.907000542E0,9.921803287E0
1.765617362E0,3.109500110E-1,4.392000198E0,8.907000542E0,9.935844921E0
1.767580799E0,3.490500152E-1,4.315950394E0,8.944950104E0,9.937876839E0
1.769544176E0,3.490500152E-1,4.392000198E0,8.944950104E0,9.971140056E0
1.771507570E0,3.109500110E-1,4.354050159E0,8.944950104E0,9.953219331E0
1.773470827E0,3.490500152E-1,4.392000198E0,8.944950104E0,9.971140056E0
1.775434118E0,3.490500152E-1,4.315950394E0,8.907000542E0,9.903732749E0
1.777397833E0,3.490500152E-1,4.392000198E0,8.907000542E0,9.937110259E0
1.779361423E0,3.870000243E-1,4.392000198E0,8.907000542E0,9.938515654E0
1.781324774E0,3.490500152E-1,4.431000233E0,8.907000542E0,9.954408954E0
1.783288195E0,3.109500110E-1,4.392000198E0,8.830050468E0,9.866921857E0
1.785251603E0,3.870000243E-1,4.354050159E0,8.791950226E0,9.818651159E0
1.787215025E0,3.109500110E-1,4.392000198E0,8.869050026E0,9.901838416E0
1.789178179E0,3.109500110E-1,4.431000233E0,8.869050026E0,9.919198624E0
1.791141411E0,3.109500110E-1,4.431000233E0,8.830050468E0,9.884343390E0
1.793104461E0,3.109500110E-1,4.431000233E0,8.830050468E0,9.884343390E0
1.795067565E0,3.109500110E-1,4.468950272E0,8.869050026E0,9.936209277E0
1.797031011E0,3.490500152E-1,4.468950272E0,8.830050468E0,9.902683662E0
1.798994346E0,3.109500110E-1,4.431000233E0,8.830050468E0,9.884343390E0
1.800957425E0,2.719500065E-1,4.468950272E0,8.830050468E0,9.900265886E0
1.802920579E0,2.719500065E-1,4.468950272E0,8.791950226E0,9.866299312E0
1.804883417E0,3.490500152E-1,4.468950272E0,8.830050468E0,9.902683662E0
1.806846348E0,2.719500065E-1,4.507050037E0,8.830050468E0,9.917522277E0
1.808809454E0,3.109500110E-1,4.468950272E0,8.830050468E0,9.901413925E0
1.810772505E0,2.340000123E-1,4.507050037E0,8.869050026E0,9.951296619E0
1.812735452E0,2.719500065E-1,4.507050037E0,8.869050026E0,9.952261311E0
1.814698430E0,2.719500065E-1,4.507050037E0,8.869050026E0,9.952261311E0
1.816661523E0,2.719500065E-1,4.431000233E0,8.907000542E0,9.952003744E0
1.818624582E0,3.109500110E-1,4.507050037E0,8.830050468E0,9.918668319E0
1.820588143E0,2.719500065E-1,4.507050037E0,8.907000542E0,9.986096109E0
1.822551567E0,2.719500065E-1,4.468950272E0,8.907000542E0,9.968958420E0
1.824514946E0,2.719500065E-1,4.468950272E0,8.869050026E0,9.935065259E0
1.826478338E0,2.719500065E-1,4.468950272E0,8.869050026E0,9.935065259E0
1.828441541E0,3.109500110E-1,4.468950272E0,8.907000542E0,9.970098550E0
1.830404800E0,3.109500110E-1,4.468950272E0,8.907000542E0,9.970098550E0
1.832368085E0,2.719500065E-1,4.468950272E0,8.907000542E0,9.968958420E0
1.834331351E0,2.719500065E-1,4.468950272E0,8.869050026E0,9.935065259E0
1.836294936E0,2.719500065E-1,4.468950272E0,8.944950104E0,1.000287987E1
1.838258428E0,3.109500110E-1,4.431000233E0,8.907000542E0,9.953145815E0
1.840221751E0,2.719500065E-1,4.468950272E0,8.907000542E0,9.968958420E0
1.842185123E0,2.719500065E-1,4.507050037E0,8.944950104E0,1.001995954E1
1.844148689E0,2.719500065E-1,4.431000233E0,8.907000542E0,9.952003744E0
1.846112198E0,2.340000123E-1,4.431000233E0,8.983950615E0,1.001997444E1
1.848075382E0,3.109500110E-1,4.431000233E0,8.944950104E0,9.987120973E0
1.850038661E0,2.340000123E-1,4.431000233E0,8.983950615E0,1.001997444E1
1.852002108E0,2.340000123E-1,4.431000233E0,9.022050858E0,1.005414943E1
1.853965505E0,2.340000123E-1,4.431000233E0,8.944950104E0,9.985021353E0
1.855929013E0,2.340000123E-1,4.431000233E0,8.983950615E0,1.001997444E1
1.857892495E0,1.960500032E-1,4.431000233E0,8.983950615E0,1.001916001E1
1.859855864E0,2.719500065E-1,4.431000233E0,8.983950615E0,1.002093252E1
1.861819267E0,1.960500032E-1,4.431000233E0,8.983950615E0,1.001916001E1
1.863782468E0,2.340000123E-1,4.392000198E0,8.944950104E0,9.967775785E0
1.865745728E0,2.340000123E-1,4.431000233E0,8.944950104E0,9.985021353E0
1.867709173E0,2.340000123E-1,4.392000198E0,8.983950615E0,1.000278913E1
1.869672567E0,1.960500032E-1,4.392000198E0,8.983950615E0,1.000197331E1
1.871635906E0,2.719500065E-1,4.392000198E0,8.983950615E0,1.000374886E1
1.873599262E0,2.719500065E-1,4.392000198E0,8.983950615E0,1.000374886E1
1.875562291E0,2.340000123E-1,4.354050159E0,8.983950615E0,9.986184329E0
1.877525416E0,2.719500065E-1,4.392000198E0,8.944950104E0,9.968738882E0
1.879488553E0,2.340000123E-1,4.392000198E0,8.983950615E0,1.000278913E1
1.881451670E0,2.340000123E-1,4.354050159E0,8.944950104E0,9.951112559E0
1.883414874E0,2.719500065E-1,4.354050159E0,8.983950615E0,9.987145651E0
1.885378053E0,2.719500065E-1,4.431000233E0,8.944950104E0,9.985982787E0
1.887341292E0,2.719500065E-1,4.354050159E0,8.907000542E0,9.917982065E0
1.889304514E0,2.719500065E-1,4.354050159E0,8.907000542E0,9.917982065E0
1.891267567E0,2.340000123E-1,4.354050159E0,8.907000542E0,9.917014039E0
1.893230670E0,2.340000123E-1,4.431000233E0,8.869050026E0,9.917084624E0
1.895193967E0,2.719500065E-1,4.392000198E0,8.907000542E0,9.934700861E0
1.897157207E0,2.719500065E-1,4.392000198E0,8.869050026E0,9.900690426E0
1.899120571E0,3.109500110E-1,4.392000198E0,8.907000542E0,9.935844921E0
1.901083899E0,3.109500110E-1,4.354050159E0,8.869050026E0,9.885064039E0
1.903047170E0,2.719500065E-1,4.392000198E0,8.907000542E0,9.934700861E0
1.905010450E0,2.719500065E-1,4.392000198E0,8.907000542E0,9.934700861E0
1.906974032E0,2.719500065E-1,4.392000198E0,8.907000542E0,9.934700861E0
1.908937525E0,2.719500065E-1,4.392000198E0,8.907000542E0,9.934700861E0
1.910900892E0,3.109500110E-1,4.392000198E0,8.907000542E0,9.935844921E0
1.912864296E0,2.719500065E-1,4.354050159E0,8.869050026E0,9.883914101E0
1.914827321E0,3.109500110E-1,4.392000198E0,8.869050026E0,9.901838416E0
1.916790454E0,3.109500110E-1,4.392000198E0,8.944950104E0,9.969879037E0
1.918753700E0,3.490500152E-1,4.354050159E0,8.907000542E0,9.920395524E0
1.920716913E0,3.490500152E-1,4.431000233E0,8.907000542E0,9.954408954E0
1.922680147E0,3.490500152E-1,4.392000198E0,8.944950104E0,9.971140056E0
1.924643375E0,3.870000243E-1,4.354050159E0,8.869050026E0,9.887748489E0
1.926606800E0,3.490500152E-1,4.392000198E0,8.907000542E0,9.937110259E0
1.928570158E0,3.870000243E-1,4.392000198E0,8.907000542E0,9.938515654E0
1.930533188E0,3.490500152E-1,4.392000198E0,8.907000542E0,9.937110259E0
1.932496314E0,4.260000288E-1,4.392000198E0,8.907000542E0,9.940110684E0
1.934459742E0,3.870000243E-1,4.392000198E0,8.907000542E0,9.938515654E0
1.936423081E0,3.870000243E-1,4.392000198E0,8.869050026E0,9.904518319E0
1.938386423E0,3.870000243E-1,4.431000233E0,8.907000542E0,9.955811907E0
1.940349768E0,3.490500152E-1,4.392000198E0,8.869050026E0,9.903108099E0
1.942312981E0,3.870000243E-1,4.392000198E0,8.830050468E0,9.869611240E0
1.944276232E0,3.490500152E-1,4.392000198E0,8.869050026E0,9.903108099E0
1.946239503E0,3.490500152E-1,4.354050159E0,8.869050026E0,9.886335877E0
1.948202768E0,3.490500152E-1,4.392000198E0,8.869050026E0,9.903108099E0
1.950166337E0,3.490500152E-1,4.392000198E0,8.907000542E0,9.937110259E0
1.952129797E0,3.490500152E-1,4.392000198E0,8.869050026E0,9.903108099E0
1.954093170E0,3.109500110E-1,4.431000233E0,8.869050026E0,9.919198624E0
1.956056569E0,3.490500152E-1,4.431000233E0,8.907000542E0,9.954408954E0
1.958019951E0,3.490500152E-1,4.431000233E0,8.830050468E0,9.885615320E0
1.959983338E0,3.490500152E-1,4.392000198E0,8.907000542E0,9.937110259E0
1.961946542E0,3.490500152E-1,4.431000233E0,8.944950104E0,9.988379815E0
1.963909799E0,3.490500152E-1,4.392000198E0,8.944950104E0,9.971140056E0
1.965873070E0,2.719500065E-1,4.392000198E0,9.022050858E0,1.003797909E1
1.967836336E0,3.490500152E-1,4.392000198E0,8.944950104E0,9.971140056E0
1.969799696E0,3.490500152E-1,4.392000198E0,8.944950104E0,9.971140056E0
1.971763028E0,3.490500152E-1,4.392000198E0,8.983950615E0,1.000614163E1
1.973726214E0,3.490500152E-1,4.392000198E0,8.944950104E0,9.971140056E0
1.975689463E0,2.719500065E-1,4.392000198E0,8.944950104E0,9.968738882E0
1.977652690E0,2.719500065E-1,4.354050159E0,8.944950104E0,9.952077268E0
1.979615924E0,3.490500152E-1,4.392000198E0,8.944950104E0,9.971140056E0
1.981579154E0,3.490500152E-1,4.392000198E0,8.944950104E0,9.971140056E0
1.983542386E0,3.109500110E-1,4.392000198E0,9.022050858E0,1.003911138E1
1.985505287E0,3.490500152E-1,4.392000198E0,8.944950104E0,9.971140056E0
1.987468295E0,3.109500110E-1,4.354050159E0,8.983950615E0,9.988283704E0
1.989431563E0,3.109500110E-1,4.392000198E0,9.022050858E0,1.003911138E1
1.991394754E0,3.490500152E-1,4.354050159E0,8.983950615E0,9.989542400E0
1.993357992E0,3.490500152E-1,4.354050159E0,8.944950104E0,9.954482461E0
1.995321216E0,3.490500152E-1,4.354050159E0,9.022050858E0,1.002382115E1
1.997284619E0,3.490500152E-1,4.315950394E0,8.983950615E0,9.972995155E0
1.999247976E0,2.719500065E-1,4.315950394E0,9.022050858E0,1.000493809E1
2.001211186E0,3.109500110E-1,4.354050159E0,8.983950615E0,9.988283704E0
2.003174440E0,3.109500110E-1,4.392000198E0,8.944950104E0,9.969879037E0
2.005137487E0,3.109500110E-1,4.392000198E0,8.944950104E0,9.969879037E0
2.007100594E0,2.719500065E-1,4.392000198E0,8.983950615E0,1.000374886E1
2.009063989E0,2.719500065E-1,4.392000198E0,8.983950615E0,1.000374886E1
2.011027293E0,2.719500065E-1,4.431000233E0,8.944950104E0,9.985982787E0
2.012990557E0,3.109500110E-1,4.392000198E0,8.944950104E0,9.969879037E0
2.014953833E0,2.719500065E-1,4.392000198E0,8.907000542E0,9.934700861E0
2.016917191E0,2.719500065E-1,4.431000233E0,8.944950104E0,9.985982787E0
2.018880524E0,3.109500110E-1,4.354050159E0,8.944950104E0,9.953219331E0
2.020843779E0,3.490500152E-1,4.392000198E0,8.907000542E0,9.937110259E0
2.022807060E0,3.490500152E-1,4.392000198E0,8.944950104E0,9.971140056E0
2.024770642E0,3.490500152E-1,4.431000233E0,8.907000542E0,9.954408954E0
2.026734135E0,3.490500152E-1,4.354050159E0,8.983950615E0,9.989542400E0
2.028697457E0,3.109500110E-1,4.468950272E0,8.944950104E0,1.000401613E1
2.030660829E0,2.719500065E-1,4.392000198E0,8.944950104E0,9.968738882E0
2.032624066E0,3.109500110E-1,4.431000233E0,8.944950104E0,9.987120973E0
2.034587353E0,3.490500152E-1,4.431000233E0,8.944950104E0,9.988379815E0
2.036550753E0,3.109500110E-1,4.392000198E0,8.907000542E0,9.935844921E0
2.038514120E0,2.719500065E-1,4.431000233E0,8.944950104E0,9.985982787E0
2.040477688E0,2.719500065E-1,4.431000233E0,8.907000542E0,9.952003744E0
2.042441197E0,3.109500110E-1,4.431000233E0,8.869050026E0,9.919198624E0
2.044404585E0,3.109500110E-1,4.431000233E0,8.869050026E0,9.919198624E0
2.046367992E0,3.109500110E-1,4.431000233E0,8.869050026E0,9.919198624E0
2.048331732E0,3.490500152E-1,4.392000198E0,8.869050026E0,9.903108099E0
2.050295375E0,3.109500110E-1,4.431000233E0,8.907000542E0,9.953145815E0
2.052258852E0,2.719500065E-1,4.431000233E0,8.907000542E0,9.952003744E0
2.054222377E0,3.109500110E-1,4.468950272E0,8.907000542E0,9.970098550E0
2.056185441E0,2.340000123E-1,4.431000233E0,8.907000542E0,9.951039027E0
2.058148627E0,2.719500065E-1,4.431000233E0,8.869050026E0,9.918052643E0
2.060112044E0,2.719500065E-1,4.468950272E0,8.944950104E0,1.000287987E1
2.062075394E0,2.719500065E-1,4.431000233E0,8.944950104E0,9.985982787E0
2.064038606E0,2.340000123E-1,4.468950272E0,8.944950104E0,1.000192006E1
2.066001858E0,2.340000123E-1,4.468950272E0,8.830050468E0,9.899296127E0
2.067965050E0,2.719500065E-1,4.431000233E0,8.907000542E0,9.952003744E0
2.069928252E0,3.109500110E-1,4.431000233E0,8.907000542E0,9.953145815E0
2.071891667E0,2.719500065E-1,4.431000233E0,8.944950104E0,9.985982787E0
2.073855019E0,2.340000123E-1,4.431000233E0,8.907000542E0,9.951039027E0
2.075818275E0,2.340000123E-1,4.431000233E0,8.944950104E0,9.985021353E0
2.077781560E0,2.340000123E-1,4.468950272E0,8.983950615E0,1.003681429E1
2.079744767E0,2.340000123E-1,4.468950272E0,8.907000542E0,9.967995344E0
2.081708007E0,2.340000123E-1,4.431000233E0,8.983950615E0,1.001997444E1
2.083671371E0,2.340000123E-1,4.431000233E0,8.944950104E0,9.985021353E0
2.085634698E0,3.109500110E-1,4.431000233E0,8.907000542E0,9.953145815E0
2.087598138E0,2.719500065E-1,4.431000233E0,8.944950104E0,9.985982787E0
2.089561544E0,2.719500065E-1,4.431000233E0,8.907000542E0,9.952003744E0
2.091525245E0,2.719500065E-1,4.392000198E0,8.907000542E0,9.934700861E0
2.093488856E0,2.719500065E-1,4.431000233E0,8.944950104E0,9.985982787E0
2.095452203E0,2.719500065E-1,4.431000233E0,8.944950104E0,9.985982787E0
2.097415627E0,2.719500065E-1,4.431000233E0,8.944950104E0,9.985982787E0
2.099379005E0,2.340000123E-1,4.431000233E0,8.907000542E0,9.951039027E0
2.101342396E0,2.719500065E-1,4.431000233E0,8.944950104E0,9.985982787E0
2.103305636E0,3.109500110E-1,4.468950272E0,8.944950104E0,1.000401613E1
2.105268926E0,2.719500065E-1,4.468950272E0,8.944950104E0,1.000287987E1
2.107232461E0,2.719500065E-1,4.431000233E0,8.944950104E0,9.985982787E0
2.109195924E0,2.719500065E-1,4.431000233E0,8.907000542E0,9.952003744E0
2.111159520E0,2.719500065E-1,4.468950272E0,8.907000542E0,9.968958420E0
2.113123077E0,3.109500110E-1,4.431000233E0,8.907000542E0,9.953145815E0
2.115086733E0,2.719500065E-1,4.392000198E0,8.907000542E0,9.934700861E0
2.117050370E0,3.109500110E-1,4.468950272E0,8.907000542E0,9.970098550E0
2.119013938E0,3.109500110E-1,4.468950272E0,8.869050026E0,9.936209277E0
2.120977526E0,2.719500065E-1,4.392000198E0,8.907000542E0,9.934700861E0
2.122941190E0,2.719500065E-1,4.468950272E0,8.869050026E0,9.935065259E0
2.124904832E0,3.109500110E-1,4.392000198E0,8.907000542E0,9.935844921E0
2.126868369E0,2.340000123E-1,4.468950272E0,8.869050026E0,9.934098897E0
2.128831926E0,2.719500065E-1,4.431000233E0,8.869050026E0,9.918052643E0
2.130795281E0,2.719500065E-1,4.431000233E0,8.869050026E0,9.918052643E0
2.132758695E0,2.719500065E-1,4.431000233E0,8.869050026E0,9.918052643E0
2.134722299E0,3.109500110E-1,4.468950272E0,8.869050026E0,9.936209277E0
2.136685847E0,3.490500152E-1,4.431000233E0,8.907000542E0,9.954408954E0
2.138649014E0,3.109500110E-1,4.392000198E0,8.944950104E0,9.969879037E0
2.140612300E0,3.109500110E-1,4.392000198E0,8.907000542E0,9.935844921E0
2.142575836E0,2.719500065E-1,4.431000233E0,8.869050026E0,9.918052643E0
2.144539298E0,3.490500152E-1,4.392000198E0,8.869050026E0,9.903108099E0
2.146502895E0,3.109500110E-1,4.392000198E0,8.907000542E0,9.935844921E0
2.148466452E0,3.109500110E-1,4.392000198E0,8.944950104E0,9.969879037E0
2.150429929E0,3.109500110E-1,4.392000198E0,8.944950104E0,9.969879037E0
2.152393440E0,3.490500152E-1,4.431000233E0,8.944950104E0,9.988379815E0
2.154356623E0,3.109500110E-1,4.354050159E0,8.983950615E0,9.988283704E0
2.156319902E0,3.109500110E-1,4.392000198E0,8.907000542E0,9.935844921E0
2.158283304E0,3.109500110E-1,4.392000198E0,8.907000542E0,9.935844921E0
2.160246669E0,3.490500152E-1,4.392000198E0,8.944950104E0,9.971140056E0
2.162209911E0,3.109500110E-1,4.392000198E0,8.944950104E0,9.969879037E0
2.164173166E0,3.109500110E-1,4.392000198E0,8.944950104E0,9.969879037E0
2.166136392E0,3.109500110E-1,4.392000198E0,8.907000542E0,9.935844921E0
2.168099627E0,3.109500110E-1,4.392000198E0,8.944950104E0,9.969879037E0
2.170062857E0,3.490500152E-1,4.431000233E0,8.944950104E0,9.988379815E0
2.172026089E0,3.490500152E-1,4.392000198E0,8.944950104E0,9.971140056E0
2.173989518E0,3.109500110E-1,4.392000198E0,8.907000542E0,9.935844921E0
2.175952875E0,3.109500110E-1,4.431000233E0,8.944950104E0,9.987120973E0
2.177916130E0,3.490500152E-1,4.392000198E0,8.907000542E0,9.937110259E0
2.179879415E0,3.109500110E-1,4.431000233E0,8.944950104E0,9.987120973E0
2.181842637E0,3.109500110E-1,4.431000233E0,8.869050026E0,9.919198624E0
2.183805877E0,3.490500152E-1,4.392000198E0,8.944950104E0,9.971140056E0
2.185769269E0,3.109500110E-1,4.431000233E0,8.944950104E0,9.987120973E0
2.187732596E0,3.490500152E-1,4.431000233E0,8.907000542E0,9.954408954E0
2.189695857E0,3.490500152E-1,4.392000198E0,8.944950104E0,9.971140056E0
2.191659137E0,3.490500152E-1,4.392000198E0,8.944950104E0,9.971140056E0
2.193622719E0,3.109500110E-1,4.392000198E0,8.944950104E0,9.969879037E0
2.195586212E0,3.490500152E-1,4.431000233E0,8.944950104E0,9.988379815E0
2.197549399E0,3.490500152E-1,4.392000198E0,8.983950615E0,1.000614163E1
2.199512675E0,3.490500152E-1,4.392000198E0,8.944950104E0,9.971140056E0
2.201476257E0,3.490500152E-1,4.392000198E0,8.944950104E0,9.971140056E0
2.203439750E0,3.490500152E-1,4.431000233E0,8.944950104E0,9.988379815E0
2.205403296E0,3.490500152E-1,4.392000198E0,8.907000542E0,9.937110259E0
2.207366827E0,3.870000243E-1,4.392000198E0,8.944950104E0,9.972540655E0
2.209329989E0,3.490500152E-1,4.392000198E0,8.983950615E0,1.000614163E1
2.211293272E0,3.109500110E-1,4.354050159E0,8.944950104E0,9.953219331E0
2.213256313E0,3.490500152E-1,4.392000198E0,8.983950615E0,1.000614163E1
2.215219425E0,3.109500110E-1,4.392000198E0,8.944950104E0,9.969879037E0
2.217182856E0,3.490500152E-1,4.392000198E0,8.944950104E0,9.971140056E0
2.219146193E0,4.260000288E-1,4.392000198E0,8.944950104E0,9.974130244E0
2.221109391E0,3.870000243E-1,4.354050159E0,9.022050858E0,1.002521439E1
2.223072641E0,3.490500152E-1,4.354050159E0,8.944950104E0,9.954482461E0
2.225035869E0,3.490500152E-1,4.354050159E0,8.983950615E0,9.989542400E0
2.226999103E0,3.490500152E-1,4.354050159E0,8.944950104E0,9.954482461E0
2.228962467E0,3.109500110E-1,4.354050159E0,9.022050858E0,1.002256676E1
2.230925793E0,3.109500110E-1,4.354050159E0,9.022050858E0,1.002256676E1
2.232888679E0,2.719500065E-1,4.354050159E0,8.944950104E0,9.952077268E0
2.234851704E0,2.719500065E-1,4.392000198E0,8.983950615E0,1.000374886E1
2.236815104E0,2.340000123E-1,4.431000233E0,8.983950615E0,1.001997444E1
2.238778394E0,2.719500065E-1,4.431000233E0,8.983950615E0,1.002093252E1
2.240741661E0,2.719500065E-1,4.431000233E0,8.944950104E0,9.985982787E0
2.242704935E0,2.719500065E-1,4.431000233E0,8.944950104E0,9.985982787E0
2.244668454E0,2.340000123E-1,4.392000198E0,8.944950104E0,9.967775785E0
2.246631914E0,1.960500032E-1,4.431000233E0,8.907000542E0,9.950218958E0
2.248595332E0,2.340000123E-1,4.468950272E0,8.907000542E0,9.967995344E0
2.250558762E0,1.960500032E-1,4.431000233E0,8.907000542E0,9.950218958E0
2.252521914E0,1.960500032E-1,4.468950272E0,8.944950104E0,1.000110416E1
2.254485147E0,1.570500135E-1,4.431000233E0,8.907000542E0,9.949526944E0
2.256448047E0,1.960500032E-1,4.431000233E0,8.869050026E0,9.916261747E0
2.258411055E0,1.960500032E-1,4.468950272E0,8.907000542E0,9.967176671E0
2.260374503E0,1.960500032E-1,4.431000233E0,8.907000542E0,9.950218958E0
2.262337822E0,1.960500032E-1,4.431000233E0,8.869050026E0,9.916261747E0
2.264300994E0,2.340000123E-1,4.431000233E0,8.869050026E0,9.917084624E0
2.266264209E0,1.960500032E-1,4.431000233E0,8.869050026E0,9.916261747E0
2.268227677E0,2.340000123E-1,4.431000233E0,8.944950104E0,9.985021353E0
2.270191063E0,2.340000123E-1,4.468950272E0,8.869050026E0,9.934098897E0
2.272154403E0,2.340000123E-1,4.468950272E0,8.869050026E0,9.934098897E0
2.274117757E0,2.340000123E-1,4.431000233E0,8.869050026E0,9.917084624E0
2.276080967E0,2.719500065E-1,4.431000233E0,8.830050468E0,9.883193368E0
2.278044219E0,2.340000123E-1,4.392000198E0,8.830050468E0,9.864796654E0
2.280007591E0,2.719500065E-1,4.392000198E0,8.907000542E0,9.934700861E0
2.281970952E0,2.719500065E-1,4.392000198E0,8.830050468E0,9.865769804E0
2.283934521E0,3.109500110E-1,4.354050159E0,8.907000542E0,9.919128054E0
2.285898029E0,2.719500065E-1,4.392000198E0,8.869050026E0,9.900690426E0
2.287861393E0,2.719500065E-1,4.392000198E0,8.791950226E0,9.831684053E0
2.289824800E0,2.340000123E-1,4.392000198E0,8.830050468E0,9.864796654E0
2.291788032E0,2.719500065E-1,4.392000198E0,8.830050468E0,9.865769804E0
2.293751325E0,2.719500065E-1,4.431000233E0,8.754000664E0,9.815306795E0
2.295714859E0,3.109500110E-1,4.392000198E0,8.791950226E0,9.832840100E0
2.297678323E0,3.109500110E-1,4.431000233E0,8.869050026E0,9.919198624E0
2.299641740E0,3.109500110E-1,4.431000233E0,8.791950226E0,9.850321911E0
2.301605171E0,3.109500110E-1,4.431000233E0,8.869050026E0,9.919198624E0
2.303568866E0,2.719500065E-1,4.468950272E0,8.869050026E0,9.935065259E0
2.305532480E0,3.109500110E-1,4.468950272E0,8.869050026E0,9.936209277E0
2.307495872E0,3.109500110E-1,4.431000233E0,8.830050468E0,9.884343390E0
2.309459329E0,3.490500152E-1,4.507050037E0,8.869050026E0,9.954666459E0
2.311422880E0,3.109500110E-1,4.507050037E0,8.869050026E0,9.953403353E0
2.313386404E0,3.109500110E-1,4.468950272E0,8.869050026E0,9.936209277E0
2.315349536E0,3.490500152E-1,4.468950272E0,8.830050468E0,9.902683662E0
2.317312786E0,3.109500110E-1,4.431000233E0,8.830050468E0,9.884343390E0
2.319276553E0,2.719500065E-1,4.468950272E0,8.869050026E0,9.935065259E0
2.321240169E0,2.719500065E-1,4.468950272E0,8.869050026E0,9.935065259E0
2.323203695E0,3.109500110E-1,4.431000233E0,8.907000542E0,9.953145815E0
2.325167248E0,2.719500065E-1,4.468950272E0,8.830050468E0,9.900265886E0
2.327130580E0,2.719500065E-1,4.468950272E0,8.869050026E0,9.935065259E0
2.329093993E0,3.109500110E-1,4.431000233E0,8.869050026E0,9.919198624E0
2.331057417E0,2.719500065E-1,4.468950272E0,8.907000542E0,9.968958420E0
2.333020837E0,2.719500065E-1,4.468950272E0,8.907000542E0,9.968958420E0
2.334984216E0,2.719500065E-1,4.392000198E0,8.869050026E0,9.900690426E0
2.336947608E0,3.109500110E-1,4.468950272E0,8.907000542E0,9.970098550E0
2.338911185E0,3.109500110E-1,4.431000233E0,8.983950615E0,1.002206673E1
2.340874697E0,3.109500110E-1,4.431000233E0,8.944950104E0,9.987120973E0
2.342838375E0,2.719500065E-1,4.431000233E0,8.983950615E0,1.002093252E1
2.344802005E0,2.719500065E-1,4.431000233E0,9.022050858E0,1.005510425E1
2.346765529E0,3.109500110E-1,4.431000233E0,8.983950615E0,1.002206673E1
2.348729084E0,3.109500110E-1,4.431000233E0,9.022050858E0,1.005623462E1
2.350692450E0,3.109500110E-1,4.431000233E0,9.022050858E0,1.005623462E1
2.352655896E0,3.109500110E-1,4.431000233E0,9.022050858E0,1.005623462E1
2.354619270E0,2.719500065E-1,4.354050159E0,9.060000420E0,1.005561123E1
2.356582665E0,3.109500110E-1,4.431000233E0,9.098999977E0,1.012532733E1
2.358546182E0,2.340000123E-1,4.392000198E0,9.060000420E0,1.007114836E1
2.360509663E0,3.109500110E-1,4.354050159E0,8.983950615E0,9.988283704E0
2.362473009E0,2.719500065E-1,4.431000233E0,9.022050858E0,1.005510425E1
2.364436411E0,3.490500152E-1,4.354050159E0,9.022050858E0,1.002382115E1
2.366399657E0,3.109500110E-1,4.354050159E0,8.983950615E0,9.988283704E0
2.368362949E0,3.109500110E-1,4.354050159E0,8.983950615E0,9.988283704E0
2.370326664E0,3.109500110E-1,4.354050159E0,9.022050858E0,1.002256676E1
2.372290255E0,3.490500152E-1,4.315950394E0,9.022050858E0,1.000733058E1
2.374253757E0,3.490500152E-1,4.354050159E0,9.060000420E0,1.005799166E1
2.376217305E0,3.109500110E-1,4.315950394E0,9.022050858E0,1.000607412E1
2.378180346E0,3.109500110E-1,4.354050159E0,9.022050858E0,1.002256676E1
2.380143535E0,3.490500152E-1,4.354050159E0,9.022050858E0,1.002382115E1
2.382106772E0,3.109500110E-1,4.354050159E0,9.022050858E0,1.002256676E1
2.384069995E0,3.109500110E-1,4.315950394E0,9.022050858E0,1.000607412E1
2.386033398E0,3.109500110E-1,4.354050159E0,9.060000420E0,1.005674154E1
2.387996755E0,3.490500152E-1,4.354050159E0,9.060000420E0,1.005799166E1
2.389960280E0,3.109500110E-1,4.354050159E0,8.983950615E0,9.988283704E0
2.391923755E0,3.490500152E-1,4.354050159E0,9.060000420E0,1.005799166E1
2.393887304E0,3.109500110E-1,4.354050159E0,8.944950104E0,9.953219331E0
2.395850832E0,3.490500152E-1,4.315950394E0,8.983950615E0,9.972995155E0
2.397814082E0,3.490500152E-1,4.315950394E0,8.983950615E0,9.972995155E0
2.399777397E0,3.490500152E-1,4.315950394E0,8.983950615E0,9.972995155E0
2.401740747E0,3.109500110E-1,4.315950394E0,8.944950104E0,9.936611599E0
2.403704087E0,3.490500152E-1,4.354050159E0,8.944950104E0,9.954482461E0
2.405667345E0,3.490500152E-1,4.354050159E0,8.944950104E0,9.954482461E0
2.407630627E0,3.109500110E-1,4.315950394E0,8.907000542E0,9.902463146E0
2.409594012E0,3.490500152E-1,4.315950394E0,9.022050858E0,1.000733058E1
2.411557347E0,3.490500152E-1,4.392000198E0,8.944950104E0,9.971140056E0
2.413520606E0,3.109500110E-1,4.354050159E0,8.944950104E0,9.953219331E0
2.415483887E0,3.490500152E-1,4.354050159E0,8.907000542E0,9.920395524E0
2.417446929E0,3.109500110E-1,4.354050159E0,8.944950104E0,9.953219331E0
2.419410041E0,3.490500152E-1,4.354050159E0,8.944950104E0,9.954482461E0
2.421373246E0,3.109500110E-1,4.431000233E0,8.907000542E0,9.953145815E0
2.423336424E0,2.719500065E-1,4.315950394E0,8.944950104E0,9.935467627E0
2.425299709E0,3.109500110E-1,4.392000198E0,8.907000542E0,9.935844921E0
2.427262962E0,3.490500152E-1,4.392000198E0,8.907000542E0,9.937110259E0
2.429226865E0,3.109500110E-1,4.431000233E0,8.907000542E0,9.953145815E0
2.431190578E0,3.490500152E-1,4.431000233E0,8.907000542E0,9.954408954E0
2.433153731E0,3.490500152E-1,4.431000233E0,8.907000542E0,9.954408954E0
2.435117045E0,3.109500110E-1,4.431000233E0,8.869050026E0,9.919198624E0
2.437080621E0,3.109500110E-1,4.468950272E0,8.907000542E0,9.970098550E0
2.439044120E0,3.109500110E-1,4.468950272E0,8.869050026E0,9.936209277E0
2.441007710E0,3.490500152E-1,4.431000233E0,8.907000542E0,9.954408954E0
2.442971274E0,3.109500110E-1,4.392000198E0,8.869050026E0,9.901838416E0
2.444934809E0,3.490500152E-1,4.507050037E0,8.907000542E0,9.988493110E0
2.446898353E0,3.490500152E-1,4.431000233E0,8.944950104E0,9.988379815E0
2.448862025E0,3.490500152E-1,4.468950272E0,8.869050026E0,9.937474569E0
2.450825659E0,2.719500065E-1,4.468950272E0,8.907000542E0,9.968958420E0
2.452788821E0,3.490500152E-1,4.468950272E0,8.944950104E0,1.000527285E1
2.454752122E0,3.490500152E-1,4.431000233E0,8.869050026E0,9.920466085E0
2.456715341E0,3.109500110E-1,4.468950272E0,8.907000542E0,9.970098550E0
2.458678584E0,3.109500110E-1,4.431000233E0,8.830050468E0,9.884343390E0
2.460641812E0,3.109500110E-1,4.392000198E0,8.907000542E0,9.935844921E0
2.462605045E0,3.109500110E-1,4.468950272E0,8.907000542E0,9.970098550E0
2.464568635E0,2.719500065E-1,4.507050037E0,8.907000542E0,9.986096109E0
2.466532120E0,2.719500065E-1,4.392000198E0,8.907000542E0,9.934700861E0
2.468495027E0,2.719500065E-1,4.468950272E0,8.944950104E0,1.000287987E1
2.470458079E0,2.719500065E-1,4.431000233E0,8.944950104E0,9.985982787E0
2.472421475E0,2.719500065E-1,4.468950272E0,8.907000542E0,9.968958420E0
2.474384770E0,3.109500110E-1,4.431000233E0,8.869050026E0,9.919198624E0
2.476348036E0,3.109500110E-1,4.468950272E0,8.869050026E0,9.936209277E0
2.478311310E0,2.719500065E-1,4.468950272E0,8.830050468E0,9.900265886E0
2.480274707E0,3.109500110E-1,4.468950272E0,8.869050026E0,9.936209277E0
2.482238072E0,3.109500110E-1,4.468950272E0,8.869050026E0,9.936209277E0
2.484201595E0,3.109500110E-1,4.431000233E0,8.907000542E0,9.953145815E0
2.486165072E0,3.109500110E-1,4.431000233E0,8.830050468E0,9.884343390E0
2.488128442E0,2.719500065E-1,4.431000233E0,8.869050026E0,9.918052643E0
2.490091844E0,3.109500110E-1,4.431000233E0,8.944950104E0,9.987120973E0
2.492055215E0,3.109500110E-1,4.431000233E0,8.869050026E0,9.919198624E0
2.494018603E0,2.719500065E-1,4.431000233E0,8.944950104E0,9.985982787E0
2.495981627E0,3.109500110E-1,4.392000198E0,8.907000542E0,9.935844921E0
2.497944757E0,3.109500110E-1,4.431000233E0,8.907000542E0,9.953145815E0
2.499907690E0,3.109500110E-1,4.431000233E0,8.944950104E0,9.987120973E0
2.501870680E0,2.719500065E-1,4.431000233E0,8.944950104E0,9.985982787E0
2.503833741E0,2.719500065E-1,4.468950272E0,8.907000542E0,9.968958420E0
2.505796770E0,3.109500110E-1,4.392000198E0,8.944950104E0,9.969879037E0
2.507759855E0,3.490500152E-1,4.431000233E0,8.944950104E0,9.988379815E0
2.509722923E0,3.109500110E-1,4.392000198E0,8.944950104E0,9.969879037E0
2.511686182E0,2.719500065E-1,4.392000198E0,8.907000542E0,9.934700861E0
2.513649385E0,3.490500152E-1,4.431000233E0,8.944950104E0,9.988379815E0
2.515612640E0,3.870000243E-1,4.431000233E0,8.907000542E0,9.955811907E0
2.517575866E0,3.490500152E-1,4.431000233E0,8.907000542E0,9.954408954E0
2.519539278E0,3.490500152E-1,4.392000198E0,8.944950104E0,9.971140056E0
2.521502635E0,3.490500152E-1,4.392000198E0,8.869050026E0,9.903108099E0
2.523465710E0,3.490500152E-1,4.354050159E0,8.907000542E0,9.920395524E0
2.525428868E0,3.109500110E-1,4.431000233E0,8.907000542E0,9.953145815E0
2.527392461E0,3.109500110E-1,4.392000198E0,8.944950104E0,9.969879037E0
2.529355933E0,3.109500110E-1,4.354050159E0,8.907000542E0,9.919128054E0
2.531319078E0,3.109500110E-1,4.392000198E0,8.944950104E0,9.969879037E0
2.533282319E0,3.109500110E-1,4.392000198E0,8.944950104E0,9.969879037E0
2.535245592E0,3.490500152E-1,4.392000198E0,8.907000542E0,9.937110259E0
2.537208856E0,2.719500065E-1,4.392000198E0,8.907000542E0,9.934700861E0
2.539172262E0,3.109500110E-1,4.392000198E0,8.983950615E0,1.000488502E1
2.541135626E0,3.490500152E-1,4.392000198E0,8.907000542E0,9.937110259E0
2.543098835E0,3.490500152E-1,4.354050159E0,8.907000542E0,9.920395524E0
2.545062089E0,2.719500065E-1,4.354050159E0,8.907000542E0,9.917982065E0
2.547025630E0,3.109500110E-1,4.392000198E0,8.869050026E0,9.901838416E0
2.548989087E0,2.719500065E-1,4.392000198E0,8.907000542E0,9.934700861E0
2.550952456E0,3.109500110E-1,4.431000233E0,8.944950104E0,9.987120973E0
2.552915854E0,2.719500065E-1,4.431000233E0,8.944950104E0,9.985982787E0
2.554879416E0,2.719500065E-1,4.392000198E0,8.869050026E0,9.900690426E0
2.556842929E0,3.109500110E-1,4.392000198E0,8.869050026E0,9.901838416E0
2.558806157E0,3.109500110E-1,4.392000198E0,8.944950104E0,9.969879037E0
2.560769469E0,2.719500065E-1,4.392000198E0,8.907000542E0,9.934700861E0
2.562733073E0,3.109500110E-1,4.392000198E0,8.830050468E0,9.866921857E0
2.564696572E0,3.109500110E-1,4.392000198E0,8.907000542E0,9.935844921E0
2.566659893E0,3.109500110E-1,4.468950272E0,8.907000542E0,9.970098550E0
2.568623266E0,3.109500110E-1,4.392000198E0,8.907000542E0,9.935844921E0
2.570586518E0,3.490500152E-1,4.431000233E0,8.907000542E0,9.954408954E0
2.572549805E0,3.109500110E-1,4.431000233E0,8.907000542E0,9.953145815E0
2.574513175E0,3.109500110E-1,4.431000233E0,8.907000542E0,9.953145815E0
2.576476510E0,3.109500110E-1,4.431000233E0,8.869050026E0,9.919198624E0
2.578439948E0,3.109500110E-1,4.468950272E0,8.944950104E0,1.000401613E1
2.580403356E0,3.109500110E-1,4.431000233E0,8.869050026E0,9.919198624E0
2.582366693E0,2.719500065E-1,4.431000233E0,8.869050026E0,9.918052643E0
2.584330051E0,3.109500110E-1,4.468950272E0,8.869050026E0,9.936209277E0
2.586293439E0,2.719500065E-1,4.431000233E0,8.869050026E0,9.918052643E0
2.588256818E0,3.109500110E-1,4.431000233E0,8.907000542E0,9.953145815E0
2.590219529E0,3.109500110E-1,4.507050037E0,8.869050026E0,9.953403353E0
2.592182435E0,2.719500065E-1,4.468950272E0,8.907000542E0,9.968958420E0
2.594145495E0,2.340000123E-1,4.468950272E0,8.830050468E0,9.899296127E0
2.596108510E0,2.340000123E-1,4.431000233E0,8.907000542E0,9.951039027E0
2.598071647E0,3.109500110E-1,4.507050037E0,8.869050026E0,9.953403353E0
2.600034745E0,2.719500065E-1,4.431000233E0,8.869050026E0,9.918052643E0
2.601997819E0,2.719500065E-1,4.431000233E0,8.830050468E0,9.883193368E0
2.603960901E0,3.109500110E-1,4.468950272E0,8.907000542E0,9.970098550E0
2.605924291E0,3.109500110E-1,4.468950272E0,8.869050026E0,9.936209277E0
2.607887591E0,2.719500065E-1,4.431000233E0,8.907000542E0,9.952003744E0
2.609850617E0,3.109500110E-1,4.468950272E0,8.869050026E0,9.936209277E0
2.611813733E0,3.109500110E-1,4.431000233E0,8.907000542E0,9.953145815E0
2.613776848E0,2.719500065E-1,4.468950272E0,8.907000542E0,9.968958420E0
2.615739964E0,3.109500110E-1,4.468950272E0,8.907000542E0,9.970098550E0
2.617703213E0,3.109500110E-1,4.431000233E0,8.944950104E0,9.987120973E0
2.619666423E0,2.340000123E-1,4.431000233E0,8.944950104E0,9.985021353E0
2.621629998E0,2.719500065E-1,4.507050037E0,8.944950104E0,1.001995954E1
2.623593480E0,3.109500110E-1,4.431000233E0,8.907000542E0,9.953145815E0
2.625556983E0,2.719500065E-1,4.431000233E0,8.944950104E0,9.985982787E0
2.627520480E0,3.490500152E-1,4.392000198E0,8.983950615E0,1.000614163E1
2.629483486E0,2.719500065E-1,4.431000233E0,8.944950104E0,9.985982787E0
2.631446636E0,2.719500065E-1,4.431000233E0,8.907000542E0,9.952003744E0
2.633409695E0,2.340000123E-1,4.431000233E0,8.944950104E0,9.985021353E0
2.635372785E0,2.340000123E-1,4.468950272E0,8.907000542E0,9.967995344E0
2.637335904E0,2.340000123E-1,4.431000233E0,8.944950104E0,9.985021353E0
2.639299014E0,1.960500032E-1,4.431000233E0,8.944950104E0,9.984204076E0
2.641262581E0,2.340000123E-1,4.431000233E0,8.944950104E0,9.985021353E0
2.643226014E0,2.340000123E-1,4.431000233E0,8.944950104E0,9.985021353E0
2.645189232E0,2.719500065E-1,4.431000233E0,8.907000542E0,9.952003744E0
2.647152530E0,1.960500032E-1,4.392000198E0,8.944950104E0,9.966957094E0
2.649116289E0,2.340000123E-1,4.392000198E0,8.983950615E0,1.000278913E1
2.651079913E0,2.340000123E-1,4.392000198E0,8.907000542E0,9.933734464E0
2.653043617E0,2.340000123E-1,4.431000233E0,8.907000542E0,9.951039027E0
2.655007297E0,2.340000123E-1,4.431000233E0,8.983950615E0,1.001997444E1
2.656970933E0,2.719500065E-1,4.431000233E0,8.944950104E0,9.985982787E0
2.658934592E0,2.719500065E-1,4.431000233E0,8.944950104E0,9.985982787E0
2.660898289E0,2.719500065E-1,4.392000198E0,8.944950104E0,9.968738882E0
2.662861975E0,3.109500110E-1,4.431000233E0,8.983950615E0,1.002206673E1
2.664825668E0,2.719500065E-1,4.431000233E0,8.907000542E0,9.952003744E0
2.666789359E0,2.719500065E-1,4.392000198E0,8.983950615E0,1.000374886E1
2.668752708E0,3.109500110E-1,4.392000198E0,8.983950615E0,1.000488502E1
2.670716146E0,2.719500065E-1,4.392000198E0,8.983950615E0,1.000374886E1
2.672679521E0,2.719500065E-1,4.468950272E0,8.983950615E0,1.003777077E1
2.674642915E0,2.719500065E-1,4.392000198E0,8.944950104E0,9.968738882E0
2.676606657E0,2.719500065E-1,4.392000198E0,8.944950104E0,9.968738882E0
2.678570297E0,3.109500110E-1,4.392000198E0,8.907000542E0,9.935844921E0
2.680533648E0,2.719500065E-1,4.392000198E0,8.907000542E0,9.934700861E0
2.682497078E0,2.719500065E-1,4.431000233E0,8.907000542E0,9.952003744E0
2.684460500E0,2.719500065E-1,4.392000198E0,8.944950104E0,9.968738882E0
2.686423924E0,3.109500110E-1,4.392000198E0,8.944950104E0,9.969879037E0
2.688387436E0,2.719500065E-1,4.392000198E0,8.907000542E0,9.934700861E0
2.690350922E0,2.340000123E-1,4.392000198E0,8.869050026E0,9.899720709E0
2.692314321E0,3.109500110E-1,4.392000198E0,8.944950104E0,9.969879037E0
2.694277756E0,3.109500110E-1,4.392000198E0,8.907000542E0,9.935844921E0
2.696241266E0,3.490500152E-1,4.392000198E0,8.869050026E0,9.903108099E0
2.698204754E0,3.109500110E-1,4.431000233E0,8.907000542E0,9.953145815E0
2.700167942E0,2.719500065E-1,4.431000233E0,8.830050468E0,9.883193368E0
2.702131218E0,3.109500110E-1,4.431000233E0,8.869050026E0,9.919198624E0
2.704094785E0,3.109500110E-1,4.392000198E0,8.907000542E0,9.935844921E0
2.706058278E0,3.490500152E-1,4.392000198E0,8.907000542E0,9.937110259E0
2.708021465E0,3.490500152E-1,4.392000198E0,8.869050026E0,9.903108099E0
2.709984741E0,3.109500110E-1,4.431000233E0,8.830050468E0,9.884343390E0
2.711948143E0,3.490500152E-1,4.392000198E0,8.869050026E0,9.903108099E0
2.713911508E0,3.490500152E-1,4.392000198E0,8.830050468E0,9.868196032E0
2.715874873E0,3.490500152E-1,4.392000198E0,8.869050026E0,9.903108099E0
2.717838254E0,3.109500110E-1,4.392000198E0,8.907000542E0,9.935844921E0
2.719801639E0,3.490500152E-1,4.392000198E0,8.830050468E0,9.868196032E0
2.721765023E0,3.109500110E-1,4.392000198E0,8.869050026E0,9.901838416E0
2.723728273E0,3.490500152E-1,4.392000198E0,8.907000542E0,9.937110259E0
2.725691563E0,2.719500065E-1,4.392000198E0,8.869050026E0,9.900690426E0
2.727654947E0,3.109500110E-1,4.431000233E0,8.869050026E0,9.919198624E0
2.729618283E0,3.490500152E-1,4.392000198E0,8.907000542E0,9.937110259E0
2.731581496E0,3.490500152E-1,4.392000198E0,8.944950104E0,9.971140056E0
2.733544746E0,3.870000243E-1,4.392000198E0,8.869050026E0,9.904518319E0
2.735508378E0,3.490500152E-1,4.392000198E0,8.869050026E0,9.903108099E0
2.737471898E0,3.490500152E-1,4.431000233E0,8.944950104E0,9.988379815E0
2.739435030E0,3.870000243E-1,4.431000233E0,8.869050026E0,9.921873837E0
2.741398280E0,3.870000243E-1,4.431000233E0,8.907000542E0,9.955811907E0
2.743361551E0,3.870000243E-1,4.392000198E0,8.907000542E0,9.938515654E0
2.745324816E0,3.490500152E-1,4.431000233E0,8.944950104E0,9.988379815E0
2.747288402E0,3.109500110E-1,4.431000233E0,8.983950615E0,1.002206673E1
2.749251893E0,3.109500110E-1,4.354050159E0,8.907000542E0,9.919128054E0
2.751215021E0,4.260000288E-1,4.431000233E0,8.944950104E0,9.991364844E0
2.753178266E0,3.490500152E-1,4.392000198E0,8.944950104E0,9.971140056E0
2.755141314E0,3.490500152E-1,4.354050159E0,8.907000542E0,9.920395524E0
2.757104420E0,3.490500152E-1,4.431000233E0,8.907000542E0,9.954408954E0
2.759067671E0,3.490500152E-1,4.392000198E0,8.944950104E0,9.971140056E0
2.761030879E0,3.490500152E-1,4.392000198E0,8.907000542E0,9.937110259E0
2.762994275E0,3.109500110E-1,4.354050159E0,8.983950615E0,9.988283704E0
2.764957629E0,3.109500110E-1,4.392000198E0,8.944950104E0,9.969879037E0
2.766920660E0,2.719500065E-1,4.392000198E0,8.944950104E0,9.968738882E0
2.768883785E0,3.490500152E-1,4.431000233E0,8.983950615E0,1.002332119E1
2.770847258E0,3.490500152E-1,4.392000198E0,9.022050858E0,1.004036371E1
2.772810629E0,3.870000243E-1,4.431000233E0,9.060000420E0,1.009292523E1
2.774774146E0,3.109500110E-1,4.431000233E0,9.060000420E0,1.009029537E1
2.776737624E0,3.109500110E-1,4.431000233E0,9.022050858E0,1.005623462E1
2.778700633E0,3.870000243E-1,4.354050159E0,9.060000420E0,1.005938017E1
2.780663780E0,3.490500152E-1,4.392000198E0,9.098999977E0,1.010956489E1
2.782627249E0,3.490500152E-1,4.392000198E0,9.060000420E0,1.007447811E1
2.784590624E0,3.870000243E-1,4.354050159E0,9.098999977E0,1.009451942E1
2.786554001E0,3.109500110E-1,4.354050159E0,9.022050858E0,1.002256676E1
2.788517384E0,2.719500065E-1,4.392000198E0,9.022050858E0,1.003797909E1
2.790480589E0,3.490500152E-1,4.392000198E0,9.022050858E0,1.004036371E1
2.792443847E0,3.109500110E-1,4.392000198E0,9.022050858E0,1.003911138E1
2.794407252E0,3.109500110E-1,4.392000198E0,8.983950615E0,1.000488502E1
2.796370614E0,3.109500110E-1,4.392000198E0,8.983950615E0,1.000488502E1
2.798334008E0,3.490500152E-1,4.392000198E0,8.983950615E0,1.000614163E1
2.800297389E0,2.719500065E-1,4.354050159E0,8.944950104E0,9.952077268E0
2.802260774E0,2.719500065E-1,4.392000198E0,8.944950104E0,9.968738882E0
2.804224158E0,2.719500065E-1,4.431000233E0,8.944950104E0,9.985982787E0
2.806187543E0,2.719500065E-1,4.392000198E0,8.944950104E0,9.968738882E0
2.808150927E0,3.109500110E-1,4.431000233E0,8.944950104E0,9.987120973E0
2.810113957E0,3.109500110E-1,4.392000198E0,8.944950104E0,9.969879037E0
2.812077088E0,2.340000123E-1,4.392000198E0,8.983950615E0,1.000278913E1
2.814040515E0,3.490500152E-1,4.354050159E0,8.944950104E0,9.954482461E0
2.816003855E0,3.109500110E-1,4.354050159E0,8.944950104E0,9.953219331E0
2.817967428E0,2.719500065E-1,4.431000233E0,8.944950104E0,9.985982787E0
2.819930932E0,3.109500110E-1,4.392000198E0,8.944950104E0,9.969879037E0
2.821894297E0,3.490500152E-1,4.431000233E0,8.983950615E0,1.002332119E1
2.823857703E0,2.719500065E-1,4.431000233E0,8.983950615E0,1.002093252E1
2.825820904E0,2.340000123E-1,4.392000198E0,8.907000542E0,9.933734464E0
2.827784165E0,2.719500065E-1,4.392000198E0,8.944950104E0,9.968738882E0
2.829747705E0,2.719500065E-1,4.392000198E0,8.983950615E0,1.000374886E1
2.831711163E0,3.109500110E-1,4.431000233E0,9.022050858E0,1.005623462E1
2.833674425E0,3.490500152E-1,4.392000198E0,8.944950104E0,9.971140056E0
2.835637727E0,2.719500065E-1,4.392000198E0,9.022050858E0,1.003797909E1
2.837600946E0,2.719500065E-1,4.431000233E0,8.907000542E0,9.952003744E0
2.839564189E0,3.109500110E-1,4.431000233E0,8.944950104E0,9.987120973E0
2.841527373E0,3.109500110E-1,4.431000233E0,8.983950615E0,1.002206673E1
2.843490574E0,2.719500065E-1,4.392000198E0,8.944950104E0,9.968738882E0
2.845453674E0,3.109500110E-1,4.431000233E0,8.983950615E0,1.002206673E1
2.847416804E0,2.719500065E-1,4.392000198E0,8.907000542E0,9.934700861E0
2.849380366E0,3.109500110E-1,4.431000233E0,8.983950615E0,1.002206673E1
2.851343802E0,3.490500152E-1,4.392000198E0,8.944950104E0,9.971140056E0
2.853307403E0,3.490500152E-1,4.431000233E0,8.907000542E0,9.954408954E0
2.855270956E0,3.109500110E-1,4.392000198E0,8.944950104E0,9.969879037E0
2.857234429E0,3.109500110E-1,4.431000233E0,8.907000542E0,9.953145815E0
2.859197939E0,3.490500152E-1,4.431000233E0,8.907000542E0,9.954408954E0
2.861161481E0,3.490500152E-1,4.468950272E0,8.869050026E0,9.937474569E0
2.863125014E0,2.719500065E-1,4.431000233E0,8.869050026E0,9.918052643E0
2.865088059E0,2.719500065E-1,4.431000233E0,8.907000542E0,9.952003744E0
2.867051247E0,3.109500110E-1,4.431000233E0,8.830050468E0,9.884343390E0
2.869014619E0,3.109500110E-1,4.468950272E0,8.907000542E0,9.970098550E0
2.870977937E0,3.109500110E-1,4.468950272E0,8.869050026E0,9.936209277E0
2.872941559E0,2.719500065E-1,4.468950272E0,8.791950226E0,9.866299312E0
2.874905091E0,2.719500065E-1,4.431000233E0,8.869050026E0,9.918052643E0
2.876868766E0,3.109500110E-1,4.468950272E0,8.907000542E0,9.970098550E0
2.878832399E0,3.109500110E-1,4.431000233E0,8.869050026E0,9.919198624E0
2.880795782E0,3.109500110E-1,4.431000233E0,8.907000542E0,9.953145815E0
2.882759242E0,3.109500110E-1,4.468950272E0,8.907000542E0,9.970098550E0
2.884722793E0,3.109500110E-1,4.431000233E0,8.791950226E0,9.850321911E0
2.886686317E0,3.109500110E-1,4.431000233E0,8.869050026E0,9.919198624E0
2.888649993E0,3.109500110E-1,4.431000233E0,8.869050026E0,9.919198624E0
2.890613625E0,3.490500152E-1,4.392000198E0,8.907000542E0,9.937110259E0
2.892577207E0,3.490500152E-1,4.431000233E0,8.907000542E0,9.954408954E0
2.894540794E0,3.109500110E-1,4.431000233E0,8.869050026E0,9.919198624E0
2.896504324E0,3.109500110E-1,4.392000198E0,8.907000542E0,9.935844921E0
2.898467871E0,3.490500152E-1,4.431000233E0,8.907000542E0,9.954408954E0
2.900431228E0,3.490500152E-1,4.392000198E0,8.830050468E0,9.868196032E0
2.902394641E0,3.490500152E-1,4.431000233E0,8.830050468E0,9.885615320E0
2.904358399E0,3.109500110E-1,4.392000198E0,8.907000542E0,9.935844921E0
2.906322042E0,2.719500065E-1,4.431000233E0,8.907000542E0,9.952003744E0
2.908285339E0,2.719500065E-1,4.392000198E0,8.830050468E0,9.865769804E0
2.910248737E0,3.490500152E-1,4.392000198E0,8.869050026E0,9.903108099E0
2.912211939E0,2.719500065E-1,4.392000198E0,8.869050026E0,9.900690426E0
2.914175198E0,2.719500065E-1,4.392000198E0,8.869050026E0,9.900690426E0
2.916138653E0,3.109500110E-1,4.392000198E0,8.869050026E0,9.901838416E0
2.918102047E0,2.719500065E-1,4.431000233E0,8.907000542E0,9.952003744E0
2.920065386E0,2.719500065E-1,4.431000233E0,8.907000542E0,9.952003744E0
2.922028742E0,2.719500065E-1,4.431000233E0,8.907000542E0,9.952003744E0
2.923992130E0,2.340000123E-1,4.431000233E0,8.944950104E0,9.985021353E0
2.925955509E0,2.719500065E-1,4.392000198E0,8.869050026E0,9.900690426E0
2.927918914E0,2.340000123E-1,4.431000233E0,8.869050026E0,9.917084624E0
2.929882297E0,2.719500065E-1,4.392000198E0,8.907000542E0,9.934700861E0
2.931845548E0,2.719500065E-1,4.392000198E0,8.907000542E0,9.934700861E0
2.933808838E0,2.340000123E-1,4.392000198E0,8.907000542E0,9.933734464E0
2.935772553E0,2.719500065E-1,4.392000198E0,8.907000542E0,9.934700861E0
2.937736143E0,2.719500065E-1,4.431000233E0,8.869050026E0,9.918052643E0
2.939699724E0,2.719500065E-1,4.431000233E0,8.907000542E0,9.952003744E0
2.941663304E0,3.109500110E-1,4.431000233E0,8.907000542E0,9.953145815E0
2.943626970E0,3.490500152E-1,4.392000198E0,8.869050026E0,9.903108099E0
2.945590610E0,2.719500065E-1,4.392000198E0,8.869050026E0,9.900690426E0
2.947554177E0,2.719500065E-1,4.392000198E0,8.944950104E0,9.968738882E0
2.949517766E0,2.719500065E-1,4.392000198E0,8.907000542E0,9.934700861E0
2.951481139E0,2.719500065E-1,4.392000198E0,8.944950104E0,9.968738882E0
2.953444559E0,3.109500110E-1,4.392000198E0,8.869050026E0,9.901838416E0
2.955407892E0,3.109500110E-1,4.431000233E0,8.869050026E0,9.919198624E0
2.957371251E0,3.109500110E-1,4.431000233E0,8.907000542E0,9.953145815E0
2.959334144E0,3.109500110E-1,4.392000198E0,8.869050026E0,9.901838416E0
2.961297174E0,2.719500065E-1,4.392000198E0,8.907000542E0,9.934700861E0
2.963260643E0,2.719500065E-1,4.431000233E0,8.869050026E0,9.918052643E0
2.965223966E0,2.719500065E-1,4.392000198E0,8.907000542E0,9.934700861E0
2.967187496E0,2.719500065E-1,4.431000233E0,8.907000542E0,9.952003744E0
2.969150966E0,2.340000123E-1,4.392000198E0,8.907000542E0,9.933734464E0
2.971114516E0,2.719500065E-1,4.431000233E0,8.907000542E0,9.952003744E0
2.973078043E0,3.109500110E-1,4.431000233E0,8.983950615E0,1.002206673E1
2.975041828E0,2.340000123E-1,4.431000233E0,8.907000542E0,9.951039027E0
2.977005523E0,2.719500065E-1,4.431000233E0,8.944950104E0,9.985982787E0
2.978969216E0,2.719500065E-1,4.392000198E0,8.983950615E0,1.000374886E1
2.980932910E0,2.719500065E-1,4.468950272E0,8.907000542E0,9.968958420E0
2.982896602E0,2.719500065E-1,4.392000198E0,8.907000542E0,9.934700861E0
2.984860294E0,2.719500065E-1,4.431000233E0,8.907000542E0,9.952003744E0
2.986823577E0,3.109500110E-1,4.431000233E0,8.983950615E0,1.002206673E1
2.988786983E0,3.109500110E-1,4.431000233E0,8.944950104E0,9.987120973E0
2.990750364E0,3.109500110E-1,4.431000233E0,8.944950104E0,9.987120973E0
2.992713752E0,2.719500065E-1,4.392000198E0,8.944950104E0,9.968738882E0
2.994677360E0,2.719500065E-1,4.431000233E0,8.983950615E0,1.002093252E1
2.996640904E0,2.719500065E-1,4.392000198E0,8.983950615E0,1.000374886E1
2.998604571E0,3.490500152E-1,4.392000198E0,8.907000542E0,9.937110259E0
3.000568206E0,3.490500152E-1,4.354050159E0,8.944950104E0,9.954482461E0
3.002531908E0,3.490500152E-1,4.392000198E0,8.907000542E0,9.937110259E0
3.004495591E0,3.490500152E-1,4.431000233E0,8.983950615E0,1.002332119E1
3.006459285E0,3.870000243E-1,4.431000233E0,9.022050858E0,1.005887338E1
3.008422976E0,3.490500152E-1,4.431000233E0,8.944950104E0,9.988379815E0
3.010386653E0,2.719500065E-1,4.431000233E0,8.983950615E0,1.002093252E1
3.012350345E0,3.490500152E-1,4.431000233E0,8.983950615E0,1.002332119E1
3.014313723E0,3.490500152E-1,4.354050159E0,9.022050858E0,1.002382115E1
3.016277193E0,3.490500152E-1,4.392000198E0,8.983950615E0,1.000614163E1
3.018240518E0,3.490500152E-1,4.392000198E0,9.060000420E0,1.007447811E1
3.020203886E0,3.870000243E-1,4.392000198E0,9.022050858E0,1.004175465E1
3.022167439E0,3.109500110E-1,4.354050159E0,8.983950615E0,9.988283704E0
3.024130947E0,3.109500110E-1,4.392000198E0,9.022050858E0,1.003911138E1
3.026094311E0,3.109500110E-1,4.392000198E0,9.022050858E0,1.003911138E1
3.028057718E0,3.109500110E-1,4.354050159E0,9.022050858E0,1.002256676E1
3.030021323E0,3.109500110E-1,4.392000198E0,9.060000420E0,1.007323003E1
3.031984870E0,3.109500110E-1,4.392000198E0,8.983950615E0,1.000488502E1
3.033948363E0,2.719500065E-1,4.392000198E0,9.022050858E0,1.003797909E1
3.035911872E0,3.109500110E-1,4.431000233E0,9.022050858E0,1.005623462E1
3.037875235E0,3.109500110E-1,4.431000233E0,8.983950615E0,1.002206673E1
3.039838641E0,3.109500110E-1,4.392000198E0,8.983950615E0,1.000488502E1
3.041801707E0,2.719500065E-1,4.431000233E0,8.983950615E0,1.002093252E1
3.043764872E0,2.719500065E-1,4.431000233E0,8.983950615E0,1.002093252E1
3.045728312E0,2.340000123E-1,4.431000233E0,8.907000542E0,9.951039027E0
3.047691658E0,2.340000123E-1,4.431000233E0,8.983950615E0,1.001997444E1
3.049655004E0,2.719500065E-1,4.392000198E0,8.907000542E0,9.934700861E0
3.051618350E0,2.340000123E-1,4.354050159E0,8.907000542E0,9.917014039E0
3.053581427E0,2.340000123E-1,4.431000233E0,8.907000542E0,9.951039027E0
3.055544583E0,2.340000123E-1,4.392000198E0,8.869050026E0,9.899720709E0
3.057507826E0,2.719500065E-1,4.392000198E0,8.944950104E0,9.968738882E0
3.059471043E0,2.719500065E-1,4.431000233E0,8.944950104E0,9.985982787E0
3.061434456E0,2.719500065E-1,4.392000198E0,8.907000542E0,9.934700861E0
3.063397812E0,2.719500065E-1,4.392000198E0,8.907000542E0,9.934700861E0
3.065361022E0,2.719500065E-1,4.392000198E0,8.907000542E0,9.934700861E0
3.067324275E0,3.109500110E-1,4.392000198E0,8.944950104E0,9.969879037E0
3.069287701E0,3.490500152E-1,4.354050159E0,8.907000542E0,9.920395524E0
3.071251062E0,3.109500110E-1,4.354050159E0,8.869050026E0,9.885064039E0
3.073214451E0,3.490500152E-1,4.392000198E0,8.944950104E0,9.971140056E0
3.075177831E0,3.109500110E-1,4.354050159E0,8.944950104E0,9.953219331E0
3.077140992E0,3.490500152E-1,4.354050159E0,8.869050026E0,9.886335877E0
3.079104218E0,3.490500152E-1,4.392000198E0,8.869050026E0,9.903108099E0
3.081067482E0,3.490500152E-1,4.392000198E0,8.869050026E0,9.903108099E0
3.083030711E0,3.870000243E-1,4.354050159E0,8.907000542E0,9.921803287E0
3.084994167E0,3.490500152E-1,4.354050159E0,8.944950104E0,9.954482461E0
3.086957557E0,3.490500152E-1,4.392000198E0,8.944950104E0,9.971140056E0
3.088920942E0,3.490500152E-1,4.354050159E0,8.944950104E0,9.954482461E0
3.090884329E0,3.490500152E-1,4.392000198E0,8.907000542E0,9.937110259E0
3.092847543E0,3.870000243E-1,4.354050159E0,8.944950104E0,9.955885404E0
3.094810800E0,3.490500152E-1,4.392000198E0,8.907000542E0,9.937110259E0
3.096774160E0,3.490500152E-1,4.392000198E0,8.907000542E0,9.937110259E0
3.098737490E0,3.490500152E-1,4.392000198E0,8.944950104E0,9.971140056E0
3.100700705E0,3.109500110E-1,4.431000233E0,8.944950104E0,9.987120973E0
3.102663954E0,3.490500152E-1,4.431000233E0,8.907000542E0,9.954408954E0
3.104627386E0,3.490500152E-1,4.431000233E0,8.830050468E0,9.885615320E0
3.106590778E0,3.109500110E-1,4.431000233E0,8.869050026E0,9.919198624E0
3.108554117E0,3.109500110E-1,4.431000233E0,8.869050026E0,9.919198624E0
3.110517472E0,2.719500065E-1,4.468950272E0,8.907000542E0,9.968958420E0
3.112481041E0,2.719500065E-1,4.468950272E0,8.907000542E0,9.968958420E0
3.114444547E0,3.490500152E-1,4.431000233E0,8.907000542E0,9.954408954E0
3.116407957E0,2.719500065E-1,4.468950272E0,8.907000542E0,9.968958420E0
3.118371396E0,2.719500065E-1,4.507050037E0,8.869050026E0,9.952261311E0
3.120334726E0,2.719500065E-1,4.431000233E0,8.869050026E0,9.918052643E0
3.122298088E0,2.719500065E-1,4.468950272E0,8.944950104E0,1.000287987E1
3.124261296E0,2.719500065E-1,4.468950272E0,8.907000542E0,9.968958420E0
3.126224549E0,3.109500110E-1,4.468950272E0,8.869050026E0,9.936209277E0
3.128188321E0,2.719500065E-1,4.431000233E0,8.944950104E0,9.985982787E0
3.130151937E0,2.340000123E-1,4.431000233E0,8.944950104E0,9.985021353E0
3.132114923E0,2.719500065E-1,4.468950272E0,8.907000542E0,9.968958420E0
3.134078093E0,2.719500065E-1,4.468950272E0,8.944950104E0,1.000287987E1
3.136041513E0,3.109500110E-1,4.431000233E0,8.944950104E0,9.987120973E0
3.138004860E0,2.719500065E-1,4.392000198E0,8.944950104E0,9.968738882E0
3.139968072E0,2.719500065E-1,4.468950272E0,8.983950615E0,1.003777077E1
3.141931324E0,3.109500110E-1,4.468950272E0,8.983950615E0,1.003890308E1
3.143894730E0,2.719500065E-1,4.431000233E0,8.983950615E0,1.002093252E1
3.145858091E0,2.719500065E-1,4.431000233E0,9.022050858E0,1.005510425E1
3.147821165E0,3.109500110E-1,4.431000233E0,8.983950615E0,1.002206673E1
3.149784324E0,2.719500065E-1,4.431000233E0,8.983950615E0,1.002093252E1
3.151747547E0,2.719500065E-1,4.468950272E0,8.983950615E0,1.003777077E1
3.153710764E0,2.719500065E-1,4.392000198E0,8.983950615E0,1.000374886E1
3.155674358E0,2.719500065E-1,4.392000198E0,8.983950615E0,1.000374886E1
3.157637841E0,3.109500110E-1,4.392000198E0,8.944950104E0,9.969879037E0
3.159601389E0,3.109500110E-1,4.392000198E0,8.983950615E0,1.000488502E1
3.161564918E0,2.719500065E-1,4.392000198E0,8.907000542E0,9.934700861E0
3.163528234E0,3.109500110E-1,4.392000198E0,8.944950104E0,9.969879037E0
3.165491612E0,2.340000123E-1,4.392000198E0,8.907000542E0,9.933734464E0
3.167455177E0,2.719500065E-1,4.392000198E0,8.944950104E0,9.968738882E0
3.169418687E0,3.109500110E-1,4.354050159E0,8.869050026E0,9.885064039E0
3.171381691E0,2.719500065E-1,4.354050159E0,8.907000542E0,9.917982065E0
3.173344843E0,2.719500065E-1,4.315950394E0,8.869050026E0,9.867189720E0
3.175308311E0,3.109500110E-1,4.354050159E0,8.907000542E0,9.919128054E0
3.177271687E0,3.490500152E-1,4.354050159E0,8.869050026E0,9.886335877E0
3.179235253E0,3.109500110E-1,4.354050159E0,8.907000542E0,9.919128054E0
3.181198764E0,2.719500065E-1,4.354050159E0,8.944950104E0,9.952077268E0
3.183162083E0,3.109500110E-1,4.431000233E0,8.907000542E0,9.953145815E0
3.185125459E0,2.719500065E-1,4.354050159E0,8.907000542E0,9.917982065E0
3.187088684E0,3.490500152E-1,4.354050159E0,8.907000542E0,9.920395524E0
3.189051940E0,3.109500110E-1,4.354050159E0,8.907000542E0,9.919128054E0
3.191015526E0,3.109500110E-1,4.315950394E0,8.907000542E0,9.902463146E0
3.192979015E0,3.490500152E-1,4.354050159E0,8.944950104E0,9.954482461E0
3.194942203E0,3.490500152E-1,4.354050159E0,8.907000542E0,9.920395524E0
3.196905479E0,3.109500110E-1,4.354050159E0,8.907000542E0,9.919128054E0
3.198868360E0,3.490500152E-1,4.354050159E0,8.907000542E0,9.920395524E0
3.200831344E0,3.870000243E-1,4.354050159E0,8.907000542E0,9.921803287E0
3.202794661E0,3.490500152E-1,4.354050159E0,8.944950104E0,9.954482461E0
3.204757880E0,3.490500152E-1,4.354050159E0,8.907000542E0,9.920395524E0
3.206721248E0,3.109500110E-1,4.354050159E0,8.944950104E0,9.953219331E0
3.208684573E0,3.870000243E-1,4.354050159E0,8.907000542E0,9.921803287E0
3.210647618E0,3.870000243E-1,4.354050159E0,8.944950104E0,9.955885404E0
3.212610738E0,3.490500152E-1,4.354050159E0,8.907000542E0,9.920395524E0
3.214574347E0,3.490500152E-1,4.354050159E0,8.907000542E0,9.920395524E0
3.216537813E0,3.490500152E-1,4.354050159E0,8.907000542E0,9.920395524E0
3.218501185E0,3.490500152E-1,4.315950394E0,8.907000542E0,9.903732749E0
3.220464585E0,3.490500152E-1,4.392000198E0,8.907000542E0,9.937110259E0
3.222428340E0,3.109500110E-1,4.354050159E0,8.907000542E0,9.919128054E0
3.224391981E0,3.109500110E-1,4.392000198E0,8.907000542E0,9.935844921E0
3.226355682E0,3.490500152E-1,4.392000198E0,8.907000542E0,9.937110259E0
3.228319366E0,3.109500110E-1,4.392000198E0,8.907000542E0,9.935844921E0
3.230282700E0,2.719500065E-1,4.392000198E0,8.907000542E0,9.934700861E0
3.232246137E0,3.490500152E-1,4.392000198E0,8.907000542E0,9.937110259E0
3.234209548E0,2.719500065E-1,4.392000198E0,8.869050026E0,9.900690426E0
3.236172973E0,2.719500065E-1,4.392000198E0,8.944950104E0,9.968738882E0
3.238136306E0,2.719500065E-1,4.392000198E0,8.944950104E0,9.968738882E0
3.240099666E0,2.719500065E-1,4.431000233E0,8.983950615E0,1.002093252E1
3.242062919E0,3.490500152E-1,4.431000233E0,8.983950615E0,1.002332119E1
3.244026204E0,2.719500065E-1,4.468950272E0,8.944950104E0,1.000287987E1
3.245989381E0,2.340000123E-1,4.431000233E0,8.983950615E0,1.001997444E1
3.247952589E0,2.719500065E-1,4.507050037E0,8.983950615E0,1.005479117E1
3.249915822E0,3.109500110E-1,4.468950272E0,8.983950615E0,1.003890308E1
3.251879048E0,3.109500110E-1,4.431000233E0,9.060000420E0,1.009029537E1
3.253842146E0,2.719500065E-1,4.431000233E0,9.022050858E0,1.005510425E1
3.255805281E0,3.109500110E-1,4.431000233E0,9.022050858E0,1.005623462E1
3.257768482E0,2.719500065E-1,4.431000233E0,9.022050858E0,1.005510425E1
3.259731664E0,2.719500065E-1,4.431000233E0,8.983950615E0,1.002093252E1
3.261694948E0,2.719500065E-1,4.431000233E0,8.983950615E0,1.002093252E1
3.263658202E0,2.719500065E-1,4.431000233E0,8.983950615E0,1.002093252E1
3.265621564E0,2.719500065E-1,4.431000233E0,9.022050858E0,1.005510425E1
3.267584894E0,2.719500065E-1,4.431000233E0,8.983950615E0,1.002093252E1
3.269548125E0,3.109500110E-1,4.468950272E0,9.022050858E0,1.007301385E1
3.271511406E0,3.109500110E-1,4.431000233E0,9.022050858E0,1.005623462E1
3.273474762E0,3.109500110E-1,4.431000233E0,8.983950615E0,1.002206673E1
3.275438096E0,2.719500065E-1,4.468950272E0,9.022050858E0,1.007188538E1
3.277401670E0,2.719500065E-1,4.468950272E0,9.022050858E0,1.007188538E1
3.279365173E0,3.490500152E-1,4.392000198E0,8.944950104E0,9.971140056E0
3.281328583E0,2.719500065E-1,4.392000198E0,9.022050858E0,1.003797909E1
3.283292021E0,2.719500065E-1,4.431000233E0,8.983950615E0,1.002093252E1
3.285255576E0,2.719500065E-1,4.431000233E0,9.022050858E0,1.005510425E1
3.287219096E0,3.109500110E-1,4.468950272E0,8.983950615E0,1.003890308E1
3.289182414E0,3.109500110E-1,4.431000233E0,8.944950104E0,9.987120973E0
3.291145791E0,3.109500110E-1,4.431000233E0,8.983950615E0,1.002206673E1
3.293109605E0,3.109500110E-1,4.431000233E0,8.907000542E0,9.953145815E0
3.295073274E0,3.109500110E-1,4.431000233E0,8.907000542E0,9.953145815E0
3.297036791E0,3.109500110E-1,4.392000198E0,8.944950104E0,9.969879037E0
3.299000353E0,3.109500110E-1,4.392000198E0,8.869050026E0,9.901838416E0
3.300964247E0,3.109500110E-1,4.431000233E0,8.907000542E0,9.953145815E0
3.302928043E0,3.109500110E-1,4.431000233E0,8.944950104E0,9.987120973E0
3.304891674E0,3.109500110E-1,4.392000198E0,8.944950104E0,9.969879037E0
3.306855353E0,3.109500110E-1,4.392000198E0,8.907000542E0,9.935844921E0
3.308818552E0,3.490500152E-1,4.431000233E0,8.944950104E0,9.988379815E0
3.310781892E0,3.490500152E-1,4.431000233E0,8.869050026E0,9.920466085E0
3.312745463E0,3.490500152E-1,4.392000198E0,8.907000542E0,9.937110259E0
3.314708966E0,3.109500110E-1,4.431000233E0,8.907000542E0,9.953145815E0
3.316672696E0,3.870000243E-1,4.431000233E0,8.907000542E0,9.955811907E0
3.318636356E0,3.490500152E-1,4.431000233E0,8.869050026E0,9.920466085E0
3.320599875E0,3.490500152E-1,4.354050159E0,8.830050468E0,9.851364371E0
3.322563435E0,3.870000243E-1,4.392000198E0,8.907000542E0,9.938515654E0
3.324527149E0,3.870000243E-1,4.392000198E0,8.869050026E0,9.904518319E0
3.326490818E0,3.490500152E-1,4.354050159E0,8.791950226E0,9.817228605E0
3.328454456E0,3.109500110E-1,4.354050159E0,8.869050026E0,9.885064039E0
3.330418113E0,3.109500110E-1,4.392000198E0,8.830050468E0,9.866921857E0
