"Time (s)","Acceleration x (m/s^2)","Acceleration y (m/s^2)","Acceleration z (m/s^2)","Absolute acceleration (m/s^2)"
3.863290300E-2,3.870000243E-1,4.584000111E0,8.754000664E0,9.889153334E0
4.059419400E-2,4.260000288E-1,4.621950150E0,8.754000664E0,9.908401830E0
4.255805700E-2,3.490500152E-1,4.621950150E0,8.715000153E0,9.870941533E0
4.452032300E-2,3.870000243E-1,4.660050392E0,8.715000153E0,9.890251075E0
4.648305700E-2,4.639500082E-1,4.660050392E0,8.715000153E0,9.893560882E0
4.844554900E-2,4.639500082E-1,4.621950150E0,8.715000153E0,9.875672152E0
5.040815300E-2,4.260000288E-1,4.660050392E0,8.677050591E0,9.858435608E0
5.237081400E-2,4.639500082E-1,4.621950150E0,8.677050591E0,9.842198928E0
5.433345900E-2,4.639500082E-1,4.621950150E0,8.677050591E0,9.842198928E0
5.629624900E-2,4.639500082E-1,4.584000111E0,8.677050591E0,9.824434517E0
5.825899700E-2,4.639500082E-1,4.621950150E0,8.715000153E0,9.875672152E0
6.022138600E-2,5.020500422E-1,4.621950150E0,8.715000153E0,9.877535375E0
6.218389800E-2,5.020500422E-1,4.621950150E0,8.715000153E0,9.877535375E0
6.414666500E-2,5.020500422E-1,4.621950150E0,8.754000664E0,9.911962724E0
6.610935800E-2,5.410500169E-1,4.545000076E0,8.715000153E0,9.843829970E0
6.807196100E-2,4.639500082E-1,4.584000111E0,8.754000664E0,9.892463507E0
7.003459100E-2,5.020500422E-1,4.584000111E0,8.754000664E0,9.894323569E0
7.199719800E-2,5.410500169E-1,4.584000111E0,8.715000153E0,9.861897373E0
7.395981600E-2,5.020500422E-1,4.584000111E0,8.715000153E0,9.859834629E0
7.592279000E-2,4.260000288E-1,4.584000111E0,8.754000664E0,9.890756324E0
7.788566000E-2,5.020500422E-1,4.584000111E0,8.791950226E0,9.927915191E0
7.984823300E-2,4.639500082E-1,4.584000111E0,8.754000664E0,9.892463507E0
8.181089300E-2,4.639500082E-1,4.584000111E0,8.791950226E0,9.926061424E0
8.377385000E-2,4.639500082E-1,4.545000076E0,8.754000664E0,9.874452032E0
8.573672700E-2,4.260000288E-1,4.545000076E0,8.791950226E0,9.906406538E0
8.769952400E-2,4.639500082E-1,4.545000076E0,8.830050468E0,9.941934750E0
8.966234500E-2,4.260000288E-1,4.545000076E0,8.830050468E0,9.940236063E0
9.162523900E-2,4.639500082E-1,4.545000076E0,8.869050026E0,9.976588779E0
9.358811200E-2,4.639500082E-1,4.584000111E0,8.830050468E0,9.959824190E0
9.555085100E-2,4.260000288E-1,4.584000111E0,8.830050468E0,9.958128555E0
9.751367100E-2,4.260000288E-1,4.545000076E0,8.830050468E0,9.940236063E0
9.947602600E-2,4.260000288E-1,4.545000076E0,8.869050026E0,9.974895993E0
1.014385180E-1,4.639500082E-1,4.545000076E0,8.869050026E0,9.976588779E0
1.034011530E-1,4.260000288E-1,4.545000076E0,8.907000542E0,1.000865427E1
1.053637460E-1,4.260000288E-1,4.584000111E0,8.869050026E0,9.992726425E0
1.073263120E-1,4.639500082E-1,4.545000076E0,8.869050026E0,9.976588779E0
1.092889240E-1,4.639500082E-1,4.545000076E0,8.869050026E0,9.976588779E0
1.112514060E-1,5.020500422E-1,4.545000076E0,8.869050026E0,9.978433159E0
1.132139260E-1,4.639500082E-1,4.584000111E0,8.869050026E0,9.994416190E0
1.151765120E-1,4.639500082E-1,4.545000076E0,8.907000542E0,1.001034135E1
1.171390780E-1,4.639500082E-1,4.584000111E0,8.907000542E0,1.002810876E1
1.191013170E-1,4.260000288E-1,4.545000076E0,8.869050026E0,9.974895993E0
1.210636700E-1,4.639500082E-1,4.545000076E0,8.907000542E0,1.001034135E1
1.230256090E-1,4.260000288E-1,4.545000076E0,8.907000542E0,1.000865427E1
1.249876700E-1,4.639500082E-1,4.584000111E0,8.907000542E0,1.002810876E1
1.269500640E-1,4.260000288E-1,4.584000111E0,8.907000542E0,1.002642467E1
1.289123610E-1,4.639500082E-1,4.545000076E0,8.907000542E0,1.001034135E1
1.308748410E-1,4.260000288E-1,4.584000111E0,8.907000542E0,1.002642467E1
1.328372740E-1,4.639500082E-1,4.584000111E0,8.944950104E0,1.006183080E1
1.347999210E-1,4.260000288E-1,4.584000111E0,8.907000542E0,1.002642467E1
1.367625050E-1,4.639500082E-1,4.584000111E0,8.907000542E0,1.002810876E1
1.387252610E-1,4.639500082E-1,4.621950150E0,8.830050468E0,9.977347547E0
1.406879660E-1,4.639500082E-1,4.545000076E0,8.869050026E0,9.976588779E0
1.426505580E-1,4.260000288E-1,4.545000076E0,8.869050026E0,9.974895993E0
1.446131900E-1,4.639500082E-1,4.545000076E0,8.869050026E0,9.976588779E0
1.465754870E-1,4.639500082E-1,4.584000111E0,8.907000542E0,1.002810876E1
1.485378820E-1,5.020500422E-1,4.545000076E0,8.907000542E0,1.001217951E1
1.505005340E-1,3.870000243E-1,4.584000111E0,8.944950104E0,1.005857636E1
1.524631110E-1,4.639500082E-1,4.584000111E0,8.869050026E0,9.994416190E0
1.544255150E-1,3.490500152E-1,4.621950150E0,8.907000542E0,1.004086240E1
1.563879970E-1,4.260000288E-1,4.584000111E0,8.907000542E0,1.002642467E1
1.583505890E-1,4.260000288E-1,4.621950150E0,8.907000542E0,1.004383183E1
1.603131490E-1,4.260000288E-1,4.545000076E0,8.907000542E0,1.000865427E1
1.622759540E-1,3.490500152E-1,4.621950150E0,8.907000542E0,1.004086240E1
1.642386870E-1,3.870000243E-1,4.584000111E0,8.869050026E0,9.991139795E0
1.662010700E-1,4.260000288E-1,4.621950150E0,8.944950104E0,1.007750126E1
1.681635790E-1,4.260000288E-1,4.584000111E0,8.907000542E0,1.002642467E1
1.701262560E-1,4.260000288E-1,4.584000111E0,8.907000542E0,1.002642467E1
1.720888840E-1,4.639500082E-1,4.584000111E0,8.907000542E0,1.002810876E1
1.740516780E-1,4.260000288E-1,4.584000111E0,8.944950104E0,1.006015235E1
1.760144230E-1,4.639500082E-1,4.584000111E0,8.944950104E0,1.006183080E1
1.779769530E-1,4.639500082E-1,4.584000111E0,8.869050026E0,9.994416190E0
1.799395600E-1,4.639500082E-1,4.545000076E0,8.869050026E0,9.976588779E0
1.819022200E-1,4.639500082E-1,4.507050037E0,8.907000542E0,9.993168081E0
1.838648650E-1,4.639500082E-1,4.584000111E0,8.869050026E0,9.994416190E0
1.858276560E-1,4.639500082E-1,4.584000111E0,8.830050468E0,9.959824190E0
1.877904040E-1,4.639500082E-1,4.545000076E0,8.907000542E0,1.001034135E1
1.897529300E-1,4.639500082E-1,4.545000076E0,8.869050026E0,9.976588779E0
1.917155370E-1,5.020500422E-1,4.507050037E0,8.907000542E0,9.995009401E0
1.936781970E-1,5.020500422E-1,4.545000076E0,8.907000542E0,1.001217951E1
1.956408420E-1,4.260000288E-1,4.545000076E0,8.907000542E0,1.000865427E1
1.976034540E-1,5.020500422E-1,4.545000076E0,8.944950104E0,1.004595502E1
1.995660750E-1,4.639500082E-1,4.545000076E0,8.907000542E0,1.001034135E1
2.015286360E-1,4.260000288E-1,4.545000076E0,8.869050026E0,9.974895993E0
2.034912530E-1,4.260000288E-1,4.545000076E0,8.907000542E0,1.000865427E1
2.054540020E-1,4.260000288E-1,4.507050037E0,8.907000542E0,9.991478105E0
2.074167120E-1,3.870000243E-1,4.545000076E0,8.944950104E0,1.004086286E1
2.093794920E-1,3.870000243E-1,4.545000076E0,8.944950104E0,1.004086286E1
2.113422510E-1,4.260000288E-1,4.584000111E0,8.869050026E0,9.992726425E0
2.133047850E-1,4.260000288E-1,4.584000111E0,8.983950615E0,1.009484530E1
2.152674260E-1,3.490500152E-1,4.584000111E0,8.907000542E0,1.002345008E1
2.172299020E-1,3.870000243E-1,4.584000111E0,8.907000542E0,1.002484337E1
2.191924260E-1,3.490500152E-1,4.584000111E0,8.907000542E0,1.002345008E1
2.211550560E-1,3.870000243E-1,4.621950150E0,8.869050026E0,1.000860832E1
2.231176540E-1,3.870000243E-1,4.660050392E0,8.830050468E0,9.991778118E0
2.250804530E-1,3.109500110E-1,4.660050392E0,8.869050026E0,1.002361252E1
2.270431930E-1,3.109500110E-1,4.621950150E0,8.830050468E0,9.971404333E0
2.290059230E-1,3.109500110E-1,4.621950150E0,8.791950226E0,9.937680910E0
2.309686560E-1,3.109500110E-1,4.660050392E0,8.791950226E0,9.955458218E0
2.329311160E-1,3.109500110E-1,4.660050392E0,8.791950226E0,9.955458218E0
2.348936560E-1,3.490500152E-1,4.660050392E0,8.715000153E0,9.888838821E0
2.368564540E-1,3.490500152E-1,4.660050392E0,8.754000664E0,9.923226955E0
2.388191830E-1,3.490500152E-1,4.621950150E0,8.754000664E0,9.905391800E0
2.407821390E-1,3.490500152E-1,4.660050392E0,8.754000664E0,9.923226955E0
2.427450290E-1,2.719500065E-1,4.660050392E0,8.791950226E0,9.954316412E0
2.447077340E-1,3.490500152E-1,4.699050426E0,8.754000664E0,9.941601402E0
2.466704930E-1,3.490500152E-1,4.621950150E0,8.715000153E0,9.870941533E0
2.486330550E-1,3.870000243E-1,4.660050392E0,8.754000664E0,9.924634316E0
2.505956950E-1,3.870000243E-1,4.621950150E0,8.791950226E0,9.940351150E0
2.525583500E-1,3.870000243E-1,4.621950150E0,8.791950226E0,9.940351150E0
2.545210010E-1,3.870000243E-1,4.621950150E0,8.715000153E0,9.872356348E0
2.564836110E-1,3.870000243E-1,4.621950150E0,8.715000153E0,9.872356348E0
2.584462340E-1,3.870000243E-1,4.584000111E0,8.715000153E0,9.854646300E0
2.604090070E-1,3.870000243E-1,4.584000111E0,8.754000664E0,9.889153334E0
2.623717500E-1,3.870000243E-1,4.584000111E0,8.715000153E0,9.854646300E0
2.643343450E-1,4.260000288E-1,4.584000111E0,8.754000664E0,9.890756324E0
2.662969830E-1,4.260000288E-1,4.584000111E0,8.791950226E0,9.924360020E0
2.682597290E-1,4.639500082E-1,4.584000111E0,8.754000664E0,9.892463507E0
2.702224430E-1,4.260000288E-1,4.621950150E0,8.715000153E0,9.873962065E0
2.721852030E-1,4.639500082E-1,4.584000111E0,8.715000153E0,9.857968061E0
2.741479620E-1,4.639500082E-1,4.545000076E0,8.791950226E0,9.908111025E0
2.761105990E-1,4.639500082E-1,4.584000111E0,8.754000664E0,9.892463507E0
2.780732720E-1,4.260000288E-1,4.584000111E0,8.754000664E0,9.890756324E0
2.800358320E-1,4.260000288E-1,4.584000111E0,8.754000664E0,9.890756324E0
2.819984260E-1,4.260000288E-1,4.584000111E0,8.791950226E0,9.924360020E0
2.839614180E-1,4.260000288E-1,4.621950150E0,8.791950226E0,9.941945885E0
2.859242840E-1,4.260000288E-1,4.621950150E0,8.754000664E0,9.908401830E0
2.878867220E-1,4.260000288E-1,4.584000111E0,8.754000664E0,9.890756324E0
2.898492860E-1,3.870000243E-1,4.621950150E0,8.791950226E0,9.940351150E0
2.918120890E-1,4.260000288E-1,4.621950150E0,8.754000664E0,9.908401830E0
2.937748220E-1,3.490500152E-1,4.621950150E0,8.791950226E0,9.938946014E0
2.957375540E-1,3.870000243E-1,4.699050426E0,8.791950226E0,9.976433867E0
2.977002860E-1,4.260000288E-1,4.660050392E0,8.830050468E0,9.993364646E0
2.996629270E-1,3.870000243E-1,4.621950150E0,8.791950226E0,9.940351150E0
3.016255940E-1,3.870000243E-1,4.621950150E0,8.791950226E0,9.940351150E0
3.035883790E-1,3.870000243E-1,4.584000111E0,8.830050468E0,9.956536411E0
3.055511300E-1,3.490500152E-1,4.621950150E0,8.830050468E0,9.972665159E0
3.075138590E-1,3.490500152E-1,4.660050392E0,8.830050468E0,9.990380215E0
3.094765940E-1,3.109500110E-1,4.621950150E0,8.791950226E0,9.937680910E0
3.114391880E-1,3.490500152E-1,4.621950150E0,8.830050468E0,9.972665159E0
3.134018240E-1,3.870000243E-1,4.621950150E0,8.869050026E0,1.000860832E1
3.153644800E-1,3.490500152E-1,4.584000111E0,8.907000542E0,1.002345008E1
3.173271300E-1,3.109500110E-1,4.621950150E0,8.830050468E0,9.971404333E0
3.192898560E-1,3.490500152E-1,4.584000111E0,8.907000542E0,1.002345008E1
3.212525730E-1,3.870000243E-1,4.621950150E0,8.907000542E0,1.004225328E1
3.232148560E-1,3.490500152E-1,4.584000111E0,8.830050468E0,9.955133560E0
3.251772670E-1,3.490500152E-1,4.584000111E0,8.907000542E0,1.002345008E1
3.271400520E-1,3.870000243E-1,4.584000111E0,8.907000542E0,1.002484337E1
3.291027270E-1,3.870000243E-1,4.545000076E0,8.983950615E0,1.007562223E1
3.310653540E-1,3.870000243E-1,4.584000111E0,8.944950104E0,1.005857636E1
3.330280120E-1,3.870000243E-1,4.545000076E0,8.944950104E0,1.004086286E1
3.349904400E-1,4.260000288E-1,4.545000076E0,8.983950615E0,1.007719556E1
3.369529350E-1,4.260000288E-1,4.507050037E0,8.983950615E0,1.006013642E1
3.389155250E-1,4.260000288E-1,4.545000076E0,8.944950104E0,1.004244164E1
3.408780870E-1,3.870000243E-1,4.584000111E0,8.944950104E0,1.005857636E1
3.428405770E-1,3.870000243E-1,4.507050037E0,8.944950104E0,1.002374189E1
3.448030890E-1,4.260000288E-1,4.545000076E0,8.907000542E0,1.000865427E1
3.467660810E-1,3.870000243E-1,4.584000111E0,8.944950104E0,1.005857636E1
3.487289330E-1,4.260000288E-1,4.545000076E0,8.907000542E0,1.000865427E1
3.506918240E-1,3.870000243E-1,4.545000076E0,8.944950104E0,1.004086286E1
3.526547030E-1,3.870000243E-1,4.545000076E0,8.983950615E0,1.007562223E1
3.546175040E-1,3.870000243E-1,4.507050037E0,8.944950104E0,1.002374189E1
3.565803250E-1,3.870000243E-1,4.545000076E0,8.944950104E0,1.004086286E1
3.585432190E-1,3.490500152E-1,4.545000076E0,8.907000542E0,1.000567440E1
3.605060920E-1,3.870000243E-1,4.507050037E0,8.907000542E0,9.989891276E0
3.624688900E-1,3.870000243E-1,4.507050037E0,8.983950615E0,1.005856042E1
3.644317100E-1,4.260000288E-1,4.507050037E0,8.869050026E0,9.957661594E0
3.663946040E-1,3.870000243E-1,4.584000111E0,8.907000542E0,1.002484337E1
3.683574770E-1,3.490500152E-1,4.545000076E0,8.907000542E0,1.000567440E1
3.703200950E-1,3.490500152E-1,4.545000076E0,8.907000542E0,1.000567440E1
3.722827870E-1,3.870000243E-1,4.545000076E0,8.869050026E0,9.973306527E0
3.742455230E-1,3.870000243E-1,4.584000111E0,8.830050468E0,9.956536411E0
3.762082460E-1,3.870000243E-1,4.545000076E0,8.869050026E0,9.973306527E0
3.781710280E-1,4.260000288E-1,4.507050037E0,8.983950615E0,1.006013642E1
3.801337890E-1,3.490500152E-1,4.545000076E0,8.869050026E0,9.971906035E0
3.820963800E-1,3.870000243E-1,4.545000076E0,8.869050026E0,9.973306527E0
3.840590210E-1,4.260000288E-1,4.545000076E0,8.791950226E0,9.906406538E0
3.860216760E-1,3.870000243E-1,4.507050037E0,8.830050468E0,9.921343676E0
3.879843270E-1,3.870000243E-1,4.545000076E0,8.869050026E0,9.973306527E0
3.899470680E-1,4.260000288E-1,4.545000076E0,8.869050026E0,9.974895993E0
3.919097850E-1,3.870000243E-1,4.584000111E0,8.830050468E0,9.956536411E0
3.938726080E-1,3.870000243E-1,4.621950150E0,8.791950226E0,9.940351150E0
3.958354000E-1,4.260000288E-1,4.545000076E0,8.830050468E0,9.940236063E0
3.977983000E-1,3.870000243E-1,4.584000111E0,8.830050468E0,9.956536411E0
3.997611690E-1,3.490500152E-1,4.621950150E0,8.791950226E0,9.938946014E0
4.017239870E-1,3.870000243E-1,4.584000111E0,8.791950226E0,9.922762458E0
4.036868060E-1,4.260000288E-1,4.621950150E0,8.830050468E0,9.975654890E0
4.056497010E-1,3.870000243E-1,4.584000111E0,8.791950226E0,9.922762458E0
4.076125730E-1,3.870000243E-1,4.621950150E0,8.830050468E0,9.974065544E0
4.095753250E-1,3.870000243E-1,4.660050392E0,8.869050026E0,1.002625987E1
4.115381130E-1,3.490500152E-1,4.584000111E0,8.791950226E0,9.921354832E0
4.135009420E-1,4.260000288E-1,4.584000111E0,8.830050468E0,9.958128555E0
4.154637460E-1,4.260000288E-1,4.584000111E0,8.830050468E0,9.958128555E0
4.174265100E-1,4.260000288E-1,4.621950150E0,8.830050468E0,9.975654890E0
4.193892860E-1,3.870000243E-1,4.584000111E0,8.907000542E0,1.002484337E1
4.213524140E-1,4.260000288E-1,4.584000111E0,8.869050026E0,9.992726425E0
4.233154380E-1,3.870000243E-1,4.621950150E0,8.869050026E0,1.000860832E1
4.252781840E-1,4.260000288E-1,4.584000111E0,8.830050468E0,9.958128555E0
4.272409980E-1,4.260000288E-1,4.584000111E0,8.907000542E0,1.002642467E1
4.292037590E-1,4.260000288E-1,4.621950150E0,8.869050026E0,1.001019218E1
4.311665360E-1,3.490500152E-1,4.584000111E0,8.869050026E0,9.989741803E0
4.331296180E-1,3.870000243E-1,4.584000111E0,8.830050468E0,9.956536411E0
4.350926110E-1,3.490500152E-1,4.584000111E0,8.869050026E0,9.989741803E0
4.370553430E-1,3.490500152E-1,4.621950150E0,8.869050026E0,1.000721277E1
4.390181510E-1,3.870000243E-1,4.584000111E0,8.869050026E0,9.991139795E0
4.409811380E-1,3.870000243E-1,4.584000111E0,8.869050026E0,9.991139795E0
4.429440730E-1,3.109500110E-1,4.621950150E0,8.830050468E0,9.971404333E0
4.449073090E-1,3.490500152E-1,4.621950150E0,8.869050026E0,1.000721277E1
4.468704570E-1,3.870000243E-1,4.660050392E0,8.830050468E0,9.991778118E0
4.488335090E-1,3.109500110E-1,4.621950150E0,8.830050468E0,9.971404333E0
4.507965990E-1,3.490500152E-1,4.621950150E0,8.791950226E0,9.938946014E0
4.527598530E-1,3.490500152E-1,4.621950150E0,8.830050468E0,9.972665159E0
4.547230590E-1,3.870000243E-1,4.660050392E0,8.830050468E0,9.991778118E0
4.566861590E-1,3.870000243E-1,4.621950150E0,8.830050468E0,9.974065544E0
4.586492910E-1,3.490500152E-1,4.621950150E0,8.830050468E0,9.972665159E0
4.606121970E-1,3.109500110E-1,4.621950150E0,8.791950226E0,9.937680910E0
4.625751560E-1,3.870000243E-1,4.660050392E0,8.830050468E0,9.991778118E0
4.645380730E-1,3.870000243E-1,4.621950150E0,8.830050468E0,9.974065544E0
4.665010030E-1,3.870000243E-1,4.660050392E0,8.830050468E0,9.991778118E0
4.684639250E-1,3.490500152E-1,4.584000111E0,8.830050468E0,9.955133560E0
4.704268490E-1,4.260000288E-1,4.621950150E0,8.830050468E0,9.975654890E0
4.723897810E-1,3.490500152E-1,4.660050392E0,8.830050468E0,9.990380215E0
4.743527040E-1,3.490500152E-1,4.660050392E0,8.830050468E0,9.990380215E0
4.763156270E-1,3.490500152E-1,4.660050392E0,8.754000664E0,9.923226955E0
4.782785500E-1,3.109500110E-1,4.621950150E0,8.830050468E0,9.971404333E0
4.802414730E-1,3.490500152E-1,4.621950150E0,8.791950226E0,9.938946014E0
4.822043960E-1,3.490500152E-1,4.660050392E0,8.791950226E0,9.956721064E0
4.841674530E-1,3.490500152E-1,4.621950150E0,8.754000664E0,9.905391800E0
4.861304710E-1,3.490500152E-1,4.621950150E0,8.754000664E0,9.905391800E0
4.880934240E-1,3.109500110E-1,4.660050392E0,8.791950226E0,9.955458218E0
4.900563960E-1,3.490500152E-1,4.621950150E0,8.754000664E0,9.905391800E0
4.920192660E-1,3.490500152E-1,4.660050392E0,8.754000664E0,9.923226955E0
4.939821660E-1,3.490500152E-1,4.621950150E0,8.791950226E0,9.938946014E0
4.959450770E-1,3.490500152E-1,4.584000111E0,8.715000153E0,9.853228942E0
4.979079950E-1,3.490500152E-1,4.621950150E0,8.791950226E0,9.938946014E0
4.998706040E-1,3.490500152E-1,4.621950150E0,8.791950226E0,9.938946014E0
5.018333040E-1,3.490500152E-1,4.621950150E0,8.791950226E0,9.938946014E0
5.037960840E-1,3.109500110E-1,4.621950150E0,8.791950226E0,9.937680910E0
5.057588410E-1,3.490500152E-1,4.584000111E0,8.791950226E0,9.921354832E0
5.077214430E-1,3.490500152E-1,4.584000111E0,8.754000664E0,9.887740922E0
5.096840840E-1,3.490500152E-1,4.545000076E0,8.754000664E0,9.869720828E0
5.116468740E-1,3.490500152E-1,4.584000111E0,8.754000664E0,9.887740922E0
5.136096200E-1,3.490500152E-1,4.584000111E0,8.791950226E0,9.921354832E0
5.155723500E-1,3.109500110E-1,4.584000111E0,8.830050468E0,9.953870513E0
5.175350840E-1,4.260000288E-1,4.584000111E0,8.791950226E0,9.924360020E0
5.194977330E-1,3.870000243E-1,4.545000076E0,8.830050468E0,9.938641053E0
5.214604000E-1,4.260000288E-1,4.545000076E0,8.830050468E0,9.940236063E0
5.234231410E-1,4.260000288E-1,4.507050037E0,8.830050468E0,9.922941466E0
5.253858600E-1,3.870000243E-1,4.545000076E0,8.869050026E0,9.973306527E0
5.273483240E-1,5.020500422E-1,4.584000111E0,8.830050468E0,9.961671674E0
5.293108620E-1,5.020500422E-1,4.545000076E0,8.869050026E0,9.978433159E0
5.312734790E-1,4.639500082E-1,4.545000076E0,8.830050468E0,9.941934750E0
5.332360480E-1,4.260000288E-1,4.507050037E0,8.830050468E0,9.922941466E0
5.351987160E-1,5.410500169E-1,4.468950272E0,8.830050468E0,9.911308840E0
5.371613550E-1,4.639500082E-1,4.468950272E0,8.869050026E0,9.942173530E0
5.391237430E-1,5.020500422E-1,4.507050037E0,8.830050468E0,9.926497144E0
5.410862040E-1,5.410500169E-1,4.468950272E0,8.869050026E0,9.946069576E0
5.430490440E-1,5.020500422E-1,4.507050037E0,8.830050468E0,9.926497144E0
5.450117590E-1,5.020500422E-1,4.468950272E0,8.869050026E0,9.944024293E0
5.469743590E-1,5.410500169E-1,4.545000076E0,8.869050026E0,9.980471391E0
5.489369920E-1,5.020500422E-1,4.507050037E0,8.907000542E0,9.995009401E0
5.508996040E-1,4.639500082E-1,4.468950272E0,8.869050026E0,9.942173530E0
5.528622230E-1,5.020500422E-1,4.545000076E0,8.869050026E0,9.978433159E0
5.548248470E-1,5.410500169E-1,4.468950272E0,8.907000542E0,9.979925365E0
5.567874630E-1,5.410500169E-1,4.507050037E0,8.791950226E0,9.894676545E0
5.587501220E-1,5.020500422E-1,4.545000076E0,8.830050468E0,9.943785558E0
5.607127690E-1,5.020500422E-1,4.584000111E0,8.791950226E0,9.927915191E0
5.626753350E-1,4.639500082E-1,4.545000076E0,8.830050468E0,9.941934750E0
5.646379250E-1,5.020500422E-1,4.584000111E0,8.830050468E0,9.961671674E0
5.666004020E-1,5.410500169E-1,4.621950150E0,8.830050468E0,9.981229863E0
5.685628860E-1,5.020500422E-1,4.621950150E0,8.791950226E0,9.945494769E0
5.705257030E-1,5.020500422E-1,4.584000111E0,8.830050468E0,9.961671674E0
5.724884230E-1,5.020500422E-1,4.584000111E0,8.830050468E0,9.961671674E0
5.744510660E-1,4.260000288E-1,4.584000111E0,8.791950226E0,9.924360020E0
5.764137320E-1,4.639500082E-1,4.584000111E0,8.791950226E0,9.926061424E0
5.783763180E-1,4.639500082E-1,4.584000111E0,8.830050468E0,9.959824190E0
5.803389100E-1,4.260000288E-1,4.584000111E0,8.830050468E0,9.958128555E0
5.823013940E-1,4.639500082E-1,4.545000076E0,8.791950226E0,9.908111025E0
5.842639100E-1,4.260000288E-1,4.584000111E0,8.830050468E0,9.958128555E0
5.862266770E-1,4.260000288E-1,4.584000111E0,8.869050026E0,9.992726425E0
5.881893700E-1,4.639500082E-1,4.584000111E0,8.830050468E0,9.959824190E0
5.901519640E-1,4.639500082E-1,4.584000111E0,8.869050026E0,9.994416190E0
5.921145930E-1,4.639500082E-1,4.584000111E0,8.830050468E0,9.959824190E0
5.940772500E-1,4.260000288E-1,4.584000111E0,8.869050026E0,9.992726425E0
5.960398990E-1,4.260000288E-1,4.584000111E0,8.869050026E0,9.992726425E0
5.980028240E-1,4.639500082E-1,4.584000111E0,8.907000542E0,1.002810876E1
5.999656680E-1,4.260000288E-1,4.584000111E0,8.907000542E0,1.002642467E1
6.019284850E-1,4.639500082E-1,4.545000076E0,8.907000542E0,1.001034135E1
6.038913000E-1,4.260000288E-1,4.584000111E0,8.907000542E0,1.002642467E1
6.058540610E-1,4.639500082E-1,4.545000076E0,8.907000542E0,1.001034135E1
6.078168380E-1,4.260000288E-1,4.584000111E0,8.869050026E0,9.992726425E0
6.097794260E-1,4.639500082E-1,4.584000111E0,8.907000542E0,1.002810876E1
6.117420690E-1,3.870000243E-1,4.545000076E0,8.869050026E0,9.973306527E0
6.137046250E-1,4.260000288E-1,4.545000076E0,8.944950104E0,1.004244164E1
6.156672130E-1,3.490500152E-1,4.584000111E0,8.907000542E0,1.002345008E1
6.176298320E-1,3.870000243E-1,4.545000076E0,8.983950615E0,1.007562223E1
6.195924420E-1,3.870000243E-1,4.584000111E0,8.983950615E0,1.009327473E1
6.215545630E-1,3.490500152E-1,4.584000111E0,8.983950615E0,1.009189088E1
6.235168280E-1,3.870000243E-1,4.584000111E0,9.060000420E0,1.016102523E1
6.254793560E-1,3.490500152E-1,4.621950150E0,8.983950615E0,1.010918532E1
6.274417830E-1,3.109500110E-1,4.584000111E0,8.983950615E0,1.009064495E1
6.294045660E-1,3.490500152E-1,4.545000076E0,9.022050858E0,1.010822750E1
6.313672450E-1,3.109500110E-1,4.584000111E0,9.022050858E0,1.012458140E1
6.333300300E-1,3.490500152E-1,4.584000111E0,9.022050858E0,1.012582316E1
6.352927830E-1,3.109500110E-1,4.584000111E0,8.983950615E0,1.009064495E1
6.372554400E-1,3.109500110E-1,4.584000111E0,8.944950104E0,1.005593751E1
6.392181120E-1,3.109500110E-1,4.545000076E0,8.983950615E0,1.007298785E1
6.411810320E-1,3.490500152E-1,4.621950150E0,8.983950615E0,1.010918532E1
6.431438790E-1,3.490500152E-1,4.584000111E0,8.944950104E0,1.005718774E1
6.451064560E-1,2.719500065E-1,4.584000111E0,8.944950104E0,1.005480712E1
6.470691120E-1,3.109500110E-1,4.584000111E0,8.907000542E0,1.002219565E1
6.490315660E-1,3.490500152E-1,4.584000111E0,8.869050026E0,9.989741803E0
6.509940930E-1,2.719500065E-1,4.584000111E0,8.944950104E0,1.005480712E1
6.529572180E-1,3.109500110E-1,4.584000111E0,8.907000542E0,1.002219565E1
6.549201680E-1,2.719500065E-1,4.621950150E0,8.944950104E0,1.007216523E1
6.568829080E-1,2.340000123E-1,4.699050426E0,8.869050026E0,1.003971510E1
6.588457090E-1,3.109500110E-1,4.584000111E0,8.869050026E0,9.988483132E0
6.608084670E-1,2.719500065E-1,4.621950150E0,8.869050026E0,1.000482026E1
6.627712420E-1,2.340000123E-1,4.660050392E0,8.907000542E0,1.005512229E1
6.647338750E-1,2.719500065E-1,4.660050392E0,8.869050026E0,1.002247848E1
6.666965500E-1,2.719500065E-1,4.621950150E0,8.944950104E0,1.007216523E1
6.686596950E-1,2.719500065E-1,4.621950150E0,8.907000542E0,1.003847790E1
6.706227020E-1,3.109500110E-1,4.621950150E0,8.907000542E0,1.003961014E1
6.725855860E-1,2.719500065E-1,4.699050426E0,8.869050026E0,1.004067130E1
6.745484920E-1,3.109500110E-1,4.621950150E0,8.869050026E0,1.000595630E1
6.765112370E-1,3.490500152E-1,4.660050392E0,8.830050468E0,9.990380215E0
6.784740300E-1,3.490500152E-1,4.621950150E0,8.830050468E0,9.972665159E0
6.804368390E-1,3.490500152E-1,4.699050426E0,8.830050468E0,1.000863138E1
6.823996440E-1,3.490500152E-1,4.621950150E0,8.830050468E0,9.972665159E0
6.843621980E-1,3.490500152E-1,4.621950150E0,8.830050468E0,9.972665159E0
6.863248150E-1,3.490500152E-1,4.584000111E0,8.869050026E0,9.989741803E0
6.882872950E-1,3.490500152E-1,4.660050392E0,8.715000153E0,9.888838821E0
6.902498150E-1,3.490500152E-1,4.660050392E0,8.791950226E0,9.956721064E0
6.922124450E-1,3.490500152E-1,4.621950150E0,8.830050468E0,9.972665159E0
6.941750430E-1,3.490500152E-1,4.621950150E0,8.830050468E0,9.972665159E0
6.961377820E-1,3.109500110E-1,4.621950150E0,8.791950226E0,9.937680910E0
6.981004900E-1,3.870000243E-1,4.621950150E0,8.754000664E0,9.906801695E0
7.000634950E-1,3.490500152E-1,4.584000111E0,8.754000664E0,9.887740922E0
7.020264130E-1,3.870000243E-1,4.660050392E0,8.791950226E0,9.958123691E0
7.039891130E-1,3.109500110E-1,4.621950150E0,8.791950226E0,9.937680910E0
7.059518770E-1,3.870000243E-1,4.621950150E0,8.791950226E0,9.940351150E0
7.079148760E-1,4.260000288E-1,4.621950150E0,8.791950226E0,9.941945885E0
7.098778030E-1,3.490500152E-1,4.621950150E0,8.791950226E0,9.938946014E0
7.118406810E-1,4.260000288E-1,4.621950150E0,8.754000664E0,9.908401830E0
7.138035740E-1,4.260000288E-1,4.660050392E0,8.791950226E0,9.959715581E0
7.157661870E-1,3.870000243E-1,4.660050392E0,8.830050468E0,9.991778118E0
7.177288820E-1,3.870000243E-1,4.660050392E0,8.791950226E0,9.958123691E0
7.196919590E-1,4.260000288E-1,4.621950150E0,8.791950226E0,9.941945885E0
7.216549370E-1,4.260000288E-1,4.621950150E0,8.754000664E0,9.908401830E0
7.236180310E-1,3.490500152E-1,4.660050392E0,8.715000153E0,9.888838821E0
7.255810910E-1,4.260000288E-1,4.621950150E0,8.791950226E0,9.941945885E0
7.275436760E-1,3.870000243E-1,4.584000111E0,8.830050468E0,9.956536411E0
7.295064010E-1,3.870000243E-1,4.621950150E0,8.791950226E0,9.940351150E0
7.314691580E-1,4.260000288E-1,4.584000111E0,8.791950226E0,9.924360020E0
7.334319190E-1,3.870000243E-1,4.584000111E0,8.754000664E0,9.889153334E0
7.353948700E-1,4.639500082E-1,4.545000076E0,8.754000664E0,9.874452032E0
7.373577650E-1,4.260000288E-1,4.621950150E0,8.791950226E0,9.941945885E0
7.393204680E-1,4.260000288E-1,4.545000076E0,8.791950226E0,9.906406538E0
7.412832280E-1,4.639500082E-1,4.545000076E0,8.754000664E0,9.874452032E0
7.432460290E-1,4.260000288E-1,4.584000111E0,8.830050468E0,9.958128555E0
7.452088280E-1,4.260000288E-1,4.545000076E0,8.754000664E0,9.872741734E0
7.471715480E-1,3.870000243E-1,4.545000076E0,8.754000664E0,9.871135818E0
7.491342910E-1,4.260000288E-1,4.584000111E0,8.791950226E0,9.924360020E0
7.510971090E-1,4.260000288E-1,4.545000076E0,8.791950226E0,9.906406538E0
7.530599050E-1,3.490500152E-1,4.584000111E0,8.754000664E0,9.887740922E0
7.550226500E-1,3.870000243E-1,4.545000076E0,8.791950226E0,9.904806080E0
7.569854250E-1,4.260000288E-1,4.584000111E0,8.791950226E0,9.924360020E0
7.589481930E-1,4.260000288E-1,4.584000111E0,8.754000664E0,9.890756324E0
7.609109630E-1,4.639500082E-1,4.621950150E0,8.754000664E0,9.910105974E0
7.628736870E-1,3.870000243E-1,4.584000111E0,8.754000664E0,9.889153334E0
7.648364250E-1,4.639500082E-1,4.584000111E0,8.791950226E0,9.926061424E0
7.667990510E-1,3.870000243E-1,4.584000111E0,8.791950226E0,9.922762458E0
7.687617190E-1,4.260000288E-1,4.584000111E0,8.754000664E0,9.890756324E0
7.707244590E-1,4.639500082E-1,4.621950150E0,8.791950226E0,9.943644280E0
7.726871780E-1,4.260000288E-1,4.545000076E0,8.791950226E0,9.906406538E0
7.746497770E-1,4.639500082E-1,4.584000111E0,8.791950226E0,9.926061424E0
7.766124110E-1,4.639500082E-1,4.545000076E0,8.754000664E0,9.874452032E0
7.785752080E-1,3.870000243E-1,4.584000111E0,8.791950226E0,9.922762458E0
7.805379530E-1,4.639500082E-1,4.584000111E0,8.791950226E0,9.926061424E0
7.825009070E-1,3.870000243E-1,4.584000111E0,8.754000664E0,9.889153334E0
7.844637990E-1,4.260000288E-1,4.584000111E0,8.754000664E0,9.890756324E0
7.864264130E-1,4.639500082E-1,4.584000111E0,8.791950226E0,9.926061424E0
7.883891080E-1,4.639500082E-1,4.584000111E0,8.754000664E0,9.892463507E0
7.903518290E-1,4.639500082E-1,4.584000111E0,8.830050468E0,9.959824190E0
7.923145530E-1,4.260000288E-1,4.621950150E0,8.791950226E0,9.941945885E0
7.942773750E-1,4.260000288E-1,4.584000111E0,8.830050468E0,9.958128555E0
7.962401680E-1,4.260000288E-1,4.584000111E0,8.754000664E0,9.890756324E0
7.982030690E-1,4.260000288E-1,4.545000076E0,8.791950226E0,9.906406538E0
8.001659380E-1,5.020500422E-1,4.621950150E0,8.791950226E0,9.945494769E0
8.021285310E-1,4.260000288E-1,4.621950150E0,8.830050468E0,9.975654890E0
8.040911900E-1,4.260000288E-1,4.584000111E0,8.830050468E0,9.958128555E0
8.060540220E-1,4.260000288E-1,4.584000111E0,8.791950226E0,9.924360020E0
8.080168040E-1,5.020500422E-1,4.584000111E0,8.869050026E0,9.996257281E0
8.099797510E-1,4.639500082E-1,4.545000076E0,8.791950226E0,9.908111025E0
8.119426500E-1,4.639500082E-1,4.584000111E0,8.830050468E0,9.959824190E0
8.139057130E-1,3.870000243E-1,4.584000111E0,8.869050026E0,9.991139795E0
8.158687270E-1,4.639500082E-1,4.584000111E0,8.869050026E0,9.994416190E0
8.178313200E-1,4.639500082E-1,4.584000111E0,8.869050026E0,9.994416190E0
8.197940370E-1,3.870000243E-1,4.584000111E0,8.869050026E0,9.991139795E0
8.217567690E-1,3.870000243E-1,4.584000111E0,8.830050468E0,9.956536411E0
8.237194960E-1,4.260000288E-1,4.584000111E0,8.830050468E0,9.958128555E0
8.256821530E-1,4.639500082E-1,4.621950150E0,8.830050468E0,9.977347547E0
8.276448200E-1,4.639500082E-1,4.584000111E0,8.830050468E0,9.959824190E0
8.296074270E-1,3.870000243E-1,4.545000076E0,8.869050026E0,9.973306527E0
8.315700510E-1,3.870000243E-1,4.545000076E0,8.869050026E0,9.973306527E0
8.335327990E-1,3.870000243E-1,4.545000076E0,8.869050026E0,9.973306527E0
8.354955100E-1,4.260000288E-1,4.584000111E0,8.869050026E0,9.992726425E0
8.374581600E-1,4.639500082E-1,4.584000111E0,8.830050468E0,9.959824190E0
8.394208250E-1,3.870000243E-1,4.545000076E0,8.907000542E0,1.000707017E1
8.413835660E-1,4.260000288E-1,4.545000076E0,8.869050026E0,9.974895993E0
8.433462840E-1,4.260000288E-1,4.545000076E0,8.907000542E0,1.000865427E1
8.453091080E-1,4.260000288E-1,4.545000076E0,8.944950104E0,1.004244164E1
8.472719000E-1,4.260000288E-1,4.584000111E0,8.907000542E0,1.002642467E1
8.492349860E-1,4.260000288E-1,4.584000111E0,8.907000542E0,1.002642467E1
8.511979820E-1,4.260000288E-1,4.584000111E0,8.907000542E0,1.002642467E1
8.531609390E-1,4.260000288E-1,4.545000076E0,8.907000542E0,1.000865427E1
8.551239070E-1,3.870000243E-1,4.584000111E0,8.907000542E0,1.002484337E1
8.570862820E-1,4.260000288E-1,4.545000076E0,8.944950104E0,1.004244164E1
8.590488300E-1,4.260000288E-1,4.545000076E0,8.944950104E0,1.004244164E1
8.610116350E-1,4.639500082E-1,4.584000111E0,8.944950104E0,1.006183080E1
8.629743650E-1,4.260000288E-1,4.584000111E0,8.944950104E0,1.006015235E1
8.649369170E-1,4.260000288E-1,4.584000111E0,8.944950104E0,1.006015235E1
8.668995210E-1,4.260000288E-1,4.584000111E0,8.983950615E0,1.009484530E1
8.688619580E-1,4.260000288E-1,4.584000111E0,8.944950104E0,1.006015235E1
8.708244440E-1,4.260000288E-1,4.584000111E0,8.944950104E0,1.006015235E1
8.727868860E-1,4.639500082E-1,4.584000111E0,8.983950615E0,1.009651798E1
8.747493520E-1,3.870000243E-1,4.584000111E0,8.944950104E0,1.005857636E1
8.767118570E-1,3.870000243E-1,4.584000111E0,8.944950104E0,1.005857636E1
8.786743500E-1,3.870000243E-1,4.621950150E0,8.944950104E0,1.007592798E1
8.806371220E-1,4.260000288E-1,4.584000111E0,8.944950104E0,1.006015235E1
8.825998120E-1,4.260000288E-1,4.584000111E0,8.944950104E0,1.006015235E1
8.845626500E-1,4.260000288E-1,4.621950150E0,8.944950104E0,1.007750126E1
8.865254370E-1,3.870000243E-1,4.621950150E0,8.944950104E0,1.007592798E1
8.884881590E-1,3.870000243E-1,4.621950150E0,8.944950104E0,1.007592798E1
8.904509010E-1,4.639500082E-1,4.584000111E0,8.907000542E0,1.002810876E1
8.924136740E-1,4.639500082E-1,4.545000076E0,8.944950104E0,1.004412304E1
8.943764370E-1,5.020500422E-1,4.584000111E0,8.907000542E0,1.002994366E1
8.963392080E-1,4.639500082E-1,4.621950150E0,8.944950104E0,1.007917681E1
8.983019760E-1,4.639500082E-1,4.507050037E0,8.907000542E0,9.993168081E0
9.002644310E-1,4.260000288E-1,4.584000111E0,8.944950104E0,1.006015235E1
9.022269780E-1,4.639500082E-1,4.584000111E0,8.907000542E0,1.002810876E1
9.041895590E-1,4.639500082E-1,4.545000076E0,8.869050026E0,9.976588779E0
9.061521300E-1,4.639500082E-1,4.545000076E0,8.869050026E0,9.976588779E0
9.081149630E-1,4.639500082E-1,4.545000076E0,8.907000542E0,1.001034135E1
9.100777300E-1,5.020500422E-1,4.545000076E0,8.907000542E0,1.001217951E1
9.120406350E-1,4.639500082E-1,4.545000076E0,8.869050026E0,9.976588779E0
9.140034990E-1,4.639500082E-1,4.507050037E0,8.907000542E0,9.993168081E0
9.159662980E-1,4.639500082E-1,4.545000076E0,8.944950104E0,1.004412304E1
9.179291170E-1,5.020500422E-1,4.545000076E0,8.869050026E0,9.978433159E0
9.198916970E-1,4.639500082E-1,4.507050037E0,8.869050026E0,9.959357309E0
9.218543470E-1,5.020500422E-1,4.545000076E0,8.869050026E0,9.978433159E0
9.238169110E-1,4.639500082E-1,4.507050037E0,8.907000542E0,9.993168081E0
9.257795010E-1,5.020500422E-1,4.545000076E0,8.907000542E0,1.001217951E1
9.277423000E-1,4.639500082E-1,4.545000076E0,8.869050026E0,9.976588779E0
9.297050380E-1,4.260000288E-1,4.545000076E0,8.869050026E0,9.974895993E0
9.316680570E-1,4.639500082E-1,4.545000076E0,8.830050468E0,9.941934750E0
9.336309800E-1,4.639500082E-1,4.545000076E0,8.869050026E0,9.976588779E0
9.355937240E-1,4.260000288E-1,4.545000076E0,8.869050026E0,9.974895993E0
9.375565200E-1,4.639500082E-1,4.507050037E0,8.830050468E0,9.924643113E0
9.395197790E-1,4.260000288E-1,4.584000111E0,8.830050468E0,9.958128555E0
9.414829030E-1,3.870000243E-1,4.584000111E0,8.830050468E0,9.956536411E0
9.434460180E-1,3.870000243E-1,4.584000111E0,8.830050468E0,9.956536411E0
9.454091360E-1,3.870000243E-1,4.621950150E0,8.830050468E0,9.974065544E0
9.473722060E-1,3.870000243E-1,4.621950150E0,8.869050026E0,1.000860832E1
9.493352900E-1,3.870000243E-1,4.621950150E0,8.830050468E0,9.974065544E0
9.512983210E-1,3.490500152E-1,4.660050392E0,8.791950226E0,9.956721064E0
9.532613670E-1,3.870000243E-1,4.621950150E0,8.907000542E0,1.004225328E1
9.552239820E-1,3.490500152E-1,4.621950150E0,8.791950226E0,9.938946014E0
9.571867030E-1,3.490500152E-1,4.660050392E0,8.754000664E0,9.923226955E0
9.591496600E-1,3.109500110E-1,4.699050426E0,8.754000664E0,9.940336636E0
9.611125470E-1,3.490500152E-1,4.699050426E0,8.791950226E0,9.975033814E0
9.630754330E-1,3.490500152E-1,4.660050392E0,8.754000664E0,9.923226955E0
9.650383190E-1,3.490500152E-1,4.660050392E0,8.754000664E0,9.923226955E0
9.670013160E-1,3.109500110E-1,4.660050392E0,8.715000153E0,9.887567306E0
9.689642640E-1,3.109500110E-1,4.621950150E0,8.715000153E0,9.869667712E0
9.709271390E-1,3.490500152E-1,4.660050392E0,8.715000153E0,9.888838821E0
9.728900350E-1,3.870000243E-1,4.699050426E0,8.715000153E0,9.908686673E0
9.748528270E-1,3.870000243E-1,4.660050392E0,8.715000153E0,9.890251075E0
9.768156500E-1,3.870000243E-1,4.660050392E0,8.754000664E0,9.924634316E0
9.787785500E-1,3.870000243E-1,4.621950150E0,8.715000153E0,9.872356348E0
9.807414230E-1,3.870000243E-1,4.660050392E0,8.715000153E0,9.890251075E0
9.827041750E-1,4.260000288E-1,4.621950150E0,8.715000153E0,9.873962065E0
9.846669630E-1,3.490500152E-1,4.621950150E0,8.715000153E0,9.870941533E0
9.866295940E-1,4.639500082E-1,4.621950150E0,8.677050591E0,9.842198928E0
9.885922710E-1,3.870000243E-1,4.621950150E0,8.715000153E0,9.872356348E0
9.905552450E-1,3.870000243E-1,4.584000111E0,8.715000153E0,9.854646300E0
9.925181250E-1,3.490500152E-1,4.621950150E0,8.715000153E0,9.870941533E0
9.944810100E-1,4.260000288E-1,4.584000111E0,8.677050591E0,9.822715510E0
9.964438940E-1,3.490500152E-1,4.621950150E0,8.715000153E0,9.870941533E0
9.984068690E-1,3.870000243E-1,4.621950150E0,8.715000153E0,9.872356348E0
1.000369817E0,4.260000288E-1,4.621950150E0,8.791950226E0,9.941945885E0
1.002332920E0,3.870000243E-1,4.621950150E0,8.791950226E0,9.940351150E0
1.004295975E0,3.870000243E-1,4.660050392E0,8.830050468E0,9.991778118E0
1.006259056E0,3.870000243E-1,4.660050392E0,8.791950226E0,9.958123691E0
1.008222129E0,3.490500152E-1,4.621950150E0,8.754000664E0,9.905391800E0
1.010185207E0,4.260000288E-1,4.584000111E0,8.754000664E0,9.890756324E0
1.012148283E0,3.870000243E-1,4.660050392E0,8.791950226E0,9.958123691E0
1.014111331E0,3.870000243E-1,4.621950150E0,8.830050468E0,9.974065544E0
1.016074377E0,3.490500152E-1,4.660050392E0,8.830050468E0,9.990380215E0
1.018037098E0,3.870000243E-1,4.621950150E0,8.830050468E0,9.974065544E0
1.019999915E0,3.490500152E-1,4.660050392E0,8.791950226E0,9.956721064E0
1.021962721E0,3.490500152E-1,4.660050392E0,8.791950226E0,9.956721064E0
1.023925531E0,3.109500110E-1,4.660050392E0,8.754000664E0,9.921959846E0
1.025888288E0,3.109500110E-1,4.660050392E0,8.754000664E0,9.921959846E0
1.027851064E0,3.490500152E-1,4.660050392E0,8.791950226E0,9.956721064E0
1.029813966E0,3.490500152E-1,4.621950150E0,8.830050468E0,9.972665159E0
1.031776831E0,3.109500110E-1,4.621950150E0,8.791950226E0,9.937680910E0
1.033739405E0,3.109500110E-1,4.660050392E0,8.830050468E0,9.989121625E0
1.035702064E0,3.109500110E-1,4.699050426E0,8.830050468E0,1.000737509E1
1.037664717E0,3.109500110E-1,4.621950150E0,8.830050468E0,9.971404333E0
1.039627372E0,3.109500110E-1,4.621950150E0,8.830050468E0,9.971404333E0
1.041589936E0,3.870000243E-1,4.660050392E0,8.830050468E0,9.991778118E0
1.043552526E0,3.490500152E-1,4.660050392E0,8.869050026E0,1.002486678E1
1.045515189E0,3.109500110E-1,4.621950150E0,8.869050026E0,1.000595630E1
1.047477831E0,3.870000243E-1,4.584000111E0,8.907000542E0,1.002484337E1
1.049440457E0,3.870000243E-1,4.660050392E0,8.907000542E0,1.005984579E1
1.051403078E0,3.490500152E-1,4.584000111E0,8.869050026E0,9.989741803E0
1.053365692E0,4.260000288E-1,4.621950150E0,8.907000542E0,1.004383183E1
1.055328309E0,4.639500082E-1,4.584000111E0,8.944950104E0,1.006183080E1
1.057290924E0,3.870000243E-1,4.507050037E0,8.983950615E0,1.005856042E1
1.059253540E0,4.260000288E-1,4.584000111E0,8.983950615E0,1.009484530E1
1.061215980E0,4.260000288E-1,4.507050037E0,8.907000542E0,9.991478105E0
1.063178468E0,4.639500082E-1,4.545000076E0,8.944950104E0,1.004412304E1
1.065141239E0,4.260000288E-1,4.545000076E0,8.944950104E0,1.004244164E1
1.067103927E0,4.639500082E-1,4.545000076E0,8.944950104E0,1.004412304E1
1.069066891E0,4.639500082E-1,4.507050037E0,8.944950104E0,1.002700763E1
1.071029774E0,3.870000243E-1,4.468950272E0,8.944950104E0,1.000666867E1
1.072992233E0,4.639500082E-1,4.507050037E0,8.907000542E0,9.993168081E0
1.074954800E0,4.260000288E-1,4.507050037E0,8.983950615E0,1.006013642E1
1.076917422E0,4.639500082E-1,4.507050037E0,8.907000542E0,9.993168081E0
1.078880028E0,4.260000288E-1,4.507050037E0,8.907000542E0,9.991478105E0
1.080842645E0,4.639500082E-1,4.507050037E0,8.907000542E0,9.993168081E0
1.082805259E0,4.639500082E-1,4.545000076E0,8.944950104E0,1.004412304E1
1.084767890E0,5.020500422E-1,4.507050037E0,8.907000542E0,9.995009401E0
1.086730505E0,4.260000288E-1,4.468950272E0,8.907000542E0,9.974349663E0
1.088693121E0,3.870000243E-1,4.507050037E0,8.907000542E0,9.989891276E0
1.090655736E0,4.639500082E-1,4.468950272E0,8.869050026E0,9.942173530E0
1.092618486E0,4.260000288E-1,4.545000076E0,8.869050026E0,9.974895993E0
1.094581197E0,4.260000288E-1,4.545000076E0,8.944950104E0,1.004244164E1
1.096543842E0,4.639500082E-1,4.507050037E0,8.944950104E0,1.002700763E1
1.098506507E0,4.639500082E-1,4.507050037E0,8.830050468E0,9.924643113E0
1.100469293E0,4.639500082E-1,4.545000076E0,8.907000542E0,1.001034135E1
1.102432043E0,4.639500082E-1,4.507050037E0,8.869050026E0,9.959357309E0
1.104394637E0,3.870000243E-1,4.507050037E0,8.907000542E0,9.989891276E0
1.106357276E0,4.639500082E-1,4.507050037E0,8.907000542E0,9.993168081E0
1.108319877E0,4.639500082E-1,4.507050037E0,8.869050026E0,9.959357309E0
1.110282497E0,3.870000243E-1,4.545000076E0,8.869050026E0,9.973306527E0
1.112245290E0,4.260000288E-1,4.545000076E0,8.869050026E0,9.974895993E0
1.114208033E0,4.639500082E-1,4.545000076E0,8.907000542E0,1.001034135E1
1.116171167E0,4.639500082E-1,4.584000111E0,8.869050026E0,9.994416190E0
1.118134187E0,4.639500082E-1,4.545000076E0,8.869050026E0,9.976588779E0
1.120096729E0,3.870000243E-1,4.621950150E0,8.907000542E0,1.004225328E1
1.122059415E0,4.260000288E-1,4.584000111E0,8.907000542E0,1.002642467E1
1.124021973E0,3.490500152E-1,4.584000111E0,8.869050026E0,9.989741803E0
1.125984569E0,3.490500152E-1,4.584000111E0,8.869050026E0,9.989741803E0
1.127946872E0,4.260000288E-1,4.584000111E0,8.830050468E0,9.958128555E0
1.129909261E0,4.260000288E-1,4.584000111E0,8.869050026E0,9.992726425E0
1.131871855E0,3.490500152E-1,4.584000111E0,8.907000542E0,1.002345008E1
1.133834399E0,3.490500152E-1,4.584000111E0,8.869050026E0,9.989741803E0
1.135796847E0,3.870000243E-1,4.584000111E0,8.869050026E0,9.991139795E0
1.137759324E0,3.870000243E-1,4.621950150E0,8.869050026E0,1.000860832E1
1.139721962E0,4.260000288E-1,4.621950150E0,8.830050468E0,9.975654890E0
1.141684553E0,4.260000288E-1,4.660050392E0,8.869050026E0,1.002784095E1
1.143647148E0,3.870000243E-1,4.621950150E0,8.869050026E0,1.000860832E1
1.145609759E0,4.260000288E-1,4.621950150E0,8.907000542E0,1.004383183E1
1.147572375E0,4.260000288E-1,4.584000111E0,8.907000542E0,1.002642467E1
1.149534989E0,3.870000243E-1,4.621950150E0,8.907000542E0,1.004225328E1
1.151497291E0,3.870000243E-1,4.621950150E0,8.869050026E0,1.000860832E1
1.153459684E0,4.260000288E-1,4.621950150E0,8.907000542E0,1.004383183E1
1.155422287E0,3.870000243E-1,4.584000111E0,8.869050026E0,9.991139795E0
1.157384832E0,3.870000243E-1,4.621950150E0,8.907000542E0,1.004225328E1
1.159347325E0,4.260000288E-1,4.584000111E0,8.944950104E0,1.006015235E1
1.161309834E0,3.870000243E-1,4.621950150E0,8.907000542E0,1.004225328E1
1.163272466E0,3.870000243E-1,4.584000111E0,8.944950104E0,1.005857636E1
1.165235062E0,3.870000243E-1,4.621950150E0,8.907000542E0,1.004225328E1
1.167197492E0,3.870000243E-1,4.621950150E0,8.907000542E0,1.004225328E1
1.169159978E0,3.490500152E-1,4.660050392E0,8.907000542E0,1.005845735E1
1.171122749E0,3.490500152E-1,4.621950150E0,8.907000542E0,1.004086240E1
1.173085437E0,3.490500152E-1,4.584000111E0,8.907000542E0,1.002345008E1
1.175048086E0,3.490500152E-1,4.660050392E0,8.869050026E0,1.002486678E1
1.177010747E0,3.490500152E-1,4.621950150E0,8.869050026E0,1.000721277E1
1.178973655E0,3.870000243E-1,4.621950150E0,8.907000542E0,1.004225328E1
1.180936500E0,3.490500152E-1,4.660050392E0,8.907000542E0,1.005845735E1
1.182899122E0,3.870000243E-1,4.621950150E0,8.869050026E0,1.000860832E1
1.184861810E0,3.490500152E-1,4.584000111E0,8.907000542E0,1.002345008E1
1.186824727E0,3.870000243E-1,4.621950150E0,8.907000542E0,1.004225328E1
1.188787577E0,3.490500152E-1,4.621950150E0,8.869050026E0,1.000721277E1
1.190750333E0,3.870000243E-1,4.660050392E0,8.869050026E0,1.002625987E1
1.192713117E0,3.490500152E-1,4.660050392E0,8.830050468E0,9.990380215E0
1.194675884E0,3.490500152E-1,4.621950150E0,8.869050026E0,1.000721277E1
1.196638656E0,3.490500152E-1,4.660050392E0,8.830050468E0,9.990380215E0
1.198601469E0,4.260000288E-1,4.660050392E0,8.791950226E0,9.959715581E0
1.200564269E0,3.490500152E-1,4.660050392E0,8.791950226E0,9.956721064E0
1.202527198E0,3.490500152E-1,4.621950150E0,8.791950226E0,9.938946014E0
1.204490100E0,3.870000243E-1,4.660050392E0,8.830050468E0,9.991778118E0
1.206453027E0,3.490500152E-1,4.621950150E0,8.754000664E0,9.905391800E0
1.208415947E0,3.490500152E-1,4.660050392E0,8.715000153E0,9.888838821E0
1.210378826E0,3.109500110E-1,4.660050392E0,8.791950226E0,9.955458218E0
1.212341718E0,3.490500152E-1,4.660050392E0,8.754000664E0,9.923226955E0
1.214304291E0,3.870000243E-1,4.660050392E0,8.791950226E0,9.958123691E0
1.216266954E0,3.109500110E-1,4.660050392E0,8.791950226E0,9.955458218E0
1.218229740E0,3.870000243E-1,4.660050392E0,8.754000664E0,9.924634316E0
1.220192490E0,3.870000243E-1,4.660050392E0,8.754000664E0,9.924634316E0
1.222154768E0,3.870000243E-1,4.699050426E0,8.791950226E0,9.976433867E0
1.224117184E0,3.490500152E-1,4.660050392E0,8.715000153E0,9.888838821E0
1.226079968E0,3.490500152E-1,4.660050392E0,8.754000664E0,9.923226955E0
1.228042644E0,3.870000243E-1,4.699050426E0,8.715000153E0,9.908686673E0
1.230005295E0,3.490500152E-1,4.660050392E0,8.715000153E0,9.888838821E0
1.231967954E0,3.870000243E-1,4.621950150E0,8.754000664E0,9.906801695E0
1.233930382E0,3.870000243E-1,4.621950150E0,8.754000664E0,9.906801695E0
1.235892877E0,3.870000243E-1,4.621950150E0,8.715000153E0,9.872356348E0
1.237855857E0,3.490500152E-1,4.660050392E0,8.754000664E0,9.923226955E0
1.239818706E0,3.490500152E-1,4.660050392E0,8.754000664E0,9.923226955E0
1.241781417E0,3.490500152E-1,4.584000111E0,8.754000664E0,9.887740922E0
1.243744169E0,3.490500152E-1,4.584000111E0,8.791950226E0,9.921354832E0
1.245706761E0,4.260000288E-1,4.621950150E0,8.754000664E0,9.908401830E0
1.247669400E0,4.260000288E-1,4.545000076E0,8.791950226E0,9.906406538E0
1.249632227E0,3.870000243E-1,4.584000111E0,8.791950226E0,9.922762458E0
1.251595005E0,3.870000243E-1,4.545000076E0,8.791950226E0,9.904806080E0
1.253557368E0,3.870000243E-1,4.584000111E0,8.830050468E0,9.956536411E0
1.255519853E0,3.870000243E-1,4.621950150E0,8.830050468E0,9.974065544E0
1.257482354E0,4.260000288E-1,4.584000111E0,8.791950226E0,9.924360020E0
1.259444851E0,4.260000288E-1,4.545000076E0,8.830050468E0,9.940236063E0
1.261407427E0,4.639500082E-1,4.584000111E0,8.830050468E0,9.959824190E0
1.263369990E0,4.260000288E-1,4.545000076E0,8.791950226E0,9.906406538E0
1.265332435E0,4.639500082E-1,4.545000076E0,8.830050468E0,9.941934750E0
1.267294915E0,4.639500082E-1,4.545000076E0,8.830050468E0,9.941934750E0
1.269257732E0,4.639500082E-1,4.545000076E0,8.830050468E0,9.941934750E0
1.271220451E0,4.639500082E-1,4.545000076E0,8.830050468E0,9.941934750E0
1.273183390E0,3.870000243E-1,4.545000076E0,8.869050026E0,9.973306527E0
1.275146278E0,4.260000288E-1,4.621950150E0,8.791950226E0,9.941945885E0
1.277109208E0,4.260000288E-1,4.545000076E0,8.791950226E0,9.906406538E0
1.279072125E0,4.639500082E-1,4.584000111E0,8.791950226E0,9.926061424E0
1.281034915E0,3.870000243E-1,4.584000111E0,8.830050468E0,9.956536411E0
1.282997742E0,4.260000288E-1,4.545000076E0,8.791950226E0,9.906406538E0
1.284960281E0,4.639500082E-1,4.545000076E0,8.830050468E0,9.941934750E0
1.286922901E0,4.260000288E-1,4.545000076E0,8.791950226E0,9.906406538E0
1.288885694E0,3.870000243E-1,4.584000111E0,8.869050026E0,9.991139795E0
1.290848437E0,4.260000288E-1,4.621950150E0,8.791950226E0,9.941945885E0
1.292810896E0,4.639500082E-1,4.621950150E0,8.830050468E0,9.977347547E0
1.294773439E0,4.260000288E-1,4.584000111E0,8.869050026E0,9.992726425E0
1.296736566E0,4.260000288E-1,4.584000111E0,8.830050468E0,9.958128555E0
1.298699519E0,4.639500082E-1,4.584000111E0,8.830050468E0,9.959824190E0
1.300662303E0,4.260000288E-1,4.584000111E0,8.869050026E0,9.992726425E0
1.302625137E0,4.260000288E-1,4.584000111E0,8.830050468E0,9.958128555E0
1.304588074E0,4.639500082E-1,4.621950150E0,8.830050468E0,9.977347547E0
1.306550981E0,3.870000243E-1,4.584000111E0,8.830050468E0,9.956536411E0
1.308514013E0,4.639500082E-1,4.660050392E0,8.869050026E0,1.002952480E1
1.310477029E0,4.639500082E-1,4.584000111E0,8.830050468E0,9.959824190E0
1.312439982E0,3.870000243E-1,4.660050392E0,8.830050468E0,9.991778118E0
1.314402954E0,3.490500152E-1,4.660050392E0,8.830050468E0,9.990380215E0
1.316366048E0,4.260000288E-1,4.660050392E0,8.907000542E0,1.006142159E1
1.318329106E0,3.870000243E-1,4.621950150E0,8.869050026E0,1.000860832E1
1.320291997E0,4.260000288E-1,4.621950150E0,8.869050026E0,1.001019218E1
1.322254944E0,4.260000288E-1,4.621950150E0,8.907000542E0,1.004383183E1
1.324217863E0,3.490500152E-1,4.621950150E0,8.869050026E0,1.000721277E1
1.326180790E0,3.870000243E-1,4.621950150E0,8.869050026E0,1.000860832E1
1.328143352E0,4.260000288E-1,4.621950150E0,8.869050026E0,1.001019218E1
1.330106021E0,3.870000243E-1,4.584000111E0,8.869050026E0,9.991139795E0
1.332068766E0,3.870000243E-1,4.545000076E0,8.869050026E0,9.973306527E0
1.334031485E0,4.260000288E-1,4.584000111E0,8.907000542E0,1.002642467E1
1.335994443E0,3.870000243E-1,4.584000111E0,8.944950104E0,1.005857636E1
1.337957331E0,4.260000288E-1,4.584000111E0,8.869050026E0,9.992726425E0
1.339920081E0,4.639500082E-1,4.545000076E0,8.907000542E0,1.001034135E1
1.341882872E0,3.870000243E-1,4.545000076E0,8.869050026E0,9.973306527E0
1.343845876E0,3.870000243E-1,4.545000076E0,8.869050026E0,9.973306527E0
1.345808807E0,4.260000288E-1,4.545000076E0,8.944950104E0,1.004244164E1
1.347771550E0,3.870000243E-1,4.545000076E0,8.907000542E0,1.000707017E1
1.349734348E0,4.639500082E-1,4.584000111E0,8.907000542E0,1.002810876E1
1.351697112E0,4.639500082E-1,4.545000076E0,8.944950104E0,1.004412304E1
1.353659886E0,4.639500082E-1,4.507050037E0,8.907000542E0,9.993168081E0
1.355622807E0,4.639500082E-1,4.545000076E0,8.907000542E0,1.001034135E1
1.357585672E0,3.870000243E-1,4.545000076E0,8.907000542E0,1.000707017E1
1.359548291E0,4.260000288E-1,4.507050037E0,8.869050026E0,9.957661594E0
1.361510982E0,4.260000288E-1,4.584000111E0,8.907000542E0,1.002642467E1
1.363473899E0,4.639500082E-1,4.584000111E0,8.907000542E0,1.002810876E1
1.365436749E0,4.639500082E-1,4.545000076E0,8.869050026E0,9.976588779E0
1.367399726E0,5.020500422E-1,4.545000076E0,8.869050026E0,9.978433159E0
1.369362668E0,4.639500082E-1,4.545000076E0,8.869050026E0,9.976588779E0
1.371325544E0,4.260000288E-1,4.584000111E0,8.869050026E0,9.992726425E0
1.373288439E0,3.490500152E-1,4.507050037E0,8.907000542E0,9.988493110E0
1.375251591E0,4.260000288E-1,4.584000111E0,8.869050026E0,9.992726425E0
1.377214668E0,4.260000288E-1,4.507050037E0,8.830050468E0,9.922941466E0
1.379177357E0,4.260000288E-1,4.507050037E0,8.830050468E0,9.922941466E0
1.381140180E0,4.260000288E-1,4.507050037E0,8.944950104E0,1.002532336E1
1.383102940E0,4.639500082E-1,4.545000076E0,8.830050468E0,9.941934750E0
1.385065718E0,4.639500082E-1,4.545000076E0,8.830050468E0,9.941934750E0
1.387028665E0,4.260000288E-1,4.545000076E0,8.830050468E0,9.940236063E0
1.388991562E0,5.020500422E-1,4.545000076E0,8.830050468E0,9.943785558E0
1.390954461E0,3.870000243E-1,4.545000076E0,8.869050026E0,9.973306527E0
1.392917380E0,4.639500082E-1,4.545000076E0,8.869050026E0,9.976588779E0
1.394880484E0,4.260000288E-1,4.545000076E0,8.869050026E0,9.974895993E0
1.396843533E0,4.639500082E-1,4.545000076E0,8.830050468E0,9.941934750E0
1.398806391E0,4.639500082E-1,4.545000076E0,8.907000542E0,1.001034135E1
1.400769305E0,4.639500082E-1,4.584000111E0,8.869050026E0,9.994416190E0
1.402732213E0,4.260000288E-1,4.545000076E0,8.869050026E0,9.974895993E0
1.404695134E0,4.639500082E-1,4.584000111E0,8.830050468E0,9.959824190E0
1.406657878E0,4.639500082E-1,4.545000076E0,8.830050468E0,9.941934750E0
1.408620674E0,4.639500082E-1,4.584000111E0,8.869050026E0,9.994416190E0
1.410583663E0,3.870000243E-1,4.621950150E0,8.907000542E0,1.004225328E1
1.412546595E0,4.639500082E-1,4.545000076E0,8.869050026E0,9.976588779E0
1.414509643E0,4.260000288E-1,4.584000111E0,8.869050026E0,9.992726425E0
1.416472663E0,4.260000288E-1,4.621950150E0,8.830050468E0,9.975654890E0
1.418435255E0,4.639500082E-1,4.621950150E0,8.869050026E0,1.001187900E1
1.420397973E0,3.870000243E-1,4.545000076E0,8.869050026E0,9.973306527E0
1.422360705E0,3.870000243E-1,4.621950150E0,8.830050468E0,9.974065544E0
1.424323433E0,3.870000243E-1,4.584000111E0,8.830050468E0,9.956536411E0
1.426286030E0,3.870000243E-1,4.621950150E0,8.830050468E0,9.974065544E0
1.428248665E0,3.870000243E-1,4.584000111E0,8.830050468E0,9.956536411E0
1.430211277E0,3.490500152E-1,4.660050392E0,8.830050468E0,9.990380215E0
1.432173896E0,3.109500110E-1,4.660050392E0,8.830050468E0,9.989121625E0
1.434136735E0,3.870000243E-1,4.621950150E0,8.830050468E0,9.974065544E0
1.436099509E0,3.870000243E-1,4.660050392E0,8.830050468E0,9.991778118E0
1.438062304E0,3.109500110E-1,4.621950150E0,8.754000664E0,9.904122410E0
1.440025075E0,3.490500152E-1,4.660050392E0,8.830050468E0,9.990380215E0
1.441988158E0,3.490500152E-1,4.660050392E0,8.791950226E0,9.956721064E0
1.443951150E0,3.490500152E-1,4.621950150E0,8.830050468E0,9.972665159E0
1.445913927E0,3.870000243E-1,4.660050392E0,8.754000664E0,9.924634316E0
1.447876767E0,3.490500152E-1,4.660050392E0,8.791950226E0,9.956721064E0
1.449839649E0,3.490500152E-1,4.699050426E0,8.791950226E0,9.975033814E0
1.451802525E0,3.870000243E-1,4.660050392E0,8.791950226E0,9.958123691E0
1.453765456E0,3.490500152E-1,4.660050392E0,8.869050026E0,1.002486678E1
1.455728371E0,3.109500110E-1,4.699050426E0,8.791950226E0,9.973773288E0
1.457691161E0,3.870000243E-1,4.699050426E0,8.830050468E0,1.001002673E1
1.459653988E0,4.260000288E-1,4.621950150E0,8.791950226E0,9.941945885E0
1.461617228E0,3.870000243E-1,4.660050392E0,8.791950226E0,9.958123691E0
1.463580357E0,3.490500152E-1,4.660050392E0,8.791950226E0,9.956721064E0
1.465543110E0,3.870000243E-1,4.660050392E0,8.791950226E0,9.958123691E0
1.467505974E0,4.260000288E-1,4.660050392E0,8.791950226E0,9.959715581E0
1.469468727E0,3.870000243E-1,4.660050392E0,8.754000664E0,9.924634316E0
1.471431513E0,3.870000243E-1,4.699050426E0,8.791950226E0,9.976433867E0
1.473394448E0,4.260000288E-1,4.621950150E0,8.830050468E0,9.975654890E0
1.475357347E0,3.870000243E-1,4.621950150E0,8.830050468E0,9.974065544E0
1.477320274E0,4.260000288E-1,4.660050392E0,8.830050468E0,9.993364646E0
1.479283193E0,4.260000288E-1,4.621950150E0,8.791950226E0,9.941945885E0
1.481245937E0,3.870000243E-1,4.621950150E0,8.830050468E0,9.974065544E0
1.483208733E0,3.870000243E-1,4.660050392E0,8.869050026E0,1.002625987E1
1.485171331E0,3.870000243E-1,4.699050426E0,8.830050468E0,1.001002673E1
1.487133978E0,3.490500152E-1,4.660050392E0,8.791950226E0,9.956721064E0
1.489096543E0,3.490500152E-1,4.621950150E0,8.830050468E0,9.972665159E0
1.491059132E0,4.260000288E-1,4.660050392E0,8.791950226E0,9.959715581E0
1.493021796E0,3.870000243E-1,4.660050392E0,8.907000542E0,1.005984579E1
1.494984438E0,3.870000243E-1,4.621950150E0,8.830050468E0,9.974065544E0
1.496947393E0,3.490500152E-1,4.621950150E0,8.791950226E0,9.938946014E0
1.498910236E0,4.260000288E-1,4.621950150E0,8.754000664E0,9.908401830E0
1.500873353E0,3.870000243E-1,4.621950150E0,8.791950226E0,9.940351150E0
1.502836390E0,3.870000243E-1,4.584000111E0,8.830050468E0,9.956536411E0
1.504799159E0,3.870000243E-1,4.584000111E0,8.830050468E0,9.956536411E0
1.506762007E0,3.870000243E-1,4.621950150E0,8.791950226E0,9.940351150E0
1.508724921E0,3.490500152E-1,4.621950150E0,8.791950226E0,9.938946014E0
1.510687798E0,3.870000243E-1,4.621950150E0,8.791950226E0,9.940351150E0
1.512650415E0,3.870000243E-1,4.584000111E0,8.869050026E0,9.991139795E0
1.514613108E0,3.870000243E-1,4.584000111E0,8.754000664E0,9.889153334E0
1.516576024E0,3.870000243E-1,4.584000111E0,8.754000664E0,9.889153334E0
1.518538875E0,4.260000288E-1,4.584000111E0,8.830050468E0,9.958128555E0
1.520501696E0,4.260000288E-1,4.584000111E0,8.791950226E0,9.924360020E0
1.522464512E0,4.260000288E-1,4.584000111E0,8.830050468E0,9.958128555E0
1.524427228E0,3.490500152E-1,4.545000076E0,8.791950226E0,9.903395901E0
1.526389973E0,4.260000288E-1,4.545000076E0,8.830050468E0,9.940236063E0
1.528352925E0,3.490500152E-1,4.584000111E0,8.869050026E0,9.989741803E0
1.530315817E0,3.870000243E-1,4.584000111E0,8.830050468E0,9.956536411E0
1.532278372E0,3.490500152E-1,4.621950150E0,8.869050026E0,1.000721277E1
1.534241036E0,3.870000243E-1,4.584000111E0,8.869050026E0,9.991139795E0
1.536203688E0,4.260000288E-1,4.584000111E0,8.869050026E0,9.992726425E0
1.538166344E0,3.870000243E-1,4.584000111E0,8.830050468E0,9.956536411E0
1.540129267E0,3.490500152E-1,4.584000111E0,8.830050468E0,9.955133560E0
1.542092111E0,3.870000243E-1,4.584000111E0,8.869050026E0,9.991139795E0
1.544054895E0,4.260000288E-1,4.584000111E0,8.869050026E0,9.992726425E0
1.546017710E0,3.490500152E-1,4.621950150E0,8.907000542E0,1.004086240E1
1.547980291E0,3.490500152E-1,4.660050392E0,8.869050026E0,1.002486678E1
1.549942940E0,3.490500152E-1,4.621950150E0,8.869050026E0,1.000721277E1
1.551905505E0,3.870000243E-1,4.584000111E0,8.869050026E0,9.991139795E0
1.553868094E0,3.870000243E-1,4.621950150E0,8.907000542E0,1.004225328E1
1.555831097E0,4.260000288E-1,4.621950150E0,8.830050468E0,9.975654890E0
1.557793962E0,3.490500152E-1,4.621950150E0,8.791950226E0,9.938946014E0
1.559756536E0,3.490500152E-1,4.584000111E0,8.791950226E0,9.921354832E0
1.561719195E0,3.870000243E-1,4.621950150E0,8.869050026E0,1.000860832E1
1.563681487E0,3.870000243E-1,4.660050392E0,8.830050468E0,9.991778118E0
1.565643887E0,4.260000288E-1,4.660050392E0,8.830050468E0,9.993364646E0
1.567606873E0,4.260000288E-1,4.621950150E0,8.830050468E0,9.975654890E0
1.569569674E0,4.260000288E-1,4.621950150E0,8.830050468E0,9.975654890E0
1.571532303E0,4.260000288E-1,4.621950150E0,8.869050026E0,1.001019218E1
1.573494983E0,3.870000243E-1,4.621950150E0,8.869050026E0,1.000860832E1
1.575457767E0,3.870000243E-1,4.660050392E0,8.869050026E0,1.002625987E1
1.577420520E0,3.870000243E-1,4.584000111E0,8.869050026E0,9.991139795E0
1.579383277E0,3.870000243E-1,4.621950150E0,8.907000542E0,1.004225328E1
1.581346012E0,4.260000288E-1,4.660050392E0,8.907000542E0,1.006142159E1
1.583308472E0,3.870000243E-1,4.621950150E0,8.907000542E0,1.004225328E1
1.585271012E0,3.870000243E-1,4.621950150E0,8.907000542E0,1.004225328E1
1.587233955E0,4.260000288E-1,4.621950150E0,8.869050026E0,1.001019218E1
1.589196780E0,3.870000243E-1,4.621950150E0,8.869050026E0,1.000860832E1
1.591159194E0,4.260000288E-1,4.584000111E0,8.830050468E0,9.958128555E0
1.593121719E0,3.490500152E-1,4.621950150E0,8.869050026E0,1.000721277E1
1.595084349E0,4.260000288E-1,4.621950150E0,8.869050026E0,1.001019218E1
1.597046948E0,4.260000288E-1,4.584000111E0,8.907000542E0,1.002642467E1
1.599009432E0,3.870000243E-1,4.584000111E0,8.907000542E0,1.002484337E1
1.600971950E0,3.870000243E-1,4.584000111E0,8.830050468E0,9.956536411E0
1.602934545E0,3.870000243E-1,4.621950150E0,8.869050026E0,1.000860832E1
1.604897111E0,3.490500152E-1,4.584000111E0,8.869050026E0,9.989741803E0
1.606859780E0,4.260000288E-1,4.584000111E0,8.907000542E0,1.002642467E1
1.608822419E0,4.260000288E-1,4.584000111E0,8.907000542E0,1.002642467E1
1.610784671E0,4.260000288E-1,4.545000076E0,8.907000542E0,1.000865427E1
1.612747037E0,4.639500082E-1,4.545000076E0,8.869050026E0,9.976588779E0
1.614709509E0,4.260000288E-1,4.584000111E0,8.944950104E0,1.006015235E1
1.616671953E0,4.260000288E-1,4.584000111E0,8.907000542E0,1.002642467E1
1.618634373E0,4.260000288E-1,4.545000076E0,8.944950104E0,1.004244164E1
1.620596801E0,4.639500082E-1,4.584000111E0,8.944950104E0,1.006183080E1
1.622559088E0,5.020500422E-1,4.545000076E0,8.907000542E0,1.001217951E1
1.624521416E0,4.639500082E-1,4.545000076E0,8.907000542E0,1.001034135E1
1.626483859E0,4.639500082E-1,4.507050037E0,8.944950104E0,1.002700763E1
1.628446297E0,5.410500169E-1,4.545000076E0,8.944950104E0,1.004797956E1
1.630408808E0,4.639500082E-1,4.584000111E0,8.907000542E0,1.002810876E1
1.632371297E0,4.639500082E-1,4.545000076E0,8.944950104E0,1.004412304E1
1.634333889E0,4.260000288E-1,4.545000076E0,8.869050026E0,9.974895993E0
1.636296451E0,4.639500082E-1,4.545000076E0,8.869050026E0,9.976588779E0
1.638259266E0,4.260000288E-1,4.584000111E0,8.907000542E0,1.002642467E1
1.640222000E0,4.639500082E-1,4.545000076E0,8.907000542E0,1.001034135E1
1.642184235E0,5.020500422E-1,4.545000076E0,8.869050026E0,9.978433159E0
1.644146617E0,4.639500082E-1,4.545000076E0,8.907000542E0,1.001034135E1
1.646109271E0,4.260000288E-1,4.584000111E0,8.869050026E0,9.992726425E0
1.648071846E0,4.639500082E-1,4.545000076E0,8.869050026E0,9.976588779E0
1.650034348E0,4.639500082E-1,4.621950150E0,8.791950226E0,9.943644280E0
1.651996862E0,4.260000288E-1,4.545000076E0,8.869050026E0,9.974895993E0
1.653959494E0,4.260000288E-1,4.545000076E0,8.791950226E0,9.906406538E0
1.655922091E0,4.260000288E-1,4.621950150E0,8.791950226E0,9.941945885E0
1.657884844E0,4.639500082E-1,4.584000111E0,8.830050468E0,9.959824190E0
1.659847552E0,4.639500082E-1,4.545000076E0,8.830050468E0,9.941934750E0
1.661810352E0,5.020500422E-1,4.584000111E0,8.791950226E0,9.927915191E0
1.663773111E0,4.639500082E-1,4.621950150E0,8.830050468E0,9.977347547E0
1.665735747E0,4.639500082E-1,4.621950150E0,8.791950226E0,9.943644280E0
1.667698420E0,4.260000288E-1,4.584000111E0,8.830050468E0,9.958128555E0
1.669661160E0,4.639500082E-1,4.584000111E0,8.869050026E0,9.994416190E0
1.671623880E0,5.020500422E-1,4.584000111E0,8.869050026E0,9.996257281E0
1.673586833E0,3.870000243E-1,4.621950150E0,8.830050468E0,9.974065544E0
1.675549721E0,3.870000243E-1,4.621950150E0,8.830050468E0,9.974065544E0
1.677512516E0,5.410500169E-1,4.621950150E0,8.869050026E0,1.001574793E1
1.679475338E0,4.260000288E-1,4.621950150E0,8.869050026E0,1.001019218E1
1.681438098E0,4.639500082E-1,4.621950150E0,8.907000542E0,1.004551300E1
1.683400877E0,4.639500082E-1,4.621950150E0,8.869050026E0,1.001187900E1
1.685363964E0,4.639500082E-1,4.584000111E0,8.830050468E0,9.959824190E0
1.687326957E0,3.870000243E-1,4.621950150E0,8.869050026E0,1.000860832E1
1.689289553E0,4.639500082E-1,4.621950150E0,8.830050468E0,9.977347547E0
1.691252266E0,4.260000288E-1,4.584000111E0,8.791950226E0,9.924360020E0
1.693214999E0,3.870000243E-1,4.584000111E0,8.830050468E0,9.956536411E0
1.695177726E0,3.870000243E-1,4.660050392E0,8.791950226E0,9.958123691E0
1.697140373E0,4.260000288E-1,4.621950150E0,8.830050468E0,9.975654890E0
1.699103040E0,4.260000288E-1,4.621950150E0,8.754000664E0,9.908401830E0
1.701065647E0,3.870000243E-1,4.621950150E0,8.754000664E0,9.906801695E0
1.703028271E0,3.490500152E-1,4.660050392E0,8.791950226E0,9.956721064E0
1.704990884E0,3.109500110E-1,4.660050392E0,8.715000153E0,9.887567306E0
1.706953501E0,3.109500110E-1,4.621950150E0,8.715000153E0,9.869667712E0
1.708916086E0,3.109500110E-1,4.621950150E0,8.754000664E0,9.904122410E0
1.710878670E0,3.109500110E-1,4.660050392E0,8.754000664E0,9.921959846E0
1.712841156E0,3.490500152E-1,4.660050392E0,8.754000664E0,9.923226955E0
1.714803670E0,3.490500152E-1,4.660050392E0,8.715000153E0,9.888838821E0
1.716766122E0,3.490500152E-1,4.660050392E0,8.715000153E0,9.888838821E0
1.718728593E0,3.490500152E-1,4.621950150E0,8.715000153E0,9.870941533E0
1.720691212E0,3.109500110E-1,4.660050392E0,8.715000153E0,9.887567306E0
1.722653802E0,3.490500152E-1,4.660050392E0,8.754000664E0,9.923226955E0
1.724616378E0,3.870000243E-1,4.660050392E0,8.791950226E0,9.958123691E0
1.726578958E0,3.870000243E-1,4.621950150E0,8.791950226E0,9.940351150E0
1.728541579E0,3.870000243E-1,4.660050392E0,8.791950226E0,9.958123691E0
1.730504187E0,3.870000243E-1,4.660050392E0,8.791950226E0,9.958123691E0
1.732466823E0,3.870000243E-1,4.660050392E0,8.754000664E0,9.924634316E0
1.734429437E0,4.260000288E-1,4.621950150E0,8.754000664E0,9.908401830E0
1.736391739E0,3.870000243E-1,4.660050392E0,8.791950226E0,9.958123691E0
1.738354132E0,4.260000288E-1,4.621950150E0,8.754000664E0,9.908401830E0
1.740316380E0,4.260000288E-1,4.621950150E0,8.791950226E0,9.941945885E0
1.742278670E0,4.639500082E-1,4.584000111E0,8.754000664E0,9.892463507E0
1.744241195E0,4.260000288E-1,4.621950150E0,8.791950226E0,9.941945885E0
1.746203658E0,4.639500082E-1,4.584000111E0,8.754000664E0,9.892463507E0
1.748166435E0,4.260000288E-1,4.621950150E0,8.754000664E0,9.908401830E0
1.750129120E0,4.639500082E-1,4.584000111E0,8.754000664E0,9.892463507E0
1.752091589E0,4.260000288E-1,4.621950150E0,8.754000664E0,9.908401830E0
1.754054122E0,4.639500082E-1,4.545000076E0,8.715000153E0,9.839893443E0
1.756016710E0,4.260000288E-1,4.621950150E0,8.715000153E0,9.873962065E0
1.757979279E0,3.870000243E-1,4.584000111E0,8.754000664E0,9.889153334E0
1.759941543E0,3.490500152E-1,4.584000111E0,8.754000664E0,9.887740922E0
1.761903896E0,3.870000243E-1,4.660050392E0,8.715000153E0,9.890251075E0
1.763866196E0,3.490500152E-1,4.621950150E0,8.715000153E0,9.870941533E0
1.765828511E0,3.490500152E-1,4.621950150E0,8.715000153E0,9.870941533E0
1.767791011E0,3.109500110E-1,4.660050392E0,8.754000664E0,9.921959846E0
1.769753447E0,3.490500152E-1,4.660050392E0,8.754000664E0,9.923226955E0
1.771715913E0,3.870000243E-1,4.660050392E0,8.754000664E0,9.924634316E0
1.773678370E0,3.490500152E-1,4.660050392E0,8.830050468E0,9.990380215E0
1.775641012E0,3.109500110E-1,4.660050392E0,8.754000664E0,9.921959846E0
1.777603600E0,3.490500152E-1,4.660050392E0,8.791950226E0,9.956721064E0
1.779566036E0,3.490500152E-1,4.621950150E0,8.869050026E0,1.000721277E1
1.781528520E0,3.490500152E-1,4.660050392E0,8.830050468E0,9.990380215E0
1.783490978E0,3.490500152E-1,4.660050392E0,8.869050026E0,1.002486678E1
1.785453444E0,3.490500152E-1,4.660050392E0,8.869050026E0,1.002486678E1
1.787415949E0,3.870000243E-1,4.621950150E0,8.869050026E0,1.000860832E1
1.789378442E0,3.870000243E-1,4.621950150E0,8.907000542E0,1.004225328E1
1.791341000E0,3.490500152E-1,4.584000111E0,8.907000542E0,1.002345008E1
1.793303562E0,3.870000243E-1,4.584000111E0,8.907000542E0,1.002484337E1
1.795266052E0,3.490500152E-1,4.621950150E0,8.944950104E0,1.007454175E1
1.797228564E0,4.260000288E-1,4.621950150E0,8.944950104E0,1.007750126E1
1.799191151E0,3.490500152E-1,4.621950150E0,8.944950104E0,1.007454175E1
1.801153716E0,4.260000288E-1,4.584000111E0,8.983950615E0,1.009484530E1
1.803116375E0,3.870000243E-1,4.584000111E0,8.944950104E0,1.005857636E1
1.805079014E0,3.870000243E-1,4.584000111E0,8.983950615E0,1.009327473E1
1.807041221E0,3.870000243E-1,4.584000111E0,8.983950615E0,1.009327473E1
1.809003554E0,4.260000288E-1,4.621950150E0,8.983950615E0,1.011213468E1
1.810965858E0,3.870000243E-1,4.584000111E0,9.060000420E0,1.016102523E1
1.812928170E0,3.870000243E-1,4.584000111E0,8.944950104E0,1.005857636E1
1.814890380E0,4.260000288E-1,4.545000076E0,8.983950615E0,1.007719556E1
1.816852593E0,4.260000288E-1,4.545000076E0,9.060000420E0,1.014505344E1
1.818814916E0,4.260000288E-1,4.545000076E0,9.098999977E0,1.017989697E1
1.820777207E0,3.490500152E-1,4.584000111E0,9.022050858E0,1.012582316E1
1.822739698E0,4.260000288E-1,4.545000076E0,8.983950615E0,1.007719556E1
1.824702130E0,4.260000288E-1,4.545000076E0,9.060000420E0,1.014505344E1
1.826664573E0,4.260000288E-1,4.545000076E0,9.022050858E0,1.011117715E1
1.828627029E0,3.870000243E-1,4.545000076E0,9.022050858E0,1.010960911E1
1.830589627E0,4.260000288E-1,4.545000076E0,8.983950615E0,1.007719556E1
1.832552183E0,4.260000288E-1,4.507050037E0,8.983950615E0,1.006013642E1
1.834514629E0,4.639500082E-1,4.507050037E0,8.983950615E0,1.006181486E1
1.836477108E0,5.020500422E-1,4.431000233E0,8.983950615E0,1.002981485E1
1.838439533E0,4.260000288E-1,4.545000076E0,8.983950615E0,1.007719556E1
1.840401998E0,4.260000288E-1,4.545000076E0,8.983950615E0,1.007719556E1
1.842364278E0,4.639500082E-1,4.507050037E0,8.944950104E0,1.002700763E1
1.844326613E0,4.639500082E-1,4.545000076E0,8.944950104E0,1.004412304E1
1.846288916E0,4.260000288E-1,4.468950272E0,8.907000542E0,9.974349663E0
1.848251229E0,5.020500422E-1,4.468950272E0,8.869050026E0,9.944024293E0
1.850213585E0,5.410500169E-1,4.507050037E0,8.907000542E0,9.997044254E0
1.852175924E0,4.639500082E-1,4.507050037E0,8.907000542E0,9.993168081E0
1.854138542E0,5.410500169E-1,4.545000076E0,8.869050026E0,9.980471391E0
1.856101078E0,4.639500082E-1,4.545000076E0,8.869050026E0,9.976588779E0
1.858063392E0,4.260000288E-1,4.545000076E0,8.869050026E0,9.974895993E0
1.860025772E0,5.020500422E-1,4.584000111E0,8.830050468E0,9.961671674E0
1.861988255E0,5.020500422E-1,4.584000111E0,8.791950226E0,9.927915191E0
1.863950702E0,4.639500082E-1,4.584000111E0,8.869050026E0,9.994416190E0
1.865913123E0,4.639500082E-1,4.584000111E0,8.830050468E0,9.959824190E0
1.867875551E0,4.639500082E-1,4.621950150E0,8.869050026E0,1.001187900E1
1.869837838E0,3.870000243E-1,4.584000111E0,8.830050468E0,9.956536411E0
1.871800166E0,4.260000288E-1,4.584000111E0,8.830050468E0,9.958128555E0
1.873762495E0,4.639500082E-1,4.621950150E0,8.791950226E0,9.943644280E0
1.875724837E0,4.639500082E-1,4.584000111E0,8.830050468E0,9.959824190E0
1.877687140E0,4.260000288E-1,4.584000111E0,8.830050468E0,9.958128555E0
1.879649455E0,4.260000288E-1,4.621950150E0,8.830050468E0,9.975654890E0
1.881612120E0,4.639500082E-1,4.584000111E0,8.791950226E0,9.926061424E0
1.883574683E0,5.020500422E-1,4.584000111E0,8.830050468E0,9.961671674E0
1.885537065E0,4.639500082E-1,4.584000111E0,8.830050468E0,9.959824190E0
1.887499513E0,4.260000288E-1,4.584000111E0,8.869050026E0,9.992726425E0
1.889462021E0,4.260000288E-1,4.584000111E0,8.791950226E0,9.924360020E0
1.891424511E0,4.639500082E-1,4.660050392E0,8.830050468E0,9.995054304E0
1.893386969E0,4.260000288E-1,4.584000111E0,8.791950226E0,9.924360020E0
1.895349436E0,4.260000288E-1,4.545000076E0,8.830050468E0,9.940236063E0
1.897311701E0,4.260000288E-1,4.621950150E0,8.830050468E0,9.975654890E0
1.899274036E0,4.260000288E-1,4.621950150E0,8.869050026E0,1.001019218E1
1.901236339E0,4.260000288E-1,4.507050037E0,8.869050026E0,9.957661594E0
1.903198652E0,4.260000288E-1,4.584000111E0,8.830050468E0,9.958128555E0
1.905161318E0,3.870000243E-1,4.584000111E0,8.869050026E0,9.991139795E0
1.907123880E0,4.639500082E-1,4.621950150E0,8.869050026E0,1.001187900E1
1.909086479E0,4.639500082E-1,4.621950150E0,8.830050468E0,9.977347547E0
1.911049053E0,4.260000288E-1,4.621950150E0,8.830050468E0,9.975654890E0
1.913011676E0,4.639500082E-1,4.621950150E0,8.791950226E0,9.943644280E0
1.914974284E0,4.260000288E-1,4.621950150E0,8.830050468E0,9.975654890E0
1.916936901E0,4.639500082E-1,4.621950150E0,8.869050026E0,1.001187900E1
1.918899515E0,4.260000288E-1,4.621950150E0,8.830050468E0,9.975654890E0
1.920862116E0,4.639500082E-1,4.584000111E0,8.830050468E0,9.959824190E0
1.922824731E0,4.260000288E-1,4.584000111E0,8.830050468E0,9.958128555E0
1.924787527E0,3.870000243E-1,4.621950150E0,8.791950226E0,9.940351150E0
1.926750270E0,4.639500082E-1,4.545000076E0,8.830050468E0,9.941934750E0
1.928712910E0,4.260000288E-1,4.621950150E0,8.830050468E0,9.975654890E0
1.930675580E0,4.260000288E-1,4.584000111E0,8.869050026E0,9.992726425E0
1.932638170E0,4.260000288E-1,4.584000111E0,8.791950226E0,9.924360020E0
1.934600795E0,4.639500082E-1,4.621950150E0,8.791950226E0,9.943644280E0
1.936563409E0,3.870000243E-1,4.621950150E0,8.830050468E0,9.974065544E0
1.938526026E0,3.870000243E-1,4.621950150E0,8.791950226E0,9.940351150E0
1.940488461E0,4.260000288E-1,4.584000111E0,8.791950226E0,9.924360020E0
1.942450949E0,3.870000243E-1,4.660050392E0,8.791950226E0,9.958123691E0
1.944413357E0,3.870000243E-1,4.660050392E0,8.791950226E0,9.958123691E0
1.946375791E0,4.260000288E-1,4.621950150E0,8.791950226E0,9.941945885E0
1.948338257E0,4.260000288E-1,4.621950150E0,8.754000664E0,9.908401830E0
1.950300713E0,3.870000243E-1,4.660050392E0,8.791950226E0,9.958123691E0
1.952263221E0,3.870000243E-1,4.660050392E0,8.754000664E0,9.924634316E0
1.954225713E0,3.870000243E-1,4.621950150E0,8.754000664E0,9.906801695E0
1.956188830E0,3.490500152E-1,4.660050392E0,8.715000153E0,9.888838821E0
1.958151775E0,3.870000243E-1,4.621950150E0,8.715000153E0,9.872356348E0
1.960114155E0,3.490500152E-1,4.621950150E0,8.754000664E0,9.905391800E0
1.962076700E0,3.490500152E-1,4.699050426E0,8.754000664E0,9.941601402E0
1.964039192E0,3.109500110E-1,4.660050392E0,8.715000153E0,9.887567306E0
1.966001700E0,3.109500110E-1,4.660050392E0,8.754000664E0,9.921959846E0
1.967964158E0,3.109500110E-1,4.660050392E0,8.754000664E0,9.921959846E0
1.969926628E0,3.490500152E-1,4.699050426E0,8.715000153E0,9.907277047E0
1.971889043E0,3.870000243E-1,4.660050392E0,8.754000664E0,9.924634316E0
1.973851474E0,3.490500152E-1,4.699050426E0,8.754000664E0,9.941601402E0
1.975813985E0,2.719500065E-1,4.699050426E0,8.754000664E0,9.939193093E0
1.977776472E0,2.719500065E-1,4.699050426E0,8.715000153E0,9.904860392E0
1.979738779E0,3.109500110E-1,4.699050426E0,8.791950226E0,9.973773288E0
1.981701118E0,3.490500152E-1,4.699050426E0,8.715000153E0,9.907277047E0
1.983663554E0,3.109500110E-1,4.660050392E0,8.677050591E0,9.854134488E0
1.985625962E0,2.719500065E-1,4.660050392E0,8.715000153E0,9.886417659E0
1.987588074E0,2.719500065E-1,4.660050392E0,8.715000153E0,9.886417659E0
1.989550272E0,3.490500152E-1,4.699050426E0,8.754000664E0,9.941601402E0
1.991512818E0,3.109500110E-1,4.660050392E0,8.754000664E0,9.921959846E0
1.993475265E0,2.719500065E-1,4.660050392E0,8.754000664E0,9.920814185E0
1.995438045E0,3.109500110E-1,4.660050392E0,8.754000664E0,9.921959846E0
1.997400727E0,3.109500110E-1,4.621950150E0,8.830050468E0,9.971404333E0
1.999363197E0,3.109500110E-1,4.660050392E0,8.869050026E0,1.002361252E1
2.001325729E0,3.490500152E-1,4.660050392E0,8.869050026E0,1.002486678E1
2.003288662E0,3.490500152E-1,4.660050392E0,8.830050468E0,9.990380215E0
2.005251485E0,3.109500110E-1,4.584000111E0,8.907000542E0,1.002219565E1
2.007214111E0,3.490500152E-1,4.621950150E0,8.869050026E0,1.000721277E1
2.009176795E0,3.870000243E-1,4.621950150E0,8.907000542E0,1.004225328E1
2.011139353E0,3.490500152E-1,4.660050392E0,8.907000542E0,1.005845735E1
2.013101948E0,3.109500110E-1,4.621950150E0,8.944950104E0,1.007329367E1
2.015064791E0,3.490500152E-1,4.584000111E0,8.983950615E0,1.009189088E1
2.017027562E0,3.870000243E-1,4.660050392E0,8.983950615E0,1.012804065E1
2.018990466E0,3.870000243E-1,4.621950150E0,8.944950104E0,1.007592798E1
2.020953331E0,3.870000243E-1,4.621950150E0,8.983950615E0,1.011056679E1
2.022915905E0,3.870000243E-1,4.621950150E0,9.022050858E0,1.014443660E1
2.024878564E0,3.870000243E-1,4.584000111E0,9.022050858E0,1.012720236E1
2.026840895E0,4.260000288E-1,4.621950150E0,8.983950615E0,1.011213468E1
2.028803295E0,4.639500082E-1,4.621950150E0,8.983950615E0,1.011380450E1
2.030765766E0,4.639500082E-1,4.584000111E0,8.983950615E0,1.009651798E1
2.032728216E0,4.260000288E-1,4.621950150E0,8.983950615E0,1.011213468E1
2.034690680E0,4.260000288E-1,4.621950150E0,9.060000420E0,1.017975966E1
2.036653139E0,3.870000243E-1,4.621950150E0,8.944950104E0,1.007592798E1
2.038615523E0,3.870000243E-1,4.621950150E0,8.944950104E0,1.007592798E1
2.040577954E0,4.260000288E-1,4.621950150E0,8.944950104E0,1.007750126E1
2.042540599E0,4.260000288E-1,4.584000111E0,8.944950104E0,1.006015235E1
2.044503182E0,4.260000288E-1,4.584000111E0,8.869050026E0,9.992726425E0
2.046465848E0,3.870000243E-1,4.545000076E0,8.907000542E0,1.000707017E1
2.048428490E0,3.490500152E-1,4.584000111E0,8.944950104E0,1.005718774E1
2.050391116E0,3.870000243E-1,4.545000076E0,8.869050026E0,9.973306527E0
2.052353737E0,4.260000288E-1,4.584000111E0,8.907000542E0,1.002642467E1
2.054316351E0,4.260000288E-1,4.584000111E0,8.830050468E0,9.958128555E0
2.056278968E0,3.870000243E-1,4.621950150E0,8.869050026E0,1.000860832E1
2.058241537E0,4.260000288E-1,4.584000111E0,8.907000542E0,1.002642467E1
2.060204121E0,4.260000288E-1,4.584000111E0,8.907000542E0,1.002642467E1
2.062166746E0,3.870000243E-1,4.584000111E0,8.869050026E0,9.991139795E0
2.064129355E0,4.260000288E-1,4.584000111E0,8.869050026E0,9.992726425E0
2.066091972E0,4.639500082E-1,4.584000111E0,8.907000542E0,1.002810876E1
2.068054586E0,4.260000288E-1,4.584000111E0,8.907000542E0,1.002642467E1
2.070017202E0,4.260000288E-1,4.545000076E0,8.869050026E0,9.974895993E0
2.071979817E0,4.639500082E-1,4.584000111E0,8.869050026E0,9.994416190E0
2.073942487E0,4.260000288E-1,4.545000076E0,8.869050026E0,9.974895993E0
2.075905134E0,4.639500082E-1,4.584000111E0,8.830050468E0,9.959824190E0
2.077867700E0,4.260000288E-1,4.545000076E0,8.791950226E0,9.906406538E0
2.079830290E0,4.260000288E-1,4.507050037E0,8.869050026E0,9.957661594E0
2.081792954E0,4.639500082E-1,4.545000076E0,8.791950226E0,9.908111025E0
2.083755596E0,4.639500082E-1,4.584000111E0,8.830050468E0,9.959824190E0
2.085718193E0,5.020500422E-1,4.545000076E0,8.830050468E0,9.943785558E0
2.087680814E0,5.020500422E-1,4.545000076E0,8.791950226E0,9.909968149E0
2.089643428E0,4.639500082E-1,4.545000076E0,8.754000664E0,9.874452032E0
2.091606045E0,4.639500082E-1,4.545000076E0,8.791950226E0,9.908111025E0
2.093568839E0,4.639500082E-1,4.545000076E0,8.791950226E0,9.908111025E0
2.095531581E0,4.639500082E-1,4.545000076E0,8.754000664E0,9.874452032E0
2.097494302E0,4.639500082E-1,4.545000076E0,8.830050468E0,9.941934750E0
2.099457036E0,4.639500082E-1,4.545000076E0,8.715000153E0,9.839893443E0
2.101419810E0,4.639500082E-1,4.584000111E0,8.791950226E0,9.926061424E0
2.103382572E0,4.639500082E-1,4.584000111E0,8.754000664E0,9.892463507E0
2.105345163E0,4.639500082E-1,4.545000076E0,8.754000664E0,9.874452032E0
2.107307805E0,4.639500082E-1,4.584000111E0,8.791950226E0,9.926061424E0
2.109270411E0,4.639500082E-1,4.545000076E0,8.754000664E0,9.874452032E0
2.111233031E0,3.870000243E-1,4.545000076E0,8.754000664E0,9.871135818E0
2.113195870E0,4.639500082E-1,4.621950150E0,8.754000664E0,9.910105974E0
2.115158644E0,4.260000288E-1,4.621950150E0,8.754000664E0,9.908401830E0
2.117121369E0,4.260000288E-1,4.545000076E0,8.791950226E0,9.906406538E0
2.119084108E0,4.260000288E-1,4.584000111E0,8.791950226E0,9.924360020E0
2.121046890E0,4.260000288E-1,4.584000111E0,8.754000664E0,9.890756324E0
2.123009653E0,4.639500082E-1,4.621950150E0,8.754000664E0,9.910105974E0
2.124972289E0,3.870000243E-1,4.584000111E0,8.791950226E0,9.922762458E0
2.126934963E0,3.870000243E-1,4.584000111E0,8.791950226E0,9.922762458E0
2.128897883E0,4.260000288E-1,4.621950150E0,8.791950226E0,9.941945885E0
2.130860730E0,3.870000243E-1,4.621950150E0,8.791950226E0,9.940351150E0
2.132823468E0,3.870000243E-1,4.584000111E0,8.830050468E0,9.956536411E0
2.134786251E0,3.870000243E-1,4.621950150E0,8.791950226E0,9.940351150E0
2.136748477E0,4.260000288E-1,4.584000111E0,8.791950226E0,9.924360020E0
2.138710867E0,3.870000243E-1,4.621950150E0,8.830050468E0,9.974065544E0
2.140673520E0,4.260000288E-1,4.584000111E0,8.791950226E0,9.924360020E0
2.142636096E0,3.870000243E-1,4.621950150E0,8.791950226E0,9.940351150E0
2.144598399E0,4.639500082E-1,4.621950150E0,8.791950226E0,9.943644280E0
2.146560785E0,3.870000243E-1,4.621950150E0,8.791950226E0,9.940351150E0
2.148523394E0,4.260000288E-1,4.621950150E0,8.791950226E0,9.941945885E0
2.150485937E0,4.260000288E-1,4.584000111E0,8.830050468E0,9.958128555E0
2.152448431E0,5.410500169E-1,4.621950150E0,8.791950226E0,9.947539750E0
2.154410939E0,4.260000288E-1,4.584000111E0,8.791950226E0,9.924360020E0
2.156373509E0,4.260000288E-1,4.621950150E0,8.754000664E0,9.908401830E0
2.158336073E0,3.870000243E-1,4.584000111E0,8.791950226E0,9.922762458E0
2.160298518E0,4.260000288E-1,4.621950150E0,8.791950226E0,9.941945885E0
2.162260998E0,4.260000288E-1,4.584000111E0,8.791950226E0,9.924360020E0
2.164223636E0,3.870000243E-1,4.660050392E0,8.754000664E0,9.924634316E0
2.166186227E0,4.260000288E-1,4.660050392E0,8.791950226E0,9.959715581E0
2.168149062E0,4.260000288E-1,4.584000111E0,8.715000153E0,9.856254902E0
2.170111832E0,3.870000243E-1,4.621950150E0,8.791950226E0,9.940351150E0
2.172074736E0,3.870000243E-1,4.660050392E0,8.791950226E0,9.958123691E0
2.174037601E0,4.260000288E-1,4.621950150E0,8.754000664E0,9.908401830E0
2.176000355E0,4.260000288E-1,4.621950150E0,8.791950226E0,9.941945885E0
2.177963142E0,4.639500082E-1,4.660050392E0,8.754000664E0,9.927932659E0
2.179925588E0,3.870000243E-1,4.621950150E0,8.791950226E0,9.940351150E0
2.181888137E0,3.870000243E-1,4.660050392E0,8.791950226E0,9.958123691E0
2.183850762E0,4.260000288E-1,4.660050392E0,8.754000664E0,9.926231576E0
2.185813365E0,4.639500082E-1,4.584000111E0,8.791950226E0,9.926061424E0
2.187776118E0,4.260000288E-1,4.660050392E0,8.830050468E0,9.993364646E0
2.189738827E0,4.639500082E-1,4.621950150E0,8.791950226E0,9.943644280E0
2.191701403E0,4.260000288E-1,4.621950150E0,8.869050026E0,1.001019218E1
2.193664035E0,3.870000243E-1,4.621950150E0,8.830050468E0,9.974065544E0
2.195626648E0,4.260000288E-1,4.621950150E0,8.830050468E0,9.975654890E0
2.197589266E0,4.260000288E-1,4.621950150E0,8.830050468E0,9.975654890E0
2.199551701E0,3.870000243E-1,4.584000111E0,8.869050026E0,9.991139795E0
2.201514189E0,3.870000243E-1,4.621950150E0,8.791950226E0,9.940351150E0
2.203477005E0,4.260000288E-1,4.584000111E0,8.869050026E0,9.992726425E0
2.205439725E0,3.870000243E-1,4.584000111E0,8.869050026E0,9.991139795E0
2.207402503E0,4.260000288E-1,4.621950150E0,8.907000542E0,1.004383183E1
2.209365264E0,4.260000288E-1,4.584000111E0,8.869050026E0,9.992726425E0
2.211327900E0,3.870000243E-1,4.621950150E0,8.830050468E0,9.974065544E0
2.213290573E0,3.870000243E-1,4.584000111E0,8.907000542E0,1.002484337E1
2.215252963E0,4.260000288E-1,4.584000111E0,8.944950104E0,1.006015235E1
2.217215429E0,4.260000288E-1,4.584000111E0,8.944950104E0,1.006015235E1
2.219177934E0,4.260000288E-1,4.584000111E0,8.907000542E0,1.002642467E1
2.221140427E0,4.260000288E-1,4.584000111E0,8.869050026E0,9.992726425E0
2.223103064E0,3.490500152E-1,4.584000111E0,8.907000542E0,1.002345008E1
2.225065658E0,3.870000243E-1,4.545000076E0,8.907000542E0,1.000707017E1
2.227028262E0,4.260000288E-1,4.584000111E0,8.869050026E0,9.992726425E0
2.228990843E0,4.260000288E-1,4.545000076E0,8.869050026E0,9.974895993E0
2.230953284E0,3.490500152E-1,4.584000111E0,8.907000542E0,1.002345008E1
2.232915766E0,3.109500110E-1,4.621950150E0,8.907000542E0,1.003961014E1
2.234878268E0,3.870000243E-1,4.584000111E0,8.869050026E0,9.991139795E0
2.236840764E0,3.870000243E-1,4.621950150E0,8.907000542E0,1.004225328E1
2.238803676E0,4.260000288E-1,4.545000076E0,8.944950104E0,1.004244164E1
2.240766494E0,3.870000243E-1,4.584000111E0,8.944950104E0,1.005857636E1
2.242729121E0,3.490500152E-1,4.545000076E0,8.944950104E0,1.003947180E1
2.244691804E0,4.260000288E-1,4.621950150E0,8.907000542E0,1.004383183E1
2.246654363E0,3.870000243E-1,4.584000111E0,8.983950615E0,1.009327473E1
2.248616958E0,3.490500152E-1,4.621950150E0,8.983950615E0,1.010918532E1
2.250579216E0,3.870000243E-1,4.584000111E0,8.983950615E0,1.009327473E1
2.252541573E0,3.870000243E-1,4.584000111E0,8.944950104E0,1.005857636E1
2.254503692E0,4.260000288E-1,4.621950150E0,8.944950104E0,1.007750126E1
2.256465881E0,4.260000288E-1,4.545000076E0,8.907000542E0,1.000865427E1
2.258428073E0,3.870000243E-1,4.584000111E0,8.944950104E0,1.005857636E1
2.260390264E0,4.260000288E-1,4.621950150E0,8.983950615E0,1.011213468E1
2.262352607E0,4.260000288E-1,4.545000076E0,8.907000542E0,1.000865427E1
2.264314894E0,4.260000288E-1,4.584000111E0,8.907000542E0,1.002642467E1
2.266277386E0,3.870000243E-1,4.584000111E0,8.944950104E0,1.005857636E1
2.268239817E0,3.870000243E-1,4.545000076E0,8.944950104E0,1.004086286E1
2.270202419E0,4.260000288E-1,4.584000111E0,8.830050468E0,9.958128555E0
2.272164971E0,3.870000243E-1,4.584000111E0,8.907000542E0,1.002484337E1
2.274127422E0,3.870000243E-1,4.545000076E0,8.907000542E0,1.000707017E1
2.276089900E0,4.260000288E-1,4.584000111E0,8.869050026E0,9.992726425E0
2.278052538E0,3.870000243E-1,4.545000076E0,8.869050026E0,9.973306527E0
2.280015129E0,3.490500152E-1,4.545000076E0,8.869050026E0,9.971906035E0
2.281977614E0,3.870000243E-1,4.621950150E0,8.791950226E0,9.940351150E0
2.283940131E0,3.870000243E-1,4.545000076E0,8.830050468E0,9.938641053E0
2.285902741E0,3.870000243E-1,4.621950150E0,8.869050026E0,1.000860832E1
2.287865307E0,4.260000288E-1,4.584000111E0,8.869050026E0,9.992726425E0
2.289827931E0,3.870000243E-1,4.621950150E0,8.830050468E0,9.974065544E0
2.291790538E0,3.870000243E-1,4.621950150E0,8.791950226E0,9.940351150E0
2.293752795E0,3.870000243E-1,4.584000111E0,8.869050026E0,9.991139795E0
2.295715155E0,3.490500152E-1,4.584000111E0,8.869050026E0,9.989741803E0
2.297677818E0,3.490500152E-1,4.621950150E0,8.830050468E0,9.972665159E0
2.299640389E0,3.490500152E-1,4.621950150E0,8.944950104E0,1.007454175E1
2.301603192E0,3.870000243E-1,4.621950150E0,8.830050468E0,9.974065544E0
2.303565927E0,3.870000243E-1,4.621950150E0,8.869050026E0,1.000860832E1
2.305528882E0,3.490500152E-1,4.584000111E0,8.830050468E0,9.955133560E0
2.307491773E0,3.870000243E-1,4.621950150E0,8.791950226E0,9.940351150E0
2.309454528E0,3.870000243E-1,4.621950150E0,8.830050468E0,9.974065544E0
2.311417319E0,4.260000288E-1,4.621950150E0,8.791950226E0,9.941945885E0
2.313379949E0,4.260000288E-1,4.621950150E0,8.791950226E0,9.941945885E0
2.315342627E0,4.639500082E-1,4.660050392E0,8.791950226E0,9.961410946E0
2.317305006E0,4.260000288E-1,4.621950150E0,8.830050468E0,9.975654890E0
2.319267473E0,4.639500082E-1,4.660050392E0,8.869050026E0,1.002952480E1
2.321230112E0,4.260000288E-1,4.660050392E0,8.830050468E0,9.993364646E0
2.323192701E0,4.260000288E-1,4.660050392E0,8.869050026E0,1.002784095E1
2.325155187E0,4.260000288E-1,4.660050392E0,8.791950226E0,9.959715581E0
2.327117703E0,4.639500082E-1,4.621950150E0,8.869050026E0,1.001187900E1
2.329080470E0,4.260000288E-1,4.660050392E0,8.830050468E0,9.993364646E0
2.331043163E0,4.639500082E-1,4.584000111E0,8.791950226E0,9.926061424E0
2.333005636E0,4.260000288E-1,4.621950150E0,8.830050468E0,9.975654890E0
2.334968170E0,4.639500082E-1,4.621950150E0,8.830050468E0,9.977347547E0
2.336930619E0,4.260000288E-1,4.621950150E0,8.830050468E0,9.975654890E0
2.338893093E0,4.260000288E-1,4.621950150E0,8.791950226E0,9.941945885E0
2.340856047E0,4.260000288E-1,4.584000111E0,8.791950226E0,9.924360020E0
2.342818860E0,4.260000288E-1,4.621950150E0,8.830050468E0,9.975654890E0
2.344781623E0,4.260000288E-1,4.584000111E0,8.791950226E0,9.924360020E0
2.346744401E0,4.260000288E-1,4.621950150E0,8.830050468E0,9.975654890E0
2.348706989E0,4.260000288E-1,4.621950150E0,8.791950226E0,9.941945885E0
2.350669632E0,4.260000288E-1,4.584000111E0,8.791950226E0,9.924360020E0
2.352632242E0,4.260000288E-1,4.621950150E0,8.791950226E0,9.941945885E0
2.354594862E0,4.639500082E-1,4.584000111E0,8.830050468E0,9.959824190E0
2.356557656E0,4.260000288E-1,4.545000076E0,8.830050468E0,9.940236063E0
2.358520399E0,4.639500082E-1,4.584000111E0,8.791950226E0,9.926061424E0
2.360483039E0,4.260000288E-1,4.621950150E0,8.791950226E0,9.941945885E0
2.362445709E0,4.260000288E-1,4.584000111E0,8.830050468E0,9.958128555E0
2.364408269E0,3.870000243E-1,4.584000111E0,8.791950226E0,9.922762458E0
2.366370862E0,3.870000243E-1,4.584000111E0,8.830050468E0,9.956536411E0
2.368333355E0,3.870000243E-1,4.584000111E0,8.830050468E0,9.956536411E0
2.370295871E0,4.260000288E-1,4.584000111E0,8.830050468E0,9.958128555E0
2.372258457E0,4.260000288E-1,4.545000076E0,8.791950226E0,9.906406538E0
2.374221023E0,3.870000243E-1,4.584000111E0,8.791950226E0,9.922762458E0
2.376183647E0,4.260000288E-1,4.584000111E0,8.830050468E0,9.958128555E0
2.378146254E0,3.870000243E-1,4.584000111E0,8.791950226E0,9.922762458E0
2.380109126E0,3.870000243E-1,4.584000111E0,8.791950226E0,9.922762458E0
2.382071899E0,4.260000288E-1,4.584000111E0,8.830050468E0,9.958128555E0
2.384034443E0,4.260000288E-1,4.584000111E0,8.830050468E0,9.958128555E0
2.385997055E0,3.870000243E-1,4.545000076E0,8.830050468E0,9.938641053E0
2.387959715E0,4.260000288E-1,4.584000111E0,8.830050468E0,9.958128555E0
2.389922361E0,4.639500082E-1,4.584000111E0,8.830050468E0,9.959824190E0
2.391885347E0,3.870000243E-1,4.545000076E0,8.791950226E0,9.904806080E0
2.393848222E0,3.870000243E-1,4.584000111E0,8.830050468E0,9.956536411E0
2.395811108E0,4.260000288E-1,4.584000111E0,8.791950226E0,9.924360020E0
2.397773991E0,4.260000288E-1,4.545000076E0,8.830050468E0,9.940236063E0
2.399736607E0,4.260000288E-1,4.584000111E0,8.869050026E0,9.992726425E0
2.401699301E0,4.639500082E-1,4.621950150E0,8.830050468E0,9.977347547E0
2.403661859E0,4.260000288E-1,4.621950150E0,8.791950226E0,9.941945885E0
2.405624488E0,4.260000288E-1,4.621950150E0,8.791950226E0,9.941945885E0
2.407587235E0,4.639500082E-1,4.621950150E0,8.830050468E0,9.977347547E0
2.409549947E0,3.870000243E-1,4.621950150E0,8.791950226E0,9.940351150E0
2.411512547E0,3.870000243E-1,4.584000111E0,8.791950226E0,9.922762458E0
2.413475180E0,4.260000288E-1,4.545000076E0,8.830050468E0,9.940236063E0
2.415437778E0,4.260000288E-1,4.584000111E0,8.791950226E0,9.924360020E0
2.417400397E0,4.260000288E-1,4.621950150E0,8.791950226E0,9.941945885E0
2.419363191E0,4.639500082E-1,4.584000111E0,8.791950226E0,9.926061424E0
2.421325933E0,4.260000288E-1,4.584000111E0,8.830050468E0,9.958128555E0
2.423288528E0,4.260000288E-1,4.621950150E0,8.791950226E0,9.941945885E0
2.425251166E0,4.639500082E-1,4.621950150E0,8.830050468E0,9.977347547E0
2.427213616E0,3.870000243E-1,4.584000111E0,8.791950226E0,9.922762458E0
2.429176108E0,4.260000288E-1,4.621950150E0,8.830050468E0,9.975654890E0
2.431138429E0,4.639500082E-1,4.621950150E0,8.791950226E0,9.943644280E0
2.433100801E0,4.260000288E-1,4.584000111E0,8.791950226E0,9.924360020E0
2.435063637E0,4.260000288E-1,4.621950150E0,8.869050026E0,1.001019218E1
2.437026337E0,3.870000243E-1,4.621950150E0,8.830050468E0,9.974065544E0
2.438988934E0,4.260000288E-1,4.584000111E0,8.791950226E0,9.924360020E0
2.440951565E0,4.639500082E-1,4.584000111E0,8.869050026E0,9.994416190E0
2.442914357E0,4.260000288E-1,4.584000111E0,8.869050026E0,9.992726425E0
2.444877101E0,4.260000288E-1,4.545000076E0,8.869050026E0,9.974895993E0
2.446839515E0,4.260000288E-1,4.507050037E0,8.907000542E0,9.991478105E0
2.448802026E0,4.639500082E-1,4.584000111E0,8.907000542E0,1.002810876E1
2.450764830E0,4.260000288E-1,4.545000076E0,8.907000542E0,1.000865427E1
2.452727554E0,4.260000288E-1,4.507050037E0,8.983950615E0,1.006013642E1
2.454690107E0,4.260000288E-1,4.545000076E0,8.907000542E0,1.000865427E1
2.456652710E0,4.260000288E-1,4.507050037E0,8.907000542E0,9.991478105E0
2.458614967E0,4.260000288E-1,4.545000076E0,8.907000542E0,1.000865427E1
2.460577325E0,4.639500082E-1,4.545000076E0,8.907000542E0,1.001034135E1
2.462539824E0,3.870000243E-1,4.545000076E0,8.944950104E0,1.004086286E1
2.464502299E0,3.490500152E-1,4.584000111E0,8.944950104E0,1.005718774E1
2.466464939E0,4.260000288E-1,4.545000076E0,8.944950104E0,1.004244164E1
2.468427530E0,3.490500152E-1,4.545000076E0,8.944950104E0,1.003947180E1
2.470390285E0,3.870000243E-1,4.584000111E0,8.944950104E0,1.005857636E1
2.472352991E0,3.490500152E-1,4.621950150E0,8.983950615E0,1.010918532E1
2.474315544E0,3.109500110E-1,4.621950150E0,8.907000542E0,1.003961014E1
2.476278176E0,3.490500152E-1,4.584000111E0,8.907000542E0,1.002345008E1
2.478240608E0,3.490500152E-1,4.584000111E0,8.944950104E0,1.005718774E1
2.480203099E0,3.490500152E-1,4.584000111E0,8.907000542E0,1.002345008E1
2.482165599E0,3.490500152E-1,4.621950150E0,8.907000542E0,1.004086240E1
2.484128097E0,3.490500152E-1,4.621950150E0,8.907000542E0,1.004086240E1
2.486090882E0,3.109500110E-1,4.621950150E0,8.907000542E0,1.003961014E1
2.488053573E0,3.109500110E-1,4.621950150E0,8.907000542E0,1.003961014E1
2.490016177E0,3.109500110E-1,4.584000111E0,8.830050468E0,9.953870513E0
2.491978806E0,3.109500110E-1,4.621950150E0,8.907000542E0,1.003961014E1
2.493941419E0,3.109500110E-1,4.621950150E0,8.830050468E0,9.971404333E0
2.495904036E0,3.109500110E-1,4.621950150E0,8.830050468E0,9.971404333E0
2.497866871E0,3.109500110E-1,4.584000111E0,8.791950226E0,9.920087484E0
2.499829645E0,3.109500110E-1,4.621950150E0,8.754000664E0,9.904122410E0
2.501792189E0,3.870000243E-1,4.621950150E0,8.830050468E0,9.974065544E0
2.503754801E0,3.490500152E-1,4.621950150E0,8.830050468E0,9.972665159E0
2.505717416E0,3.870000243E-1,4.584000111E0,8.830050468E0,9.956536411E0
2.507680030E0,4.260000288E-1,4.584000111E0,8.830050468E0,9.958128555E0
2.509642495E0,3.870000243E-1,4.584000111E0,8.830050468E0,9.956536411E0
2.511604984E0,3.870000243E-1,4.545000076E0,8.869050026E0,9.973306527E0
2.513567485E0,4.639500082E-1,4.584000111E0,8.830050468E0,9.959824190E0
2.515529982E0,4.260000288E-1,4.584000111E0,8.830050468E0,9.958128555E0
2.517492753E0,4.639500082E-1,4.545000076E0,8.830050468E0,9.941934750E0
2.519455443E0,4.260000288E-1,4.584000111E0,8.830050468E0,9.958128555E0
2.521418033E0,4.260000288E-1,4.584000111E0,8.869050026E0,9.992726425E0
2.523380662E0,3.870000243E-1,4.545000076E0,8.869050026E0,9.973306527E0
2.525343319E0,3.870000243E-1,4.621950150E0,8.869050026E0,1.000860832E1
2.527305968E0,4.260000288E-1,4.545000076E0,8.791950226E0,9.906406538E0
2.529268398E0,3.870000243E-1,4.545000076E0,8.830050468E0,9.938641053E0
2.531230893E0,4.260000288E-1,4.621950150E0,8.830050468E0,9.975654890E0
2.533193727E0,4.260000288E-1,4.621950150E0,8.830050468E0,9.975654890E0
2.535156448E0,4.260000288E-1,4.621950150E0,8.869050026E0,1.001019218E1
2.537119181E0,4.260000288E-1,4.584000111E0,8.830050468E0,9.958128555E0
2.539081910E0,3.870000243E-1,4.621950150E0,8.830050468E0,9.974065544E0
2.541044731E0,4.260000288E-1,4.584000111E0,8.830050468E0,9.958128555E0
2.543007525E0,3.870000243E-1,4.621950150E0,8.791950226E0,9.940351150E0
2.544970255E0,4.260000288E-1,4.584000111E0,8.830050468E0,9.958128555E0
2.546932998E0,4.639500082E-1,4.660050392E0,8.869050026E0,1.002952480E1
2.548895770E0,4.260000288E-1,4.621950150E0,8.791950226E0,9.941945885E0
2.550858534E0,4.260000288E-1,4.621950150E0,8.791950226E0,9.941945885E0
2.552821305E0,4.260000288E-1,4.545000076E0,8.830050468E0,9.940236063E0
2.554784073E0,3.870000243E-1,4.621950150E0,8.869050026E0,1.000860832E1
2.556746538E0,3.870000243E-1,4.621950150E0,8.830050468E0,9.974065544E0
2.558709085E0,4.260000288E-1,4.621950150E0,8.830050468E0,9.975654890E0
2.560672251E0,3.870000243E-1,4.621950150E0,8.791950226E0,9.940351150E0
2.562635236E0,4.260000288E-1,4.584000111E0,8.830050468E0,9.958128555E0
2.564598284E0,3.870000243E-1,4.584000111E0,8.830050468E0,9.956536411E0
2.566561313E0,3.870000243E-1,4.660050392E0,8.830050468E0,9.991778118E0
2.568523923E0,4.260000288E-1,4.621950150E0,8.791950226E0,9.941945885E0
2.570486642E0,3.870000243E-1,4.621950150E0,8.869050026E0,1.000860832E1
2.572449599E0,4.260000288E-1,4.621950150E0,8.830050468E0,9.975654890E0
2.574412486E0,3.870000243E-1,4.660050392E0,8.830050468E0,9.991778118E0
2.576375011E0,4.260000288E-1,4.621950150E0,8.869050026E0,1.001019218E1
2.578337642E0,4.260000288E-1,4.621950150E0,8.830050468E0,9.975654890E0
2.580299764E0,4.260000288E-1,4.621950150E0,8.830050468E0,9.975654890E0
2.582262032E0,3.870000243E-1,4.621950150E0,8.791950226E0,9.940351150E0
2.584224886E0,3.870000243E-1,4.621950150E0,8.869050026E0,1.000860832E1
2.586187568E0,4.260000288E-1,4.621950150E0,8.791950226E0,9.941945885E0
2.588150307E0,4.260000288E-1,4.621950150E0,8.830050468E0,9.975654890E0
2.590113030E0,3.870000243E-1,4.621950150E0,8.869050026E0,1.000860832E1
2.592075821E0,4.260000288E-1,4.584000111E0,8.830050468E0,9.958128555E0
2.594038582E0,4.260000288E-1,4.621950150E0,8.830050468E0,9.975654890E0
2.596001398E0,4.260000288E-1,4.584000111E0,8.830050468E0,9.958128555E0
2.597964198E0,4.639500082E-1,4.584000111E0,8.830050468E0,9.959824190E0
2.599926963E0,4.260000288E-1,4.621950150E0,8.791950226E0,9.941945885E0
2.601889738E0,4.260000288E-1,4.621950150E0,8.791950226E0,9.941945885E0
2.603852516E0,4.260000288E-1,4.621950150E0,8.830050468E0,9.975654890E0
2.605815287E0,4.260000288E-1,4.621950150E0,8.791950226E0,9.941945885E0
2.607777830E0,4.260000288E-1,4.621950150E0,8.830050468E0,9.975654890E0
2.609740440E0,4.260000288E-1,4.584000111E0,8.830050468E0,9.958128555E0
2.611702877E0,4.260000288E-1,4.584000111E0,8.869050026E0,9.992726425E0
2.613665364E0,4.639500082E-1,4.584000111E0,8.869050026E0,9.994416190E0
2.615628160E0,4.639500082E-1,4.584000111E0,8.869050026E0,9.994416190E0
2.617590880E0,4.260000288E-1,4.584000111E0,8.830050468E0,9.958128555E0
2.619553343E0,4.260000288E-1,4.584000111E0,8.830050468E0,9.958128555E0
2.621515882E0,4.639500082E-1,4.545000076E0,8.869050026E0,9.976588779E0
2.623478464E0,4.260000288E-1,4.584000111E0,8.869050026E0,9.992726425E0
2.625441034E0,3.870000243E-1,4.584000111E0,8.830050468E0,9.956536411E0
2.627403677E0,3.870000243E-1,4.545000076E0,8.830050468E0,9.938641053E0
2.629366285E0,4.260000288E-1,4.584000111E0,8.791950226E0,9.924360020E0
2.631328542E0,4.639500082E-1,4.584000111E0,8.869050026E0,9.994416190E0
2.633290902E0,3.870000243E-1,4.545000076E0,8.830050468E0,9.938641053E0
2.635253605E0,3.870000243E-1,4.584000111E0,8.869050026E0,9.991139795E0
2.637216208E0,3.870000243E-1,4.545000076E0,8.869050026E0,9.973306527E0
2.639179166E0,4.260000288E-1,4.584000111E0,8.869050026E0,9.992726425E0
2.641142034E0,3.870000243E-1,4.545000076E0,8.907000542E0,1.000707017E1
2.643104787E0,4.639500082E-1,4.545000076E0,8.830050468E0,9.941934750E0
2.645067574E0,4.639500082E-1,4.584000111E0,8.869050026E0,9.994416190E0
2.647030520E0,4.639500082E-1,4.545000076E0,8.869050026E0,9.976588779E0
2.648993419E0,3.870000243E-1,4.584000111E0,8.869050026E0,9.991139795E0
2.650956326E0,4.260000288E-1,4.545000076E0,8.869050026E0,9.974895993E0
2.652919214E0,4.639500082E-1,4.545000076E0,8.869050026E0,9.976588779E0
2.654881962E0,4.639500082E-1,4.584000111E0,8.869050026E0,9.994416190E0
2.656844752E0,4.260000288E-1,4.584000111E0,8.830050468E0,9.958128555E0
2.658807337E0,4.639500082E-1,4.545000076E0,8.869050026E0,9.976588779E0
2.660769983E0,4.260000288E-1,4.545000076E0,8.869050026E0,9.974895993E0
2.662733017E0,4.260000288E-1,4.545000076E0,8.907000542E0,1.000865427E1
2.664695923E0,4.260000288E-1,4.545000076E0,8.869050026E0,9.974895993E0
2.666658625E0,4.639500082E-1,4.545000076E0,8.869050026E0,9.976588779E0
2.668621387E0,4.260000288E-1,4.545000076E0,8.907000542E0,1.000865427E1
2.670584337E0,4.260000288E-1,4.621950150E0,8.907000542E0,1.004383183E1
2.672547231E0,3.870000243E-1,4.621950150E0,8.907000542E0,1.004225328E1
2.674510011E0,3.870000243E-1,4.584000111E0,8.830050468E0,9.956536411E0
2.676472834E0,3.870000243E-1,4.621950150E0,8.869050026E0,1.000860832E1
2.678435594E0,4.260000288E-1,4.621950150E0,8.907000542E0,1.004383183E1
2.680398373E0,4.260000288E-1,4.621950150E0,8.869050026E0,1.001019218E1
2.682361140E0,3.870000243E-1,4.621950150E0,8.869050026E0,1.000860832E1
2.684323911E0,3.870000243E-1,4.621950150E0,8.907000542E0,1.004225328E1
2.686286864E0,4.260000288E-1,4.621950150E0,8.869050026E0,1.001019218E1
2.688249760E0,3.490500152E-1,4.621950150E0,8.907000542E0,1.004086240E1
2.690212868E0,3.870000243E-1,4.621950150E0,8.907000542E0,1.004225328E1
2.692175914E0,3.490500152E-1,4.660050392E0,8.944950104E0,1.009207798E1
2.694138996E0,3.490500152E-1,4.621950150E0,8.944950104E0,1.007454175E1
2.696102068E0,3.870000243E-1,4.621950150E0,8.869050026E0,1.000860832E1
2.698064933E0,3.870000243E-1,4.621950150E0,8.869050026E0,1.000860832E1
2.700027882E0,3.870000243E-1,4.660050392E0,8.869050026E0,1.002625987E1
2.701990621E0,3.870000243E-1,4.621950150E0,8.869050026E0,1.000860832E1
2.703953421E0,3.870000243E-1,4.660050392E0,8.869050026E0,1.002625987E1
2.705916004E0,4.260000288E-1,4.621950150E0,8.830050468E0,9.975654890E0
2.707878651E0,3.870000243E-1,4.584000111E0,8.869050026E0,9.991139795E0
2.709841571E0,3.870000243E-1,4.621950150E0,8.869050026E0,1.000860832E1
2.711804414E0,3.870000243E-1,4.584000111E0,8.869050026E0,9.991139795E0
2.713767351E0,3.870000243E-1,4.621950150E0,8.830050468E0,9.974065544E0
2.715730260E0,3.870000243E-1,4.621950150E0,8.869050026E0,1.000860832E1
2.717693006E0,3.870000243E-1,4.584000111E0,8.830050468E0,9.956536411E0
2.719655800E0,3.870000243E-1,4.584000111E0,8.869050026E0,9.991139795E0
2.721618609E0,3.870000243E-1,4.584000111E0,8.869050026E0,9.991139795E0
2.723581414E0,4.260000288E-1,4.584000111E0,8.869050026E0,9.992726425E0
2.725544312E0,3.870000243E-1,4.584000111E0,8.869050026E0,9.991139795E0
2.727507183E0,4.260000288E-1,4.584000111E0,8.944950104E0,1.006015235E1
2.729469981E0,3.870000243E-1,4.621950150E0,8.869050026E0,1.000860832E1
2.731432800E0,3.870000243E-1,4.584000111E0,8.869050026E0,9.991139795E0
2.733395711E0,3.870000243E-1,4.584000111E0,8.869050026E0,9.991139795E0
2.735358616E0,3.870000243E-1,4.621950150E0,8.907000542E0,1.004225328E1
2.737321182E0,4.260000288E-1,4.621950150E0,8.869050026E0,1.001019218E1
2.739283848E0,4.260000288E-1,4.621950150E0,8.907000542E0,1.004383183E1
2.741246589E0,3.870000243E-1,4.660050392E0,8.869050026E0,1.002625987E1
2.743209308E0,3.870000243E-1,4.584000111E0,8.830050468E0,9.956536411E0
2.745172086E0,3.490500152E-1,4.621950150E0,8.869050026E0,1.000721277E1
2.747134846E0,4.260000288E-1,4.621950150E0,8.830050468E0,9.975654890E0
2.749097483E0,3.870000243E-1,4.621950150E0,8.791950226E0,9.940351150E0
2.751060156E0,3.870000243E-1,4.660050392E0,8.830050468E0,9.991778118E0
2.753022716E0,3.870000243E-1,4.621950150E0,8.830050468E0,9.974065544E0
2.754985310E0,3.490500152E-1,4.621950150E0,8.830050468E0,9.972665159E0
2.756947914E0,3.490500152E-1,4.545000076E0,8.830050468E0,9.937235676E0
2.758910525E0,3.870000243E-1,4.621950150E0,8.754000664E0,9.906801695E0
2.760873186E0,3.870000243E-1,4.621950150E0,8.830050468E0,9.974065544E0
2.762835832E0,3.870000243E-1,4.584000111E0,8.791950226E0,9.922762458E0
2.764798218E0,3.870000243E-1,4.545000076E0,8.830050468E0,9.938641053E0
2.766760681E0,3.870000243E-1,4.621950150E0,8.754000664E0,9.906801695E0
2.768723717E0,3.870000243E-1,4.621950150E0,8.791950226E0,9.940351150E0
2.770686592E0,3.870000243E-1,4.621950150E0,8.791950226E0,9.940351150E0
2.772649163E0,3.870000243E-1,4.621950150E0,8.830050468E0,9.974065544E0
2.774611824E0,3.490500152E-1,4.584000111E0,8.754000664E0,9.887740922E0
2.776574746E0,3.870000243E-1,4.584000111E0,8.791950226E0,9.922762458E0
2.778537592E0,4.260000288E-1,4.621950150E0,8.791950226E0,9.941945885E0
2.780500168E0,3.870000243E-1,4.621950150E0,8.791950226E0,9.940351150E0
2.782462824E0,3.490500152E-1,4.545000076E0,8.791950226E0,9.903395901E0
2.784425657E0,4.260000288E-1,4.621950150E0,8.791950226E0,9.941945885E0
2.786388438E0,3.490500152E-1,4.584000111E0,8.830050468E0,9.955133560E0
2.788351701E0,4.260000288E-1,4.584000111E0,8.830050468E0,9.958128555E0
2.790314822E0,4.260000288E-1,4.584000111E0,8.830050468E0,9.958128555E0
2.792277563E0,4.260000288E-1,4.621950150E0,8.830050468E0,9.975654890E0
2.794240426E0,4.260000288E-1,4.584000111E0,8.830050468E0,9.958128555E0
2.796203494E0,4.639500082E-1,4.584000111E0,8.791950226E0,9.926061424E0
2.798166501E0,4.260000288E-1,4.584000111E0,8.791950226E0,9.924360020E0
2.800129411E0,4.260000288E-1,4.584000111E0,8.754000664E0,9.890756324E0
2.802092349E0,4.260000288E-1,4.584000111E0,8.791950226E0,9.924360020E0
2.804055337E0,4.639500082E-1,4.584000111E0,8.791950226E0,9.926061424E0
2.806018294E0,4.260000288E-1,4.584000111E0,8.791950226E0,9.924360020E0
2.807981347E0,3.870000243E-1,4.621950150E0,8.791950226E0,9.940351150E0
2.809944371E0,4.639500082E-1,4.545000076E0,8.830050468E0,9.941934750E0
2.811907097E0,4.260000288E-1,4.584000111E0,8.791950226E0,9.924360020E0
2.813869911E0,4.260000288E-1,4.584000111E0,8.791950226E0,9.924360020E0
2.815832497E0,4.260000288E-1,4.621950150E0,8.791950226E0,9.941945885E0
2.817795147E0,4.639500082E-1,4.584000111E0,8.754000664E0,9.892463507E0
2.819757801E0,4.639500082E-1,4.584000111E0,8.754000664E0,9.892463507E0
2.821720453E0,5.410500169E-1,4.584000111E0,8.754000664E0,9.896379124E0
2.823683197E0,4.639500082E-1,4.584000111E0,8.791950226E0,9.926061424E0
2.825645914E0,4.639500082E-1,4.545000076E0,8.791950226E0,9.908111025E0
2.827608743E0,4.260000288E-1,4.621950150E0,8.791950226E0,9.941945885E0
2.829571535E0,3.870000243E-1,4.584000111E0,8.715000153E0,9.854646300E0
2.831534301E0,4.639500082E-1,4.584000111E0,8.715000153E0,9.857968061E0
2.833497075E0,4.260000288E-1,4.621950150E0,8.754000664E0,9.908401830E0
2.835460022E0,4.639500082E-1,4.584000111E0,8.791950226E0,9.926061424E0
2.837422919E0,4.639500082E-1,4.584000111E0,8.791950226E0,9.926061424E0
2.839386003E0,3.870000243E-1,4.584000111E0,8.791950226E0,9.922762458E0
2.841349049E0,4.639500082E-1,4.621950150E0,8.791950226E0,9.943644280E0
2.843311907E0,4.260000288E-1,4.584000111E0,8.830050468E0,9.958128555E0
2.845274821E0,4.260000288E-1,4.621950150E0,8.830050468E0,9.975654890E0
2.847237610E0,4.260000288E-1,4.621950150E0,8.830050468E0,9.975654890E0
2.849200436E0,4.260000288E-1,4.545000076E0,8.830050468E0,9.940236063E0
2.851163219E0,3.870000243E-1,4.621950150E0,8.791950226E0,9.940351150E0
2.853125998E0,3.870000243E-1,4.584000111E0,8.791950226E0,9.922762458E0
2.855088900E0,4.639500082E-1,4.584000111E0,8.791950226E0,9.926061424E0
2.857051766E0,4.260000288E-1,4.584000111E0,8.869050026E0,9.992726425E0
2.859014879E0,4.639500082E-1,4.621950150E0,8.830050468E0,9.977347547E0
2.860977920E0,4.260000288E-1,4.584000111E0,8.830050468E0,9.958128555E0
2.862940849E0,4.260000288E-1,4.584000111E0,8.869050026E0,9.992726425E0
2.864903825E0,4.639500082E-1,4.584000111E0,8.869050026E0,9.994416190E0
2.866866873E0,4.260000288E-1,4.621950150E0,8.907000542E0,1.004383183E1
2.868829900E0,4.260000288E-1,4.545000076E0,8.830050468E0,9.940236063E0
2.870792671E0,4.260000288E-1,4.584000111E0,8.869050026E0,9.992726425E0
2.872755517E0,3.870000243E-1,4.584000111E0,8.907000542E0,1.002484337E1
2.874718209E0,4.260000288E-1,4.584000111E0,8.869050026E0,9.992726425E0
2.876680959E0,3.870000243E-1,4.584000111E0,8.907000542E0,1.002484337E1
2.878643911E0,3.870000243E-1,4.621950150E0,8.869050026E0,1.000860832E1
2.880606804E0,3.870000243E-1,4.621950150E0,8.907000542E0,1.004225328E1
2.882569732E0,3.870000243E-1,4.584000111E0,8.907000542E0,1.002484337E1
2.884532650E0,3.870000243E-1,4.584000111E0,8.907000542E0,1.002484337E1
2.886495783E0,3.870000243E-1,4.584000111E0,8.907000542E0,1.002484337E1
2.888458833E0,3.870000243E-1,4.545000076E0,8.869050026E0,9.973306527E0
2.890421240E0,3.870000243E-1,4.584000111E0,8.907000542E0,1.002484337E1
2.892383835E0,3.870000243E-1,4.621950150E0,8.944950104E0,1.007592798E1
2.894346949E0,3.870000243E-1,4.621950150E0,8.869050026E0,1.000860832E1
2.896309910E0,4.260000288E-1,4.584000111E0,8.944950104E0,1.006015235E1
2.898272857E0,3.870000243E-1,4.584000111E0,8.907000542E0,1.002484337E1
2.900235818E0,3.870000243E-1,4.584000111E0,8.944950104E0,1.005857636E1
2.902198510E0,4.260000288E-1,4.584000111E0,8.907000542E0,1.002642467E1
2.904161281E0,3.870000243E-1,4.584000111E0,8.869050026E0,9.991139795E0
2.906124229E0,3.870000243E-1,4.584000111E0,8.907000542E0,1.002484337E1
2.908087125E0,3.870000243E-1,4.545000076E0,8.907000542E0,1.000707017E1
2.910050034E0,4.260000288E-1,4.545000076E0,8.869050026E0,9.974895993E0
2.912012953E0,3.870000243E-1,4.621950150E0,8.944950104E0,1.007592798E1
2.913975742E0,3.870000243E-1,4.584000111E0,8.944950104E0,1.005857636E1
2.915938570E0,4.260000288E-1,4.621950150E0,8.944950104E0,1.007750126E1
2.917901644E0,3.870000243E-1,4.584000111E0,8.907000542E0,1.002484337E1
2.919864645E0,3.490500152E-1,4.584000111E0,8.869050026E0,9.989741803E0
2.921827594E0,3.490500152E-1,4.545000076E0,8.944950104E0,1.003947180E1
2.923790531E0,3.490500152E-1,4.621950150E0,8.944950104E0,1.007454175E1
2.925753452E0,4.639500082E-1,4.584000111E0,8.907000542E0,1.002810876E1
2.927716377E0,4.260000288E-1,4.584000111E0,8.944950104E0,1.006015235E1
2.929679479E0,4.260000288E-1,4.584000111E0,8.944950104E0,1.006015235E1
2.931642529E0,4.260000288E-1,4.545000076E0,8.983950615E0,1.007719556E1
2.933605136E0,4.260000288E-1,4.584000111E0,8.907000542E0,1.002642467E1
2.935567859E0,3.870000243E-1,4.584000111E0,8.944950104E0,1.005857636E1
2.937530951E0,4.260000288E-1,4.584000111E0,8.944950104E0,1.006015235E1
2.939493934E0,3.870000243E-1,4.584000111E0,8.983950615E0,1.009327473E1
2.941457027E0,4.260000288E-1,4.545000076E0,8.983950615E0,1.007719556E1
2.943420088E0,4.260000288E-1,4.621950150E0,8.944950104E0,1.007750126E1
2.945383053E0,3.870000243E-1,4.621950150E0,8.907000542E0,1.004225328E1
2.947346032E0,4.260000288E-1,4.545000076E0,8.907000542E0,1.000865427E1
2.949309259E0,3.870000243E-1,4.584000111E0,8.907000542E0,1.002484337E1
2.951272414E0,3.870000243E-1,4.584000111E0,8.907000542E0,1.002484337E1
2.953235343E0,3.870000243E-1,4.584000111E0,8.830050468E0,9.956536411E0
2.955198339E0,3.870000243E-1,4.584000111E0,8.869050026E0,9.991139795E0
2.957161759E0,4.260000288E-1,4.621950150E0,8.869050026E0,1.001019218E1
2.959125044E0,4.260000288E-1,4.621950150E0,8.869050026E0,1.001019218E1
2.961087951E0,3.870000243E-1,4.621950150E0,8.869050026E0,1.000860832E1
2.963050969E0,3.870000243E-1,4.584000111E0,8.869050026E0,9.991139795E0
2.965014190E0,4.260000288E-1,4.584000111E0,8.869050026E0,9.992726425E0
2.966977351E0,4.260000288E-1,4.621950150E0,8.869050026E0,1.001019218E1
2.968940430E0,4.639500082E-1,4.621950150E0,8.830050468E0,9.977347547E0
2.970903522E0,4.260000288E-1,4.545000076E0,8.869050026E0,9.974895993E0
2.972866281E0,4.639500082E-1,4.584000111E0,8.830050468E0,9.959824190E0
2.974829138E0,4.260000288E-1,4.584000111E0,8.830050468E0,9.958128555E0
2.976792386E0,3.870000243E-1,4.584000111E0,8.830050468E0,9.956536411E0
2.978755520E0,4.260000288E-1,4.621950150E0,8.830050468E0,9.975654890E0
2.980718616E0,4.639500082E-1,4.584000111E0,8.869050026E0,9.994416190E0
2.982681704E0,4.260000288E-1,4.584000111E0,8.830050468E0,9.958128555E0
2.984644644E0,3.870000243E-1,4.584000111E0,8.830050468E0,9.956536411E0
2.986607627E0,3.870000243E-1,4.584000111E0,8.754000664E0,9.889153334E0
2.988570674E0,4.260000288E-1,4.584000111E0,8.791950226E0,9.924360020E0
2.990533702E0,4.260000288E-1,4.584000111E0,8.830050468E0,9.958128555E0
2.992496654E0,4.260000288E-1,4.621950150E0,8.791950226E0,9.941945885E0
2.994459628E0,4.639500082E-1,4.584000111E0,8.830050468E0,9.959824190E0
2.996423082E0,3.870000243E-1,4.584000111E0,8.754000664E0,9.889153334E0
2.998386395E0,4.260000288E-1,4.584000111E0,8.791950226E0,9.924360020E0
3.000349433E0,4.260000288E-1,4.621950150E0,8.791950226E0,9.941945885E0
3.002312551E0,4.260000288E-1,4.584000111E0,8.791950226E0,9.924360020E0
3.004275735E0,3.870000243E-1,4.621950150E0,8.791950226E0,9.940351150E0
3.006238914E0,4.639500082E-1,4.584000111E0,8.869050026E0,9.994416190E0
3.008201975E0,4.260000288E-1,4.621950150E0,8.830050468E0,9.975654890E0
3.010165070E0,3.870000243E-1,4.584000111E0,8.791950226E0,9.922762458E0
3.012128144E0,4.260000288E-1,4.621950150E0,8.791950226E0,9.941945885E0
3.014091224E0,3.870000243E-1,4.584000111E0,8.791950226E0,9.922762458E0
3.016054151E0,3.870000243E-1,4.584000111E0,8.830050468E0,9.956536411E0
3.018017133E0,3.490500152E-1,4.584000111E0,8.830050468E0,9.955133560E0
3.019980360E0,4.260000288E-1,4.584000111E0,8.830050468E0,9.958128555E0
3.021943515E0,3.490500152E-1,4.584000111E0,8.791950226E0,9.921354832E0
3.023906580E0,3.870000243E-1,4.584000111E0,8.791950226E0,9.922762458E0
3.025869671E0,3.870000243E-1,4.584000111E0,8.869050026E0,9.991139795E0
3.027832449E0,3.870000243E-1,4.584000111E0,8.791950226E0,9.922762458E0
3.029795306E0,4.260000288E-1,4.584000111E0,8.754000664E0,9.890756324E0
3.031758194E0,3.870000243E-1,4.584000111E0,8.791950226E0,9.922762458E0
3.033721073E0,3.870000243E-1,4.621950150E0,8.830050468E0,9.974065544E0
3.035683869E0,3.870000243E-1,4.660050392E0,8.791950226E0,9.958123691E0
3.037646690E0,4.260000288E-1,4.621950150E0,8.791950226E0,9.941945885E0
3.039609569E0,4.260000288E-1,4.621950150E0,8.791950226E0,9.941945885E0
3.041572442E0,3.870000243E-1,4.584000111E0,8.830050468E0,9.956536411E0
3.043535419E0,4.260000288E-1,4.545000076E0,8.791950226E0,9.906406538E0
3.045498366E0,4.639500082E-1,4.621950150E0,8.754000664E0,9.910105974E0
3.047461420E0,4.260000288E-1,4.584000111E0,8.791950226E0,9.924360020E0
3.049424442E0,4.260000288E-1,4.584000111E0,8.791950226E0,9.924360020E0
3.051387579E0,4.639500082E-1,4.584000111E0,8.869050026E0,9.994416190E0
3.053350678E0,4.260000288E-1,4.545000076E0,8.869050026E0,9.974895993E0
3.055313752E0,4.260000288E-1,4.545000076E0,8.830050468E0,9.940236063E0
3.057276834E0,4.260000288E-1,4.621950150E0,8.830050468E0,9.975654890E0
3.059240044E0,4.260000288E-1,4.584000111E0,8.869050026E0,9.992726425E0
3.061203217E0,4.260000288E-1,4.584000111E0,8.830050468E0,9.958128555E0
3.063166457E0,4.260000288E-1,4.584000111E0,8.869050026E0,9.992726425E0
3.065129678E0,4.260000288E-1,4.584000111E0,8.869050026E0,9.992726425E0
3.067092596E0,3.870000243E-1,4.545000076E0,8.869050026E0,9.973306527E0
3.069055603E0,4.260000288E-1,4.584000111E0,8.869050026E0,9.992726425E0
3.071018512E0,3.870000243E-1,4.584000111E0,8.869050026E0,9.991139795E0
3.072981450E0,4.260000288E-1,4.621950150E0,8.907000542E0,1.004383183E1
3.074944535E0,3.490500152E-1,4.584000111E0,8.869050026E0,9.989741803E0
3.076907587E0,3.870000243E-1,4.584000111E0,8.869050026E0,9.991139795E0
3.078870668E0,3.870000243E-1,4.584000111E0,8.907000542E0,1.002484337E1
3.080833741E0,3.490500152E-1,4.621950150E0,8.869050026E0,1.000721277E1
3.082796639E0,3.870000243E-1,4.621950150E0,8.869050026E0,1.000860832E1
3.084759589E0,3.490500152E-1,4.584000111E0,8.907000542E0,1.002345008E1
3.086722687E0,4.260000288E-1,4.584000111E0,8.869050026E0,9.992726425E0
3.088685741E0,3.870000243E-1,4.584000111E0,8.907000542E0,1.002484337E1
3.090648822E0,3.490500152E-1,4.584000111E0,8.869050026E0,9.989741803E0
3.092611895E0,4.260000288E-1,4.621950150E0,8.869050026E0,1.001019218E1
3.094574793E0,3.870000243E-1,4.584000111E0,8.869050026E0,9.991139795E0
3.096537743E0,3.870000243E-1,4.621950150E0,8.907000542E0,1.004225328E1
3.098500805E0,4.639500082E-1,4.545000076E0,8.944950104E0,1.004412304E1
3.100463827E0,3.870000243E-1,4.621950150E0,8.869050026E0,1.000860832E1
3.102426554E0,3.870000243E-1,4.621950150E0,8.869050026E0,1.000860832E1
3.104389368E0,3.490500152E-1,4.584000111E0,8.869050026E0,9.989741803E0
3.106352354E0,4.260000288E-1,4.621950150E0,8.869050026E0,1.001019218E1
3.108315289E0,3.870000243E-1,4.621950150E0,8.869050026E0,1.000860832E1
3.110278187E0,3.490500152E-1,4.621950150E0,8.830050468E0,9.972665159E0
3.112241113E0,3.870000243E-1,4.621950150E0,8.907000542E0,1.004225328E1
3.114203855E0,4.260000288E-1,4.621950150E0,8.944950104E0,1.007750126E1
3.116166651E0,3.870000243E-1,4.621950150E0,8.869050026E0,1.000860832E1
3.118129550E0,3.870000243E-1,4.621950150E0,8.869050026E0,1.000860832E1
3.120092419E0,3.870000243E-1,4.621950150E0,8.869050026E0,1.000860832E1
3.122055124E0,4.260000288E-1,4.660050392E0,8.907000542E0,1.006142159E1
3.124017911E0,4.260000288E-1,4.621950150E0,8.869050026E0,1.001019218E1
3.125980722E0,3.870000243E-1,4.584000111E0,8.869050026E0,9.991139795E0
3.127943525E0,4.639500082E-1,4.621950150E0,8.907000542E0,1.004551300E1
3.129906469E0,4.260000288E-1,4.584000111E0,8.907000542E0,1.002642467E1
3.131869371E0,3.870000243E-1,4.621950150E0,8.869050026E0,1.000860832E1
3.133832264E0,4.260000288E-1,4.621950150E0,8.830050468E0,9.975654890E0
3.135795183E0,3.870000243E-1,4.621950150E0,8.907000542E0,1.004225328E1
3.137757882E0,3.490500152E-1,4.621950150E0,8.869050026E0,1.000721277E1
3.139720646E0,4.260000288E-1,4.621950150E0,8.869050026E0,1.001019218E1
3.141683460E0,4.260000288E-1,4.621950150E0,8.830050468E0,9.975654890E0
3.143646260E0,3.870000243E-1,4.621950150E0,8.791950226E0,9.940351150E0
3.145609000E0,3.870000243E-1,4.621950150E0,8.830050468E0,9.974065544E0
3.147571775E0,4.260000288E-1,4.660050392E0,8.830050468E0,9.993364646E0
3.149534543E0,3.870000243E-1,4.621950150E0,8.791950226E0,9.940351150E0
3.151497314E0,4.639500082E-1,4.621950150E0,8.830050468E0,9.977347547E0
3.153460083E0,4.260000288E-1,4.584000111E0,8.830050468E0,9.958128555E0
3.155422852E0,4.260000288E-1,4.584000111E0,8.791950226E0,9.924360020E0
3.157385613E0,4.639500082E-1,4.660050392E0,8.869050026E0,1.002952480E1
3.159348382E0,4.260000288E-1,4.545000076E0,8.791950226E0,9.906406538E0
3.161310971E0,4.260000288E-1,4.584000111E0,8.830050468E0,9.958128555E0
3.163273613E0,4.639500082E-1,4.545000076E0,8.791950226E0,9.908111025E0
3.165236539E0,4.639500082E-1,4.584000111E0,8.830050468E0,9.959824190E0
3.167199381E0,4.260000288E-1,4.584000111E0,8.830050468E0,9.958128555E0
3.169162134E0,4.260000288E-1,4.545000076E0,8.830050468E0,9.940236063E0
3.171124916E0,4.260000288E-1,4.584000111E0,8.754000664E0,9.890756324E0
3.173087548E0,4.639500082E-1,4.621950150E0,8.830050468E0,9.977347547E0
3.175050224E0,4.260000288E-1,4.584000111E0,8.830050468E0,9.958128555E0
3.177013188E0,4.260000288E-1,4.584000111E0,8.830050468E0,9.958128555E0
3.178976068E0,4.260000288E-1,4.545000076E0,8.791950226E0,9.906406538E0
3.180938943E0,4.260000288E-1,4.621950150E0,8.791950226E0,9.941945885E0
3.182901827E0,4.639500082E-1,4.584000111E0,8.791950226E0,9.926061424E0
3.184864757E0,3.870000243E-1,4.545000076E0,8.830050468E0,9.938641053E0
3.186827673E0,4.260000288E-1,4.584000111E0,8.830050468E0,9.958128555E0
3.188790823E0,4.260000288E-1,4.507050037E0,8.830050468E0,9.922941466E0
3.190753904E0,4.260000288E-1,4.584000111E0,8.869050026E0,9.992726425E0
3.192717009E0,4.639500082E-1,4.584000111E0,8.830050468E0,9.959824190E0
3.194680088E0,3.870000243E-1,4.584000111E0,8.869050026E0,9.991139795E0
3.196643344E0,4.260000288E-1,4.545000076E0,8.830050468E0,9.940236063E0
3.198606548E0,4.260000288E-1,4.584000111E0,8.869050026E0,9.992726425E0
3.200569379E0,3.870000243E-1,4.584000111E0,8.830050468E0,9.956536411E0
3.202532319E0,4.260000288E-1,4.545000076E0,8.830050468E0,9.940236063E0
3.204495288E0,4.260000288E-1,4.621950150E0,8.907000542E0,1.004383183E1
3.206458245E0,3.870000243E-1,4.584000111E0,8.869050026E0,9.991139795E0
3.208421118E0,4.260000288E-1,4.621950150E0,8.907000542E0,1.004383183E1
3.210384016E0,4.260000288E-1,4.584000111E0,8.907000542E0,1.002642467E1
3.212346942E0,4.260000288E-1,4.621950150E0,8.907000542E0,1.004383183E1
3.214309860E0,3.870000243E-1,4.621950150E0,8.907000542E0,1.004225328E1
3.216272959E0,3.870000243E-1,4.621950150E0,8.944950104E0,1.007592798E1
3.218236009E0,4.260000288E-1,4.584000111E0,8.907000542E0,1.002642467E1
3.220199271E0,3.870000243E-1,4.584000111E0,8.907000542E0,1.002484337E1
3.222162471E0,4.639500082E-1,4.584000111E0,8.907000542E0,1.002810876E1
3.224125393E0,4.260000288E-1,4.621950150E0,8.907000542E0,1.004383183E1
3.226088396E0,4.260000288E-1,4.584000111E0,8.907000542E0,1.002642467E1
3.228051310E0,4.260000288E-1,4.584000111E0,8.907000542E0,1.002642467E1
3.230014247E0,4.260000288E-1,4.584000111E0,8.907000542E0,1.002642467E1
3.231977122E0,4.639500082E-1,4.545000076E0,8.907000542E0,1.001034135E1
3.233940016E0,4.639500082E-1,4.545000076E0,8.907000542E0,1.001034135E1
3.235902809E0,4.260000288E-1,4.545000076E0,8.907000542E0,1.000865427E1
3.237865632E0,4.260000288E-1,4.584000111E0,8.869050026E0,9.992726425E0
3.239828715E0,4.260000288E-1,4.584000111E0,8.907000542E0,1.002642467E1
3.241791716E0,5.020500422E-1,4.584000111E0,8.907000542E0,1.002994366E1
3.243754627E0,5.020500422E-1,4.584000111E0,8.869050026E0,9.996257281E0
3.245717564E0,4.639500082E-1,4.621950150E0,8.869050026E0,1.001187900E1
3.247680349E0,5.020500422E-1,4.584000111E0,8.830050468E0,9.961671674E0
3.249643179E0,4.639500082E-1,4.584000111E0,8.869050026E0,9.994416190E0
3.251606438E0,4.639500082E-1,4.507050037E0,8.869050026E0,9.959357309E0
3.253569567E0,4.639500082E-1,4.545000076E0,8.907000542E0,1.001034135E1
3.255532815E0,4.260000288E-1,4.545000076E0,8.869050026E0,9.974895993E0
3.257496028E0,4.639500082E-1,4.584000111E0,8.907000542E0,1.002810876E1
3.259458722E0,4.260000288E-1,4.507050037E0,8.869050026E0,9.957661594E0
3.261421569E0,4.639500082E-1,4.545000076E0,8.869050026E0,9.976588779E0
3.263383979E0,4.639500082E-1,4.584000111E0,8.907000542E0,1.002810876E1
3.265346507E0,4.260000288E-1,4.545000076E0,8.907000542E0,1.000865427E1
3.267309136E0,3.870000243E-1,4.584000111E0,8.944950104E0,1.005857636E1
3.269271736E0,3.870000243E-1,4.545000076E0,8.907000542E0,1.000707017E1
3.271234399E0,4.260000288E-1,4.545000076E0,8.869050026E0,9.974895993E0
3.273197043E0,3.870000243E-1,4.584000111E0,8.869050026E0,9.991139795E0
3.275159703E0,3.870000243E-1,4.621950150E0,8.830050468E0,9.974065544E0
3.277122324E0,3.490500152E-1,4.584000111E0,8.869050026E0,9.989741803E0
3.279084713E0,3.870000243E-1,4.621950150E0,8.869050026E0,1.000860832E1
3.281047170E0,3.870000243E-1,4.660050392E0,8.869050026E0,1.002625987E1
3.283010172E0,3.870000243E-1,4.621950150E0,8.830050468E0,9.974065544E0
3.284973014E0,3.870000243E-1,4.621950150E0,8.869050026E0,1.000860832E1
3.286936140E0,3.490500152E-1,4.660050392E0,8.869050026E0,1.002486678E1
3.288899177E0,3.870000243E-1,4.621950150E0,8.830050468E0,9.974065544E0
3.290862127E0,3.490500152E-1,4.660050392E0,8.791950226E0,9.956721064E0
3.292825102E0,3.870000243E-1,4.660050392E0,8.830050468E0,9.991778118E0
3.294787791E0,3.870000243E-1,4.660050392E0,8.791950226E0,9.958123691E0
3.296750564E0,3.870000243E-1,4.621950150E0,8.754000664E0,9.906801695E0
3.298713527E0,3.870000243E-1,4.660050392E0,8.869050026E0,1.002625987E1
3.300676423E0,3.870000243E-1,4.660050392E0,8.754000664E0,9.924634316E0
3.302639037E0,3.870000243E-1,4.660050392E0,8.791950226E0,9.958123691E0
3.304601733E0,3.490500152E-1,4.660050392E0,8.715000153E0,9.888838821E0
3.306564694E0,3.490500152E-1,4.660050392E0,8.754000664E0,9.923226955E0
3.308527577E0,3.870000243E-1,4.660050392E0,8.754000664E0,9.924634316E0
3.310490495E0,3.870000243E-1,4.621950150E0,8.754000664E0,9.906801695E0
3.312453379E0,3.490500152E-1,4.621950150E0,8.754000664E0,9.905391800E0
3.314416130E0,3.870000243E-1,4.584000111E0,8.715000153E0,9.854646300E0
3.316378920E0,4.260000288E-1,4.584000111E0,8.754000664E0,9.890756324E0
3.318341325E0,3.490500152E-1,4.584000111E0,8.677050591E0,9.819679215E0
3.320303843E0,4.260000288E-1,4.584000111E0,8.754000664E0,9.890756324E0
3.322265950E0,4.260000288E-1,4.621950150E0,8.754000664E0,9.908401830E0
3.324228166E0,4.639500082E-1,4.584000111E0,8.754000664E0,9.892463507E0
3.326190849E0,3.870000243E-1,4.545000076E0,8.754000664E0,9.871135818E0
3.328153395E0,4.260000288E-1,4.584000111E0,8.791950226E0,9.924360020E0
3.330116203E0,4.260000288E-1,4.621950150E0,8.754000664E0,9.908401830E0
3.332078934E0,4.639500082E-1,4.584000111E0,8.791950226E0,9.926061424E0
3.334041724E0,4.260000288E-1,4.584000111E0,8.754000664E0,9.890756324E0
3.336004486E0,4.260000288E-1,4.584000111E0,8.754000664E0,9.890756324E0
