"Time (s)","Acceleration x (m/s^2)","Acceleration y (m/s^2)","Acceleration z (m/s^2)","Absolute acceleration (m/s^2)"
3.643921400E-2,1.189500093E-1,4.621950150E0,8.907000542E0,1.003549854E1
3.840149400E-2,8.100000024E-2,4.621950150E0,8.944950104E0,1.006881902E1
4.036629100E-2,1.189500093E-1,4.621950150E0,8.869050026E0,1.000183087E1
4.232947800E-2,1.189500093E-1,4.584000111E0,8.869050026E0,9.984350479E0
4.429313700E-2,1.189500093E-1,4.584000111E0,8.907000542E0,1.001807690E1
4.625625900E-2,1.189500093E-1,4.584000111E0,8.907000542E0,1.001807690E1
4.821953200E-2,1.189500093E-1,4.545000076E0,8.983950615E0,1.006888988E1
5.018293500E-2,1.570500135E-1,4.545000076E0,8.907000542E0,1.000081742E1
5.214629900E-2,1.189500093E-1,4.545000076E0,8.907000542E0,1.000029167E1
5.410986800E-2,1.570500135E-1,4.507050037E0,8.983950615E0,1.005233970E1
5.607337600E-2,1.189500093E-1,4.584000111E0,8.944950104E0,1.005183259E1
5.803689100E-2,1.570500135E-1,4.584000111E0,8.983950615E0,1.008707541E1
6.000042400E-2,1.570500135E-1,4.468950272E0,8.983950615E0,1.003531514E1
6.196382900E-2,1.960500032E-1,4.507050037E0,8.944950104E0,1.001818686E1
6.392727200E-2,1.960500032E-1,4.507050037E0,8.944950104E0,1.001818686E1
6.589060100E-2,1.570500135E-1,4.468950272E0,8.944950104E0,1.000041567E1
6.785396400E-2,1.570500135E-1,4.507050037E0,8.944950104E0,1.001749954E1
6.981693400E-2,1.570500135E-1,4.507050037E0,8.944950104E0,1.001749954E1
7.178006000E-2,1.960500032E-1,4.468950272E0,8.944950104E0,1.000110416E1
7.374330800E-2,1.570500135E-1,4.507050037E0,8.944950104E0,1.001749954E1
7.570652000E-2,1.960500032E-1,4.468950272E0,8.944950104E0,1.000110416E1
7.766975400E-2,1.960500032E-1,4.468950272E0,8.944950104E0,1.000110416E1
7.963298100E-2,1.960500032E-1,4.468950272E0,8.944950104E0,1.000110416E1
8.159587500E-2,1.960500032E-1,4.507050037E0,8.944950104E0,1.001818686E1
8.355888300E-2,1.960500032E-1,4.468950272E0,8.983950615E0,1.003600123E1
8.552228600E-2,1.960500032E-1,4.468950272E0,8.944950104E0,1.000110416E1
8.748557300E-2,1.960500032E-1,4.507050037E0,8.983950615E0,1.005302463E1
8.944915500E-2,1.960500032E-1,4.507050037E0,9.022050858E0,1.008708765E1
9.141265000E-2,1.960500032E-1,4.507050037E0,8.983950615E0,1.005302463E1
9.337602100E-2,1.570500135E-1,4.431000233E0,8.944950104E0,9.983514418E0
9.533942500E-2,1.570500135E-1,4.468950272E0,8.944950104E0,1.000041567E1
9.730280600E-2,1.960500032E-1,4.468950272E0,8.944950104E0,1.000110416E1
9.926619400E-2,1.570500135E-1,4.468950272E0,8.944950104E0,1.000041567E1
1.012293980E-1,2.340000123E-1,4.468950272E0,8.983950615E0,1.003681429E1
1.031926560E-1,1.570500135E-1,4.431000233E0,8.869050026E0,9.915567363E0
1.051555330E-1,1.960500032E-1,4.507050037E0,8.907000542E0,9.984317417E0
1.071185450E-1,1.960500032E-1,4.507050037E0,8.830050468E0,9.915731285E0
1.090819920E-1,2.340000123E-1,4.468950272E0,8.869050026E0,9.934098897E0
1.110453120E-1,2.340000123E-1,4.507050037E0,8.907000542E0,9.985134686E0
1.130088430E-1,1.960500032E-1,4.545000076E0,8.830050468E0,9.933038436E0
1.149723120E-1,1.960500032E-1,4.507050037E0,8.830050468E0,9.915731285E0
1.169356900E-1,2.340000123E-1,4.507050037E0,8.869050026E0,9.951296619E0
1.188991220E-1,2.340000123E-1,4.545000076E0,8.830050468E0,9.933859923E0
1.208626330E-1,2.340000123E-1,4.545000076E0,8.869050026E0,9.968542023E0
1.228261200E-1,2.340000123E-1,4.545000076E0,8.869050026E0,9.968542023E0
1.247896670E-1,2.340000123E-1,4.545000076E0,8.830050468E0,9.933859923E0
1.267531970E-1,2.340000123E-1,4.584000111E0,8.791950226E0,9.917973674E0
1.287165580E-1,1.960500032E-1,4.545000076E0,8.830050468E0,9.933038436E0
1.306799680E-1,1.960500032E-1,4.545000076E0,8.791950226E0,9.899184313E0
1.326433490E-1,1.570500135E-1,4.584000111E0,8.791950226E0,9.916456549E0
1.346067380E-1,1.570500135E-1,4.545000076E0,8.830050468E0,9.932345225E0
1.365701660E-1,1.960500032E-1,4.621950150E0,8.830050468E0,9.968482837E0
1.385335820E-1,1.960500032E-1,4.584000111E0,8.754000664E0,9.883522663E0
1.404968930E-1,1.570500135E-1,4.621950150E0,8.754000664E0,9.900485620E0
1.424602520E-1,1.189500093E-1,4.584000111E0,8.791950226E0,9.915926325E0
1.444233260E-1,1.189500093E-1,4.584000111E0,8.754000664E0,9.882293951E0
1.463864830E-1,1.189500093E-1,4.621950150E0,8.830050468E0,9.967264598E0
1.483500860E-1,1.189500093E-1,4.621950150E0,8.754000664E0,9.899954541E0
1.503135580E-1,1.189500093E-1,4.621950150E0,8.791950226E0,9.933527121E0
1.522769050E-1,1.189500093E-1,4.621950150E0,8.754000664E0,9.899954541E0
1.542403050E-1,8.100000024E-2,4.621950150E0,8.830050468E0,9.966883939E0
1.562036870E-1,8.100000024E-2,4.660050392E0,8.830050468E0,9.984609253E0
1.581670740E-1,1.189500093E-1,4.660050392E0,8.830050468E0,9.984989236E0
1.601304590E-1,8.100000024E-2,4.621950150E0,8.754000664E0,9.899571294E0
1.620938440E-1,1.189500093E-1,4.621950150E0,8.830050468E0,9.967264598E0
1.640572370E-1,1.189500093E-1,4.660050392E0,8.830050468E0,9.984989236E0
1.660206220E-1,1.570500135E-1,4.621950150E0,8.830050468E0,9.967792091E0
1.679841860E-1,1.189500093E-1,4.660050392E0,8.830050468E0,9.984989236E0
1.699476970E-1,8.100000024E-2,4.660050392E0,8.830050468E0,9.984609253E0
1.719112400E-1,8.100000024E-2,4.621950150E0,8.791950226E0,9.933145169E0
1.738747740E-1,8.100000024E-2,4.660050392E0,8.830050468E0,9.984609253E0
1.758380420E-1,1.189500093E-1,4.660050392E0,8.830050468E0,9.984989236E0
1.778014210E-1,8.100000024E-2,4.660050392E0,8.830050468E0,9.984609253E0
1.797648500E-1,8.100000024E-2,4.621950150E0,8.791950226E0,9.933145169E0
1.817282650E-1,4.200000316E-2,4.660050392E0,8.830050468E0,9.984369030E0
1.836916450E-1,8.100000024E-2,4.621950150E0,8.830050468E0,9.966883939E0
1.856550360E-1,8.100000024E-2,4.660050392E0,8.791950226E0,9.950930581E0
1.876185340E-1,4.200000316E-2,4.660050392E0,8.830050468E0,9.984369030E0
1.895820140E-1,4.200000316E-2,4.621950150E0,8.830050468E0,9.966643290E0
1.915456080E-1,4.200000316E-2,4.621950150E0,8.869050026E0,1.000121170E1
1.935091680E-1,8.100000024E-2,4.621950150E0,8.830050468E0,9.966883939E0
1.954725240E-1,8.100000024E-2,4.621950150E0,8.830050468E0,9.966883939E0
1.974359400E-1,4.200000316E-2,4.621950150E0,8.830050468E0,9.966643290E0
1.993992500E-1,1.189500093E-1,4.584000111E0,8.830050468E0,9.949723483E0
2.013626080E-1,1.189500093E-1,4.621950150E0,8.869050026E0,1.000183087E1
2.033258620E-1,1.189500093E-1,4.621950150E0,8.791950226E0,9.933527121E0
2.052891460E-1,1.189500093E-1,4.621950150E0,8.791950226E0,9.933527121E0
2.072523230E-1,1.189500093E-1,4.621950150E0,8.830050468E0,9.967264598E0
2.092155310E-1,1.189500093E-1,4.545000076E0,8.869050026E0,9.966505063E0
2.111787360E-1,1.189500093E-1,4.621950150E0,8.791950226E0,9.933527121E0
2.131419620E-1,1.189500093E-1,4.545000076E0,8.754000664E0,9.864263907E0
2.151052380E-1,1.570500135E-1,4.545000076E0,8.869050026E0,9.967032596E0
2.170685000E-1,1.570500135E-1,4.584000111E0,8.791950226E0,9.916456549E0
2.190318600E-1,1.570500135E-1,4.584000111E0,8.791950226E0,9.916456549E0
2.209951920E-1,1.960500032E-1,4.545000076E0,8.830050468E0,9.933038436E0
2.229584170E-1,1.570500135E-1,4.584000111E0,8.791950226E0,9.916456549E0
2.249216660E-1,1.570500135E-1,4.507050037E0,8.791950226E0,9.881121066E0
2.268848930E-1,1.960500032E-1,4.545000076E0,8.830050468E0,9.933038436E0
2.288481270E-1,1.960500032E-1,4.507050037E0,8.830050468E0,9.915731285E0
2.308117170E-1,1.960500032E-1,4.545000076E0,8.791950226E0,9.899184313E0
2.327752020E-1,1.570500135E-1,4.545000076E0,8.791950226E0,9.898488732E0
2.347387310E-1,1.570500135E-1,4.545000076E0,8.791950226E0,9.898488732E0
2.367022600E-1,1.960500032E-1,4.507050037E0,8.791950226E0,9.881817870E0
2.386656660E-1,1.570500135E-1,4.545000076E0,8.830050468E0,9.932345225E0
2.406291080E-1,1.570500135E-1,4.507050037E0,8.791950226E0,9.881121066E0
2.425924380E-1,1.570500135E-1,4.507050037E0,8.830050468E0,9.915036864E0
2.445558010E-1,1.570500135E-1,4.507050037E0,8.754000664E0,9.847369820E0
2.465189990E-1,1.960500032E-1,4.507050037E0,8.791950226E0,9.881817870E0
2.484822520E-1,1.570500135E-1,4.507050037E0,8.791950226E0,9.881121066E0
2.504456590E-1,1.960500032E-1,4.507050037E0,8.791950226E0,9.881817870E0
2.524090200E-1,1.570500135E-1,4.545000076E0,8.791950226E0,9.898488732E0
2.543720940E-1,1.960500032E-1,4.507050037E0,8.754000664E0,9.848069012E0
2.563352520E-1,1.570500135E-1,4.507050037E0,8.830050468E0,9.915036864E0
2.582985130E-1,1.570500135E-1,4.507050037E0,8.830050468E0,9.915036864E0
2.602617310E-1,1.960500032E-1,4.545000076E0,8.754000664E0,9.865494864E0
2.622251440E-1,1.570500135E-1,4.507050037E0,8.830050468E0,9.915036864E0
2.641885000E-1,1.570500135E-1,4.507050037E0,8.791950226E0,9.881121066E0
2.661517110E-1,1.960500032E-1,4.507050037E0,8.830050468E0,9.915731285E0
2.681149640E-1,1.570500135E-1,4.507050037E0,8.754000664E0,9.847369820E0
2.700785100E-1,1.570500135E-1,4.545000076E0,8.830050468E0,9.932345225E0
2.720419670E-1,1.570500135E-1,4.545000076E0,8.830050468E0,9.932345225E0
2.740053850E-1,1.570500135E-1,4.507050037E0,8.830050468E0,9.915036864E0
2.759688150E-1,1.570500135E-1,4.545000076E0,8.830050468E0,9.932345225E0
2.779323710E-1,1.570500135E-1,4.545000076E0,8.830050468E0,9.932345225E0
2.798958900E-1,1.960500032E-1,4.545000076E0,8.830050468E0,9.933038436E0
2.818588730E-1,1.570500135E-1,4.545000076E0,8.791950226E0,9.898488732E0
2.838220270E-1,1.570500135E-1,4.545000076E0,8.791950226E0,9.898488732E0
2.857852240E-1,2.340000123E-1,4.545000076E0,8.791950226E0,9.900008610E0
2.877484090E-1,1.960500032E-1,4.545000076E0,8.830050468E0,9.933038436E0
2.897116480E-1,1.570500135E-1,4.545000076E0,8.869050026E0,9.967032596E0
2.916748710E-1,1.960500032E-1,4.545000076E0,8.791950226E0,9.899184313E0
2.936380930E-1,1.570500135E-1,4.545000076E0,8.869050026E0,9.967032596E0
2.956013220E-1,1.570500135E-1,4.545000076E0,8.830050468E0,9.932345225E0
2.975645530E-1,1.570500135E-1,4.584000111E0,8.791950226E0,9.916456549E0
2.995277840E-1,1.570500135E-1,4.584000111E0,8.830050468E0,9.950251906E0
3.014910150E-1,1.570500135E-1,4.584000111E0,8.907000542E0,1.001860172E1
3.034542460E-1,1.570500135E-1,4.545000076E0,8.830050468E0,9.932345225E0
3.054173370E-1,1.570500135E-1,4.584000111E0,8.869050026E0,9.984877069E0
3.073804730E-1,1.189500093E-1,4.584000111E0,8.869050026E0,9.984350479E0
3.093436740E-1,1.960500032E-1,4.545000076E0,8.869050026E0,9.967723394E0
3.113068560E-1,1.570500135E-1,4.584000111E0,8.907000542E0,1.001860172E1
3.132703200E-1,1.570500135E-1,4.584000111E0,8.830050468E0,9.950251906E0
3.152337020E-1,1.960500032E-1,4.621950150E0,8.791950226E0,9.934749497E0
3.171969080E-1,1.570500135E-1,4.545000076E0,8.830050468E0,9.932345225E0
3.191601660E-1,1.570500135E-1,4.545000076E0,8.869050026E0,9.967032596E0
3.211235260E-1,1.960500032E-1,4.584000111E0,8.869050026E0,9.985566633E0
3.230868560E-1,1.570500135E-1,4.621950150E0,8.830050468E0,9.967792091E0
3.250501160E-1,1.570500135E-1,4.621950150E0,8.830050468E0,9.967792091E0
3.270133960E-1,1.570500135E-1,4.545000076E0,8.830050468E0,9.932345225E0
3.289764430E-1,1.570500135E-1,4.584000111E0,8.830050468E0,9.950251906E0
3.309395550E-1,1.960500032E-1,4.584000111E0,8.830050468E0,9.950943869E0
3.329029400E-1,2.340000123E-1,4.584000111E0,8.791950226E0,9.917973674E0
3.348662450E-1,1.570500135E-1,4.584000111E0,8.791950226E0,9.916456549E0
3.368296890E-1,1.570500135E-1,4.584000111E0,8.791950226E0,9.916456549E0
3.387930920E-1,1.570500135E-1,4.621950150E0,8.830050468E0,9.967792091E0
3.407564190E-1,1.960500032E-1,4.584000111E0,8.830050468E0,9.950943869E0
3.427197760E-1,1.570500135E-1,4.545000076E0,8.830050468E0,9.932345225E0
3.446828500E-1,1.570500135E-1,4.621950150E0,8.830050468E0,9.967792091E0
3.466460070E-1,1.960500032E-1,4.584000111E0,8.791950226E0,9.917150871E0
3.486092040E-1,1.570500135E-1,4.621950150E0,8.869050026E0,1.000235654E1
3.505723890E-1,1.189500093E-1,4.621950150E0,8.830050468E0,9.967264598E0
3.525351240E-1,1.570500135E-1,4.545000076E0,8.830050468E0,9.932345225E0
3.544979980E-1,1.570500135E-1,4.621950150E0,8.830050468E0,9.967792091E0
3.564612890E-1,8.100000024E-2,4.621950150E0,8.830050468E0,9.966883939E0
3.584244570E-1,8.100000024E-2,4.621950150E0,8.830050468E0,9.966883939E0
3.603875190E-1,1.189500093E-1,4.584000111E0,8.869050026E0,9.984350479E0
3.623506130E-1,1.189500093E-1,4.584000111E0,8.907000542E0,1.001807690E1
3.643138800E-1,1.189500093E-1,4.621950150E0,8.907000542E0,1.003549854E1
3.662770870E-1,1.189500093E-1,4.584000111E0,8.830050468E0,9.949723483E0
3.682406820E-1,1.189500093E-1,4.584000111E0,8.907000542E0,1.001807690E1
3.702041640E-1,1.189500093E-1,4.545000076E0,8.907000542E0,1.000029167E1
3.721674880E-1,1.570500135E-1,4.584000111E0,8.869050026E0,9.984877069E0
3.741308580E-1,1.570500135E-1,4.584000111E0,8.907000542E0,1.001860172E1
3.760939450E-1,1.189500093E-1,4.584000111E0,8.907000542E0,1.001807690E1
3.780571040E-1,1.570500135E-1,4.584000111E0,8.907000542E0,1.001860172E1
3.800201670E-1,1.189500093E-1,4.584000111E0,8.907000542E0,1.001807690E1
3.819832580E-1,1.960500032E-1,4.545000076E0,8.907000542E0,1.000150588E1
3.839463320E-1,1.570500135E-1,4.621950150E0,8.907000542E0,1.003602245E1
3.859094110E-1,1.189500093E-1,4.545000076E0,8.869050026E0,9.966505063E0
3.878724880E-1,1.189500093E-1,4.584000111E0,8.907000542E0,1.001807690E1
3.898355650E-1,1.570500135E-1,4.584000111E0,8.869050026E0,9.984877069E0
3.917985970E-1,1.570500135E-1,4.584000111E0,8.869050026E0,9.984877069E0
3.937616420E-1,1.960500032E-1,4.584000111E0,8.869050026E0,9.985566633E0
3.957247690E-1,1.570500135E-1,4.545000076E0,8.830050468E0,9.932345225E0
3.976878710E-1,1.960500032E-1,4.584000111E0,8.869050026E0,9.985566633E0
3.996514590E-1,1.570500135E-1,4.621950150E0,8.869050026E0,1.000235654E1
4.016149230E-1,1.189500093E-1,4.584000111E0,8.830050468E0,9.949723483E0
4.035781150E-1,1.570500135E-1,4.584000111E0,8.830050468E0,9.950251906E0
4.055413870E-1,1.189500093E-1,4.545000076E0,8.869050026E0,9.966505063E0
4.075043850E-1,1.570500135E-1,4.584000111E0,8.869050026E0,9.984877069E0
4.094674630E-1,1.189500093E-1,4.584000111E0,8.830050468E0,9.949723483E0
4.114305020E-1,1.570500135E-1,4.545000076E0,8.830050468E0,9.932345225E0
4.133935790E-1,1.570500135E-1,4.584000111E0,8.830050468E0,9.950251906E0
4.153570600E-1,1.570500135E-1,4.545000076E0,8.830050468E0,9.932345225E0
4.173204230E-1,1.570500135E-1,4.545000076E0,8.791950226E0,9.898488732E0
4.192836320E-1,1.189500093E-1,4.545000076E0,8.754000664E0,9.864263907E0
4.212468870E-1,1.189500093E-1,4.584000111E0,8.830050468E0,9.949723483E0
4.232102930E-1,1.570500135E-1,4.621950150E0,8.830050468E0,9.967792091E0
4.251736540E-1,1.189500093E-1,4.584000111E0,8.791950226E0,9.915926325E0
4.271368190E-1,1.570500135E-1,4.584000111E0,8.754000664E0,9.882825980E0
4.291000410E-1,1.570500135E-1,4.545000076E0,8.791950226E0,9.898488732E0
4.310634970E-1,1.570500135E-1,4.584000111E0,8.830050468E0,9.950251906E0
4.330268850E-1,1.570500135E-1,4.584000111E0,8.791950226E0,9.916456549E0
4.349902440E-1,1.960500032E-1,4.584000111E0,8.754000664E0,9.883522663E0
4.369535980E-1,1.189500093E-1,4.584000111E0,8.754000664E0,9.882293951E0
4.389170320E-1,1.960500032E-1,4.584000111E0,8.791950226E0,9.917150871E0
4.408804430E-1,1.570500135E-1,4.545000076E0,8.791950226E0,9.898488732E0
4.428438240E-1,1.960500032E-1,4.584000111E0,8.830050468E0,9.950943869E0
4.448072140E-1,1.570500135E-1,4.545000076E0,8.754000664E0,9.864796907E0
4.467707420E-1,2.340000123E-1,4.545000076E0,8.830050468E0,9.933859923E0
4.487342220E-1,1.570500135E-1,4.545000076E0,8.791950226E0,9.898488732E0
4.506972760E-1,1.960500032E-1,4.545000076E0,8.754000664E0,9.865494864E0
4.526604550E-1,1.570500135E-1,4.545000076E0,8.830050468E0,9.932345225E0
4.546238740E-1,1.960500032E-1,4.545000076E0,8.791950226E0,9.899184313E0
4.565872220E-1,1.570500135E-1,4.545000076E0,8.830050468E0,9.932345225E0
4.585504180E-1,1.570500135E-1,4.584000111E0,8.830050468E0,9.950251906E0
4.605136700E-1,1.960500032E-1,4.545000076E0,8.830050468E0,9.933038436E0
4.624770320E-1,1.570500135E-1,4.545000076E0,8.791950226E0,9.898488732E0
4.644403610E-1,1.960500032E-1,4.545000076E0,8.869050026E0,9.967723394E0
4.664039810E-1,1.960500032E-1,4.545000076E0,8.791950226E0,9.899184313E0
4.683675150E-1,1.960500032E-1,4.545000076E0,8.830050468E0,9.933038436E0
4.703308350E-1,1.570500135E-1,4.545000076E0,8.830050468E0,9.932345225E0
4.722942140E-1,1.570500135E-1,4.621950150E0,8.830050468E0,9.967792091E0
4.742574640E-1,1.189500093E-1,4.584000111E0,8.869050026E0,9.984350479E0
4.762207520E-1,1.570500135E-1,4.545000076E0,8.791950226E0,9.898488732E0
4.781843320E-1,1.189500093E-1,4.584000111E0,8.791950226E0,9.915926325E0
4.801478270E-1,1.960500032E-1,4.621950150E0,8.869050026E0,1.000304489E1
4.821109740E-1,1.570500135E-1,4.545000076E0,8.869050026E0,9.967032596E0
4.840742190E-1,1.189500093E-1,4.545000076E0,8.830050468E0,9.931815850E0
4.860374470E-1,1.960500032E-1,4.584000111E0,8.830050468E0,9.950943869E0
4.880006800E-1,1.960500032E-1,4.584000111E0,8.754000664E0,9.883522663E0
4.899640900E-1,1.960500032E-1,4.621950150E0,8.830050468E0,9.968482837E0
4.919274480E-1,1.960500032E-1,4.584000111E0,8.791950226E0,9.917150871E0
4.938905170E-1,1.960500032E-1,4.584000111E0,8.830050468E0,9.950943869E0
4.958536750E-1,1.960500032E-1,4.584000111E0,8.869050026E0,9.985566633E0
4.978169170E-1,1.960500032E-1,4.584000111E0,8.869050026E0,9.985566633E0
4.997801350E-1,1.960500032E-1,4.584000111E0,8.869050026E0,9.985566633E0
5.017435480E-1,1.960500032E-1,4.545000076E0,8.791950226E0,9.899184313E0
5.037069040E-1,1.960500032E-1,4.545000076E0,8.791950226E0,9.899184313E0
5.056700650E-1,1.960500032E-1,4.584000111E0,8.869050026E0,9.985566633E0
5.076332860E-1,1.960500032E-1,4.584000111E0,8.830050468E0,9.950943869E0
5.095966970E-1,1.960500032E-1,4.621950150E0,8.830050468E0,9.968482837E0
5.115600530E-1,1.960500032E-1,4.545000076E0,8.830050468E0,9.933038436E0
5.135234420E-1,1.960500032E-1,4.584000111E0,8.791950226E0,9.917150871E0
5.154868220E-1,1.960500032E-1,4.584000111E0,8.791950226E0,9.917150871E0
5.174500640E-1,1.960500032E-1,4.660050392E0,8.754000664E0,9.919023787E0
5.194133530E-1,1.570500135E-1,4.584000111E0,8.791950226E0,9.916456549E0
5.213767080E-1,1.570500135E-1,4.584000111E0,8.754000664E0,9.882825980E0
5.233400430E-1,1.189500093E-1,4.621950150E0,8.791950226E0,9.933527121E0
5.253033020E-1,1.570500135E-1,4.621950150E0,8.791950226E0,9.934056405E0
5.272665840E-1,1.570500135E-1,4.621950150E0,8.830050468E0,9.967792091E0
5.292300050E-1,1.570500135E-1,4.584000111E0,8.830050468E0,9.950251906E0
5.311933710E-1,1.189500093E-1,4.584000111E0,8.830050468E0,9.949723483E0
5.331570740E-1,1.189500093E-1,4.584000111E0,8.869050026E0,9.984350479E0
5.351206790E-1,1.960500032E-1,4.545000076E0,8.830050468E0,9.933038436E0
5.370842520E-1,1.570500135E-1,4.545000076E0,8.869050026E0,9.967032596E0
5.390478340E-1,1.960500032E-1,4.545000076E0,8.830050468E0,9.933038436E0
5.410113650E-1,1.960500032E-1,4.545000076E0,8.907000542E0,1.000150588E1
5.429749110E-1,1.960500032E-1,4.545000076E0,8.907000542E0,1.000150588E1
5.449385820E-1,1.960500032E-1,4.507050037E0,8.907000542E0,9.984317417E0
5.469022170E-1,1.960500032E-1,4.507050037E0,8.944950104E0,1.001818686E1
5.488657400E-1,1.960500032E-1,4.545000076E0,8.907000542E0,1.000150588E1
5.508292960E-1,1.960500032E-1,4.545000076E0,8.983950615E0,1.007009583E1
5.527928110E-1,2.340000123E-1,4.545000076E0,8.944950104E0,1.003613043E1
5.547563530E-1,1.960500032E-1,4.584000111E0,8.944950104E0,1.005304058E1
5.567197100E-1,1.960500032E-1,4.507050037E0,8.944950104E0,1.001818686E1
5.586831220E-1,1.960500032E-1,4.507050037E0,8.907000542E0,9.984317417E0
5.606463670E-1,2.340000123E-1,4.507050037E0,8.907000542E0,9.985134686E0
5.626096610E-1,1.960500032E-1,4.507050037E0,8.907000542E0,9.984317417E0
5.645731570E-1,1.960500032E-1,4.545000076E0,8.907000542E0,1.000150588E1
5.665366210E-1,1.570500135E-1,4.545000076E0,8.869050026E0,9.967032596E0
5.684998580E-1,1.570500135E-1,4.545000076E0,8.830050468E0,9.932345225E0
5.704631610E-1,1.189500093E-1,4.584000111E0,8.791950226E0,9.915926325E0
5.724263800E-1,1.189500093E-1,4.545000076E0,8.869050026E0,9.966505063E0
5.743896230E-1,1.189500093E-1,4.545000076E0,8.830050468E0,9.931815850E0
5.763528410E-1,1.189500093E-1,4.545000076E0,8.791950226E0,9.897957545E0
5.783160740E-1,1.189500093E-1,4.545000076E0,8.830050468E0,9.931815850E0
5.802797990E-1,8.100000024E-2,4.621950150E0,8.830050468E0,9.966883939E0
5.822433800E-1,4.200000316E-2,4.621950150E0,8.754000664E0,9.899329008E0
5.842069570E-1,8.100000024E-2,4.621950150E0,8.869050026E0,1.000145152E1
5.861705360E-1,4.200000316E-2,4.621950150E0,8.791950226E0,9.932903702E0
5.881340410E-1,8.100000024E-2,4.584000111E0,8.830050468E0,9.949342154E0
5.900975550E-1,4.200000316E-2,4.584000111E0,8.791950226E0,9.915301800E0
5.920607820E-1,8.100000024E-2,4.621950150E0,8.791950226E0,9.933145169E0
5.940240930E-1,8.100000024E-2,4.621950150E0,8.754000664E0,9.899571294E0
5.959871300E-1,8.100000024E-2,4.621950150E0,8.830050468E0,9.966883939E0
5.979502470E-1,8.100000024E-2,4.621950150E0,8.754000664E0,9.899571294E0
5.999138270E-1,8.100000024E-2,4.584000111E0,8.754000664E0,9.881910020E0
6.018772600E-1,1.570500135E-1,4.584000111E0,8.791950226E0,9.916456549E0
6.038408170E-1,8.100000024E-2,4.584000111E0,8.754000664E0,9.881910020E0
6.058043370E-1,1.189500093E-1,4.621950150E0,8.754000664E0,9.899954541E0
6.077680590E-1,1.570500135E-1,4.584000111E0,8.754000664E0,9.882825980E0
6.097317220E-1,1.570500135E-1,4.584000111E0,8.791950226E0,9.916456549E0
6.116952900E-1,1.570500135E-1,4.545000076E0,8.754000664E0,9.864796907E0
6.136588820E-1,1.189500093E-1,4.545000076E0,8.754000664E0,9.864263907E0
6.156223660E-1,1.570500135E-1,4.545000076E0,8.791950226E0,9.898488732E0
6.175858820E-1,1.570500135E-1,4.545000076E0,8.754000664E0,9.864796907E0
6.195494230E-1,1.570500135E-1,4.584000111E0,8.754000664E0,9.882825980E0
6.215129570E-1,1.189500093E-1,4.545000076E0,8.715000153E0,9.829669499E0
6.234763530E-1,1.189500093E-1,4.584000111E0,8.715000153E0,9.847762882E0
6.254397960E-1,1.570500135E-1,4.584000111E0,8.754000664E0,9.882825980E0
6.274034850E-1,1.570500135E-1,4.545000076E0,8.754000664E0,9.864796907E0
6.293671010E-1,1.570500135E-1,4.545000076E0,8.754000664E0,9.864796907E0
6.313304470E-1,1.570500135E-1,4.545000076E0,8.754000664E0,9.864796907E0
6.332938730E-1,1.960500032E-1,4.584000111E0,8.715000153E0,9.848995902E0
6.352572360E-1,1.960500032E-1,4.584000111E0,8.791950226E0,9.917150871E0
6.372206280E-1,1.189500093E-1,4.584000111E0,8.754000664E0,9.882293951E0
6.391843700E-1,1.570500135E-1,4.584000111E0,8.754000664E0,9.882825980E0
6.411480100E-1,1.570500135E-1,4.621950150E0,8.754000664E0,9.900485620E0
6.431117570E-1,1.570500135E-1,4.621950150E0,8.754000664E0,9.900485620E0
6.450754720E-1,8.100000024E-2,4.584000111E0,8.791950226E0,9.915543696E0
6.470387650E-1,4.200000316E-2,4.660050392E0,8.754000664E0,9.917175065E0
6.490021750E-1,8.100000024E-2,4.584000111E0,8.830050468E0,9.949342154E0
6.509657340E-1,1.189500093E-1,4.621950150E0,8.830050468E0,9.967264598E0
6.529292500E-1,1.189500093E-1,4.621950150E0,8.754000664E0,9.899954541E0
6.548929730E-1,1.189500093E-1,4.621950150E0,8.791950226E0,9.933527121E0
6.568566350E-1,8.100000024E-2,4.660050392E0,8.791950226E0,9.950930581E0
6.588198380E-1,1.189500093E-1,4.584000111E0,8.791950226E0,9.915926325E0
6.607831750E-1,1.189500093E-1,4.621950150E0,8.830050468E0,9.967264598E0
6.627465670E-1,1.189500093E-1,4.621950150E0,8.830050468E0,9.967264598E0
6.647099430E-1,1.189500093E-1,4.584000111E0,8.869050026E0,9.984350479E0
6.666733290E-1,1.189500093E-1,4.621950150E0,8.830050468E0,9.967264598E0
6.686367120E-1,1.189500093E-1,4.660050392E0,8.791950226E0,9.951311850E0
6.705999310E-1,8.100000024E-2,4.621950150E0,8.869050026E0,1.000145152E1
6.725631890E-1,1.189500093E-1,4.584000111E0,8.869050026E0,9.984350479E0
6.745265500E-1,1.189500093E-1,4.621950150E0,8.907000542E0,1.003549854E1
6.764898800E-1,1.189500093E-1,4.621950150E0,8.869050026E0,1.000183087E1
6.784529590E-1,8.100000024E-2,4.621950150E0,8.869050026E0,1.000145152E1
6.804161120E-1,8.100000024E-2,4.660050392E0,8.869050026E0,1.001911568E1
6.823793550E-1,8.100000024E-2,4.621950150E0,8.869050026E0,1.000145152E1
6.843425720E-1,1.189500093E-1,4.621950150E0,8.869050026E0,1.000183087E1
6.863055810E-1,8.100000024E-2,4.584000111E0,8.869050026E0,9.983970472E0
6.882686510E-1,8.100000024E-2,4.621950150E0,8.869050026E0,1.000145152E1
6.902317280E-1,8.100000024E-2,4.584000111E0,8.907000542E0,1.001769817E1
6.921948030E-1,1.189500093E-1,4.545000076E0,8.907000542E0,1.000029167E1
6.941579310E-1,1.189500093E-1,4.584000111E0,8.944950104E0,1.005183259E1
6.961210390E-1,1.189500093E-1,4.545000076E0,8.944950104E0,1.003410719E1
6.980846510E-1,8.100000024E-2,4.584000111E0,8.944950104E0,1.005145514E1
7.000481150E-1,1.189500093E-1,4.584000111E0,8.944950104E0,1.005183259E1
7.020114880E-1,8.100000024E-2,4.584000111E0,8.944950104E0,1.005145514E1
7.039748870E-1,1.570500135E-1,4.545000076E0,8.907000542E0,1.000081742E1
7.059384580E-1,1.189500093E-1,4.545000076E0,8.944950104E0,1.003410719E1
7.079019720E-1,1.189500093E-1,4.584000111E0,8.983950615E0,1.008655416E1
7.098654710E-1,8.100000024E-2,4.545000076E0,8.944950104E0,1.003372907E1
7.118289740E-1,1.189500093E-1,4.507050037E0,8.944950104E0,1.001697467E1
7.137925180E-1,1.189500093E-1,4.545000076E0,8.944950104E0,1.003410719E1
7.157560490E-1,1.570500135E-1,4.545000076E0,8.907000542E0,1.000081742E1
7.177194500E-1,1.570500135E-1,4.468950272E0,8.944950104E0,1.000041567E1
7.196828920E-1,1.570500135E-1,4.507050037E0,8.907000542E0,9.983627767E0
7.216464010E-1,1.189500093E-1,4.507050037E0,8.907000542E0,9.983101111E0
7.236098900E-1,1.570500135E-1,4.507050037E0,8.944950104E0,1.001749954E1
7.255730770E-1,1.189500093E-1,4.507050037E0,8.869050026E0,9.949256128E0
7.275363530E-1,1.960500032E-1,4.507050037E0,8.944950104E0,1.001818686E1
7.294996310E-1,1.960500032E-1,4.507050037E0,8.983950615E0,1.005302463E1
7.314629020E-1,1.570500135E-1,4.507050037E0,8.944950104E0,1.001749954E1
7.334263050E-1,2.340000123E-1,4.468950272E0,8.907000542E0,9.967995344E0
7.353896690E-1,1.960500032E-1,4.468950272E0,8.983950615E0,1.003600123E1
7.373530570E-1,1.960500032E-1,4.468950272E0,8.907000542E0,9.967176671E0
7.393164380E-1,1.960500032E-1,4.468950272E0,8.907000542E0,9.967176671E0
7.412796580E-1,2.340000123E-1,4.468950272E0,8.944950104E0,1.000192006E1
7.432429160E-1,2.340000123E-1,4.468950272E0,8.907000542E0,9.967995344E0
7.452062760E-1,2.340000123E-1,4.468950272E0,8.830050468E0,9.899296127E0
7.471696060E-1,1.960500032E-1,4.468950272E0,8.907000542E0,9.967176671E0
7.491330000E-1,1.960500032E-1,4.468950272E0,8.830050468E0,9.898471771E0
7.510963750E-1,2.340000123E-1,4.468950272E0,8.869050026E0,9.934098897E0
7.530599950E-1,1.960500032E-1,4.545000076E0,8.869050026E0,9.967723394E0
7.550235050E-1,1.960500032E-1,4.545000076E0,8.791950226E0,9.899184313E0
7.569870940E-1,1.960500032E-1,4.507050037E0,8.830050468E0,9.915731285E0
7.589506590E-1,2.340000123E-1,4.507050037E0,8.791950226E0,9.882643615E0
7.609140140E-1,2.340000123E-1,4.468950272E0,8.791950226E0,9.865326214E0
7.628774300E-1,2.340000123E-1,4.545000076E0,8.791950226E0,9.900008610E0
7.648405930E-1,2.719500065E-1,4.507050037E0,8.791950226E0,9.883615008E0
7.668038240E-1,2.340000123E-1,4.507050037E0,8.791950226E0,9.882643615E0
7.687670550E-1,2.340000123E-1,4.545000076E0,8.754000664E0,9.866321975E0
7.707302860E-1,2.340000123E-1,4.507050037E0,8.791950226E0,9.882643615E0
7.726933810E-1,2.340000123E-1,4.545000076E0,8.791950226E0,9.900008610E0
7.746565160E-1,2.719500065E-1,4.507050037E0,8.830050468E0,9.917522277E0
7.766197370E-1,2.719500065E-1,4.545000076E0,8.791950226E0,9.900978299E0
7.785829190E-1,2.719500065E-1,4.507050037E0,8.791950226E0,9.883615008E0
7.805463830E-1,2.719500065E-1,4.507050037E0,8.791950226E0,9.883615008E0
7.825097650E-1,2.719500065E-1,4.507050037E0,8.869050026E0,9.952261311E0
7.844732850E-1,2.340000123E-1,4.545000076E0,8.830050468E0,9.933859923E0
7.864367650E-1,2.719500065E-1,4.545000076E0,8.791950226E0,9.900978299E0
7.883998230E-1,2.719500065E-1,4.545000076E0,8.830050468E0,9.934826308E0
7.903630020E-1,2.719500065E-1,4.507050037E0,8.791950226E0,9.883615008E0
7.923260160E-1,2.719500065E-1,4.545000076E0,8.830050468E0,9.934826308E0
7.942890790E-1,3.109500110E-1,4.545000076E0,8.791950226E0,9.902126255E0
7.962522020E-1,2.340000123E-1,4.545000076E0,8.869050026E0,9.968542023E0
7.982153080E-1,2.340000123E-1,4.545000076E0,8.830050468E0,9.933859923E0
8.001783310E-1,2.340000123E-1,4.545000076E0,8.869050026E0,9.968542023E0
8.021413820E-1,2.340000123E-1,4.545000076E0,8.830050468E0,9.933859923E0
8.041048230E-1,2.340000123E-1,4.584000111E0,8.869050026E0,9.986383799E0
8.060681490E-1,2.340000123E-1,4.545000076E0,8.830050468E0,9.933859923E0
8.080315440E-1,2.719500065E-1,4.584000111E0,8.791950226E0,9.918941607E0
8.099949180E-1,2.719500065E-1,4.584000111E0,8.830050468E0,9.952728525E0
8.119582950E-1,2.340000123E-1,4.545000076E0,8.791950226E0,9.900008610E0
8.139216780E-1,1.960500032E-1,4.584000111E0,8.830050468E0,9.950943869E0
8.158849290E-1,2.340000123E-1,4.584000111E0,8.830050468E0,9.951763879E0
8.178482190E-1,2.340000123E-1,4.545000076E0,8.791950226E0,9.900008610E0
8.198116190E-1,1.570500135E-1,4.621950150E0,8.830050468E0,9.967792091E0
8.217749860E-1,2.340000123E-1,4.545000076E0,8.830050468E0,9.933859923E0
8.237381640E-1,2.719500065E-1,4.584000111E0,8.715000153E0,9.850799027E0
8.257013870E-1,1.960500032E-1,4.584000111E0,8.791950226E0,9.917150871E0
8.276646180E-1,1.960500032E-1,4.621950150E0,8.869050026E0,1.000304489E1
8.296278460E-1,1.570500135E-1,4.621950150E0,8.830050468E0,9.967792091E0
8.315910780E-1,1.570500135E-1,4.584000111E0,8.791950226E0,9.916456549E0
8.335543080E-1,1.960500032E-1,4.621950150E0,8.830050468E0,9.968482837E0
8.355173940E-1,1.960500032E-1,4.584000111E0,8.869050026E0,9.985566633E0
8.374805300E-1,1.960500032E-1,4.621950150E0,8.869050026E0,1.000304489E1
8.394439570E-1,1.960500032E-1,4.621950150E0,8.869050026E0,1.000304489E1
8.414072980E-1,1.960500032E-1,4.584000111E0,8.869050026E0,9.985566633E0
8.433705110E-1,1.960500032E-1,4.545000076E0,8.869050026E0,9.967723394E0
8.453337610E-1,1.570500135E-1,4.584000111E0,8.869050026E0,9.984877069E0
8.472970130E-1,1.960500032E-1,4.584000111E0,8.830050468E0,9.950943869E0
8.492602470E-1,1.960500032E-1,4.584000111E0,8.907000542E0,1.001928896E1
8.512236110E-1,1.570500135E-1,4.584000111E0,8.869050026E0,9.984877069E0
8.531869370E-1,1.960500032E-1,4.545000076E0,8.830050468E0,9.933038436E0
8.551503770E-1,1.960500032E-1,4.584000111E0,8.791950226E0,9.917150871E0
8.571137830E-1,1.570500135E-1,4.621950150E0,8.791950226E0,9.934056405E0
8.590773040E-1,1.960500032E-1,4.545000076E0,8.869050026E0,9.967723394E0
8.610407880E-1,1.960500032E-1,4.584000111E0,8.791950226E0,9.917150871E0
8.630043360E-1,1.960500032E-1,4.584000111E0,8.791950226E0,9.917150871E0
8.649678650E-1,1.960500032E-1,4.621950150E0,8.791950226E0,9.934749497E0
8.669312710E-1,1.570500135E-1,4.584000111E0,8.791950226E0,9.916456549E0
8.688947130E-1,1.960500032E-1,4.545000076E0,8.830050468E0,9.933038436E0
8.708580720E-1,2.340000123E-1,4.584000111E0,8.869050026E0,9.986383799E0
8.728214350E-1,1.570500135E-1,4.545000076E0,8.791950226E0,9.898488732E0
8.747846430E-1,1.189500093E-1,4.584000111E0,8.830050468E0,9.949723483E0
8.767478960E-1,1.960500032E-1,4.584000111E0,8.791950226E0,9.917150871E0
8.787116630E-1,1.570500135E-1,4.584000111E0,8.869050026E0,9.984877069E0
8.806752790E-1,1.189500093E-1,4.584000111E0,8.869050026E0,9.984350479E0
8.826384750E-1,1.570500135E-1,4.545000076E0,8.830050468E0,9.932345225E0
8.846018040E-1,1.570500135E-1,4.545000076E0,8.830050468E0,9.932345225E0
8.865653770E-1,1.570500135E-1,4.545000076E0,8.830050468E0,9.932345225E0
8.885288790E-1,1.189500093E-1,4.584000111E0,8.830050468E0,9.949723483E0
8.904920190E-1,1.189500093E-1,4.545000076E0,8.830050468E0,9.931815850E0
8.924552660E-1,1.570500135E-1,4.621950150E0,8.791950226E0,9.934056405E0
8.944186390E-1,1.570500135E-1,4.545000076E0,8.791950226E0,9.898488732E0
8.963819990E-1,1.570500135E-1,4.545000076E0,8.791950226E0,9.898488732E0
8.983452540E-1,1.189500093E-1,4.545000076E0,8.869050026E0,9.966505063E0
9.003085400E-1,1.189500093E-1,4.545000076E0,8.715000153E0,9.829669499E0
9.022719400E-1,1.570500135E-1,4.545000076E0,8.830050468E0,9.932345225E0
9.042353070E-1,1.570500135E-1,4.507050037E0,8.791950226E0,9.881121066E0
9.061986850E-1,8.100000024E-2,4.584000111E0,8.830050468E0,9.949342154E0
9.081620660E-1,1.570500135E-1,4.621950150E0,8.754000664E0,9.900485620E0
9.101254070E-1,8.100000024E-2,4.584000111E0,8.791950226E0,9.915543696E0
9.120887600E-1,1.189500093E-1,4.584000111E0,8.754000664E0,9.882293951E0
9.140521950E-1,1.570500135E-1,4.545000076E0,8.830050468E0,9.932345225E0
9.160156050E-1,1.189500093E-1,4.584000111E0,8.791950226E0,9.915926325E0
9.179789910E-1,1.570500135E-1,4.584000111E0,8.830050468E0,9.950251906E0
9.199423810E-1,1.189500093E-1,4.584000111E0,8.830050468E0,9.949723483E0
9.219057190E-1,1.189500093E-1,4.621950150E0,8.830050468E0,9.967264598E0
9.238690730E-1,1.189500093E-1,4.584000111E0,8.830050468E0,9.949723483E0
9.258321470E-1,1.189500093E-1,4.621950150E0,8.830050468E0,9.967264598E0
9.277953040E-1,1.189500093E-1,4.621950150E0,8.791950226E0,9.933527121E0
9.297583530E-1,8.100000024E-2,4.621950150E0,8.830050468E0,9.966883939E0
9.317214440E-1,1.189500093E-1,4.584000111E0,8.830050468E0,9.949723483E0
9.336848330E-1,1.189500093E-1,4.584000111E0,8.830050468E0,9.949723483E0
9.356481340E-1,1.570500135E-1,4.621950150E0,8.791950226E0,9.934056405E0
9.376115780E-1,1.189500093E-1,4.621950150E0,8.791950226E0,9.933527121E0
9.395749800E-1,1.189500093E-1,4.584000111E0,8.830050468E0,9.949723483E0
9.415382700E-1,1.570500135E-1,4.584000111E0,8.830050468E0,9.950251906E0
9.435016270E-1,1.570500135E-1,4.584000111E0,8.830050468E0,9.950251906E0
9.454648360E-1,1.189500093E-1,4.621950150E0,8.791950226E0,9.933527121E0
9.474280880E-1,1.960500032E-1,4.621950150E0,8.791950226E0,9.934749497E0
9.493915390E-1,1.189500093E-1,4.621950150E0,8.830050468E0,9.967264598E0
9.513549320E-1,1.189500093E-1,4.660050392E0,8.791950226E0,9.951311850E0
9.533181400E-1,8.100000024E-2,4.660050392E0,8.791950226E0,9.950930581E0
9.552814000E-1,1.189500093E-1,4.621950150E0,8.830050468E0,9.967264598E0
9.572449400E-1,1.570500135E-1,4.621950150E0,8.791950226E0,9.934056405E0
9.592083980E-1,1.570500135E-1,4.660050392E0,8.830050468E0,9.985515792E0
9.611717710E-1,1.570500135E-1,4.660050392E0,8.830050468E0,9.985515792E0
9.631351690E-1,1.570500135E-1,4.584000111E0,8.869050026E0,9.984877069E0
9.650987170E-1,1.189500093E-1,4.621950150E0,8.830050468E0,9.967264598E0
9.670622300E-1,1.570500135E-1,4.584000111E0,8.869050026E0,9.984877069E0
9.690259530E-1,1.570500135E-1,4.584000111E0,8.791950226E0,9.916456549E0
9.709896150E-1,1.570500135E-1,4.545000076E0,8.830050468E0,9.932345225E0
9.729529980E-1,1.960500032E-1,4.584000111E0,8.791950226E0,9.917150871E0
9.749164630E-1,1.570500135E-1,4.621950150E0,8.869050026E0,1.000235654E1
9.768799970E-1,1.189500093E-1,4.584000111E0,8.830050468E0,9.949723483E0
9.788434900E-1,1.960500032E-1,4.621950150E0,8.830050468E0,9.968482837E0
9.808069020E-1,1.189500093E-1,4.584000111E0,8.869050026E0,9.984350479E0
9.827703380E-1,1.960500032E-1,4.545000076E0,8.907000542E0,1.000150588E1
9.847338930E-1,1.960500032E-1,4.621950150E0,8.907000542E0,1.003670850E1
9.866974130E-1,1.960500032E-1,4.621950150E0,8.869050026E0,1.000304489E1
9.886606140E-1,1.570500135E-1,4.621950150E0,8.869050026E0,1.000235654E1
9.906238950E-1,1.960500032E-1,4.584000111E0,8.907000542E0,1.001928896E1
9.925874310E-1,1.189500093E-1,4.545000076E0,8.907000542E0,1.000029167E1
9.945508930E-1,1.960500032E-1,4.545000076E0,8.869050026E0,9.967723394E0
9.965146250E-1,1.960500032E-1,4.584000111E0,8.944950104E0,1.005304058E1
9.984782780E-1,1.570500135E-1,4.584000111E0,8.907000542E0,1.001860172E1
1.000441857E0,1.570500135E-1,4.584000111E0,8.944950104E0,1.005235565E1
1.002405448E0,1.570500135E-1,4.621950150E0,8.907000542E0,1.003602245E1
1.004368572E0,1.570500135E-1,4.584000111E0,8.907000542E0,1.001860172E1
1.006331833E0,1.570500135E-1,4.545000076E0,8.907000542E0,1.000081742E1
1.008295463E0,1.189500093E-1,4.584000111E0,8.907000542E0,1.001807690E1
1.010258984E0,1.189500093E-1,4.584000111E0,8.907000542E0,1.001807690E1
1.012222678E0,1.570500135E-1,4.584000111E0,8.907000542E0,1.001860172E1
1.014186341E0,1.960500032E-1,4.584000111E0,8.944950104E0,1.005304058E1
1.016149859E0,1.960500032E-1,4.621950150E0,8.907000542E0,1.003670850E1
1.018113420E0,1.960500032E-1,4.545000076E0,8.907000542E0,1.000150588E1
1.020076909E0,1.570500135E-1,4.545000076E0,8.944950104E0,1.003463117E1
1.022040420E0,1.960500032E-1,4.545000076E0,8.944950104E0,1.003531732E1
1.024003842E0,2.340000123E-1,4.584000111E0,8.907000542E0,1.002010338E1
1.025967280E0,2.340000123E-1,4.545000076E0,8.944950104E0,1.003613043E1
1.027930655E0,2.340000123E-1,4.545000076E0,8.830050468E0,9.933859923E0
1.029894049E0,1.960500032E-1,4.545000076E0,8.869050026E0,9.967723394E0
1.031857432E0,1.960500032E-1,4.545000076E0,8.907000542E0,1.000150588E1
1.033820819E0,1.960500032E-1,4.545000076E0,8.830050468E0,9.933038436E0
1.035784363E0,1.960500032E-1,4.545000076E0,8.869050026E0,9.967723394E0
1.037747875E0,1.960500032E-1,4.584000111E0,8.869050026E0,9.985566633E0
1.039711374E0,1.570500135E-1,4.545000076E0,8.830050468E0,9.932345225E0
1.041674877E0,1.570500135E-1,4.545000076E0,8.830050468E0,9.932345225E0
1.043638286E0,1.570500135E-1,4.584000111E0,8.830050468E0,9.950251906E0
1.045601723E0,1.960500032E-1,4.545000076E0,8.791950226E0,9.899184313E0
1.047565403E0,1.960500032E-1,4.545000076E0,8.791950226E0,9.899184313E0
1.049529018E0,1.960500032E-1,4.545000076E0,8.830050468E0,9.933038436E0
1.051492769E0,1.960500032E-1,4.584000111E0,8.830050468E0,9.950943869E0
1.053456480E0,2.340000123E-1,4.545000076E0,8.791950226E0,9.900008610E0
1.055420170E0,2.340000123E-1,4.545000076E0,8.791950226E0,9.900008610E0
1.057383867E0,1.960500032E-1,4.545000076E0,8.830050468E0,9.933038436E0
1.059347544E0,1.570500135E-1,4.545000076E0,8.754000664E0,9.864796907E0
1.061311237E0,1.960500032E-1,4.584000111E0,8.754000664E0,9.883522663E0
1.063274884E0,2.340000123E-1,4.545000076E0,8.754000664E0,9.866321975E0
1.065238545E0,2.340000123E-1,4.545000076E0,8.754000664E0,9.866321975E0
1.067202062E0,2.340000123E-1,4.584000111E0,8.754000664E0,9.884348266E0
1.069165622E0,2.340000123E-1,4.545000076E0,8.754000664E0,9.866321975E0
1.071129182E0,2.340000123E-1,4.545000076E0,8.715000153E0,9.831734809E0
1.073092755E0,2.340000123E-1,4.545000076E0,8.754000664E0,9.866321975E0
1.075056244E0,2.340000123E-1,4.584000111E0,8.754000664E0,9.884348266E0
1.077019757E0,2.340000123E-1,4.545000076E0,8.754000664E0,9.866321975E0
1.078983479E0,2.340000123E-1,4.545000076E0,8.754000664E0,9.866321975E0
1.080947139E0,2.719500065E-1,4.584000111E0,8.715000153E0,9.850799027E0
1.082910492E0,2.719500065E-1,4.545000076E0,8.715000153E0,9.832711231E0
1.084873925E0,1.960500032E-1,4.545000076E0,8.715000153E0,9.830904788E0
1.086837660E0,2.719500065E-1,4.584000111E0,8.715000153E0,9.850799027E0
1.088801307E0,2.340000123E-1,4.545000076E0,8.754000664E0,9.866321975E0
1.090765052E0,1.960500032E-1,4.584000111E0,8.715000153E0,9.848995902E0
1.092728769E0,2.340000123E-1,4.545000076E0,8.677050591E0,9.798111484E0
1.094692592E0,2.719500065E-1,4.584000111E0,8.791950226E0,9.918941607E0
1.096656384E0,2.340000123E-1,4.545000076E0,8.715000153E0,9.831734809E0
1.098619745E0,1.960500032E-1,4.584000111E0,8.754000664E0,9.883522663E0
1.100583232E0,1.960500032E-1,4.584000111E0,8.715000153E0,9.848995902E0
1.102546733E0,2.340000123E-1,4.584000111E0,8.754000664E0,9.884348266E0
1.104510230E0,1.960500032E-1,4.584000111E0,8.715000153E0,9.848995902E0
1.106473747E0,2.340000123E-1,4.584000111E0,8.677050591E0,9.816263035E0
1.108437278E0,1.960500032E-1,4.584000111E0,8.715000153E0,9.848995902E0
1.110400863E0,1.960500032E-1,4.584000111E0,8.715000153E0,9.848995902E0
1.112364432E0,1.960500032E-1,4.584000111E0,8.715000153E0,9.848995902E0
1.114327966E0,2.340000123E-1,4.584000111E0,8.754000664E0,9.884348266E0
1.116291511E0,2.340000123E-1,4.584000111E0,8.754000664E0,9.884348266E0
1.118255188E0,1.960500032E-1,4.621950150E0,8.715000153E0,9.866716092E0
1.120218822E0,2.340000123E-1,4.621950150E0,8.754000664E0,9.902005191E0
1.122182390E0,1.960500032E-1,4.584000111E0,8.754000664E0,9.883522663E0
1.124145978E0,1.960500032E-1,4.584000111E0,8.754000664E0,9.883522663E0
1.126109822E0,1.960500032E-1,4.621950150E0,8.754000664E0,9.901181061E0
1.128073591E0,1.960500032E-1,4.584000111E0,8.715000153E0,9.848995902E0
1.130037150E0,1.570500135E-1,4.621950150E0,8.791950226E0,9.934056405E0
1.132000761E0,1.960500032E-1,4.584000111E0,8.754000664E0,9.883522663E0
1.133964107E0,2.340000123E-1,4.545000076E0,8.754000664E0,9.866321975E0
1.135927530E0,1.960500032E-1,4.584000111E0,8.754000664E0,9.883522663E0
1.137891042E0,1.570500135E-1,4.584000111E0,8.791950226E0,9.916456549E0
1.139854528E0,1.570500135E-1,4.545000076E0,8.754000664E0,9.864796907E0
1.141818116E0,1.960500032E-1,4.584000111E0,8.791950226E0,9.917150871E0
1.143781677E0,1.570500135E-1,4.584000111E0,8.791950226E0,9.916456549E0
1.145745032E0,1.960500032E-1,4.584000111E0,8.791950226E0,9.917150871E0
1.147708448E0,1.570500135E-1,4.584000111E0,8.791950226E0,9.916456549E0
1.149671961E0,1.960500032E-1,4.621950150E0,8.830050468E0,9.968482837E0
1.151635446E0,1.570500135E-1,4.584000111E0,8.830050468E0,9.950251906E0
1.153598874E0,1.570500135E-1,4.584000111E0,8.907000542E0,1.001860172E1
1.155562309E0,1.960500032E-1,4.584000111E0,8.791950226E0,9.917150871E0
1.157525640E0,1.570500135E-1,4.584000111E0,8.791950226E0,9.916456549E0
1.159489002E0,1.570500135E-1,4.545000076E0,8.869050026E0,9.967032596E0
1.161452255E0,1.960500032E-1,4.545000076E0,8.869050026E0,9.967723394E0
1.163415540E0,1.570500135E-1,4.621950150E0,8.830050468E0,9.967792091E0
1.165378892E0,1.189500093E-1,4.545000076E0,8.907000542E0,1.000029167E1
1.167342259E0,1.570500135E-1,4.584000111E0,8.791950226E0,9.916456549E0
1.169305468E0,1.570500135E-1,4.584000111E0,8.869050026E0,9.984877069E0
1.171268723E0,1.570500135E-1,4.584000111E0,8.869050026E0,9.984877069E0
1.173232129E0,1.570500135E-1,4.621950150E0,8.907000542E0,1.003602245E1
1.175195490E0,1.570500135E-1,4.584000111E0,8.869050026E0,9.984877069E0
1.177159030E0,1.570500135E-1,4.584000111E0,8.869050026E0,9.984877069E0
1.179122538E0,1.570500135E-1,4.545000076E0,8.944950104E0,1.003463117E1
1.181085857E0,1.960500032E-1,4.545000076E0,8.869050026E0,9.967723394E0
1.183049232E0,1.570500135E-1,4.621950150E0,8.869050026E0,1.000235654E1
1.185012618E0,1.570500135E-1,4.545000076E0,8.869050026E0,9.967032596E0
1.186976000E0,1.570500135E-1,4.584000111E0,8.869050026E0,9.984877069E0
1.188939449E0,1.189500093E-1,4.584000111E0,8.907000542E0,1.001807690E1
1.190902865E0,1.570500135E-1,4.584000111E0,8.830050468E0,9.950251906E0
1.192866245E0,1.189500093E-1,4.584000111E0,8.869050026E0,9.984350479E0
1.194829636E0,1.570500135E-1,4.584000111E0,8.869050026E0,9.984877069E0
1.196793154E0,1.570500135E-1,4.584000111E0,8.907000542E0,1.001860172E1
1.198756634E0,1.189500093E-1,4.584000111E0,8.830050468E0,9.949723483E0
1.200720013E0,1.960500032E-1,4.584000111E0,8.830050468E0,9.950943869E0
1.202683415E0,1.570500135E-1,4.621950150E0,8.869050026E0,1.000235654E1
1.204646481E0,1.960500032E-1,4.584000111E0,8.869050026E0,9.985566633E0
1.206609646E0,1.570500135E-1,4.584000111E0,8.869050026E0,9.984877069E0
1.208572842E0,1.189500093E-1,4.584000111E0,8.869050026E0,9.984350479E0
1.210536029E0,1.570500135E-1,4.584000111E0,8.869050026E0,9.984877069E0
1.212499473E0,1.570500135E-1,4.584000111E0,8.869050026E0,9.984877069E0
1.214462855E0,1.570500135E-1,4.584000111E0,8.907000542E0,1.001860172E1
1.216426240E0,1.570500135E-1,4.545000076E0,8.869050026E0,9.967032596E0
1.218389624E0,1.570500135E-1,4.621950150E0,8.869050026E0,1.000235654E1
1.220352965E0,1.960500032E-1,4.545000076E0,8.830050468E0,9.933038436E0
1.222316318E0,1.570500135E-1,4.584000111E0,8.869050026E0,9.984877069E0
1.224279717E0,1.960500032E-1,4.545000076E0,8.830050468E0,9.933038436E0
1.226243096E0,1.570500135E-1,4.584000111E0,8.830050468E0,9.950251906E0
1.228206347E0,1.960500032E-1,4.584000111E0,8.830050468E0,9.950943869E0
1.230169636E0,1.960500032E-1,4.621950150E0,8.791950226E0,9.934749497E0
1.232132991E0,1.960500032E-1,4.584000111E0,8.791950226E0,9.917150871E0
1.234096326E0,1.960500032E-1,4.584000111E0,8.791950226E0,9.917150871E0
1.236059779E0,1.960500032E-1,4.545000076E0,8.791950226E0,9.899184313E0
1.238023187E0,1.570500135E-1,4.621950150E0,8.754000664E0,9.900485620E0
1.239986523E0,1.570500135E-1,4.584000111E0,8.791950226E0,9.916456549E0
1.241949881E0,1.960500032E-1,4.584000111E0,8.754000664E0,9.883522663E0
1.243913675E0,1.960500032E-1,4.545000076E0,8.830050468E0,9.933038436E0
1.245877341E0,1.960500032E-1,4.584000111E0,8.830050468E0,9.950943869E0
1.247840458E0,2.340000123E-1,4.545000076E0,8.791950226E0,9.900008610E0
1.249803732E0,1.960500032E-1,4.545000076E0,8.791950226E0,9.899184313E0
1.251767001E0,1.960500032E-1,4.545000076E0,8.830050468E0,9.933038436E0
1.253730271E0,1.960500032E-1,4.545000076E0,8.791950226E0,9.899184313E0
1.255693674E0,1.960500032E-1,4.584000111E0,8.791950226E0,9.917150871E0
1.257657038E0,1.960500032E-1,4.584000111E0,8.830050468E0,9.950943869E0
1.259620247E0,1.189500093E-1,4.584000111E0,8.869050026E0,9.984350479E0
1.261583501E0,1.960500032E-1,4.545000076E0,8.869050026E0,9.967723394E0
1.263546862E0,1.960500032E-1,4.507050037E0,8.869050026E0,9.950476572E0
1.265510192E0,1.960500032E-1,4.584000111E0,8.869050026E0,9.985566633E0
1.267473586E0,1.960500032E-1,4.545000076E0,8.869050026E0,9.967723394E0
1.269436961E0,1.960500032E-1,4.545000076E0,8.869050026E0,9.967723394E0
1.271400232E0,1.570500135E-1,4.545000076E0,8.869050026E0,9.967032596E0
1.273363520E0,1.189500093E-1,4.584000111E0,8.869050026E0,9.984350479E0
1.275326875E0,1.960500032E-1,4.545000076E0,8.869050026E0,9.967723394E0
1.277290211E0,1.570500135E-1,4.545000076E0,8.869050026E0,9.967032596E0
1.279253784E0,1.960500032E-1,4.545000076E0,8.869050026E0,9.967723394E0
1.281217288E0,1.570500135E-1,4.545000076E0,8.869050026E0,9.967032596E0
1.283180332E0,1.960500032E-1,4.545000076E0,8.907000542E0,1.000150588E1
1.285143515E0,1.570500135E-1,4.507050037E0,8.830050468E0,9.915036864E0
1.287106708E0,1.570500135E-1,4.545000076E0,8.869050026E0,9.967032596E0
1.289069898E0,1.960500032E-1,4.545000076E0,8.869050026E0,9.967723394E0
1.291032821E0,1.960500032E-1,4.545000076E0,8.830050468E0,9.933038436E0
1.292995823E0,1.960500032E-1,4.545000076E0,8.830050468E0,9.933038436E0
1.294958728E0,1.960500032E-1,4.545000076E0,8.869050026E0,9.967723394E0
1.296921665E0,1.570500135E-1,4.545000076E0,8.869050026E0,9.967032596E0
1.298884945E0,1.960500032E-1,4.545000076E0,8.830050468E0,9.933038436E0
1.300848125E0,1.960500032E-1,4.545000076E0,8.791950226E0,9.899184313E0
1.302811364E0,1.960500032E-1,4.507050037E0,8.830050468E0,9.915731285E0
1.304774586E0,1.570500135E-1,4.545000076E0,8.830050468E0,9.932345225E0
1.306737968E0,1.570500135E-1,4.545000076E0,8.830050468E0,9.932345225E0
1.308701293E0,1.960500032E-1,4.507050037E0,8.869050026E0,9.950476572E0
1.310664553E0,1.570500135E-1,4.545000076E0,8.869050026E0,9.967032596E0
1.312627833E0,1.570500135E-1,4.545000076E0,8.830050468E0,9.932345225E0
1.314591415E0,1.189500093E-1,4.621950150E0,8.869050026E0,1.000183087E1
1.316554908E0,1.960500032E-1,4.584000111E0,8.830050468E0,9.950943869E0
1.318518249E0,1.960500032E-1,4.507050037E0,8.830050468E0,9.915731285E0
1.320481621E0,1.570500135E-1,4.545000076E0,8.830050468E0,9.932345225E0
1.322444692E0,1.960500032E-1,4.584000111E0,8.830050468E0,9.950943869E0
1.324407852E0,1.189500093E-1,4.621950150E0,8.791950226E0,9.933527121E0
1.326371274E0,2.340000123E-1,4.621950150E0,8.830050468E0,9.969301403E0
1.328334619E0,2.340000123E-1,4.584000111E0,8.869050026E0,9.986383799E0
1.330297837E0,1.960500032E-1,4.545000076E0,8.791950226E0,9.899184313E0
1.332261088E0,1.960500032E-1,4.584000111E0,8.830050468E0,9.950943869E0
1.334224270E0,1.960500032E-1,4.545000076E0,8.869050026E0,9.967723394E0
1.336187473E0,1.570500135E-1,4.660050392E0,8.791950226E0,9.951840189E0
1.338150933E0,1.960500032E-1,4.545000076E0,8.869050026E0,9.967723394E0
1.340114317E0,1.960500032E-1,4.621950150E0,8.869050026E0,1.000304489E1
1.342078033E0,1.960500032E-1,4.621950150E0,8.791950226E0,9.934749497E0
1.344041672E0,1.960500032E-1,4.621950150E0,8.791950226E0,9.934749497E0
1.346005374E0,1.960500032E-1,4.621950150E0,8.830050468E0,9.968482837E0
1.347969057E0,2.340000123E-1,4.621950150E0,8.791950226E0,9.935570842E0
1.349932527E0,1.960500032E-1,4.621950150E0,8.830050468E0,9.968482837E0
1.351896059E0,1.570500135E-1,4.660050392E0,8.791950226E0,9.951840189E0
1.353859092E0,1.960500032E-1,4.621950150E0,8.830050468E0,9.968482837E0
1.355822247E0,1.570500135E-1,4.621950150E0,8.869050026E0,1.000235654E1
1.357785311E0,1.960500032E-1,4.621950150E0,8.830050468E0,9.968482837E0
1.359748401E0,1.570500135E-1,4.584000111E0,8.869050026E0,9.984877069E0
1.361711835E0,1.960500032E-1,4.621950150E0,8.830050468E0,9.968482837E0
1.363675168E0,1.960500032E-1,4.621950150E0,8.791950226E0,9.934749497E0
1.365638756E0,1.960500032E-1,4.621950150E0,8.791950226E0,9.934749497E0
1.367602259E0,1.189500093E-1,4.621950150E0,8.791950226E0,9.933527121E0
1.369565849E0,1.570500135E-1,4.584000111E0,8.791950226E0,9.916456549E0
1.371529413E0,1.570500135E-1,4.584000111E0,8.830050468E0,9.950251906E0
1.373492768E0,1.189500093E-1,4.584000111E0,8.830050468E0,9.949723483E0
1.375456184E0,1.960500032E-1,4.584000111E0,8.830050468E0,9.950943869E0
1.377419534E0,1.960500032E-1,4.621950150E0,8.830050468E0,9.968482837E0
1.379382924E0,1.960500032E-1,4.584000111E0,8.869050026E0,9.985566633E0
1.381346487E0,1.960500032E-1,4.545000076E0,8.830050468E0,9.933038436E0
1.383309999E0,1.960500032E-1,4.545000076E0,8.869050026E0,9.967723394E0
1.385273542E0,1.960500032E-1,4.545000076E0,8.791950226E0,9.899184313E0
1.387237076E0,2.340000123E-1,4.507050037E0,8.791950226E0,9.882643615E0
1.389200401E0,1.960500032E-1,4.507050037E0,8.830050468E0,9.915731285E0
1.391163780E0,1.960500032E-1,4.545000076E0,8.791950226E0,9.899184313E0
1.393127210E0,1.960500032E-1,4.545000076E0,8.830050468E0,9.933038436E0
1.395090625E0,2.340000123E-1,4.545000076E0,8.791950226E0,9.900008610E0
1.397054140E0,2.340000123E-1,4.507050037E0,8.869050026E0,9.951296619E0
1.399017625E0,2.340000123E-1,4.584000111E0,8.791950226E0,9.917973674E0
1.400981158E0,2.719500065E-1,4.584000111E0,8.791950226E0,9.918941607E0
1.402944687E0,1.960500032E-1,4.545000076E0,8.791950226E0,9.899184313E0
1.404907912E0,2.340000123E-1,4.545000076E0,8.830050468E0,9.933859923E0
1.406871227E0,1.960500032E-1,4.545000076E0,8.791950226E0,9.899184313E0
1.408834758E0,1.570500135E-1,4.584000111E0,8.830050468E0,9.950251906E0
1.410798225E0,1.570500135E-1,4.584000111E0,8.869050026E0,9.984877069E0
1.412761577E0,1.570500135E-1,4.584000111E0,8.830050468E0,9.950251906E0
1.414724977E0,1.960500032E-1,4.584000111E0,8.791950226E0,9.917150871E0
1.416688179E0,1.570500135E-1,4.584000111E0,8.791950226E0,9.916456549E0
1.418651439E0,1.570500135E-1,4.545000076E0,8.907000542E0,1.000081742E1
1.420614708E0,1.189500093E-1,4.584000111E0,8.907000542E0,1.001807690E1
1.422577975E0,1.189500093E-1,4.621950150E0,8.830050468E0,9.967264598E0
1.424541132E0,1.570500135E-1,4.584000111E0,8.791950226E0,9.916456549E0
1.426504338E0,1.189500093E-1,4.660050392E0,8.791950226E0,9.951311850E0
1.428467752E0,1.189500093E-1,4.621950150E0,8.791950226E0,9.933527121E0
1.430431105E0,1.189500093E-1,4.621950150E0,8.869050026E0,1.000183087E1
1.432394495E0,1.570500135E-1,4.621950150E0,8.830050468E0,9.967792091E0
1.434357874E0,1.570500135E-1,4.621950150E0,8.791950226E0,9.934056405E0
1.436321107E0,1.189500093E-1,4.621950150E0,8.791950226E0,9.933527121E0
1.438284396E0,1.189500093E-1,4.660050392E0,8.791950226E0,9.951311850E0
1.440248112E0,1.570500135E-1,4.660050392E0,8.791950226E0,9.951840189E0
1.442211702E0,1.189500093E-1,4.584000111E0,8.754000664E0,9.882293951E0
1.444174917E0,1.960500032E-1,4.584000111E0,8.754000664E0,9.883522663E0
1.446138242E0,2.340000123E-1,4.584000111E0,8.754000664E0,9.884348266E0
1.448101650E0,1.960500032E-1,4.621950150E0,8.754000664E0,9.901181061E0
1.450065023E0,1.960500032E-1,4.621950150E0,8.754000664E0,9.901181061E0
1.452028725E0,1.960500032E-1,4.621950150E0,8.791950226E0,9.934749497E0
1.453992331E0,1.960500032E-1,4.584000111E0,8.754000664E0,9.883522663E0
1.455955679E0,1.960500032E-1,4.584000111E0,8.830050468E0,9.950943869E0
1.457919102E0,1.960500032E-1,4.545000076E0,8.791950226E0,9.899184313E0
1.459882461E0,1.960500032E-1,4.584000111E0,8.791950226E0,9.917150871E0
1.461845852E0,2.340000123E-1,4.584000111E0,8.791950226E0,9.917973674E0
1.463809415E0,1.960500032E-1,4.584000111E0,8.791950226E0,9.917150871E0
1.465772927E0,1.960500032E-1,4.545000076E0,8.791950226E0,9.899184313E0
1.467735930E0,1.960500032E-1,4.584000111E0,8.791950226E0,9.917150871E0
1.469699083E0,2.340000123E-1,4.545000076E0,8.754000664E0,9.866321975E0
1.471662526E0,1.570500135E-1,4.584000111E0,8.830050468E0,9.950251906E0
1.473625870E0,2.340000123E-1,4.584000111E0,8.791950226E0,9.917973674E0
1.475589441E0,1.960500032E-1,4.584000111E0,8.791950226E0,9.917150871E0
1.477552946E0,1.960500032E-1,4.545000076E0,8.830050468E0,9.933038436E0
1.479516357E0,1.960500032E-1,4.584000111E0,8.791950226E0,9.917150871E0
1.481479795E0,1.570500135E-1,4.621950150E0,8.869050026E0,1.000235654E1
1.483443165E0,1.960500032E-1,4.621950150E0,8.830050468E0,9.968482837E0
1.485406559E0,2.340000123E-1,4.660050392E0,8.830050468E0,9.987022426E0
1.487370121E0,1.960500032E-1,4.621950150E0,8.791950226E0,9.934749497E0
1.489333634E0,1.960500032E-1,4.584000111E0,8.869050026E0,9.985566633E0
1.491296772E0,1.960500032E-1,4.621950150E0,8.830050468E0,9.968482837E0
1.493260020E0,1.960500032E-1,4.621950150E0,8.830050468E0,9.968482837E0
1.495223422E0,1.570500135E-1,4.584000111E0,8.830050468E0,9.950251906E0
1.497186783E0,1.960500032E-1,4.621950150E0,8.791950226E0,9.934749497E0
1.499150037E0,1.960500032E-1,4.621950150E0,8.791950226E0,9.934749497E0
1.501113323E0,1.570500135E-1,4.660050392E0,8.791950226E0,9.951840189E0
1.503076723E0,1.570500135E-1,4.621950150E0,8.830050468E0,9.967792091E0
1.505040090E0,1.570500135E-1,4.584000111E0,8.791950226E0,9.916456549E0
1.507003464E0,1.570500135E-1,4.584000111E0,8.791950226E0,9.916456549E0
1.508966846E0,1.960500032E-1,4.621950150E0,8.830050468E0,9.968482837E0
1.510930411E0,1.960500032E-1,4.621950150E0,8.869050026E0,1.000304489E1
1.512893923E0,1.570500135E-1,4.621950150E0,8.830050468E0,9.967792091E0
1.514857242E0,1.570500135E-1,4.621950150E0,8.830050468E0,9.967792091E0
1.516820617E0,1.189500093E-1,4.621950150E0,8.869050026E0,1.000183087E1
1.518783688E0,1.570500135E-1,4.660050392E0,8.869050026E0,1.002001910E1
1.520746848E0,1.570500135E-1,4.621950150E0,8.869050026E0,1.000235654E1
1.522710225E0,1.570500135E-1,4.621950150E0,8.830050468E0,9.967792091E0
1.524673538E0,1.189500093E-1,4.584000111E0,8.869050026E0,9.984350479E0
1.526636801E0,1.570500135E-1,4.621950150E0,8.791950226E0,9.934056405E0
1.528600078E0,1.570500135E-1,4.660050392E0,8.869050026E0,1.002001910E1
1.530563454E0,1.570500135E-1,4.621950150E0,8.830050468E0,9.967792091E0
1.532526788E0,2.340000123E-1,4.660050392E0,8.907000542E0,1.005512229E1
1.534489822E0,1.570500135E-1,4.621950150E0,8.830050468E0,9.967792091E0
1.536452944E0,1.189500093E-1,4.621950150E0,8.830050468E0,9.967264598E0
1.538416192E0,1.960500032E-1,4.584000111E0,8.869050026E0,9.985566633E0
1.540379403E0,1.960500032E-1,4.584000111E0,8.830050468E0,9.950943869E0
1.542342458E0,2.340000123E-1,4.584000111E0,8.830050468E0,9.951763879E0
1.544305559E0,1.960500032E-1,4.584000111E0,8.869050026E0,9.985566633E0
1.546268496E0,1.960500032E-1,4.545000076E0,8.869050026E0,9.967723394E0
1.548231482E0,1.960500032E-1,4.621950150E0,8.869050026E0,1.000304489E1
1.550194574E0,1.570500135E-1,4.584000111E0,8.830050468E0,9.950251906E0
1.552157634E0,2.340000123E-1,4.545000076E0,8.830050468E0,9.933859923E0
1.554121205E0,1.960500032E-1,4.545000076E0,8.869050026E0,9.967723394E0
1.556084629E0,1.960500032E-1,4.545000076E0,8.869050026E0,9.967723394E0
1.558048008E0,1.960500032E-1,4.545000076E0,8.869050026E0,9.967723394E0
1.560011400E0,1.960500032E-1,4.584000111E0,8.869050026E0,9.985566633E0
1.561974423E0,1.960500032E-1,4.545000076E0,8.830050468E0,9.933038436E0
1.563937554E0,2.340000123E-1,4.545000076E0,8.869050026E0,9.968542023E0
1.565900991E0,1.960500032E-1,4.545000076E0,8.907000542E0,1.000150588E1
1.567864331E0,1.960500032E-1,4.545000076E0,8.869050026E0,9.967723394E0
1.569827904E0,1.960500032E-1,4.545000076E0,8.907000542E0,1.000150588E1
1.571791408E0,1.960500032E-1,4.545000076E0,8.830050468E0,9.933038436E0
1.573754413E0,1.960500032E-1,4.507050037E0,8.830050468E0,9.915731285E0
1.575717564E0,1.960500032E-1,4.507050037E0,8.791950226E0,9.881817870E0
1.577680502E0,2.719500065E-1,4.545000076E0,8.830050468E0,9.934826308E0
1.579643496E0,2.340000123E-1,4.507050037E0,8.830050468E0,9.916554206E0
1.581606541E0,2.719500065E-1,4.507050037E0,8.869050026E0,9.952261311E0
1.583569571E0,2.340000123E-1,4.507050037E0,8.869050026E0,9.951296619E0
1.585532701E0,2.719500065E-1,4.507050037E0,8.830050468E0,9.917522277E0
1.587495802E0,2.340000123E-1,4.507050037E0,8.830050468E0,9.916554206E0
1.589459070E0,1.960500032E-1,4.468950272E0,8.791950226E0,9.864499020E0
1.591422278E0,2.719500065E-1,4.507050037E0,8.791950226E0,9.883615008E0
1.593385334E0,2.340000123E-1,4.545000076E0,8.791950226E0,9.900008610E0
1.595348434E0,2.340000123E-1,4.545000076E0,8.791950226E0,9.900008610E0
1.597311822E0,2.340000123E-1,4.545000076E0,8.754000664E0,9.866321975E0
1.599275125E0,1.960500032E-1,4.545000076E0,8.754000664E0,9.865494864E0
1.601238214E0,2.340000123E-1,4.545000076E0,8.791950226E0,9.900008610E0
1.603201362E0,2.340000123E-1,4.545000076E0,8.754000664E0,9.866321975E0
1.605164561E0,1.960500032E-1,4.545000076E0,8.754000664E0,9.865494864E0
1.607127745E0,2.719500065E-1,4.545000076E0,8.754000664E0,9.867294975E0
1.609091164E0,2.340000123E-1,4.545000076E0,8.754000664E0,9.866321975E0
1.611054514E0,1.960500032E-1,4.545000076E0,8.754000664E0,9.865494864E0
1.613017924E0,2.340000123E-1,4.584000111E0,8.715000153E0,9.849824398E0
1.614981302E0,1.960500032E-1,4.584000111E0,8.754000664E0,9.883522663E0
1.616944509E0,1.960500032E-1,4.584000111E0,8.754000664E0,9.883522663E0
1.618907766E0,1.960500032E-1,4.584000111E0,8.754000664E0,9.883522663E0
1.620871216E0,2.340000123E-1,4.621950150E0,8.791950226E0,9.935570842E0
1.622834610E0,1.570500135E-1,4.621950150E0,8.791950226E0,9.934056405E0
1.624797968E0,1.570500135E-1,4.660050392E0,8.830050468E0,9.985515792E0
1.626761323E0,1.960500032E-1,4.621950150E0,8.754000664E0,9.901181061E0
1.628724397E0,1.960500032E-1,4.621950150E0,8.791950226E0,9.934749497E0
1.630687554E0,1.570500135E-1,4.621950150E0,8.791950226E0,9.934056405E0
1.632651112E0,1.570500135E-1,4.660050392E0,8.791950226E0,9.951840189E0
1.634614552E0,1.189500093E-1,4.621950150E0,8.869050026E0,1.000183087E1
1.636577929E0,1.189500093E-1,4.584000111E0,8.791950226E0,9.915926325E0
1.638541324E0,1.570500135E-1,4.621950150E0,8.830050468E0,9.967792091E0
1.640504346E0,1.570500135E-1,4.621950150E0,8.869050026E0,1.000235654E1
1.642467477E0,1.570500135E-1,4.621950150E0,8.830050468E0,9.967792091E0
1.644430590E0,1.570500135E-1,4.621950150E0,8.830050468E0,9.967792091E0
1.646393708E0,1.189500093E-1,4.621950150E0,8.830050468E0,9.967264598E0
1.648356952E0,1.960500032E-1,4.621950150E0,8.791950226E0,9.934749497E0
1.650320163E0,1.189500093E-1,4.621950150E0,8.830050468E0,9.967264598E0
1.652283577E0,1.570500135E-1,4.584000111E0,8.830050468E0,9.950251906E0
1.654246932E0,1.570500135E-1,4.660050392E0,8.791950226E0,9.951840189E0
1.656209917E0,1.960500032E-1,4.660050392E0,8.907000542E0,1.005431071E1
1.658173011E0,1.570500135E-1,4.621950150E0,8.907000542E0,1.003602245E1
1.660136071E0,1.570500135E-1,4.660050392E0,8.907000542E0,1.005362586E1
1.662099151E0,1.570500135E-1,4.660050392E0,8.869050026E0,1.002001910E1
1.664062227E0,1.189500093E-1,4.660050392E0,8.907000542E0,1.005310287E1
1.666025305E0,1.189500093E-1,4.621950150E0,8.869050026E0,1.000183087E1
1.667988381E0,1.189500093E-1,4.584000111E0,8.869050026E0,9.984350479E0
1.669951458E0,1.189500093E-1,4.621950150E0,8.830050468E0,9.967264598E0
1.671914778E0,1.189500093E-1,4.621950150E0,8.869050026E0,1.000183087E1
1.673878014E0,1.570500135E-1,4.584000111E0,8.907000542E0,1.001860172E1
1.675841379E0,1.960500032E-1,4.660050392E0,8.830050468E0,9.986205312E0
1.677804706E0,1.570500135E-1,4.621950150E0,8.869050026E0,1.000235654E1
1.679768146E0,1.570500135E-1,4.621950150E0,8.907000542E0,1.003602245E1
1.681731552E0,1.570500135E-1,4.621950150E0,8.869050026E0,1.000235654E1
1.683694934E0,1.570500135E-1,4.584000111E0,8.830050468E0,9.950251906E0
1.685658324E0,1.570500135E-1,4.621950150E0,8.907000542E0,1.003602245E1
1.687621662E0,1.570500135E-1,4.621950150E0,8.791950226E0,9.934056405E0
1.689585016E0,1.960500032E-1,4.621950150E0,8.869050026E0,1.000304489E1
1.691548405E0,1.960500032E-1,4.621950150E0,8.869050026E0,1.000304489E1
1.693511783E0,1.960500032E-1,4.584000111E0,8.869050026E0,9.985566633E0
1.695474790E0,1.570500135E-1,4.584000111E0,8.830050468E0,9.950251906E0
1.697437920E0,1.570500135E-1,4.545000076E0,8.830050468E0,9.932345225E0
1.699401347E0,2.340000123E-1,4.621950150E0,8.830050468E0,9.969301403E0
1.701364687E0,1.570500135E-1,4.621950150E0,8.869050026E0,1.000235654E1
1.703327945E0,1.960500032E-1,4.584000111E0,8.830050468E0,9.950943869E0
1.705291228E0,1.960500032E-1,4.621950150E0,8.830050468E0,9.968482837E0
1.707254434E0,1.960500032E-1,4.584000111E0,8.791950226E0,9.917150871E0
1.709217674E0,1.570500135E-1,4.584000111E0,8.791950226E0,9.916456549E0
1.711181038E0,1.960500032E-1,4.584000111E0,8.754000664E0,9.883522663E0
1.713144365E0,2.340000123E-1,4.621950150E0,8.754000664E0,9.902005191E0
1.715107759E0,1.960500032E-1,4.584000111E0,8.754000664E0,9.883522663E0
1.717071134E0,2.340000123E-1,4.545000076E0,8.791950226E0,9.900008610E0
1.719034372E0,2.719500065E-1,4.584000111E0,8.791950226E0,9.918941607E0
1.720997660E0,2.340000123E-1,4.584000111E0,8.830050468E0,9.951763879E0
1.722961061E0,1.960500032E-1,4.584000111E0,8.791950226E0,9.917150871E0
1.724924428E0,2.340000123E-1,4.584000111E0,8.754000664E0,9.884348266E0
1.726887951E0,1.960500032E-1,4.584000111E0,8.754000664E0,9.883522663E0
1.728851428E0,1.960500032E-1,4.584000111E0,8.791950226E0,9.917150871E0
1.730814998E0,1.960500032E-1,4.584000111E0,8.791950226E0,9.917150871E0
1.732778557E0,2.340000123E-1,4.584000111E0,8.830050468E0,9.951763879E0
1.734741913E0,1.570500135E-1,4.584000111E0,8.830050468E0,9.950251906E0
1.736705329E0,1.570500135E-1,4.584000111E0,8.791950226E0,9.916456549E0
1.738668708E0,1.570500135E-1,4.584000111E0,8.791950226E0,9.916456549E0
1.740632098E0,1.960500032E-1,4.507050037E0,8.830050468E0,9.915731285E0
1.742595281E0,1.960500032E-1,4.545000076E0,8.869050026E0,9.967723394E0
1.744558539E0,1.960500032E-1,4.545000076E0,8.830050468E0,9.933038436E0
1.746521765E0,2.340000123E-1,4.545000076E0,8.830050468E0,9.933859923E0
1.748485001E0,2.340000123E-1,4.507050037E0,8.869050026E0,9.951296619E0
1.750448410E0,1.960500032E-1,4.507050037E0,8.907000542E0,9.984317417E0
1.752411768E0,2.340000123E-1,4.545000076E0,8.907000542E0,1.000232175E1
1.754374983E0,2.340000123E-1,4.545000076E0,8.907000542E0,1.000232175E1
1.756338237E0,2.340000123E-1,4.584000111E0,8.907000542E0,1.002010338E1
1.758301463E0,1.570500135E-1,4.507050037E0,8.907000542E0,9.983627767E0
1.760264698E0,2.340000123E-1,4.545000076E0,8.869050026E0,9.968542023E0
1.762227928E0,1.960500032E-1,4.545000076E0,8.869050026E0,9.967723394E0
1.764191160E0,1.960500032E-1,4.545000076E0,8.830050468E0,9.933038436E0
1.766154710E0,1.570500135E-1,4.507050037E0,8.830050468E0,9.915036864E0
1.768118163E0,1.960500032E-1,4.545000076E0,8.869050026E0,9.967723394E0
1.770081716E0,2.340000123E-1,4.545000076E0,8.830050468E0,9.933859923E0
1.772045240E0,1.960500032E-1,4.584000111E0,8.830050468E0,9.950943869E0
1.774008781E0,1.960500032E-1,4.584000111E0,8.830050468E0,9.950943869E0
1.775972317E0,1.960500032E-1,4.545000076E0,8.830050468E0,9.933038436E0
1.777935682E0,1.960500032E-1,4.584000111E0,8.830050468E0,9.950943869E0
1.779899093E0,1.960500032E-1,4.584000111E0,8.791950226E0,9.917150871E0
1.781862833E0,1.960500032E-1,4.621950150E0,8.715000153E0,9.866716092E0
1.783826476E0,1.960500032E-1,4.584000111E0,8.754000664E0,9.883522663E0
1.785789817E0,1.960500032E-1,4.584000111E0,8.754000664E0,9.883522663E0
1.787753247E0,1.960500032E-1,4.621950150E0,8.791950226E0,9.934749497E0
1.789716457E0,1.960500032E-1,4.621950150E0,8.754000664E0,9.901181061E0
1.791679722E0,1.570500135E-1,4.621950150E0,8.754000664E0,9.900485620E0
1.793642947E0,1.570500135E-1,4.660050392E0,8.715000153E0,9.883924424E0
1.795606184E0,1.960500032E-1,4.660050392E0,8.715000153E0,9.884621031E0
1.797569773E0,1.960500032E-1,4.621950150E0,8.791950226E0,9.934749497E0
1.799533259E0,1.570500135E-1,4.621950150E0,8.791950226E0,9.934056405E0
1.801496447E0,1.960500032E-1,4.621950150E0,8.791950226E0,9.934749497E0
1.803459722E0,1.570500135E-1,4.621950150E0,8.791950226E0,9.934056405E0
1.805422990E0,1.960500032E-1,4.621950150E0,8.830050468E0,9.968482837E0
1.807386261E0,1.960500032E-1,4.621950150E0,8.791950226E0,9.934749497E0
1.809349440E0,1.570500135E-1,4.621950150E0,8.791950226E0,9.934056405E0
1.811312646E0,1.960500032E-1,4.621950150E0,8.830050468E0,9.968482837E0
1.813275861E0,1.960500032E-1,4.621950150E0,8.791950226E0,9.934749497E0
1.815239086E0,1.960500032E-1,4.621950150E0,8.791950226E0,9.934749497E0
1.817202184E0,1.570500135E-1,4.621950150E0,8.791950226E0,9.934056405E0
1.819165319E0,1.960500032E-1,4.584000111E0,8.830050468E0,9.950943869E0
1.821128745E0,1.960500032E-1,4.621950150E0,8.791950226E0,9.934749497E0
1.823092086E0,1.960500032E-1,4.621950150E0,8.754000664E0,9.901181061E0
1.825055498E0,1.570500135E-1,4.545000076E0,8.830050468E0,9.932345225E0
1.827018875E0,1.960500032E-1,4.621950150E0,8.791950226E0,9.934749497E0
1.828982261E0,1.570500135E-1,4.584000111E0,8.791950226E0,9.916456549E0
1.830945645E0,1.570500135E-1,4.621950150E0,8.715000153E0,9.866018222E0
1.832908850E0,1.189500093E-1,4.584000111E0,8.791950226E0,9.915926325E0
1.834872108E0,1.570500135E-1,4.621950150E0,8.791950226E0,9.934056405E0
1.836835523E0,1.189500093E-1,4.621950150E0,8.791950226E0,9.933527121E0
1.838798885E0,1.570500135E-1,4.584000111E0,8.754000664E0,9.882825980E0
1.840762050E0,1.189500093E-1,4.621950150E0,8.830050468E0,9.967264598E0
1.842725272E0,1.570500135E-1,4.584000111E0,8.830050468E0,9.950251906E0
1.844688683E0,1.189500093E-1,4.621950150E0,8.869050026E0,1.000183087E1
1.846652039E0,1.570500135E-1,4.584000111E0,8.869050026E0,9.984877069E0
1.848615474E0,1.570500135E-1,4.584000111E0,8.830050468E0,9.950251906E0
1.850578885E0,1.189500093E-1,4.584000111E0,8.907000542E0,1.001807690E1
1.852542267E0,1.570500135E-1,4.545000076E0,8.830050468E0,9.932345225E0
1.854505657E0,1.960500032E-1,4.545000076E0,8.869050026E0,9.967723394E0
1.856468995E0,1.570500135E-1,4.584000111E0,8.869050026E0,9.984877069E0
1.858432349E0,1.570500135E-1,4.584000111E0,8.907000542E0,1.001860172E1
1.860395787E0,1.189500093E-1,4.545000076E0,8.869050026E0,9.966505063E0
1.862359197E0,1.189500093E-1,4.584000111E0,8.907000542E0,1.001807690E1
1.864322533E0,1.570500135E-1,4.545000076E0,8.944950104E0,1.003463117E1
1.866285891E0,1.189500093E-1,4.584000111E0,8.907000542E0,1.001807690E1
1.868249145E0,1.189500093E-1,4.584000111E0,8.907000542E0,1.001807690E1
1.870212430E0,1.570500135E-1,4.545000076E0,8.869050026E0,9.967032596E0
1.872175821E0,1.570500135E-1,4.584000111E0,8.907000542E0,1.001860172E1
1.874139188E0,1.570500135E-1,4.584000111E0,8.869050026E0,9.984877069E0
1.876102531E0,1.570500135E-1,4.545000076E0,8.869050026E0,9.967032596E0
1.878065882E0,1.570500135E-1,4.545000076E0,8.869050026E0,9.967032596E0
1.880029272E0,1.570500135E-1,4.584000111E0,8.869050026E0,9.984877069E0
1.881992650E0,1.570500135E-1,4.584000111E0,8.869050026E0,9.984877069E0
1.883956230E0,1.189500093E-1,4.584000111E0,8.830050468E0,9.949723483E0
1.885919741E0,1.570500135E-1,4.621950150E0,8.830050468E0,9.967792091E0
1.887883284E0,1.189500093E-1,4.584000111E0,8.869050026E0,9.984350479E0
1.889846818E0,8.100000024E-2,4.621950150E0,8.869050026E0,1.000145152E1
1.891809998E0,1.189500093E-1,4.584000111E0,8.791950226E0,9.915926325E0
1.893773281E0,8.100000024E-2,4.621950150E0,8.830050468E0,9.966883939E0
1.895736543E0,1.189500093E-1,4.584000111E0,8.869050026E0,9.984350479E0
1.897699815E0,8.100000024E-2,4.584000111E0,8.830050468E0,9.949342154E0
1.899662993E0,1.189500093E-1,4.584000111E0,8.830050468E0,9.949723483E0
1.901626199E0,1.189500093E-1,4.584000111E0,8.830050468E0,9.949723483E0
1.903589478E0,1.570500135E-1,4.545000076E0,8.830050468E0,9.932345225E0
1.905552736E0,1.570500135E-1,4.584000111E0,8.830050468E0,9.950251906E0
1.907516161E0,1.189500093E-1,4.545000076E0,8.830050468E0,9.931815850E0
1.909479524E0,1.570500135E-1,4.584000111E0,8.830050468E0,9.950251906E0
1.911443093E0,1.189500093E-1,4.507050037E0,8.830050468E0,9.914506565E0
1.913406601E0,1.570500135E-1,4.584000111E0,8.869050026E0,9.984877069E0
1.915369920E0,1.960500032E-1,4.584000111E0,8.791950226E0,9.917150871E0
1.917333295E0,1.189500093E-1,4.584000111E0,8.830050468E0,9.949723483E0
1.919296390E0,1.960500032E-1,4.584000111E0,8.791950226E0,9.917150871E0
1.921259550E0,1.960500032E-1,4.584000111E0,8.791950226E0,9.917150871E0
1.923223107E0,1.960500032E-1,4.507050037E0,8.830050468E0,9.915731285E0
1.925186548E0,1.570500135E-1,4.545000076E0,8.830050468E0,9.932345225E0
1.927149789E0,1.570500135E-1,4.584000111E0,8.869050026E0,9.984877069E0
1.929113088E0,1.570500135E-1,4.545000076E0,8.869050026E0,9.967032596E0
1.931076511E0,1.570500135E-1,4.584000111E0,8.869050026E0,9.984877069E0
1.933039880E0,1.960500032E-1,4.545000076E0,8.869050026E0,9.967723394E0
1.935003448E0,1.570500135E-1,4.584000111E0,8.869050026E0,9.984877069E0
1.936966957E0,1.570500135E-1,4.584000111E0,8.907000542E0,1.001860172E1
1.938930457E0,1.189500093E-1,4.584000111E0,8.907000542E0,1.001807690E1
1.940893959E0,1.189500093E-1,4.545000076E0,8.869050026E0,9.966505063E0
1.942857368E0,1.189500093E-1,4.584000111E0,8.907000542E0,1.001807690E1
1.944820805E0,1.960500032E-1,4.584000111E0,8.830050468E0,9.950943869E0
1.946784360E0,1.570500135E-1,4.621950150E0,8.907000542E0,1.003602245E1
1.948747880E0,1.189500093E-1,4.545000076E0,8.944950104E0,1.003410719E1
1.950711556E0,1.960500032E-1,4.584000111E0,8.869050026E0,9.985566633E0
1.952675187E0,1.570500135E-1,4.584000111E0,8.944950104E0,1.005235565E1
1.954638377E0,1.189500093E-1,4.545000076E0,8.907000542E0,1.000029167E1
1.956601709E0,1.570500135E-1,4.621950150E0,8.907000542E0,1.003602245E1
1.958564877E0,2.340000123E-1,4.584000111E0,8.869050026E0,9.986383799E0
1.960528094E0,1.960500032E-1,4.584000111E0,8.907000542E0,1.001928896E1
1.962491326E0,1.189500093E-1,4.621950150E0,8.869050026E0,1.000183087E1
1.964454553E0,1.570500135E-1,4.621950150E0,8.869050026E0,1.000235654E1
1.966417660E0,1.189500093E-1,4.621950150E0,8.869050026E0,1.000183087E1
1.968380796E0,1.570500135E-1,4.621950150E0,8.830050468E0,9.967792091E0
1.970344177E0,1.960500032E-1,4.621950150E0,8.830050468E0,9.968482837E0
1.972307486E0,1.960500032E-1,4.621950150E0,8.791950226E0,9.934749497E0
1.974270389E0,1.570500135E-1,4.584000111E0,8.830050468E0,9.950251906E0
1.976233411E0,1.570500135E-1,4.621950150E0,8.791950226E0,9.934056405E0
1.978196838E0,1.570500135E-1,4.660050392E0,8.791950226E0,9.951840189E0
1.980160159E0,1.570500135E-1,4.621950150E0,8.791950226E0,9.934056405E0
1.982123555E0,1.570500135E-1,4.621950150E0,8.791950226E0,9.934056405E0
1.984086929E0,1.570500135E-1,4.621950150E0,8.830050468E0,9.967792091E0
1.986050451E0,1.570500135E-1,4.660050392E0,8.791950226E0,9.951840189E0
1.988013929E0,1.960500032E-1,4.584000111E0,8.830050468E0,9.950943869E0
1.989977143E0,1.570500135E-1,4.621950150E0,8.754000664E0,9.900485620E0
1.991940449E0,1.189500093E-1,4.584000111E0,8.791950226E0,9.915926325E0
1.993903981E0,1.960500032E-1,4.621950150E0,8.791950226E0,9.934749497E0
1.995867447E0,1.570500135E-1,4.584000111E0,8.791950226E0,9.916456549E0
1.997830639E0,1.960500032E-1,4.584000111E0,8.791950226E0,9.917150871E0
1.999793911E0,1.960500032E-1,4.584000111E0,8.830050468E0,9.950943869E0
2.001757149E0,1.960500032E-1,4.584000111E0,8.791950226E0,9.917150871E0
2.003720387E0,1.960500032E-1,4.584000111E0,8.830050468E0,9.950943869E0
2.005683481E0,1.960500032E-1,4.621950150E0,8.791950226E0,9.934749497E0
2.007646618E0,1.960500032E-1,4.584000111E0,8.754000664E0,9.883522663E0
2.009609864E0,1.960500032E-1,4.584000111E0,8.791950226E0,9.917150871E0
2.011573078E0,1.570500135E-1,4.545000076E0,8.754000664E0,9.864796907E0
2.013536617E0,1.960500032E-1,4.545000076E0,8.754000664E0,9.865494864E0
2.015500068E0,1.960500032E-1,4.621950150E0,8.754000664E0,9.901181061E0
2.017463622E0,1.960500032E-1,4.584000111E0,8.791950226E0,9.917150871E0
2.019427145E0,1.570500135E-1,4.584000111E0,8.830050468E0,9.950251906E0
2.021390686E0,1.960500032E-1,4.584000111E0,8.791950226E0,9.917150871E0
2.023354222E0,1.960500032E-1,4.584000111E0,8.791950226E0,9.917150871E0
2.025317266E0,1.570500135E-1,4.584000111E0,8.791950226E0,9.916456549E0
2.027280454E0,1.960500032E-1,4.621950150E0,8.830050468E0,9.968482837E0
2.029244052E0,1.570500135E-1,4.545000076E0,8.791950226E0,9.898488732E0
2.031207529E0,1.570500135E-1,4.584000111E0,8.791950226E0,9.916456549E0
2.033171078E0,1.570500135E-1,4.621950150E0,8.754000664E0,9.900485620E0
2.035134606E0,1.570500135E-1,4.584000111E0,8.791950226E0,9.916456549E0
2.037097796E0,1.570500135E-1,4.584000111E0,8.830050468E0,9.950251906E0
2.039061079E0,1.960500032E-1,4.584000111E0,8.830050468E0,9.950943869E0
2.041024480E0,1.570500135E-1,4.584000111E0,8.754000664E0,9.882825980E0
2.042987846E0,1.570500135E-1,4.584000111E0,8.830050468E0,9.950251906E0
2.044951414E0,1.570500135E-1,4.545000076E0,8.791950226E0,9.898488732E0
2.046914923E0,1.570500135E-1,4.545000076E0,8.791950226E0,9.898488732E0
2.048878088E0,1.960500032E-1,4.545000076E0,8.869050026E0,9.967723394E0
2.050841367E0,2.340000123E-1,4.545000076E0,8.791950226E0,9.900008610E0
2.052804590E0,2.340000123E-1,4.584000111E0,8.791950226E0,9.917973674E0
2.054767829E0,1.960500032E-1,4.545000076E0,8.830050468E0,9.933038436E0
2.056731373E0,1.960500032E-1,4.584000111E0,8.791950226E0,9.917150871E0
2.058694827E0,2.340000123E-1,4.545000076E0,8.754000664E0,9.866321975E0
2.060658075E0,1.960500032E-1,4.545000076E0,8.791950226E0,9.899184313E0
2.062621377E0,2.340000123E-1,4.584000111E0,8.830050468E0,9.951763879E0
2.064584730E0,1.960500032E-1,4.545000076E0,8.830050468E0,9.933038436E0
2.066548068E0,1.960500032E-1,4.545000076E0,8.830050468E0,9.933038436E0
2.068511506E0,1.960500032E-1,4.584000111E0,8.791950226E0,9.917150871E0
2.070474914E0,2.340000123E-1,4.545000076E0,8.830050468E0,9.933859923E0
2.072438115E0,2.340000123E-1,4.584000111E0,8.830050468E0,9.951763879E0
2.074401377E0,1.960500032E-1,4.545000076E0,8.830050468E0,9.933038436E0
2.076364737E0,2.340000123E-1,4.507050037E0,8.830050468E0,9.916554206E0
2.078328068E0,1.960500032E-1,4.545000076E0,8.791950226E0,9.899184313E0
2.080291462E0,1.960500032E-1,4.584000111E0,8.830050468E0,9.950943869E0
2.082254837E0,1.960500032E-1,4.545000076E0,8.830050468E0,9.933038436E0
2.084218044E0,1.960500032E-1,4.584000111E0,8.791950226E0,9.917150871E0
2.086181301E0,2.340000123E-1,4.584000111E0,8.869050026E0,9.986383799E0
2.088144887E0,1.960500032E-1,4.584000111E0,8.830050468E0,9.950943869E0
2.090108376E0,1.960500032E-1,4.545000076E0,8.869050026E0,9.967723394E0
2.092071563E0,1.570500135E-1,4.584000111E0,8.830050468E0,9.950251906E0
2.094034839E0,1.960500032E-1,4.545000076E0,8.830050468E0,9.933038436E0
2.095998222E0,2.340000123E-1,4.584000111E0,8.869050026E0,9.986383799E0
2.097961587E0,1.960500032E-1,4.545000076E0,8.869050026E0,9.967723394E0
2.099925020E0,1.570500135E-1,4.584000111E0,8.907000542E0,1.001860172E1
2.101888433E0,1.960500032E-1,4.545000076E0,8.869050026E0,9.967723394E0
2.103851769E0,1.570500135E-1,4.545000076E0,8.907000542E0,1.000081742E1
2.105815128E0,1.960500032E-1,4.584000111E0,8.830050468E0,9.950943869E0
2.107778376E0,1.960500032E-1,4.545000076E0,8.907000542E0,1.000150588E1
2.109741661E0,1.189500093E-1,4.545000076E0,8.830050468E0,9.931815850E0
2.111705017E0,1.960500032E-1,4.545000076E0,8.869050026E0,9.967723394E0
2.113668352E0,1.960500032E-1,4.584000111E0,8.830050468E0,9.950943869E0
2.115631611E0,1.960500032E-1,4.584000111E0,8.791950226E0,9.917150871E0
2.117594892E0,1.960500032E-1,4.584000111E0,8.791950226E0,9.917150871E0
2.119558414E0,1.960500032E-1,4.545000076E0,8.830050468E0,9.933038436E0
2.121521876E0,1.960500032E-1,4.545000076E0,8.830050468E0,9.933038436E0
2.123485248E0,1.570500135E-1,4.584000111E0,8.869050026E0,9.984877069E0
2.125448647E0,1.960500032E-1,4.584000111E0,8.869050026E0,9.985566633E0
2.127411714E0,1.960500032E-1,4.584000111E0,8.830050468E0,9.950943869E0
2.129374878E0,1.189500093E-1,4.584000111E0,8.830050468E0,9.949723483E0
2.131337920E0,1.570500135E-1,4.584000111E0,8.830050468E0,9.950251906E0
2.133301012E0,1.570500135E-1,4.584000111E0,8.869050026E0,9.984877069E0
2.135264400E0,1.960500032E-1,4.584000111E0,8.791950226E0,9.917150871E0
2.137227702E0,1.960500032E-1,4.545000076E0,8.869050026E0,9.967723394E0
2.139190967E0,1.960500032E-1,4.584000111E0,8.830050468E0,9.950943869E0
2.141154243E0,1.960500032E-1,4.621950150E0,8.869050026E0,1.000304489E1
2.143117679E0,1.570500135E-1,4.584000111E0,8.715000153E0,9.848296776E0
2.145081044E0,1.570500135E-1,4.584000111E0,8.791950226E0,9.916456549E0
2.147044253E0,1.960500032E-1,4.584000111E0,8.830050468E0,9.950943869E0
2.149007508E0,1.570500135E-1,4.621950150E0,8.830050468E0,9.967792091E0
2.150970869E0,1.570500135E-1,4.621950150E0,8.754000664E0,9.900485620E0
2.152934198E0,1.570500135E-1,4.621950150E0,8.791950226E0,9.934056405E0
2.154897278E0,1.570500135E-1,4.584000111E0,8.830050468E0,9.950251906E0
2.156860431E0,1.960500032E-1,4.621950150E0,8.791950226E0,9.934749497E0
2.158823629E0,1.189500093E-1,4.621950150E0,8.754000664E0,9.899954541E0
2.160786813E0,1.570500135E-1,4.621950150E0,8.791950226E0,9.934056405E0
2.162750052E0,1.570500135E-1,4.621950150E0,8.791950226E0,9.934056405E0
2.164713275E0,1.960500032E-1,4.584000111E0,8.791950226E0,9.917150871E0
2.166676373E0,1.570500135E-1,4.621950150E0,8.791950226E0,9.934056405E0
2.168639508E0,1.570500135E-1,4.584000111E0,8.754000664E0,9.882825980E0
2.170602574E0,1.570500135E-1,4.584000111E0,8.791950226E0,9.916456549E0
2.172565661E0,1.570500135E-1,4.621950150E0,8.754000664E0,9.900485620E0
2.174528556E0,1.570500135E-1,4.621950150E0,8.754000664E0,9.900485620E0
2.176491508E0,1.570500135E-1,4.584000111E0,8.791950226E0,9.916456549E0
2.178454590E0,1.570500135E-1,4.584000111E0,8.791950226E0,9.916456549E0
2.180417644E0,1.960500032E-1,4.621950150E0,8.791950226E0,9.934749497E0
2.182380725E0,1.189500093E-1,4.584000111E0,8.791950226E0,9.915926325E0
2.184343798E0,1.570500135E-1,4.621950150E0,8.791950226E0,9.934056405E0
2.186307011E0,1.189500093E-1,4.621950150E0,8.830050468E0,9.967264598E0
2.188270183E0,1.189500093E-1,4.621950150E0,8.830050468E0,9.967264598E0
2.190233114E0,1.570500135E-1,4.621950150E0,8.791950226E0,9.934056405E0
2.192196113E0,1.570500135E-1,4.621950150E0,8.830050468E0,9.967792091E0
2.194159023E0,1.189500093E-1,4.621950150E0,8.830050468E0,9.967264598E0
2.196121959E0,1.189500093E-1,4.621950150E0,8.869050026E0,1.000183087E1
2.198084880E0,1.570500135E-1,4.621950150E0,8.830050468E0,9.967792091E0
2.200047805E0,1.570500135E-1,4.584000111E0,8.869050026E0,9.984877069E0
2.202010872E0,1.960500032E-1,4.584000111E0,8.869050026E0,9.985566633E0
2.203973890E0,1.570500135E-1,4.584000111E0,8.869050026E0,9.984877069E0
2.205936977E0,1.570500135E-1,4.545000076E0,8.830050468E0,9.932345225E0
2.207900044E0,1.570500135E-1,4.545000076E0,8.869050026E0,9.967032596E0
2.209863303E0,1.189500093E-1,4.584000111E0,8.869050026E0,9.984350479E0
2.211826506E0,1.570500135E-1,4.621950150E0,8.907000542E0,1.003602245E1
2.213789921E0,1.960500032E-1,4.584000111E0,8.869050026E0,9.985566633E0
2.215753274E0,1.960500032E-1,4.621950150E0,8.869050026E0,1.000304489E1
2.217716124E0,1.960500032E-1,4.621950150E0,8.869050026E0,1.000304489E1
2.219679122E0,1.189500093E-1,4.621950150E0,8.830050468E0,9.967264598E0
2.221642077E0,1.189500093E-1,4.621950150E0,8.869050026E0,1.000183087E1
2.223605045E0,1.570500135E-1,4.621950150E0,8.791950226E0,9.934056405E0
2.225568275E0,1.570500135E-1,4.621950150E0,8.830050468E0,9.967792091E0
2.227531428E0,1.189500093E-1,4.621950150E0,8.830050468E0,9.967264598E0
2.229494672E0,1.960500032E-1,4.621950150E0,8.830050468E0,9.968482837E0
2.231457889E0,1.570500135E-1,4.621950150E0,8.791950226E0,9.934056405E0
2.233421122E0,1.570500135E-1,4.621950150E0,8.830050468E0,9.967792091E0
2.235384351E0,1.960500032E-1,4.584000111E0,8.830050468E0,9.950943869E0
2.237347621E0,1.960500032E-1,4.584000111E0,8.830050468E0,9.950943869E0
2.239310851E0,1.570500135E-1,4.584000111E0,8.830050468E0,9.950251906E0
2.241273768E0,1.189500093E-1,4.584000111E0,8.869050026E0,9.984350479E0
2.243236777E0,1.960500032E-1,4.584000111E0,8.791950226E0,9.917150871E0
2.245199864E0,1.570500135E-1,4.545000076E0,8.830050468E0,9.932345225E0
2.247162928E0,1.960500032E-1,4.545000076E0,8.791950226E0,9.899184313E0
2.249126188E0,2.340000123E-1,4.545000076E0,8.791950226E0,9.900008610E0
2.251089390E0,2.340000123E-1,4.507050037E0,8.830050468E0,9.916554206E0
2.253052625E0,2.719500065E-1,4.507050037E0,8.830050468E0,9.917522277E0
2.255015851E0,2.719500065E-1,4.545000076E0,8.830050468E0,9.934826308E0
2.256979218E0,2.340000123E-1,4.545000076E0,8.791950226E0,9.900008610E0
2.258942544E0,2.340000123E-1,4.545000076E0,8.869050026E0,9.968542023E0
2.260905653E0,2.719500065E-1,4.545000076E0,8.830050468E0,9.934826308E0
2.262868806E0,1.960500032E-1,4.507050037E0,8.830050468E0,9.915731285E0
2.264832049E0,2.340000123E-1,4.507050037E0,8.791950226E0,9.882643615E0
2.266795265E0,2.340000123E-1,4.545000076E0,8.791950226E0,9.900008610E0
2.268758678E0,2.340000123E-1,4.545000076E0,8.869050026E0,9.968542023E0
2.270722034E0,1.960500032E-1,4.545000076E0,8.791950226E0,9.899184313E0
2.272685204E0,1.960500032E-1,4.545000076E0,8.869050026E0,9.967723394E0
2.274648425E0,1.960500032E-1,4.545000076E0,8.791950226E0,9.899184313E0
2.276611116E0,1.570500135E-1,4.545000076E0,8.791950226E0,9.898488732E0
2.278573963E0,1.189500093E-1,4.584000111E0,8.830050468E0,9.949723483E0
2.280537078E0,1.189500093E-1,4.584000111E0,8.869050026E0,9.984350479E0
2.282500115E0,1.189500093E-1,4.584000111E0,8.907000542E0,1.001807690E1
2.284463448E0,1.189500093E-1,4.584000111E0,8.791950226E0,9.915926325E0
2.286426678E0,1.570500135E-1,4.584000111E0,8.830050468E0,9.950251906E0
2.288389909E0,8.100000024E-2,4.621950150E0,8.830050468E0,9.966883939E0
2.290353139E0,1.570500135E-1,4.621950150E0,8.869050026E0,1.000235654E1
2.292316370E0,1.189500093E-1,4.584000111E0,8.830050468E0,9.949723483E0
2.294279601E0,1.189500093E-1,4.584000111E0,8.907000542E0,1.001807690E1
2.296242787E0,1.960500032E-1,4.621950150E0,8.791950226E0,9.934749497E0
2.298205987E0,1.189500093E-1,4.621950150E0,8.830050468E0,9.967264598E0
2.300169088E0,1.189500093E-1,4.621950150E0,8.830050468E0,9.967264598E0
2.302132218E0,1.960500032E-1,4.584000111E0,8.791950226E0,9.917150871E0
2.304095601E0,1.960500032E-1,4.621950150E0,8.830050468E0,9.968482837E0
2.306058909E0,1.960500032E-1,4.584000111E0,8.830050468E0,9.950943869E0
2.308021947E0,1.960500032E-1,4.584000111E0,8.791950226E0,9.917150871E0
2.309985064E0,1.960500032E-1,4.621950150E0,8.754000664E0,9.901181061E0
2.311948134E0,1.570500135E-1,4.545000076E0,8.791950226E0,9.898488732E0
2.313911218E0,1.960500032E-1,4.545000076E0,8.754000664E0,9.865494864E0
2.315874158E0,1.570500135E-1,4.584000111E0,8.754000664E0,9.882825980E0
2.317837141E0,1.960500032E-1,4.584000111E0,8.791950226E0,9.917150871E0
2.319800059E0,1.960500032E-1,4.584000111E0,8.754000664E0,9.883522663E0
2.321762993E0,2.340000123E-1,4.545000076E0,8.791950226E0,9.900008610E0
2.323726048E0,1.960500032E-1,4.507050037E0,8.791950226E0,9.881817870E0
2.325689067E0,2.340000123E-1,4.584000111E0,8.791950226E0,9.917973674E0
2.327651975E0,2.340000123E-1,4.584000111E0,8.791950226E0,9.917973674E0
2.329614916E0,2.340000123E-1,4.545000076E0,8.791950226E0,9.900008610E0
2.331577617E0,2.340000123E-1,4.545000076E0,8.830050468E0,9.933859923E0
2.333540416E0,2.340000123E-1,4.584000111E0,8.791950226E0,9.917973674E0
2.335503359E0,1.570500135E-1,4.584000111E0,8.869050026E0,9.984877069E0
2.337466260E0,1.960500032E-1,4.584000111E0,8.830050468E0,9.950943869E0
2.339429232E0,2.340000123E-1,4.584000111E0,8.830050468E0,9.951763879E0
2.341392183E0,1.960500032E-1,4.584000111E0,8.869050026E0,9.985566633E0
2.343355407E0,1.960500032E-1,4.621950150E0,8.830050468E0,9.968482837E0
2.345318558E0,1.960500032E-1,4.660050392E0,8.830050468E0,9.986205312E0
2.347281803E0,1.960500032E-1,4.584000111E0,8.869050026E0,9.985566633E0
2.349245020E0,1.960500032E-1,4.584000111E0,8.791950226E0,9.917150871E0
2.351208119E0,2.340000123E-1,4.621950150E0,8.830050468E0,9.969301403E0
2.353171252E0,1.960500032E-1,4.584000111E0,8.791950226E0,9.917150871E0
2.355134125E0,1.960500032E-1,4.584000111E0,8.754000664E0,9.883522663E0
2.357097084E0,1.960500032E-1,4.621950150E0,8.791950226E0,9.934749497E0
2.359060541E0,1.570500135E-1,4.621950150E0,8.791950226E0,9.934056405E0
2.361023852E0,1.189500093E-1,4.621950150E0,8.869050026E0,1.000183087E1
2.362987385E0,1.960500032E-1,4.584000111E0,8.791950226E0,9.917150871E0
2.364950852E0,1.960500032E-1,4.584000111E0,8.791950226E0,9.917150871E0
2.366913941E0,1.960500032E-1,4.584000111E0,8.830050468E0,9.950943869E0
2.368877117E0,1.960500032E-1,4.660050392E0,8.830050468E0,9.986205312E0
2.370840717E0,1.570500135E-1,4.660050392E0,8.791950226E0,9.951840189E0
2.372804192E0,1.570500135E-1,4.660050392E0,8.830050468E0,9.985515792E0
2.374767202E0,1.960500032E-1,4.584000111E0,8.791950226E0,9.917150871E0
2.376730348E0,1.570500135E-1,4.660050392E0,8.830050468E0,9.985515792E0
2.378693768E0,1.570500135E-1,4.660050392E0,8.791950226E0,9.951840189E0
2.380657111E0,1.570500135E-1,4.660050392E0,8.830050468E0,9.985515792E0
2.382620278E0,1.570500135E-1,4.621950150E0,8.869050026E0,1.000235654E1
2.384583497E0,1.570500135E-1,4.584000111E0,8.830050468E0,9.950251906E0
2.386546369E0,1.570500135E-1,4.621950150E0,8.869050026E0,1.000235654E1
2.388509343E0,8.100000024E-2,4.584000111E0,8.869050026E0,9.983970472E0
2.390472437E0,1.960500032E-1,4.584000111E0,8.869050026E0,9.985566633E0
2.392435495E0,1.570500135E-1,4.660050392E0,8.869050026E0,1.002001910E1
2.394398936E0,1.570500135E-1,4.621950150E0,8.869050026E0,1.000235654E1
2.396362264E0,1.570500135E-1,4.584000111E0,8.869050026E0,9.984877069E0
2.398325525E0,1.570500135E-1,4.584000111E0,8.983950615E0,1.008707541E1
2.400288805E0,1.570500135E-1,4.621950150E0,8.907000542E0,1.003602245E1
2.402252171E0,1.570500135E-1,4.621950150E0,8.907000542E0,1.003602245E1
2.404215505E0,1.570500135E-1,4.621950150E0,8.869050026E0,1.000235654E1
2.406178719E0,1.570500135E-1,4.584000111E0,8.944950104E0,1.005235565E1
2.408141969E0,1.960500032E-1,4.545000076E0,8.907000542E0,1.000150588E1
2.410105061E0,1.570500135E-1,4.584000111E0,8.944950104E0,1.005235565E1
2.412068200E0,1.189500093E-1,4.584000111E0,8.869050026E0,9.984350479E0
2.414031612E0,1.570500135E-1,4.545000076E0,8.907000542E0,1.000081742E1
2.415994953E0,1.570500135E-1,4.545000076E0,8.869050026E0,9.967032596E0
2.417958166E0,1.189500093E-1,4.584000111E0,8.907000542E0,1.001807690E1
2.419921416E0,1.570500135E-1,4.545000076E0,8.907000542E0,1.000081742E1
2.421884644E0,1.570500135E-1,4.545000076E0,8.907000542E0,1.000081742E1
2.423847878E0,1.570500135E-1,4.507050037E0,8.907000542E0,9.983627767E0
2.425811389E0,1.570500135E-1,4.507050037E0,8.869050026E0,9.949784576E0
2.427774842E0,1.960500032E-1,4.507050037E0,8.907000542E0,9.984317417E0
2.429738081E0,1.570500135E-1,4.507050037E0,8.869050026E0,9.949784576E0
2.431701382E0,1.960500032E-1,4.545000076E0,8.907000542E0,1.000150588E1
2.433664915E0,1.189500093E-1,4.584000111E0,8.907000542E0,1.001807690E1
2.435628380E0,1.570500135E-1,4.507050037E0,8.869050026E0,9.949784576E0
2.437591451E0,1.960500032E-1,4.507050037E0,8.944950104E0,1.001818686E1
2.439554627E0,1.960500032E-1,4.545000076E0,8.869050026E0,9.967723394E0
2.441517687E0,1.960500032E-1,4.507050037E0,8.869050026E0,9.950476572E0
2.443480781E0,1.960500032E-1,4.545000076E0,8.907000542E0,1.000150588E1
2.445444169E0,1.570500135E-1,4.545000076E0,8.869050026E0,9.967032596E0
2.447407471E0,1.960500032E-1,4.545000076E0,8.907000542E0,1.000150588E1
2.449370712E0,1.960500032E-1,4.584000111E0,8.869050026E0,9.985566633E0
2.451333988E0,1.570500135E-1,4.545000076E0,8.869050026E0,9.967032596E0
2.453297345E0,1.960500032E-1,4.545000076E0,8.869050026E0,9.967723394E0
2.455260678E0,1.570500135E-1,4.545000076E0,8.791950226E0,9.898488732E0
2.457223893E0,1.189500093E-1,4.545000076E0,8.830050468E0,9.931815850E0
2.459187142E0,1.960500032E-1,4.584000111E0,8.830050468E0,9.950943869E0
2.461150064E0,1.960500032E-1,4.545000076E0,8.791950226E0,9.899184313E0
2.463113075E0,2.340000123E-1,4.545000076E0,8.754000664E0,9.866321975E0
2.465076297E0,2.340000123E-1,4.545000076E0,8.791950226E0,9.900008610E0
2.467039457E0,1.960500032E-1,4.584000111E0,8.754000664E0,9.883522663E0
2.469002700E0,1.960500032E-1,4.545000076E0,8.754000664E0,9.865494864E0
2.470965919E0,1.960500032E-1,4.584000111E0,8.754000664E0,9.883522663E0
2.472928953E0,2.340000123E-1,4.545000076E0,8.754000664E0,9.866321975E0
2.474892055E0,2.340000123E-1,4.584000111E0,8.754000664E0,9.884348266E0
2.476854992E0,1.960500032E-1,4.507050037E0,8.754000664E0,9.848069012E0
2.478817978E0,1.960500032E-1,4.545000076E0,8.754000664E0,9.865494864E0
2.480781249E0,1.960500032E-1,4.621950150E0,8.791950226E0,9.934749497E0
2.482744437E0,2.340000123E-1,4.584000111E0,8.791950226E0,9.917973674E0
2.484707461E0,1.960500032E-1,4.545000076E0,8.791950226E0,9.899184313E0
2.486670526E0,1.960500032E-1,4.545000076E0,8.791950226E0,9.899184313E0
2.488633604E0,1.960500032E-1,4.545000076E0,8.830050468E0,9.933038436E0
2.490596678E0,1.960500032E-1,4.545000076E0,8.791950226E0,9.899184313E0
2.492559756E0,1.960500032E-1,4.584000111E0,8.830050468E0,9.950943869E0
2.494522832E0,1.960500032E-1,4.545000076E0,8.791950226E0,9.899184313E0
2.496485968E0,1.960500032E-1,4.545000076E0,8.830050468E0,9.933038436E0
2.498449077E0,1.570500135E-1,4.507050037E0,8.830050468E0,9.915036864E0
2.500412464E0,2.340000123E-1,4.584000111E0,8.830050468E0,9.951763879E0
2.502375769E0,1.960500032E-1,4.545000076E0,8.830050468E0,9.933038436E0
2.504338988E0,1.960500032E-1,4.584000111E0,8.830050468E0,9.950943869E0
2.506302233E0,1.960500032E-1,4.545000076E0,8.791950226E0,9.899184313E0
2.508265262E0,1.960500032E-1,4.584000111E0,8.791950226E0,9.917150871E0
2.510228368E0,1.960500032E-1,4.545000076E0,8.791950226E0,9.899184313E0
2.512191483E0,1.570500135E-1,4.584000111E0,8.830050468E0,9.950251906E0
2.514154596E0,1.570500135E-1,4.584000111E0,8.791950226E0,9.916456549E0
2.516117847E0,1.960500032E-1,4.545000076E0,8.830050468E0,9.933038436E0
2.518081058E0,1.960500032E-1,4.584000111E0,8.869050026E0,9.985566633E0
2.520044272E0,1.189500093E-1,4.621950150E0,8.830050468E0,9.967264598E0
2.522007468E0,1.189500093E-1,4.584000111E0,8.791950226E0,9.915926325E0
2.523970209E0,1.570500135E-1,4.584000111E0,8.869050026E0,9.984877069E0
2.525933084E0,1.570500135E-1,4.584000111E0,8.830050468E0,9.950251906E0
2.527896555E0,1.570500135E-1,4.584000111E0,8.830050468E0,9.950251906E0
2.529859851E0,1.570500135E-1,4.545000076E0,8.830050468E0,9.932345225E0
2.531823003E0,1.960500032E-1,4.621950150E0,8.907000542E0,1.003670850E1
2.533786214E0,1.960500032E-1,4.584000111E0,8.830050468E0,9.950943869E0
2.535749447E0,1.960500032E-1,4.584000111E0,8.869050026E0,9.985566633E0
2.537712673E0,1.960500032E-1,4.545000076E0,8.830050468E0,9.933038436E0
2.539675771E0,2.340000123E-1,4.584000111E0,8.830050468E0,9.951763879E0
2.541638906E0,2.340000123E-1,4.621950150E0,8.830050468E0,9.969301403E0
2.543602002E0,1.960500032E-1,4.545000076E0,8.830050468E0,9.933038436E0
2.545565089E0,1.960500032E-1,4.545000076E0,8.869050026E0,9.967723394E0
2.547528299E0,1.960500032E-1,4.545000076E0,8.830050468E0,9.933038436E0
2.549491472E0,1.960500032E-1,4.621950150E0,8.830050468E0,9.968482837E0
2.551454712E0,1.960500032E-1,4.584000111E0,8.791950226E0,9.917150871E0
2.553417933E0,1.570500135E-1,4.584000111E0,8.830050468E0,9.950251906E0
2.555381151E0,1.960500032E-1,4.584000111E0,8.791950226E0,9.917150871E0
2.557344380E0,1.960500032E-1,4.584000111E0,8.791950226E0,9.917150871E0
2.559307252E0,1.960500032E-1,4.545000076E0,8.830050468E0,9.933038436E0
2.561270228E0,1.960500032E-1,4.584000111E0,8.791950226E0,9.917150871E0
2.563233187E0,1.570500135E-1,4.621950150E0,8.830050468E0,9.967792091E0
2.565196151E0,1.960500032E-1,4.621950150E0,8.791950226E0,9.934749497E0
2.567159612E0,1.570500135E-1,4.584000111E0,8.869050026E0,9.984877069E0
2.569122923E0,1.570500135E-1,4.584000111E0,8.869050026E0,9.984877069E0
2.571086096E0,1.960500032E-1,4.584000111E0,8.869050026E0,9.985566633E0
2.573049310E0,1.189500093E-1,4.584000111E0,8.830050468E0,9.949723483E0
2.575012183E0,1.960500032E-1,4.584000111E0,8.869050026E0,9.985566633E0
2.576975156E0,1.570500135E-1,4.584000111E0,8.830050468E0,9.950251906E0
2.578938290E0,1.570500135E-1,4.621950150E0,8.791950226E0,9.934056405E0
2.580901380E0,1.570500135E-1,4.621950150E0,8.791950226E0,9.934056405E0
2.582864770E0,1.570500135E-1,4.660050392E0,8.869050026E0,1.002001910E1
2.584828072E0,1.960500032E-1,4.584000111E0,8.791950226E0,9.917150871E0
2.586791292E0,1.189500093E-1,4.621950150E0,8.791950226E0,9.933527121E0
2.588754536E0,1.570500135E-1,4.584000111E0,8.754000664E0,9.882825980E0
2.590717601E0,1.570500135E-1,4.584000111E0,8.830050468E0,9.950251906E0
2.592680738E0,1.570500135E-1,4.621950150E0,8.830050468E0,9.967792091E0
2.594643760E0,1.570500135E-1,4.584000111E0,8.830050468E0,9.950251906E0
2.596606815E0,1.570500135E-1,4.584000111E0,8.791950226E0,9.916456549E0
2.598569940E0,1.570500135E-1,4.584000111E0,8.791950226E0,9.916456549E0
2.600533044E0,1.189500093E-1,4.621950150E0,8.791950226E0,9.933527121E0
2.602496661E0,1.189500093E-1,4.621950150E0,8.830050468E0,9.967264598E0
2.604460125E0,8.100000024E-2,4.621950150E0,8.830050468E0,9.966883939E0
2.606423452E0,1.570500135E-1,4.621950150E0,8.869050026E0,1.000235654E1
2.608386819E0,1.570500135E-1,4.621950150E0,8.830050468E0,9.967792091E0
2.610350027E0,1.570500135E-1,4.621950150E0,8.830050468E0,9.967792091E0
2.612313281E0,1.189500093E-1,4.584000111E0,8.869050026E0,9.984350479E0
2.614276723E0,1.189500093E-1,4.621950150E0,8.869050026E0,1.000183087E1
2.616240116E0,1.189500093E-1,4.621950150E0,8.869050026E0,1.000183087E1
2.618202959E0,8.100000024E-2,4.584000111E0,8.869050026E0,9.983970472E0
2.620165964E0,1.189500093E-1,4.621950150E0,8.830050468E0,9.967264598E0
2.622129188E0,1.189500093E-1,4.584000111E0,8.869050026E0,9.984350479E0
2.624092347E0,1.570500135E-1,4.584000111E0,8.944950104E0,1.005235565E1
2.626055571E0,1.570500135E-1,4.584000111E0,8.830050468E0,9.950251906E0
2.628018789E0,1.189500093E-1,4.584000111E0,8.869050026E0,9.984350479E0
2.629981843E0,1.189500093E-1,4.584000111E0,8.907000542E0,1.001807690E1
2.631944945E0,1.189500093E-1,4.621950150E0,8.830050468E0,9.967264598E0
2.633908062E0,1.570500135E-1,4.621950150E0,8.830050468E0,9.967792091E0
2.635871174E0,1.189500093E-1,4.584000111E0,8.869050026E0,9.984350479E0
2.637834814E0,1.570500135E-1,4.621950150E0,8.791950226E0,9.934056405E0
2.639798279E0,1.960500032E-1,4.584000111E0,8.869050026E0,9.985566633E0
2.641761470E0,1.960500032E-1,4.621950150E0,8.869050026E0,1.000304489E1
2.643724742E0,1.570500135E-1,4.621950150E0,8.830050468E0,9.967792091E0
2.645688100E0,1.570500135E-1,4.621950150E0,8.869050026E0,1.000235654E1
2.647651433E0,1.570500135E-1,4.584000111E0,8.830050468E0,9.950251906E0
2.649614647E0,1.960500032E-1,4.660050392E0,8.791950226E0,9.952532041E0
2.651577896E0,1.960500032E-1,4.621950150E0,8.830050468E0,9.968482837E0
2.653540808E0,1.570500135E-1,4.621950150E0,8.791950226E0,9.934056405E0
2.655503819E0,1.960500032E-1,4.621950150E0,8.830050468E0,9.968482837E0
2.657466727E0,1.960500032E-1,4.621950150E0,8.791950226E0,9.934749497E0
2.659429666E0,1.960500032E-1,4.621950150E0,8.715000153E0,9.866716092E0
2.661393101E0,1.570500135E-1,4.545000076E0,8.830050468E0,9.932345225E0
2.663356376E0,1.570500135E-1,4.584000111E0,8.830050468E0,9.950251906E0
2.665319600E0,1.189500093E-1,4.621950150E0,8.791950226E0,9.933527121E0
2.667282839E0,1.960500032E-1,4.621950150E0,8.791950226E0,9.934749497E0
2.669246113E0,1.570500135E-1,4.621950150E0,8.830050468E0,9.967792091E0
2.671209376E0,1.960500032E-1,4.584000111E0,8.830050468E0,9.950943869E0
2.673172393E0,1.960500032E-1,4.584000111E0,8.791950226E0,9.917150871E0
2.675135503E0,1.960500032E-1,4.584000111E0,8.869050026E0,9.985566633E0
2.677098529E0,1.570500135E-1,4.584000111E0,8.830050468E0,9.950251906E0
2.679061580E0,1.570500135E-1,4.621950150E0,8.791950226E0,9.934056405E0
2.681024660E0,1.570500135E-1,4.621950150E0,8.830050468E0,9.967792091E0
2.682987732E0,1.570500135E-1,4.621950150E0,8.869050026E0,1.000235654E1
2.684950631E0,1.960500032E-1,4.584000111E0,8.869050026E0,9.985566633E0
2.686913580E0,2.340000123E-1,4.545000076E0,8.830050468E0,9.933859923E0
2.688876363E0,1.570500135E-1,4.621950150E0,8.830050468E0,9.967792091E0
2.690839195E0,1.960500032E-1,4.545000076E0,8.907000542E0,1.000150588E1
2.692802268E0,1.570500135E-1,4.584000111E0,8.907000542E0,1.001860172E1
2.694765270E0,1.570500135E-1,4.584000111E0,8.869050026E0,9.984877069E0
2.696728221E0,1.189500093E-1,4.584000111E0,8.869050026E0,9.984350479E0
2.698691190E0,1.189500093E-1,4.584000111E0,8.869050026E0,9.984350479E0
2.700654420E0,1.960500032E-1,4.584000111E0,8.869050026E0,9.985566633E0
2.702617573E0,1.570500135E-1,4.584000111E0,8.791950226E0,9.916456549E0
2.704580817E0,1.189500093E-1,4.584000111E0,8.907000542E0,1.001807690E1
2.706544034E0,1.570500135E-1,4.621950150E0,8.869050026E0,1.000235654E1
2.708507118E0,1.570500135E-1,4.584000111E0,8.944950104E0,1.005235565E1
2.710470252E0,1.189500093E-1,4.584000111E0,8.907000542E0,1.001807690E1
2.712433274E0,1.570500135E-1,4.584000111E0,8.907000542E0,1.001860172E1
2.714396329E0,1.189500093E-1,4.621950150E0,8.869050026E0,1.000183087E1
2.716359409E0,1.570500135E-1,4.621950150E0,8.869050026E0,1.000235654E1
2.718322481E0,1.189500093E-1,4.584000111E0,8.944950104E0,1.005183259E1
2.720285619E0,1.960500032E-1,4.584000111E0,8.907000542E0,1.001928896E1
2.722248727E0,1.570500135E-1,4.584000111E0,8.907000542E0,1.001860172E1
2.724211933E0,1.570500135E-1,4.584000111E0,8.869050026E0,9.984877069E0
2.726175111E0,1.189500093E-1,4.584000111E0,8.907000542E0,1.001807690E1
2.728138036E0,1.570500135E-1,4.584000111E0,8.907000542E0,1.001860172E1
2.730101036E0,1.570500135E-1,4.545000076E0,8.907000542E0,1.000081742E1
2.732063936E0,1.570500135E-1,4.584000111E0,8.869050026E0,9.984877069E0
2.734026873E0,1.570500135E-1,4.545000076E0,8.869050026E0,9.967032596E0
2.735990333E0,1.570500135E-1,4.584000111E0,8.869050026E0,9.984877069E0
2.737953640E0,1.189500093E-1,4.584000111E0,8.791950226E0,9.915926325E0
2.739916679E0,1.189500093E-1,4.584000111E0,8.869050026E0,9.984350479E0
2.741879796E0,1.570500135E-1,4.545000076E0,8.830050468E0,9.932345225E0
2.743842860E0,1.570500135E-1,4.545000076E0,8.791950226E0,9.898488732E0
2.745805944E0,1.570500135E-1,4.584000111E0,8.791950226E0,9.916456549E0
2.747768975E0,1.189500093E-1,4.621950150E0,8.830050468E0,9.967264598E0
2.749732021E0,1.570500135E-1,4.621950150E0,8.754000664E0,9.900485620E0
2.751694968E0,1.570500135E-1,4.584000111E0,8.715000153E0,9.848296776E0
2.753657944E0,1.570500135E-1,4.584000111E0,8.754000664E0,9.882825980E0
2.755621004E0,1.570500135E-1,4.584000111E0,8.754000664E0,9.882825980E0
2.757584063E0,1.570500135E-1,4.545000076E0,8.791950226E0,9.898488732E0
2.759547278E0,1.960500032E-1,4.584000111E0,8.754000664E0,9.883522663E0
2.761510448E0,1.570500135E-1,4.584000111E0,8.754000664E0,9.882825980E0
2.763473510E0,1.570500135E-1,4.621950150E0,8.791950226E0,9.934056405E0
2.765436604E0,1.570500135E-1,4.584000111E0,8.715000153E0,9.848296776E0
2.767399847E0,1.960500032E-1,4.545000076E0,8.715000153E0,9.830904788E0
2.769363053E0,1.189500093E-1,4.584000111E0,8.754000664E0,9.882293951E0
2.771326469E0,1.960500032E-1,4.584000111E0,8.754000664E0,9.883522663E0
2.773289823E0,2.340000123E-1,4.584000111E0,8.715000153E0,9.849824398E0
2.775252898E0,1.960500032E-1,4.545000076E0,8.754000664E0,9.865494864E0
2.777216055E0,1.570500135E-1,4.545000076E0,8.715000153E0,9.830204375E0
2.779179447E0,1.960500032E-1,4.545000076E0,8.754000664E0,9.865494864E0
2.781142760E0,1.960500032E-1,4.584000111E0,8.791950226E0,9.917150871E0
2.783105662E0,2.340000123E-1,4.621950150E0,8.754000664E0,9.902005191E0
2.785068685E0,1.960500032E-1,4.584000111E0,8.715000153E0,9.848995902E0
2.787031905E0,1.960500032E-1,4.584000111E0,8.754000664E0,9.883522663E0
2.788995067E0,1.960500032E-1,4.584000111E0,8.754000664E0,9.883522663E0
2.790958186E0,2.340000123E-1,4.621950150E0,8.830050468E0,9.969301403E0
2.792921310E0,1.960500032E-1,4.584000111E0,8.754000664E0,9.883522663E0
2.794884379E0,1.960500032E-1,4.584000111E0,8.791950226E0,9.917150871E0
2.796847464E0,1.960500032E-1,4.584000111E0,8.754000664E0,9.883522663E0
2.798810719E0,1.570500135E-1,4.584000111E0,8.715000153E0,9.848296776E0
2.800773924E0,1.960500032E-1,4.584000111E0,8.791950226E0,9.917150871E0
2.802736963E0,2.340000123E-1,4.545000076E0,8.754000664E0,9.866321975E0
2.804700031E0,1.960500032E-1,4.621950150E0,8.754000664E0,9.901181061E0
2.806662613E0,1.960500032E-1,4.584000111E0,8.791950226E0,9.917150871E0
2.808625338E0,1.960500032E-1,4.584000111E0,8.791950226E0,9.917150871E0
2.810588294E0,2.340000123E-1,4.621950150E0,8.791950226E0,9.935570842E0
2.812551182E0,1.960500032E-1,4.621950150E0,8.791950226E0,9.934749497E0
2.814514477E0,1.960500032E-1,4.545000076E0,8.754000664E0,9.865494864E0
2.816477649E0,1.570500135E-1,4.584000111E0,8.830050468E0,9.950251906E0
2.818440845E0,2.340000123E-1,4.584000111E0,8.791950226E0,9.917973674E0
2.820404034E0,1.960500032E-1,4.545000076E0,8.754000664E0,9.865494864E0
2.822367092E0,1.960500032E-1,4.584000111E0,8.791950226E0,9.917150871E0
2.824330189E0,1.960500032E-1,4.621950150E0,8.791950226E0,9.934749497E0
2.826293080E0,1.570500135E-1,4.584000111E0,8.754000664E0,9.882825980E0
2.828256065E0,1.960500032E-1,4.584000111E0,8.791950226E0,9.917150871E0
2.830219111E0,1.960500032E-1,4.584000111E0,8.830050468E0,9.950943869E0
2.832182139E0,1.570500135E-1,4.621950150E0,8.830050468E0,9.967792091E0
2.834145091E0,1.570500135E-1,4.584000111E0,8.791950226E0,9.916456549E0
2.836108065E0,1.960500032E-1,4.584000111E0,8.791950226E0,9.917150871E0
2.838071163E0,1.960500032E-1,4.584000111E0,8.869050026E0,9.985566633E0
2.840034221E0,1.570500135E-1,4.584000111E0,8.830050468E0,9.950251906E0
2.841997482E0,1.960500032E-1,4.584000111E0,8.869050026E0,9.985566633E0
2.843960683E0,1.960500032E-1,4.621950150E0,8.869050026E0,1.000304489E1
2.845923559E0,1.570500135E-1,4.584000111E0,8.869050026E0,9.984877069E0
2.847886531E0,2.340000123E-1,4.621950150E0,8.869050026E0,1.000386063E1
2.849849805E0,1.570500135E-1,4.584000111E0,8.830050468E0,9.950251906E0
2.851812991E0,2.340000123E-1,4.584000111E0,8.830050468E0,9.951763879E0
2.853776050E0,1.570500135E-1,4.545000076E0,8.907000542E0,1.000081742E1
2.855739147E0,1.960500032E-1,4.621950150E0,8.869050026E0,1.000304489E1
2.857702175E0,1.570500135E-1,4.621950150E0,8.830050468E0,9.967792091E0
2.859665223E0,1.960500032E-1,4.584000111E0,8.869050026E0,9.985566633E0
2.861628489E0,1.960500032E-1,4.584000111E0,8.869050026E0,9.985566633E0
2.863591688E0,1.570500135E-1,4.584000111E0,8.869050026E0,9.984877069E0
2.865554925E0,1.570500135E-1,4.584000111E0,8.907000542E0,1.001860172E1
2.867518150E0,1.960500032E-1,4.584000111E0,8.869050026E0,9.985566633E0
2.869481202E0,1.960500032E-1,4.545000076E0,8.869050026E0,9.967723394E0
2.871444305E0,1.960500032E-1,4.584000111E0,8.869050026E0,9.985566633E0
2.873407372E0,2.340000123E-1,4.584000111E0,8.907000542E0,1.002010338E1
2.875370454E0,1.960500032E-1,4.584000111E0,8.830050468E0,9.950943869E0
2.877333350E0,1.570500135E-1,4.621950150E0,8.869050026E0,1.000235654E1
2.879296300E0,1.570500135E-1,4.584000111E0,8.830050468E0,9.950251906E0
2.881259084E0,1.570500135E-1,4.584000111E0,8.869050026E0,9.984877069E0
2.883221916E0,2.340000123E-1,4.545000076E0,8.830050468E0,9.933859923E0
2.885185247E0,1.960500032E-1,4.545000076E0,8.830050468E0,9.933038436E0
2.887148408E0,1.960500032E-1,4.584000111E0,8.830050468E0,9.950943869E0
2.889111651E0,1.960500032E-1,4.621950150E0,8.791950226E0,9.934749497E0
2.891074870E0,1.960500032E-1,4.584000111E0,8.830050468E0,9.950943869E0
2.893038059E0,1.570500135E-1,4.584000111E0,8.791950226E0,9.916456549E0
2.895001257E0,1.960500032E-1,4.545000076E0,8.869050026E0,9.967723394E0
2.896964322E0,1.960500032E-1,4.584000111E0,8.869050026E0,9.985566633E0
2.898927419E0,1.960500032E-1,4.584000111E0,8.791950226E0,9.917150871E0
2.900890852E0,1.960500032E-1,4.584000111E0,8.869050026E0,9.985566633E0
2.902854187E0,1.960500032E-1,4.584000111E0,8.791950226E0,9.917150871E0
2.904817220E0,1.570500135E-1,4.584000111E0,8.830050468E0,9.950251906E0
2.906780342E0,2.340000123E-1,4.584000111E0,8.791950226E0,9.917973674E0
2.908743480E0,1.960500032E-1,4.584000111E0,8.754000664E0,9.883522663E0
2.910706597E0,2.340000123E-1,4.584000111E0,8.791950226E0,9.917973674E0
2.912669846E0,1.960500032E-1,4.584000111E0,8.830050468E0,9.950943869E0
2.914633057E0,1.960500032E-1,4.545000076E0,8.869050026E0,9.967723394E0
2.916596652E0,1.960500032E-1,4.584000111E0,8.754000664E0,9.883522663E0
2.918560134E0,1.960500032E-1,4.584000111E0,8.791950226E0,9.917150871E0
2.920523503E0,1.960500032E-1,4.584000111E0,8.791950226E0,9.917150871E0
2.922486905E0,1.570500135E-1,4.621950150E0,8.830050468E0,9.967792091E0
2.924450646E0,1.960500032E-1,4.584000111E0,8.791950226E0,9.917150871E0
2.926414288E0,1.570500135E-1,4.584000111E0,8.791950226E0,9.916456549E0
2.928377765E0,1.960500032E-1,4.545000076E0,8.754000664E0,9.865494864E0
2.930341290E0,1.960500032E-1,4.584000111E0,8.791950226E0,9.917150871E0
2.932304544E0,1.960500032E-1,4.545000076E0,8.754000664E0,9.865494864E0
2.934267857E0,1.960500032E-1,4.584000111E0,8.791950226E0,9.917150871E0
2.936231074E0,1.570500135E-1,4.621950150E0,8.830050468E0,9.967792091E0
2.938194319E0,1.570500135E-1,4.584000111E0,8.791950226E0,9.916456549E0
2.940157547E0,1.960500032E-1,4.584000111E0,8.791950226E0,9.917150871E0
2.942120780E0,1.960500032E-1,4.545000076E0,8.791950226E0,9.899184313E0
2.944084030E0,1.960500032E-1,4.545000076E0,8.830050468E0,9.933038436E0
2.946047261E0,1.960500032E-1,4.584000111E0,8.830050468E0,9.950943869E0
2.948010671E0,1.570500135E-1,4.621950150E0,8.791950226E0,9.934056405E0
2.949974028E0,2.340000123E-1,4.584000111E0,8.791950226E0,9.917973674E0
2.951937417E0,2.340000123E-1,4.621950150E0,8.791950226E0,9.935570842E0
2.953900797E0,1.960500032E-1,4.621950150E0,8.869050026E0,1.000304489E1
2.955863969E0,2.340000123E-1,4.584000111E0,8.830050468E0,9.951763879E0
2.957827195E0,1.960500032E-1,4.584000111E0,8.830050468E0,9.950943869E0
2.959790606E0,1.960500032E-1,4.621950150E0,8.791950226E0,9.934749497E0
2.961753962E0,1.570500135E-1,4.621950150E0,8.791950226E0,9.934056405E0
2.963717351E0,1.960500032E-1,4.584000111E0,8.754000664E0,9.883522663E0
2.965680731E0,1.570500135E-1,4.621950150E0,8.791950226E0,9.934056405E0
2.967644361E0,1.570500135E-1,4.584000111E0,8.715000153E0,9.848296776E0
2.969607904E0,1.960500032E-1,4.584000111E0,8.754000664E0,9.883522663E0
2.971571398E0,1.960500032E-1,4.621950150E0,8.830050468E0,9.968482837E0
2.973534906E0,1.960500032E-1,4.584000111E0,8.791950226E0,9.917150871E0
2.975498314E0,2.340000123E-1,4.621950150E0,8.754000664E0,9.902005191E0
2.977461752E0,2.340000123E-1,4.584000111E0,8.869050026E0,9.986383799E0
2.979425447E0,2.340000123E-1,4.584000111E0,8.830050468E0,9.951763879E0
2.981389063E0,1.960500032E-1,4.584000111E0,8.791950226E0,9.917150871E0
2.983352634E0,1.570500135E-1,4.584000111E0,8.869050026E0,9.984877069E0
2.985316219E0,1.570500135E-1,4.584000111E0,8.791950226E0,9.916456549E0
2.987279749E0,2.340000123E-1,4.545000076E0,8.830050468E0,9.933859923E0
2.989243296E0,1.960500032E-1,4.584000111E0,8.830050468E0,9.950943869E0
2.991207168E0,2.340000123E-1,4.621950150E0,8.830050468E0,9.969301403E0
2.993170962E0,1.960500032E-1,4.584000111E0,8.830050468E0,9.950943869E0
2.995134593E0,1.960500032E-1,4.545000076E0,8.869050026E0,9.967723394E0
2.997098272E0,1.960500032E-1,4.545000076E0,8.830050468E0,9.933038436E0
2.999061651E0,1.570500135E-1,4.584000111E0,8.869050026E0,9.984877069E0
3.001025118E0,1.960500032E-1,4.584000111E0,8.869050026E0,9.985566633E0
3.002988803E0,1.960500032E-1,4.584000111E0,8.830050468E0,9.950943869E0
3.004952424E0,1.960500032E-1,4.545000076E0,8.869050026E0,9.967723394E0
3.006915814E0,1.570500135E-1,4.545000076E0,8.830050468E0,9.932345225E0
3.008879272E0,1.570500135E-1,4.545000076E0,8.830050468E0,9.932345225E0
3.010842599E0,1.570500135E-1,4.584000111E0,8.830050468E0,9.950251906E0
3.012805964E0,1.570500135E-1,4.545000076E0,8.754000664E0,9.864796907E0
3.014769217E0,1.570500135E-1,4.584000111E0,8.830050468E0,9.950251906E0
3.016732503E0,1.570500135E-1,4.621950150E0,8.907000542E0,1.003602245E1
3.018695858E0,1.570500135E-1,4.584000111E0,8.830050468E0,9.950251906E0
3.020659193E0,1.570500135E-1,4.584000111E0,8.869050026E0,9.984877069E0
3.022622631E0,1.570500135E-1,4.621950150E0,8.869050026E0,1.000235654E1
3.024586039E0,1.570500135E-1,4.621950150E0,8.830050468E0,9.967792091E0
3.026549360E0,1.960500032E-1,4.584000111E0,8.869050026E0,9.985566633E0
3.028512718E0,1.570500135E-1,4.621950150E0,8.830050468E0,9.967792091E0
3.030476107E0,1.189500093E-1,4.584000111E0,8.869050026E0,9.984350479E0
3.032439486E0,1.570500135E-1,4.584000111E0,8.830050468E0,9.950251906E0
3.034402872E0,1.570500135E-1,4.584000111E0,8.830050468E0,9.950251906E0
3.036366255E0,1.570500135E-1,4.584000111E0,8.869050026E0,9.984877069E0
3.038329455E0,1.960500032E-1,4.621950150E0,8.754000664E0,9.901181061E0
3.040292713E0,1.570500135E-1,4.621950150E0,8.791950226E0,9.934056405E0
3.042256299E0,1.570500135E-1,4.621950150E0,8.830050468E0,9.967792091E0
3.044219788E0,1.570500135E-1,4.621950150E0,8.830050468E0,9.967792091E0
3.046183156E0,1.189500093E-1,4.621950150E0,8.869050026E0,1.000183087E1
3.048146560E0,1.189500093E-1,4.621950150E0,8.869050026E0,1.000183087E1
3.050110360E0,1.570500135E-1,4.621950150E0,8.869050026E0,1.000235654E1
3.052074034E0,1.960500032E-1,4.621950150E0,8.791950226E0,9.934749497E0
3.054037686E0,1.570500135E-1,4.584000111E0,8.869050026E0,9.984877069E0
3.056001344E0,1.189500093E-1,4.621950150E0,8.907000542E0,1.003549854E1
3.057965221E0,1.570500135E-1,4.584000111E0,8.869050026E0,9.984877069E0
3.059929034E0,1.189500093E-1,4.621950150E0,8.907000542E0,1.003549854E1
3.061892752E0,1.570500135E-1,4.584000111E0,8.907000542E0,1.001860172E1
3.063856498E0,1.570500135E-1,4.660050392E0,8.869050026E0,1.002001910E1
3.065819775E0,1.189500093E-1,4.660050392E0,8.830050468E0,9.984989236E0
3.067783190E0,1.570500135E-1,4.584000111E0,8.791950226E0,9.916456549E0
3.069746929E0,1.570500135E-1,4.621950150E0,8.830050468E0,9.967792091E0
3.071710573E0,1.189500093E-1,4.621950150E0,8.830050468E0,9.967264598E0
3.073673939E0,1.570500135E-1,4.621950150E0,8.869050026E0,1.000235654E1
3.075637401E0,1.570500135E-1,4.621950150E0,8.791950226E0,9.934056405E0
3.077601628E0,1.570500135E-1,4.584000111E0,8.830050468E0,9.950251906E0
3.079565630E0,1.960500032E-1,4.621950150E0,8.830050468E0,9.968482837E0
3.081529315E0,1.570500135E-1,4.584000111E0,8.830050468E0,9.950251906E0
3.083493093E0,1.570500135E-1,4.584000111E0,8.791950226E0,9.916456549E0
3.085456576E0,1.570500135E-1,4.584000111E0,8.791950226E0,9.916456549E0
3.087420156E0,1.570500135E-1,4.584000111E0,8.830050468E0,9.950251906E0
3.089383462E0,1.189500093E-1,4.545000076E0,8.869050026E0,9.966505063E0
3.091346848E0,1.960500032E-1,4.584000111E0,8.791950226E0,9.917150871E0
3.093310457E0,1.189500093E-1,4.584000111E0,8.830050468E0,9.949723483E0
3.095274000E0,1.189500093E-1,4.621950150E0,8.830050468E0,9.967264598E0
3.097237480E0,1.960500032E-1,4.584000111E0,8.830050468E0,9.950943869E0
3.099200988E0,1.570500135E-1,4.621950150E0,8.791950226E0,9.934056405E0
3.101164216E0,1.960500032E-1,4.584000111E0,8.791950226E0,9.917150871E0
3.103127527E0,1.960500032E-1,4.545000076E0,8.830050468E0,9.933038436E0
3.105091103E0,1.570500135E-1,4.584000111E0,8.830050468E0,9.950251906E0
3.107054602E0,1.570500135E-1,4.584000111E0,8.830050468E0,9.950251906E0
3.109017918E0,1.570500135E-1,4.621950150E0,8.830050468E0,9.967792091E0
3.110981291E0,1.960500032E-1,4.545000076E0,8.869050026E0,9.967723394E0
3.112944498E0,1.570500135E-1,4.621950150E0,8.830050468E0,9.967792091E0
3.114907753E0,1.960500032E-1,4.621950150E0,8.830050468E0,9.968482837E0
3.116870979E0,1.960500032E-1,4.584000111E0,8.830050468E0,9.950943869E0
3.118834214E0,1.960500032E-1,4.584000111E0,8.791950226E0,9.917150871E0
3.120797463E0,1.960500032E-1,4.621950150E0,8.754000664E0,9.901181061E0
3.122760695E0,1.570500135E-1,4.584000111E0,8.791950226E0,9.916456549E0
3.124723790E0,1.570500135E-1,4.584000111E0,8.791950226E0,9.916456549E0
3.126686925E0,1.570500135E-1,4.584000111E0,8.754000664E0,9.882825980E0
3.128650171E0,1.960500032E-1,4.584000111E0,8.830050468E0,9.950943869E0
3.130613385E0,1.570500135E-1,4.584000111E0,8.830050468E0,9.950251906E0
3.132576589E0,1.570500135E-1,4.545000076E0,8.830050468E0,9.932345225E0
3.134539786E0,1.570500135E-1,4.545000076E0,8.830050468E0,9.932345225E0
3.136503021E0,1.960500032E-1,4.584000111E0,8.830050468E0,9.950943869E0
3.138466245E0,1.960500032E-1,4.621950150E0,8.830050468E0,9.968482837E0
3.140429522E0,1.570500135E-1,4.584000111E0,8.791950226E0,9.916456549E0
3.142392784E0,1.960500032E-1,4.584000111E0,8.791950226E0,9.917150871E0
3.144356175E0,1.960500032E-1,4.545000076E0,8.791950226E0,9.899184313E0
3.146319538E0,2.340000123E-1,4.545000076E0,8.791950226E0,9.900008610E0
3.148282747E0,2.719500065E-1,4.584000111E0,8.791950226E0,9.918941607E0
3.150246001E0,2.340000123E-1,4.584000111E0,8.830050468E0,9.951763879E0
3.152209183E0,2.340000123E-1,4.545000076E0,8.791950226E0,9.900008610E0
3.154172386E0,2.340000123E-1,4.545000076E0,8.830050468E0,9.933859923E0
3.156135287E0,2.340000123E-1,4.545000076E0,8.791950226E0,9.900008610E0
3.158098290E0,2.340000123E-1,4.545000076E0,8.791950226E0,9.900008610E0
3.160061514E0,2.340000123E-1,4.545000076E0,8.830050468E0,9.933859923E0
3.162024673E0,2.340000123E-1,4.584000111E0,8.830050468E0,9.951763879E0
3.163987602E0,1.960500032E-1,4.584000111E0,8.791950226E0,9.917150871E0
3.165950598E0,1.570500135E-1,4.621950150E0,8.791950226E0,9.934056405E0
3.167913837E0,1.570500135E-1,4.584000111E0,8.754000664E0,9.882825980E0
3.169876994E0,1.570500135E-1,4.584000111E0,8.791950226E0,9.916456549E0
3.171840238E0,1.570500135E-1,4.584000111E0,8.791950226E0,9.916456549E0
3.173803456E0,1.570500135E-1,4.584000111E0,8.869050026E0,9.984877069E0
3.175766329E0,1.570500135E-1,4.621950150E0,8.830050468E0,9.967792091E0
3.177729304E0,1.570500135E-1,4.621950150E0,8.830050468E0,9.967792091E0
3.179692223E0,1.960500032E-1,4.621950150E0,8.869050026E0,1.000304489E1
3.181655155E0,1.570500135E-1,4.584000111E0,8.830050468E0,9.950251906E0
3.183618120E0,1.570500135E-1,4.621950150E0,8.791950226E0,9.934056405E0
3.185581076E0,1.570500135E-1,4.660050392E0,8.754000664E0,9.918329597E0
3.187544174E0,1.570500135E-1,4.621950150E0,8.830050468E0,9.967792091E0
3.189507230E0,1.960500032E-1,4.584000111E0,8.830050468E0,9.950943869E0
3.191470116E0,1.570500135E-1,4.621950150E0,8.791950226E0,9.934056405E0
3.193433063E0,1.570500135E-1,4.621950150E0,8.830050468E0,9.967792091E0
3.195396477E0,1.570500135E-1,4.584000111E0,8.791950226E0,9.916456549E0
3.197359754E0,1.570500135E-1,4.584000111E0,8.830050468E0,9.950251906E0
3.199322798E0,1.570500135E-1,4.584000111E0,8.754000664E0,9.882825980E0
3.201285910E0,1.960500032E-1,4.621950150E0,8.869050026E0,1.000304489E1
3.203249189E0,1.960500032E-1,4.584000111E0,8.791950226E0,9.917150871E0
3.205212398E0,2.340000123E-1,4.545000076E0,8.791950226E0,9.900008610E0
3.207175453E0,1.960500032E-1,4.545000076E0,8.830050468E0,9.933038436E0
3.209138554E0,2.340000123E-1,4.584000111E0,8.791950226E0,9.917973674E0
3.211101627E0,2.340000123E-1,4.545000076E0,8.830050468E0,9.933859923E0
3.213064708E0,2.719500065E-1,4.545000076E0,8.791950226E0,9.900978299E0
3.215027828E0,2.340000123E-1,4.584000111E0,8.830050468E0,9.951763879E0
3.216990937E0,2.340000123E-1,4.545000076E0,8.830050468E0,9.933859923E0
3.218954188E0,1.960500032E-1,4.507050037E0,8.830050468E0,9.915731285E0
3.220917398E0,2.340000123E-1,4.545000076E0,8.791950226E0,9.900008610E0
3.222880589E0,2.340000123E-1,4.545000076E0,8.754000664E0,9.866321975E0
3.224843785E0,2.340000123E-1,4.584000111E0,8.791950226E0,9.917973674E0
3.226807051E0,2.340000123E-1,4.545000076E0,8.830050468E0,9.933859923E0
3.228770307E0,1.960500032E-1,4.545000076E0,8.791950226E0,9.899184313E0
3.230733490E0,2.340000123E-1,4.507050037E0,8.791950226E0,9.882643615E0
3.232696694E0,1.570500135E-1,4.584000111E0,8.791950226E0,9.916456549E0
3.234659749E0,1.960500032E-1,4.545000076E0,8.791950226E0,9.899184313E0
3.236622848E0,1.570500135E-1,4.621950150E0,8.830050468E0,9.967792091E0
3.238585955E0,1.570500135E-1,4.584000111E0,8.715000153E0,9.848296776E0
3.240549067E0,1.960500032E-1,4.584000111E0,8.754000664E0,9.883522663E0
3.242512318E0,1.570500135E-1,4.584000111E0,8.754000664E0,9.882825980E0
3.244475528E0,1.570500135E-1,4.584000111E0,8.754000664E0,9.882825980E0
3.246438358E0,2.340000123E-1,4.621950150E0,8.754000664E0,9.902005191E0
3.248401299E0,1.570500135E-1,4.621950150E0,8.791950226E0,9.934056405E0
3.250364254E0,1.960500032E-1,4.584000111E0,8.754000664E0,9.883522663E0
3.252327211E0,1.960500032E-1,4.621950150E0,8.754000664E0,9.901181061E0
3.254290444E0,1.960500032E-1,4.621950150E0,8.791950226E0,9.934749497E0
3.256253596E0,1.960500032E-1,4.621950150E0,8.754000664E0,9.901181061E0
3.258216886E0,1.960500032E-1,4.621950150E0,8.791950226E0,9.934749497E0
3.260180135E0,1.960500032E-1,4.584000111E0,8.754000664E0,9.883522663E0
3.262143303E0,1.960500032E-1,4.621950150E0,8.715000153E0,9.866716092E0
3.264106506E0,1.960500032E-1,4.621950150E0,8.754000664E0,9.901181061E0
3.266069786E0,1.570500135E-1,4.621950150E0,8.830050468E0,9.967792091E0
3.268033043E0,1.960500032E-1,4.660050392E0,8.791950226E0,9.952532041E0
3.269996090E0,1.570500135E-1,4.621950150E0,8.830050468E0,9.967792091E0
3.271959198E0,1.960500032E-1,4.584000111E0,8.791950226E0,9.917150871E0
3.273922275E0,1.570500135E-1,4.584000111E0,8.830050468E0,9.950251906E0
3.275885357E0,1.960500032E-1,4.584000111E0,8.791950226E0,9.917150871E0
3.277848433E0,1.960500032E-1,4.621950150E0,8.791950226E0,9.934749497E0
3.279811511E0,1.570500135E-1,4.621950150E0,8.869050026E0,1.000235654E1
3.281774722E0,1.960500032E-1,4.584000111E0,8.830050468E0,9.950943869E0
3.283737894E0,1.960500032E-1,4.621950150E0,8.791950226E0,9.934749497E0
3.285700804E0,1.570500135E-1,4.584000111E0,8.830050468E0,9.950251906E0
3.287663771E0,1.960500032E-1,4.584000111E0,8.869050026E0,9.985566633E0
3.289626911E0,2.340000123E-1,4.545000076E0,8.830050468E0,9.933859923E0
3.291590000E0,1.960500032E-1,4.545000076E0,8.830050468E0,9.933038436E0
3.293553031E0,2.340000123E-1,4.584000111E0,8.869050026E0,9.986383799E0
3.295516079E0,2.340000123E-1,4.545000076E0,8.907000542E0,1.000232175E1
3.297479359E0,1.960500032E-1,4.507050037E0,8.869050026E0,9.950476572E0
3.299442557E0,2.340000123E-1,4.545000076E0,8.869050026E0,9.968542023E0
3.301405659E0,1.960500032E-1,4.545000076E0,8.869050026E0,9.967723394E0
3.303368790E0,2.340000123E-1,4.545000076E0,8.830050468E0,9.933859923E0
3.305332037E0,2.340000123E-1,4.545000076E0,8.830050468E0,9.933859923E0
3.307295250E0,1.960500032E-1,4.545000076E0,8.907000542E0,1.000150588E1
3.309258410E0,1.960500032E-1,4.545000076E0,8.907000542E0,1.000150588E1
3.311221607E0,2.340000123E-1,4.545000076E0,8.869050026E0,9.968542023E0
3.313184708E0,2.340000123E-1,4.507050037E0,8.830050468E0,9.916554206E0
3.315147838E0,1.960500032E-1,4.507050037E0,8.830050468E0,9.915731285E0
3.317110861E0,2.340000123E-1,4.545000076E0,8.907000542E0,1.000232175E1
3.319073915E0,1.960500032E-1,4.545000076E0,8.791950226E0,9.899184313E0
3.321036981E0,1.960500032E-1,4.545000076E0,8.869050026E0,9.967723394E0
3.323000053E0,2.340000123E-1,4.545000076E0,8.869050026E0,9.968542023E0
3.324963176E0,1.960500032E-1,4.545000076E0,8.830050468E0,9.933038436E0
3.326926284E0,2.340000123E-1,4.507050037E0,8.869050026E0,9.951296619E0
3.328889356E0,1.960500032E-1,4.507050037E0,8.830050468E0,9.915731285E0
3.330852439E0,1.960500032E-1,4.545000076E0,8.791950226E0,9.899184313E0
3.332815673E0,1.960500032E-1,4.545000076E0,8.830050468E0,9.933038436E0
3.334778846E0,1.570500135E-1,4.545000076E0,8.830050468E0,9.932345225E0
