"Time (s)","Acceleration x (m/s^2)","Acceleration y (m/s^2)","Acceleration z (m/s^2)","Absolute acceleration (m/s^2)"
3.053656600E-2,3.870000243E-1,4.468950272E0,8.907000542E0,9.972760109E0
3.249873200E-2,3.870000243E-1,4.468950272E0,8.907000542E0,9.972760109E0
3.446341200E-2,3.870000243E-1,4.468950272E0,8.869050026E0,9.938879912E0
3.642616900E-2,3.870000243E-1,4.431000233E0,8.869050026E0,9.921873837E0
3.838948900E-2,3.870000243E-1,4.468950272E0,8.869050026E0,9.938879912E0
4.035289000E-2,3.870000243E-1,4.431000233E0,8.869050026E0,9.921873837E0
4.231629400E-2,3.870000243E-1,4.431000233E0,8.830050468E0,9.887028035E0
4.427963200E-2,3.490500152E-1,4.468950272E0,8.830050468E0,9.902683662E0
4.624298900E-2,3.870000243E-1,4.431000233E0,8.791950226E0,9.853015825E0
4.820678200E-2,3.870000243E-1,4.431000233E0,8.830050468E0,9.887028035E0
5.017044800E-2,4.260000288E-1,4.431000233E0,8.791950226E0,9.854624694E0
5.213378100E-2,3.870000243E-1,4.392000198E0,8.830050468E0,9.869611240E0
5.409721500E-2,4.639500082E-1,4.392000198E0,8.830050468E0,9.872927966E0
5.606090500E-2,4.639500082E-1,4.354050159E0,8.791950226E0,9.821985093E0
5.802452000E-2,4.260000288E-1,4.468950272E0,8.869050026E0,9.940474884E0
5.998786600E-2,4.260000288E-1,4.431000233E0,8.830050468E0,9.888631370E0
6.195129100E-2,4.639500082E-1,4.431000233E0,8.791950226E0,9.856338136E0
6.391431500E-2,4.260000288E-1,4.392000198E0,8.830050468E0,9.871217404E0
6.587748400E-2,4.639500082E-1,4.392000198E0,8.830050468E0,9.872927966E0
6.784090500E-2,5.020500422E-1,4.392000198E0,8.830050468E0,9.874791707E0
6.980425200E-2,4.639500082E-1,4.392000198E0,8.869050026E0,9.907823359E0
7.176759900E-2,4.639500082E-1,4.354050159E0,8.830050468E0,9.856104386E0
7.373094600E-2,4.639500082E-1,4.392000198E0,8.869050026E0,9.907823359E0
7.569430700E-2,4.260000288E-1,4.354050159E0,8.869050026E0,9.889351707E0
7.765768400E-2,5.020500422E-1,4.392000198E0,8.791950226E0,9.840737206E0
7.962089100E-2,4.639500082E-1,4.315950394E0,8.869050026E0,9.874346853E0
8.158414800E-2,4.639500082E-1,4.354050159E0,8.907000542E0,9.925102571E0
8.354741800E-2,4.639500082E-1,4.354050159E0,8.869050026E0,9.891059133E0
8.551068400E-2,4.260000288E-1,4.392000198E0,8.869050026E0,9.906118823E0
8.747388500E-2,5.020500422E-1,4.392000198E0,8.907000542E0,9.943660223E0
8.943712300E-2,4.639500082E-1,4.392000198E0,8.830050468E0,9.872927966E0
9.140048600E-2,4.639500082E-1,4.354050159E0,8.944950104E0,9.959173397E0
9.336381300E-2,4.639500082E-1,4.354050159E0,8.907000542E0,9.925102571E0
9.532707300E-2,5.020500422E-1,4.392000198E0,8.907000542E0,9.943660223E0
9.729035300E-2,4.639500082E-1,4.392000198E0,8.907000542E0,9.941809393E0
9.925372200E-2,4.639500082E-1,4.354050159E0,8.907000542E0,9.925102571E0
1.012170880E-1,5.020500422E-1,4.392000198E0,8.944950104E0,9.977667681E0
1.031804320E-1,4.260000288E-1,4.354050159E0,8.907000542E0,9.923401003E0
1.051437820E-1,4.260000288E-1,4.354050159E0,8.907000542E0,9.923401003E0
1.071068570E-1,5.020500422E-1,4.392000198E0,8.907000542E0,9.943660223E0
1.090700130E-1,4.260000288E-1,4.392000198E0,8.907000542E0,9.940110684E0
1.110333710E-1,4.260000288E-1,4.354050159E0,8.944950104E0,9.957477651E0
1.129966830E-1,4.260000288E-1,4.354050159E0,8.907000542E0,9.923401003E0
1.149599010E-1,4.639500082E-1,4.431000233E0,8.907000542E0,9.959099925E0
1.169231470E-1,4.260000288E-1,4.354050159E0,8.944950104E0,9.957477651E0
1.188867350E-1,4.639500082E-1,4.431000233E0,8.944950104E0,9.993054840E0
1.208502220E-1,3.490500152E-1,4.431000233E0,8.944950104E0,9.988379815E0
1.228135760E-1,4.260000288E-1,4.392000198E0,8.944950104E0,9.974130244E0
1.247769790E-1,4.260000288E-1,4.392000198E0,8.944950104E0,9.974130244E0
1.267401800E-1,4.260000288E-1,4.392000198E0,8.944950104E0,9.974130244E0
1.287034400E-1,4.639500082E-1,4.354050159E0,8.983950615E0,9.994216880E0
1.306672510E-1,3.870000243E-1,4.392000198E0,8.983950615E0,1.000753733E1
1.326309000E-1,3.870000243E-1,4.392000198E0,8.944950104E0,9.972540655E0
1.345942190E-1,4.260000288E-1,4.392000198E0,9.022050858E0,1.004333328E1
1.365576500E-1,3.870000243E-1,4.431000233E0,8.944950104E0,9.989777998E0
1.385213410E-1,4.639500082E-1,4.431000233E0,9.022050858E0,1.006212772E1
1.404849560E-1,4.260000288E-1,4.431000233E0,8.944950104E0,9.991364844E0
1.424479870E-1,3.870000243E-1,4.392000198E0,8.907000542E0,9.938515654E0
1.444111890E-1,3.870000243E-1,4.392000198E0,8.907000542E0,9.938515654E0
1.463744140E-1,3.870000243E-1,4.392000198E0,8.944950104E0,9.972540655E0
1.483376390E-1,4.260000288E-1,4.431000233E0,8.907000542E0,9.957404167E0
1.503008270E-1,3.490500152E-1,4.392000198E0,8.907000542E0,9.937110259E0
1.522640260E-1,3.870000243E-1,4.431000233E0,8.944950104E0,9.989777998E0
1.542272610E-1,3.490500152E-1,4.392000198E0,8.907000542E0,9.937110259E0
1.561904850E-1,3.490500152E-1,4.431000233E0,8.907000542E0,9.954408954E0
1.581535500E-1,3.490500152E-1,4.431000233E0,8.944950104E0,9.988379815E0
1.601166850E-1,3.490500152E-1,4.431000233E0,8.944950104E0,9.988379815E0
1.620797520E-1,3.490500152E-1,4.431000233E0,8.944950104E0,9.988379815E0
1.640428390E-1,3.109500110E-1,4.392000198E0,8.944950104E0,9.969879037E0
1.660060940E-1,3.109500110E-1,4.431000233E0,8.944950104E0,9.987120973E0
1.679692990E-1,3.490500152E-1,4.431000233E0,8.983950615E0,1.002332119E1
1.699325150E-1,3.490500152E-1,4.431000233E0,8.983950615E0,1.002332119E1
1.718957410E-1,3.490500152E-1,4.468950272E0,8.944950104E0,1.000527285E1
1.738589730E-1,3.490500152E-1,4.431000233E0,9.022050858E0,1.005748481E1
1.758222030E-1,3.109500110E-1,4.468950272E0,8.944950104E0,1.000401613E1
1.777857950E-1,3.109500110E-1,4.431000233E0,9.060000420E0,1.009029537E1
1.797492800E-1,3.490500152E-1,4.431000233E0,8.983950615E0,1.002332119E1
1.817125790E-1,3.870000243E-1,4.431000233E0,8.983950615E0,1.002471450E1
1.836759500E-1,3.490500152E-1,4.431000233E0,8.983950615E0,1.002332119E1
1.856393360E-1,3.490500152E-1,4.431000233E0,8.983950615E0,1.002332119E1
1.876027170E-1,3.490500152E-1,4.431000233E0,8.983950615E0,1.002332119E1
1.895657880E-1,3.490500152E-1,4.431000233E0,8.907000542E0,9.954408954E0
1.915289500E-1,3.490500152E-1,4.431000233E0,8.983950615E0,1.002332119E1
1.934923110E-1,3.490500152E-1,4.392000198E0,8.869050026E0,9.903108099E0
1.954556250E-1,3.109500110E-1,4.431000233E0,8.944950104E0,9.987120973E0
1.974185270E-1,3.490500152E-1,4.431000233E0,8.944950104E0,9.988379815E0
1.993815500E-1,3.109500110E-1,4.468950272E0,8.944950104E0,1.000401613E1
2.013446350E-1,3.109500110E-1,4.468950272E0,8.907000542E0,9.970098550E0
2.033077020E-1,3.109500110E-1,4.468950272E0,8.907000542E0,9.970098550E0
2.052707520E-1,3.109500110E-1,4.468950272E0,8.907000542E0,9.970098550E0
2.072338270E-1,3.490500152E-1,4.431000233E0,8.869050026E0,9.920466085E0
2.091970400E-1,2.719500065E-1,4.468950272E0,8.869050026E0,9.935065259E0
2.111602120E-1,3.109500110E-1,4.468950272E0,8.907000542E0,9.970098550E0
2.131232730E-1,2.719500065E-1,4.468950272E0,8.869050026E0,9.935065259E0
2.150863670E-1,3.109500110E-1,4.468950272E0,8.907000542E0,9.970098550E0
2.170494360E-1,3.490500152E-1,4.468950272E0,8.869050026E0,9.937474569E0
2.190125160E-1,2.719500065E-1,4.507050037E0,8.869050026E0,9.952261311E0
2.209757720E-1,3.109500110E-1,4.468950272E0,8.907000542E0,9.970098550E0
2.229389760E-1,3.109500110E-1,4.431000233E0,8.869050026E0,9.919198624E0
2.249022110E-1,2.719500065E-1,4.507050037E0,8.907000542E0,9.986096109E0
2.268654370E-1,3.109500110E-1,4.468950272E0,8.907000542E0,9.970098550E0
2.288288540E-1,3.490500152E-1,4.431000233E0,8.907000542E0,9.954408954E0
2.307922120E-1,3.490500152E-1,4.392000198E0,8.907000542E0,9.937110259E0
2.327558270E-1,3.109500110E-1,4.431000233E0,8.907000542E0,9.953145815E0
2.347193660E-1,3.490500152E-1,4.431000233E0,8.907000542E0,9.954408954E0
2.366825450E-1,3.490500152E-1,4.431000233E0,8.907000542E0,9.954408954E0
2.386458290E-1,3.870000243E-1,4.431000233E0,8.869050026E0,9.921873837E0
2.406092300E-1,3.109500110E-1,4.392000198E0,8.869050026E0,9.901838416E0
2.425725960E-1,3.870000243E-1,4.392000198E0,8.869050026E0,9.904518319E0
2.445359400E-1,3.490500152E-1,4.431000233E0,8.907000542E0,9.954408954E0
2.464992910E-1,3.870000243E-1,4.392000198E0,8.869050026E0,9.904518319E0
2.484623650E-1,4.260000288E-1,4.392000198E0,8.907000542E0,9.940110684E0
2.504255210E-1,3.870000243E-1,4.354050159E0,8.907000542E0,9.921803287E0
2.523889040E-1,3.870000243E-1,4.392000198E0,8.907000542E0,9.938515654E0
2.543522170E-1,3.490500152E-1,4.354050159E0,8.869050026E0,9.886335877E0
2.563153000E-1,3.870000243E-1,4.354050159E0,8.869050026E0,9.887748489E0
2.582784500E-1,3.870000243E-1,4.315950394E0,8.869050026E0,9.871030604E0
2.602416930E-1,3.870000243E-1,4.392000198E0,8.907000542E0,9.938515654E0
2.622049090E-1,3.870000243E-1,4.354050159E0,8.907000542E0,9.921803287E0
2.641680990E-1,3.490500152E-1,4.315950394E0,8.907000542E0,9.903732749E0
2.661312960E-1,3.870000243E-1,4.354050159E0,8.830050468E0,9.852781997E0
2.680945760E-1,3.870000243E-1,4.354050159E0,8.869050026E0,9.887748489E0
2.700578320E-1,4.260000288E-1,4.392000198E0,8.830050468E0,9.871217404E0
2.720212390E-1,3.870000243E-1,4.392000198E0,8.869050026E0,9.904518319E0
2.739846010E-1,4.260000288E-1,4.354050159E0,8.869050026E0,9.889351707E0
2.759479500E-1,4.260000288E-1,4.354050159E0,8.830050468E0,9.854390904E0
2.779113000E-1,3.870000243E-1,4.392000198E0,8.869050026E0,9.904518319E0
2.798750500E-1,3.870000243E-1,4.354050159E0,8.907000542E0,9.921803287E0
2.818386820E-1,3.870000243E-1,4.354050159E0,8.907000542E0,9.921803287E0
2.838022510E-1,4.639500082E-1,4.354050159E0,8.830050468E0,9.856104386E0
2.857658380E-1,4.260000288E-1,4.354050159E0,8.869050026E0,9.889351707E0
2.877293280E-1,4.260000288E-1,4.354050159E0,8.830050468E0,9.854390904E0
2.896928430E-1,4.260000288E-1,4.392000198E0,8.869050026E0,9.906118823E0
2.916562500E-1,4.260000288E-1,4.354050159E0,8.869050026E0,9.889351707E0
2.936196890E-1,4.260000288E-1,4.392000198E0,8.907000542E0,9.940110684E0
2.955830650E-1,4.260000288E-1,4.354050159E0,8.830050468E0,9.854390904E0
2.975464590E-1,4.260000288E-1,4.354050159E0,8.830050468E0,9.854390904E0
2.995101660E-1,4.260000288E-1,4.354050159E0,8.907000542E0,9.923401003E0
3.014737740E-1,4.260000288E-1,4.431000233E0,8.907000542E0,9.957404167E0
3.034368060E-1,4.260000288E-1,4.354050159E0,8.907000542E0,9.923401003E0
3.054000070E-1,4.260000288E-1,4.392000198E0,8.907000542E0,9.940110684E0
3.073634220E-1,4.639500082E-1,4.392000198E0,8.944950104E0,9.975823160E0
3.093267740E-1,3.870000243E-1,4.315950394E0,8.907000542E0,9.905142880E0
3.112901460E-1,4.260000288E-1,4.354050159E0,8.869050026E0,9.889351707E0
3.132535250E-1,3.870000243E-1,4.354050159E0,8.907000542E0,9.921803287E0
3.152169110E-1,4.639500082E-1,4.315950394E0,8.830050468E0,9.839332736E0
3.171802940E-1,3.870000243E-1,4.392000198E0,8.907000542E0,9.938515654E0
3.191434540E-1,3.870000243E-1,4.354050159E0,8.907000542E0,9.921803287E0
3.211066800E-1,4.639500082E-1,4.354050159E0,8.907000542E0,9.925102571E0
3.230699700E-1,3.870000243E-1,4.354050159E0,8.944950104E0,9.955885404E0
3.250332310E-1,4.260000288E-1,4.354050159E0,8.869050026E0,9.889351707E0
3.269962320E-1,3.870000243E-1,4.354050159E0,8.907000542E0,9.921803287E0
3.289593100E-1,3.870000243E-1,4.354050159E0,8.944950104E0,9.955885404E0
3.309226110E-1,4.260000288E-1,4.392000198E0,8.907000542E0,9.940110684E0
3.328858460E-1,3.870000243E-1,4.354050159E0,8.944950104E0,9.955885404E0
3.348493970E-1,3.870000243E-1,4.392000198E0,8.944950104E0,9.972540655E0
3.368128510E-1,4.260000288E-1,4.354050159E0,8.983950615E0,9.992527081E0
3.387760900E-1,3.870000243E-1,4.392000198E0,8.907000542E0,9.938515654E0
3.407393920E-1,3.490500152E-1,4.431000233E0,8.907000542E0,9.954408954E0
3.427026100E-1,4.260000288E-1,4.354050159E0,8.907000542E0,9.923401003E0
3.446658530E-1,3.870000243E-1,4.392000198E0,8.944950104E0,9.972540655E0
3.466286900E-1,4.260000288E-1,4.392000198E0,8.944950104E0,9.974130244E0
3.485916370E-1,3.490500152E-1,4.431000233E0,8.907000542E0,9.954408954E0
3.505549150E-1,3.870000243E-1,4.431000233E0,8.944950104E0,9.989777998E0
3.525180960E-1,3.490500152E-1,4.392000198E0,8.944950104E0,9.971140056E0
3.544813360E-1,3.490500152E-1,4.431000233E0,8.944950104E0,9.988379815E0
3.564445580E-1,3.870000243E-1,4.431000233E0,8.907000542E0,9.955811907E0
3.584076560E-1,3.490500152E-1,4.354050159E0,8.944950104E0,9.954482461E0
3.603707900E-1,3.109500110E-1,4.431000233E0,8.983950615E0,1.002206673E1
3.623336770E-1,3.490500152E-1,4.431000233E0,8.907000542E0,9.954408954E0
3.642966370E-1,3.490500152E-1,4.468950272E0,8.944950104E0,1.000527285E1
3.662597320E-1,3.870000243E-1,4.431000233E0,8.944950104E0,9.989777998E0
3.682227880E-1,3.490500152E-1,4.431000233E0,8.907000542E0,9.954408954E0
3.701862080E-1,3.490500152E-1,4.431000233E0,8.944950104E0,9.988379815E0
3.721495050E-1,3.109500110E-1,4.431000233E0,8.907000542E0,9.953145815E0
3.741127250E-1,3.109500110E-1,4.468950272E0,8.944950104E0,1.000401613E1
3.760759680E-1,3.109500110E-1,4.468950272E0,8.907000542E0,9.970098550E0
3.780388810E-1,3.490500152E-1,4.431000233E0,8.983950615E0,1.002332119E1
3.800018910E-1,3.109500110E-1,4.431000233E0,8.944950104E0,9.987120973E0
3.819649880E-1,3.109500110E-1,4.468950272E0,8.907000542E0,9.970098550E0
3.839280530E-1,2.719500065E-1,4.431000233E0,8.944950104E0,9.985982787E0
3.858912670E-1,3.109500110E-1,4.431000233E0,8.944950104E0,9.987120973E0
3.878544380E-1,3.490500152E-1,4.431000233E0,8.944950104E0,9.988379815E0
3.898175000E-1,2.719500065E-1,4.468950272E0,8.944950104E0,1.000287987E1
3.917805940E-1,3.109500110E-1,4.545000076E0,8.944950104E0,1.003821936E1
3.937436630E-1,3.109500110E-1,4.507050037E0,8.907000542E0,9.987234282E0
3.957067430E-1,3.109500110E-1,4.468950272E0,8.944950104E0,1.000401613E1
3.976698190E-1,3.109500110E-1,4.468950272E0,8.944950104E0,1.000401613E1
3.996328960E-1,2.719500065E-1,4.507050037E0,8.944950104E0,1.001995954E1
4.015961970E-1,2.719500065E-1,4.468950272E0,8.983950615E0,1.003777077E1
4.035594330E-1,3.109500110E-1,4.468950272E0,8.944950104E0,1.000401613E1
4.055226640E-1,3.109500110E-1,4.507050037E0,8.944950104E0,1.002109387E1
4.074858960E-1,3.109500110E-1,4.468950272E0,9.022050858E0,1.007301385E1
4.094487660E-1,2.719500065E-1,4.507050037E0,8.983950615E0,1.005479117E1
4.114117430E-1,3.490500152E-1,4.468950272E0,8.944950104E0,1.000527285E1
4.133751960E-1,3.109500110E-1,4.507050037E0,8.944950104E0,1.002109387E1
4.153385100E-1,3.490500152E-1,4.507050037E0,8.944950104E0,1.002234844E1
4.173017270E-1,3.109500110E-1,4.507050037E0,8.944950104E0,1.002109387E1
4.192649730E-1,3.490500152E-1,4.468950272E0,8.983950615E0,1.004015543E1
4.212283810E-1,3.109500110E-1,4.507050037E0,8.944950104E0,1.002109387E1
4.231917410E-1,3.490500152E-1,4.507050037E0,8.907000542E0,9.988493110E0
4.251549500E-1,3.109500110E-1,4.507050037E0,8.907000542E0,9.987234282E0
4.271182040E-1,3.490500152E-1,4.507050037E0,8.944950104E0,1.002234844E1
4.290808750E-1,3.490500152E-1,4.468950272E0,8.944950104E0,1.000527285E1
4.310437280E-1,3.109500110E-1,4.507050037E0,8.907000542E0,9.987234282E0
4.330068420E-1,3.109500110E-1,4.468950272E0,8.907000542E0,9.970098550E0
4.349698800E-1,3.109500110E-1,4.468950272E0,8.907000542E0,9.970098550E0
4.369329180E-1,2.719500065E-1,4.468950272E0,8.907000542E0,9.968958420E0
4.388959560E-1,3.109500110E-1,4.431000233E0,8.907000542E0,9.953145815E0
4.408592200E-1,3.490500152E-1,4.468950272E0,8.907000542E0,9.971359541E0
4.428224180E-1,3.109500110E-1,4.468950272E0,8.869050026E0,9.936209277E0
4.447855200E-1,2.719500065E-1,4.468950272E0,8.869050026E0,9.935065259E0
4.467486510E-1,3.490500152E-1,4.468950272E0,8.869050026E0,9.937474569E0
4.487116740E-1,3.490500152E-1,4.468950272E0,8.869050026E0,9.937474569E0
4.506747280E-1,3.490500152E-1,4.468950272E0,8.944950104E0,1.000527285E1
4.526379830E-1,3.490500152E-1,4.431000233E0,8.907000542E0,9.954408954E0
4.546011820E-1,3.490500152E-1,4.392000198E0,8.944950104E0,9.971140056E0
4.565640590E-1,3.870000243E-1,4.468950272E0,8.944950104E0,1.000666867E1
4.585270300E-1,3.870000243E-1,4.431000233E0,8.907000542E0,9.955811907E0
4.604903050E-1,3.490500152E-1,4.392000198E0,8.944950104E0,9.971140056E0
4.624534900E-1,3.490500152E-1,4.431000233E0,8.907000542E0,9.954408954E0
4.644165810E-1,4.260000288E-1,4.392000198E0,8.907000542E0,9.940110684E0
4.663797090E-1,3.870000243E-1,4.431000233E0,8.983950615E0,1.002471450E1
4.683432720E-1,4.260000288E-1,4.392000198E0,8.983950615E0,1.000912136E1
4.703067070E-1,3.870000243E-1,4.392000198E0,8.944950104E0,9.972540655E0
4.722699490E-1,4.260000288E-1,4.392000198E0,8.907000542E0,9.940110684E0
4.742332470E-1,4.639500082E-1,4.392000198E0,8.944950104E0,9.975823160E0
4.761969510E-1,4.260000288E-1,4.431000233E0,8.983950615E0,1.002629581E1
4.781605430E-1,4.260000288E-1,4.392000198E0,8.983950615E0,1.000912136E1
4.801237130E-1,4.260000288E-1,4.392000198E0,8.944950104E0,9.974130244E0
4.820870070E-1,4.260000288E-1,4.392000198E0,8.944950104E0,9.974130244E0
4.840502720E-1,4.639500082E-1,4.354050159E0,8.944950104E0,9.959173397E0
4.860135450E-1,3.870000243E-1,4.392000198E0,8.907000542E0,9.938515654E0
4.879767740E-1,3.870000243E-1,4.392000198E0,8.907000542E0,9.938515654E0
4.899400120E-1,3.870000243E-1,4.392000198E0,8.907000542E0,9.938515654E0
4.919032410E-1,3.870000243E-1,4.354050159E0,8.869050026E0,9.887748489E0
4.938664730E-1,4.639500082E-1,4.431000233E0,8.869050026E0,9.925173098E0
4.958296590E-1,4.260000288E-1,4.354050159E0,8.869050026E0,9.889351707E0
4.977928580E-1,3.870000243E-1,4.354050159E0,8.907000542E0,9.921803287E0
4.997563370E-1,4.260000288E-1,4.392000198E0,8.907000542E0,9.940110684E0
5.017197210E-1,4.639500082E-1,4.392000198E0,8.907000542E0,9.941809393E0
5.036832410E-1,4.639500082E-1,4.354050159E0,8.869050026E0,9.891059133E0
5.056467210E-1,4.260000288E-1,4.392000198E0,8.907000542E0,9.940110684E0
5.076101350E-1,4.639500082E-1,4.354050159E0,8.907000542E0,9.925102571E0
5.095735690E-1,5.410500169E-1,4.392000198E0,8.907000542E0,9.945705581E0
5.115368710E-1,5.020500422E-1,4.392000198E0,8.907000542E0,9.943660223E0
5.135002320E-1,5.020500422E-1,4.354050159E0,8.907000542E0,9.926956517E0
5.154636650E-1,5.410500169E-1,4.354050159E0,8.907000542E0,9.929005316E0
5.174270770E-1,5.020500422E-1,4.354050159E0,8.869050026E0,9.892919458E0
5.193904130E-1,5.410500169E-1,4.392000198E0,8.869050026E0,9.911732907E0
5.213537710E-1,5.410500169E-1,4.354050159E0,8.869050026E0,9.894975304E0
5.233166640E-1,5.410500169E-1,4.354050159E0,8.907000542E0,9.929005316E0
5.252796940E-1,5.020500422E-1,4.354050159E0,8.869050026E0,9.892919458E0
5.272432740E-1,5.020500422E-1,4.354050159E0,8.869050026E0,9.892919458E0
5.292066920E-1,4.639500082E-1,4.354050159E0,8.907000542E0,9.925102571E0
5.311698910E-1,4.260000288E-1,4.354050159E0,8.907000542E0,9.923401003E0
5.331331550E-1,4.639500082E-1,4.354050159E0,8.944950104E0,9.959173397E0
5.350963790E-1,3.870000243E-1,4.392000198E0,8.869050026E0,9.904518319E0
5.370596160E-1,4.260000288E-1,4.354050159E0,8.869050026E0,9.889351707E0
5.390230250E-1,3.870000243E-1,4.431000233E0,8.907000542E0,9.955811907E0
5.409863830E-1,4.260000288E-1,4.431000233E0,8.869050026E0,9.923471542E0
5.429494130E-1,4.260000288E-1,4.431000233E0,8.869050026E0,9.923471542E0
5.449125390E-1,3.870000243E-1,4.431000233E0,8.907000542E0,9.955811907E0
5.468756250E-1,3.870000243E-1,4.468950272E0,8.907000542E0,9.972760109E0
5.488387420E-1,3.109500110E-1,4.431000233E0,8.907000542E0,9.953145815E0
5.508019910E-1,3.490500152E-1,4.468950272E0,8.869050026E0,9.937474569E0
5.527652010E-1,3.870000243E-1,4.507050037E0,8.830050468E0,9.921343676E0
5.547283920E-1,3.490500152E-1,4.507050037E0,8.869050026E0,9.954666459E0
5.566915880E-1,3.490500152E-1,4.468950272E0,8.907000542E0,9.971359541E0
5.586546100E-1,3.490500152E-1,4.468950272E0,8.791950226E0,9.868725410E0
5.606177080E-1,2.719500065E-1,4.468950272E0,8.830050468E0,9.900265886E0
5.625806460E-1,3.490500152E-1,4.431000233E0,8.754000664E0,9.817745495E0
5.645436310E-1,3.109500110E-1,4.468950272E0,8.791950226E0,9.867451303E0
5.665067230E-1,3.109500110E-1,4.507050037E0,8.830050468E0,9.918668319E0
5.684697830E-1,3.109500110E-1,4.468950272E0,8.830050468E0,9.901413925E0
5.704328580E-1,3.490500152E-1,4.468950272E0,8.791950226E0,9.868725410E0
5.723959320E-1,3.490500152E-1,4.507050037E0,8.791950226E0,9.886036856E0
5.743589650E-1,3.490500152E-1,4.468950272E0,8.791950226E0,9.868725410E0
5.763220110E-1,3.870000243E-1,4.431000233E0,8.830050468E0,9.887028035E0
5.782849580E-1,3.490500152E-1,4.431000233E0,8.791950226E0,9.851598233E0
5.802479340E-1,3.870000243E-1,4.468950272E0,8.830050468E0,9.904093943E0
5.822109980E-1,3.490500152E-1,4.431000233E0,8.791950226E0,9.851598233E0
5.841740570E-1,3.870000243E-1,4.431000233E0,8.869050026E0,9.921873837E0
5.861374520E-1,3.490500152E-1,4.468950272E0,8.791950226E0,9.868725410E0
5.881007490E-1,4.260000288E-1,4.431000233E0,8.830050468E0,9.888631370E0
5.900640140E-1,4.260000288E-1,4.392000198E0,8.791950226E0,9.837150530E0
5.920272890E-1,4.260000288E-1,4.431000233E0,8.869050026E0,9.923471542E0
5.939908770E-1,4.260000288E-1,4.431000233E0,8.869050026E0,9.923471542E0
5.959543690E-1,3.870000243E-1,4.392000198E0,8.907000542E0,9.938515654E0
5.979177370E-1,4.639500082E-1,4.431000233E0,8.869050026E0,9.925173098E0
5.998811410E-1,4.260000288E-1,4.392000198E0,8.830050468E0,9.871217404E0
6.018443420E-1,3.870000243E-1,4.392000198E0,8.869050026E0,9.904518319E0
6.038076020E-1,3.490500152E-1,4.392000198E0,8.907000542E0,9.937110259E0
6.057706530E-1,3.490500152E-1,4.431000233E0,8.869050026E0,9.920466085E0
6.077337610E-1,3.490500152E-1,4.392000198E0,8.907000542E0,9.937110259E0
6.096968330E-1,3.109500110E-1,4.392000198E0,8.907000542E0,9.935844921E0
6.116599150E-1,3.870000243E-1,4.392000198E0,8.869050026E0,9.904518319E0
6.136231700E-1,3.870000243E-1,4.431000233E0,8.907000542E0,9.955811907E0
6.155863740E-1,3.870000243E-1,4.392000198E0,8.944950104E0,9.972540655E0
6.175497640E-1,3.490500152E-1,4.392000198E0,8.944950104E0,9.971140056E0
6.195130860E-1,3.490500152E-1,4.431000233E0,8.869050026E0,9.920466085E0
6.214761670E-1,3.109500110E-1,4.468950272E0,8.907000542E0,9.970098550E0
6.234393180E-1,3.109500110E-1,4.392000198E0,8.907000542E0,9.935844921E0
6.254023820E-1,3.109500110E-1,4.431000233E0,8.983950615E0,1.002206673E1
6.273654720E-1,3.109500110E-1,4.431000233E0,8.907000542E0,9.953145815E0
6.293290410E-1,3.109500110E-1,4.431000233E0,8.944950104E0,9.987120973E0
6.312924700E-1,3.109500110E-1,4.431000233E0,8.944950104E0,9.987120973E0
6.332554880E-1,3.109500110E-1,4.431000233E0,8.983950615E0,1.002206673E1
6.352186260E-1,3.490500152E-1,4.431000233E0,8.983950615E0,1.002332119E1
6.371816920E-1,2.719500065E-1,4.392000198E0,8.983950615E0,1.000374886E1
6.391447800E-1,3.109500110E-1,4.468950272E0,9.022050858E0,1.007301385E1
6.411077340E-1,3.109500110E-1,4.468950272E0,9.022050858E0,1.007301385E1
6.430707170E-1,2.719500065E-1,4.431000233E0,9.098999977E0,1.012420468E1
6.450338090E-1,3.109500110E-1,4.431000233E0,9.022050858E0,1.005623462E1
6.469968690E-1,3.490500152E-1,4.431000233E0,9.060000420E0,1.009154134E1
6.489600840E-1,3.109500110E-1,4.392000198E0,9.022050858E0,1.003911138E1
6.509232540E-1,3.490500152E-1,4.392000198E0,9.060000420E0,1.007447811E1
6.528864950E-1,3.109500110E-1,4.431000233E0,9.060000420E0,1.009029537E1
6.548497150E-1,3.870000243E-1,4.392000198E0,9.060000420E0,1.007586435E1
6.568126330E-1,3.490500152E-1,4.468950272E0,9.060000420E0,1.010826197E1
6.587756400E-1,3.490500152E-1,4.431000233E0,9.060000420E0,1.009154134E1
6.607389080E-1,3.490500152E-1,4.392000198E0,9.060000420E0,1.007447811E1
6.627021000E-1,3.490500152E-1,4.354050159E0,9.060000420E0,1.005799166E1
6.646653230E-1,3.870000243E-1,4.431000233E0,9.060000420E0,1.009292523E1
6.666285470E-1,3.490500152E-1,4.392000198E0,9.060000420E0,1.007447811E1
6.685919150E-1,3.870000243E-1,4.431000233E0,9.098999977E0,1.012794810E1
6.705552400E-1,3.870000243E-1,4.431000233E0,9.098999977E0,1.012794810E1
6.725182750E-1,3.490500152E-1,4.392000198E0,9.060000420E0,1.007447811E1
6.744813950E-1,3.870000243E-1,4.392000198E0,9.060000420E0,1.007586435E1
6.764443250E-1,4.260000288E-1,4.354050159E0,9.022050858E0,1.002679562E1
6.784073140E-1,3.870000243E-1,4.392000198E0,8.983950615E0,1.000753733E1
6.803703600E-1,3.109500110E-1,4.392000198E0,8.983950615E0,1.000488502E1
6.823333890E-1,3.490500152E-1,4.392000198E0,9.022050858E0,1.004036371E1
6.842964740E-1,3.870000243E-1,4.392000198E0,9.022050858E0,1.004175465E1
6.862595420E-1,3.490500152E-1,4.392000198E0,8.983950615E0,1.000614163E1
6.882226610E-1,3.490500152E-1,4.392000198E0,8.944950104E0,9.971140056E0
6.901857680E-1,3.490500152E-1,4.354050159E0,8.983950615E0,9.989542400E0
6.921486610E-1,4.260000288E-1,4.354050159E0,8.944950104E0,9.957477651E0
6.941116160E-1,4.260000288E-1,4.431000233E0,8.944950104E0,9.991364844E0
6.960747130E-1,3.870000243E-1,4.354050159E0,8.944950104E0,9.955885404E0
6.980377680E-1,4.260000288E-1,4.392000198E0,8.944950104E0,9.974130244E0
7.000008440E-1,3.870000243E-1,4.392000198E0,8.944950104E0,9.972540655E0
7.019639170E-1,3.870000243E-1,4.354050159E0,8.983950615E0,9.990940419E0
7.039271750E-1,3.870000243E-1,4.354050159E0,8.944950104E0,9.955885404E0
7.058903790E-1,3.490500152E-1,4.392000198E0,8.944950104E0,9.971140056E0
7.078537490E-1,3.870000243E-1,4.392000198E0,8.907000542E0,9.938515654E0
7.098170710E-1,3.490500152E-1,4.354050159E0,8.944950104E0,9.954482461E0
7.117799390E-1,3.870000243E-1,4.392000198E0,8.907000542E0,9.938515654E0
7.137429630E-1,4.260000288E-1,4.354050159E0,8.907000542E0,9.923401003E0
7.157062280E-1,4.639500082E-1,4.354050159E0,8.907000542E0,9.925102571E0
7.176694230E-1,4.639500082E-1,4.354050159E0,8.907000542E0,9.925102571E0
7.196328400E-1,4.639500082E-1,4.354050159E0,8.907000542E0,9.925102571E0
7.215961920E-1,4.260000288E-1,4.354050159E0,8.869050026E0,9.889351707E0
7.235593880E-1,4.639500082E-1,4.315950394E0,8.869050026E0,9.874346853E0
7.255226400E-1,4.260000288E-1,4.354050159E0,8.907000542E0,9.923401003E0
7.274858220E-1,4.639500082E-1,4.392000198E0,8.907000542E0,9.941809393E0
7.294490250E-1,4.639500082E-1,4.354050159E0,8.944950104E0,9.959173397E0
7.314120800E-1,4.260000288E-1,4.354050159E0,8.907000542E0,9.923401003E0
7.333751790E-1,4.639500082E-1,4.392000198E0,8.907000542E0,9.941809393E0
7.353384650E-1,4.639500082E-1,4.392000198E0,8.869050026E0,9.907823359E0
7.373016720E-1,4.260000288E-1,4.392000198E0,8.907000542E0,9.940110684E0
7.392645920E-1,3.870000243E-1,4.392000198E0,8.944950104E0,9.972540655E0
7.412275970E-1,4.639500082E-1,4.392000198E0,8.869050026E0,9.907823359E0
7.431905060E-1,4.260000288E-1,4.431000233E0,8.907000542E0,9.957404167E0
7.451534440E-1,4.639500082E-1,4.431000233E0,8.907000542E0,9.959099925E0
7.471163690E-1,3.870000243E-1,4.468950272E0,8.869050026E0,9.938879912E0
7.490792950E-1,4.260000288E-1,4.431000233E0,8.869050026E0,9.923471542E0
7.510425320E-1,4.260000288E-1,4.431000233E0,8.907000542E0,9.957404167E0
7.530056770E-1,3.870000243E-1,4.431000233E0,8.869050026E0,9.921873837E0
7.549689680E-1,4.260000288E-1,4.431000233E0,8.869050026E0,9.923471542E0
7.569322160E-1,3.870000243E-1,4.468950272E0,8.869050026E0,9.938879912E0
7.588952360E-1,3.870000243E-1,4.468950272E0,8.907000542E0,9.972760109E0
7.608583430E-1,4.260000288E-1,4.354050159E0,8.869050026E0,9.889351707E0
7.628213700E-1,4.260000288E-1,4.392000198E0,8.944950104E0,9.974130244E0
7.647844200E-1,4.639500082E-1,4.392000198E0,8.907000542E0,9.941809393E0
7.667475000E-1,4.260000288E-1,4.431000233E0,8.944950104E0,9.991364844E0
7.687105710E-1,4.260000288E-1,4.392000198E0,8.944950104E0,9.974130244E0
7.706736940E-1,4.260000288E-1,4.392000198E0,8.944950104E0,9.974130244E0
7.726368020E-1,4.260000288E-1,4.392000198E0,8.907000542E0,9.940110684E0
7.746001900E-1,4.260000288E-1,4.431000233E0,8.907000542E0,9.957404167E0
7.765634950E-1,3.870000243E-1,4.392000198E0,8.944950104E0,9.972540655E0
7.785267590E-1,4.260000288E-1,4.392000198E0,8.944950104E0,9.974130244E0
7.804900350E-1,3.870000243E-1,4.392000198E0,8.907000542E0,9.938515654E0
7.824532530E-1,3.490500152E-1,4.392000198E0,8.907000542E0,9.937110259E0
7.844164920E-1,4.260000288E-1,4.431000233E0,8.907000542E0,9.957404167E0
7.863794960E-1,4.260000288E-1,4.392000198E0,8.907000542E0,9.940110684E0
7.883425690E-1,3.870000243E-1,4.392000198E0,8.869050026E0,9.904518319E0
7.903060060E-1,3.109500110E-1,4.468950272E0,8.869050026E0,9.936209277E0
7.922693360E-1,3.490500152E-1,4.431000233E0,8.869050026E0,9.920466085E0
7.942322300E-1,3.490500152E-1,4.431000233E0,8.869050026E0,9.920466085E0
7.961952560E-1,3.870000243E-1,4.431000233E0,8.907000542E0,9.955811907E0
7.981587010E-1,3.490500152E-1,4.431000233E0,8.830050468E0,9.885615320E0
8.001220230E-1,3.490500152E-1,4.431000233E0,8.907000542E0,9.954408954E0
8.020853730E-1,3.490500152E-1,4.431000233E0,8.944950104E0,9.988379815E0
8.040487150E-1,3.490500152E-1,4.468950272E0,8.944950104E0,1.000527285E1
8.060119280E-1,3.109500110E-1,4.392000198E0,8.944950104E0,9.969879037E0
8.079751790E-1,3.109500110E-1,4.468950272E0,8.983950615E0,1.003890308E1
8.099385850E-1,3.490500152E-1,4.431000233E0,8.983950615E0,1.002332119E1
8.119019460E-1,3.870000243E-1,4.431000233E0,8.944950104E0,9.989777998E0
8.138651560E-1,3.490500152E-1,4.431000233E0,8.983950615E0,1.002332119E1
8.158284100E-1,3.109500110E-1,4.431000233E0,8.907000542E0,9.953145815E0
8.177915020E-1,3.870000243E-1,4.431000233E0,9.022050858E0,1.005887338E1
8.197546410E-1,3.109500110E-1,4.431000233E0,8.944950104E0,9.987120973E0
8.217176620E-1,3.109500110E-1,4.468950272E0,8.907000542E0,9.970098550E0
8.236807170E-1,3.870000243E-1,4.431000233E0,8.944950104E0,9.989777998E0
8.256438420E-1,3.870000243E-1,4.431000233E0,8.983950615E0,1.002471450E1
8.276069460E-1,3.490500152E-1,4.468950272E0,8.944950104E0,1.000527285E1
8.295702090E-1,3.490500152E-1,4.431000233E0,8.907000542E0,9.954408954E0
8.315334180E-1,3.109500110E-1,4.468950272E0,8.907000542E0,9.970098550E0
8.334964730E-1,3.490500152E-1,4.468950272E0,8.944950104E0,1.000527285E1
8.354595740E-1,3.490500152E-1,4.468950272E0,8.907000542E0,9.971359541E0
8.374228260E-1,3.490500152E-1,4.431000233E0,8.907000542E0,9.954408954E0
8.393860330E-1,3.490500152E-1,4.468950272E0,8.869050026E0,9.937474569E0
8.413490580E-1,3.490500152E-1,4.431000233E0,8.907000542E0,9.954408954E0
8.433121260E-1,2.719500065E-1,4.431000233E0,8.907000542E0,9.952003744E0
8.452748890E-1,3.490500152E-1,4.431000233E0,8.907000542E0,9.954408954E0
8.472377420E-1,3.109500110E-1,4.392000198E0,8.907000542E0,9.935844921E0
8.492006760E-1,3.109500110E-1,4.431000233E0,8.907000542E0,9.953145815E0
8.511635860E-1,3.490500152E-1,4.431000233E0,8.869050026E0,9.920466085E0
8.531266900E-1,3.490500152E-1,4.392000198E0,8.907000542E0,9.937110259E0
8.550897060E-1,3.490500152E-1,4.392000198E0,8.944950104E0,9.971140056E0
8.570527930E-1,3.109500110E-1,4.431000233E0,8.944950104E0,9.987120973E0
8.590158590E-1,3.109500110E-1,4.392000198E0,8.907000542E0,9.935844921E0
8.609791180E-1,3.490500152E-1,4.392000198E0,8.944950104E0,9.971140056E0
8.629423210E-1,3.870000243E-1,4.392000198E0,8.983950615E0,1.000753733E1
8.649052470E-1,3.490500152E-1,4.392000198E0,8.944950104E0,9.971140056E0
8.668682510E-1,3.490500152E-1,4.392000198E0,8.907000542E0,9.937110259E0
8.688315200E-1,4.260000288E-1,4.392000198E0,8.944950104E0,9.974130244E0
8.707947110E-1,3.870000243E-1,4.431000233E0,8.944950104E0,9.989777998E0
8.727575440E-1,3.870000243E-1,4.392000198E0,8.944950104E0,9.972540655E0
8.747204820E-1,3.870000243E-1,4.392000198E0,8.944950104E0,9.972540655E0
8.766835670E-1,4.260000288E-1,4.431000233E0,8.907000542E0,9.957404167E0
8.786466190E-1,3.870000243E-1,4.392000198E0,8.944950104E0,9.972540655E0
8.806095210E-1,3.490500152E-1,4.354050159E0,8.869050026E0,9.886335877E0
8.825724670E-1,4.260000288E-1,4.392000198E0,8.869050026E0,9.906118823E0
8.845359710E-1,3.870000243E-1,4.392000198E0,8.907000542E0,9.938515654E0
8.864993110E-1,4.260000288E-1,4.354050159E0,8.869050026E0,9.889351707E0
8.884626930E-1,3.870000243E-1,4.354050159E0,8.907000542E0,9.921803287E0
8.904260380E-1,4.639500082E-1,4.431000233E0,8.830050468E0,9.890338920E0
8.923892960E-1,4.260000288E-1,4.431000233E0,8.830050468E0,9.888631370E0
8.943525790E-1,3.870000243E-1,4.431000233E0,8.830050468E0,9.887028035E0
8.963159800E-1,3.870000243E-1,4.431000233E0,8.830050468E0,9.887028035E0
8.982793460E-1,4.260000288E-1,4.431000233E0,8.830050468E0,9.888631370E0
9.002427380E-1,3.870000243E-1,4.354050159E0,8.830050468E0,9.852781997E0
9.022060880E-1,3.870000243E-1,4.392000198E0,8.791950226E0,9.835538802E0
9.041691630E-1,4.260000288E-1,4.431000233E0,8.830050468E0,9.888631370E0
9.061323190E-1,3.490500152E-1,4.431000233E0,8.869050026E0,9.920466085E0
9.080959220E-1,3.870000243E-1,4.431000233E0,8.907000542E0,9.955811907E0
9.100593940E-1,3.870000243E-1,4.468950272E0,8.869050026E0,9.938879912E0
9.120228990E-1,4.260000288E-1,4.468950272E0,8.869050026E0,9.940474884E0
9.139863940E-1,3.870000243E-1,4.431000233E0,8.869050026E0,9.921873837E0
9.159496260E-1,3.870000243E-1,4.431000233E0,8.907000542E0,9.955811907E0
9.179129350E-1,4.260000288E-1,4.431000233E0,8.907000542E0,9.957404167E0
9.198759720E-1,3.870000243E-1,4.392000198E0,8.869050026E0,9.904518319E0
9.218390880E-1,4.260000288E-1,4.468950272E0,8.907000542E0,9.974349663E0
9.238024730E-1,4.260000288E-1,4.468950272E0,8.907000542E0,9.974349663E0
9.257657790E-1,3.870000243E-1,4.431000233E0,8.907000542E0,9.955811907E0
9.277289980E-1,3.870000243E-1,4.431000233E0,8.944950104E0,9.989777998E0
9.296922420E-1,4.260000288E-1,4.392000198E0,8.944950104E0,9.974130244E0
9.316556500E-1,4.260000288E-1,4.392000198E0,8.944950104E0,9.974130244E0
9.336190100E-1,3.870000243E-1,4.392000198E0,8.944950104E0,9.972540655E0
9.355824090E-1,3.870000243E-1,4.392000198E0,8.907000542E0,9.938515654E0
9.375457890E-1,4.260000288E-1,4.431000233E0,8.907000542E0,9.957404167E0
9.395088600E-1,4.260000288E-1,4.431000233E0,8.907000542E0,9.957404167E0
9.414720220E-1,3.870000243E-1,4.392000198E0,8.944950104E0,9.972540655E0
9.434353980E-1,3.870000243E-1,4.431000233E0,8.944950104E0,9.989777998E0
9.453987120E-1,4.639500082E-1,4.431000233E0,8.944950104E0,9.993054840E0
9.473621420E-1,4.639500082E-1,4.431000233E0,8.907000542E0,9.959099925E0
9.493255140E-1,3.870000243E-1,4.431000233E0,8.944950104E0,9.989777998E0
9.512887670E-1,3.870000243E-1,4.431000233E0,8.944950104E0,9.989777998E0
9.532520550E-1,3.870000243E-1,4.392000198E0,8.907000542E0,9.938515654E0
9.552154100E-1,3.490500152E-1,4.431000233E0,8.944950104E0,9.988379815E0
9.571787450E-1,3.870000243E-1,4.431000233E0,8.944950104E0,9.989777998E0
9.591423530E-1,3.490500152E-1,4.431000233E0,8.907000542E0,9.954408954E0
9.611058560E-1,3.870000243E-1,4.392000198E0,8.907000542E0,9.938515654E0
9.630690410E-1,3.870000243E-1,4.431000233E0,8.907000542E0,9.955811907E0
9.650323190E-1,3.490500152E-1,4.431000233E0,8.944950104E0,9.988379815E0
9.669957210E-1,3.870000243E-1,4.392000198E0,8.983950615E0,1.000753733E1
9.689590870E-1,3.870000243E-1,4.431000233E0,8.983950615E0,1.002471450E1
9.709224750E-1,3.870000243E-1,4.431000233E0,8.983950615E0,1.002471450E1
9.728858560E-1,3.870000243E-1,4.392000198E0,8.983950615E0,1.000753733E1
9.748492860E-1,3.490500152E-1,4.354050159E0,8.983950615E0,9.989542400E0
9.768127020E-1,4.260000288E-1,4.431000233E0,8.983950615E0,1.002629581E1
9.787760820E-1,3.870000243E-1,4.354050159E0,9.060000420E0,1.005938017E1
9.807394730E-1,4.260000288E-1,4.276950359E0,8.983950615E0,9.959174115E0
9.827028620E-1,3.870000243E-1,4.354050159E0,8.983950615E0,9.990940419E0
9.846662480E-1,4.639500082E-1,4.392000198E0,8.944950104E0,9.975823160E0
9.866296320E-1,4.260000288E-1,4.354050159E0,8.983950615E0,9.992527081E0
9.885930170E-1,4.639500082E-1,4.315950394E0,8.944950104E0,9.942575610E0
9.905567150E-1,4.639500082E-1,4.354050159E0,9.022050858E0,1.002847965E1
9.925203220E-1,3.490500152E-1,4.354050159E0,9.022050858E0,1.002382115E1
9.944834850E-1,3.870000243E-1,4.392000198E0,8.983950615E0,1.000753733E1
9.964467810E-1,4.260000288E-1,4.354050159E0,8.983950615E0,9.992527081E0
9.984100460E-1,3.870000243E-1,4.354050159E0,8.944950104E0,9.955885404E0
1.000373320E0,3.870000243E-1,4.354050159E0,8.944950104E0,9.955885404E0
1.002336902E0,4.260000288E-1,4.354050159E0,8.907000542E0,9.923401003E0
1.004300394E0,3.870000243E-1,4.392000198E0,8.944950104E0,9.972540655E0
1.006263890E0,3.490500152E-1,4.392000198E0,8.944950104E0,9.971140056E0
1.008227389E0,3.870000243E-1,4.392000198E0,8.983950615E0,1.000753733E1
1.010190801E0,3.870000243E-1,4.392000198E0,8.907000542E0,9.938515654E0
1.012154238E0,3.870000243E-1,4.431000233E0,8.907000542E0,9.955811907E0
1.014117433E0,3.490500152E-1,4.392000198E0,8.907000542E0,9.937110259E0
1.016080699E0,3.870000243E-1,4.392000198E0,8.907000542E0,9.938515654E0
1.018044039E0,3.490500152E-1,4.392000198E0,8.907000542E0,9.937110259E0
1.020007370E0,4.260000288E-1,4.431000233E0,8.869050026E0,9.923471542E0
1.021970585E0,3.490500152E-1,4.392000198E0,8.907000542E0,9.937110259E0
1.023933834E0,3.490500152E-1,4.431000233E0,8.907000542E0,9.954408954E0
1.025897466E0,3.870000243E-1,4.392000198E0,8.907000542E0,9.938515654E0
1.027860986E0,3.490500152E-1,4.392000198E0,8.907000542E0,9.937110259E0
1.029824298E0,3.490500152E-1,4.431000233E0,8.907000542E0,9.954408954E0
1.031787675E0,3.870000243E-1,4.431000233E0,8.944950104E0,9.989777998E0
1.033750700E0,3.870000243E-1,4.431000233E0,8.907000542E0,9.955811907E0
1.035713829E0,4.260000288E-1,4.431000233E0,8.944950104E0,9.991364844E0
1.037676897E0,4.260000288E-1,4.392000198E0,8.983950615E0,1.000912136E1
1.039639983E0,3.490500152E-1,4.392000198E0,8.944950104E0,9.971140056E0
1.041603048E0,3.870000243E-1,4.431000233E0,8.907000542E0,9.955811907E0
1.043566127E0,3.870000243E-1,4.392000198E0,8.907000542E0,9.938515654E0
1.045529204E0,3.490500152E-1,4.392000198E0,8.944950104E0,9.971140056E0
1.047492281E0,3.870000243E-1,4.431000233E0,8.944950104E0,9.989777998E0
1.049455537E0,4.260000288E-1,4.392000198E0,8.944950104E0,9.974130244E0
1.051418740E0,3.870000243E-1,4.392000198E0,8.907000542E0,9.938515654E0
1.053381828E0,4.260000288E-1,4.392000198E0,8.907000542E0,9.940110684E0
1.055344959E0,4.260000288E-1,4.431000233E0,8.907000542E0,9.957404167E0
1.057307801E0,3.870000243E-1,4.392000198E0,8.907000542E0,9.938515654E0
1.059270728E0,3.870000243E-1,4.392000198E0,8.944950104E0,9.972540655E0
1.061233650E0,4.260000288E-1,4.431000233E0,8.869050026E0,9.923471542E0
1.063196574E0,3.870000243E-1,4.392000198E0,8.907000542E0,9.938515654E0
1.065159681E0,3.490500152E-1,4.431000233E0,8.869050026E0,9.920466085E0
1.067122731E0,3.490500152E-1,4.431000233E0,8.907000542E0,9.954408954E0
1.069085993E0,3.490500152E-1,4.431000233E0,8.944950104E0,9.988379815E0
1.071049193E0,3.870000243E-1,4.431000233E0,8.869050026E0,9.921873837E0
1.073012250E0,3.490500152E-1,4.468950272E0,8.907000542E0,9.971359541E0
1.074975349E0,3.109500110E-1,4.468950272E0,8.907000542E0,9.970098550E0
1.076938402E0,3.109500110E-1,4.431000233E0,8.907000542E0,9.953145815E0
1.078901482E0,3.109500110E-1,4.392000198E0,8.907000542E0,9.935844921E0
1.080864558E0,3.109500110E-1,4.468950272E0,8.944950104E0,1.000401613E1
1.082827636E0,2.719500065E-1,4.468950272E0,8.907000542E0,9.968958420E0
1.084790713E0,3.109500110E-1,4.468950272E0,8.869050026E0,9.936209277E0
1.086753790E0,2.719500065E-1,4.468950272E0,8.907000542E0,9.968958420E0
1.088716686E0,3.109500110E-1,4.431000233E0,8.907000542E0,9.953145815E0
1.090679636E0,2.719500065E-1,4.468950272E0,8.907000542E0,9.968958420E0
1.092642734E0,3.490500152E-1,4.431000233E0,8.944950104E0,9.988379815E0
1.094605788E0,3.109500110E-1,4.392000198E0,8.944950104E0,9.969879037E0
1.096568690E0,3.490500152E-1,4.431000233E0,8.944950104E0,9.988379815E0
1.098531636E0,3.109500110E-1,4.392000198E0,8.944950104E0,9.969879037E0
1.100494403E0,3.109500110E-1,4.392000198E0,8.983950615E0,1.000488502E1
1.102457203E0,3.109500110E-1,4.431000233E0,8.944950104E0,9.987120973E0
1.104420011E0,3.109500110E-1,4.392000198E0,8.944950104E0,9.969879037E0
1.106382816E0,3.870000243E-1,4.354050159E0,8.944950104E0,9.955885404E0
1.108345759E0,3.109500110E-1,4.431000233E0,8.907000542E0,9.953145815E0
1.110308662E0,3.870000243E-1,4.431000233E0,8.944950104E0,9.989777998E0
1.112271589E0,3.490500152E-1,4.392000198E0,8.983950615E0,1.000614163E1
1.114234509E0,3.490500152E-1,4.392000198E0,9.022050858E0,1.004036371E1
1.116197612E0,2.719500065E-1,4.392000198E0,8.983950615E0,1.000374886E1
1.118160662E0,3.870000243E-1,4.392000198E0,8.983950615E0,1.000753733E1
1.120123384E0,3.870000243E-1,4.431000233E0,8.983950615E0,1.002471450E1
1.122086203E0,4.260000288E-1,4.392000198E0,8.944950104E0,9.974130244E0
1.124049103E0,3.870000243E-1,4.392000198E0,8.944950104E0,9.972540655E0
1.126011975E0,3.490500152E-1,4.431000233E0,8.983950615E0,1.002332119E1
1.127974952E0,3.490500152E-1,4.431000233E0,8.907000542E0,9.954408954E0
1.129937898E0,3.109500110E-1,4.507050037E0,8.944950104E0,1.002109387E1
1.131900638E0,4.260000288E-1,4.431000233E0,8.907000542E0,9.957404167E0
1.133863439E0,3.870000243E-1,4.431000233E0,8.944950104E0,9.989777998E0
1.135826342E0,3.490500152E-1,4.431000233E0,8.944950104E0,9.988379815E0
1.137789211E0,3.870000243E-1,4.431000233E0,8.907000542E0,9.955811907E0
1.139752009E0,3.870000243E-1,4.468950272E0,8.907000542E0,9.972760109E0
1.141714828E0,3.490500152E-1,4.392000198E0,8.944950104E0,9.971140056E0
1.143677768E0,3.490500152E-1,4.431000233E0,8.944950104E0,9.988379815E0
1.145640672E0,3.490500152E-1,4.431000233E0,8.830050468E0,9.885615320E0
1.147603239E0,3.490500152E-1,4.431000233E0,8.907000542E0,9.954408954E0
1.149565905E0,3.490500152E-1,4.392000198E0,8.869050026E0,9.903108099E0
1.151528871E0,3.490500152E-1,4.392000198E0,8.944950104E0,9.971140056E0
1.153491749E0,4.260000288E-1,4.431000233E0,8.907000542E0,9.957404167E0
1.155454680E0,3.870000243E-1,4.431000233E0,8.907000542E0,9.955811907E0
1.157417596E0,4.260000288E-1,4.392000198E0,8.907000542E0,9.940110684E0
1.159380525E0,4.639500082E-1,4.392000198E0,8.869050026E0,9.907823359E0
1.161343447E0,4.260000288E-1,4.431000233E0,8.907000542E0,9.957404167E0
1.163306370E0,3.870000243E-1,4.431000233E0,8.983950615E0,1.002471450E1
1.165269293E0,4.260000288E-1,4.431000233E0,8.944950104E0,9.991364844E0
1.167231992E0,4.639500082E-1,4.392000198E0,8.944950104E0,9.975823160E0
1.169194756E0,4.639500082E-1,4.392000198E0,8.907000542E0,9.941809393E0
1.171157746E0,3.870000243E-1,4.354050159E0,8.983950615E0,9.990940419E0
1.173120673E0,5.020500422E-1,4.354050159E0,8.944950104E0,9.961021002E0
1.175083551E0,4.639500082E-1,4.354050159E0,8.907000542E0,9.925102571E0
1.177046444E0,4.260000288E-1,4.354050159E0,8.944950104E0,9.957477651E0
1.179009551E0,5.020500422E-1,4.354050159E0,8.907000542E0,9.926956517E0
1.180972596E0,4.260000288E-1,4.315950394E0,8.944950104E0,9.940877033E0
1.182935009E0,4.639500082E-1,4.354050159E0,8.944950104E0,9.959173397E0
1.184897603E0,4.639500082E-1,4.354050159E0,8.907000542E0,9.925102571E0
1.186860401E0,4.260000288E-1,4.354050159E0,8.907000542E0,9.923401003E0
1.188823139E0,4.260000288E-1,4.354050159E0,8.907000542E0,9.923401003E0
1.190785870E0,4.639500082E-1,4.354050159E0,8.944950104E0,9.959173397E0
1.192748603E0,4.639500082E-1,4.392000198E0,8.907000542E0,9.941809393E0
1.194711396E0,4.639500082E-1,4.354050159E0,8.907000542E0,9.925102571E0
1.196674158E0,4.260000288E-1,4.392000198E0,8.869050026E0,9.906118823E0
1.198636795E0,4.260000288E-1,4.392000198E0,8.944950104E0,9.974130244E0
1.200599468E0,4.260000288E-1,4.392000198E0,8.830050468E0,9.871217404E0
1.202562388E0,5.020500422E-1,4.431000233E0,8.907000542E0,9.960947543E0
1.204525235E0,4.260000288E-1,4.392000198E0,8.907000542E0,9.940110684E0
1.206488171E0,4.260000288E-1,4.392000198E0,8.907000542E0,9.940110684E0
1.208451081E0,4.639500082E-1,4.392000198E0,8.907000542E0,9.941809393E0
1.210414187E0,4.260000288E-1,4.392000198E0,8.944950104E0,9.974130244E0
1.212377235E0,3.490500152E-1,4.431000233E0,8.907000542E0,9.954408954E0
1.214340183E0,3.870000243E-1,4.392000198E0,8.907000542E0,9.938515654E0
1.216303160E0,4.260000288E-1,4.392000198E0,8.869050026E0,9.906118823E0
1.218266062E0,4.639500082E-1,4.392000198E0,8.907000542E0,9.941809393E0
1.220228962E0,4.639500082E-1,4.354050159E0,8.907000542E0,9.925102571E0
1.222191709E0,4.639500082E-1,4.354050159E0,8.907000542E0,9.925102571E0
1.224154501E0,4.260000288E-1,4.392000198E0,8.944950104E0,9.974130244E0
1.226117131E0,4.639500082E-1,4.392000198E0,8.944950104E0,9.975823160E0
1.228079809E0,4.260000288E-1,4.392000198E0,8.907000542E0,9.940110684E0
1.230042913E0,4.639500082E-1,4.354050159E0,8.944950104E0,9.959173397E0
1.232005889E0,4.639500082E-1,4.431000233E0,8.907000542E0,9.959099925E0
1.233968983E0,4.639500082E-1,4.354050159E0,8.944950104E0,9.959173397E0
1.235932042E0,4.639500082E-1,4.392000198E0,8.907000542E0,9.941809393E0
1.237894943E0,4.639500082E-1,4.392000198E0,8.944950104E0,9.975823160E0
1.239857891E0,5.020500422E-1,4.354050159E0,8.907000542E0,9.926956517E0
1.241820983E0,4.260000288E-1,4.392000198E0,8.907000542E0,9.940110684E0
1.243784037E0,4.260000288E-1,4.354050159E0,8.907000542E0,9.923401003E0
1.245746804E0,4.639500082E-1,4.315950394E0,8.907000542E0,9.908447712E0
1.247709655E0,4.639500082E-1,4.354050159E0,8.869050026E0,9.891059133E0
1.249672589E0,4.639500082E-1,4.354050159E0,8.869050026E0,9.891059133E0
1.251635499E0,4.260000288E-1,4.354050159E0,8.907000542E0,9.923401003E0
1.253598438E0,4.639500082E-1,4.354050159E0,8.907000542E0,9.925102571E0
1.255561359E0,3.870000243E-1,4.354050159E0,8.869050026E0,9.887748489E0
1.257524282E0,3.870000243E-1,4.392000198E0,8.944950104E0,9.972540655E0
1.259487205E0,4.260000288E-1,4.354050159E0,8.944950104E0,9.957477651E0
1.261450309E0,4.260000288E-1,4.354050159E0,8.907000542E0,9.923401003E0
1.263413359E0,4.639500082E-1,4.354050159E0,8.944950104E0,9.959173397E0
1.265376446E0,4.260000288E-1,4.354050159E0,8.983950615E0,9.992527081E0
1.267339518E0,4.260000288E-1,4.392000198E0,8.983950615E0,1.000912136E1
1.269302552E0,3.870000243E-1,4.354050159E0,8.983950615E0,9.990940419E0
1.271265597E0,3.870000243E-1,4.431000233E0,8.907000542E0,9.955811907E0
1.273228544E0,3.870000243E-1,4.392000198E0,8.983950615E0,1.000753733E1
1.275191520E0,4.260000288E-1,4.392000198E0,8.983950615E0,1.000912136E1
1.277154608E0,4.260000288E-1,4.392000198E0,8.983950615E0,1.000912136E1
1.279117667E0,3.870000243E-1,4.392000198E0,8.944950104E0,9.972540655E0
1.281080703E0,3.870000243E-1,4.392000198E0,9.022050858E0,1.004175465E1
1.283043746E0,3.490500152E-1,4.392000198E0,9.060000420E0,1.007447811E1
1.285006648E0,3.490500152E-1,4.431000233E0,8.944950104E0,9.988379815E0
1.286969592E0,3.870000243E-1,4.431000233E0,9.022050858E0,1.005887338E1
1.288932541E0,3.490500152E-1,4.392000198E0,8.983950615E0,1.000614163E1
1.290895499E0,3.490500152E-1,4.392000198E0,8.983950615E0,1.000614163E1
1.292858551E0,3.490500152E-1,4.431000233E0,8.983950615E0,1.002332119E1
1.294821576E0,3.490500152E-1,4.392000198E0,8.983950615E0,1.000614163E1
1.296784483E0,3.490500152E-1,4.431000233E0,8.983950615E0,1.002332119E1
1.298747424E0,3.490500152E-1,4.431000233E0,8.983950615E0,1.002332119E1
1.300710523E0,3.109500110E-1,4.431000233E0,9.022050858E0,1.005623462E1
1.302673576E0,3.109500110E-1,4.507050037E0,9.060000420E0,1.012392204E1
1.304636478E0,3.490500152E-1,4.431000233E0,9.022050858E0,1.005748481E1
1.306599424E0,3.490500152E-1,4.468950272E0,8.983950615E0,1.004015543E1
1.308562522E0,3.109500110E-1,4.468950272E0,8.944950104E0,1.000401613E1
1.310525576E0,3.109500110E-1,4.468950272E0,8.944950104E0,1.000401613E1
1.312488532E0,3.109500110E-1,4.507050037E0,8.983950615E0,1.005592157E1
1.314451510E0,3.109500110E-1,4.468950272E0,8.944950104E0,1.000401613E1
1.316414244E0,3.109500110E-1,4.468950272E0,8.944950104E0,1.000401613E1
1.318377049E0,3.109500110E-1,4.468950272E0,8.907000542E0,9.970098550E0
1.320340171E0,3.109500110E-1,4.468950272E0,8.869050026E0,9.936209277E0
1.322303200E0,3.109500110E-1,4.468950272E0,8.869050026E0,9.936209277E0
1.324266309E0,3.109500110E-1,4.468950272E0,8.907000542E0,9.970098550E0
1.326229378E0,3.490500152E-1,4.468950272E0,8.869050026E0,9.937474569E0
1.328192412E0,3.109500110E-1,4.468950272E0,8.830050468E0,9.901413925E0
1.330155457E0,3.109500110E-1,4.468950272E0,8.830050468E0,9.901413925E0
1.332118359E0,3.109500110E-1,4.431000233E0,8.830050468E0,9.884343390E0
1.334081303E0,3.109500110E-1,4.431000233E0,8.830050468E0,9.884343390E0
1.336044452E0,3.109500110E-1,4.431000233E0,8.830050468E0,9.884343390E0
1.338007537E0,2.719500065E-1,4.392000198E0,8.869050026E0,9.900690426E0
1.339970928E0,3.490500152E-1,4.431000233E0,8.830050468E0,9.885615320E0
1.341934229E0,3.870000243E-1,4.431000233E0,8.830050468E0,9.887028035E0
1.343897449E0,3.490500152E-1,4.431000233E0,8.830050468E0,9.885615320E0
1.345860693E0,3.870000243E-1,4.431000233E0,8.830050468E0,9.887028035E0
1.347823908E0,3.490500152E-1,4.431000233E0,8.830050468E0,9.885615320E0
1.349787141E0,3.490500152E-1,4.431000233E0,8.869050026E0,9.920466085E0
1.351750550E0,3.870000243E-1,4.468950272E0,8.830050468E0,9.904093943E0
1.353713908E0,3.870000243E-1,4.431000233E0,8.830050468E0,9.887028035E0
1.355677118E0,3.490500152E-1,4.431000233E0,8.869050026E0,9.920466085E0
1.357640371E0,3.490500152E-1,4.392000198E0,8.869050026E0,9.903108099E0
1.359603588E0,3.490500152E-1,4.431000233E0,8.907000542E0,9.954408954E0
1.361566823E0,3.490500152E-1,4.431000233E0,8.869050026E0,9.920466085E0
1.363529737E0,3.490500152E-1,4.431000233E0,8.830050468E0,9.885615320E0
1.365492746E0,3.109500110E-1,4.392000198E0,8.869050026E0,9.901838416E0
1.367456014E0,3.870000243E-1,4.431000233E0,8.869050026E0,9.921873837E0
1.369419206E0,3.109500110E-1,4.431000233E0,8.830050468E0,9.884343390E0
1.371382044E0,3.870000243E-1,4.392000198E0,8.830050468E0,9.869611240E0
1.373344982E0,3.870000243E-1,4.431000233E0,8.830050468E0,9.887028035E0
1.375307722E0,3.870000243E-1,4.431000233E0,8.869050026E0,9.921873837E0
1.377270520E0,3.490500152E-1,4.431000233E0,8.830050468E0,9.885615320E0
1.379233508E0,3.490500152E-1,4.468950272E0,8.830050468E0,9.902683662E0
1.381196441E0,2.719500065E-1,4.431000233E0,8.791950226E0,9.849167916E0
1.383159529E0,3.490500152E-1,4.431000233E0,8.830050468E0,9.885615320E0
1.385122581E0,3.490500152E-1,4.431000233E0,8.830050468E0,9.885615320E0
1.387085662E0,3.490500152E-1,4.468950272E0,8.869050026E0,9.937474569E0
1.389048735E0,3.870000243E-1,4.431000233E0,8.830050468E0,9.887028035E0
1.391012173E0,3.870000243E-1,4.431000233E0,8.830050468E0,9.887028035E0
1.392975504E0,3.490500152E-1,4.468950272E0,8.830050468E0,9.902683662E0
1.394938912E0,3.109500110E-1,4.468950272E0,8.869050026E0,9.936209277E0
1.396902288E0,3.490500152E-1,4.431000233E0,8.907000542E0,9.954408954E0
1.398865314E0,3.490500152E-1,4.431000233E0,8.907000542E0,9.954408954E0
1.400828443E0,3.870000243E-1,4.392000198E0,8.869050026E0,9.904518319E0
1.402791645E0,3.490500152E-1,4.468950272E0,8.907000542E0,9.971359541E0
1.404754826E0,3.490500152E-1,4.431000233E0,8.869050026E0,9.920466085E0
1.406718203E0,3.490500152E-1,4.431000233E0,8.907000542E0,9.954408954E0
1.408681552E0,3.490500152E-1,4.431000233E0,8.983950615E0,1.002332119E1
1.410644448E0,3.490500152E-1,4.431000233E0,8.907000542E0,9.954408954E0
1.412607477E0,3.870000243E-1,4.468950272E0,8.907000542E0,9.972760109E0
1.414570877E0,3.490500152E-1,4.431000233E0,8.907000542E0,9.954408954E0
1.416534168E0,3.870000243E-1,4.431000233E0,8.944950104E0,9.989777998E0
1.418497024E0,3.870000243E-1,4.392000198E0,8.944950104E0,9.972540655E0
1.420460011E0,3.870000243E-1,4.392000198E0,8.983950615E0,1.000753733E1
1.422422788E0,4.260000288E-1,4.431000233E0,8.983950615E0,1.002629581E1
1.424385626E0,4.260000288E-1,4.431000233E0,8.907000542E0,9.957404167E0
1.426349059E0,4.260000288E-1,4.431000233E0,8.944950104E0,9.991364844E0
1.428312317E0,3.870000243E-1,4.392000198E0,8.944950104E0,9.972540655E0
1.430275544E0,3.870000243E-1,4.392000198E0,8.944950104E0,9.972540655E0
1.432238780E0,3.870000243E-1,4.354050159E0,8.983950615E0,9.990940419E0
1.434202234E0,3.870000243E-1,4.392000198E0,8.944950104E0,9.972540655E0
1.436165624E0,3.870000243E-1,4.392000198E0,8.983950615E0,1.000753733E1
1.438128603E0,3.870000243E-1,4.354050159E0,8.983950615E0,9.990940419E0
1.440091703E0,3.490500152E-1,4.354050159E0,8.983950615E0,9.989542400E0
1.442054587E0,4.260000288E-1,4.354050159E0,8.983950615E0,9.992527081E0
1.444017540E0,3.870000243E-1,4.354050159E0,8.983950615E0,9.990940419E0
1.445980682E0,4.260000288E-1,4.354050159E0,9.022050858E0,1.002679562E1
1.447943769E0,4.260000288E-1,4.315950394E0,9.022050858E0,1.001030996E1
1.449906665E0,3.490500152E-1,4.315950394E0,8.983950615E0,9.972995155E0
1.451869617E0,4.639500082E-1,4.392000198E0,9.022050858E0,1.004501454E1
1.453832729E0,4.639500082E-1,4.392000198E0,9.022050858E0,1.004501454E1
1.455795784E0,4.260000288E-1,4.315950394E0,8.983950615E0,9.975984787E0
1.457758865E0,4.260000288E-1,4.354050159E0,8.983950615E0,9.992527081E0
1.459721938E0,3.870000243E-1,4.354050159E0,8.983950615E0,9.990940419E0
1.461685376E0,3.870000243E-1,4.354050159E0,8.983950615E0,9.990940419E0
1.463648707E0,3.870000243E-1,4.354050159E0,8.944950104E0,9.955885404E0
1.465611917E0,4.260000288E-1,4.354050159E0,9.022050858E0,1.002679562E1
1.467575166E0,3.870000243E-1,4.354050159E0,8.907000542E0,9.921803287E0
1.469538573E0,4.260000288E-1,4.354050159E0,8.944950104E0,9.957477651E0
1.471501933E0,4.260000288E-1,4.354050159E0,8.983950615E0,9.992527081E0
1.473465098E0,4.260000288E-1,4.392000198E0,8.944950104E0,9.974130244E0
1.475428320E0,4.260000288E-1,4.354050159E0,8.944950104E0,9.957477651E0
1.477391615E0,4.260000288E-1,4.354050159E0,8.944950104E0,9.957477651E0
1.479354875E0,4.639500082E-1,4.354050159E0,8.944950104E0,9.959173397E0
1.481318102E0,4.260000288E-1,4.315950394E0,8.983950615E0,9.975984787E0
1.483281339E0,4.260000288E-1,4.392000198E0,8.983950615E0,1.000912136E1
1.485244523E0,4.260000288E-1,4.354050159E0,8.944950104E0,9.957477651E0
1.487207723E0,3.870000243E-1,4.392000198E0,8.983950615E0,1.000753733E1
1.489170784E0,4.639500082E-1,4.354050159E0,8.983950615E0,9.994216880E0
1.491133882E0,4.639500082E-1,4.354050159E0,8.907000542E0,9.925102571E0
1.493096640E0,4.260000288E-1,4.392000198E0,8.944950104E0,9.974130244E0
1.495059498E0,4.260000288E-1,4.392000198E0,8.944950104E0,9.974130244E0
1.497022791E0,4.639500082E-1,4.392000198E0,8.944950104E0,9.975823160E0
1.498985957E0,4.639500082E-1,4.392000198E0,8.983950615E0,1.001080836E1
1.500949189E0,4.260000288E-1,4.354050159E0,9.022050858E0,1.002679562E1
1.502912409E0,4.639500082E-1,4.392000198E0,8.944950104E0,9.975823160E0
1.504875777E0,3.870000243E-1,4.392000198E0,8.944950104E0,9.972540655E0
1.506839101E0,4.260000288E-1,4.392000198E0,9.022050858E0,1.004333328E1
1.508802317E0,4.260000288E-1,4.392000198E0,9.022050858E0,1.004333328E1
1.510765564E0,5.020500422E-1,4.392000198E0,8.983950615E0,1.001264644E1
1.512728812E0,4.260000288E-1,4.431000233E0,8.944950104E0,9.991364844E0
1.514692077E0,4.260000288E-1,4.392000198E0,8.983950615E0,1.000912136E1
1.516655437E0,4.260000288E-1,4.392000198E0,8.944950104E0,9.974130244E0
1.518618769E0,4.260000288E-1,4.392000198E0,8.983950615E0,1.000912136E1
1.520582029E0,3.870000243E-1,4.392000198E0,8.944950104E0,9.972540655E0
1.522545310E0,4.260000288E-1,4.392000198E0,8.907000542E0,9.940110684E0
1.524508661E0,4.639500082E-1,4.392000198E0,8.944950104E0,9.975823160E0
1.526471995E0,4.639500082E-1,4.392000198E0,8.944950104E0,9.975823160E0
1.528435209E0,3.870000243E-1,4.392000198E0,8.907000542E0,9.938515654E0
1.530398459E0,4.260000288E-1,4.431000233E0,8.869050026E0,9.923471542E0
1.532361326E0,4.260000288E-1,4.431000233E0,8.944950104E0,9.991364844E0
1.534324305E0,4.260000288E-1,4.431000233E0,8.907000542E0,9.957404167E0
1.536287617E0,4.260000288E-1,4.392000198E0,8.907000542E0,9.940110684E0
1.538250803E0,3.870000243E-1,4.431000233E0,8.983950615E0,1.002471450E1
1.540213862E0,3.870000243E-1,4.468950272E0,8.944950104E0,1.000666867E1
1.542176959E0,3.870000243E-1,4.392000198E0,8.944950104E0,9.972540655E0
1.544139897E0,3.870000243E-1,4.392000198E0,8.944950104E0,9.972540655E0
1.546102882E0,3.870000243E-1,4.431000233E0,8.944950104E0,9.989777998E0
1.548065979E0,3.870000243E-1,4.431000233E0,8.944950104E0,9.989777998E0
1.550029039E0,3.490500152E-1,4.431000233E0,8.869050026E0,9.920466085E0
1.551992299E0,4.260000288E-1,4.392000198E0,8.907000542E0,9.940110684E0
1.553955501E0,3.490500152E-1,4.392000198E0,8.907000542E0,9.937110259E0
1.555918736E0,3.490500152E-1,4.431000233E0,8.907000542E0,9.954408954E0
1.557881962E0,3.490500152E-1,4.392000198E0,8.907000542E0,9.937110259E0
1.559845125E0,3.490500152E-1,4.431000233E0,8.869050026E0,9.920466085E0
1.561808324E0,3.490500152E-1,4.431000233E0,8.869050026E0,9.920466085E0
1.563771245E0,3.490500152E-1,4.431000233E0,8.907000542E0,9.954408954E0
1.565734247E0,3.109500110E-1,4.431000233E0,8.869050026E0,9.919198624E0
1.567696976E0,3.490500152E-1,4.431000233E0,8.869050026E0,9.920466085E0
1.569659785E0,3.870000243E-1,4.431000233E0,8.869050026E0,9.921873837E0
1.571623087E0,3.870000243E-1,4.392000198E0,8.830050468E0,9.869611240E0
1.573586245E0,3.109500110E-1,4.468950272E0,8.907000542E0,9.970098550E0
1.575549488E0,3.490500152E-1,4.431000233E0,8.869050026E0,9.920466085E0
1.577512706E0,3.490500152E-1,4.431000233E0,8.944950104E0,9.988379815E0
1.579475939E0,3.490500152E-1,4.392000198E0,8.907000542E0,9.937110259E0
1.581439168E0,3.490500152E-1,4.431000233E0,8.907000542E0,9.954408954E0
1.583402551E0,3.490500152E-1,4.468950272E0,8.907000542E0,9.971359541E0
1.585365909E0,3.490500152E-1,4.468950272E0,8.907000542E0,9.971359541E0
1.587328894E0,3.870000243E-1,4.468950272E0,8.907000542E0,9.972760109E0
1.589291988E0,3.490500152E-1,4.431000233E0,8.907000542E0,9.954408954E0
1.591254521E0,3.490500152E-1,4.431000233E0,8.907000542E0,9.954408954E0
1.593217219E0,3.870000243E-1,4.468950272E0,8.944950104E0,1.000666867E1
1.595180225E0,3.490500152E-1,4.431000233E0,8.944950104E0,9.988379815E0
1.597143140E0,3.109500110E-1,4.431000233E0,8.907000542E0,9.953145815E0
1.599106245E0,3.109500110E-1,4.468950272E0,8.983950615E0,1.003890308E1
1.601069294E0,3.109500110E-1,4.431000233E0,8.907000542E0,9.953145815E0
1.603032376E0,3.490500152E-1,4.431000233E0,8.944950104E0,9.988379815E0
1.604995448E0,3.109500110E-1,4.431000233E0,8.907000542E0,9.953145815E0
1.606958696E0,3.490500152E-1,4.431000233E0,8.983950615E0,1.002332119E1
1.608921899E0,3.490500152E-1,4.431000233E0,8.944950104E0,9.988379815E0
1.610885270E0,3.490500152E-1,4.431000233E0,8.907000542E0,9.954408954E0
1.612848592E0,3.490500152E-1,4.431000233E0,8.983950615E0,1.002332119E1
1.614811673E0,3.870000243E-1,4.431000233E0,8.907000542E0,9.955811907E0
1.616774824E0,3.490500152E-1,4.392000198E0,8.907000542E0,9.937110259E0
1.618738042E0,3.870000243E-1,4.431000233E0,8.944950104E0,9.989777998E0
1.620701226E0,3.870000243E-1,4.392000198E0,8.983950615E0,1.000753733E1
1.622664331E0,3.870000243E-1,4.392000198E0,8.944950104E0,9.972540655E0
1.624627459E0,3.490500152E-1,4.354050159E0,8.944950104E0,9.954482461E0
1.626590886E0,3.490500152E-1,4.431000233E0,8.983950615E0,1.002332119E1
1.628554226E0,3.870000243E-1,4.392000198E0,8.944950104E0,9.972540655E0
1.630517549E0,3.870000243E-1,4.392000198E0,8.907000542E0,9.938515654E0
1.632480894E0,3.490500152E-1,4.392000198E0,8.983950615E0,1.000614163E1
1.634444331E0,3.870000243E-1,4.392000198E0,8.907000542E0,9.938515654E0
1.636407741E0,3.870000243E-1,4.392000198E0,8.944950104E0,9.972540655E0
1.638371077E0,3.490500152E-1,4.392000198E0,8.944950104E0,9.971140056E0
1.640334435E0,4.260000288E-1,4.392000198E0,8.907000542E0,9.940110684E0
1.642297460E0,4.260000288E-1,4.354050159E0,8.907000542E0,9.923401003E0
1.644260617E0,3.490500152E-1,4.354050159E0,8.907000542E0,9.920395524E0
1.646223635E0,3.490500152E-1,4.354050159E0,8.869050026E0,9.886335877E0
1.648186694E0,4.260000288E-1,4.392000198E0,8.907000542E0,9.940110684E0
1.650149639E0,3.870000243E-1,4.431000233E0,8.869050026E0,9.921873837E0
1.652112617E0,3.870000243E-1,4.392000198E0,8.907000542E0,9.938515654E0
1.654075696E0,3.870000243E-1,4.431000233E0,8.907000542E0,9.955811907E0
1.656038755E0,3.490500152E-1,4.392000198E0,8.869050026E0,9.903108099E0
1.658001790E0,4.260000288E-1,4.431000233E0,8.869050026E0,9.923471542E0
1.659964833E0,3.870000243E-1,4.431000233E0,8.830050468E0,9.887028035E0
1.661928276E0,4.260000288E-1,4.431000233E0,8.830050468E0,9.888631370E0
1.663891601E0,3.870000243E-1,4.431000233E0,8.907000542E0,9.955811907E0
1.665854791E0,3.870000243E-1,4.431000233E0,8.830050468E0,9.887028035E0
1.667818039E0,3.870000243E-1,4.392000198E0,8.907000542E0,9.938515654E0
1.669781132E0,4.260000288E-1,4.392000198E0,8.869050026E0,9.906118823E0
1.671744270E0,3.870000243E-1,4.431000233E0,8.830050468E0,9.887028035E0
1.673707651E0,3.870000243E-1,4.392000198E0,8.791950226E0,9.835538802E0
1.675670960E0,3.870000243E-1,4.392000198E0,8.869050026E0,9.904518319E0
1.677633854E0,3.870000243E-1,4.431000233E0,8.869050026E0,9.921873837E0
1.679596876E0,4.260000288E-1,4.431000233E0,8.869050026E0,9.923471542E0
1.681560142E0,4.260000288E-1,4.431000233E0,8.869050026E0,9.923471542E0
1.683523336E0,4.639500082E-1,4.431000233E0,8.907000542E0,9.959099925E0
1.685486394E0,4.639500082E-1,4.431000233E0,8.944950104E0,9.993054840E0
1.687449492E0,4.260000288E-1,4.431000233E0,8.907000542E0,9.957404167E0
1.689412934E0,4.260000288E-1,4.431000233E0,8.869050026E0,9.923471542E0
1.691376268E0,3.870000243E-1,4.392000198E0,8.907000542E0,9.938515654E0
1.693339616E0,4.639500082E-1,4.468950272E0,8.907000542E0,9.976042541E0
1.695302960E0,4.260000288E-1,4.392000198E0,8.907000542E0,9.940110684E0
1.697266037E0,3.870000243E-1,4.392000198E0,8.907000542E0,9.938515654E0
1.699229193E0,4.260000288E-1,4.392000198E0,8.944950104E0,9.974130244E0
1.701192031E0,4.260000288E-1,4.431000233E0,8.944950104E0,9.991364844E0
1.703154962E0,4.639500082E-1,4.392000198E0,8.983950615E0,1.001080836E1
1.705118243E0,4.260000288E-1,4.354050159E0,8.907000542E0,9.923401003E0
1.707081422E0,4.260000288E-1,4.392000198E0,8.944950104E0,9.974130244E0
1.709044483E0,3.870000243E-1,4.431000233E0,8.907000542E0,9.955811907E0
1.711007578E0,4.260000288E-1,4.392000198E0,8.944950104E0,9.974130244E0
1.712970696E0,3.870000243E-1,4.392000198E0,8.944950104E0,9.972540655E0
1.714933807E0,3.870000243E-1,4.392000198E0,8.907000542E0,9.938515654E0
1.716896879E0,3.870000243E-1,4.354050159E0,8.944950104E0,9.955885404E0
1.718859962E0,4.639500082E-1,4.392000198E0,8.907000542E0,9.941809393E0
1.720823172E0,3.870000243E-1,4.354050159E0,8.944950104E0,9.955885404E0
1.722786345E0,3.490500152E-1,4.392000198E0,8.944950104E0,9.971140056E0
1.724749733E0,3.870000243E-1,4.392000198E0,8.944950104E0,9.972540655E0
1.726713081E0,3.870000243E-1,4.392000198E0,8.944950104E0,9.972540655E0
1.728676158E0,4.639500082E-1,4.354050159E0,8.983950615E0,9.994216880E0
1.730639314E0,4.260000288E-1,4.392000198E0,9.022050858E0,1.004333328E1
1.732602332E0,3.870000243E-1,4.431000233E0,9.022050858E0,1.005887338E1
1.734565391E0,4.260000288E-1,4.392000198E0,8.983950615E0,1.000912136E1
1.736528345E0,3.870000243E-1,4.392000198E0,9.022050858E0,1.004175465E1
1.738491323E0,3.870000243E-1,4.392000198E0,9.022050858E0,1.004175465E1
1.740454596E0,3.870000243E-1,4.431000233E0,8.983950615E0,1.002471450E1
1.742417783E0,3.870000243E-1,4.354050159E0,8.983950615E0,9.990940419E0
1.744380797E0,3.870000243E-1,4.392000198E0,8.983950615E0,1.000753733E1
1.746343862E0,3.490500152E-1,4.392000198E0,8.983950615E0,1.000614163E1
1.748307184E0,3.870000243E-1,4.431000233E0,9.022050858E0,1.005887338E1
1.750270417E0,3.870000243E-1,4.354050159E0,9.022050858E0,1.002521439E1
1.752233423E0,4.260000288E-1,4.392000198E0,8.944950104E0,9.974130244E0
1.754196496E0,4.260000288E-1,4.392000198E0,8.983950615E0,1.000912136E1
1.756159798E0,3.870000243E-1,4.392000198E0,9.022050858E0,1.004175465E1
1.758123032E0,4.260000288E-1,4.392000198E0,8.983950615E0,1.000912136E1
1.760086079E0,3.870000243E-1,4.354050159E0,8.983950615E0,9.990940419E0
1.762049184E0,4.260000288E-1,4.431000233E0,8.944950104E0,9.991364844E0
1.764012436E0,3.870000243E-1,4.392000198E0,8.944950104E0,9.972540655E0
1.765975644E0,3.870000243E-1,4.392000198E0,8.944950104E0,9.972540655E0
1.767938655E0,4.260000288E-1,4.354050159E0,8.944950104E0,9.957477651E0
1.769901723E0,4.260000288E-1,4.392000198E0,8.983950615E0,1.000912136E1
1.771864994E0,3.870000243E-1,4.354050159E0,8.983950615E0,9.990940419E0
1.773828196E0,3.870000243E-1,4.392000198E0,8.983950615E0,1.000753733E1
1.775791253E0,3.870000243E-1,4.431000233E0,8.983950615E0,1.002471450E1
1.777754352E0,4.260000288E-1,4.392000198E0,8.983950615E0,1.000912136E1
1.779717425E0,4.260000288E-1,4.431000233E0,8.944950104E0,9.991364844E0
1.781680506E0,3.870000243E-1,4.354050159E0,8.944950104E0,9.955885404E0
1.783643791E0,3.870000243E-1,4.392000198E0,8.944950104E0,9.972540655E0
1.785606995E0,3.490500152E-1,4.431000233E0,8.907000542E0,9.954408954E0
1.787570275E0,3.870000243E-1,4.392000198E0,8.983950615E0,1.000753733E1
1.789533533E0,3.870000243E-1,4.392000198E0,8.907000542E0,9.938515654E0
1.791496715E0,3.490500152E-1,4.392000198E0,8.944950104E0,9.971140056E0
1.793459920E0,3.490500152E-1,4.392000198E0,8.944950104E0,9.971140056E0
1.795423033E0,3.109500110E-1,4.392000198E0,8.944950104E0,9.969879037E0
1.797386164E0,3.490500152E-1,4.354050159E0,8.944950104E0,9.954482461E0
1.799349366E0,3.870000243E-1,4.392000198E0,8.907000542E0,9.938515654E0
1.801312547E0,3.490500152E-1,4.354050159E0,8.907000542E0,9.920395524E0
1.803275472E0,3.870000243E-1,4.431000233E0,8.944950104E0,9.989777998E0
1.805238472E0,3.109500110E-1,4.392000198E0,8.944950104E0,9.969879037E0
1.807201482E0,3.870000243E-1,4.354050159E0,9.022050858E0,1.002521439E1
1.809164513E0,4.260000288E-1,4.392000198E0,8.944950104E0,9.974130244E0
1.811127778E0,3.490500152E-1,4.354050159E0,8.907000542E0,9.920395524E0
1.813090975E0,3.870000243E-1,4.392000198E0,8.907000542E0,9.938515654E0
1.815053852E0,4.260000288E-1,4.354050159E0,8.944950104E0,9.957477651E0
1.817016823E0,3.870000243E-1,4.431000233E0,8.944950104E0,9.989777998E0
1.818979836E0,3.870000243E-1,4.431000233E0,8.944950104E0,9.989777998E0
1.820942799E0,3.870000243E-1,4.392000198E0,8.907000542E0,9.938515654E0
1.822905894E0,3.870000243E-1,4.468950272E0,8.944950104E0,1.000666867E1
1.824868951E0,3.870000243E-1,4.431000233E0,8.983950615E0,1.002471450E1
1.826832032E0,3.490500152E-1,4.431000233E0,9.022050858E0,1.005748481E1
1.828795105E0,4.639500082E-1,4.431000233E0,8.907000542E0,9.959099925E0
1.830758367E0,3.870000243E-1,4.431000233E0,8.944950104E0,9.989777998E0
1.832721538E0,3.870000243E-1,4.392000198E0,8.907000542E0,9.938515654E0
1.834684779E0,4.260000288E-1,4.431000233E0,8.944950104E0,9.991364844E0
1.836648000E0,3.870000243E-1,4.431000233E0,8.907000542E0,9.955811907E0
1.838611232E0,3.490500152E-1,4.431000233E0,8.907000542E0,9.954408954E0
1.840574461E0,3.870000243E-1,4.431000233E0,8.869050026E0,9.921873837E0
1.842537523E0,3.490500152E-1,4.431000233E0,8.869050026E0,9.920466085E0
1.844500627E0,4.260000288E-1,4.431000233E0,8.907000542E0,9.957404167E0
1.846463699E0,3.870000243E-1,4.431000233E0,8.869050026E0,9.921873837E0
1.848426781E0,3.490500152E-1,4.468950272E0,8.869050026E0,9.937474569E0
1.850390036E0,3.490500152E-1,4.392000198E0,8.869050026E0,9.903108099E0
1.852353241E0,3.490500152E-1,4.431000233E0,8.869050026E0,9.920466085E0
1.854316311E0,3.870000243E-1,4.468950272E0,8.830050468E0,9.904093943E0
1.856279410E0,3.870000243E-1,4.431000233E0,8.869050026E0,9.921873837E0
1.858242527E0,3.490500152E-1,4.392000198E0,8.830050468E0,9.868196032E0
1.860205639E0,3.870000243E-1,4.392000198E0,8.869050026E0,9.904518319E0
1.862168531E0,3.870000243E-1,4.392000198E0,8.907000542E0,9.938515654E0
1.864131487E0,3.490500152E-1,4.392000198E0,8.869050026E0,9.903108099E0
1.866094589E0,3.870000243E-1,4.431000233E0,8.907000542E0,9.955811907E0
1.868057644E0,3.870000243E-1,4.392000198E0,8.830050468E0,9.869611240E0
1.870020681E0,3.870000243E-1,4.431000233E0,8.830050468E0,9.887028035E0
1.871983723E0,3.490500152E-1,4.431000233E0,8.869050026E0,9.920466085E0
1.873946671E0,3.870000243E-1,4.431000233E0,8.907000542E0,9.955811907E0
1.875909646E0,3.490500152E-1,4.392000198E0,8.791950226E0,9.834118691E0
1.877872505E0,3.870000243E-1,4.392000198E0,8.830050468E0,9.869611240E0
1.879835406E0,3.870000243E-1,4.392000198E0,8.830050468E0,9.869611240E0
1.881798512E0,3.870000243E-1,4.392000198E0,8.830050468E0,9.869611240E0
1.883761557E0,3.870000243E-1,4.431000233E0,8.830050468E0,9.887028035E0
1.885724640E0,3.870000243E-1,4.431000233E0,8.907000542E0,9.955811907E0
1.887687711E0,3.490500152E-1,4.392000198E0,8.869050026E0,9.903108099E0
1.889650651E0,3.870000243E-1,4.392000198E0,8.830050468E0,9.869611240E0
1.891613632E0,3.870000243E-1,4.392000198E0,8.830050468E0,9.869611240E0
1.893576545E0,3.490500152E-1,4.431000233E0,8.869050026E0,9.920466085E0
1.895539478E0,3.490500152E-1,4.392000198E0,8.869050026E0,9.903108099E0
1.897502759E0,3.870000243E-1,4.431000233E0,8.907000542E0,9.955811907E0
1.899465938E0,3.870000243E-1,4.431000233E0,8.830050468E0,9.887028035E0
1.901428953E0,3.870000243E-1,4.392000198E0,8.869050026E0,9.904518319E0
1.903392017E0,3.870000243E-1,4.468950272E0,8.869050026E0,9.938879912E0
1.905355320E0,3.870000243E-1,4.431000233E0,8.830050468E0,9.887028035E0
1.907318553E0,3.490500152E-1,4.431000233E0,8.830050468E0,9.885615320E0
1.909281740E0,3.490500152E-1,4.431000233E0,8.869050026E0,9.920466085E0
1.911244940E0,3.490500152E-1,4.392000198E0,8.869050026E0,9.903108099E0
1.913207824E0,3.870000243E-1,4.431000233E0,8.869050026E0,9.921873837E0
1.915170795E0,3.870000243E-1,4.392000198E0,8.869050026E0,9.904518319E0
1.917133710E0,3.109500110E-1,4.431000233E0,8.830050468E0,9.884343390E0
1.919096641E0,3.870000243E-1,4.392000198E0,8.869050026E0,9.904518319E0
1.921059563E0,3.490500152E-1,4.431000233E0,8.869050026E0,9.920466085E0
1.923022488E0,3.490500152E-1,4.392000198E0,8.907000542E0,9.937110259E0
1.924985406E0,3.870000243E-1,4.392000198E0,8.907000542E0,9.938515654E0
1.926948329E0,3.870000243E-1,4.392000198E0,8.907000542E0,9.938515654E0
1.928911476E0,3.870000243E-1,4.392000198E0,8.907000542E0,9.938515654E0
1.930874557E0,3.870000243E-1,4.392000198E0,8.944950104E0,9.972540655E0
1.932837949E0,3.490500152E-1,4.354050159E0,8.944950104E0,9.954482461E0
1.934801250E0,3.870000243E-1,4.392000198E0,8.944950104E0,9.972540655E0
1.936764290E0,3.870000243E-1,4.431000233E0,8.944950104E0,9.989777998E0
1.938727406E0,3.870000243E-1,4.392000198E0,8.983950615E0,1.000753733E1
1.940690296E0,4.260000288E-1,4.392000198E0,8.983950615E0,1.000912136E1
1.942653252E0,3.870000243E-1,4.392000198E0,8.983950615E0,1.000753733E1
1.944616394E0,4.260000288E-1,4.392000198E0,8.944950104E0,9.974130244E0
1.946579481E0,3.870000243E-1,4.392000198E0,8.944950104E0,9.972540655E0
1.948542517E0,4.260000288E-1,4.392000198E0,9.022050858E0,1.004333328E1
1.950505565E0,4.639500082E-1,4.354050159E0,9.022050858E0,1.002847965E1
1.952469006E0,4.260000288E-1,4.354050159E0,9.022050858E0,1.002679562E1
1.954432332E0,4.639500082E-1,4.392000198E0,9.022050858E0,1.004501454E1
1.956395772E0,3.490500152E-1,4.392000198E0,9.022050858E0,1.004036371E1
1.958359178E0,4.260000288E-1,4.354050159E0,8.983950615E0,9.992527081E0
1.960322915E0,4.639500082E-1,4.392000198E0,8.944950104E0,9.975823160E0
1.962286558E0,3.870000243E-1,4.392000198E0,8.983950615E0,1.000753733E1
1.964249719E0,3.870000243E-1,4.392000198E0,8.983950615E0,1.000753733E1
1.966213021E0,3.490500152E-1,4.354050159E0,9.022050858E0,1.002382115E1
1.968176014E0,4.260000288E-1,4.354050159E0,9.022050858E0,1.002679562E1
1.970139098E0,3.870000243E-1,4.392000198E0,9.022050858E0,1.004175465E1
1.972101993E0,5.020500422E-1,4.354050159E0,9.022050858E0,1.003031449E1
1.974064944E0,4.639500082E-1,4.354050159E0,9.022050858E0,1.002847965E1
1.976028042E0,4.639500082E-1,4.354050159E0,9.060000420E0,1.006263435E1
1.977991096E0,3.870000243E-1,4.392000198E0,9.060000420E0,1.007586435E1
1.979954222E0,4.260000288E-1,4.392000198E0,9.022050858E0,1.004333328E1
1.981917327E0,3.870000243E-1,4.354050159E0,9.098999977E0,1.009451942E1
1.983880524E0,3.870000243E-1,4.392000198E0,9.060000420E0,1.007586435E1
1.985843701E0,3.490500152E-1,4.354050159E0,9.022050858E0,1.002382115E1
1.987806986E0,3.870000243E-1,4.392000198E0,9.060000420E0,1.007586435E1
1.989770240E0,3.870000243E-1,4.392000198E0,9.022050858E0,1.004175465E1
1.991733423E0,3.490500152E-1,4.392000198E0,9.060000420E0,1.007447811E1
1.993696627E0,3.870000243E-1,4.354050159E0,9.022050858E0,1.002521439E1
1.995659711E0,3.870000243E-1,4.392000198E0,9.022050858E0,1.004175465E1
1.997622809E0,3.870000243E-1,4.392000198E0,9.022050858E0,1.004175465E1
1.999586062E0,3.870000243E-1,4.392000198E0,9.022050858E0,1.004175465E1
2.001549269E0,4.260000288E-1,4.354050159E0,9.022050858E0,1.002679562E1
2.003512370E0,3.490500152E-1,4.392000198E0,9.022050858E0,1.004036371E1
2.005475502E0,3.870000243E-1,4.392000198E0,8.983950615E0,1.000753733E1
2.007438505E0,3.870000243E-1,4.354050159E0,8.983950615E0,9.990940419E0
2.009401560E0,4.260000288E-1,4.392000198E0,9.022050858E0,1.004333328E1
2.011364865E0,3.870000243E-1,4.431000233E0,8.983950615E0,1.002471450E1
2.013328096E0,4.260000288E-1,4.431000233E0,9.022050858E0,1.006044933E1
2.015291283E0,3.870000243E-1,4.354050159E0,8.983950615E0,9.990940419E0
2.017254483E0,3.870000243E-1,4.392000198E0,8.944950104E0,9.972540655E0
2.019217403E0,4.260000288E-1,4.354050159E0,8.983950615E0,9.992527081E0
2.021180406E0,3.870000243E-1,4.392000198E0,8.944950104E0,9.972540655E0
2.023143674E0,4.260000288E-1,4.392000198E0,8.944950104E0,9.974130244E0
2.025106865E0,4.260000288E-1,4.431000233E0,8.944950104E0,9.991364844E0
2.027070058E0,3.870000243E-1,4.392000198E0,8.983950615E0,1.000753733E1
2.029033250E0,3.870000243E-1,4.392000198E0,8.944950104E0,9.972540655E0
2.030996353E0,3.870000243E-1,4.431000233E0,8.907000542E0,9.955811907E0
2.032959483E0,3.870000243E-1,4.431000233E0,8.944950104E0,9.989777998E0
2.034922551E0,3.870000243E-1,4.392000198E0,8.907000542E0,9.938515654E0
2.036885637E0,4.260000288E-1,4.354050159E0,8.869050026E0,9.889351707E0
2.038848667E0,4.260000288E-1,4.392000198E0,8.944950104E0,9.974130244E0
2.040811714E0,3.870000243E-1,4.392000198E0,8.869050026E0,9.904518319E0
2.042774789E0,4.260000288E-1,4.392000198E0,8.907000542E0,9.940110684E0
2.044737860E0,4.639500082E-1,4.354050159E0,8.907000542E0,9.925102571E0
2.046700938E0,4.260000288E-1,4.315950394E0,8.907000542E0,9.906743283E0
2.048664014E0,4.260000288E-1,4.392000198E0,8.907000542E0,9.940110684E0
2.050627136E0,4.260000288E-1,4.354050159E0,8.869050026E0,9.889351707E0
2.052590245E0,4.260000288E-1,4.354050159E0,8.869050026E0,9.889351707E0
2.054553862E0,4.639500082E-1,4.392000198E0,8.907000542E0,9.941809393E0
2.056517327E0,5.020500422E-1,4.354050159E0,8.907000542E0,9.926956517E0
2.058480519E0,4.260000288E-1,4.392000198E0,8.869050026E0,9.906118823E0
2.060443791E0,4.260000288E-1,4.354050159E0,8.907000542E0,9.923401003E0
2.062406969E0,4.260000288E-1,4.392000198E0,8.869050026E0,9.906118823E0
2.064370175E0,5.020500422E-1,4.354050159E0,8.869050026E0,9.892919458E0
2.066333409E0,4.260000288E-1,4.392000198E0,8.907000542E0,9.940110684E0
2.068296635E0,3.870000243E-1,4.392000198E0,8.830050468E0,9.869611240E0
2.070259507E0,4.260000288E-1,4.354050159E0,8.907000542E0,9.923401003E0
2.072222483E0,4.260000288E-1,4.392000198E0,8.944950104E0,9.974130244E0
2.074185082E0,3.490500152E-1,4.392000198E0,8.869050026E0,9.903108099E0
2.076147791E0,4.260000288E-1,4.392000198E0,8.869050026E0,9.906118823E0
2.078110905E0,3.870000243E-1,4.431000233E0,8.830050468E0,9.887028035E0
2.080073918E0,4.260000288E-1,4.431000233E0,8.869050026E0,9.923471542E0
2.082037322E0,3.870000243E-1,4.431000233E0,8.869050026E0,9.921873837E0
2.084000611E0,3.490500152E-1,4.431000233E0,8.830050468E0,9.885615320E0
2.085963878E0,3.109500110E-1,4.431000233E0,8.869050026E0,9.919198624E0
2.087927151E0,3.870000243E-1,4.431000233E0,8.830050468E0,9.887028035E0
2.089890549E0,3.870000243E-1,4.431000233E0,8.830050468E0,9.887028035E0
2.091853913E0,3.870000243E-1,4.468950272E0,8.791950226E0,9.870140542E0
2.093817302E0,3.490500152E-1,4.431000233E0,8.830050468E0,9.885615320E0
2.095780683E0,3.490500152E-1,4.431000233E0,8.791950226E0,9.851598233E0
2.097744204E0,3.490500152E-1,4.431000233E0,8.791950226E0,9.851598233E0
2.099707683E0,3.490500152E-1,4.431000233E0,8.830050468E0,9.885615320E0
2.101670732E0,3.490500152E-1,4.468950272E0,8.791950226E0,9.868725410E0
2.103633911E0,3.870000243E-1,4.431000233E0,8.791950226E0,9.853015825E0
2.105597330E0,3.109500110E-1,4.431000233E0,8.791950226E0,9.850321911E0
2.107560678E0,3.490500152E-1,4.431000233E0,8.791950226E0,9.851598233E0
2.109524069E0,4.260000288E-1,4.431000233E0,8.754000664E0,9.820782388E0
2.111487447E0,3.870000243E-1,4.392000198E0,8.754000664E0,9.801630598E0
2.113451148E0,3.490500152E-1,4.392000198E0,8.791950226E0,9.834118691E0
2.115414755E0,4.260000288E-1,4.431000233E0,8.791950226E0,9.854624694E0
2.117378148E0,3.870000243E-1,4.354050159E0,8.830050468E0,9.852781997E0
2.119341603E0,3.870000243E-1,4.392000198E0,8.830050468E0,9.869611240E0
2.121304975E0,3.870000243E-1,4.354050159E0,8.830050468E0,9.852781997E0
2.123268372E0,4.260000288E-1,4.431000233E0,8.830050468E0,9.888631370E0
2.125231735E0,4.260000288E-1,4.392000198E0,8.830050468E0,9.871217404E0
2.127195122E0,4.639500082E-1,4.392000198E0,8.869050026E0,9.907823359E0
2.129158326E0,4.639500082E-1,4.354050159E0,8.907000542E0,9.925102571E0
2.131121584E0,3.870000243E-1,4.392000198E0,8.907000542E0,9.938515654E0
2.133084810E0,3.870000243E-1,4.431000233E0,8.907000542E0,9.955811907E0
2.135048045E0,4.260000288E-1,4.392000198E0,8.907000542E0,9.940110684E0
2.137011574E0,3.870000243E-1,4.392000198E0,8.944950104E0,9.972540655E0
2.138975028E0,3.870000243E-1,4.354050159E0,8.944950104E0,9.955885404E0
2.140938222E0,3.870000243E-1,4.392000198E0,8.944950104E0,9.972540655E0
2.142901492E0,4.260000288E-1,4.392000198E0,8.983950615E0,1.000912136E1
2.144864400E0,3.870000243E-1,4.392000198E0,9.022050858E0,1.004175465E1
2.146827415E0,3.490500152E-1,4.392000198E0,8.983950615E0,1.000614163E1
2.148790497E0,3.490500152E-1,4.431000233E0,8.983950615E0,1.002332119E1
2.150753562E0,3.490500152E-1,4.392000198E0,8.983950615E0,1.000614163E1
2.152716956E0,3.490500152E-1,4.468950272E0,8.983950615E0,1.004015543E1
2.154680254E0,3.490500152E-1,4.468950272E0,9.060000420E0,1.010826197E1
2.156643339E0,3.870000243E-1,4.431000233E0,8.983950615E0,1.002471450E1
2.158606487E0,2.719500065E-1,4.431000233E0,8.907000542E0,9.952003744E0
2.160569548E0,2.719500065E-1,4.468950272E0,9.022050858E0,1.007188538E1
2.162532637E0,3.109500110E-1,4.431000233E0,9.022050858E0,1.005623462E1
2.164495891E0,3.109500110E-1,4.507050037E0,8.983950615E0,1.005592157E1
2.166459096E0,3.109500110E-1,4.468950272E0,8.944950104E0,1.000401613E1
2.168422152E0,2.719500065E-1,4.468950272E0,8.944950104E0,1.000287987E1
2.170385252E0,2.719500065E-1,4.507050037E0,8.944950104E0,1.001995954E1
2.172348435E0,2.340000123E-1,4.468950272E0,8.983950615E0,1.003681429E1
2.174311611E0,2.719500065E-1,4.468950272E0,8.983950615E0,1.003777077E1
2.176274851E0,3.109500110E-1,4.431000233E0,8.983950615E0,1.002206673E1
2.178238072E0,3.109500110E-1,4.468950272E0,9.022050858E0,1.007301385E1
2.180201305E0,3.109500110E-1,4.507050037E0,9.022050858E0,1.008997481E1
2.182164534E0,3.109500110E-1,4.468950272E0,8.983950615E0,1.003890308E1
2.184127824E0,3.490500152E-1,4.431000233E0,8.983950615E0,1.002332119E1
2.186091086E0,3.109500110E-1,4.431000233E0,9.060000420E0,1.009029537E1
2.188054313E0,3.490500152E-1,4.431000233E0,9.022050858E0,1.005748481E1
2.190017550E0,3.109500110E-1,4.468950272E0,9.022050858E0,1.007301385E1
2.191980735E0,3.109500110E-1,4.431000233E0,9.060000420E0,1.009029537E1
2.193943935E0,3.870000243E-1,4.392000198E0,9.060000420E0,1.007586435E1
2.195906810E0,3.490500152E-1,4.431000233E0,9.060000420E0,1.009154134E1
2.197869781E0,3.490500152E-1,4.431000233E0,9.060000420E0,1.009154134E1
2.199832741E0,3.870000243E-1,4.431000233E0,9.060000420E0,1.009292523E1
2.201795704E0,3.870000243E-1,4.392000198E0,9.060000420E0,1.007586435E1
2.203758799E0,3.490500152E-1,4.431000233E0,9.060000420E0,1.009154134E1
2.205721856E0,3.870000243E-1,4.431000233E0,9.022050858E0,1.005887338E1
2.207685097E0,3.490500152E-1,4.392000198E0,9.022050858E0,1.004036371E1
2.209648298E0,3.490500152E-1,4.431000233E0,9.022050858E0,1.005748481E1
2.211611670E0,3.490500152E-1,4.392000198E0,9.022050858E0,1.004036371E1
2.213574991E0,3.870000243E-1,4.392000198E0,9.060000420E0,1.007586435E1
2.215538207E0,3.870000243E-1,4.431000233E0,9.022050858E0,1.005887338E1
2.217501454E0,3.490500152E-1,4.392000198E0,9.022050858E0,1.004036371E1
2.219464672E0,3.490500152E-1,4.392000198E0,8.983950615E0,1.000614163E1
2.221427906E0,3.870000243E-1,4.315950394E0,8.983950615E0,9.974395494E0
2.223391001E0,3.870000243E-1,4.354050159E0,8.983950615E0,9.990940419E0
2.225354137E0,4.260000288E-1,4.392000198E0,8.983950615E0,1.000912136E1
2.227317338E0,4.260000288E-1,4.354050159E0,9.022050858E0,1.002679562E1
2.229280519E0,4.639500082E-1,4.354050159E0,9.022050858E0,1.002847965E1
2.231243454E0,4.260000288E-1,4.354050159E0,9.022050858E0,1.002679562E1
2.233206454E0,4.260000288E-1,4.392000198E0,8.983950615E0,1.000912136E1
2.235169364E0,4.639500082E-1,4.354050159E0,8.944950104E0,9.959173397E0
2.237132300E0,4.639500082E-1,4.354050159E0,8.983950615E0,9.994216880E0
2.239095400E0,4.260000288E-1,4.354050159E0,8.983950615E0,9.992527081E0
2.241058452E0,3.870000243E-1,4.354050159E0,8.983950615E0,9.990940419E0
2.243021484E0,3.870000243E-1,4.354050159E0,8.983950615E0,9.990940419E0
2.244984526E0,4.260000288E-1,4.354050159E0,8.983950615E0,9.992527081E0
2.246947428E0,4.639500082E-1,4.392000198E0,8.907000542E0,9.941809393E0
2.248910372E0,4.639500082E-1,4.354050159E0,8.944950104E0,9.959173397E0
2.250873516E0,3.870000243E-1,4.354050159E0,8.944950104E0,9.955885404E0
2.252836601E0,4.260000288E-1,4.354050159E0,8.944950104E0,9.957477651E0
2.254799628E0,5.020500422E-1,4.354050159E0,8.944950104E0,9.961021002E0
2.256762675E0,4.639500082E-1,4.354050159E0,8.944950104E0,9.959173397E0
2.258725756E0,5.020500422E-1,4.392000198E0,8.944950104E0,9.977667681E0
2.260688827E0,4.260000288E-1,4.354050159E0,8.907000542E0,9.923401003E0
2.262651590E0,5.020500422E-1,4.354050159E0,8.944950104E0,9.961021002E0
2.264614444E0,5.020500422E-1,4.354050159E0,8.907000542E0,9.926956517E0
2.266577581E0,4.639500082E-1,4.354050159E0,8.907000542E0,9.925102571E0
2.268540619E0,4.639500082E-1,4.354050159E0,8.907000542E0,9.925102571E0
2.270503658E0,5.020500422E-1,4.354050159E0,8.869050026E0,9.892919458E0
2.272466696E0,4.639500082E-1,4.392000198E0,8.869050026E0,9.907823359E0
2.274429645E0,4.639500082E-1,4.392000198E0,8.907000542E0,9.941809393E0
2.276392621E0,4.260000288E-1,4.392000198E0,8.907000542E0,9.940110684E0
2.278356016E0,4.639500082E-1,4.354050159E0,8.907000542E0,9.925102571E0
2.280319298E0,4.639500082E-1,4.392000198E0,8.907000542E0,9.941809393E0
2.282282206E0,4.639500082E-1,4.354050159E0,8.869050026E0,9.891059133E0
2.284245224E0,4.639500082E-1,4.392000198E0,8.983950615E0,1.001080836E1
2.286208625E0,4.639500082E-1,4.354050159E0,8.907000542E0,9.925102571E0
2.288171914E0,4.260000288E-1,4.431000233E0,8.907000542E0,9.957404167E0
2.290135126E0,4.260000288E-1,4.431000233E0,8.830050468E0,9.888631370E0
2.292098367E0,4.260000288E-1,4.392000198E0,8.869050026E0,9.906118823E0
2.294061596E0,5.020500422E-1,4.392000198E0,8.944950104E0,9.977667681E0
2.296024829E0,3.870000243E-1,4.392000198E0,8.907000542E0,9.938515654E0
2.297987699E0,3.870000243E-1,4.431000233E0,8.907000542E0,9.955811907E0
2.299950675E0,4.639500082E-1,4.392000198E0,8.944950104E0,9.975823160E0
2.301913565E0,4.639500082E-1,4.392000198E0,8.907000542E0,9.941809393E0
2.303876497E0,4.260000288E-1,4.431000233E0,8.907000542E0,9.957404167E0
2.305839598E0,3.870000243E-1,4.431000233E0,8.944950104E0,9.989777998E0
2.307802649E0,4.260000288E-1,4.468950272E0,8.869050026E0,9.940474884E0
2.309765551E0,3.870000243E-1,4.431000233E0,8.907000542E0,9.955811907E0
2.311728497E0,4.260000288E-1,4.431000233E0,8.907000542E0,9.957404167E0
2.313691809E0,4.639500082E-1,4.392000198E0,8.869050026E0,9.907823359E0
2.315654990E0,3.490500152E-1,4.392000198E0,8.869050026E0,9.903108099E0
2.317618050E0,3.870000243E-1,4.431000233E0,8.869050026E0,9.921873837E0
2.319581146E0,4.639500082E-1,4.431000233E0,8.869050026E0,9.925173098E0
2.321543904E0,4.260000288E-1,4.392000198E0,8.869050026E0,9.906118823E0
2.323506761E0,3.870000243E-1,4.468950272E0,8.791950226E0,9.870140542E0
2.325469840E0,4.639500082E-1,4.431000233E0,8.869050026E0,9.925173098E0
2.327432846E0,4.260000288E-1,4.431000233E0,8.869050026E0,9.923471542E0
2.329395980E0,4.639500082E-1,4.392000198E0,8.869050026E0,9.907823359E0
2.331359077E0,3.870000243E-1,4.431000233E0,8.907000542E0,9.955811907E0
2.333322152E0,3.870000243E-1,4.431000233E0,8.944950104E0,9.989777998E0
2.335285233E0,4.260000288E-1,4.392000198E0,8.907000542E0,9.940110684E0
2.337248268E0,4.260000288E-1,4.392000198E0,8.907000542E0,9.940110684E0
2.339211314E0,3.490500152E-1,4.431000233E0,8.869050026E0,9.920466085E0
2.341174440E0,4.260000288E-1,4.392000198E0,8.869050026E0,9.906118823E0
2.343137542E0,4.260000288E-1,4.354050159E0,8.869050026E0,9.889351707E0
2.345100795E0,3.870000243E-1,4.392000198E0,8.907000542E0,9.938515654E0
2.347064004E0,3.490500152E-1,4.431000233E0,8.907000542E0,9.954408954E0
2.349027036E0,3.870000243E-1,4.392000198E0,8.907000542E0,9.938515654E0
2.350990137E0,4.260000288E-1,4.392000198E0,8.944950104E0,9.974130244E0
2.352953344E0,4.260000288E-1,4.392000198E0,8.944950104E0,9.974130244E0
2.354916519E0,3.870000243E-1,4.392000198E0,8.907000542E0,9.938515654E0
2.356879805E0,4.260000288E-1,4.392000198E0,8.907000542E0,9.940110684E0
2.358843058E0,3.870000243E-1,4.431000233E0,8.944950104E0,9.989777998E0
2.360806439E0,4.260000288E-1,4.392000198E0,8.869050026E0,9.906118823E0
2.362769769E0,4.260000288E-1,4.431000233E0,8.907000542E0,9.957404167E0
2.364732668E0,4.260000288E-1,4.392000198E0,8.944950104E0,9.974130244E0
2.366695694E0,3.870000243E-1,4.431000233E0,8.944950104E0,9.989777998E0
2.368659094E0,3.490500152E-1,4.468950272E0,8.907000542E0,9.971359541E0
2.370622385E0,3.870000243E-1,4.431000233E0,8.944950104E0,9.989777998E0
2.372585461E0,3.870000243E-1,4.392000198E0,8.907000542E0,9.938515654E0
2.374548607E0,3.870000243E-1,4.392000198E0,8.907000542E0,9.938515654E0
2.376511492E0,3.870000243E-1,4.431000233E0,8.907000542E0,9.955811907E0
2.378474454E0,3.870000243E-1,4.431000233E0,8.944950104E0,9.989777998E0
2.380437549E0,3.490500152E-1,4.431000233E0,8.907000542E0,9.954408954E0
2.382400605E0,3.109500110E-1,4.468950272E0,8.907000542E0,9.970098550E0
2.384363609E0,3.490500152E-1,4.431000233E0,8.907000542E0,9.954408954E0
2.386326651E0,3.490500152E-1,4.431000233E0,8.907000542E0,9.954408954E0
2.388289778E0,2.719500065E-1,4.392000198E0,8.869050026E0,9.900690426E0
2.390252880E0,3.490500152E-1,4.431000233E0,8.869050026E0,9.920466085E0
2.392215728E0,3.109500110E-1,4.431000233E0,8.944950104E0,9.987120973E0
2.394178651E0,3.870000243E-1,4.431000233E0,8.869050026E0,9.921873837E0
2.396141798E0,3.490500152E-1,4.392000198E0,8.907000542E0,9.937110259E0
2.398104880E0,3.109500110E-1,4.431000233E0,8.907000542E0,9.953145815E0
2.400067957E0,3.490500152E-1,4.392000198E0,8.944950104E0,9.971140056E0
2.402031036E0,3.490500152E-1,4.431000233E0,8.907000542E0,9.954408954E0
2.403994067E0,3.490500152E-1,4.431000233E0,8.944950104E0,9.988379815E0
2.405957113E0,3.870000243E-1,4.392000198E0,8.944950104E0,9.972540655E0
2.407920184E0,3.490500152E-1,4.431000233E0,8.944950104E0,9.988379815E0
2.409883255E0,3.870000243E-1,4.468950272E0,8.983950615E0,1.004154640E1
2.411846199E0,3.870000243E-1,4.392000198E0,8.944950104E0,9.972540655E0
2.413809180E0,3.870000243E-1,4.392000198E0,8.944950104E0,9.972540655E0
2.415772588E0,3.490500152E-1,4.431000233E0,8.983950615E0,1.002332119E1
2.417735870E0,3.490500152E-1,4.431000233E0,8.869050026E0,9.920466085E0
2.419698894E0,3.870000243E-1,4.392000198E0,8.944950104E0,9.972540655E0
2.421662007E0,3.490500152E-1,4.392000198E0,8.907000542E0,9.937110259E0
2.423625122E0,3.870000243E-1,4.392000198E0,8.944950104E0,9.972540655E0
2.425588236E0,4.260000288E-1,4.431000233E0,8.944950104E0,9.991364844E0
2.427551308E0,3.490500152E-1,4.392000198E0,8.907000542E0,9.937110259E0
2.429514392E0,3.490500152E-1,4.392000198E0,8.944950104E0,9.971140056E0
2.431477777E0,4.260000288E-1,4.431000233E0,8.907000542E0,9.957404167E0
2.433441077E0,3.870000243E-1,4.431000233E0,8.907000542E0,9.955811907E0
2.435404297E0,3.870000243E-1,4.392000198E0,8.944950104E0,9.972540655E0
2.437367541E0,3.870000243E-1,4.392000198E0,8.907000542E0,9.938515654E0
2.439330949E0,3.490500152E-1,4.431000233E0,8.907000542E0,9.954408954E0
2.441294308E0,3.870000243E-1,4.431000233E0,8.983950615E0,1.002471450E1
2.443257523E0,3.490500152E-1,4.392000198E0,8.869050026E0,9.903108099E0
2.445220776E0,4.260000288E-1,4.392000198E0,8.944950104E0,9.974130244E0
2.447183868E0,3.870000243E-1,4.431000233E0,8.944950104E0,9.989777998E0
2.449147007E0,3.870000243E-1,4.431000233E0,8.907000542E0,9.955811907E0
2.451110253E0,3.109500110E-1,4.431000233E0,8.944950104E0,9.987120973E0
2.453073467E0,3.490500152E-1,4.468950272E0,8.944950104E0,1.000527285E1
2.455036676E0,4.260000288E-1,4.468950272E0,8.944950104E0,1.000825284E1
2.456999904E0,3.870000243E-1,4.431000233E0,8.944950104E0,9.989777998E0
2.458963136E0,3.870000243E-1,4.431000233E0,8.983950615E0,1.002471450E1
2.460926366E0,3.490500152E-1,4.468950272E0,8.944950104E0,1.000527285E1
2.462889732E0,3.870000243E-1,4.431000233E0,9.022050858E0,1.005887338E1
2.464853058E0,4.260000288E-1,4.431000233E0,8.983950615E0,1.002629581E1
2.466816338E0,3.490500152E-1,4.431000233E0,8.944950104E0,9.988379815E0
2.468779618E0,3.490500152E-1,4.431000233E0,8.944950104E0,9.988379815E0
2.470742795E0,3.870000243E-1,4.392000198E0,8.983950615E0,1.000753733E1
2.472706002E0,3.870000243E-1,4.392000198E0,8.983950615E0,1.000753733E1
2.474668921E0,3.490500152E-1,4.431000233E0,8.907000542E0,9.954408954E0
2.476631925E0,3.870000243E-1,4.392000198E0,8.944950104E0,9.972540655E0
2.478594973E0,3.490500152E-1,4.431000233E0,8.944950104E0,9.988379815E0
2.480558005E0,3.490500152E-1,4.431000233E0,8.944950104E0,9.988379815E0
2.482521270E0,3.870000243E-1,4.354050159E0,8.944950104E0,9.955885404E0
2.484484467E0,3.870000243E-1,4.392000198E0,8.907000542E0,9.938515654E0
2.486447703E0,3.490500152E-1,4.431000233E0,8.944950104E0,9.988379815E0
2.488410928E0,3.490500152E-1,4.392000198E0,8.944950104E0,9.971140056E0
2.490373845E0,3.870000243E-1,4.354050159E0,8.944950104E0,9.955885404E0
2.492336853E0,3.870000243E-1,4.354050159E0,8.983950615E0,9.990940419E0
2.494300121E0,3.870000243E-1,4.392000198E0,8.983950615E0,1.000753733E1
2.496263313E0,4.260000288E-1,4.354050159E0,8.983950615E0,9.992527081E0
2.498226506E0,3.870000243E-1,4.392000198E0,8.983950615E0,1.000753733E1
2.500189698E0,4.260000288E-1,4.354050159E0,8.983950615E0,9.992527081E0
2.502152906E0,4.260000288E-1,4.392000198E0,8.944950104E0,9.974130244E0
2.504116130E0,3.870000243E-1,4.392000198E0,9.022050858E0,1.004175465E1
2.506079228E0,4.260000288E-1,4.354050159E0,8.983950615E0,9.992527081E0
2.508042363E0,4.639500082E-1,4.354050159E0,9.022050858E0,1.002847965E1
2.510005564E0,4.260000288E-1,4.354050159E0,8.944950104E0,9.957477651E0
2.511968745E0,4.260000288E-1,4.354050159E0,8.983950615E0,9.992527081E0
2.513931490E0,4.260000288E-1,4.354050159E0,8.944950104E0,9.957477651E0
2.515894363E0,4.260000288E-1,4.354050159E0,9.022050858E0,1.002679562E1
2.517857474E0,4.639500082E-1,4.354050159E0,8.944950104E0,9.959173397E0
2.519820515E0,4.260000288E-1,4.354050159E0,8.983950615E0,9.992527081E0
2.521783598E0,4.260000288E-1,4.354050159E0,8.944950104E0,9.957477651E0
2.523746669E0,4.639500082E-1,4.354050159E0,8.983950615E0,9.994216880E0
2.525709718E0,3.490500152E-1,4.354050159E0,8.907000542E0,9.920395524E0
2.527672793E0,4.260000288E-1,4.354050159E0,8.907000542E0,9.923401003E0
2.529636006E0,4.260000288E-1,4.315950394E0,8.944950104E0,9.940877033E0
2.531599178E0,3.870000243E-1,4.354050159E0,8.907000542E0,9.921803287E0
2.533562240E0,4.260000288E-1,4.431000233E0,8.907000542E0,9.957404167E0
2.535525334E0,4.639500082E-1,4.392000198E0,8.907000542E0,9.941809393E0
2.537488418E0,4.260000288E-1,4.392000198E0,8.944950104E0,9.974130244E0
2.539451498E0,4.260000288E-1,4.392000198E0,8.983950615E0,1.000912136E1
2.541414259E0,3.870000243E-1,4.392000198E0,8.944950104E0,9.972540655E0
2.543377113E0,3.870000243E-1,4.392000198E0,8.907000542E0,9.938515654E0
2.545340362E0,3.870000243E-1,4.354050159E0,8.907000542E0,9.921803287E0
2.547303496E0,3.490500152E-1,4.354050159E0,8.907000542E0,9.920395524E0
2.549266438E0,4.260000288E-1,4.315950394E0,8.907000542E0,9.906743283E0
2.551229430E0,4.260000288E-1,4.392000198E0,8.830050468E0,9.871217404E0
2.553192475E0,4.639500082E-1,4.392000198E0,8.869050026E0,9.907823359E0
2.555155505E0,4.260000288E-1,4.392000198E0,8.830050468E0,9.871217404E0
2.557118590E0,4.260000288E-1,4.392000198E0,8.869050026E0,9.906118823E0
2.559081659E0,3.870000243E-1,4.392000198E0,8.869050026E0,9.904518319E0
2.561044952E0,3.870000243E-1,4.354050159E0,8.830050468E0,9.852781997E0
2.563008187E0,3.870000243E-1,4.392000198E0,8.869050026E0,9.904518319E0
2.564971373E0,4.260000288E-1,4.392000198E0,8.869050026E0,9.906118823E0
2.566934574E0,3.870000243E-1,4.354050159E0,8.869050026E0,9.887748489E0
2.568897494E0,3.870000243E-1,4.392000198E0,8.869050026E0,9.904518319E0
2.570860497E0,4.260000288E-1,4.354050159E0,8.869050026E0,9.889351707E0
2.572823610E0,3.870000243E-1,4.392000198E0,8.869050026E0,9.904518319E0
2.574786673E0,4.260000288E-1,4.392000198E0,8.869050026E0,9.906118823E0
2.576749708E0,4.260000288E-1,4.392000198E0,8.869050026E0,9.906118823E0
2.578712752E0,4.260000288E-1,4.392000198E0,8.869050026E0,9.906118823E0
2.580675699E0,4.260000288E-1,4.392000198E0,8.907000542E0,9.940110684E0
2.582638675E0,3.870000243E-1,4.431000233E0,8.869050026E0,9.921873837E0
2.584601768E0,3.870000243E-1,4.468950272E0,8.869050026E0,9.938879912E0
2.586564827E0,3.870000243E-1,4.431000233E0,8.869050026E0,9.921873837E0
2.588527683E0,3.490500152E-1,4.392000198E0,8.869050026E0,9.903108099E0
2.590490598E0,4.260000288E-1,4.431000233E0,8.869050026E0,9.923471542E0
2.592453387E0,4.260000288E-1,4.431000233E0,8.907000542E0,9.957404167E0
2.594416213E0,4.260000288E-1,4.431000233E0,8.907000542E0,9.957404167E0
2.596378988E0,3.870000243E-1,4.392000198E0,8.830050468E0,9.869611240E0
2.598341767E0,3.870000243E-1,4.431000233E0,8.907000542E0,9.955811907E0
2.600304714E0,4.260000288E-1,4.431000233E0,8.869050026E0,9.923471542E0
2.602267611E0,4.260000288E-1,4.431000233E0,8.830050468E0,9.888631370E0
2.604230854E0,4.260000288E-1,4.392000198E0,8.907000542E0,9.940110684E0
2.606193995E0,3.870000243E-1,4.431000233E0,8.869050026E0,9.921873837E0
2.608157052E0,4.260000288E-1,4.431000233E0,8.869050026E0,9.923471542E0
2.610120141E0,3.870000243E-1,4.431000233E0,8.907000542E0,9.955811907E0
2.612082856E0,4.260000288E-1,4.431000233E0,8.907000542E0,9.957404167E0
2.614045680E0,4.260000288E-1,4.431000233E0,8.830050468E0,9.888631370E0
2.616008799E0,3.870000243E-1,4.468950272E0,8.907000542E0,9.972760109E0
2.617971832E0,3.870000243E-1,4.468950272E0,8.907000542E0,9.972760109E0
2.619934592E0,3.870000243E-1,4.431000233E0,8.944950104E0,9.989777998E0
2.621897439E0,4.260000288E-1,4.431000233E0,8.907000542E0,9.957404167E0
2.623860509E0,4.260000288E-1,4.468950272E0,8.907000542E0,9.974349663E0
2.625823514E0,3.870000243E-1,4.468950272E0,8.944950104E0,1.000666867E1
2.627786469E0,3.490500152E-1,4.431000233E0,8.944950104E0,9.988379815E0
2.629749439E0,4.260000288E-1,4.431000233E0,8.944950104E0,9.991364844E0
2.631712834E0,3.490500152E-1,4.468950272E0,8.944950104E0,1.000527285E1
2.633676115E0,3.870000243E-1,4.468950272E0,8.944950104E0,1.000666867E1
2.635638978E0,3.490500152E-1,4.468950272E0,8.869050026E0,9.937474569E0
2.637601964E0,3.870000243E-1,4.431000233E0,8.944950104E0,9.989777998E0
2.639564921E0,3.490500152E-1,4.468950272E0,8.983950615E0,1.004015543E1
2.641527887E0,3.870000243E-1,4.392000198E0,8.983950615E0,1.000753733E1
2.643490767E0,3.490500152E-1,4.431000233E0,8.944950104E0,9.988379815E0
2.645453666E0,3.870000243E-1,4.431000233E0,8.907000542E0,9.955811907E0
2.647416637E0,3.870000243E-1,4.468950272E0,8.944950104E0,1.000666867E1
2.649379587E0,3.490500152E-1,4.431000233E0,8.944950104E0,9.988379815E0
2.651342686E0,3.490500152E-1,4.431000233E0,8.944950104E0,9.988379815E0
2.653305741E0,3.870000243E-1,4.431000233E0,8.944950104E0,9.989777998E0
2.655268627E0,3.109500110E-1,4.392000198E0,8.944950104E0,9.969879037E0
2.657231574E0,3.490500152E-1,4.392000198E0,8.944950104E0,9.971140056E0
2.659194448E0,3.870000243E-1,4.392000198E0,8.907000542E0,9.938515654E0
2.661157343E0,3.490500152E-1,4.392000198E0,8.944950104E0,9.971140056E0
2.663120676E0,4.260000288E-1,4.392000198E0,8.944950104E0,9.974130244E0
2.665083880E0,3.490500152E-1,4.392000198E0,8.944950104E0,9.971140056E0
2.667046946E0,3.490500152E-1,4.354050159E0,8.907000542E0,9.920395524E0
2.669010046E0,4.260000288E-1,4.392000198E0,8.983950615E0,1.000912136E1
2.670973118E0,3.870000243E-1,4.392000198E0,8.944950104E0,9.972540655E0
2.672936199E0,3.870000243E-1,4.392000198E0,8.944950104E0,9.972540655E0
2.674899230E0,3.870000243E-1,4.392000198E0,8.944950104E0,9.972540655E0
2.676862276E0,3.490500152E-1,4.392000198E0,8.944950104E0,9.971140056E0
2.678825202E0,3.490500152E-1,4.392000198E0,8.983950615E0,1.000614163E1
2.680788147E0,3.490500152E-1,4.431000233E0,8.907000542E0,9.954408954E0
2.682751425E0,3.870000243E-1,4.392000198E0,8.983950615E0,1.000753733E1
2.684714606E0,4.260000288E-1,4.431000233E0,8.983950615E0,1.002629581E1
2.686677666E0,3.870000243E-1,4.392000198E0,8.944950104E0,9.972540655E0
2.688640762E0,4.260000288E-1,4.392000198E0,8.983950615E0,1.000912136E1
2.690604014E0,4.260000288E-1,4.392000198E0,8.944950104E0,9.974130244E0
2.692567221E0,3.870000243E-1,4.431000233E0,8.983950615E0,1.002471450E1
2.694530322E0,3.490500152E-1,4.392000198E0,8.983950615E0,1.000614163E1
2.696493454E0,3.870000243E-1,4.431000233E0,8.944950104E0,9.989777998E0
2.698456341E0,4.260000288E-1,4.431000233E0,8.983950615E0,1.002629581E1
2.700419300E0,3.490500152E-1,4.431000233E0,8.944950104E0,9.988379815E0
2.702382226E0,4.260000288E-1,4.392000198E0,8.944950104E0,9.974130244E0
2.704345156E0,4.260000288E-1,4.392000198E0,8.983950615E0,1.000912136E1
2.706308392E0,3.870000243E-1,4.392000198E0,8.944950104E0,9.972540655E0
2.708271538E0,4.260000288E-1,4.431000233E0,8.907000542E0,9.957404167E0
2.710234829E0,3.870000243E-1,4.392000198E0,8.944950104E0,9.972540655E0
2.712198077E0,4.639500082E-1,4.354050159E0,8.944950104E0,9.959173397E0
2.714160945E0,4.639500082E-1,4.392000198E0,8.944950104E0,9.975823160E0
2.716123925E0,4.260000288E-1,4.354050159E0,8.907000542E0,9.923401003E0
2.718087197E0,3.870000243E-1,4.392000198E0,8.983950615E0,1.000753733E1
2.720050384E0,4.639500082E-1,4.392000198E0,8.944950104E0,9.975823160E0
2.722013443E0,3.870000243E-1,4.392000198E0,8.983950615E0,1.000753733E1
2.723976540E0,3.870000243E-1,4.431000233E0,8.983950615E0,1.002471450E1
2.725939933E0,3.870000243E-1,4.354050159E0,8.944950104E0,9.955885404E0
2.727903236E0,3.870000243E-1,4.354050159E0,8.983950615E0,9.990940419E0
2.729866140E0,4.260000288E-1,4.392000198E0,8.944950104E0,9.974130244E0
2.731829161E0,4.260000288E-1,4.392000198E0,8.983950615E0,1.000912136E1
2.733792201E0,3.870000243E-1,4.354050159E0,8.983950615E0,9.990940419E0
2.735755236E0,3.870000243E-1,4.392000198E0,8.983950615E0,1.000753733E1
2.737718146E0,3.870000243E-1,4.392000198E0,8.983950615E0,1.000753733E1
2.739681089E0,4.260000288E-1,4.431000233E0,8.983950615E0,1.002629581E1
2.741644188E0,4.260000288E-1,4.354050159E0,8.944950104E0,9.957477651E0
2.743607241E0,3.870000243E-1,4.392000198E0,8.944950104E0,9.972540655E0
2.745570322E0,4.260000288E-1,4.431000233E0,8.944950104E0,9.991364844E0
2.747533394E0,4.260000288E-1,4.392000198E0,8.907000542E0,9.940110684E0
2.749496158E0,4.260000288E-1,4.354050159E0,8.944950104E0,9.957477651E0
2.751459012E0,4.260000288E-1,4.392000198E0,8.907000542E0,9.940110684E0
2.753422081E0,4.260000288E-1,4.431000233E0,8.944950104E0,9.991364844E0
2.755385087E0,4.260000288E-1,4.392000198E0,8.907000542E0,9.940110684E0
2.757347862E0,4.260000288E-1,4.392000198E0,8.983950615E0,1.000912136E1
2.759310704E0,4.639500082E-1,4.392000198E0,8.869050026E0,9.907823359E0
2.761273951E0,4.639500082E-1,4.431000233E0,8.907000542E0,9.959099925E0
2.763237082E0,4.260000288E-1,4.392000198E0,8.907000542E0,9.940110684E0
2.765199970E0,4.260000288E-1,4.354050159E0,8.907000542E0,9.923401003E0
2.767162930E0,4.639500082E-1,4.392000198E0,8.983950615E0,1.001080836E1
2.769125711E0,4.639500082E-1,4.392000198E0,8.944950104E0,9.975823160E0
2.771088545E0,4.260000288E-1,4.431000233E0,8.944950104E0,9.991364844E0
2.773051473E0,4.639500082E-1,4.354050159E0,8.944950104E0,9.959173397E0
2.775014380E0,4.260000288E-1,4.431000233E0,8.983950615E0,1.002629581E1
2.776977621E0,4.639500082E-1,4.392000198E0,8.983950615E0,1.001080836E1
2.778940764E0,4.639500082E-1,4.354050159E0,8.944950104E0,9.959173397E0
2.780903695E0,4.639500082E-1,4.392000198E0,8.944950104E0,9.975823160E0
2.782866689E0,4.639500082E-1,4.354050159E0,8.944950104E0,9.959173397E0
2.784829969E0,3.870000243E-1,4.392000198E0,8.983950615E0,1.000753733E1
2.786793158E0,4.639500082E-1,4.392000198E0,8.907000542E0,9.941809393E0
2.788756576E0,4.639500082E-1,4.431000233E0,8.944950104E0,9.993054840E0
2.790719927E0,4.260000288E-1,4.392000198E0,8.907000542E0,9.940110684E0
2.792683138E0,4.260000288E-1,4.354050159E0,8.944950104E0,9.957477651E0
2.794646391E0,4.639500082E-1,4.392000198E0,8.907000542E0,9.941809393E0
2.796609767E0,4.260000288E-1,4.392000198E0,8.907000542E0,9.940110684E0
2.798573096E0,4.639500082E-1,4.392000198E0,8.944950104E0,9.975823160E0
2.800536311E0,4.260000288E-1,4.354050159E0,8.944950104E0,9.957477651E0
2.802499559E0,3.870000243E-1,4.392000198E0,8.944950104E0,9.972540655E0
2.804462787E0,3.490500152E-1,4.392000198E0,8.907000542E0,9.937110259E0
2.806426021E0,3.870000243E-1,4.392000198E0,8.907000542E0,9.938515654E0
2.808389125E0,4.260000288E-1,4.392000198E0,8.907000542E0,9.940110684E0
2.810352261E0,3.870000243E-1,4.392000198E0,8.983950615E0,1.000753733E1
2.812315507E0,4.260000288E-1,4.392000198E0,8.944950104E0,9.974130244E0
2.814278720E0,3.870000243E-1,4.431000233E0,8.944950104E0,9.989777998E0
2.816241594E0,3.870000243E-1,4.431000233E0,8.944950104E0,9.989777998E0
2.818204568E0,4.260000288E-1,4.431000233E0,8.907000542E0,9.957404167E0
2.820167672E0,3.870000243E-1,4.392000198E0,8.944950104E0,9.972540655E0
2.822130730E0,3.490500152E-1,4.431000233E0,8.944950104E0,9.988379815E0
2.824093810E0,4.260000288E-1,4.392000198E0,8.944950104E0,9.974130244E0
2.826056884E0,3.490500152E-1,4.392000198E0,8.907000542E0,9.937110259E0
2.828020142E0,3.870000243E-1,4.392000198E0,8.869050026E0,9.904518319E0
2.829983346E0,4.260000288E-1,4.392000198E0,8.869050026E0,9.906118823E0
2.831946551E0,4.260000288E-1,4.431000233E0,8.907000542E0,9.957404167E0
2.833909746E0,3.490500152E-1,4.431000233E0,8.907000542E0,9.954408954E0
2.835872623E0,3.490500152E-1,4.431000233E0,8.869050026E0,9.920466085E0
2.837835593E0,3.490500152E-1,4.392000198E0,8.869050026E0,9.903108099E0
2.839798553E0,3.870000243E-1,4.431000233E0,8.907000542E0,9.955811907E0
2.841761516E0,3.870000243E-1,4.392000198E0,8.944950104E0,9.972540655E0
2.843724756E0,3.870000243E-1,4.392000198E0,8.869050026E0,9.904518319E0
2.845687908E0,3.490500152E-1,4.392000198E0,8.907000542E0,9.937110259E0
2.847651018E0,4.260000288E-1,4.392000198E0,8.830050468E0,9.871217404E0
2.849614141E0,4.639500082E-1,4.431000233E0,8.830050468E0,9.890338920E0
2.851577389E0,4.639500082E-1,4.392000198E0,8.869050026E0,9.907823359E0
2.853540601E0,4.260000288E-1,4.392000198E0,8.944950104E0,9.974130244E0
2.855503835E0,4.260000288E-1,4.431000233E0,8.907000542E0,9.957404167E0
2.857467062E0,5.020500422E-1,4.431000233E0,8.907000542E0,9.960947543E0
2.859430474E0,4.639500082E-1,4.392000198E0,8.869050026E0,9.907823359E0
2.861393831E0,4.260000288E-1,4.392000198E0,8.869050026E0,9.906118823E0
2.863356816E0,3.870000243E-1,4.392000198E0,8.830050468E0,9.869611240E0
2.865319910E0,5.020500422E-1,4.392000198E0,8.944950104E0,9.977667681E0
2.867282654E0,4.260000288E-1,4.392000198E0,8.869050026E0,9.906118823E0
2.869245511E0,3.490500152E-1,4.431000233E0,8.830050468E0,9.885615320E0
2.871208580E0,4.260000288E-1,4.354050159E0,8.907000542E0,9.923401003E0
2.873171586E0,3.870000243E-1,4.392000198E0,8.830050468E0,9.869611240E0
2.875134496E0,4.260000288E-1,4.354050159E0,8.869050026E0,9.889351707E0
2.877097434E0,3.490500152E-1,4.354050159E0,8.907000542E0,9.920395524E0
2.879060510E0,3.870000243E-1,4.392000198E0,8.907000542E0,9.938515654E0
2.881023562E0,3.109500110E-1,4.392000198E0,8.907000542E0,9.935844921E0
2.882986509E0,3.490500152E-1,4.392000198E0,8.944950104E0,9.971140056E0
2.884949487E0,3.490500152E-1,4.354050159E0,8.907000542E0,9.920395524E0
2.886912580E0,3.490500152E-1,4.392000198E0,8.869050026E0,9.903108099E0
2.888875639E0,3.490500152E-1,4.431000233E0,8.869050026E0,9.920466085E0
2.890839084E0,3.490500152E-1,4.468950272E0,8.907000542E0,9.971359541E0
2.892802413E0,3.490500152E-1,4.431000233E0,8.944950104E0,9.988379815E0
2.894765448E0,3.490500152E-1,4.507050037E0,8.944950104E0,1.002234844E1
2.896728569E0,3.109500110E-1,4.431000233E0,8.907000542E0,9.953145815E0
2.898691772E0,3.109500110E-1,4.507050037E0,8.907000542E0,9.987234282E0
2.900654951E0,3.490500152E-1,4.468950272E0,8.869050026E0,9.937474569E0
2.902617910E0,3.490500152E-1,4.507050037E0,8.869050026E0,9.954666459E0
2.904580910E0,3.109500110E-1,4.468950272E0,8.869050026E0,9.936209277E0
2.906544360E0,3.490500152E-1,4.468950272E0,8.907000542E0,9.971359541E0
2.908507678E0,3.490500152E-1,4.468950272E0,8.944950104E0,1.000527285E1
2.910470895E0,3.109500110E-1,4.468950272E0,8.869050026E0,9.936209277E0
2.912434141E0,3.870000243E-1,4.468950272E0,8.830050468E0,9.904093943E0
2.914397124E0,3.109500110E-1,4.507050037E0,8.869050026E0,9.953403353E0
2.916360198E0,3.870000243E-1,4.468950272E0,8.830050468E0,9.904093943E0
2.918323274E0,3.490500152E-1,4.468950272E0,8.830050468E0,9.902683662E0
2.920286350E0,3.490500152E-1,4.431000233E0,8.869050026E0,9.920466085E0
2.922249293E0,4.260000288E-1,4.431000233E0,8.830050468E0,9.888631370E0
2.924212275E0,3.870000243E-1,4.468950272E0,8.907000542E0,9.972760109E0
2.926175334E0,3.870000243E-1,4.392000198E0,8.830050468E0,9.869611240E0
2.928138394E0,3.870000243E-1,4.392000198E0,8.907000542E0,9.938515654E0
2.930101789E0,4.260000288E-1,4.392000198E0,8.830050468E0,9.871217404E0
2.932065086E0,4.260000288E-1,4.392000198E0,8.830050468E0,9.871217404E0
2.934027946E0,4.260000288E-1,4.392000198E0,8.907000542E0,9.940110684E0
2.935990934E0,4.260000288E-1,4.354050159E0,8.869050026E0,9.889351707E0
2.937953836E0,4.260000288E-1,4.392000198E0,8.869050026E0,9.906118823E0
2.939916771E0,4.260000288E-1,4.354050159E0,8.869050026E0,9.889351707E0
2.941879871E0,4.260000288E-1,4.354050159E0,8.869050026E0,9.889351707E0
2.943842922E0,4.260000288E-1,4.392000198E0,8.869050026E0,9.906118823E0
2.945805509E0,4.260000288E-1,4.392000198E0,8.907000542E0,9.940110684E0
2.947768232E0,4.639500082E-1,4.392000198E0,8.907000542E0,9.941809393E0
2.949731188E0,4.639500082E-1,4.392000198E0,8.907000542E0,9.941809393E0
2.951694076E0,4.260000288E-1,4.354050159E0,8.944950104E0,9.957477651E0
2.953657140E0,4.639500082E-1,4.392000198E0,8.944950104E0,9.975823160E0
2.955620153E0,4.639500082E-1,4.392000198E0,8.907000542E0,9.941809393E0
2.957583062E0,4.639500082E-1,4.392000198E0,8.944950104E0,9.975823160E0
2.959546001E0,4.260000288E-1,4.431000233E0,8.944950104E0,9.991364844E0
2.961508932E0,3.870000243E-1,4.392000198E0,8.983950615E0,1.000753733E1
2.963471858E0,4.260000288E-1,4.392000198E0,8.983950615E0,1.000912136E1
2.965434465E0,4.260000288E-1,4.392000198E0,8.944950104E0,9.974130244E0
2.967397166E0,3.870000243E-1,4.431000233E0,8.907000542E0,9.955811907E0
2.969359767E0,4.260000288E-1,4.431000233E0,8.944950104E0,9.991364844E0
2.971322397E0,3.870000243E-1,4.392000198E0,8.907000542E0,9.938515654E0
2.973285349E0,3.870000243E-1,4.431000233E0,8.907000542E0,9.955811907E0
2.975248221E0,4.260000288E-1,4.431000233E0,8.944950104E0,9.991364844E0
2.977211333E0,3.870000243E-1,4.431000233E0,8.944950104E0,9.989777998E0
2.979174375E0,3.109500110E-1,4.431000233E0,8.983950615E0,1.002206673E1
2.981137593E0,3.870000243E-1,4.431000233E0,8.944950104E0,9.989777998E0
2.983100760E0,3.870000243E-1,4.431000233E0,8.944950104E0,9.989777998E0
2.985063827E0,3.870000243E-1,4.431000233E0,8.983950615E0,1.002471450E1
2.987026920E0,3.109500110E-1,4.431000233E0,8.983950615E0,1.002206673E1
2.988989859E0,3.870000243E-1,4.392000198E0,9.022050858E0,1.004175465E1
2.990952844E0,3.870000243E-1,4.431000233E0,8.944950104E0,9.989777998E0
2.992915711E0,4.260000288E-1,4.392000198E0,8.983950615E0,1.000912136E1
2.994878613E0,3.870000243E-1,4.431000233E0,9.022050858E0,1.005887338E1
2.996841589E0,3.870000243E-1,4.468950272E0,9.022050858E0,1.007564823E1
2.998804539E0,4.260000288E-1,4.431000233E0,9.022050858E0,1.006044933E1
3.000767413E0,3.870000243E-1,4.431000233E0,9.098999977E0,1.012794810E1
3.002730310E0,4.260000288E-1,4.431000233E0,9.022050858E0,1.006044933E1
3.004693236E0,4.260000288E-1,4.431000233E0,9.060000420E0,1.009449586E1
3.006656154E0,4.260000288E-1,4.392000198E0,9.098999977E0,1.011251415E1
3.008619303E0,3.870000243E-1,4.392000198E0,9.098999977E0,1.011094631E1
3.010582385E0,3.870000243E-1,4.392000198E0,9.098999977E0,1.011094631E1
3.012545102E0,4.639500082E-1,4.392000198E0,9.060000420E0,1.007911320E1
3.014507926E0,4.639500082E-1,4.392000198E0,9.060000420E0,1.007911320E1
3.016470820E0,4.639500082E-1,4.354050159E0,9.098999977E0,1.009776228E1
3.018433693E0,4.639500082E-1,4.354050159E0,9.022050858E0,1.002847965E1
3.020396295E0,4.260000288E-1,4.354050159E0,9.022050858E0,1.002679562E1
3.022358987E0,4.260000288E-1,4.354050159E0,9.060000420E0,1.006095604E1
3.024321949E0,4.260000288E-1,4.354050159E0,9.060000420E0,1.006095604E1
3.026284832E0,4.639500082E-1,4.354050159E0,9.098999977E0,1.009776228E1
3.028247897E0,4.260000288E-1,4.354050159E0,9.022050858E0,1.002679562E1
3.030210909E0,4.639500082E-1,4.392000198E0,8.983950615E0,1.001080836E1
3.032173789E0,4.260000288E-1,4.392000198E0,9.022050858E0,1.004333328E1
3.034136728E0,3.870000243E-1,4.354050159E0,9.060000420E0,1.005938017E1
3.036099692E0,4.260000288E-1,4.392000198E0,8.983950615E0,1.000912136E1
3.038062649E0,4.639500082E-1,4.315950394E0,9.022050858E0,1.001199676E1
3.040025567E0,4.260000288E-1,4.354050159E0,9.022050858E0,1.002679562E1
3.041988497E0,4.260000288E-1,4.354050159E0,9.022050858E0,1.002679562E1
3.043951434E0,3.870000243E-1,4.354050159E0,8.983950615E0,9.990940419E0
3.045914358E0,4.260000288E-1,4.354050159E0,8.983950615E0,9.992527081E0
3.047876920E0,4.639500082E-1,4.354050159E0,8.944950104E0,9.959173397E0
3.049839589E0,4.260000288E-1,4.392000198E0,8.944950104E0,9.974130244E0
3.051802374E0,4.260000288E-1,4.392000198E0,8.944950104E0,9.974130244E0
3.053765125E0,3.870000243E-1,4.354050159E0,8.944950104E0,9.955885404E0
3.055727912E0,4.260000288E-1,4.431000233E0,8.944950104E0,9.991364844E0
3.057690678E0,4.260000288E-1,4.392000198E0,8.944950104E0,9.974130244E0
3.059653583E0,4.260000288E-1,4.392000198E0,8.907000542E0,9.940110684E0
3.061616447E0,3.870000243E-1,4.392000198E0,8.869050026E0,9.904518319E0
3.063579201E0,4.260000288E-1,4.392000198E0,8.907000542E0,9.940110684E0
3.065541988E0,3.870000243E-1,4.392000198E0,8.869050026E0,9.904518319E0
3.067505026E0,3.870000243E-1,4.392000198E0,8.907000542E0,9.938515654E0
3.069467957E0,3.870000243E-1,4.392000198E0,8.830050468E0,9.869611240E0
3.071431059E0,3.490500152E-1,4.431000233E0,8.869050026E0,9.920466085E0
3.073394111E0,3.870000243E-1,4.392000198E0,8.869050026E0,9.904518319E0
3.075357148E0,4.260000288E-1,4.392000198E0,8.830050468E0,9.871217404E0
3.077320189E0,3.870000243E-1,4.431000233E0,8.869050026E0,9.921873837E0
3.079283068E0,4.260000288E-1,4.392000198E0,8.830050468E0,9.871217404E0
3.081246012E0,4.260000288E-1,4.392000198E0,8.830050468E0,9.871217404E0
3.083209155E0,3.870000243E-1,4.392000198E0,8.830050468E0,9.869611240E0
3.085172240E0,4.260000288E-1,4.392000198E0,8.869050026E0,9.906118823E0
3.087135496E0,3.870000243E-1,4.392000198E0,8.830050468E0,9.869611240E0
3.089098702E0,4.639500082E-1,4.431000233E0,8.869050026E0,9.925173098E0
3.091061893E0,3.870000243E-1,4.431000233E0,8.830050468E0,9.887028035E0
3.093025089E0,4.260000288E-1,4.431000233E0,8.830050468E0,9.888631370E0
3.094988145E0,4.639500082E-1,4.354050159E0,8.869050026E0,9.891059133E0
3.096951242E0,4.260000288E-1,4.431000233E0,8.830050468E0,9.888631370E0
3.098914540E0,3.870000243E-1,4.392000198E0,8.869050026E0,9.904518319E0
3.100877779E0,4.260000288E-1,4.392000198E0,8.869050026E0,9.906118823E0
3.102841208E0,3.870000243E-1,4.392000198E0,8.907000542E0,9.938515654E0
3.104804567E0,4.260000288E-1,4.392000198E0,8.907000542E0,9.940110684E0
3.106767597E0,4.260000288E-1,4.392000198E0,8.869050026E0,9.906118823E0
3.108730723E0,4.260000288E-1,4.392000198E0,8.944950104E0,9.974130244E0
3.110694151E0,3.870000243E-1,4.431000233E0,8.907000542E0,9.955811907E0
3.112657490E0,3.870000243E-1,4.431000233E0,8.944950104E0,9.989777998E0
3.114620738E0,4.260000288E-1,4.468950272E0,8.907000542E0,9.974349663E0
3.116583988E0,3.870000243E-1,4.392000198E0,8.907000542E0,9.938515654E0
3.118547035E0,3.490500152E-1,4.431000233E0,8.869050026E0,9.920466085E0
3.120510142E0,4.260000288E-1,4.431000233E0,8.907000542E0,9.957404167E0
3.122473213E0,3.870000243E-1,4.431000233E0,8.907000542E0,9.955811907E0
3.124436295E0,4.639500082E-1,4.431000233E0,8.983950615E0,1.002797992E1
3.126399366E0,3.870000243E-1,4.392000198E0,8.907000542E0,9.938515654E0
3.128362444E0,3.490500152E-1,4.431000233E0,8.869050026E0,9.920466085E0
3.130325521E0,3.490500152E-1,4.431000233E0,8.907000542E0,9.954408954E0
3.132288598E0,3.490500152E-1,4.468950272E0,8.907000542E0,9.971359541E0
3.134251809E0,3.490500152E-1,4.468950272E0,8.944950104E0,1.000527285E1
3.136214981E0,3.490500152E-1,4.431000233E0,8.907000542E0,9.954408954E0
3.138178236E0,3.870000243E-1,4.431000233E0,8.869050026E0,9.921873837E0
3.140141456E0,3.490500152E-1,4.468950272E0,8.830050468E0,9.902683662E0
3.142104734E0,3.490500152E-1,4.468950272E0,8.869050026E0,9.937474569E0
3.144067995E0,3.490500152E-1,4.468950272E0,8.907000542E0,9.971359541E0
3.146031221E0,3.490500152E-1,4.468950272E0,8.907000542E0,9.971359541E0
3.147994458E0,3.870000243E-1,4.468950272E0,8.869050026E0,9.938879912E0
3.149957659E0,3.490500152E-1,4.431000233E0,8.907000542E0,9.954408954E0
3.151920891E0,3.109500110E-1,4.431000233E0,8.907000542E0,9.953145815E0
3.153883896E0,3.870000243E-1,4.431000233E0,8.869050026E0,9.921873837E0
3.155846968E0,3.490500152E-1,4.392000198E0,8.907000542E0,9.937110259E0
3.157810090E0,3.490500152E-1,4.431000233E0,8.907000542E0,9.954408954E0
3.159773197E0,3.490500152E-1,4.431000233E0,8.869050026E0,9.920466085E0
3.161736418E0,3.490500152E-1,4.392000198E0,8.907000542E0,9.937110259E0
3.163699595E0,3.870000243E-1,4.468950272E0,8.907000542E0,9.972760109E0
3.165662521E0,3.490500152E-1,4.392000198E0,8.944950104E0,9.971140056E0
3.167625520E0,3.490500152E-1,4.431000233E0,8.944950104E0,9.988379815E0
3.169588609E0,3.870000243E-1,4.431000233E0,8.944950104E0,9.989777998E0
3.171551672E0,3.870000243E-1,4.468950272E0,8.869050026E0,9.938879912E0
3.173514702E0,3.870000243E-1,4.392000198E0,8.907000542E0,9.938515654E0
3.175477746E0,3.490500152E-1,4.431000233E0,8.944950104E0,9.988379815E0
3.177441008E0,3.490500152E-1,4.468950272E0,8.907000542E0,9.971359541E0
3.179404206E0,3.490500152E-1,4.431000233E0,8.907000542E0,9.954408954E0
3.181367128E0,3.870000243E-1,4.392000198E0,8.944950104E0,9.972540655E0
3.183330131E0,3.490500152E-1,4.431000233E0,8.907000542E0,9.954408954E0
3.185293040E0,3.109500110E-1,4.392000198E0,8.907000542E0,9.935844921E0
3.187255977E0,3.490500152E-1,4.392000198E0,8.944950104E0,9.971140056E0
3.189219257E0,3.870000243E-1,4.431000233E0,8.944950104E0,9.989777998E0
3.191182436E0,4.260000288E-1,4.392000198E0,8.907000542E0,9.940110684E0
3.193145497E0,3.870000243E-1,4.468950272E0,8.944950104E0,1.000666867E1
3.195108592E0,3.490500152E-1,4.431000233E0,8.944950104E0,9.988379815E0
3.197071657E0,3.870000243E-1,4.392000198E0,8.907000542E0,9.938515654E0
3.199034737E0,4.260000288E-1,4.431000233E0,8.944950104E0,9.991364844E0
3.200997948E0,3.490500152E-1,4.431000233E0,8.907000542E0,9.954408954E0
3.202961120E0,4.260000288E-1,4.392000198E0,8.907000542E0,9.940110684E0
3.204924227E0,4.260000288E-1,4.354050159E0,8.944950104E0,9.957477651E0
3.206887353E0,3.870000243E-1,4.431000233E0,8.983950615E0,1.002471450E1
3.208850265E0,3.870000243E-1,4.392000198E0,8.944950104E0,9.972540655E0
3.210813223E0,3.870000243E-1,4.392000198E0,8.944950104E0,9.972540655E0
3.212776499E0,4.260000288E-1,4.392000198E0,8.907000542E0,9.940110684E0
3.214739682E0,3.870000243E-1,4.392000198E0,8.907000542E0,9.938515654E0
3.216703057E0,4.260000288E-1,4.392000198E0,8.944950104E0,9.974130244E0
3.218666375E0,4.260000288E-1,4.392000198E0,8.907000542E0,9.940110684E0
3.220629785E0,3.870000243E-1,4.392000198E0,8.907000542E0,9.938515654E0
3.222593158E0,3.870000243E-1,4.392000198E0,8.944950104E0,9.972540655E0
3.224556185E0,4.260000288E-1,4.392000198E0,8.944950104E0,9.974130244E0
3.226519314E0,4.260000288E-1,4.392000198E0,8.907000542E0,9.940110684E0
3.228482606E0,5.020500422E-1,4.354050159E0,8.944950104E0,9.961021002E0
3.230445850E0,4.260000288E-1,4.431000233E0,8.944950104E0,9.991364844E0
3.232409230E0,4.260000288E-1,4.354050159E0,8.944950104E0,9.957477651E0
3.234372590E0,4.260000288E-1,4.392000198E0,8.907000542E0,9.940110684E0
3.236335979E0,4.260000288E-1,4.392000198E0,8.907000542E0,9.940110684E0
3.238299360E0,4.260000288E-1,4.392000198E0,8.869050026E0,9.906118823E0
3.240262881E0,4.639500082E-1,4.431000233E0,8.907000542E0,9.959099925E0
3.242226360E0,3.870000243E-1,4.392000198E0,8.907000542E0,9.938515654E0
3.244189589E0,4.639500082E-1,4.392000198E0,8.944950104E0,9.975823160E0
3.246152895E0,4.639500082E-1,4.431000233E0,8.869050026E0,9.925173098E0
3.248116247E0,4.260000288E-1,4.392000198E0,8.907000542E0,9.940110684E0
3.250079585E0,4.639500082E-1,4.392000198E0,8.869050026E0,9.907823359E0
3.252042844E0,3.870000243E-1,4.392000198E0,8.869050026E0,9.904518319E0
3.254006126E0,4.260000288E-1,4.431000233E0,8.907000542E0,9.957404167E0
3.255969329E0,4.260000288E-1,4.392000198E0,8.907000542E0,9.940110684E0
3.257932569E0,4.639500082E-1,4.392000198E0,8.983950615E0,1.001080836E1
3.259896113E0,4.639500082E-1,4.431000233E0,8.944950104E0,9.993054840E0
3.261859567E0,5.020500422E-1,4.392000198E0,8.944950104E0,9.977667681E0
3.263822805E0,4.260000288E-1,4.392000198E0,8.944950104E0,9.974130244E0
3.265786107E0,4.260000288E-1,4.392000198E0,8.907000542E0,9.940110684E0
3.267749473E0,4.639500082E-1,4.431000233E0,8.907000542E0,9.959099925E0
3.269712811E0,4.639500082E-1,4.431000233E0,8.907000542E0,9.959099925E0
3.271676070E0,4.260000288E-1,4.431000233E0,8.907000542E0,9.957404167E0
3.273639352E0,4.260000288E-1,4.431000233E0,8.907000542E0,9.957404167E0
3.275602708E0,4.639500082E-1,4.431000233E0,8.983950615E0,1.002797992E1
3.277566042E0,4.260000288E-1,4.392000198E0,8.907000542E0,9.940110684E0
3.279529242E0,3.870000243E-1,4.431000233E0,8.983950615E0,1.002471450E1
3.281492492E0,3.870000243E-1,4.431000233E0,8.944950104E0,9.989777998E0
3.283455719E0,3.870000243E-1,4.392000198E0,8.944950104E0,9.972540655E0
3.285418953E0,3.870000243E-1,4.431000233E0,8.944950104E0,9.989777998E0
3.287382183E0,4.260000288E-1,4.392000198E0,8.983950615E0,1.000912136E1
3.289345415E0,4.260000288E-1,4.392000198E0,8.983950615E0,1.000912136E1
3.291308261E0,3.870000243E-1,4.431000233E0,9.022050858E0,1.005887338E1
3.293271237E0,3.490500152E-1,4.431000233E0,9.022050858E0,1.005748481E1
3.295234330E0,3.870000243E-1,4.431000233E0,9.060000420E0,1.009292523E1
3.297197389E0,3.870000243E-1,4.392000198E0,9.022050858E0,1.004175465E1
3.299160829E0,3.490500152E-1,4.392000198E0,9.022050858E0,1.004036371E1
3.301124158E0,3.490500152E-1,4.392000198E0,9.060000420E0,1.007447811E1
3.303087552E0,3.870000243E-1,4.431000233E0,9.022050858E0,1.005887338E1
3.305050927E0,3.109500110E-1,4.431000233E0,9.060000420E0,1.009029537E1
3.307014358E0,3.870000243E-1,4.431000233E0,8.983950615E0,1.002471450E1
3.308977773E0,3.490500152E-1,4.468950272E0,9.022050858E0,1.007426196E1
3.310941513E0,3.109500110E-1,4.468950272E0,9.022050858E0,1.007301385E1
3.312905158E0,3.490500152E-1,4.431000233E0,9.060000420E0,1.009154134E1
3.314868537E0,3.490500152E-1,4.431000233E0,8.983950615E0,1.002332119E1
3.316831967E0,3.490500152E-1,4.431000233E0,9.022050858E0,1.005748481E1
3.318795523E0,3.490500152E-1,4.431000233E0,9.022050858E0,1.005748481E1
3.320759042E0,3.109500110E-1,4.431000233E0,9.022050858E0,1.005623462E1
3.322722584E0,3.109500110E-1,4.431000233E0,9.060000420E0,1.009029537E1
3.324686119E0,3.490500152E-1,4.468950272E0,9.060000420E0,1.010826197E1
3.326649415E0,3.870000243E-1,4.431000233E0,9.060000420E0,1.009292523E1
3.328612794E0,3.490500152E-1,4.431000233E0,9.060000420E0,1.009154134E1
