"Time (s)","Acceleration x (m/s^2)","Acceleration y (m/s^2)","Acceleration z (m/s^2)","Absolute acceleration (m/s^2)"
3.257561300E-2,4.639500082E-1,3.931950092E0,9.022050858E0,9.852557171E0
3.453754800E-2,5.020500422E-1,3.970950127E0,9.022050858E0,9.870050700E0
3.650207500E-2,4.639500082E-1,3.931950092E0,9.022050858E0,9.852557171E0
3.846512800E-2,5.410500169E-1,3.931950092E0,9.060000420E0,9.891237246E0
4.042861300E-2,5.020500422E-1,3.970950127E0,8.944950104E0,9.799624050E0
4.239280700E-2,5.020500422E-1,3.931950092E0,9.022050858E0,9.854424765E0
4.435681300E-2,5.790000558E-1,3.931950092E0,8.983950615E0,9.823789556E0
4.631923600E-2,5.790000558E-1,3.894000292E0,9.022050858E0,9.843570542E0
4.828212300E-2,5.020500422E-1,3.970950127E0,9.022050858E0,9.870050700E0
5.024559200E-2,5.410500169E-1,3.931950092E0,8.983950615E0,9.821625899E0
5.220889000E-2,5.410500169E-1,3.970950127E0,9.022050858E0,9.872111309E0
5.417240100E-2,5.790000558E-1,3.931950092E0,8.983950615E0,9.823789556E0
5.613586600E-2,5.410500169E-1,4.009050369E0,9.022050858E0,9.887498251E0
5.809905700E-2,5.020500422E-1,3.931950092E0,9.022050858E0,9.854424765E0
6.006232900E-2,5.020500422E-1,3.970950127E0,9.098999977E0,9.940437603E0
6.202573200E-2,5.790000558E-1,3.970950127E0,9.098999977E0,9.944620986E0
6.398909700E-2,5.020500422E-1,3.970950127E0,9.022050858E0,9.870050700E0
6.595302600E-2,5.410500169E-1,3.970950127E0,9.060000420E0,9.906805117E0
6.791678900E-2,5.790000558E-1,3.970950127E0,9.060000420E0,9.908950175E0
6.987925400E-2,5.410500169E-1,3.931950092E0,9.022050858E0,9.856488641E0
7.184209900E-2,5.020500422E-1,3.970950127E0,9.022050858E0,9.870050700E0
7.380539500E-2,5.020500422E-1,3.970950127E0,9.060000420E0,9.904751726E0
7.576855800E-2,5.410500169E-1,3.970950127E0,9.060000420E0,9.906805117E0
7.773190600E-2,5.020500422E-1,3.970950127E0,9.098999977E0,9.940437603E0
7.969522100E-2,4.639500082E-1,3.970950127E0,9.060000420E0,9.902893624E0
8.165794300E-2,5.410500169E-1,3.970950127E0,9.060000420E0,9.906805117E0
8.362083900E-2,5.020500422E-1,3.931950092E0,9.098999977E0,9.924922486E0
8.558390100E-2,5.020500422E-1,3.931950092E0,9.098999977E0,9.924922486E0
8.754691400E-2,5.410500169E-1,3.894000292E0,9.136950493E0,9.946850642E0
8.951019800E-2,5.020500422E-1,3.931950092E0,9.136950493E0,9.959726406E0
9.147342300E-2,5.020500422E-1,3.931950092E0,9.098999977E0,9.924922486E0
9.343647600E-2,5.020500422E-1,3.931950092E0,9.214050293E0,1.003050390E1
9.539957900E-2,4.639500082E-1,3.894000292E0,9.175050735E0,9.977977946E0
9.736283100E-2,5.020500422E-1,3.894000292E0,9.136950493E0,9.944805520E0
9.932603900E-2,5.020500422E-1,3.894000292E0,9.252000809E0,1.005061249E1
1.012895740E-1,4.639500082E-1,3.894000292E0,9.252000809E0,1.004878136E1
1.032530240E-1,4.639500082E-1,3.894000292E0,9.252000809E0,1.004878136E1
1.052162630E-1,5.410500169E-1,3.931950092E0,9.214050293E0,1.003253156E1
1.071795640E-1,5.020500422E-1,3.894000292E0,9.214050293E0,1.001568846E1
1.091429620E-1,4.639500082E-1,3.931950092E0,9.252000809E0,1.006354809E1
1.111063310E-1,5.020500422E-1,3.856050253E0,9.214050293E0,1.000099498E1
1.130694460E-1,5.410500169E-1,3.894000292E0,9.289950371E0,1.008757410E1
1.150326700E-1,5.410500169E-1,3.931950092E0,9.328050613E0,1.013733174E1
1.169959010E-1,5.020500422E-1,3.931950092E0,9.328050613E0,1.013532506E1
1.189591300E-1,5.020500422E-1,3.894000292E0,9.289950371E0,1.008555752E1
1.209222270E-1,5.410500169E-1,3.856050253E0,9.328050613E0,1.010813469E1
1.228853620E-1,4.639500082E-1,3.856050253E0,9.252000809E0,1.003413634E1
1.248482390E-1,5.020500422E-1,3.856050253E0,9.214050293E0,1.000099498E1
1.268111980E-1,5.020500422E-1,3.856050253E0,9.252000809E0,1.003597015E1
1.287742490E-1,5.410500169E-1,3.856050253E0,9.289950371E0,1.007298548E1
1.307372730E-1,5.410500169E-1,3.817050219E0,9.289950371E0,1.005812037E1
1.327003590E-1,5.020500422E-1,3.856050253E0,9.252000809E0,1.003597015E1
1.346634270E-1,5.020500422E-1,3.817050219E0,9.252000809E0,1.002105012E1
1.366263810E-1,5.020500422E-1,3.894000292E0,9.252000809E0,1.005061249E1
1.385893620E-1,5.020500422E-1,3.856050253E0,9.289950371E0,1.007096598E1
1.405524090E-1,5.020500422E-1,3.856050253E0,9.252000809E0,1.003597015E1
1.425154370E-1,5.020500422E-1,3.894000292E0,9.289950371E0,1.008555752E1
1.444785680E-1,5.410500169E-1,3.894000292E0,9.175050735E0,9.981860017E0
1.464416680E-1,5.020500422E-1,3.856050253E0,9.214050293E0,1.000099498E1
1.484048930E-1,5.410500169E-1,3.856050253E0,9.175050735E0,9.967116668E0
1.503681010E-1,5.020500422E-1,3.894000292E0,9.214050293E0,1.001568846E1
1.523313350E-1,5.020500422E-1,3.856050253E0,9.252000809E0,1.003597015E1
1.542945620E-1,4.639500082E-1,3.894000292E0,9.252000809E0,1.004878136E1
1.562577500E-1,5.020500422E-1,3.894000292E0,9.214050293E0,1.001568846E1
1.582209490E-1,4.639500082E-1,3.856050253E0,9.175050735E0,9.963228852E0
1.601840400E-1,4.639500082E-1,3.856050253E0,9.136950493E0,9.928153780E0
1.621471700E-1,4.639500082E-1,3.931950092E0,9.136950493E0,9.957878562E0
1.641105520E-1,4.639500082E-1,3.894000292E0,9.175050735E0,9.977977946E0
1.660738600E-1,4.639500082E-1,3.894000292E0,9.175050735E0,9.977977946E0
1.680371230E-1,4.639500082E-1,3.970950127E0,9.136950493E0,9.973342410E0
1.700004000E-1,4.639500082E-1,3.931950092E0,9.136950493E0,9.957878562E0
1.719636000E-1,4.260000288E-1,3.931950092E0,9.175050735E0,9.991159270E0
1.739268390E-1,4.639500082E-1,3.931950092E0,9.175050735E0,9.992849300E0
1.758898430E-1,4.639500082E-1,3.931950092E0,9.136950493E0,9.957878562E0
1.778529160E-1,5.020500422E-1,3.970950127E0,9.098999977E0,9.940437603E0
1.798159930E-1,5.020500422E-1,3.894000292E0,9.175050735E0,9.979822068E0
1.817790680E-1,4.639500082E-1,3.931950092E0,9.136950493E0,9.957878562E0
1.837422910E-1,4.639500082E-1,3.970950127E0,9.098999977E0,9.938586172E0
1.857054950E-1,5.020500422E-1,3.931950092E0,9.136950493E0,9.959726406E0
1.876687760E-1,5.020500422E-1,3.894000292E0,9.175050735E0,9.979822068E0
1.896320340E-1,4.639500082E-1,3.931950092E0,9.136950493E0,9.957878562E0
1.915952160E-1,4.639500082E-1,3.894000292E0,9.136950493E0,9.942954902E0
1.935584200E-1,4.639500082E-1,3.931950092E0,9.175050735E0,9.992849300E0
1.955214370E-1,4.260000288E-1,3.931950092E0,9.136950493E0,9.956182595E0
1.974845360E-1,4.639500082E-1,3.931950092E0,9.175050735E0,9.992849300E0
1.994478340E-1,4.639500082E-1,3.970950127E0,9.175050735E0,1.000825912E1
2.014110730E-1,4.260000288E-1,3.970950127E0,9.175050735E0,1.000657169E1
2.033742580E-1,4.639500082E-1,3.970950127E0,9.175050735E0,1.000825912E1
2.053374590E-1,4.260000288E-1,3.931950092E0,9.136950493E0,9.956182595E0
2.073004720E-1,5.020500422E-1,3.970950127E0,9.136950493E0,9.975187390E0
2.092635700E-1,4.260000288E-1,4.009050369E0,9.136950493E0,9.986882657E0
2.112266870E-1,4.639500082E-1,3.970950127E0,9.136950493E0,9.973342410E0
2.131897990E-1,4.260000288E-1,4.009050369E0,9.136950493E0,9.986882657E0
2.151528710E-1,4.260000288E-1,4.009050369E0,9.175050735E0,1.002175219E1
2.171159550E-1,3.870000243E-1,4.009050369E0,9.175050735E0,1.002017015E1
2.190793690E-1,3.870000243E-1,4.009050369E0,9.252000809E0,1.009067752E1
2.210427010E-1,3.870000243E-1,3.970950127E0,9.136950493E0,9.970059089E0
2.230060490E-1,3.870000243E-1,4.009050369E0,9.214050293E0,1.005589263E1
2.249693930E-1,3.870000243E-1,4.009050369E0,9.214050293E0,1.005589263E1
2.269328300E-1,3.870000243E-1,4.009050369E0,9.175050735E0,1.002017015E1
2.288962390E-1,3.870000243E-1,4.047000408E0,9.214050293E0,1.007108257E1
2.308593860E-1,3.870000243E-1,4.047000408E0,9.214050293E0,1.007108257E1
2.328226170E-1,3.870000243E-1,4.009050369E0,9.175050735E0,1.002017015E1
2.347858480E-1,3.870000243E-1,4.009050369E0,9.175050735E0,1.002017015E1
2.367490790E-1,3.490500152E-1,4.009050369E0,9.214050293E0,1.005450365E1
2.387124890E-1,3.870000243E-1,4.047000408E0,9.136950493E0,1.000059226E1
2.406758460E-1,3.870000243E-1,4.009050369E0,9.175050735E0,1.002017015E1
2.426392200E-1,3.490500152E-1,4.009050369E0,9.175050735E0,1.001877621E1
2.446026000E-1,4.260000288E-1,4.009050369E0,9.175050735E0,1.002175219E1
2.465660300E-1,3.870000243E-1,4.009050369E0,9.175050735E0,1.002017015E1
2.485294460E-1,3.870000243E-1,4.047000408E0,9.098999977E0,9.965931061E0
2.504931410E-1,3.870000243E-1,4.009050369E0,9.214050293E0,1.005589263E1
2.524567540E-1,4.260000288E-1,4.009050369E0,9.098999977E0,9.952173706E0
2.544200860E-1,3.870000243E-1,4.047000408E0,9.098999977E0,9.965931061E0
2.563835110E-1,3.109500110E-1,4.009050369E0,9.136950493E0,9.982636880E0
2.583465730E-1,4.260000288E-1,3.970950127E0,9.098999977E0,9.936886913E0
2.603097420E-1,3.870000243E-1,4.009050369E0,9.136950493E0,9.985295098E0
2.622727580E-1,4.260000288E-1,4.047000408E0,9.060000420E0,9.931933142E0
2.642358190E-1,3.490500152E-1,4.047000408E0,9.136950493E0,9.999195594E0
2.661990920E-1,3.490500152E-1,4.009050369E0,9.136950493E0,9.983896288E0
2.681622930E-1,3.870000243E-1,4.047000408E0,9.098999977E0,9.965931061E0
2.701255290E-1,3.870000243E-1,3.970950127E0,9.098999977E0,9.935291365E0
2.720887540E-1,3.870000243E-1,3.970950127E0,9.060000420E0,9.899586937E0
2.740518070E-1,4.260000288E-1,4.009050369E0,9.098999977E0,9.952173706E0
2.760149100E-1,4.639500082E-1,4.009050369E0,9.136950493E0,9.988573411E0
2.779783820E-1,4.260000288E-1,3.970950127E0,9.098999977E0,9.936886913E0
2.799417490E-1,4.260000288E-1,3.970950127E0,9.136950493E0,9.971649073E0
2.819049130E-1,4.260000288E-1,3.970950127E0,9.136950493E0,9.971649073E0
2.838681360E-1,4.260000288E-1,3.931950092E0,9.175050735E0,9.991159270E0
2.858317280E-1,4.260000288E-1,3.931950092E0,9.098999977E0,9.921366243E0
2.877952110E-1,4.639500082E-1,3.931950092E0,9.214050293E0,1.002866910E1
2.897585950E-1,4.639500082E-1,3.931950092E0,9.175050735E0,9.992849300E0
2.917219970E-1,4.639500082E-1,3.931950092E0,9.175050735E0,9.992849300E0
2.936853780E-1,5.410500169E-1,3.894000292E0,9.136950493E0,9.946850642E0
2.956487660E-1,4.639500082E-1,3.856050253E0,9.136950493E0,9.928153780E0
2.976121500E-1,5.020500422E-1,3.931950092E0,9.136950493E0,9.959726406E0
2.995755350E-1,5.020500422E-1,3.931950092E0,9.136950493E0,9.959726406E0
3.015389400E-1,4.260000288E-1,3.894000292E0,9.098999977E0,9.906387580E0
3.035023560E-1,5.020500422E-1,3.894000292E0,9.098999977E0,9.909949198E0
3.054658700E-1,4.639500082E-1,3.856050253E0,9.098999977E0,9.893238790E0
3.074293560E-1,4.639500082E-1,3.856050253E0,9.136950493E0,9.928153780E0
3.093927690E-1,5.020500422E-1,3.856050253E0,9.060000420E0,9.859248724E0
3.113562040E-1,4.639500082E-1,3.856050253E0,9.136950493E0,9.928153780E0
3.133193790E-1,4.639500082E-1,3.894000292E0,9.098999977E0,9.908092070E0
3.152826450E-1,5.020500422E-1,3.894000292E0,9.175050735E0,9.979822068E0
3.172460040E-1,4.639500082E-1,3.931950092E0,9.136950493E0,9.957878562E0
3.192093360E-1,5.020500422E-1,3.931950092E0,9.136950493E0,9.959726406E0
3.211722350E-1,5.410500169E-1,3.931950092E0,9.098999977E0,9.926971705E0
3.231352610E-1,5.020500422E-1,3.970950127E0,9.098999977E0,9.940437603E0
3.250985220E-1,4.639500082E-1,3.894000292E0,9.136950493E0,9.942954902E0
3.270617160E-1,5.410500169E-1,3.931950092E0,9.175050735E0,9.996725596E0
3.290249090E-1,4.260000288E-1,3.894000292E0,9.136950493E0,9.941256390E0
3.309881030E-1,5.410500169E-1,3.894000292E0,9.098999977E0,9.912001512E0
3.329517000E-1,5.020500422E-1,3.931950092E0,9.136950493E0,9.959726406E0
3.349151780E-1,5.790000558E-1,3.894000292E0,9.098999977E0,9.914145446E0
3.368775350E-1,5.410500169E-1,3.931950092E0,9.098999977E0,9.926971705E0
3.388402040E-1,5.020500422E-1,3.894000292E0,9.098999977E0,9.909949198E0
3.408035300E-1,5.790000558E-1,3.894000292E0,9.098999977E0,9.914145446E0
3.427666630E-1,5.020500422E-1,3.894000292E0,9.060000420E0,9.874153134E0
3.447300460E-1,5.020500422E-1,3.931950092E0,9.060000420E0,9.889180622E0
3.466933560E-1,5.020500422E-1,3.931950092E0,9.060000420E0,9.889180622E0
3.486562040E-1,5.410500169E-1,3.931950092E0,9.060000420E0,9.891237246E0
3.506191940E-1,5.020500422E-1,3.931950092E0,9.022050858E0,9.854424765E0
3.525822850E-1,5.020500422E-1,3.931950092E0,9.098999977E0,9.924922486E0
3.545453460E-1,5.020500422E-1,3.931950092E0,9.098999977E0,9.924922486E0
3.565086510E-1,4.639500082E-1,3.970950127E0,9.060000420E0,9.902893624E0
3.584718840E-1,5.020500422E-1,3.970950127E0,9.098999977E0,9.940437603E0
3.604352760E-1,4.260000288E-1,3.931950092E0,9.060000420E0,9.885611522E0
3.623986340E-1,4.639500082E-1,3.970950127E0,9.098999977E0,9.938586172E0
3.643616640E-1,4.639500082E-1,4.009050369E0,9.136950493E0,9.988573411E0
3.663247900E-1,3.490500152E-1,3.970950127E0,9.136950493E0,9.968658141E0
3.682874980E-1,4.260000288E-1,3.970950127E0,9.136950493E0,9.971649073E0
3.702503290E-1,4.639500082E-1,4.009050369E0,9.175050735E0,1.002343706E1
3.722135870E-1,4.639500082E-1,3.970950127E0,9.175050735E0,1.000825912E1
3.741767160E-1,4.260000288E-1,3.970950127E0,9.136950493E0,9.971649073E0
3.761398300E-1,4.260000288E-1,3.970950127E0,9.175050735E0,1.000657169E1
3.781029490E-1,4.260000288E-1,3.970950127E0,9.175050735E0,1.000657169E1
3.800663780E-1,3.870000243E-1,3.970950127E0,9.214050293E0,1.004076375E1
3.820297160E-1,3.870000243E-1,3.970950127E0,9.136950493E0,9.970059089E0
3.839931280E-1,4.639500082E-1,3.931950092E0,9.136950493E0,9.957878562E0
3.859565050E-1,4.260000288E-1,3.970950127E0,9.214050293E0,1.004234254E1
3.879194860E-1,3.870000243E-1,3.970950127E0,9.175050735E0,1.000498725E1
3.898825830E-1,4.260000288E-1,3.970950127E0,9.136950493E0,9.971649073E0
3.918458360E-1,4.260000288E-1,3.970950127E0,9.175050735E0,1.000657169E1
3.938090430E-1,4.260000288E-1,3.970950127E0,9.175050735E0,1.000657169E1
3.957722680E-1,3.870000243E-1,3.970950127E0,9.136950493E0,9.970059089E0
3.977354950E-1,3.490500152E-1,4.009050369E0,9.214050293E0,1.005450365E1
3.996984120E-1,3.870000243E-1,4.009050369E0,9.214050293E0,1.005589263E1
4.016614200E-1,4.260000288E-1,3.970950127E0,9.214050293E0,1.004234254E1
4.036241030E-1,4.260000288E-1,3.931950092E0,9.175050735E0,9.991159270E0
4.055868810E-1,4.260000288E-1,3.970950127E0,9.175050735E0,1.000657169E1
4.075500680E-1,3.870000243E-1,4.009050369E0,9.214050293E0,1.005589263E1
4.095131250E-1,3.490500152E-1,3.931950092E0,9.175050735E0,9.988174180E0
4.114763860E-1,4.260000288E-1,3.931950092E0,9.214050293E0,1.002698511E1
4.134395870E-1,3.870000243E-1,3.970950127E0,9.214050293E0,1.004076375E1
4.154027790E-1,3.870000243E-1,3.970950127E0,9.175050735E0,1.000498725E1
4.173659730E-1,3.490500152E-1,3.970950127E0,9.252000809E0,1.007421460E1
4.193291280E-1,3.870000243E-1,3.931950092E0,9.214050293E0,1.002540390E1
4.212922570E-1,4.260000288E-1,3.931950092E0,9.252000809E0,1.006186993E1
4.232554590E-1,3.490500152E-1,3.970950127E0,9.175050735E0,1.000359120E1
4.252186400E-1,4.260000288E-1,3.970950127E0,9.252000809E0,1.007717420E1
4.271815650E-1,3.870000243E-1,3.970950127E0,9.214050293E0,1.004076375E1
4.291445650E-1,4.260000288E-1,3.931950092E0,9.214050293E0,1.002698511E1
4.311076430E-1,3.870000243E-1,3.931950092E0,9.175050735E0,9.989572391E0
4.330706740E-1,4.260000288E-1,3.931950092E0,9.214050293E0,1.002698511E1
4.350338030E-1,4.639500082E-1,3.894000292E0,9.175050735E0,9.977977946E0
4.369969040E-1,4.260000288E-1,3.970950127E0,9.175050735E0,1.000657169E1
4.389599780E-1,4.260000288E-1,3.931950092E0,9.214050293E0,1.002698511E1
4.409230600E-1,4.260000288E-1,3.931950092E0,9.175050735E0,9.991159270E0
4.428861260E-1,3.870000243E-1,3.894000292E0,9.214050293E0,1.001058091E1
4.448492040E-1,3.870000243E-1,3.894000292E0,9.214050293E0,1.001058091E1
4.468122360E-1,4.260000288E-1,3.970950127E0,9.175050735E0,1.000657169E1
4.487752810E-1,3.870000243E-1,3.931950092E0,9.175050735E0,9.989572391E0
4.507382280E-1,4.639500082E-1,3.894000292E0,9.175050735E0,9.977977946E0
4.527012040E-1,4.260000288E-1,3.931950092E0,9.175050735E0,9.991159270E0
4.546646490E-1,4.260000288E-1,3.894000292E0,9.175050735E0,9.976285396E0
4.566279620E-1,5.020500422E-1,3.931950092E0,9.136950493E0,9.959726406E0
4.585906390E-1,4.260000288E-1,3.931950092E0,9.136950493E0,9.956182595E0
4.605535030E-1,4.639500082E-1,3.894000292E0,9.136950493E0,9.942954902E0
4.625169760E-1,4.639500082E-1,3.931950092E0,9.136950493E0,9.957878562E0
4.644802700E-1,4.639500082E-1,3.894000292E0,9.098999977E0,9.908092070E0
4.664434910E-1,4.639500082E-1,3.931950092E0,9.136950493E0,9.957878562E0
4.684067340E-1,5.020500422E-1,3.894000292E0,9.136950493E0,9.944805520E0
4.703699620E-1,5.020500422E-1,3.931950092E0,9.136950493E0,9.959726406E0
4.723331950E-1,5.020500422E-1,3.894000292E0,9.098999977E0,9.909949198E0
4.742964260E-1,4.639500082E-1,3.931950092E0,9.098999977E0,9.923068161E0
4.762596570E-1,4.639500082E-1,3.931950092E0,9.098999977E0,9.923068161E0
4.782230210E-1,4.639500082E-1,3.931950092E0,9.098999977E0,9.923068161E0
4.801863460E-1,4.639500082E-1,3.931950092E0,9.060000420E0,9.887319593E0
4.821493820E-1,4.639500082E-1,3.894000292E0,9.060000420E0,9.872289273E0
4.841125020E-1,5.020500422E-1,3.931950092E0,9.098999977E0,9.924922486E0
4.860757500E-1,5.020500422E-1,3.894000292E0,9.136950493E0,9.944805520E0
4.880389610E-1,5.020500422E-1,3.931950092E0,9.098999977E0,9.924922486E0
4.900024050E-1,4.639500082E-1,3.970950127E0,9.098999977E0,9.938586172E0
4.919657600E-1,4.260000288E-1,3.931950092E0,9.136950493E0,9.956182595E0
4.939288350E-1,4.639500082E-1,3.894000292E0,9.098999977E0,9.908092070E0
4.958919920E-1,5.020500422E-1,3.931950092E0,9.098999977E0,9.924922486E0
4.978555950E-1,4.639500082E-1,3.931950092E0,9.175050735E0,9.992849300E0
4.998190670E-1,4.639500082E-1,3.931950092E0,9.136950493E0,9.957878562E0
5.017826120E-1,4.639500082E-1,3.931950092E0,9.098999977E0,9.923068161E0
5.037461390E-1,4.639500082E-1,3.931950092E0,9.136950493E0,9.957878562E0
5.057096350E-1,5.020500422E-1,3.931950092E0,9.098999977E0,9.924922486E0
5.076731410E-1,4.639500082E-1,3.970950127E0,9.214050293E0,1.004402396E1
5.096361890E-1,4.639500082E-1,3.931950092E0,9.175050735E0,9.992849300E0
5.115993720E-1,4.639500082E-1,3.970950127E0,9.136950493E0,9.973342410E0
5.135627410E-1,5.020500422E-1,3.931950092E0,9.175050735E0,9.994690679E0
5.155260580E-1,4.639500082E-1,3.931950092E0,9.136950493E0,9.957878562E0
5.174892750E-1,5.020500422E-1,3.931950092E0,9.214050293E0,1.003050390E1
5.194525220E-1,4.639500082E-1,3.931950092E0,9.175050735E0,9.992849300E0
5.214155700E-1,4.260000288E-1,3.931950092E0,9.214050293E0,1.002698511E1
5.233786760E-1,4.639500082E-1,3.894000292E0,9.175050735E0,9.977977946E0
5.253419270E-1,4.639500082E-1,3.931950092E0,9.214050293E0,1.002866910E1
5.273051350E-1,4.639500082E-1,3.931950092E0,9.175050735E0,9.992849300E0
5.292684150E-1,4.639500082E-1,3.931950092E0,9.175050735E0,9.992849300E0
5.312316740E-1,5.020500422E-1,3.894000292E0,9.214050293E0,1.001568846E1
5.331947210E-1,4.639500082E-1,3.970950127E0,9.136950493E0,9.973342410E0
5.351578300E-1,4.639500082E-1,3.931950092E0,9.175050735E0,9.992849300E0
5.371210300E-1,4.639500082E-1,3.931950092E0,9.214050293E0,1.002866910E1
5.390842070E-1,4.639500082E-1,3.970950127E0,9.136950493E0,9.973342410E0
5.410476720E-1,4.639500082E-1,3.931950092E0,9.098999977E0,9.923068161E0
5.430110530E-1,4.639500082E-1,3.931950092E0,9.136950493E0,9.957878562E0
5.449742140E-1,4.639500082E-1,3.931950092E0,9.098999977E0,9.923068161E0
5.469374400E-1,4.639500082E-1,3.970950127E0,9.098999977E0,9.938586172E0
5.489005550E-1,4.639500082E-1,3.894000292E0,9.136950493E0,9.942954902E0
5.508636900E-1,4.639500082E-1,3.931950092E0,9.136950493E0,9.957878562E0
5.528270710E-1,4.639500082E-1,3.931950092E0,9.136950493E0,9.957878562E0
5.547903800E-1,4.639500082E-1,3.894000292E0,9.136950493E0,9.942954902E0
5.567535990E-1,4.639500082E-1,3.931950092E0,9.136950493E0,9.957878562E0
5.587168440E-1,3.870000243E-1,3.970950127E0,9.136950493E0,9.970059089E0
5.606802640E-1,4.639500082E-1,3.970950127E0,9.136950493E0,9.973342410E0
5.626436240E-1,4.639500082E-1,3.970950127E0,9.175050735E0,1.000825912E1
5.646068780E-1,4.639500082E-1,3.931950092E0,9.136950493E0,9.957878562E0
5.665701640E-1,4.260000288E-1,3.931950092E0,9.136950493E0,9.956182595E0
5.685333850E-1,4.260000288E-1,3.931950092E0,9.098999977E0,9.921366243E0
5.704966260E-1,4.639500082E-1,3.931950092E0,9.136950493E0,9.957878562E0
5.724598560E-1,4.260000288E-1,3.970950127E0,9.136950493E0,9.971649073E0
5.744230890E-1,4.260000288E-1,3.970950127E0,9.175050735E0,1.000657169E1
5.763862740E-1,4.639500082E-1,3.931950092E0,9.175050735E0,9.992849300E0
5.783494730E-1,4.260000288E-1,3.970950127E0,9.214050293E0,1.004234254E1
5.803125740E-1,4.639500082E-1,3.931950092E0,9.175050735E0,9.992849300E0
5.822757040E-1,4.260000288E-1,3.931950092E0,9.136950493E0,9.956182595E0
5.842386050E-1,4.260000288E-1,3.970950127E0,9.136950493E0,9.971649073E0
5.862015640E-1,4.639500082E-1,3.970950127E0,9.136950493E0,9.973342410E0
5.881646150E-1,4.639500082E-1,3.931950092E0,9.136950493E0,9.957878562E0
5.901276390E-1,4.639500082E-1,3.931950092E0,9.214050293E0,1.002866910E1
5.920905460E-1,4.639500082E-1,3.970950127E0,9.098999977E0,9.938586172E0
5.940534870E-1,4.639500082E-1,3.894000292E0,9.136950493E0,9.942954902E0
5.960163930E-1,4.260000288E-1,3.970950127E0,9.136950493E0,9.971649073E0
5.979793190E-1,4.639500082E-1,3.931950092E0,9.098999977E0,9.923068161E0
5.999422420E-1,5.020500422E-1,3.970950127E0,9.136950493E0,9.975187390E0
6.019051660E-1,4.639500082E-1,3.931950092E0,9.098999977E0,9.923068161E0
6.038686280E-1,5.020500422E-1,3.931950092E0,9.136950493E0,9.959726406E0
6.058319330E-1,4.639500082E-1,3.931950092E0,9.136950493E0,9.957878562E0
6.077952870E-1,3.870000243E-1,3.970950127E0,9.098999977E0,9.935291365E0
6.097586580E-1,4.260000288E-1,3.931950092E0,9.136950493E0,9.956182595E0
6.117220450E-1,4.260000288E-1,3.970950127E0,9.136950493E0,9.971649073E0
6.136854270E-1,4.639500082E-1,3.970950127E0,9.098999977E0,9.938586172E0
6.156486780E-1,4.260000288E-1,3.931950092E0,9.098999977E0,9.921366243E0
6.176119680E-1,4.639500082E-1,3.931950092E0,9.136950493E0,9.957878562E0
6.195749940E-1,5.020500422E-1,3.931950092E0,9.136950493E0,9.959726406E0
6.215381080E-1,4.639500082E-1,3.970950127E0,9.175050735E0,1.000825912E1
6.235013570E-1,4.639500082E-1,3.931950092E0,9.214050293E0,1.002866910E1
6.254645670E-1,4.639500082E-1,3.970950127E0,9.175050735E0,1.000825912E1
6.274277580E-1,4.639500082E-1,3.970950127E0,9.136950493E0,9.973342410E0
6.293909540E-1,4.639500082E-1,3.931950092E0,9.175050735E0,9.992849300E0
6.313543750E-1,4.639500082E-1,4.009050369E0,9.175050735E0,1.002343706E1
6.333177260E-1,5.020500422E-1,3.931950092E0,9.136950493E0,9.959726406E0
6.352811160E-1,4.639500082E-1,3.894000292E0,9.136950493E0,9.942954902E0
6.372444950E-1,4.639500082E-1,3.970950127E0,9.175050735E0,1.000825912E1
6.392079260E-1,5.020500422E-1,3.931950092E0,9.175050735E0,9.994690679E0
6.411713410E-1,5.020500422E-1,3.894000292E0,9.175050735E0,9.979822068E0
6.431346770E-1,4.260000288E-1,3.931950092E0,9.175050735E0,9.991159270E0
6.450980360E-1,4.260000288E-1,3.931950092E0,9.214050293E0,1.002698511E1
6.470612890E-1,4.639500082E-1,3.970950127E0,9.136950493E0,9.973342410E0
6.490245740E-1,5.020500422E-1,3.931950092E0,9.098999977E0,9.924922486E0
6.509877960E-1,5.020500422E-1,3.931950092E0,9.136950493E0,9.959726406E0
6.529510360E-1,4.639500082E-1,3.931950092E0,9.175050735E0,9.992849300E0
6.549140840E-1,5.020500422E-1,3.931950092E0,9.136950493E0,9.959726406E0
6.568771890E-1,5.020500422E-1,3.931950092E0,9.136950493E0,9.959726406E0
6.588403950E-1,4.260000288E-1,3.894000292E0,9.136950493E0,9.941256390E0
6.608035710E-1,4.260000288E-1,3.931950092E0,9.175050735E0,9.991159270E0
6.627666770E-1,4.639500082E-1,3.931950092E0,9.098999977E0,9.923068161E0
6.647298040E-1,4.639500082E-1,3.931950092E0,9.175050735E0,9.992849300E0
6.666926780E-1,4.260000288E-1,3.970950127E0,9.136950493E0,9.971649073E0
6.686556360E-1,4.639500082E-1,3.931950092E0,9.136950493E0,9.957878562E0
6.706187320E-1,4.639500082E-1,3.894000292E0,9.214050293E0,1.001385094E1
6.725817880E-1,5.020500422E-1,3.931950092E0,9.098999977E0,9.924922486E0
6.745448690E-1,4.260000288E-1,3.970950127E0,9.175050735E0,1.000657169E1
6.765079420E-1,4.639500082E-1,3.931950092E0,9.214050293E0,1.002866910E1
6.784710250E-1,4.639500082E-1,3.931950092E0,9.214050293E0,1.002866910E1
6.804341010E-1,4.260000288E-1,3.970950127E0,9.175050735E0,1.000657169E1
6.823973580E-1,5.020500422E-1,3.894000292E0,9.214050293E0,1.001568846E1
6.843605620E-1,4.639500082E-1,3.970950127E0,9.214050293E0,1.004402396E1
6.863236180E-1,5.020500422E-1,3.931950092E0,9.175050735E0,9.994690679E0
6.882867180E-1,5.020500422E-1,3.931950092E0,9.136950493E0,9.959726406E0
6.902497460E-1,4.639500082E-1,3.970950127E0,9.252000809E0,1.007884981E1
6.922127950E-1,4.639500082E-1,3.931950092E0,9.214050293E0,1.002866910E1
6.941758760E-1,5.020500422E-1,3.970950127E0,9.175050735E0,1.001009766E1
6.961389470E-1,4.260000288E-1,3.931950092E0,9.175050735E0,9.991159270E0
6.981020250E-1,4.639500082E-1,3.970950127E0,9.175050735E0,1.000825912E1
7.000651010E-1,4.639500082E-1,3.931950092E0,9.136950493E0,9.957878562E0
7.020285690E-1,4.260000288E-1,3.970950127E0,9.175050735E0,1.000657169E1
7.039919320E-1,5.020500422E-1,3.931950092E0,9.214050293E0,1.003050390E1
7.059550960E-1,5.020500422E-1,3.931950092E0,9.214050293E0,1.003050390E1
7.079183190E-1,4.639500082E-1,3.931950092E0,9.175050735E0,9.992849300E0
7.098815950E-1,5.020500422E-1,3.931950092E0,9.136950493E0,9.959726406E0
7.118448550E-1,5.020500422E-1,3.894000292E0,9.136950493E0,9.944805520E0
7.138080040E-1,5.020500422E-1,3.931950092E0,9.214050293E0,1.003050390E1
7.157712090E-1,4.639500082E-1,3.970950127E0,9.136950493E0,9.973342410E0
7.177343080E-1,4.639500082E-1,3.970950127E0,9.098999977E0,9.938586172E0
7.196974390E-1,4.639500082E-1,3.970950127E0,9.175050735E0,1.000825912E1
7.216605070E-1,4.260000288E-1,3.931950092E0,9.136950493E0,9.956182595E0
7.236235930E-1,4.639500082E-1,3.894000292E0,9.136950493E0,9.942954902E0
7.255868030E-1,5.020500422E-1,3.894000292E0,9.175050735E0,9.979822068E0
7.275499760E-1,4.639500082E-1,3.931950092E0,9.136950493E0,9.957878562E0
7.295130380E-1,4.639500082E-1,3.931950092E0,9.098999977E0,9.923068161E0
7.314761320E-1,4.639500082E-1,3.931950092E0,9.175050735E0,9.992849300E0
7.334387100E-1,4.639500082E-1,3.970950127E0,9.175050735E0,1.000825912E1
7.354014390E-1,4.639500082E-1,3.931950092E0,9.175050735E0,9.992849300E0
7.373645790E-1,4.639500082E-1,3.931950092E0,9.175050735E0,9.992849300E0
7.393275950E-1,5.410500169E-1,3.970950127E0,9.136950493E0,9.977226285E0
7.412908180E-1,4.639500082E-1,3.970950127E0,9.136950493E0,9.973342410E0
7.432539800E-1,4.639500082E-1,3.894000292E0,9.175050735E0,9.977977946E0
7.452169080E-1,4.639500082E-1,3.931950092E0,9.136950493E0,9.957878562E0
7.471799050E-1,5.020500422E-1,3.931950092E0,9.136950493E0,9.959726406E0
7.491428010E-1,5.020500422E-1,3.931950092E0,9.214050293E0,1.003050390E1
7.511057370E-1,4.639500082E-1,4.009050369E0,9.214050293E0,1.005914794E1
7.530687920E-1,4.639500082E-1,3.931950092E0,9.136950493E0,9.957878562E0
7.550318120E-1,4.639500082E-1,3.894000292E0,9.175050735E0,9.977977946E0
7.569947190E-1,5.020500422E-1,3.931950092E0,9.175050735E0,9.994690679E0
7.589576600E-1,4.639500082E-1,3.931950092E0,9.175050735E0,9.992849300E0
7.609207990E-1,5.020500422E-1,3.931950092E0,9.175050735E0,9.994690679E0
7.628838840E-1,4.639500082E-1,3.894000292E0,9.175050735E0,9.977977946E0
7.648471400E-1,4.639500082E-1,3.931950092E0,9.214050293E0,1.002866910E1
7.668103460E-1,5.020500422E-1,3.931950092E0,9.175050735E0,9.994690679E0
7.687731760E-1,4.639500082E-1,3.931950092E0,9.214050293E0,1.002866910E1
7.707361170E-1,5.020500422E-1,3.931950092E0,9.175050735E0,9.994690679E0
7.726990180E-1,4.260000288E-1,3.894000292E0,9.136950493E0,9.941256390E0
7.746619440E-1,4.639500082E-1,3.931950092E0,9.175050735E0,9.992849300E0
7.766252710E-1,5.020500422E-1,3.894000292E0,9.175050735E0,9.979822068E0
7.785884800E-1,4.260000288E-1,3.931950092E0,9.175050735E0,9.991159270E0
7.805516710E-1,4.260000288E-1,3.894000292E0,9.098999977E0,9.906387580E0
7.825148670E-1,4.639500082E-1,3.894000292E0,9.175050735E0,9.977977946E0
7.844779570E-1,4.639500082E-1,3.931950092E0,9.136950493E0,9.957878562E0
7.864410550E-1,4.639500082E-1,3.970950127E0,9.175050735E0,1.000825912E1
7.884043080E-1,4.260000288E-1,3.856050253E0,9.214050293E0,9.997465798E0
7.903675150E-1,4.260000288E-1,3.931950092E0,9.175050735E0,9.991159270E0
7.923307950E-1,4.639500082E-1,3.931950092E0,9.252000809E0,1.006354809E1
7.942940530E-1,4.639500082E-1,3.931950092E0,9.214050293E0,1.002866910E1
7.962570790E-1,3.870000243E-1,3.931950092E0,9.136950493E0,9.954590140E0
7.982201560E-1,3.870000243E-1,3.970950127E0,9.214050293E0,1.004076375E1
8.001832330E-1,3.870000243E-1,3.931950092E0,9.098999977E0,9.919768199E0
8.021463100E-1,3.870000243E-1,3.931950092E0,9.136950493E0,9.954590140E0
8.041090710E-1,4.260000288E-1,3.970950127E0,9.098999977E0,9.936886913E0
8.060719250E-1,4.260000288E-1,3.970950127E0,9.136950493E0,9.971649073E0
8.080352010E-1,3.870000243E-1,3.970950127E0,9.060000420E0,9.899586937E0
8.099983660E-1,3.870000243E-1,3.970950127E0,9.060000420E0,9.899586937E0
8.119615630E-1,3.870000243E-1,3.970950127E0,9.136950493E0,9.970059089E0
8.139247500E-1,3.490500152E-1,3.970950127E0,9.098999977E0,9.933885514E0
8.158879890E-1,3.870000243E-1,4.009050369E0,9.060000420E0,9.914931240E0
8.178512120E-1,4.260000288E-1,3.970950127E0,9.060000420E0,9.901188239E0
8.198141300E-1,3.870000243E-1,3.931950092E0,9.060000420E0,9.884007697E0
8.217771370E-1,3.870000243E-1,3.931950092E0,9.060000420E0,9.884007697E0
8.237401800E-1,4.260000288E-1,4.009050369E0,9.060000420E0,9.916530063E0
8.257032120E-1,3.870000243E-1,3.970950127E0,9.060000420E0,9.899586937E0
8.276664770E-1,3.870000243E-1,3.970950127E0,9.060000420E0,9.899586937E0
8.296296730E-1,4.639500082E-1,3.931950092E0,9.060000420E0,9.887319593E0
8.315929050E-1,4.639500082E-1,3.894000292E0,9.136950493E0,9.942954902E0
8.335561300E-1,4.639500082E-1,3.894000292E0,9.098999977E0,9.908092070E0
8.355192280E-1,3.870000243E-1,3.970950127E0,9.136950493E0,9.970059089E0
8.374823630E-1,4.639500082E-1,3.970950127E0,9.098999977E0,9.938586172E0
8.394455640E-1,4.260000288E-1,3.931950092E0,9.136950493E0,9.956182595E0
8.414087450E-1,5.020500422E-1,3.931950092E0,9.098999977E0,9.924922486E0
8.433717760E-1,4.639500082E-1,3.931950092E0,9.098999977E0,9.923068161E0
8.453348720E-1,4.639500082E-1,3.894000292E0,9.136950493E0,9.942954902E0
8.472979900E-1,4.639500082E-1,3.894000292E0,9.136950493E0,9.942954902E0
8.492611010E-1,5.020500422E-1,3.970950127E0,9.098999977E0,9.940437603E0
8.512241280E-1,5.020500422E-1,3.931950092E0,9.136950493E0,9.959726406E0
8.531871800E-1,5.020500422E-1,3.931950092E0,9.098999977E0,9.924922486E0
8.551500910E-1,4.639500082E-1,3.931950092E0,9.175050735E0,9.992849300E0
8.571130360E-1,4.260000288E-1,3.931950092E0,9.175050735E0,9.991159270E0
8.590759550E-1,4.639500082E-1,3.970950127E0,9.136950493E0,9.973342410E0
8.610388820E-1,5.020500422E-1,3.970950127E0,9.214050293E0,1.004585596E1
8.630021640E-1,4.639500082E-1,3.931950092E0,9.175050735E0,9.992849300E0
8.649653420E-1,5.020500422E-1,3.931950092E0,9.214050293E0,1.003050390E1
8.669284480E-1,4.639500082E-1,3.931950092E0,9.175050735E0,9.992849300E0
8.688915750E-1,4.639500082E-1,3.931950092E0,9.136950493E0,9.957878562E0
8.708546430E-1,4.639500082E-1,3.970950127E0,9.136950493E0,9.973342410E0
8.728177280E-1,4.639500082E-1,3.970950127E0,9.175050735E0,1.000825912E1
8.747808040E-1,3.870000243E-1,3.970950127E0,9.175050735E0,1.000498725E1
8.767438820E-1,3.870000243E-1,3.970950127E0,9.136950493E0,9.970059089E0
8.787069680E-1,4.260000288E-1,3.970950127E0,9.214050293E0,1.004234254E1
8.806700450E-1,3.490500152E-1,3.931950092E0,9.175050735E0,9.988174180E0
8.826329410E-1,3.870000243E-1,3.970950127E0,9.136950493E0,9.970059089E0
8.845958910E-1,4.260000288E-1,3.931950092E0,9.175050735E0,9.991159270E0
8.865589890E-1,4.260000288E-1,3.970950127E0,9.175050735E0,1.000657169E1
8.885220430E-1,3.870000243E-1,3.970950127E0,9.175050735E0,1.000498725E1
8.904849550E-1,4.639500082E-1,3.931950092E0,9.214050293E0,1.002866910E1
8.924479010E-1,3.870000243E-1,3.931950092E0,9.252000809E0,1.006029421E1
8.944113600E-1,4.260000288E-1,3.970950127E0,9.214050293E0,1.004234254E1
8.963746690E-1,5.020500422E-1,3.970950127E0,9.214050293E0,1.004585596E1
8.983378420E-1,4.639500082E-1,3.931950092E0,9.214050293E0,1.002866910E1
9.003010550E-1,4.260000288E-1,3.931950092E0,9.252000809E0,1.006186993E1
9.022641880E-1,5.020500422E-1,3.931950092E0,9.252000809E0,1.006537653E1
9.042273200E-1,4.639500082E-1,3.970950127E0,9.252000809E0,1.007884981E1
9.061903420E-1,4.639500082E-1,3.931950092E0,9.214050293E0,1.002866910E1
9.081533970E-1,4.639500082E-1,3.931950092E0,9.252000809E0,1.006354809E1
9.101162970E-1,5.020500422E-1,3.931950092E0,9.289950371E0,1.010027047E1
9.120792430E-1,5.020500422E-1,3.931950092E0,9.252000809E0,1.006537653E1
9.140423450E-1,5.020500422E-1,3.894000292E0,9.214050293E0,1.001568846E1
9.160053990E-1,4.639500082E-1,3.894000292E0,9.175050735E0,9.977977946E0
9.179683010E-1,4.260000288E-1,3.894000292E0,9.214050293E0,1.001216446E1
9.199312470E-1,5.020500422E-1,3.894000292E0,9.214050293E0,1.001568846E1
9.218942100E-1,5.020500422E-1,3.856050253E0,9.214050293E0,1.000099498E1
9.238571680E-1,4.260000288E-1,3.894000292E0,9.214050293E0,1.001216446E1
9.258199020E-1,4.639500082E-1,3.931950092E0,9.214050293E0,1.002866910E1
9.277827050E-1,4.639500082E-1,3.894000292E0,9.214050293E0,1.001385094E1
9.297456020E-1,4.639500082E-1,3.894000292E0,9.214050293E0,1.001385094E1
9.317084720E-1,4.639500082E-1,3.856050253E0,9.175050735E0,9.963228852E0
9.336714040E-1,4.639500082E-1,3.931950092E0,9.214050293E0,1.002866910E1
9.356343180E-1,5.020500422E-1,3.856050253E0,9.214050293E0,1.000099498E1
9.375970730E-1,4.639500082E-1,3.894000292E0,9.214050293E0,1.001385094E1
9.395598680E-1,4.639500082E-1,3.856050253E0,9.175050735E0,9.963228852E0
9.415229920E-1,4.639500082E-1,3.856050253E0,9.214050293E0,9.999154762E0
9.434860190E-1,4.639500082E-1,3.894000292E0,9.214050293E0,1.001385094E1
9.454491500E-1,4.639500082E-1,3.894000292E0,9.214050293E0,1.001385094E1
9.474122500E-1,5.020500422E-1,3.894000292E0,9.175050735E0,9.979822068E0
9.493751300E-1,4.639500082E-1,3.856050253E0,9.175050735E0,9.963228852E0
9.513380840E-1,4.639500082E-1,3.894000292E0,9.252000809E0,1.004878136E1
9.533011360E-1,5.020500422E-1,3.894000292E0,9.136950493E0,9.944805520E0
9.552641590E-1,3.870000243E-1,3.894000292E0,9.175050735E0,9.974696150E0
9.572268860E-1,5.020500422E-1,3.894000292E0,9.136950493E0,9.944805520E0
9.591897000E-1,4.639500082E-1,3.931950092E0,9.214050293E0,1.002866910E1
9.611526740E-1,5.020500422E-1,3.894000292E0,9.175050735E0,9.979822068E0
9.631155770E-1,5.020500422E-1,3.931950092E0,9.175050735E0,9.994690679E0
9.650785040E-1,5.020500422E-1,3.894000292E0,9.175050735E0,9.979822068E0
9.670414230E-1,5.410500169E-1,3.894000292E0,9.175050735E0,9.981860017E0
9.690043920E-1,5.020500422E-1,3.894000292E0,9.136950493E0,9.944805520E0
9.709673460E-1,5.020500422E-1,3.931950092E0,9.175050735E0,9.994690679E0
9.729302510E-1,5.020500422E-1,3.931950092E0,9.136950493E0,9.959726406E0
9.748931800E-1,5.020500422E-1,3.894000292E0,9.175050735E0,9.979822068E0
9.768561020E-1,5.020500422E-1,3.931950092E0,9.136950493E0,9.959726406E0
9.788190270E-1,5.020500422E-1,3.894000292E0,9.136950493E0,9.944805520E0
9.807819500E-1,5.020500422E-1,3.894000292E0,9.175050735E0,9.979822068E0
9.827448730E-1,5.020500422E-1,3.931950092E0,9.060000420E0,9.889180622E0
9.847075860E-1,5.020500422E-1,3.931950092E0,9.098999977E0,9.924922486E0
9.866703820E-1,5.410500169E-1,3.931950092E0,9.136950493E0,9.961768465E0
9.886331470E-1,5.410500169E-1,3.931950092E0,9.098999977E0,9.926971705E0
9.905959210E-1,5.020500422E-1,3.894000292E0,9.098999977E0,9.909949198E0
9.925590040E-1,5.020500422E-1,3.894000292E0,9.136950493E0,9.944805520E0
9.945219960E-1,4.639500082E-1,3.931950092E0,9.136950493E0,9.957878562E0
9.964852680E-1,4.639500082E-1,3.931950092E0,9.136950493E0,9.957878562E0
9.984484570E-1,5.020500422E-1,3.931950092E0,9.136950493E0,9.959726406E0
1.000411516E0,4.639500082E-1,3.970950127E0,9.098999977E0,9.938586172E0
1.002374613E0,5.020500422E-1,3.931950092E0,9.175050735E0,9.994690679E0
1.004337506E0,4.639500082E-1,3.894000292E0,9.214050293E0,1.001385094E1
1.006300459E0,4.639500082E-1,3.970950127E0,9.175050735E0,1.000825912E1
1.008263615E0,4.639500082E-1,3.931950092E0,9.175050735E0,9.992849300E0
1.010226702E0,5.020500422E-1,3.931950092E0,9.214050293E0,1.003050390E1
1.012189418E0,4.639500082E-1,3.894000292E0,9.175050735E0,9.977977946E0
1.014152242E0,5.020500422E-1,3.894000292E0,9.136950493E0,9.944805520E0
1.016115497E0,5.020500422E-1,3.894000292E0,9.136950493E0,9.944805520E0
1.018078625E0,4.639500082E-1,3.970950127E0,9.175050735E0,1.000825912E1
1.020041704E0,4.639500082E-1,3.931950092E0,9.175050735E0,9.992849300E0
1.022004791E0,5.020500422E-1,3.931950092E0,9.136950493E0,9.959726406E0
1.023967910E0,4.260000288E-1,3.931950092E0,9.098999977E0,9.921366243E0
1.025931020E0,4.260000288E-1,3.970950127E0,9.060000420E0,9.901188239E0
1.027893912E0,4.260000288E-1,3.970950127E0,9.136950493E0,9.971649073E0
1.029856868E0,4.260000288E-1,3.970950127E0,9.060000420E0,9.901188239E0
1.031819989E0,4.260000288E-1,4.009050369E0,9.098999977E0,9.952173706E0
1.033783044E0,3.870000243E-1,3.931950092E0,9.098999977E0,9.919768199E0
1.035746260E0,4.639500082E-1,3.970950127E0,9.060000420E0,9.902893624E0
1.037709428E0,4.260000288E-1,4.009050369E0,9.060000420E0,9.916530063E0
1.039672536E0,3.870000243E-1,4.009050369E0,9.098999977E0,9.950580609E0
1.041635661E0,4.260000288E-1,4.009050369E0,9.136950493E0,9.986882657E0
1.043599074E0,4.260000288E-1,3.970950127E0,9.136950493E0,9.971649073E0
1.045562413E0,3.870000243E-1,4.009050369E0,9.136950493E0,9.985295098E0
1.047525401E0,4.260000288E-1,4.009050369E0,9.136950493E0,9.986882657E0
1.049488492E0,4.260000288E-1,3.970950127E0,9.136950493E0,9.971649073E0
1.051451791E0,3.870000243E-1,3.970950127E0,9.136950493E0,9.970059089E0
1.053415029E0,3.870000243E-1,4.009050369E0,9.136950493E0,9.985295098E0
1.055378414E0,3.870000243E-1,4.047000408E0,9.175050735E0,1.003541416E1
1.057341741E0,4.260000288E-1,4.009050369E0,9.175050735E0,1.002175219E1
1.059304957E0,4.260000288E-1,4.009050369E0,9.136950493E0,9.986882657E0
1.061268205E0,4.639500082E-1,3.970950127E0,9.136950493E0,9.973342410E0
1.063231657E0,4.260000288E-1,3.970950127E0,9.175050735E0,1.000657169E1
1.065195049E0,4.260000288E-1,3.970950127E0,9.136950493E0,9.971649073E0
1.067158188E0,4.260000288E-1,3.970950127E0,9.175050735E0,1.000657169E1
1.069121415E0,3.870000243E-1,3.931950092E0,9.098999977E0,9.919768199E0
1.071084466E0,4.260000288E-1,3.970950127E0,9.175050735E0,1.000657169E1
1.073047569E0,4.260000288E-1,3.931950092E0,9.136950493E0,9.956182595E0
1.075010506E0,4.260000288E-1,3.931950092E0,9.136950493E0,9.956182595E0
1.076973492E0,4.639500082E-1,3.931950092E0,9.175050735E0,9.992849300E0
1.078936724E0,4.260000288E-1,3.931950092E0,9.098999977E0,9.921366243E0
1.080899880E0,4.639500082E-1,3.931950092E0,9.214050293E0,1.002866910E1
1.082862764E0,5.020500422E-1,3.931950092E0,9.175050735E0,9.994690679E0
1.084825728E0,4.639500082E-1,3.931950092E0,9.136950493E0,9.957878562E0
1.086788644E0,4.639500082E-1,3.931950092E0,9.214050293E0,1.002866910E1
1.088751574E0,4.639500082E-1,3.894000292E0,9.175050735E0,9.977977946E0
1.090714690E0,4.639500082E-1,3.931950092E0,9.214050293E0,1.002866910E1
1.092677741E0,4.639500082E-1,3.931950092E0,9.214050293E0,1.002866910E1
1.094641003E0,4.260000288E-1,3.931950092E0,9.175050735E0,9.991159270E0
1.096604203E0,4.260000288E-1,3.931950092E0,9.175050735E0,9.991159270E0
1.098567484E0,4.639500082E-1,3.970950127E0,9.136950493E0,9.973342410E0
1.100530741E0,4.639500082E-1,3.931950092E0,9.175050735E0,9.992849300E0
1.102494156E0,4.639500082E-1,3.894000292E0,9.175050735E0,9.977977946E0
1.104457519E0,4.639500082E-1,3.931950092E0,9.175050735E0,9.992849300E0
1.106420548E0,4.260000288E-1,3.894000292E0,9.175050735E0,9.976285396E0
1.108383675E0,4.639500082E-1,3.894000292E0,9.214050293E0,1.001385094E1
1.110346518E0,3.870000243E-1,3.931950092E0,9.214050293E0,1.002540390E1
1.112309444E0,4.260000288E-1,3.894000292E0,9.136950493E0,9.941256390E0
1.114272537E0,4.639500082E-1,3.894000292E0,9.214050293E0,1.001385094E1
1.116235587E0,4.260000288E-1,3.931950092E0,9.214050293E0,1.002698511E1
1.118198894E0,5.020500422E-1,3.894000292E0,9.214050293E0,1.001568846E1
1.120162126E0,4.639500082E-1,3.894000292E0,9.175050735E0,9.977977946E0
1.122125177E0,5.020500422E-1,3.931950092E0,9.214050293E0,1.003050390E1
1.124088282E0,5.020500422E-1,3.894000292E0,9.175050735E0,9.979822068E0
1.126051703E0,4.639500082E-1,3.894000292E0,9.136950493E0,9.942954902E0
1.128015039E0,5.020500422E-1,3.856050253E0,9.098999977E0,9.895098705E0
1.129978567E0,4.639500082E-1,3.894000292E0,9.252000809E0,1.004878136E1
1.131942039E0,5.020500422E-1,3.931950092E0,9.175050735E0,9.994690679E0
1.133905229E0,5.020500422E-1,3.931950092E0,9.175050735E0,9.994690679E0
1.135868502E0,4.639500082E-1,3.894000292E0,9.136950493E0,9.942954902E0
1.137831550E0,5.020500422E-1,3.970950127E0,9.175050735E0,1.001009766E1
1.139794661E0,5.020500422E-1,3.931950092E0,9.175050735E0,9.994690679E0
1.141757957E0,4.639500082E-1,3.970950127E0,9.136950493E0,9.973342410E0
1.143721198E0,5.410500169E-1,3.970950127E0,9.136950493E0,9.977226285E0
1.145684203E0,5.020500422E-1,3.931950092E0,9.136950493E0,9.959726406E0
1.147647277E0,4.639500082E-1,3.931950092E0,9.175050735E0,9.992849300E0
1.149610319E0,4.639500082E-1,3.970950127E0,9.136950493E0,9.973342410E0
1.151573395E0,4.260000288E-1,3.970950127E0,9.098999977E0,9.936886913E0
1.153536472E0,5.020500422E-1,3.931950092E0,9.060000420E0,9.889180622E0
1.155499548E0,4.639500082E-1,3.931950092E0,9.136950493E0,9.957878562E0
1.157462670E0,4.639500082E-1,3.970950127E0,9.136950493E0,9.973342410E0
1.159425779E0,4.260000288E-1,3.931950092E0,9.098999977E0,9.921366243E0
1.161388986E0,5.020500422E-1,3.970950127E0,9.098999977E0,9.940437603E0
1.163352164E0,5.020500422E-1,3.970950127E0,9.098999977E0,9.940437603E0
1.165315225E0,4.639500082E-1,3.970950127E0,9.136950493E0,9.973342410E0
1.167278320E0,5.020500422E-1,3.970950127E0,9.136950493E0,9.975187390E0
1.169241437E0,5.020500422E-1,3.970950127E0,9.022050858E0,9.870050700E0
1.171204548E0,4.639500082E-1,3.970950127E0,9.022050858E0,9.868186064E0
1.173167639E0,5.020500422E-1,4.009050369E0,9.098999977E0,9.955718944E0
1.175130723E0,4.639500082E-1,3.970950127E0,9.098999977E0,9.938586172E0
1.177093754E0,5.020500422E-1,3.970950127E0,9.098999977E0,9.940437603E0
1.179056800E0,5.020500422E-1,3.970950127E0,9.098999977E0,9.940437603E0
1.181019567E0,5.020500422E-1,3.970950127E0,9.098999977E0,9.940437603E0
1.182982416E0,5.020500422E-1,3.931950092E0,9.098999977E0,9.924922486E0
1.184945545E0,4.639500082E-1,3.931950092E0,9.098999977E0,9.923068161E0
1.186908582E0,4.639500082E-1,3.931950092E0,9.098999977E0,9.923068161E0
1.188871801E0,5.020500422E-1,4.009050369E0,9.060000420E0,9.920088040E0
1.190834967E0,4.639500082E-1,4.009050369E0,9.136950493E0,9.988573411E0
1.192797894E0,4.639500082E-1,3.970950127E0,9.136950493E0,9.973342410E0
1.194760892E0,4.639500082E-1,3.970950127E0,9.136950493E0,9.973342410E0
1.196723757E0,4.639500082E-1,3.970950127E0,9.098999977E0,9.938586172E0
1.198686661E0,4.639500082E-1,3.970950127E0,9.136950493E0,9.973342410E0
1.200649272E0,4.639500082E-1,3.970950127E0,9.175050735E0,1.000825912E1
1.202611969E0,3.870000243E-1,3.931950092E0,9.175050735E0,9.989572391E0
1.204574705E0,4.639500082E-1,3.970950127E0,9.136950493E0,9.973342410E0
1.206537429E0,5.020500422E-1,3.970950127E0,9.175050735E0,1.001009766E1
1.208500576E0,4.639500082E-1,3.931950092E0,9.136950493E0,9.957878562E0
1.210463592E0,4.260000288E-1,3.931950092E0,9.175050735E0,9.991159270E0
1.212426679E0,4.260000288E-1,3.931950092E0,9.214050293E0,1.002698511E1
1.214389745E0,4.639500082E-1,3.931950092E0,9.175050735E0,9.992849300E0
1.216352149E0,5.020500422E-1,3.970950127E0,9.175050735E0,1.001009766E1
1.218314747E0,4.260000288E-1,3.931950092E0,9.252000809E0,1.006186993E1
1.220278064E0,4.639500082E-1,3.931950092E0,9.214050293E0,1.002866910E1
1.222241154E0,4.260000288E-1,3.894000292E0,9.252000809E0,1.004710074E1
1.224204095E0,4.260000288E-1,3.931950092E0,9.214050293E0,1.002698511E1
1.226167079E0,4.639500082E-1,3.931950092E0,9.175050735E0,9.992849300E0
1.228130171E0,4.639500082E-1,3.931950092E0,9.175050735E0,9.992849300E0
1.230093231E0,4.260000288E-1,3.931950092E0,9.175050735E0,9.991159270E0
1.232056340E0,5.410500169E-1,3.931950092E0,9.136950493E0,9.961768465E0
1.234019414E0,4.260000288E-1,3.970950127E0,9.214050293E0,1.004234254E1
1.235982447E0,4.639500082E-1,3.894000292E0,9.175050735E0,9.977977946E0
1.237945493E0,4.639500082E-1,3.894000292E0,9.214050293E0,1.001385094E1
1.239908574E0,4.639500082E-1,3.894000292E0,9.252000809E0,1.004878136E1
1.241871645E0,4.639500082E-1,3.970950127E0,9.175050735E0,1.000825912E1
1.243834723E0,4.260000288E-1,3.894000292E0,9.214050293E0,1.001216446E1
1.245797798E0,4.639500082E-1,3.894000292E0,9.214050293E0,1.001385094E1
1.247761101E0,4.639500082E-1,3.894000292E0,9.175050735E0,9.977977946E0
1.249724337E0,4.639500082E-1,3.931950092E0,9.175050735E0,9.992849300E0
1.251687388E0,4.260000288E-1,3.931950092E0,9.136950493E0,9.956182595E0
1.253650493E0,4.639500082E-1,3.931950092E0,9.214050293E0,1.002866910E1
1.255613539E0,4.639500082E-1,3.894000292E0,9.175050735E0,9.977977946E0
1.257576589E0,4.260000288E-1,3.931950092E0,9.175050735E0,9.991159270E0
1.259539849E0,5.020500422E-1,3.931950092E0,9.175050735E0,9.994690679E0
1.261503048E0,4.639500082E-1,3.894000292E0,9.214050293E0,1.001385094E1
1.263466105E0,4.639500082E-1,3.894000292E0,9.175050735E0,9.977977946E0
1.265429204E0,4.260000288E-1,3.931950092E0,9.175050735E0,9.991159270E0
1.267392272E0,5.020500422E-1,3.931950092E0,9.175050735E0,9.994690679E0
1.269355353E0,5.410500169E-1,3.894000292E0,9.136950493E0,9.946850642E0
1.271318249E0,4.639500082E-1,3.931950092E0,9.214050293E0,1.002866910E1
1.273281199E0,4.639500082E-1,3.931950092E0,9.136950493E0,9.957878562E0
1.275244342E0,5.020500422E-1,3.970950127E0,9.175050735E0,1.001009766E1
1.277207428E0,4.639500082E-1,3.931950092E0,9.136950493E0,9.957878562E0
1.279170611E0,4.639500082E-1,3.894000292E0,9.136950493E0,9.942954902E0
1.281133785E0,4.639500082E-1,3.931950092E0,9.136950493E0,9.957878562E0
1.283096846E0,4.260000288E-1,3.931950092E0,9.136950493E0,9.956182595E0
1.285059940E0,4.260000288E-1,3.931950092E0,9.136950493E0,9.956182595E0
1.287023014E0,4.260000288E-1,3.970950127E0,9.175050735E0,1.000657169E1
1.288986094E0,4.260000288E-1,3.970950127E0,9.098999977E0,9.936886913E0
1.290949155E0,4.639500082E-1,3.931950092E0,9.175050735E0,9.992849300E0
1.292912233E0,4.260000288E-1,3.970950127E0,9.136950493E0,9.971649073E0
1.294875489E0,4.260000288E-1,3.894000292E0,9.136950493E0,9.941256390E0
1.296838693E0,4.260000288E-1,3.931950092E0,9.175050735E0,9.991159270E0
1.298801749E0,5.020500422E-1,3.970950127E0,9.175050735E0,1.001009766E1
1.300764849E0,4.639500082E-1,3.970950127E0,9.098999977E0,9.938586172E0
1.302727979E0,4.260000288E-1,3.970950127E0,9.175050735E0,1.000657169E1
1.304691091E0,4.639500082E-1,3.894000292E0,9.136950493E0,9.942954902E0
1.306654343E0,4.639500082E-1,3.931950092E0,9.175050735E0,9.992849300E0
1.308617553E0,4.639500082E-1,3.970950127E0,9.136950493E0,9.973342410E0
1.310580787E0,5.020500422E-1,3.931950092E0,9.136950493E0,9.959726406E0
1.312544014E0,4.639500082E-1,3.931950092E0,9.175050735E0,9.992849300E0
1.314507212E0,5.020500422E-1,3.970950127E0,9.098999977E0,9.940437603E0
1.316470411E0,4.639500082E-1,3.931950092E0,9.175050735E0,9.992849300E0
1.318433287E0,5.020500422E-1,3.970950127E0,9.136950493E0,9.975187390E0
1.320396257E0,4.639500082E-1,3.894000292E0,9.175050735E0,9.977977946E0
1.322359351E0,4.639500082E-1,3.931950092E0,9.098999977E0,9.923068161E0
1.324322409E0,4.639500082E-1,3.931950092E0,9.214050293E0,1.002866910E1
1.326285336E0,5.020500422E-1,3.970950127E0,9.136950493E0,9.975187390E0
1.328248315E0,4.639500082E-1,3.931950092E0,9.136950493E0,9.957878562E0
1.330211363E0,4.639500082E-1,3.931950092E0,9.136950493E0,9.957878562E0
1.332174390E0,3.870000243E-1,3.970950127E0,9.098999977E0,9.935291365E0
1.334137476E0,4.260000288E-1,3.931950092E0,9.098999977E0,9.921366243E0
1.336100544E0,4.260000288E-1,3.931950092E0,9.098999977E0,9.921366243E0
1.338063457E0,5.410500169E-1,3.931950092E0,9.136950493E0,9.961768465E0
1.340026406E0,5.020500422E-1,3.970950127E0,9.175050735E0,1.001009766E1
1.341989324E0,4.260000288E-1,3.970950127E0,9.136950493E0,9.971649073E0
1.343952252E0,4.639500082E-1,3.894000292E0,9.098999977E0,9.908092070E0
1.345915218E0,4.639500082E-1,3.970950127E0,9.098999977E0,9.938586172E0
1.347878173E0,4.639500082E-1,3.931950092E0,9.136950493E0,9.957878562E0
1.349841032E0,4.639500082E-1,4.009050369E0,9.098999977E0,9.953870356E0
1.351803930E0,4.639500082E-1,3.931950092E0,9.098999977E0,9.923068161E0
1.353767036E0,4.639500082E-1,4.009050369E0,9.098999977E0,9.953870356E0
1.355730081E0,5.020500422E-1,3.931950092E0,9.136950493E0,9.959726406E0
1.357692985E0,4.639500082E-1,3.931950092E0,9.098999977E0,9.923068161E0
1.359655930E0,5.020500422E-1,3.970950127E0,9.136950493E0,9.975187390E0
1.361618878E0,4.639500082E-1,3.970950127E0,9.175050735E0,1.000825912E1
1.363581836E0,4.639500082E-1,3.970950127E0,9.098999977E0,9.938586172E0
1.365545068E0,4.260000288E-1,3.931950092E0,9.175050735E0,9.991159270E0
1.367508220E0,4.260000288E-1,3.931950092E0,9.175050735E0,9.991159270E0
1.369471105E0,4.260000288E-1,3.970950127E0,9.098999977E0,9.936886913E0
1.371434068E0,4.639500082E-1,3.931950092E0,9.175050735E0,9.992849300E0
1.373396990E0,4.639500082E-1,3.931950092E0,9.175050735E0,9.992849300E0
1.375359920E0,4.260000288E-1,3.970950127E0,9.175050735E0,1.000657169E1
1.377322706E0,5.020500422E-1,3.970950127E0,9.136950493E0,9.975187390E0
1.379285535E0,4.639500082E-1,3.931950092E0,9.175050735E0,9.992849300E0
1.381248249E0,5.020500422E-1,3.894000292E0,9.136950493E0,9.944805520E0
1.383210997E0,5.020500422E-1,3.931950092E0,9.214050293E0,1.003050390E1
1.385173575E0,5.020500422E-1,3.894000292E0,9.175050735E0,9.979822068E0
1.387136213E0,5.020500422E-1,3.931950092E0,9.175050735E0,9.994690679E0
1.389098825E0,4.639500082E-1,3.931950092E0,9.214050293E0,1.002866910E1
1.391061444E0,4.260000288E-1,3.931950092E0,9.098999977E0,9.921366243E0
1.393024283E0,4.639500082E-1,3.931950092E0,9.214050293E0,1.002866910E1
1.394987058E0,4.639500082E-1,3.931950092E0,9.175050735E0,9.992849300E0
1.396949827E0,4.260000288E-1,3.931950092E0,9.136950493E0,9.956182595E0
1.398912598E0,5.020500422E-1,3.970950127E0,9.136950493E0,9.975187390E0
1.400875322E0,4.639500082E-1,3.931950092E0,9.175050735E0,9.992849300E0
1.402838060E0,4.639500082E-1,3.931950092E0,9.175050735E0,9.992849300E0
1.404800519E0,4.639500082E-1,3.931950092E0,9.175050735E0,9.992849300E0
1.406763060E0,5.020500422E-1,3.931950092E0,9.214050293E0,1.003050390E1
1.408725833E0,4.639500082E-1,3.931950092E0,9.175050735E0,9.992849300E0
1.410688562E0,4.639500082E-1,3.931950092E0,9.214050293E0,1.002866910E1
1.412651654E0,5.020500422E-1,3.970950127E0,9.214050293E0,1.004585596E1
1.414614639E0,5.410500169E-1,3.931950092E0,9.175050735E0,9.996725596E0
1.416577192E0,5.020500422E-1,3.931950092E0,9.214050293E0,1.003050390E1
1.418539872E0,5.020500422E-1,3.931950092E0,9.214050293E0,1.003050390E1
1.420502826E0,4.639500082E-1,3.894000292E0,9.175050735E0,9.977977946E0
1.422465706E0,5.020500422E-1,3.931950092E0,9.214050293E0,1.003050390E1
1.424428457E0,5.020500422E-1,3.970950127E0,9.136950493E0,9.975187390E0
1.426391246E0,5.410500169E-1,3.931950092E0,9.175050735E0,9.996725596E0
1.428354236E0,4.260000288E-1,3.931950092E0,9.214050293E0,1.002698511E1
1.430317167E0,4.639500082E-1,3.931950092E0,9.175050735E0,9.992849300E0
1.432280066E0,4.639500082E-1,3.970950127E0,9.175050735E0,1.000825912E1
1.434242992E0,5.410500169E-1,3.970950127E0,9.214050293E0,1.004788051E1
1.436205914E0,4.639500082E-1,3.970950127E0,9.214050293E0,1.004402396E1
1.438168838E0,4.639500082E-1,3.970950127E0,9.175050735E0,1.000825912E1
1.440131716E0,4.639500082E-1,3.931950092E0,9.098999977E0,9.923068161E0
1.442094607E0,5.020500422E-1,3.970950127E0,9.175050735E0,1.001009766E1
1.444057372E0,4.639500082E-1,3.970950127E0,9.136950493E0,9.973342410E0
1.446020194E0,4.639500082E-1,3.931950092E0,9.136950493E0,9.957878562E0
1.447983134E0,4.639500082E-1,3.970950127E0,9.136950493E0,9.973342410E0
1.449946039E0,4.639500082E-1,3.970950127E0,9.098999977E0,9.938586172E0
1.451909100E0,4.260000288E-1,3.970950127E0,9.136950493E0,9.971649073E0
1.453872115E0,5.020500422E-1,4.009050369E0,9.098999977E0,9.955718944E0
1.455834684E0,4.639500082E-1,3.970950127E0,9.060000420E0,9.902893624E0
1.457797401E0,4.639500082E-1,3.970950127E0,9.136950493E0,9.973342410E0
1.459760313E0,5.020500422E-1,3.970950127E0,9.136950493E0,9.975187390E0
1.461723168E0,5.020500422E-1,3.970950127E0,9.098999977E0,9.940437603E0
1.463686148E0,4.639500082E-1,3.970950127E0,9.098999977E0,9.938586172E0
1.465649092E0,4.639500082E-1,4.009050369E0,9.136950493E0,9.988573411E0
1.467611981E0,4.639500082E-1,3.970950127E0,9.098999977E0,9.938586172E0
1.469574877E0,4.260000288E-1,3.970950127E0,9.136950493E0,9.971649073E0
1.471537984E0,4.639500082E-1,3.931950092E0,9.136950493E0,9.957878562E0
1.473501029E0,4.639500082E-1,3.931950092E0,9.098999977E0,9.923068161E0
1.475463977E0,5.020500422E-1,3.931950092E0,9.098999977E0,9.924922486E0
1.477426954E0,4.639500082E-1,3.970950127E0,9.098999977E0,9.938586172E0
1.479389853E0,4.639500082E-1,3.931950092E0,9.175050735E0,9.992849300E0
1.481352785E0,4.639500082E-1,3.931950092E0,9.175050735E0,9.992849300E0
1.483315481E0,5.020500422E-1,3.931950092E0,9.098999977E0,9.924922486E0
1.485278246E0,4.260000288E-1,3.931950092E0,9.098999977E0,9.921366243E0
1.487241060E0,5.020500422E-1,3.931950092E0,9.136950493E0,9.959726406E0
1.489203860E0,4.639500082E-1,3.894000292E0,9.098999977E0,9.908092070E0
1.491166781E0,4.260000288E-1,3.970950127E0,9.175050735E0,1.000657169E1
1.493129683E0,5.410500169E-1,3.931950092E0,9.136950493E0,9.961768465E0
1.495092430E0,5.020500422E-1,3.931950092E0,9.175050735E0,9.994690679E0
1.497055223E0,5.020500422E-1,3.931950092E0,9.175050735E0,9.994690679E0
1.499018123E0,4.639500082E-1,3.931950092E0,9.098999977E0,9.923068161E0
1.500980991E0,4.639500082E-1,3.931950092E0,9.136950493E0,9.957878562E0
1.502943924E0,5.410500169E-1,3.931950092E0,9.136950493E0,9.961768465E0
1.504906837E0,5.020500422E-1,3.931950092E0,9.136950493E0,9.959726406E0
1.506869403E0,5.020500422E-1,3.894000292E0,9.175050735E0,9.979822068E0
1.508832070E0,5.020500422E-1,3.894000292E0,9.175050735E0,9.979822068E0
1.510794901E0,5.020500422E-1,3.931950092E0,9.136950493E0,9.959726406E0
1.512757683E0,5.020500422E-1,3.894000292E0,9.136950493E0,9.944805520E0
1.514720595E0,5.410500169E-1,3.894000292E0,9.175050735E0,9.981860017E0
1.516683462E0,4.639500082E-1,3.931950092E0,9.175050735E0,9.992849300E0
1.518646261E0,5.020500422E-1,3.931950092E0,9.175050735E0,9.994690679E0
1.520609080E0,4.639500082E-1,3.894000292E0,9.136950493E0,9.942954902E0
1.522571975E0,5.020500422E-1,3.970950127E0,9.098999977E0,9.940437603E0
1.524534847E0,4.639500082E-1,3.970950127E0,9.060000420E0,9.902893624E0
1.526497584E0,5.020500422E-1,3.931950092E0,9.136950493E0,9.959726406E0
1.528460372E0,4.639500082E-1,3.970950127E0,9.136950493E0,9.973342410E0
1.530423138E0,3.870000243E-1,3.931950092E0,9.136950493E0,9.954590140E0
1.532385911E0,4.639500082E-1,3.931950092E0,9.098999977E0,9.923068161E0
1.534348679E0,5.020500422E-1,3.931950092E0,9.098999977E0,9.924922486E0
1.536311449E0,4.639500082E-1,3.931950092E0,9.136950493E0,9.957878562E0
1.538274098E0,3.870000243E-1,3.931950092E0,9.098999977E0,9.919768199E0
1.540236772E0,4.260000288E-1,3.970950127E0,9.136950493E0,9.971649073E0
1.542199556E0,3.870000243E-1,3.970950127E0,9.098999977E0,9.935291365E0
1.544162308E0,4.260000288E-1,3.931950092E0,9.060000420E0,9.885611522E0
1.546125261E0,5.020500422E-1,3.931950092E0,9.098999977E0,9.924922486E0
1.548088155E0,3.870000243E-1,3.970950127E0,9.098999977E0,9.935291365E0
1.550050873E0,4.260000288E-1,3.931950092E0,9.098999977E0,9.921366243E0
1.552013632E0,5.020500422E-1,3.970950127E0,9.136950493E0,9.975187390E0
1.553976087E0,5.020500422E-1,3.970950127E0,9.136950493E0,9.975187390E0
1.555938632E0,4.260000288E-1,3.931950092E0,9.060000420E0,9.885611522E0
1.557901079E0,4.260000288E-1,3.931950092E0,9.136950493E0,9.956182595E0
1.559863555E0,5.020500422E-1,3.931950092E0,9.136950493E0,9.959726406E0
1.561826193E0,4.639500082E-1,3.970950127E0,9.136950493E0,9.973342410E0
1.563788784E0,4.260000288E-1,3.931950092E0,9.136950493E0,9.956182595E0
1.565751360E0,5.410500169E-1,3.894000292E0,9.175050735E0,9.981860017E0
1.567713940E0,4.639500082E-1,3.931950092E0,9.136950493E0,9.957878562E0
1.569676740E0,5.020500422E-1,3.970950127E0,9.098999977E0,9.940437603E0
1.571639476E0,4.639500082E-1,3.931950092E0,9.136950493E0,9.957878562E0
1.573602117E0,5.020500422E-1,3.931950092E0,9.136950493E0,9.959726406E0
1.575564786E0,4.639500082E-1,3.970950127E0,9.136950493E0,9.973342410E0
1.577527572E0,4.639500082E-1,3.931950092E0,9.098999977E0,9.923068161E0
1.579490323E0,5.020500422E-1,3.931950092E0,9.098999977E0,9.924922486E0
1.581453276E0,4.639500082E-1,3.894000292E0,9.136950493E0,9.942954902E0
1.583416169E0,5.020500422E-1,3.931950092E0,9.136950493E0,9.959726406E0
1.585379039E0,5.020500422E-1,3.931950092E0,9.098999977E0,9.924922486E0
1.587341926E0,5.020500422E-1,3.970950127E0,9.136950493E0,9.975187390E0
1.589304495E0,4.639500082E-1,3.931950092E0,9.136950493E0,9.957878562E0
1.591267157E0,4.639500082E-1,3.970950127E0,9.136950493E0,9.973342410E0
1.593230169E0,5.020500422E-1,3.894000292E0,9.098999977E0,9.909949198E0
1.595193078E0,5.020500422E-1,3.931950092E0,9.098999977E0,9.924922486E0
1.597156158E0,5.020500422E-1,3.970950127E0,9.060000420E0,9.904751726E0
1.599119174E0,5.020500422E-1,3.931950092E0,9.136950493E0,9.959726406E0
1.601081902E0,4.639500082E-1,3.931950092E0,9.098999977E0,9.923068161E0
1.603044714E0,4.639500082E-1,3.931950092E0,9.098999977E0,9.923068161E0
1.605007296E0,4.639500082E-1,3.970950127E0,9.136950493E0,9.973342410E0
1.606969945E0,5.020500422E-1,3.931950092E0,9.136950493E0,9.959726406E0
1.608932714E0,5.410500169E-1,3.931950092E0,9.098999977E0,9.926971705E0
1.610895461E0,4.639500082E-1,3.970950127E0,9.098999977E0,9.938586172E0
1.612858100E0,4.639500082E-1,3.931950092E0,9.136950493E0,9.957878562E0
1.614820771E0,5.020500422E-1,3.894000292E0,9.136950493E0,9.944805520E0
1.616783736E0,5.020500422E-1,3.970950127E0,9.175050735E0,1.001009766E1
1.618746615E0,5.020500422E-1,3.931950092E0,9.098999977E0,9.924922486E0
1.620709701E0,4.639500082E-1,3.894000292E0,9.136950493E0,9.942954902E0
1.622672712E0,5.020500422E-1,3.894000292E0,9.175050735E0,9.979822068E0
1.624635621E0,5.020500422E-1,3.894000292E0,9.175050735E0,9.979822068E0
1.626598560E0,5.410500169E-1,3.931950092E0,9.175050735E0,9.996725596E0
1.628561525E0,5.410500169E-1,3.894000292E0,9.136950493E0,9.946850642E0
1.630524482E0,5.410500169E-1,3.931950092E0,9.214050293E0,1.003253156E1
1.632487428E0,5.020500422E-1,3.856050253E0,9.175050735E0,9.965075704E0
1.634450358E0,5.020500422E-1,3.894000292E0,9.136950493E0,9.944805520E0
1.636413459E0,5.020500422E-1,3.856050253E0,9.214050293E0,1.000099498E1
1.638376510E0,4.639500082E-1,3.894000292E0,9.214050293E0,1.001385094E1
1.640339771E0,5.020500422E-1,3.894000292E0,9.252000809E0,1.005061249E1
1.642302971E0,5.020500422E-1,3.856050253E0,9.252000809E0,1.003597015E1
1.644266168E0,4.639500082E-1,3.894000292E0,9.252000809E0,1.004878136E1
1.646229363E0,5.410500169E-1,3.856050253E0,9.252000809E0,1.003799669E1
1.648192239E0,4.639500082E-1,3.931950092E0,9.252000809E0,1.006354809E1
1.650155209E0,4.639500082E-1,3.894000292E0,9.252000809E0,1.004878136E1
1.652118303E0,4.260000288E-1,3.931950092E0,9.252000809E0,1.006186993E1
1.654081361E0,4.260000288E-1,3.894000292E0,9.252000809E0,1.004710074E1
1.656044274E0,4.260000288E-1,3.931950092E0,9.252000809E0,1.006186993E1
1.658007253E0,4.260000288E-1,3.894000292E0,9.252000809E0,1.004710074E1
1.659970526E0,3.870000243E-1,3.970950127E0,9.214050293E0,1.004076375E1
1.661933712E0,4.260000288E-1,4.009050369E0,9.252000809E0,1.009224850E1
1.663896726E0,4.260000288E-1,3.970950127E0,9.214050293E0,1.004234254E1
1.665859791E0,3.870000243E-1,4.009050369E0,9.252000809E0,1.009067752E1
1.667822738E0,4.260000288E-1,3.970950127E0,9.175050735E0,1.000657169E1
1.669785685E0,3.870000243E-1,3.970950127E0,9.214050293E0,1.004076375E1
1.671748648E0,4.260000288E-1,3.970950127E0,9.214050293E0,1.004234254E1
1.673711607E0,4.260000288E-1,3.970950127E0,9.214050293E0,1.004234254E1
1.675675019E0,3.870000243E-1,3.970950127E0,9.214050293E0,1.004076375E1
1.677638299E0,3.870000243E-1,3.970950127E0,9.175050735E0,1.000498725E1
1.679601396E0,4.260000288E-1,3.970950127E0,9.175050735E0,1.000657169E1
1.681564541E0,3.870000243E-1,3.970950127E0,9.098999977E0,9.935291365E0
1.683527606E0,4.260000288E-1,3.931950092E0,9.136950493E0,9.956182595E0
1.685490695E0,4.260000288E-1,3.931950092E0,9.175050735E0,9.991159270E0
1.687453904E0,4.260000288E-1,3.970950127E0,9.136950493E0,9.971649073E0
1.689417077E0,4.260000288E-1,3.894000292E0,9.136950493E0,9.941256390E0
1.691380373E0,4.260000288E-1,3.931950092E0,9.136950493E0,9.956182595E0
1.693343626E0,4.639500082E-1,3.931950092E0,9.175050735E0,9.992849300E0
1.695306673E0,4.639500082E-1,3.931950092E0,9.136950493E0,9.957878562E0
1.697269781E0,4.639500082E-1,3.970950127E0,9.098999977E0,9.938586172E0
1.699232853E0,5.410500169E-1,3.970950127E0,9.175050735E0,1.001212945E1
1.701195935E0,4.639500082E-1,3.931950092E0,9.175050735E0,9.992849300E0
1.703159035E0,4.639500082E-1,3.970950127E0,9.098999977E0,9.938586172E0
1.705122113E0,5.020500422E-1,3.970950127E0,9.136950493E0,9.975187390E0
1.707085190E0,5.020500422E-1,3.931950092E0,9.098999977E0,9.924922486E0
1.709048267E0,5.020500422E-1,3.931950092E0,9.175050735E0,9.994690679E0
1.711011344E0,4.639500082E-1,3.970950127E0,9.098999977E0,9.938586172E0
1.712974421E0,4.639500082E-1,3.970950127E0,9.136950493E0,9.973342410E0
1.714937651E0,5.020500422E-1,3.970950127E0,9.060000420E0,9.904751726E0
1.716900823E0,4.260000288E-1,4.009050369E0,9.098999977E0,9.952173706E0
1.718864109E0,4.260000288E-1,4.009050369E0,9.098999977E0,9.952173706E0
1.720827361E0,4.639500082E-1,4.009050369E0,9.098999977E0,9.953870356E0
1.722790409E0,4.639500082E-1,4.009050369E0,9.022050858E0,9.883579116E0
1.724753517E0,4.260000288E-1,4.009050369E0,9.022050858E0,9.881870398E0
1.726716702E0,4.260000288E-1,3.970950127E0,9.098999977E0,9.936886913E0
1.728679879E0,4.260000288E-1,4.009050369E0,9.060000420E0,9.916530063E0
1.730642985E0,4.639500082E-1,4.047000408E0,9.022050858E0,9.899033467E0
1.732606112E0,4.639500082E-1,4.009050369E0,9.022050858E0,9.883579116E0
1.734569135E0,4.260000288E-1,3.970950127E0,9.060000420E0,9.901188239E0
1.736532189E0,5.020500422E-1,4.009050369E0,9.060000420E0,9.920088040E0
1.738495075E0,4.260000288E-1,4.009050369E0,9.060000420E0,9.916530063E0
1.740458021E0,4.260000288E-1,4.009050369E0,9.022050858E0,9.881870398E0
1.742420940E0,4.639500082E-1,4.009050369E0,9.136950493E0,9.988573411E0
1.744383867E0,4.639500082E-1,4.009050369E0,9.098999977E0,9.953870356E0
1.746347014E0,4.260000288E-1,4.009050369E0,9.060000420E0,9.916530063E0
1.748310096E0,4.260000288E-1,4.009050369E0,9.098999977E0,9.952173706E0
1.750273308E0,4.260000288E-1,3.931950092E0,9.098999977E0,9.921366243E0
1.752236481E0,4.260000288E-1,4.009050369E0,9.098999977E0,9.952173706E0
1.754199767E0,4.260000288E-1,3.970950127E0,9.136950493E0,9.971649073E0
1.756163019E0,4.260000288E-1,4.009050369E0,9.175050735E0,1.002175219E1
1.758126382E0,4.260000288E-1,4.009050369E0,9.175050735E0,1.002175219E1
1.760089712E0,4.260000288E-1,3.970950127E0,9.175050735E0,1.000657169E1
1.762052615E0,4.639500082E-1,3.970950127E0,9.214050293E0,1.004402396E1
1.764015641E0,4.639500082E-1,3.970950127E0,9.214050293E0,1.004402396E1
1.765978546E0,4.639500082E-1,3.970950127E0,9.136950493E0,9.973342410E0
1.767941487E0,5.020500422E-1,3.931950092E0,9.175050735E0,9.994690679E0
1.769904586E0,5.020500422E-1,3.931950092E0,9.252000809E0,1.006537653E1
1.771867639E0,4.639500082E-1,3.931950092E0,9.175050735E0,9.992849300E0
1.773830492E0,5.020500422E-1,3.894000292E0,9.136950493E0,9.944805520E0
1.775793406E0,4.260000288E-1,3.894000292E0,9.214050293E0,1.001216446E1
1.777756375E0,4.639500082E-1,3.931950092E0,9.214050293E0,1.002866910E1
1.779719327E0,5.410500169E-1,3.894000292E0,9.214050293E0,1.001771911E1
1.781682606E0,4.639500082E-1,3.931950092E0,9.214050293E0,1.002866910E1
1.783645789E0,4.639500082E-1,3.931950092E0,9.214050293E0,1.002866910E1
1.785608648E0,4.639500082E-1,3.931950092E0,9.136950493E0,9.957878562E0
1.787571617E0,4.639500082E-1,3.894000292E0,9.136950493E0,9.942954902E0
1.789534846E0,4.639500082E-1,3.894000292E0,9.214050293E0,1.001385094E1
1.791497999E0,4.639500082E-1,3.894000292E0,9.175050735E0,9.977977946E0
1.793461243E0,4.639500082E-1,3.894000292E0,9.214050293E0,1.001385094E1
1.795424461E0,5.020500422E-1,3.894000292E0,9.175050735E0,9.979822068E0
1.797387943E0,4.260000288E-1,3.894000292E0,9.252000809E0,1.004710074E1
1.799351331E0,4.639500082E-1,3.894000292E0,9.214050293E0,1.001385094E1
1.801314491E0,4.639500082E-1,3.894000292E0,9.175050735E0,9.977977946E0
1.803277718E0,5.020500422E-1,3.894000292E0,9.214050293E0,1.001568846E1
1.805240948E0,4.639500082E-1,3.894000292E0,9.252000809E0,1.004878136E1
1.807204177E0,5.020500422E-1,3.856050253E0,9.214050293E0,1.000099498E1
1.809167565E0,4.639500082E-1,3.856050253E0,9.175050735E0,9.963228852E0
1.811130923E0,4.260000288E-1,3.856050253E0,9.214050293E0,9.997465798E0
1.813094178E0,4.260000288E-1,3.931950092E0,9.136950493E0,9.956182595E0
1.815057463E0,5.020500422E-1,3.894000292E0,9.136950493E0,9.944805520E0
1.817020504E0,4.260000288E-1,3.894000292E0,9.175050735E0,9.976285396E0
1.818983617E0,4.639500082E-1,3.856050253E0,9.252000809E0,1.003413634E1
1.820946643E0,4.260000288E-1,3.894000292E0,9.214050293E0,1.001216446E1
1.822909694E0,4.260000288E-1,3.894000292E0,9.214050293E0,1.001216446E1
1.824872595E0,4.639500082E-1,3.894000292E0,9.175050735E0,9.977977946E0
1.826835540E0,5.020500422E-1,3.931950092E0,9.175050735E0,9.994690679E0
1.828798684E0,5.020500422E-1,3.894000292E0,9.175050735E0,9.979822068E0
1.830761769E0,4.639500082E-1,3.931950092E0,9.175050735E0,9.992849300E0
1.832724644E0,4.639500082E-1,3.894000292E0,9.136950493E0,9.942954902E0
1.834687564E0,5.020500422E-1,3.894000292E0,9.175050735E0,9.979822068E0
1.836650486E0,4.639500082E-1,3.856050253E0,9.252000809E0,1.003413634E1
1.838613408E0,4.260000288E-1,3.894000292E0,9.175050735E0,9.976285396E0
1.840576512E0,4.639500082E-1,3.894000292E0,9.136950493E0,9.942954902E0
1.842539562E0,4.639500082E-1,3.894000292E0,9.214050293E0,1.001385094E1
1.844502723E0,4.639500082E-1,3.894000292E0,9.098999977E0,9.908092070E0
1.846465827E0,4.639500082E-1,3.894000292E0,9.214050293E0,1.001385094E1
1.848428900E0,5.020500422E-1,3.894000292E0,9.252000809E0,1.005061249E1
1.850391983E0,5.410500169E-1,3.894000292E0,9.214050293E0,1.001771911E1
1.852355238E0,5.020500422E-1,3.894000292E0,9.136950493E0,9.944805520E0
1.854318442E0,4.260000288E-1,3.894000292E0,9.214050293E0,1.001216446E1
1.856281419E0,4.639500082E-1,3.894000292E0,9.175050735E0,9.977977946E0
1.858244487E0,4.639500082E-1,3.931950092E0,9.252000809E0,1.006354809E1
1.860207430E0,4.639500082E-1,3.894000292E0,9.136950493E0,9.942954902E0
1.862170410E0,5.020500422E-1,3.894000292E0,9.214050293E0,1.001568846E1
1.864133323E0,5.410500169E-1,3.894000292E0,9.175050735E0,9.981860017E0
1.866096256E0,5.020500422E-1,3.931950092E0,9.175050735E0,9.994690679E0
1.868059002E0,4.639500082E-1,3.894000292E0,9.175050735E0,9.977977946E0
1.870021800E0,4.639500082E-1,3.931950092E0,9.175050735E0,9.992849300E0
1.871984879E0,5.020500422E-1,3.931950092E0,9.175050735E0,9.994690679E0
1.873947875E0,5.020500422E-1,3.894000292E0,9.175050735E0,9.979822068E0
1.875911011E0,5.020500422E-1,3.894000292E0,9.214050293E0,1.001568846E1
1.877874106E0,5.410500169E-1,3.970950127E0,9.098999977E0,9.942483624E0
1.879837180E0,4.639500082E-1,3.931950092E0,9.098999977E0,9.923068161E0
1.881800261E0,5.020500422E-1,3.894000292E0,9.136950493E0,9.944805520E0
1.883763157E0,5.020500422E-1,3.931950092E0,9.136950493E0,9.959726406E0
1.885726108E0,4.639500082E-1,3.970950127E0,9.098999977E0,9.938586172E0
1.887688981E0,5.020500422E-1,3.931950092E0,9.060000420E0,9.889180622E0
1.889651877E0,5.020500422E-1,3.970950127E0,9.022050858E0,9.870050700E0
1.891614994E0,5.020500422E-1,3.931950092E0,9.098999977E0,9.924922486E0
1.893578039E0,4.639500082E-1,3.970950127E0,9.022050858E0,9.868186064E0
1.895540942E0,4.639500082E-1,3.970950127E0,9.022050858E0,9.868186064E0
1.897503887E0,4.639500082E-1,3.970950127E0,9.060000420E0,9.902893624E0
1.899466626E0,4.639500082E-1,4.009050369E0,9.060000420E0,9.918232810E0
1.901429425E0,4.260000288E-1,3.970950127E0,9.022050858E0,9.866474680E0
1.903392398E0,4.639500082E-1,3.970950127E0,8.983950615E0,9.833364794E0
1.905355331E0,4.639500082E-1,3.931950092E0,9.022050858E0,9.852557171E0
1.907318749E0,4.639500082E-1,4.009050369E0,8.944950104E0,9.813249555E0
1.909282024E0,5.020500422E-1,3.970950127E0,8.983950615E0,9.835236032E0
1.911245248E0,4.639500082E-1,3.970950127E0,8.983950615E0,9.833364794E0
1.913208487E0,4.639500082E-1,3.931950092E0,8.983950615E0,9.817680469E0
1.915171737E0,4.639500082E-1,3.970950127E0,8.983950615E0,9.833364794E0
1.917134969E0,4.639500082E-1,3.970950127E0,8.983950615E0,9.833364794E0
1.919097884E0,4.260000288E-1,3.931950092E0,9.022050858E0,9.850843072E0
1.921060892E0,4.260000288E-1,3.931950092E0,9.060000420E0,9.885611522E0
1.923024115E0,4.260000288E-1,3.931950092E0,9.060000420E0,9.885611522E0
1.924987275E0,4.260000288E-1,3.931950092E0,9.098999977E0,9.921366243E0
1.926950513E0,4.639500082E-1,3.931950092E0,9.098999977E0,9.923068161E0
1.928913731E0,4.260000288E-1,3.931950092E0,9.060000420E0,9.885611522E0
1.930876964E0,4.260000288E-1,3.931950092E0,9.136950493E0,9.956182595E0
1.932840193E0,4.260000288E-1,3.970950127E0,9.098999977E0,9.936886913E0
1.934803469E0,4.639500082E-1,3.970950127E0,9.136950493E0,9.973342410E0
1.936766731E0,4.639500082E-1,3.931950092E0,9.136950493E0,9.957878562E0
1.938730133E0,4.639500082E-1,3.931950092E0,9.136950493E0,9.957878562E0
1.940693496E0,5.020500422E-1,3.931950092E0,9.175050735E0,9.994690679E0
1.942656841E0,4.639500082E-1,3.970950127E0,9.175050735E0,1.000825912E1
1.944620191E0,4.639500082E-1,3.931950092E0,9.214050293E0,1.002866910E1
1.946583401E0,4.260000288E-1,3.931950092E0,9.214050293E0,1.002698511E1
1.948546652E0,4.639500082E-1,3.931950092E0,9.098999977E0,9.923068161E0
1.950509753E0,4.260000288E-1,3.894000292E0,9.214050293E0,1.001216446E1
1.952472892E0,5.020500422E-1,3.931950092E0,9.175050735E0,9.994690679E0
1.954436318E0,4.260000288E-1,3.970950127E0,9.214050293E0,1.004234254E1
1.956399659E0,4.260000288E-1,3.894000292E0,9.175050735E0,9.976285396E0
1.958362692E0,4.639500082E-1,3.970950127E0,9.214050293E0,1.004402396E1
1.960325815E0,4.639500082E-1,3.931950092E0,9.289950371E0,1.009844835E1
1.962288709E0,4.639500082E-1,3.894000292E0,9.252000809E0,1.004878136E1
1.964251666E0,4.260000288E-1,3.931950092E0,9.252000809E0,1.006186993E1
1.966214943E0,4.639500082E-1,3.931950092E0,9.252000809E0,1.006354809E1
1.968178126E0,4.260000288E-1,3.970950127E0,9.252000809E0,1.007717420E1
1.970141365E0,4.260000288E-1,3.931950092E0,9.214050293E0,1.002698511E1
1.972104587E0,4.260000288E-1,3.931950092E0,9.252000809E0,1.006186993E1
1.974067609E0,4.260000288E-1,3.931950092E0,9.289950371E0,1.009677599E1
1.976030680E0,4.260000288E-1,3.931950092E0,9.214050293E0,1.002698511E1
1.977993982E0,4.639500082E-1,3.931950092E0,9.214050293E0,1.002866910E1
1.979957217E0,4.260000288E-1,3.970950127E0,9.289950371E0,1.011202743E1
1.981920763E0,4.639500082E-1,3.931950092E0,9.252000809E0,1.006354809E1
1.983884217E0,4.639500082E-1,3.856050253E0,9.252000809E0,1.003413634E1
1.985847267E0,5.020500422E-1,3.894000292E0,9.289950371E0,1.008555752E1
1.987810441E0,4.639500082E-1,3.894000292E0,9.252000809E0,1.004878136E1
1.989773996E0,4.639500082E-1,3.931950092E0,9.289950371E0,1.009844835E1
1.991737439E0,4.639500082E-1,3.970950127E0,9.328050613E0,1.014870547E1
1.993700815E0,4.260000288E-1,3.970950127E0,9.289950371E0,1.011202743E1
1.995664210E0,4.639500082E-1,3.894000292E0,9.289950371E0,1.008373273E1
1.997627412E0,4.260000288E-1,3.894000292E0,9.289950371E0,1.008205793E1
1.999590671E0,5.020500422E-1,3.970950127E0,9.252000809E0,1.008067548E1
2.001553581E0,4.639500082E-1,3.931950092E0,9.252000809E0,1.006354809E1
2.003516594E0,5.020500422E-1,3.931950092E0,9.252000809E0,1.006537653E1
2.005479997E0,4.260000288E-1,3.970950127E0,9.289950371E0,1.011202743E1
2.007443285E0,4.639500082E-1,3.931950092E0,9.252000809E0,1.006354809E1
2.009406511E0,4.639500082E-1,3.970950127E0,9.289950371E0,1.011369727E1
2.011369752E0,4.260000288E-1,3.931950092E0,9.214050293E0,1.002698511E1
2.013332846E0,4.639500082E-1,3.931950092E0,9.289950371E0,1.009844835E1
2.015295983E0,4.260000288E-1,3.931950092E0,9.252000809E0,1.006186993E1
2.017259364E0,5.020500422E-1,3.970950127E0,9.214050293E0,1.004585596E1
2.019222673E0,4.639500082E-1,3.931950092E0,9.214050293E0,1.002866910E1
2.021185859E0,4.260000288E-1,3.970950127E0,9.214050293E0,1.004234254E1
2.023149104E0,4.260000288E-1,3.894000292E0,9.252000809E0,1.004710074E1
2.025112376E0,4.639500082E-1,3.970950127E0,9.252000809E0,1.007884981E1
2.027075640E0,4.639500082E-1,3.970950127E0,9.175050735E0,1.000825912E1
2.029038641E0,5.020500422E-1,3.970950127E0,9.214050293E0,1.004585596E1
2.031001719E0,4.260000288E-1,4.009050369E0,9.214050293E0,1.005746905E1
2.032964941E0,4.639500082E-1,4.009050369E0,9.136950493E0,9.988573411E0
2.034928145E0,5.020500422E-1,3.970950127E0,9.214050293E0,1.004585596E1
2.036891380E0,4.260000288E-1,4.009050369E0,9.175050735E0,1.002175219E1
2.038854606E0,4.639500082E-1,3.931950092E0,9.175050735E0,9.992849300E0
2.040818018E0,5.410500169E-1,3.970950127E0,9.175050735E0,1.001212945E1
2.042781376E0,5.020500422E-1,3.894000292E0,9.214050293E0,1.001568846E1
2.044744420E0,5.020500422E-1,3.970950127E0,9.214050293E0,1.004585596E1
2.046707546E0,4.639500082E-1,3.970950127E0,9.136950493E0,9.973342410E0
2.048670479E0,4.260000288E-1,3.970950127E0,9.214050293E0,1.004234254E1
2.050633469E0,4.260000288E-1,3.970950127E0,9.252000809E0,1.007717420E1
2.052596559E0,4.260000288E-1,3.931950092E0,9.214050293E0,1.002698511E1
2.054559620E0,4.260000288E-1,3.970950127E0,9.214050293E0,1.004234254E1
2.056522671E0,4.260000288E-1,3.970950127E0,9.175050735E0,1.000657169E1
2.058485714E0,4.639500082E-1,3.970950127E0,9.214050293E0,1.004402396E1
2.060448976E0,4.260000288E-1,3.931950092E0,9.175050735E0,9.991159270E0
2.062412174E0,4.639500082E-1,3.970950127E0,9.214050293E0,1.004402396E1
2.064375276E0,4.639500082E-1,3.894000292E0,9.175050735E0,9.977977946E0
2.066338407E0,5.020500422E-1,3.931950092E0,9.175050735E0,9.994690679E0
2.068301769E0,4.260000288E-1,3.931950092E0,9.175050735E0,9.991159270E0
2.070265077E0,5.020500422E-1,3.931950092E0,9.214050293E0,1.003050390E1
2.072228161E0,5.020500422E-1,3.931950092E0,9.175050735E0,9.994690679E0
2.074191310E0,5.020500422E-1,3.931950092E0,9.136950493E0,9.959726406E0
2.076154553E0,4.260000288E-1,3.931950092E0,9.175050735E0,9.991159270E0
2.078117769E0,4.260000288E-1,3.894000292E0,9.175050735E0,9.976285396E0
2.080081008E0,3.870000243E-1,3.931950092E0,9.175050735E0,9.989572391E0
2.082044236E0,4.260000288E-1,3.894000292E0,9.136950493E0,9.941256390E0
2.084007243E0,5.020500422E-1,3.894000292E0,9.175050735E0,9.979822068E0
2.085970315E0,4.639500082E-1,3.894000292E0,9.175050735E0,9.977977946E0
2.087933392E0,4.639500082E-1,3.856050253E0,9.214050293E0,9.999154762E0
2.089896467E0,4.639500082E-1,3.856050253E0,9.175050735E0,9.963228852E0
2.091859715E0,5.020500422E-1,3.894000292E0,9.175050735E0,9.979822068E0
2.093822919E0,4.260000288E-1,3.931950092E0,9.175050735E0,9.991159270E0
2.095786020E0,5.020500422E-1,3.894000292E0,9.136950493E0,9.944805520E0
2.097749152E0,4.639500082E-1,3.856050253E0,9.175050735E0,9.963228852E0
2.099712354E0,5.410500169E-1,3.894000292E0,9.098999977E0,9.912001512E0
2.101675535E0,4.639500082E-1,3.894000292E0,9.098999977E0,9.908092070E0
2.103638444E0,4.260000288E-1,3.856050253E0,9.136950493E0,9.926452734E0
2.105601444E0,4.639500082E-1,3.894000292E0,9.136950493E0,9.942954902E0
2.107564893E0,4.260000288E-1,3.894000292E0,9.214050293E0,1.001216446E1
2.109528211E0,3.870000243E-1,3.931950092E0,9.098999977E0,9.919768199E0
2.111491562E0,4.639500082E-1,3.931950092E0,9.136950493E0,9.957878562E0
2.113454903E0,4.639500082E-1,3.931950092E0,9.136950493E0,9.957878562E0
2.115418166E0,4.639500082E-1,3.931950092E0,9.098999977E0,9.923068161E0
2.117381449E0,4.260000288E-1,3.931950092E0,9.098999977E0,9.921366243E0
2.119344805E0,4.260000288E-1,3.931950092E0,9.060000420E0,9.885611522E0
2.121308139E0,3.870000243E-1,3.894000292E0,9.060000420E0,9.868972332E0
2.123271218E0,5.020500422E-1,3.931950092E0,9.098999977E0,9.924922486E0
2.125234372E0,4.260000288E-1,3.970950127E0,9.098999977E0,9.936886913E0
2.127197629E0,3.870000243E-1,3.931950092E0,9.060000420E0,9.884007697E0
2.129160845E0,4.260000288E-1,3.970950127E0,9.060000420E0,9.901188239E0
2.131124035E0,4.260000288E-1,3.931950092E0,9.022050858E0,9.850843072E0
2.133087232E0,4.260000288E-1,3.931950092E0,9.098999977E0,9.921366243E0
2.135050468E0,4.260000288E-1,3.931950092E0,9.060000420E0,9.885611522E0
2.137013692E0,4.639500082E-1,3.931950092E0,9.060000420E0,9.887319593E0
2.138977164E0,4.639500082E-1,3.931950092E0,9.022050858E0,9.852557171E0
2.140940553E0,4.639500082E-1,3.931950092E0,9.022050858E0,9.852557171E0
2.142904072E0,4.260000288E-1,3.894000292E0,9.060000420E0,9.870578600E0
2.144867553E0,4.260000288E-1,3.931950092E0,9.060000420E0,9.885611522E0
2.146830607E0,5.020500422E-1,3.894000292E0,9.098999977E0,9.909949198E0
2.148793786E0,4.639500082E-1,3.894000292E0,9.098999977E0,9.908092070E0
2.150756993E0,4.639500082E-1,3.931950092E0,9.098999977E0,9.923068161E0
2.152720182E0,5.020500422E-1,3.894000292E0,9.060000420E0,9.874153134E0
2.154683420E0,4.639500082E-1,3.894000292E0,9.098999977E0,9.908092070E0
2.156646644E0,4.639500082E-1,3.856050253E0,9.098999977E0,9.893238790E0
2.158609697E0,5.020500422E-1,3.894000292E0,9.098999977E0,9.909949198E0
2.160572800E0,4.639500082E-1,3.931950092E0,9.098999977E0,9.923068161E0
2.162535916E0,4.260000288E-1,3.894000292E0,9.175050735E0,9.976285396E0
2.164499028E0,4.639500082E-1,3.856050253E0,9.136950493E0,9.928153780E0
2.166462234E0,4.639500082E-1,3.894000292E0,9.136950493E0,9.942954902E0
2.168425413E0,4.639500082E-1,3.894000292E0,9.136950493E0,9.942954902E0
2.170388519E0,5.020500422E-1,3.894000292E0,9.136950493E0,9.944805520E0
2.172351646E0,5.020500422E-1,3.931950092E0,9.136950493E0,9.959726406E0
2.174314674E0,5.020500422E-1,3.931950092E0,9.175050735E0,9.994690679E0
2.176277728E0,4.639500082E-1,3.856050253E0,9.136950493E0,9.928153780E0
2.178241033E0,3.870000243E-1,3.931950092E0,9.098999977E0,9.919768199E0
2.180204264E0,4.260000288E-1,3.894000292E0,9.136950493E0,9.941256390E0
2.182167271E0,4.260000288E-1,3.931950092E0,9.136950493E0,9.956182595E0
2.184130343E0,4.639500082E-1,3.894000292E0,9.136950493E0,9.942954902E0
2.186093294E0,4.639500082E-1,3.894000292E0,9.175050735E0,9.977977946E0
2.188056275E0,4.639500082E-1,3.931950092E0,9.136950493E0,9.957878562E0
2.190019503E0,4.260000288E-1,3.931950092E0,9.136950493E0,9.956182595E0
2.191982658E0,4.260000288E-1,3.931950092E0,9.136950493E0,9.956182595E0
2.193945723E0,4.260000288E-1,3.931950092E0,9.136950493E0,9.956182595E0
2.195908814E0,4.639500082E-1,3.931950092E0,9.098999977E0,9.923068161E0
2.197871708E0,4.260000288E-1,3.894000292E0,9.175050735E0,9.976285396E0
2.199834660E0,5.020500422E-1,3.931950092E0,9.175050735E0,9.994690679E0
2.201797937E0,4.260000288E-1,3.856050253E0,9.136950493E0,9.926452734E0
2.203761119E0,4.639500082E-1,3.894000292E0,9.175050735E0,9.977977946E0
2.205724358E0,4.639500082E-1,3.894000292E0,9.175050735E0,9.977977946E0
2.207687581E0,4.260000288E-1,3.931950092E0,9.175050735E0,9.991159270E0
2.209650857E0,4.639500082E-1,3.856050253E0,9.175050735E0,9.963228852E0
2.211614086E0,4.639500082E-1,3.931950092E0,9.214050293E0,1.002866910E1
2.213577183E0,4.260000288E-1,3.894000292E0,9.252000809E0,1.004710074E1
2.215540319E0,4.639500082E-1,3.894000292E0,9.175050735E0,9.977977946E0
2.217503341E0,5.020500422E-1,3.931950092E0,9.214050293E0,1.003050390E1
2.219466396E0,4.260000288E-1,3.931950092E0,9.214050293E0,1.002698511E1
2.221429564E0,4.639500082E-1,3.931950092E0,9.136950493E0,9.957878562E0
2.223392668E0,4.639500082E-1,3.931950092E0,9.214050293E0,1.002866910E1
2.225355920E0,4.639500082E-1,3.931950092E0,9.214050293E0,1.002866910E1
2.227319129E0,4.260000288E-1,3.931950092E0,9.214050293E0,1.002698511E1
2.229281959E0,4.639500082E-1,3.931950092E0,9.175050735E0,9.992849300E0
2.231244901E0,4.260000288E-1,3.931950092E0,9.214050293E0,1.002698511E1
2.233207821E0,4.260000288E-1,3.931950092E0,9.214050293E0,1.002698511E1
2.235170747E0,3.870000243E-1,3.931950092E0,9.175050735E0,9.989572391E0
2.237133714E0,3.870000243E-1,3.931950092E0,9.175050735E0,9.989572391E0
2.239096668E0,4.260000288E-1,3.894000292E0,9.175050735E0,9.976285396E0
2.241059721E0,4.260000288E-1,3.931950092E0,9.214050293E0,1.002698511E1
2.243022745E0,4.260000288E-1,3.970950127E0,9.175050735E0,1.000657169E1
2.244985687E0,3.870000243E-1,3.970950127E0,9.214050293E0,1.004076375E1
2.246948660E0,3.870000243E-1,3.931950092E0,9.214050293E0,1.002540390E1
2.248911889E0,4.260000288E-1,3.931950092E0,9.175050735E0,9.991159270E0
2.250875043E0,3.870000243E-1,3.931950092E0,9.214050293E0,1.002540390E1
2.252838287E0,3.870000243E-1,3.931950092E0,9.214050293E0,1.002540390E1
2.254801504E0,3.870000243E-1,3.970950127E0,9.214050293E0,1.004076375E1
2.256764378E0,4.639500082E-1,3.970950127E0,9.214050293E0,1.004402396E1
2.258727352E0,4.260000288E-1,3.970950127E0,9.214050293E0,1.004234254E1
2.260690131E0,4.260000288E-1,3.970950127E0,9.214050293E0,1.004234254E1
2.262652968E0,4.260000288E-1,3.931950092E0,9.175050735E0,9.991159270E0
2.264616040E0,4.639500082E-1,3.970950127E0,9.214050293E0,1.004402396E1
2.266579043E0,3.870000243E-1,3.931950092E0,9.214050293E0,1.002540390E1
2.268541934E0,4.260000288E-1,3.970950127E0,9.214050293E0,1.004234254E1
2.270504872E0,4.639500082E-1,3.970950127E0,9.214050293E0,1.004402396E1
2.272468017E0,4.639500082E-1,3.970950127E0,9.175050735E0,1.000825912E1
2.274431101E0,4.260000288E-1,4.009050369E0,9.175050735E0,1.002175219E1
2.276394133E0,4.639500082E-1,3.970950127E0,9.175050735E0,1.000825912E1
2.278357180E0,4.639500082E-1,3.970950127E0,9.175050735E0,1.000825912E1
2.280319935E0,4.260000288E-1,3.931950092E0,9.175050735E0,9.991159270E0
2.282282752E0,4.260000288E-1,3.970950127E0,9.175050735E0,1.000657169E1
2.284245873E0,4.639500082E-1,3.970950127E0,9.252000809E0,1.007884981E1
2.286208904E0,4.260000288E-1,3.931950092E0,9.175050735E0,9.991159270E0
2.288172169E0,4.639500082E-1,3.931950092E0,9.175050735E0,9.992849300E0
2.290135365E0,5.020500422E-1,3.970950127E0,9.214050293E0,1.004585596E1
2.292098238E0,5.020500422E-1,3.970950127E0,9.136950493E0,9.975187390E0
2.294061209E0,4.260000288E-1,3.931950092E0,9.136950493E0,9.956182595E0
2.296024483E0,4.639500082E-1,3.931950092E0,9.175050735E0,9.992849300E0
2.297987668E0,4.639500082E-1,3.970950127E0,9.175050735E0,1.000825912E1
2.299950728E0,5.410500169E-1,3.931950092E0,9.136950493E0,9.961768465E0
2.301913824E0,4.260000288E-1,3.970950127E0,9.136950493E0,9.971649073E0
2.303877316E0,4.639500082E-1,3.931950092E0,9.175050735E0,9.992849300E0
2.305840682E0,4.639500082E-1,3.970950127E0,9.175050735E0,1.000825912E1
2.307804070E0,4.639500082E-1,3.931950092E0,9.098999977E0,9.923068161E0
2.309767451E0,4.639500082E-1,3.931950092E0,9.175050735E0,9.992849300E0
2.311730477E0,4.260000288E-1,3.970950127E0,9.136950493E0,9.971649073E0
2.313693607E0,5.020500422E-1,3.970950127E0,9.136950493E0,9.975187390E0
2.315656606E0,4.639500082E-1,3.931950092E0,9.214050293E0,1.002866910E1
2.317619660E0,4.639500082E-1,3.894000292E0,9.175050735E0,9.977977946E0
2.319582740E0,4.639500082E-1,3.931950092E0,9.136950493E0,9.957878562E0
2.321545812E0,4.639500082E-1,3.894000292E0,9.175050735E0,9.977977946E0
2.323508935E0,4.639500082E-1,3.894000292E0,9.175050735E0,9.977977946E0
2.325472043E0,4.639500082E-1,3.931950092E0,9.175050735E0,9.992849300E0
2.327435092E0,4.639500082E-1,3.931950092E0,9.136950493E0,9.957878562E0
2.329398175E0,4.639500082E-1,3.970950127E0,9.175050735E0,1.000825912E1
2.331361970E0,5.020500422E-1,3.931950092E0,9.175050735E0,9.994690679E0
2.333325557E0,5.410500169E-1,3.894000292E0,9.214050293E0,1.001771911E1
2.335288187E0,5.020500422E-1,3.894000292E0,9.175050735E0,9.979822068E0
2.337251098E0,5.020500422E-1,3.931950092E0,9.136950493E0,9.959726406E0
2.339214202E0,5.020500422E-1,3.931950092E0,9.175050735E0,9.994690679E0
2.341177250E0,4.639500082E-1,3.894000292E0,9.175050735E0,9.977977946E0
2.343140467E0,5.020500422E-1,3.931950092E0,9.136950493E0,9.959726406E0
2.345103634E0,4.639500082E-1,3.931950092E0,9.175050735E0,9.992849300E0
2.347066697E0,4.260000288E-1,3.894000292E0,9.175050735E0,9.976285396E0
2.349029790E0,4.260000288E-1,3.970950127E0,9.175050735E0,1.000657169E1
2.350993213E0,4.260000288E-1,3.894000292E0,9.175050735E0,9.976285396E0
2.352956547E0,3.870000243E-1,3.931950092E0,9.175050735E0,9.989572391E0
2.354919581E0,4.639500082E-1,3.894000292E0,9.136950493E0,9.942954902E0
2.356882703E0,4.639500082E-1,3.894000292E0,9.175050735E0,9.977977946E0
2.358845412E0,4.639500082E-1,3.931950092E0,9.136950493E0,9.957878562E0
2.360808242E0,4.639500082E-1,3.931950092E0,9.175050735E0,9.992849300E0
2.362771190E0,4.639500082E-1,3.931950092E0,9.136950493E0,9.957878562E0
2.364734096E0,4.639500082E-1,3.931950092E0,9.175050735E0,9.992849300E0
2.366697202E0,4.639500082E-1,3.931950092E0,9.136950493E0,9.957878562E0
2.368660250E0,4.260000288E-1,3.931950092E0,9.136950493E0,9.956182595E0
2.370623377E0,4.639500082E-1,3.894000292E0,9.214050293E0,1.001385094E1
2.372586480E0,5.020500422E-1,3.894000292E0,9.098999977E0,9.909949198E0
2.374549334E0,4.639500082E-1,3.931950092E0,9.098999977E0,9.923068161E0
2.376512257E0,3.870000243E-1,3.931950092E0,9.136950493E0,9.954590140E0
2.378475224E0,4.639500082E-1,3.931950092E0,9.136950493E0,9.957878562E0
2.380438178E0,4.639500082E-1,3.931950092E0,9.175050735E0,9.992849300E0
2.382401097E0,4.639500082E-1,3.931950092E0,9.098999977E0,9.923068161E0
2.384364026E0,4.639500082E-1,3.894000292E0,9.175050735E0,9.977977946E0
2.386327107E0,4.639500082E-1,3.894000292E0,9.136950493E0,9.942954902E0
2.388290158E0,4.639500082E-1,3.931950092E0,9.098999977E0,9.923068161E0
2.390253195E0,4.639500082E-1,3.970950127E0,9.136950493E0,9.973342410E0
2.392216237E0,4.639500082E-1,3.931950092E0,9.136950493E0,9.957878562E0
2.394179004E0,4.639500082E-1,3.894000292E0,9.098999977E0,9.908092070E0
2.396141852E0,4.639500082E-1,3.931950092E0,9.175050735E0,9.992849300E0
2.398104943E0,4.639500082E-1,3.931950092E0,9.136950493E0,9.957878562E0
2.400067980E0,4.639500082E-1,3.894000292E0,9.098999977E0,9.908092070E0
2.402031019E0,5.020500422E-1,3.931950092E0,9.136950493E0,9.959726406E0
2.403994057E0,4.639500082E-1,3.931950092E0,9.175050735E0,9.992849300E0
2.405956961E0,4.260000288E-1,3.931950092E0,9.136950493E0,9.956182595E0
2.407919905E0,4.639500082E-1,3.931950092E0,9.098999977E0,9.923068161E0
2.409882795E0,4.639500082E-1,3.931950092E0,9.098999977E0,9.923068161E0
2.411845722E0,4.639500082E-1,3.931950092E0,9.175050735E0,9.992849300E0
2.413808509E0,4.639500082E-1,3.970950127E0,9.136950493E0,9.973342410E0
2.415771338E0,4.260000288E-1,3.931950092E0,9.098999977E0,9.921366243E0
2.417734231E0,4.260000288E-1,3.931950092E0,9.098999977E0,9.921366243E0
2.419697105E0,4.260000288E-1,3.970950127E0,9.136950493E0,9.971649073E0
2.421660027E0,4.639500082E-1,3.970950127E0,9.136950493E0,9.973342410E0
2.423622942E0,4.260000288E-1,3.970950127E0,9.098999977E0,9.936886913E0
2.425586092E0,4.639500082E-1,3.931950092E0,9.098999977E0,9.923068161E0
2.427549173E0,5.020500422E-1,3.931950092E0,9.060000420E0,9.889180622E0
2.429512565E0,4.639500082E-1,3.970950127E0,9.098999977E0,9.938586172E0
2.431475865E0,4.639500082E-1,3.931950092E0,9.136950493E0,9.957878562E0
2.433439235E0,4.639500082E-1,3.970950127E0,9.098999977E0,9.938586172E0
2.435402605E0,5.020500422E-1,3.970950127E0,9.060000420E0,9.904751726E0
2.437365633E0,4.639500082E-1,3.970950127E0,9.060000420E0,9.902893624E0
2.439328761E0,4.260000288E-1,3.970950127E0,9.060000420E0,9.901188239E0
2.441291829E0,5.020500422E-1,3.931950092E0,9.060000420E0,9.889180622E0
2.443254915E0,4.639500082E-1,3.970950127E0,9.098999977E0,9.938586172E0
2.445217975E0,5.020500422E-1,3.931950092E0,9.060000420E0,9.889180622E0
2.447181054E0,4.260000288E-1,3.970950127E0,9.098999977E0,9.936886913E0
2.449144355E0,4.260000288E-1,3.931950092E0,9.098999977E0,9.921366243E0
2.451107590E0,4.639500082E-1,3.931950092E0,9.098999977E0,9.923068161E0
2.453071001E0,4.639500082E-1,3.970950127E0,9.098999977E0,9.938586172E0
2.455034360E0,4.639500082E-1,3.970950127E0,9.136950493E0,9.973342410E0
2.456997875E0,5.020500422E-1,3.970950127E0,9.098999977E0,9.940437603E0
2.458961351E0,4.639500082E-1,3.970950127E0,9.136950493E0,9.973342410E0
2.460924225E0,5.020500422E-1,3.970950127E0,9.098999977E0,9.940437603E0
2.462887276E0,4.260000288E-1,3.931950092E0,9.098999977E0,9.921366243E0
2.464850356E0,4.639500082E-1,3.970950127E0,9.098999977E0,9.938586172E0
2.466813428E0,4.639500082E-1,3.931950092E0,9.136950493E0,9.957878562E0
2.468776626E0,4.260000288E-1,3.894000292E0,9.136950493E0,9.941256390E0
2.470739797E0,4.260000288E-1,3.931950092E0,9.098999977E0,9.921366243E0
2.472703263E0,4.639500082E-1,3.931950092E0,9.098999977E0,9.923068161E0
2.474666643E0,4.639500082E-1,3.931950092E0,9.098999977E0,9.923068161E0
2.476629669E0,5.020500422E-1,3.931950092E0,9.098999977E0,9.924922486E0
2.478592799E0,4.639500082E-1,3.931950092E0,9.098999977E0,9.923068161E0
2.480555827E0,4.260000288E-1,3.931950092E0,9.098999977E0,9.921366243E0
2.482518881E0,5.020500422E-1,3.931950092E0,9.098999977E0,9.924922486E0
2.484482141E0,4.260000288E-1,3.931950092E0,9.060000420E0,9.885611522E0
2.486445341E0,4.639500082E-1,3.931950092E0,9.060000420E0,9.887319593E0
2.488408218E0,4.639500082E-1,3.970950127E0,9.098999977E0,9.938586172E0
2.490371189E0,4.260000288E-1,3.894000292E0,9.060000420E0,9.870578600E0
2.492334638E0,4.639500082E-1,3.931950092E0,9.098999977E0,9.923068161E0
2.494297951E0,5.020500422E-1,3.931950092E0,9.136950493E0,9.959726406E0
2.496260853E0,4.639500082E-1,3.931950092E0,9.098999977E0,9.923068161E0
2.498223876E0,4.260000288E-1,3.931950092E0,9.098999977E0,9.921366243E0
2.500186737E0,4.639500082E-1,3.931950092E0,9.136950493E0,9.957878562E0
2.502149645E0,4.639500082E-1,3.894000292E0,9.136950493E0,9.942954902E0
2.504112945E0,4.639500082E-1,3.931950092E0,9.175050735E0,9.992849300E0
2.506076120E0,4.639500082E-1,3.894000292E0,9.175050735E0,9.977977946E0
2.508039046E0,3.490500152E-1,3.931950092E0,9.175050735E0,9.988174180E0
2.510002045E0,4.260000288E-1,3.931950092E0,9.175050735E0,9.991159270E0
2.511965270E0,3.870000243E-1,3.931950092E0,9.175050735E0,9.989572391E0
2.513928428E0,4.260000288E-1,3.894000292E0,9.214050293E0,1.001216446E1
2.515891371E0,4.260000288E-1,3.970950127E0,9.214050293E0,1.004234254E1
2.517854367E0,4.260000288E-1,3.894000292E0,9.252000809E0,1.004710074E1
2.519817772E0,4.260000288E-1,3.931950092E0,9.252000809E0,1.006186993E1
2.521781057E0,3.870000243E-1,3.970950127E0,9.289950371E0,1.011045953E1
2.523744280E0,4.260000288E-1,3.970950127E0,9.328050613E0,1.014704140E1
2.525707521E0,4.260000288E-1,3.931950092E0,9.289950371E0,1.009677599E1
2.527670794E0,3.870000243E-1,3.931950092E0,9.252000809E0,1.006029421E1
2.529634057E0,3.870000243E-1,3.970950127E0,9.289950371E0,1.011045953E1
2.531597462E0,4.260000288E-1,3.931950092E0,9.289950371E0,1.009677599E1
2.533560826E0,3.870000243E-1,3.931950092E0,9.328050613E0,1.013027782E1
2.535524035E0,3.870000243E-1,3.970950127E0,9.328050613E0,1.014547890E1
2.537487290E0,3.870000243E-1,3.931950092E0,9.289950371E0,1.009520572E1
2.539450516E0,4.260000288E-1,3.931950092E0,9.289950371E0,1.009677599E1
2.541413751E0,3.870000243E-1,3.970950127E0,9.252000809E0,1.007560087E1
2.543376801E0,3.870000243E-1,3.970950127E0,9.252000809E0,1.007560087E1
2.545339905E0,3.870000243E-1,3.970950127E0,9.214050293E0,1.004076375E1
2.547303112E0,3.870000243E-1,3.931950092E0,9.252000809E0,1.006029421E1
2.549266288E0,4.260000288E-1,3.970950127E0,9.214050293E0,1.004234254E1
2.551229694E0,3.870000243E-1,3.970950127E0,9.252000809E0,1.007560087E1
2.553193043E0,3.490500152E-1,3.970950127E0,9.214050293E0,1.003937267E1
2.555155939E0,3.870000243E-1,3.931950092E0,9.214050293E0,1.002540390E1
2.557118968E0,3.870000243E-1,3.970950127E0,9.252000809E0,1.007560087E1
2.559081828E0,4.260000288E-1,3.931950092E0,9.175050735E0,9.991159270E0
2.561044738E0,4.260000288E-1,3.970950127E0,9.214050293E0,1.004234254E1
2.563008002E0,4.639500082E-1,3.894000292E0,9.175050735E0,9.977977946E0
2.564971177E0,4.260000288E-1,3.931950092E0,9.214050293E0,1.002698511E1
2.566934238E0,4.639500082E-1,3.931950092E0,9.214050293E0,1.002866910E1
2.568897333E0,4.260000288E-1,3.894000292E0,9.136950493E0,9.941256390E0
2.570860407E0,4.639500082E-1,3.931950092E0,9.136950493E0,9.957878562E0
2.572823487E0,4.639500082E-1,3.931950092E0,9.175050735E0,9.992849300E0
2.574786263E0,5.020500422E-1,3.931950092E0,9.136950493E0,9.959726406E0
2.576749117E0,4.639500082E-1,3.894000292E0,9.136950493E0,9.942954902E0
2.578712051E0,4.639500082E-1,3.931950092E0,9.175050735E0,9.992849300E0
2.580674961E0,4.639500082E-1,3.931950092E0,9.214050293E0,1.002866910E1
2.582638247E0,5.020500422E-1,3.931950092E0,9.136950493E0,9.959726406E0
2.584601423E0,5.020500422E-1,3.894000292E0,9.214050293E0,1.001568846E1
2.586564774E0,4.639500082E-1,3.931950092E0,9.214050293E0,1.002866910E1
2.588528091E0,4.639500082E-1,3.931950092E0,9.175050735E0,9.992849300E0
2.590490768E0,4.639500082E-1,3.931950092E0,9.098999977E0,9.923068161E0
2.592453632E0,4.639500082E-1,3.894000292E0,9.175050735E0,9.977977946E0
2.594416609E0,4.639500082E-1,3.894000292E0,9.136950493E0,9.942954902E0
2.596379553E0,5.410500169E-1,3.970950127E0,9.136950493E0,9.977226285E0
2.598342612E0,5.020500422E-1,4.009050369E0,9.175050735E0,1.002527282E1
2.600305634E0,4.639500082E-1,3.931950092E0,9.098999977E0,9.923068161E0
2.602268765E0,4.639500082E-1,3.970950127E0,9.098999977E0,9.938586172E0
2.604231864E0,4.639500082E-1,3.970950127E0,9.136950493E0,9.973342410E0
2.606195298E0,4.260000288E-1,3.970950127E0,9.136950493E0,9.971649073E0
2.608158634E0,4.260000288E-1,4.009050369E0,9.136950493E0,9.986882657E0
2.610121664E0,4.260000288E-1,3.970950127E0,9.136950493E0,9.971649073E0
2.612084786E0,4.639500082E-1,3.970950127E0,9.136950493E0,9.973342410E0
2.614048034E0,4.260000288E-1,3.970950127E0,9.098999977E0,9.936886913E0
2.616011245E0,4.260000288E-1,3.970950127E0,9.098999977E0,9.936886913E0
2.617974435E0,4.260000288E-1,4.009050369E0,9.136950493E0,9.986882657E0
2.619937632E0,4.260000288E-1,3.970950127E0,9.175050735E0,1.000657169E1
2.621900586E0,4.639500082E-1,3.970950127E0,9.136950493E0,9.973342410E0
2.623863588E0,4.260000288E-1,3.970950127E0,9.098999977E0,9.936886913E0
2.625826812E0,5.020500422E-1,3.970950127E0,9.136950493E0,9.975187390E0
2.627789970E0,4.260000288E-1,3.931950092E0,9.136950493E0,9.956182595E0
2.629753079E0,4.639500082E-1,3.931950092E0,9.175050735E0,9.992849300E0
2.631716203E0,5.020500422E-1,3.931950092E0,9.136950493E0,9.959726406E0
2.633679115E0,4.639500082E-1,3.931950092E0,9.214050293E0,1.002866910E1
2.635642073E0,4.260000288E-1,3.931950092E0,9.214050293E0,1.002698511E1
2.637605305E0,5.020500422E-1,4.009050369E0,9.175050735E0,1.002527282E1
2.639568456E0,5.020500422E-1,3.894000292E0,9.175050735E0,9.979822068E0
2.641531341E0,4.639500082E-1,3.931950092E0,9.175050735E0,9.992849300E0
2.643494304E0,5.020500422E-1,3.970950127E0,9.214050293E0,1.004585596E1
2.645457230E0,5.020500422E-1,3.931950092E0,9.175050735E0,9.994690679E0
2.647420160E0,4.639500082E-1,3.894000292E0,9.175050735E0,9.977977946E0
2.649383306E0,4.639500082E-1,3.894000292E0,9.175050735E0,9.977977946E0
2.651346389E0,5.020500422E-1,3.894000292E0,9.214050293E0,1.001568846E1
2.653309645E0,5.020500422E-1,3.894000292E0,9.175050735E0,9.979822068E0
2.655272851E0,4.639500082E-1,3.856050253E0,9.175050735E0,9.963228852E0
2.657236192E0,4.639500082E-1,3.894000292E0,9.214050293E0,1.001385094E1
2.659199514E0,4.639500082E-1,3.894000292E0,9.175050735E0,9.977977946E0
2.661162954E0,4.639500082E-1,3.931950092E0,9.175050735E0,9.992849300E0
2.663126360E0,4.639500082E-1,3.856050253E0,9.175050735E0,9.963228852E0
2.665089697E0,4.639500082E-1,3.856050253E0,9.175050735E0,9.963228852E0
2.667053054E0,4.260000288E-1,3.856050253E0,9.136950493E0,9.926452734E0
2.669016263E0,4.260000288E-1,3.856050253E0,9.136950493E0,9.926452734E0
2.670979516E0,4.639500082E-1,3.894000292E0,9.175050735E0,9.977977946E0
2.672942743E0,4.260000288E-1,3.894000292E0,9.175050735E0,9.976285396E0
2.674905978E0,4.639500082E-1,3.931950092E0,9.214050293E0,1.002866910E1
2.676869432E0,4.639500082E-1,3.931950092E0,9.175050735E0,9.992849300E0
2.678832822E0,4.639500082E-1,3.931950092E0,9.175050735E0,9.992849300E0
2.680796026E0,4.639500082E-1,3.894000292E0,9.098999977E0,9.908092070E0
2.682759285E0,5.020500422E-1,3.894000292E0,9.136950493E0,9.944805520E0
2.684722466E0,4.639500082E-1,3.894000292E0,9.136950493E0,9.942954902E0
2.686685670E0,4.639500082E-1,3.856050253E0,9.175050735E0,9.963228852E0
2.688648725E0,4.639500082E-1,3.894000292E0,9.175050735E0,9.977977946E0
2.690611824E0,4.639500082E-1,3.894000292E0,9.175050735E0,9.977977946E0
2.692574762E0,5.020500422E-1,3.894000292E0,9.136950493E0,9.944805520E0
2.694537747E0,4.639500082E-1,3.894000292E0,9.136950493E0,9.942954902E0
2.696501199E0,4.639500082E-1,3.931950092E0,9.136950493E0,9.957878562E0
2.698464514E0,4.639500082E-1,3.894000292E0,9.098999977E0,9.908092070E0
2.700427911E0,5.410500169E-1,3.894000292E0,9.136950493E0,9.946850642E0
2.702391283E0,5.410500169E-1,3.931950092E0,9.175050735E0,9.996725596E0
2.704354265E0,5.020500422E-1,3.970950127E0,9.136950493E0,9.975187390E0
2.706317362E0,4.639500082E-1,3.894000292E0,9.214050293E0,1.001385094E1
2.708280615E0,5.020500422E-1,3.894000292E0,9.175050735E0,9.979822068E0
2.710243822E0,5.020500422E-1,3.894000292E0,9.136950493E0,9.944805520E0
2.712207057E0,5.410500169E-1,3.894000292E0,9.175050735E0,9.981860017E0
2.714170283E0,5.410500169E-1,3.894000292E0,9.175050735E0,9.981860017E0
2.716133166E0,5.020500422E-1,3.894000292E0,9.136950493E0,9.944805520E0
2.718096174E0,5.020500422E-1,3.931950092E0,9.175050735E0,9.994690679E0
2.720059577E0,5.020500422E-1,3.931950092E0,9.136950493E0,9.959726406E0
2.722022865E0,5.020500422E-1,3.894000292E0,9.175050735E0,9.979822068E0
2.723986087E0,5.020500422E-1,3.970950127E0,9.136950493E0,9.975187390E0
2.725949328E0,4.260000288E-1,3.894000292E0,9.136950493E0,9.941256390E0
2.727912404E0,4.639500082E-1,3.894000292E0,9.214050293E0,1.001385094E1
2.729875541E0,4.639500082E-1,3.970950127E0,9.175050735E0,1.000825912E1
2.731838787E0,4.639500082E-1,3.931950092E0,9.175050735E0,9.992849300E0
2.733802001E0,4.639500082E-1,3.931950092E0,9.175050735E0,9.992849300E0
2.735765190E0,3.870000243E-1,3.931950092E0,9.136950493E0,9.954590140E0
2.737728387E0,4.639500082E-1,3.931950092E0,9.175050735E0,9.992849300E0
2.739691249E0,4.639500082E-1,3.931950092E0,9.214050293E0,1.002866910E1
2.741654219E0,4.260000288E-1,3.931950092E0,9.136950493E0,9.956182595E0
2.743617313E0,5.020500422E-1,3.931950092E0,9.175050735E0,9.994690679E0
2.745580371E0,4.639500082E-1,3.931950092E0,9.175050735E0,9.992849300E0
2.747543272E0,5.020500422E-1,3.931950092E0,9.175050735E0,9.994690679E0
2.749506219E0,4.260000288E-1,3.931950092E0,9.175050735E0,9.991159270E0
2.751469021E0,5.020500422E-1,3.931950092E0,9.175050735E0,9.994690679E0
2.753431853E0,4.260000288E-1,3.931950092E0,9.136950493E0,9.956182595E0
2.755394926E0,4.639500082E-1,3.931950092E0,9.175050735E0,9.992849300E0
2.757357928E0,5.020500422E-1,3.931950092E0,9.175050735E0,9.994690679E0
2.759321063E0,5.020500422E-1,3.970950127E0,9.136950493E0,9.975187390E0
2.761284159E0,3.870000243E-1,3.970950127E0,9.098999977E0,9.935291365E0
2.763247238E0,4.639500082E-1,3.931950092E0,9.098999977E0,9.923068161E0
2.765210319E0,5.020500422E-1,3.970950127E0,9.175050735E0,1.001009766E1
2.767173710E0,5.020500422E-1,3.931950092E0,9.214050293E0,1.003050390E1
2.769137010E0,4.260000288E-1,3.970950127E0,9.098999977E0,9.936886913E0
2.771099734E0,4.260000288E-1,3.931950092E0,9.136950493E0,9.956182595E0
2.773062627E0,4.260000288E-1,3.970950127E0,9.098999977E0,9.936886913E0
2.775025939E0,4.260000288E-1,3.931950092E0,9.136950493E0,9.956182595E0
2.776989111E0,4.260000288E-1,4.009050369E0,9.098999977E0,9.952173706E0
2.778952173E0,4.260000288E-1,3.970950127E0,9.136950493E0,9.971649073E0
2.780915267E0,4.639500082E-1,3.970950127E0,9.175050735E0,1.000825912E1
2.782878340E0,3.870000243E-1,3.970950127E0,9.136950493E0,9.970059089E0
2.784841420E0,4.260000288E-1,3.970950127E0,9.136950493E0,9.971649073E0
2.786804505E0,4.639500082E-1,3.970950127E0,9.175050735E0,1.000825912E1
2.788767583E0,4.260000288E-1,3.970950127E0,9.098999977E0,9.936886913E0
2.790730660E0,4.639500082E-1,4.009050369E0,9.098999977E0,9.953870356E0
2.792693737E0,4.260000288E-1,3.931950092E0,9.098999977E0,9.921366243E0
2.794656814E0,4.260000288E-1,3.970950127E0,9.136950493E0,9.971649073E0
2.796619891E0,4.260000288E-1,3.970950127E0,9.136950493E0,9.971649073E0
2.798583152E0,4.639500082E-1,3.931950092E0,9.136950493E0,9.957878562E0
2.800546355E0,4.639500082E-1,3.931950092E0,9.136950493E0,9.957878562E0
2.802509411E0,4.260000288E-1,3.970950127E0,9.136950493E0,9.971649073E0
2.804472511E0,4.260000288E-1,3.931950092E0,9.136950493E0,9.956182595E0
2.806435763E0,4.639500082E-1,3.931950092E0,9.136950493E0,9.957878562E0
2.808398971E0,4.639500082E-1,3.970950127E0,9.136950493E0,9.973342410E0
2.810362200E0,4.639500082E-1,3.970950127E0,9.136950493E0,9.973342410E0
2.812325427E0,4.260000288E-1,3.856050253E0,9.136950493E0,9.926452734E0
2.814288479E0,4.639500082E-1,3.970950127E0,9.175050735E0,1.000825912E1
2.816251583E0,5.020500422E-1,3.931950092E0,9.136950493E0,9.959726406E0
2.818214835E0,4.639500082E-1,3.931950092E0,9.136950493E0,9.957878562E0
2.820178043E0,4.260000288E-1,3.931950092E0,9.098999977E0,9.921366243E0
2.822141059E0,4.260000288E-1,3.931950092E0,9.175050735E0,9.991159270E0
2.824104127E0,4.260000288E-1,3.894000292E0,9.175050735E0,9.976285396E0
2.826067250E0,4.260000288E-1,3.931950092E0,9.136950493E0,9.956182595E0
2.828030356E0,4.639500082E-1,3.970950127E0,9.175050735E0,1.000825912E1
2.829993788E0,4.639500082E-1,3.894000292E0,9.175050735E0,9.977977946E0
2.831957125E0,4.639500082E-1,3.931950092E0,9.175050735E0,9.992849300E0
2.833920298E0,4.260000288E-1,3.894000292E0,9.175050735E0,9.976285396E0
2.835883516E0,4.639500082E-1,3.931950092E0,9.175050735E0,9.992849300E0
2.837846614E0,4.260000288E-1,3.894000292E0,9.175050735E0,9.976285396E0
2.839809747E0,5.020500422E-1,3.894000292E0,9.214050293E0,1.001568846E1
2.841772949E0,5.020500422E-1,3.894000292E0,9.175050735E0,9.979822068E0
2.843736130E0,3.870000243E-1,3.931950092E0,9.214050293E0,1.002540390E1
2.845699264E0,4.639500082E-1,3.894000292E0,9.175050735E0,9.977977946E0
2.847662392E0,4.639500082E-1,3.856050253E0,9.214050293E0,9.999154762E0
2.849625460E0,4.639500082E-1,3.894000292E0,9.175050735E0,9.977977946E0
2.851588545E0,4.260000288E-1,3.931950092E0,9.214050293E0,1.002698511E1
2.853551621E0,4.639500082E-1,3.894000292E0,9.214050293E0,1.001385094E1
2.855514699E0,5.020500422E-1,3.894000292E0,9.214050293E0,1.001568846E1
2.857477561E0,4.639500082E-1,3.894000292E0,9.175050735E0,9.977977946E0
2.859440479E0,5.020500422E-1,3.856050253E0,9.175050735E0,9.965075704E0
2.861403627E0,5.020500422E-1,3.894000292E0,9.175050735E0,9.979822068E0
2.863366707E0,4.639500082E-1,3.856050253E0,9.214050293E0,9.999154762E0
2.865329379E0,5.410500169E-1,3.894000292E0,9.175050735E0,9.981860017E0
2.867292171E0,4.639500082E-1,3.931950092E0,9.175050735E0,9.992849300E0
2.869255661E0,5.020500422E-1,3.856050253E0,9.214050293E0,1.000099498E1
2.871218943E0,5.020500422E-1,3.931950092E0,9.214050293E0,1.003050390E1
2.873182031E0,5.410500169E-1,3.931950092E0,9.175050735E0,9.996725596E0
2.875145176E0,5.020500422E-1,3.931950092E0,9.136950493E0,9.959726406E0
2.877108241E0,4.639500082E-1,3.970950127E0,9.136950493E0,9.973342410E0
2.879071330E0,4.260000288E-1,3.931950092E0,9.175050735E0,9.991159270E0
2.881034374E0,5.410500169E-1,3.931950092E0,9.136950493E0,9.961768465E0
2.882997421E0,4.639500082E-1,3.970950127E0,9.175050735E0,1.000825912E1
2.884960502E0,4.639500082E-1,3.931950092E0,9.136950493E0,9.957878562E0
2.886923573E0,4.260000288E-1,3.970950127E0,9.098999977E0,9.936886913E0
2.888886651E0,5.410500169E-1,3.970950127E0,9.098999977E0,9.942483624E0
2.890849726E0,4.639500082E-1,3.970950127E0,9.098999977E0,9.938586172E0
2.892812803E0,4.639500082E-1,3.970950127E0,9.060000420E0,9.902893624E0
2.894775880E0,4.639500082E-1,3.970950127E0,9.098999977E0,9.938586172E0
2.896739362E0,4.260000288E-1,3.931950092E0,9.136950493E0,9.956182595E0
2.898702726E0,4.639500082E-1,4.009050369E0,9.136950493E0,9.988573411E0
2.900666295E0,5.020500422E-1,3.970950127E0,9.098999977E0,9.940437603E0
2.902629803E0,5.020500422E-1,4.009050369E0,9.098999977E0,9.955718944E0
2.904592796E0,5.020500422E-1,3.970950127E0,9.136950493E0,9.975187390E0
2.906555916E0,4.639500082E-1,4.009050369E0,9.098999977E0,9.953870356E0
2.908518850E0,4.639500082E-1,3.970950127E0,9.098999977E0,9.938586172E0
2.910481839E0,4.639500082E-1,3.970950127E0,9.098999977E0,9.938586172E0
2.912445065E0,4.639500082E-1,3.970950127E0,9.136950493E0,9.973342410E0
2.914408222E0,4.639500082E-1,3.931950092E0,9.175050735E0,9.992849300E0
2.916371318E0,4.639500082E-1,3.970950127E0,9.098999977E0,9.938586172E0
2.918334410E0,3.870000243E-1,3.970950127E0,9.136950493E0,9.970059089E0
2.920297304E0,4.639500082E-1,3.931950092E0,9.175050735E0,9.992849300E0
2.922260256E0,4.260000288E-1,3.931950092E0,9.175050735E0,9.991159270E0
2.924223174E0,5.020500422E-1,3.970950127E0,9.136950493E0,9.975187390E0
2.926186102E0,4.260000288E-1,3.931950092E0,9.214050293E0,1.002698511E1
2.928149404E0,4.260000288E-1,3.894000292E0,9.175050735E0,9.976285396E0
2.930112582E0,4.639500082E-1,3.931950092E0,9.252000809E0,1.006354809E1
2.932075643E0,4.639500082E-1,3.970950127E0,9.214050293E0,1.004402396E1
2.934038738E0,4.639500082E-1,3.970950127E0,9.214050293E0,1.004402396E1
2.936001991E0,4.639500082E-1,3.931950092E0,9.252000809E0,1.006354809E1
2.937965197E0,4.639500082E-1,3.931950092E0,9.252000809E0,1.006354809E1
2.939928127E0,4.260000288E-1,3.931950092E0,9.252000809E0,1.006186993E1
2.941891131E0,4.260000288E-1,3.894000292E0,9.214050293E0,1.001216446E1
2.943854040E0,4.639500082E-1,3.931950092E0,9.252000809E0,1.006354809E1
2.945816977E0,3.870000243E-1,3.894000292E0,9.214050293E0,1.001058091E1
2.947780257E0,3.870000243E-1,3.931950092E0,9.252000809E0,1.006029421E1
2.949743437E0,4.260000288E-1,3.894000292E0,9.214050293E0,1.001216446E1
2.951706497E0,4.260000288E-1,3.894000292E0,9.214050293E0,1.001216446E1
2.953669593E0,4.260000288E-1,3.970950127E0,9.214050293E0,1.004234254E1
2.955632800E0,3.870000243E-1,3.931950092E0,9.252000809E0,1.006029421E1
2.957595975E0,3.870000243E-1,3.970950127E0,9.252000809E0,1.007560087E1
2.959559216E0,4.260000288E-1,3.894000292E0,9.252000809E0,1.004710074E1
2.961522437E0,3.870000243E-1,3.931950092E0,9.328050613E0,1.013027782E1
2.963485860E0,3.870000243E-1,3.894000292E0,9.289950371E0,1.008048536E1
2.965449216E0,4.260000288E-1,3.894000292E0,9.252000809E0,1.004710074E1
2.967412427E0,3.870000243E-1,3.931950092E0,9.289950371E0,1.009520572E1
2.969375680E0,3.870000243E-1,3.931950092E0,9.214050293E0,1.002540390E1
2.971338951E0,3.870000243E-1,3.970950127E0,9.214050293E0,1.004076375E1
2.973302216E0,3.870000243E-1,3.931950092E0,9.252000809E0,1.006029421E1
2.975265266E0,4.260000288E-1,3.931950092E0,9.214050293E0,1.002698511E1
2.977228376E0,4.260000288E-1,3.894000292E0,9.214050293E0,1.001216446E1
2.979191582E0,4.260000288E-1,3.931950092E0,9.214050293E0,1.002698511E1
2.981154759E0,4.260000288E-1,3.931950092E0,9.252000809E0,1.006186993E1
2.983117640E0,3.870000243E-1,3.931950092E0,9.214050293E0,1.002540390E1
2.985080607E0,4.260000288E-1,3.931950092E0,9.175050735E0,9.991159270E0
2.987043882E0,5.020500422E-1,3.894000292E0,9.214050293E0,1.001568846E1
2.989007066E0,4.260000288E-1,3.970950127E0,9.214050293E0,1.004234254E1
2.990970126E0,4.260000288E-1,3.931950092E0,9.136950493E0,9.956182595E0
2.992933222E0,4.639500082E-1,3.970950127E0,9.214050293E0,1.004402396E1
2.994896340E0,4.639500082E-1,3.931950092E0,9.214050293E0,1.002866910E1
2.996859451E0,4.639500082E-1,3.931950092E0,9.175050735E0,9.992849300E0
2.998822416E0,4.639500082E-1,3.894000292E0,9.214050293E0,1.001385094E1
3.000785468E0,4.639500082E-1,3.931950092E0,9.136950493E0,9.957878562E0
3.002748593E0,5.020500422E-1,3.931950092E0,9.175050735E0,9.994690679E0
3.004711697E0,5.020500422E-1,3.894000292E0,9.136950493E0,9.944805520E0
3.006674904E0,4.639500082E-1,3.931950092E0,9.175050735E0,9.992849300E0
3.008638081E0,5.020500422E-1,3.970950127E0,9.175050735E0,1.001009766E1
3.010601302E0,5.020500422E-1,3.970950127E0,9.098999977E0,9.940437603E0
3.012564524E0,4.639500082E-1,3.931950092E0,9.098999977E0,9.923068161E0
3.014527397E0,5.020500422E-1,3.931950092E0,9.175050735E0,9.994690679E0
3.016490372E0,5.020500422E-1,3.894000292E0,9.136950493E0,9.944805520E0
3.018453331E0,4.639500082E-1,3.931950092E0,9.098999977E0,9.923068161E0
3.020416295E0,5.020500422E-1,3.931950092E0,9.136950493E0,9.959726406E0
3.022379027E0,4.639500082E-1,3.894000292E0,9.060000420E0,9.872289273E0
3.024341830E0,4.639500082E-1,3.894000292E0,9.098999977E0,9.908092070E0
3.026304548E0,4.639500082E-1,3.894000292E0,9.060000420E0,9.872289273E0
3.028267291E0,5.020500422E-1,3.931950092E0,9.098999977E0,9.924922486E0
3.030230109E0,4.639500082E-1,3.856050253E0,9.098999977E0,9.893238790E0
3.032192905E0,5.020500422E-1,3.894000292E0,9.136950493E0,9.944805520E0
3.034156020E0,4.639500082E-1,3.894000292E0,9.060000420E0,9.872289273E0
3.036119048E0,5.020500422E-1,3.931950092E0,9.060000420E0,9.889180622E0
3.038081910E0,5.020500422E-1,3.931950092E0,9.098999977E0,9.924922486E0
3.040044820E0,4.639500082E-1,3.894000292E0,9.098999977E0,9.908092070E0
3.042007744E0,5.410500169E-1,3.856050253E0,9.060000420E0,9.861311590E0
3.043970664E0,5.020500422E-1,3.931950092E0,8.983950615E0,9.819554696E0
3.045933793E0,5.020500422E-1,3.931950092E0,9.022050858E0,9.854424765E0
3.047896875E0,4.639500082E-1,3.894000292E0,9.060000420E0,9.872289273E0
3.049859772E0,4.639500082E-1,3.894000292E0,9.060000420E0,9.872289273E0
3.051822723E0,5.410500169E-1,3.931950092E0,9.060000420E0,9.891237246E0
3.053785461E0,5.410500169E-1,3.894000292E0,9.098999977E0,9.912001512E0
3.055748261E0,5.020500422E-1,3.856050253E0,9.098999977E0,9.895098705E0
3.057710785E0,5.020500422E-1,3.894000292E0,9.060000420E0,9.874153134E0
3.059673400E0,5.020500422E-1,3.856050253E0,9.136950493E0,9.930007155E0
3.061636195E0,5.020500422E-1,3.856050253E0,9.175050735E0,9.965075704E0
3.063598937E0,5.020500422E-1,3.894000292E0,9.060000420E0,9.874153134E0
3.065562432E0,5.020500422E-1,3.894000292E0,9.098999977E0,9.909949198E0
3.067525706E0,5.410500169E-1,3.894000292E0,9.098999977E0,9.912001512E0
3.069488776E0,5.410500169E-1,3.894000292E0,9.136950493E0,9.946850642E0
3.071451920E0,5.020500422E-1,3.931950092E0,9.136950493E0,9.959726406E0
3.073414985E0,5.020500422E-1,3.894000292E0,9.136950493E0,9.944805520E0
3.075378073E0,5.020500422E-1,3.894000292E0,9.098999977E0,9.909949198E0
3.077341327E0,5.790000558E-1,3.894000292E0,9.098999977E0,9.914145446E0
3.079304533E0,5.020500422E-1,3.970950127E0,9.098999977E0,9.940437603E0
3.081267729E0,5.410500169E-1,3.931950092E0,9.136950493E0,9.961768465E0
3.083230925E0,4.639500082E-1,3.931950092E0,9.060000420E0,9.887319593E0
3.085194341E0,5.410500169E-1,3.970950127E0,9.136950493E0,9.977226285E0
3.087157692E0,4.639500082E-1,3.931950092E0,9.098999977E0,9.923068161E0
3.089120948E0,4.260000288E-1,3.931950092E0,9.136950493E0,9.956182595E0
3.091084232E0,5.020500422E-1,3.894000292E0,9.136950493E0,9.944805520E0
3.093047214E0,5.020500422E-1,3.970950127E0,9.060000420E0,9.904751726E0
3.095010295E0,4.639500082E-1,3.931950092E0,9.136950493E0,9.957878562E0
3.096973236E0,5.410500169E-1,3.931950092E0,9.060000420E0,9.891237246E0
3.098936218E0,5.020500422E-1,3.970950127E0,9.098999977E0,9.940437603E0
3.100899310E0,5.020500422E-1,3.931950092E0,9.098999977E0,9.924922486E0
3.102862370E0,4.260000288E-1,3.970950127E0,9.136950493E0,9.971649073E0
3.104825610E0,4.260000288E-1,3.931950092E0,9.098999977E0,9.921366243E0
3.106788812E0,4.260000288E-1,3.931950092E0,9.175050735E0,9.991159270E0
3.108752003E0,4.639500082E-1,3.970950127E0,9.175050735E0,1.000825912E1
3.110715198E0,4.260000288E-1,3.970950127E0,9.175050735E0,1.000657169E1
3.112678255E0,4.260000288E-1,3.894000292E0,9.214050293E0,1.001216446E1
3.114641352E0,4.260000288E-1,3.970950127E0,9.175050735E0,1.000657169E1
3.116604605E0,4.260000288E-1,3.970950127E0,9.175050735E0,1.000657169E1
3.118567812E0,3.870000243E-1,3.931950092E0,9.214050293E0,1.002540390E1
3.120531047E0,3.870000243E-1,3.931950092E0,9.214050293E0,1.002540390E1
3.122494273E0,4.639500082E-1,3.970950127E0,9.214050293E0,1.004402396E1
3.124457550E0,4.260000288E-1,3.970950127E0,9.252000809E0,1.007717420E1
3.126420812E0,4.260000288E-1,3.970950127E0,9.252000809E0,1.007717420E1
3.128384033E0,4.260000288E-1,3.970950127E0,9.252000809E0,1.007717420E1
3.130347270E0,4.260000288E-1,3.970950127E0,9.214050293E0,1.004234254E1
3.132310319E0,4.639500082E-1,3.931950092E0,9.252000809E0,1.006354809E1
3.134273424E0,4.260000288E-1,3.970950127E0,9.252000809E0,1.007717420E1
3.136236451E0,4.639500082E-1,3.931950092E0,9.252000809E0,1.006354809E1
3.138199501E0,5.020500422E-1,3.931950092E0,9.252000809E0,1.006537653E1
3.140162568E0,5.020500422E-1,3.970950127E0,9.289950371E0,1.011551665E1
3.142125639E0,4.639500082E-1,3.931950092E0,9.289950371E0,1.009844835E1
3.144088717E0,4.639500082E-1,3.970950127E0,9.289950371E0,1.011369727E1
3.146051793E0,4.260000288E-1,3.894000292E0,9.289950371E0,1.008205793E1
3.148014691E0,4.639500082E-1,3.970950127E0,9.252000809E0,1.007884981E1
3.149977641E0,4.639500082E-1,3.970950127E0,9.252000809E0,1.007884981E1
3.151940749E0,5.020500422E-1,3.931950092E0,9.252000809E0,1.006537653E1
3.153903803E0,4.639500082E-1,3.970950127E0,9.214050293E0,1.004402396E1
3.155866569E0,4.639500082E-1,3.931950092E0,9.289950371E0,1.009844835E1
3.157829420E0,4.639500082E-1,3.894000292E0,9.252000809E0,1.004878136E1
3.159792535E0,4.260000288E-1,3.970950127E0,9.252000809E0,1.007717420E1
3.161755572E0,4.260000288E-1,3.970950127E0,9.214050293E0,1.004234254E1
3.163718586E0,4.639500082E-1,3.931950092E0,9.214050293E0,1.002866910E1
3.165681624E0,4.260000288E-1,3.970950127E0,9.175050735E0,1.000657169E1
3.167644393E0,4.639500082E-1,3.970950127E0,9.214050293E0,1.004402396E1
3.169607241E0,4.639500082E-1,3.931950092E0,9.175050735E0,9.992849300E0
3.171570176E0,4.639500082E-1,3.931950092E0,9.175050735E0,9.992849300E0
3.173533086E0,5.020500422E-1,3.970950127E0,9.175050735E0,1.001009766E1
3.175496187E0,5.020500422E-1,3.931950092E0,9.214050293E0,1.003050390E1
3.177459235E0,4.260000288E-1,3.970950127E0,9.175050735E0,1.000657169E1
3.179422093E0,4.639500082E-1,3.970950127E0,9.175050735E0,1.000825912E1
3.181385007E0,5.020500422E-1,3.931950092E0,9.175050735E0,9.994690679E0
3.183348155E0,4.639500082E-1,3.931950092E0,9.175050735E0,9.992849300E0
3.185311235E0,5.020500422E-1,3.970950127E0,9.175050735E0,1.001009766E1
3.187274190E0,5.020500422E-1,3.970950127E0,9.175050735E0,1.001009766E1
3.189237141E0,4.639500082E-1,3.931950092E0,9.175050735E0,9.992849300E0
3.191200059E0,5.020500422E-1,3.931950092E0,9.175050735E0,9.994690679E0
3.193162987E0,5.020500422E-1,3.931950092E0,9.175050735E0,9.994690679E0
3.195126043E0,5.020500422E-1,3.931950092E0,9.214050293E0,1.003050390E1
3.197089062E0,5.020500422E-1,3.970950127E0,9.175050735E0,1.001009766E1
3.199052154E0,5.020500422E-1,3.931950092E0,9.214050293E0,1.003050390E1
3.201015221E0,5.020500422E-1,3.931950092E0,9.136950493E0,9.959726406E0
3.202978120E0,4.639500082E-1,3.931950092E0,9.136950493E0,9.957878562E0
3.204941069E0,5.020500422E-1,3.970950127E0,9.175050735E0,1.001009766E1
3.206904167E0,5.020500422E-1,3.931950092E0,9.214050293E0,1.003050390E1
3.208867221E0,5.020500422E-1,3.931950092E0,9.136950493E0,9.959726406E0
3.210830154E0,5.020500422E-1,3.894000292E0,9.136950493E0,9.944805520E0
3.212793132E0,4.639500082E-1,3.931950092E0,9.175050735E0,9.992849300E0
3.214755865E0,5.410500169E-1,3.894000292E0,9.098999977E0,9.912001512E0
3.216718670E0,4.639500082E-1,3.931950092E0,9.136950493E0,9.957878562E0
3.218681433E0,4.639500082E-1,3.894000292E0,9.136950493E0,9.942954902E0
3.220644209E0,4.639500082E-1,3.931950092E0,9.098999977E0,9.923068161E0
3.222606972E0,5.020500422E-1,3.894000292E0,9.136950493E0,9.944805520E0
3.224569742E0,5.020500422E-1,3.931950092E0,9.136950493E0,9.959726406E0
3.226532825E0,5.410500169E-1,3.931950092E0,9.136950493E0,9.961768465E0
3.228495817E0,4.639500082E-1,3.931950092E0,9.098999977E0,9.923068161E0
3.230458549E0,5.020500422E-1,3.931950092E0,9.060000420E0,9.889180622E0
3.232421358E0,5.410500169E-1,3.894000292E0,9.136950493E0,9.946850642E0
3.234384730E0,5.020500422E-1,3.894000292E0,9.098999977E0,9.909949198E0
3.236347919E0,5.020500422E-1,3.931950092E0,9.136950493E0,9.959726406E0
3.238310933E0,5.020500422E-1,3.894000292E0,9.098999977E0,9.909949198E0
3.240273998E0,5.020500422E-1,3.931950092E0,9.098999977E0,9.924922486E0
3.242236942E0,5.020500422E-1,3.894000292E0,9.098999977E0,9.909949198E0
3.244199921E0,5.020500422E-1,3.894000292E0,9.098999977E0,9.909949198E0
3.246162779E0,5.020500422E-1,3.931950092E0,9.136950493E0,9.959726406E0
3.248125680E0,5.020500422E-1,3.931950092E0,9.098999977E0,9.924922486E0
3.250088472E0,5.020500422E-1,3.931950092E0,9.098999977E0,9.924922486E0
3.252051296E0,5.020500422E-1,3.894000292E0,9.136950493E0,9.944805520E0
3.254014370E0,4.639500082E-1,3.931950092E0,9.098999977E0,9.923068161E0
3.255977371E0,5.020500422E-1,3.894000292E0,9.098999977E0,9.909949198E0
3.257940987E0,5.410500169E-1,3.970950127E0,9.060000420E0,9.906805117E0
3.259904433E0,5.410500169E-1,3.931950092E0,9.136950493E0,9.961768465E0
3.261866592E0,5.020500422E-1,3.931950092E0,9.098999977E0,9.924922486E0
3.263829128E0,4.639500082E-1,3.931950092E0,9.098999977E0,9.923068161E0
3.265792252E0,4.639500082E-1,3.931950092E0,9.136950493E0,9.957878562E0
3.267755203E0,5.020500422E-1,3.931950092E0,9.098999977E0,9.924922486E0
3.269718282E0,4.639500082E-1,3.931950092E0,9.060000420E0,9.887319593E0
3.271681337E0,4.639500082E-1,3.894000292E0,9.136950493E0,9.942954902E0
3.273644284E0,4.639500082E-1,3.931950092E0,9.060000420E0,9.887319593E0
3.275607262E0,4.639500082E-1,3.970950127E0,9.060000420E0,9.902893624E0
3.277569995E0,5.020500422E-1,3.931950092E0,9.136950493E0,9.959726406E0
3.279532800E0,4.260000288E-1,3.894000292E0,9.060000420E0,9.870578600E0
3.281495892E0,4.260000288E-1,3.931950092E0,9.175050735E0,9.991159270E0
3.283458890E0,5.020500422E-1,3.970950127E0,9.098999977E0,9.940437603E0
3.285422026E0,4.639500082E-1,3.970950127E0,9.060000420E0,9.902893624E0
3.287385121E0,4.260000288E-1,3.970950127E0,9.098999977E0,9.936886913E0
3.289348016E0,4.639500082E-1,3.931950092E0,9.136950493E0,9.957878562E0
3.291310969E0,4.260000288E-1,3.970950127E0,9.098999977E0,9.936886913E0
3.293274261E0,4.260000288E-1,3.970950127E0,9.098999977E0,9.936886913E0
3.295237443E0,4.260000288E-1,3.970950127E0,9.098999977E0,9.936886913E0
3.297200323E0,4.260000288E-1,4.009050369E0,9.098999977E0,9.952173706E0
3.299163291E0,3.870000243E-1,4.009050369E0,9.098999977E0,9.950580609E0
3.301126026E0,4.260000288E-1,3.931950092E0,9.136950493E0,9.956182595E0
3.303088829E0,3.870000243E-1,4.009050369E0,9.098999977E0,9.950580609E0
3.305051873E0,4.260000288E-1,3.970950127E0,9.060000420E0,9.901188239E0
3.307014870E0,4.260000288E-1,3.970950127E0,9.175050735E0,1.000657169E1
3.308977826E0,3.870000243E-1,3.970950127E0,9.136950493E0,9.970059089E0
3.310940795E0,4.260000288E-1,3.970950127E0,9.136950493E0,9.971649073E0
3.312903665E0,3.870000243E-1,3.970950127E0,9.136950493E0,9.970059089E0
3.314866564E0,4.260000288E-1,4.009050369E0,9.098999977E0,9.952173706E0
3.316829366E0,4.260000288E-1,3.970950127E0,9.136950493E0,9.971649073E0
3.318792190E0,4.639500082E-1,4.009050369E0,9.214050293E0,1.005914794E1
3.320755444E0,4.639500082E-1,3.970950127E0,9.175050735E0,1.000825912E1
3.322718572E0,4.639500082E-1,3.970950127E0,9.136950493E0,9.973342410E0
3.324681461E0,4.639500082E-1,3.970950127E0,9.098999977E0,9.938586172E0
3.326644421E0,4.260000288E-1,4.009050369E0,9.175050735E0,1.002175219E1
3.328607363E0,4.260000288E-1,3.931950092E0,9.175050735E0,9.991159270E0
3.330570323E0,4.639500082E-1,3.931950092E0,9.175050735E0,9.992849300E0
