"Time (s)","Acceleration x (m/s^2)","Acceleration y (m/s^2)","Acceleration z (m/s^2)","Absolute acceleration (m/s^2)"
3.332148900E-2,3.109500110E-1,3.856050253E0,9.098999977E0,9.887245018E0
3.528314900E-2,3.490500152E-1,3.817050219E0,9.098999977E0,9.873373733E0
3.724733600E-2,3.490500152E-1,3.817050219E0,9.060000420E0,9.837444581E0
3.920999700E-2,3.490500152E-1,3.817050219E0,9.098999977E0,9.873373733E0
4.117310500E-2,3.490500152E-1,3.894000292E0,9.060000420E0,9.867557032E0
4.313579100E-2,3.490500152E-1,3.856050253E0,9.136950493E0,9.923448180E0
4.509861800E-2,3.870000243E-1,3.856050253E0,9.060000420E0,9.854060086E0
4.706142300E-2,3.109500110E-1,3.856050253E0,9.060000420E0,9.851366457E0
4.902423400E-2,3.109500110E-1,3.817050219E0,9.022050858E0,9.801222575E0
5.098717500E-2,3.490500152E-1,3.856050253E0,9.060000420E0,9.852642644E0
5.295007800E-2,3.490500152E-1,3.856050253E0,9.060000420E0,9.852642644E0
5.491279100E-2,3.109500110E-1,3.817050219E0,9.060000420E0,9.836166422E0
5.687558400E-2,3.109500110E-1,3.856050253E0,9.060000420E0,9.851366457E0
5.883834900E-2,3.870000243E-1,3.894000292E0,9.098999977E0,9.904787119E0
6.080112300E-2,3.490500152E-1,3.817050219E0,9.060000420E0,9.837444581E0
6.276384600E-2,3.490500152E-1,3.856050253E0,9.060000420E0,9.852642644E0
6.472658400E-2,3.870000243E-1,3.894000292E0,9.098999977E0,9.904787119E0
6.668929600E-2,3.490500152E-1,3.817050219E0,9.136950493E0,9.908358723E0
6.865205900E-2,3.870000243E-1,3.817050219E0,9.098999977E0,9.874788199E0
7.061487400E-2,3.870000243E-1,3.856050253E0,9.136950493E0,9.924855509E0
7.257767400E-2,3.490500152E-1,3.856050253E0,9.136950493E0,9.923448180E0
7.454057300E-2,3.870000243E-1,3.778950214E0,9.175050735E0,9.930346909E0
7.650344300E-2,4.260000288E-1,3.856050253E0,9.175050735E0,9.961533796E0
7.846616100E-2,3.870000243E-1,3.856050253E0,9.214050293E0,9.995879920E0
8.042894900E-2,3.870000243E-1,3.856050253E0,9.175050735E0,9.959942197E0
8.239158000E-2,3.490500152E-1,3.856050253E0,9.098999977E0,9.888516575E0
8.435425700E-2,3.870000243E-1,3.817050219E0,9.175050735E0,9.944908114E0
8.631722100E-2,3.870000243E-1,3.817050219E0,9.214050293E0,9.980899969E0
8.828010100E-2,3.870000243E-1,3.778950214E0,9.214050293E0,9.966391350E0
9.024278800E-2,3.870000243E-1,3.817050219E0,9.214050293E0,9.980899969E0
9.220554500E-2,3.870000243E-1,3.856050253E0,9.252000809E0,1.003087292E1
9.416836100E-2,3.870000243E-1,3.856050253E0,9.252000809E0,1.003087292E1
9.613115900E-2,3.490500152E-1,3.856050253E0,9.252000809E0,1.002948047E1
9.809374400E-2,3.490500152E-1,3.817050219E0,9.252000809E0,1.001455078E1
1.000563910E-1,3.490500152E-1,3.778950214E0,9.289950371E0,1.003521193E1
1.020194760E-1,3.490500152E-1,3.856050253E0,9.289950371E0,1.006449886E1
1.039824460E-1,3.490500152E-1,3.817050219E0,9.252000809E0,1.001455078E1
1.059455870E-1,3.490500152E-1,3.817050219E0,9.289950371E0,1.004962120E1
1.079086770E-1,3.870000243E-1,3.778950214E0,9.289950371E0,1.003660359E1
1.098715720E-1,3.490500152E-1,3.817050219E0,9.289950371E0,1.004962120E1
1.118345250E-1,3.870000243E-1,3.817050219E0,9.289950371E0,1.005101086E1
1.137973900E-1,3.490500152E-1,3.817050219E0,9.289950371E0,1.004962120E1
1.157603190E-1,3.490500152E-1,3.778950214E0,9.328050613E0,1.007049298E1
1.177232410E-1,3.870000243E-1,3.817050219E0,9.289950371E0,1.005101086E1
1.196861650E-1,4.260000288E-1,3.778950214E0,9.328050613E0,1.007345368E1
1.216490430E-1,3.870000243E-1,3.778950214E0,9.289950371E0,1.003660359E1
1.236119340E-1,4.260000288E-1,3.817050219E0,9.289950371E0,1.005258804E1
1.255748130E-1,4.260000288E-1,3.778950214E0,9.289950371E0,1.003818303E1
1.275377300E-1,4.260000288E-1,3.778950214E0,9.252000809E0,1.000307251E1
1.295005200E-1,3.870000243E-1,3.778950214E0,9.252000809E0,1.000148752E1
1.314633470E-1,3.870000243E-1,3.817050219E0,9.252000809E0,1.001594531E1
1.334262860E-1,3.490500152E-1,3.778950214E0,9.252000809E0,1.000009098E1
1.353891920E-1,3.490500152E-1,3.778950214E0,9.252000809E0,1.000009098E1
1.373522630E-1,3.870000243E-1,3.778950214E0,9.214050293E0,9.966391350E0
1.393152790E-1,4.260000288E-1,3.817050219E0,9.175050735E0,9.946502119E0
1.412781870E-1,4.260000288E-1,3.817050219E0,9.214050293E0,9.982488227E0
1.432411270E-1,4.260000288E-1,3.856050253E0,9.214050293E0,9.997465798E0
1.452042260E-1,3.490500152E-1,3.817050219E0,9.252000809E0,1.001455078E1
1.471672790E-1,3.870000243E-1,3.817050219E0,9.214050293E0,9.980899969E0
1.491299950E-1,4.260000288E-1,3.817050219E0,9.175050735E0,9.946502119E0
1.510928140E-1,3.109500110E-1,3.856050253E0,9.175050735E0,9.957277211E0
1.530557990E-1,3.109500110E-1,3.856050253E0,9.175050735E0,9.957277211E0
1.550187350E-1,3.490500152E-1,3.856050253E0,9.214050293E0,9.994482591E0
1.569816120E-1,3.109500110E-1,3.856050253E0,9.136950493E0,9.922181100E0
1.589445060E-1,3.109500110E-1,3.856050253E0,9.175050735E0,9.957277211E0
1.609074130E-1,3.109500110E-1,3.856050253E0,9.175050735E0,9.957277211E0
1.628703310E-1,3.109500110E-1,3.856050253E0,9.175050735E0,9.957277211E0
1.648331210E-1,3.109500110E-1,3.856050253E0,9.136950493E0,9.922181100E0
1.667959480E-1,3.109500110E-1,3.856050253E0,9.175050735E0,9.957277211E0
1.687588860E-1,2.719500065E-1,3.856050253E0,9.252000809E0,1.002709326E1
1.707217920E-1,3.490500152E-1,3.856050253E0,9.175050735E0,9.958539826E0
1.726848740E-1,3.109500110E-1,3.894000292E0,9.252000809E0,1.004288042E1
1.746479220E-1,3.109500110E-1,3.856050253E0,9.214050293E0,9.993224518E0
1.766106440E-1,3.490500152E-1,3.894000292E0,9.175050735E0,9.973295854E0
1.785734620E-1,3.109500110E-1,3.856050253E0,9.252000809E0,1.002822678E1
1.805364030E-1,3.109500110E-1,3.894000292E0,9.214050293E0,1.000792941E1
1.824993070E-1,3.109500110E-1,3.856050253E0,9.252000809E0,1.002822678E1
1.844624130E-1,2.719500065E-1,3.817050219E0,9.214050293E0,9.977101382E0
1.864254600E-1,3.109500110E-1,3.931950092E0,9.175050735E0,9.986915311E0
1.883887230E-1,2.719500065E-1,3.856050253E0,9.214050293E0,9.992087027E0
1.903519220E-1,2.719500065E-1,3.856050253E0,9.252000809E0,1.002709326E1
1.923149340E-1,2.340000123E-1,3.894000292E0,9.252000809E0,1.004079246E1
1.942780010E-1,3.109500110E-1,3.894000292E0,9.289950371E0,1.007785226E1
1.962412250E-1,3.109500110E-1,3.856050253E0,9.214050293E0,9.993224518E0
1.982044270E-1,2.719500065E-1,3.894000292E0,9.289950371E0,1.007672432E1
2.001674840E-1,2.340000123E-1,3.856050253E0,9.252000809E0,1.002613577E1
2.021305830E-1,2.719500065E-1,3.894000292E0,9.252000809E0,1.004174856E1
2.040933410E-1,2.340000123E-1,3.894000292E0,9.252000809E0,1.004079246E1
2.060561990E-1,2.340000123E-1,3.856050253E0,9.252000809E0,1.002613577E1
2.080193900E-1,2.340000123E-1,3.894000292E0,9.175050735E0,9.969932311E0
2.099825240E-1,2.340000123E-1,3.894000292E0,9.252000809E0,1.004079246E1
2.119454570E-1,2.719500065E-1,3.894000292E0,9.252000809E0,1.004174856E1
2.139084490E-1,2.719500065E-1,3.931950092E0,9.214050293E0,1.002162218E1
2.158710000E-1,3.109500110E-1,3.856050253E0,9.252000809E0,1.002822678E1
2.178336800E-1,3.109500110E-1,3.894000292E0,9.175050735E0,9.972035107E0
2.197966580E-1,2.340000123E-1,3.856050253E0,9.214050293E0,9.991126181E0
2.217595380E-1,3.109500110E-1,3.894000292E0,9.214050293E0,1.000792941E1
2.237224240E-1,2.719500065E-1,3.894000292E0,9.252000809E0,1.004174856E1
2.256853080E-1,3.109500110E-1,3.894000292E0,9.214050293E0,1.000792941E1
2.276484180E-1,3.109500110E-1,3.856050253E0,9.214050293E0,9.993224518E0
2.296114610E-1,3.109500110E-1,3.856050253E0,9.214050293E0,9.993224518E0
2.315743650E-1,3.109500110E-1,3.817050219E0,9.252000809E0,1.001329522E1
2.335373100E-1,3.109500110E-1,3.894000292E0,9.175050735E0,9.972035107E0
2.354998680E-1,2.719500065E-1,3.856050253E0,9.252000809E0,1.002709326E1
2.374625400E-1,2.719500065E-1,3.817050219E0,9.252000809E0,1.001216001E1
2.394255060E-1,3.109500110E-1,3.817050219E0,9.214050293E0,9.978240580E0
2.413883850E-1,3.109500110E-1,3.856050253E0,9.136950493E0,9.922181100E0
2.433509560E-1,2.340000123E-1,3.856050253E0,9.214050293E0,9.991126181E0
2.453136170E-1,2.719500065E-1,3.856050253E0,9.175050735E0,9.956135614E0
2.472760890E-1,3.109500110E-1,3.894000292E0,9.175050735E0,9.972035107E0
2.492386170E-1,3.109500110E-1,3.894000292E0,9.136950493E0,9.936991119E0
2.512017420E-1,2.719500065E-1,3.894000292E0,9.098999977E0,9.900959330E0
2.531646920E-1,3.109500110E-1,3.894000292E0,9.136950493E0,9.936991119E0
2.551276800E-1,3.109500110E-1,3.894000292E0,9.136950493E0,9.936991119E0
2.570906390E-1,2.719500065E-1,3.856050253E0,9.136950493E0,9.921035463E0
2.590535570E-1,3.109500110E-1,3.856050253E0,9.060000420E0,9.851366457E0
2.610164880E-1,3.109500110E-1,3.894000292E0,9.098999977E0,9.902107289E0
2.629793640E-1,3.490500152E-1,3.894000292E0,9.098999977E0,9.903376938E0
2.649422570E-1,3.109500110E-1,3.856050253E0,9.098999977E0,9.887245018E0
2.669051890E-1,3.490500152E-1,3.894000292E0,9.098999977E0,9.903376938E0
2.688681060E-1,2.719500065E-1,3.931950092E0,9.060000420E0,9.880171858E0
2.708308960E-1,3.109500110E-1,3.856050253E0,9.098999977E0,9.887245018E0
2.727937230E-1,3.109500110E-1,3.856050253E0,9.060000420E0,9.851366457E0
2.747567970E-1,3.870000243E-1,3.856050253E0,9.060000420E0,9.854060086E0
2.767197980E-1,3.490500152E-1,3.894000292E0,9.136950493E0,9.938256311E0
2.786826900E-1,3.490500152E-1,3.817050219E0,9.060000420E0,9.837444581E0
2.806456270E-1,3.490500152E-1,3.856050253E0,9.060000420E0,9.852642644E0
2.826089070E-1,3.490500152E-1,3.931950092E0,9.060000420E0,9.882594550E0
2.845720870E-1,3.490500152E-1,3.856050253E0,9.022050858E0,9.817757440E0
2.865351470E-1,3.490500152E-1,3.856050253E0,9.060000420E0,9.852642644E0
2.884982430E-1,3.490500152E-1,3.894000292E0,9.060000420E0,9.867557032E0
2.904611350E-1,3.490500152E-1,3.894000292E0,9.060000420E0,9.867557032E0
2.924240880E-1,3.490500152E-1,3.931950092E0,9.060000420E0,9.882594550E0
2.943870500E-1,3.490500152E-1,3.894000292E0,9.060000420E0,9.867557032E0
2.963500090E-1,3.109500110E-1,3.894000292E0,9.098999977E0,9.902107289E0
2.983131060E-1,3.490500152E-1,3.894000292E0,9.060000420E0,9.867557032E0
3.002761630E-1,3.870000243E-1,3.894000292E0,9.060000420E0,9.868972332E0
3.022388990E-1,2.719500065E-1,3.894000292E0,9.060000420E0,9.865130647E0
3.042017180E-1,2.719500065E-1,3.894000292E0,9.060000420E0,9.865130647E0
3.061646130E-1,3.490500152E-1,3.856050253E0,9.060000420E0,9.852642644E0
3.081274860E-1,3.109500110E-1,3.931950092E0,9.098999977E0,9.917092418E0
3.100904630E-1,3.490500152E-1,3.894000292E0,9.136950493E0,9.938256311E0
3.120534090E-1,2.719500065E-1,3.894000292E0,9.022050858E0,9.830289759E0
3.140164720E-1,3.109500110E-1,3.856050253E0,9.098999977E0,9.887245018E0
3.159794950E-1,3.490500152E-1,3.894000292E0,9.060000420E0,9.867557032E0
3.179426260E-1,3.109500110E-1,3.856050253E0,9.098999977E0,9.887245018E0
3.199057250E-1,3.109500110E-1,3.856050253E0,9.098999977E0,9.887245018E0
3.218687540E-1,3.490500152E-1,3.856050253E0,9.098999977E0,9.888516575E0
3.238318040E-1,3.109500110E-1,3.894000292E0,9.136950493E0,9.936991119E0
3.257945510E-1,3.109500110E-1,3.856050253E0,9.098999977E0,9.887245018E0
3.277574010E-1,3.490500152E-1,3.856050253E0,9.136950493E0,9.923448180E0
3.297203350E-1,3.490500152E-1,3.856050253E0,9.136950493E0,9.923448180E0
3.316832450E-1,3.490500152E-1,3.894000292E0,9.136950493E0,9.938256311E0
3.336461260E-1,3.490500152E-1,3.856050253E0,9.098999977E0,9.888516575E0
3.356090160E-1,3.870000243E-1,3.856050253E0,9.136950493E0,9.924855509E0
3.375721190E-1,3.490500152E-1,3.856050253E0,9.175050735E0,9.958539826E0
3.395351630E-1,3.870000243E-1,3.856050253E0,9.175050735E0,9.959942197E0
3.414982910E-1,3.490500152E-1,3.856050253E0,9.136950493E0,9.923448180E0
3.434613940E-1,3.490500152E-1,3.817050219E0,9.214050293E0,9.979500543E0
3.454246460E-1,3.870000243E-1,3.817050219E0,9.252000809E0,1.001594531E1
3.473878550E-1,3.109500110E-1,3.894000292E0,9.214050293E0,1.000792941E1
3.493508560E-1,3.870000243E-1,3.856050253E0,9.175050735E0,9.959942197E0
3.513139250E-1,3.109500110E-1,3.856050253E0,9.175050735E0,9.957277211E0
3.532770020E-1,3.490500152E-1,3.856050253E0,9.175050735E0,9.958539826E0
3.552400770E-1,3.490500152E-1,3.856050253E0,9.136950493E0,9.923448180E0
3.572033800E-1,3.109500110E-1,3.856050253E0,9.175050735E0,9.957277211E0
3.591666160E-1,3.109500110E-1,3.856050253E0,9.214050293E0,9.993224518E0
3.611298020E-1,3.109500110E-1,3.894000292E0,9.214050293E0,1.000792941E1
3.630930020E-1,3.109500110E-1,3.856050253E0,9.136950493E0,9.922181100E0
3.650560580E-1,3.109500110E-1,3.894000292E0,9.175050735E0,9.972035107E0
3.670191560E-1,3.109500110E-1,3.856050253E0,9.214050293E0,9.993224518E0
3.689822730E-1,3.109500110E-1,3.894000292E0,9.214050293E0,1.000792941E1
3.709453850E-1,3.490500152E-1,3.894000292E0,9.175050735E0,9.973295854E0
3.729082770E-1,3.490500152E-1,3.931950092E0,9.214050293E0,1.002401069E1
3.748712330E-1,3.109500110E-1,3.894000292E0,9.252000809E0,1.004288042E1
3.768344650E-1,2.719500065E-1,3.894000292E0,9.214050293E0,1.000679359E1
3.787976160E-1,2.719500065E-1,3.894000292E0,9.214050293E0,1.000679359E1
3.807608600E-1,3.109500110E-1,3.856050253E0,9.252000809E0,1.002822678E1
3.827240770E-1,3.109500110E-1,3.856050253E0,9.175050735E0,9.957277211E0
3.846869810E-1,3.490500152E-1,3.856050253E0,9.252000809E0,1.002948047E1
3.866499870E-1,3.490500152E-1,3.856050253E0,9.214050293E0,9.994482591E0
3.886128960E-1,3.109500110E-1,3.856050253E0,9.175050735E0,9.957277211E0
3.905758330E-1,3.490500152E-1,3.856050253E0,9.252000809E0,1.002948047E1
3.925390680E-1,3.870000243E-1,3.856050253E0,9.136950493E0,9.924855509E0
3.945022160E-1,3.109500110E-1,3.817050219E0,9.175050735E0,9.942239098E0
3.964651810E-1,3.490500152E-1,3.817050219E0,9.175050735E0,9.943503622E0
3.984281750E-1,3.490500152E-1,3.817050219E0,9.136950493E0,9.908358723E0
4.003912200E-1,3.870000243E-1,3.817050219E0,9.175050735E0,9.944908114E0
4.023542500E-1,4.260000288E-1,3.778950214E0,9.175050735E0,9.931943251E0
4.043170210E-1,4.260000288E-1,3.817050219E0,9.136950493E0,9.911367852E0
4.062798680E-1,3.490500152E-1,3.817050219E0,9.175050735E0,9.943503622E0
4.082424240E-1,4.260000288E-1,3.856050253E0,9.098999977E0,9.891531740E0
4.102050790E-1,4.260000288E-1,3.817050219E0,9.136950493E0,9.911367852E0
4.121682270E-1,4.260000288E-1,3.817050219E0,9.175050735E0,9.946502119E0
4.141312310E-1,3.870000243E-1,3.817050219E0,9.136950493E0,9.909768196E0
4.160942760E-1,4.260000288E-1,3.856050253E0,9.136950493E0,9.926452734E0
4.180573080E-1,4.260000288E-1,3.817050219E0,9.175050735E0,9.946502119E0
4.200203540E-1,4.639500082E-1,3.856050253E0,9.136950493E0,9.928153780E0
4.219834230E-1,4.639500082E-1,3.894000292E0,9.136950493E0,9.942954902E0
4.239465010E-1,3.490500152E-1,3.856050253E0,9.136950493E0,9.923448180E0
4.259095770E-1,4.260000288E-1,3.894000292E0,9.136950493E0,9.941256390E0
4.278726540E-1,3.870000243E-1,3.894000292E0,9.136950493E0,9.939661544E0
4.298357310E-1,4.260000288E-1,3.856050253E0,9.136950493E0,9.926452734E0
4.317988080E-1,3.870000243E-1,3.894000292E0,9.136950493E0,9.939661544E0
4.337618850E-1,3.870000243E-1,3.931950092E0,9.098999977E0,9.919768199E0
4.357251420E-1,3.870000243E-1,3.931950092E0,9.136950493E0,9.954590140E0
4.376883460E-1,3.870000243E-1,3.970950127E0,9.136950493E0,9.970059089E0
4.396512220E-1,3.870000243E-1,3.931950092E0,9.175050735E0,9.989572391E0
4.416141940E-1,3.870000243E-1,3.931950092E0,9.175050735E0,9.989572391E0
4.435773190E-1,3.870000243E-1,3.931950092E0,9.136950493E0,9.954590140E0
4.455404090E-1,3.490500152E-1,3.931950092E0,9.214050293E0,1.002401069E1
4.475036190E-1,3.490500152E-1,3.970950127E0,9.214050293E0,1.003937267E1
4.494667940E-1,3.490500152E-1,3.931950092E0,9.214050293E0,1.002401069E1
4.514297200E-1,3.490500152E-1,3.931950092E0,9.214050293E0,1.002401069E1
4.533927190E-1,3.490500152E-1,3.894000292E0,9.252000809E0,1.004413227E1
4.553554470E-1,3.109500110E-1,3.970950127E0,9.252000809E0,1.007296648E1
4.573182560E-1,3.490500152E-1,3.970950127E0,9.252000809E0,1.007421460E1
4.592813780E-1,3.870000243E-1,3.931950092E0,9.252000809E0,1.006029421E1
4.612444080E-1,3.109500110E-1,3.894000292E0,9.289950371E0,1.007785226E1
4.632074480E-1,3.490500152E-1,3.856050253E0,9.328050613E0,1.009967760E1
4.651704850E-1,3.870000243E-1,3.856050253E0,9.289950371E0,1.006588647E1
4.671337690E-1,3.490500152E-1,3.894000292E0,9.289950371E0,1.007909977E1
4.690969670E-1,3.109500110E-1,3.817050219E0,9.289950371E0,1.004837003E1
4.710598440E-1,3.490500152E-1,3.856050253E0,9.289950371E0,1.006449886E1
4.730228150E-1,3.490500152E-1,3.856050253E0,9.252000809E0,1.002948047E1
4.749857750E-1,3.870000243E-1,3.856050253E0,9.289950371E0,1.006588647E1
4.769487380E-1,3.109500110E-1,3.894000292E0,9.289950371E0,1.007785226E1
4.789114740E-1,3.490500152E-1,3.894000292E0,9.289950371E0,1.007909977E1
4.808742760E-1,3.109500110E-1,3.817050219E0,9.289950371E0,1.004837003E1
4.828372190E-1,3.870000243E-1,3.817050219E0,9.289950371E0,1.005101086E1
4.848001200E-1,3.109500110E-1,3.817050219E0,9.289950371E0,1.004837003E1
4.867630030E-1,3.109500110E-1,3.817050219E0,9.289950371E0,1.004837003E1
4.887258920E-1,3.490500152E-1,3.817050219E0,9.289950371E0,1.004962120E1
4.906888480E-1,3.109500110E-1,3.817050219E0,9.289950371E0,1.004837003E1
4.926517640E-1,3.490500152E-1,3.817050219E0,9.252000809E0,1.001455078E1
4.946146880E-1,3.109500110E-1,3.817050219E0,9.289950371E0,1.004837003E1
4.965776100E-1,3.490500152E-1,3.778950214E0,9.252000809E0,1.000009098E1
4.985405330E-1,3.490500152E-1,3.778950214E0,9.214050293E0,9.964989886E0
5.005034560E-1,3.490500152E-1,3.817050219E0,9.136950493E0,9.908358723E0
5.024662450E-1,3.490500152E-1,3.778950214E0,9.214050293E0,9.964989886E0
5.044290740E-1,3.870000243E-1,3.817050219E0,9.175050735E0,9.944908114E0
5.063919670E-1,3.870000243E-1,3.817050219E0,9.136950493E0,9.909768196E0
5.083548410E-1,3.490500152E-1,3.817050219E0,9.175050735E0,9.943503622E0
5.103175930E-1,3.870000243E-1,3.856050253E0,9.136950493E0,9.924855509E0
5.122803810E-1,3.870000243E-1,3.817050219E0,9.136950493E0,9.909768196E0
5.142433170E-1,3.870000243E-1,3.856050253E0,9.136950493E0,9.924855509E0
5.162062160E-1,3.490500152E-1,3.817050219E0,9.175050735E0,9.943503622E0
5.181691440E-1,3.490500152E-1,3.817050219E0,9.098999977E0,9.873373733E0
5.201320630E-1,3.490500152E-1,3.817050219E0,9.060000420E0,9.837444581E0
5.220949870E-1,3.490500152E-1,3.778950214E0,9.098999977E0,9.858706874E0
5.240579090E-1,3.870000243E-1,3.778950214E0,9.098999977E0,9.860123444E0
5.260210530E-1,4.260000288E-1,3.856050253E0,9.060000420E0,9.855668784E0
5.279841350E-1,3.490500152E-1,3.778950214E0,9.060000420E0,9.822724074E0
5.299471670E-1,3.870000243E-1,3.856050253E0,9.060000420E0,9.854060086E0
5.319102130E-1,3.490500152E-1,3.817050219E0,9.098999977E0,9.873373733E0
5.338729800E-1,3.870000243E-1,3.778950214E0,9.060000420E0,9.824145833E0
5.358358290E-1,3.870000243E-1,3.856050253E0,9.098999977E0,9.889928875E0
5.377987880E-1,3.870000243E-1,3.856050253E0,9.098999977E0,9.889928875E0
5.397616970E-1,3.870000243E-1,3.894000292E0,9.060000420E0,9.868972332E0
5.417243990E-1,3.870000243E-1,3.856050253E0,9.022050858E0,9.819179917E0
5.436871610E-1,3.870000243E-1,3.894000292E0,9.022050858E0,9.834145055E0
5.456501110E-1,3.870000243E-1,3.894000292E0,9.022050858E0,9.834145055E0
5.476130050E-1,3.490500152E-1,3.931950092E0,9.060000420E0,9.882594550E0
5.495756280E-1,3.490500152E-1,3.931950092E0,9.060000420E0,9.882594550E0
5.515383240E-1,3.109500110E-1,3.931950092E0,8.983950615E0,9.811640540E0
5.535007450E-1,3.490500152E-1,3.894000292E0,9.060000420E0,9.867557032E0
5.554632470E-1,3.870000243E-1,3.894000292E0,9.060000420E0,9.868972332E0
5.574260610E-1,3.490500152E-1,3.856050253E0,8.983950615E0,9.782756673E0
5.593887840E-1,3.109500110E-1,3.894000292E0,9.022050858E0,9.831445970E0
5.613520660E-1,3.490500152E-1,3.894000292E0,9.060000420E0,9.867557032E0
5.633151780E-1,3.870000243E-1,3.931950092E0,9.060000420E0,9.884007697E0
5.652779340E-1,3.870000243E-1,3.894000292E0,9.098999977E0,9.904787119E0
5.672407950E-1,3.109500110E-1,3.931950092E0,9.136950493E0,9.951923721E0
5.692035480E-1,3.109500110E-1,3.931950092E0,9.098999977E0,9.917092418E0
5.711663330E-1,3.490500152E-1,3.894000292E0,9.175050735E0,9.973295854E0
5.731294240E-1,3.490500152E-1,3.931950092E0,9.175050735E0,9.988174180E0
5.750924180E-1,3.490500152E-1,3.931950092E0,9.214050293E0,1.002401069E1
5.770555540E-1,3.490500152E-1,3.970950127E0,9.136950493E0,9.968658141E0
5.790186490E-1,2.340000123E-1,3.931950092E0,9.175050735E0,9.984815648E0
5.809813640E-1,3.109500110E-1,3.894000292E0,9.175050735E0,9.972035107E0
5.829441900E-1,3.109500110E-1,3.931950092E0,9.214050293E0,1.002275632E1
5.849069250E-1,3.109500110E-1,3.931950092E0,9.214050293E0,1.002275632E1
5.868697040E-1,3.490500152E-1,3.931950092E0,9.214050293E0,1.002401069E1
5.888324270E-1,3.490500152E-1,3.931950092E0,9.252000809E0,1.005890583E1
5.907951660E-1,3.109500110E-1,3.931950092E0,9.214050293E0,1.002275632E1
5.927581190E-1,3.490500152E-1,3.894000292E0,9.175050735E0,9.973295854E0
5.947210100E-1,3.109500110E-1,3.894000292E0,9.214050293E0,1.000792941E1
5.966839440E-1,2.719500065E-1,3.894000292E0,9.214050293E0,1.000679359E1
5.986468610E-1,3.109500110E-1,3.931950092E0,9.214050293E0,1.002275632E1
6.006097850E-1,3.490500152E-1,3.970950127E0,9.252000809E0,1.007421460E1
6.025727070E-1,3.490500152E-1,3.894000292E0,9.252000809E0,1.004413227E1
6.045356300E-1,2.719500065E-1,3.894000292E0,9.214050293E0,1.000679359E1
6.064985530E-1,3.109500110E-1,3.894000292E0,9.252000809E0,1.004288042E1
6.084613990E-1,3.490500152E-1,3.894000292E0,9.252000809E0,1.004413227E1
6.104242280E-1,3.109500110E-1,3.931950092E0,9.252000809E0,1.005765581E1
6.123871660E-1,3.109500110E-1,3.894000292E0,9.214050293E0,1.000792941E1
6.143500720E-1,3.109500110E-1,3.894000292E0,9.214050293E0,1.000792941E1
6.163131780E-1,2.719500065E-1,3.894000292E0,9.175050735E0,9.970895199E0
6.182762260E-1,3.109500110E-1,3.856050253E0,9.252000809E0,1.002822678E1
6.202393180E-1,2.719500065E-1,3.894000292E0,9.175050735E0,9.970895199E0
6.222023900E-1,3.109500110E-1,3.894000292E0,9.136950493E0,9.936991119E0
6.241654670E-1,3.109500110E-1,3.894000292E0,9.175050735E0,9.972035107E0
6.261285430E-1,3.109500110E-1,3.894000292E0,9.214050293E0,1.000792941E1
6.280916200E-1,3.109500110E-1,3.856050253E0,9.214050293E0,9.993224518E0
6.300546970E-1,3.109500110E-1,3.931950092E0,9.214050293E0,1.002275632E1
6.320177930E-1,3.109500110E-1,3.894000292E0,9.252000809E0,1.004288042E1
6.339808700E-1,3.109500110E-1,3.894000292E0,9.252000809E0,1.004288042E1
6.359437680E-1,3.109500110E-1,3.931950092E0,9.214050293E0,1.002275632E1
6.379067180E-1,3.490500152E-1,3.894000292E0,9.214050293E0,1.000918563E1
6.398695920E-1,3.109500110E-1,3.894000292E0,9.214050293E0,1.000792941E1
6.418324880E-1,3.109500110E-1,3.894000292E0,9.214050293E0,1.000792941E1
6.437954500E-1,3.490500152E-1,3.931950092E0,9.175050735E0,9.988174180E0
6.457583990E-1,3.109500110E-1,3.894000292E0,9.175050735E0,9.972035107E0
6.477216780E-1,3.490500152E-1,3.894000292E0,9.136950493E0,9.938256311E0
6.496848600E-1,3.109500110E-1,3.894000292E0,9.214050293E0,1.000792941E1
6.516480540E-1,3.490500152E-1,3.894000292E0,9.136950493E0,9.938256311E0
6.536112450E-1,3.490500152E-1,3.894000292E0,9.214050293E0,1.000918563E1
6.555741180E-1,3.870000243E-1,3.856050253E0,9.136950493E0,9.924855509E0
6.575370880E-1,3.490500152E-1,3.856050253E0,9.175050735E0,9.958539826E0
6.595002270E-1,3.490500152E-1,3.894000292E0,9.214050293E0,1.000918563E1
6.614633170E-1,3.490500152E-1,3.856050253E0,9.175050735E0,9.958539826E0
6.634265720E-1,3.870000243E-1,3.856050253E0,9.175050735E0,9.959942197E0
6.653897780E-1,3.870000243E-1,3.894000292E0,9.175050735E0,9.974696150E0
6.673530130E-1,3.490500152E-1,3.856050253E0,9.136950493E0,9.923448180E0
6.693162400E-1,3.490500152E-1,3.856050253E0,9.252000809E0,1.002948047E1
6.712794270E-1,3.490500152E-1,3.856050253E0,9.175050735E0,9.958539826E0
6.732426260E-1,3.490500152E-1,3.894000292E0,9.214050293E0,1.000918563E1
6.752055470E-1,3.870000243E-1,3.856050253E0,9.214050293E0,9.995879920E0
6.771685500E-1,3.490500152E-1,3.894000292E0,9.136950493E0,9.938256311E0
6.791312500E-1,4.260000288E-1,3.817050219E0,9.175050735E0,9.946502119E0
6.810940590E-1,3.870000243E-1,3.856050253E0,9.175050735E0,9.959942197E0
6.830569550E-1,3.490500152E-1,3.817050219E0,9.214050293E0,9.979500543E0
6.850198260E-1,3.490500152E-1,3.856050253E0,9.214050293E0,9.994482591E0
6.869829380E-1,4.260000288E-1,3.817050219E0,9.175050735E0,9.946502119E0
6.889459800E-1,4.260000288E-1,3.856050253E0,9.136950493E0,9.926452734E0
6.909087580E-1,3.490500152E-1,3.894000292E0,9.175050735E0,9.973295854E0
6.928716070E-1,4.260000288E-1,3.856050253E0,9.175050735E0,9.961533796E0
6.948343620E-1,4.260000288E-1,3.817050219E0,9.175050735E0,9.946502119E0
6.967971450E-1,3.870000243E-1,3.856050253E0,9.175050735E0,9.959942197E0
6.987604070E-1,4.260000288E-1,3.856050253E0,9.214050293E0,9.997465798E0
7.007235280E-1,3.870000243E-1,3.856050253E0,9.175050735E0,9.959942197E0
7.026864330E-1,4.260000288E-1,3.856050253E0,9.136950493E0,9.926452734E0
7.046493910E-1,4.639500082E-1,3.856050253E0,9.175050735E0,9.963228852E0
7.066123080E-1,4.260000288E-1,3.856050253E0,9.098999977E0,9.891531740E0
7.085752370E-1,3.870000243E-1,3.856050253E0,9.098999977E0,9.889928875E0
7.105379780E-1,4.260000288E-1,3.894000292E0,9.098999977E0,9.906387580E0
7.125007750E-1,3.870000243E-1,3.856050253E0,9.060000420E0,9.854060086E0
7.144635690E-1,4.639500082E-1,3.894000292E0,9.060000420E0,9.872289273E0
7.164263740E-1,4.260000288E-1,3.856050253E0,9.098999977E0,9.891531740E0
7.183887780E-1,4.260000288E-1,3.817050219E0,9.060000420E0,9.840475395E0
7.203512990E-1,4.260000288E-1,3.856050253E0,9.175050735E0,9.961533796E0
7.223142900E-1,4.639500082E-1,3.856050253E0,9.136950493E0,9.928153780E0
7.242771430E-1,3.870000243E-1,3.856050253E0,9.136950493E0,9.924855509E0
7.262398540E-1,4.260000288E-1,3.894000292E0,9.098999977E0,9.906387580E0
7.282026070E-1,4.260000288E-1,3.894000292E0,9.136950493E0,9.941256390E0
7.301651980E-1,4.260000288E-1,3.894000292E0,9.136950493E0,9.941256390E0
7.321278370E-1,4.260000288E-1,3.894000292E0,9.136950493E0,9.941256390E0
7.340908530E-1,3.870000243E-1,3.894000292E0,9.136950493E0,9.939661544E0
7.360537580E-1,4.260000288E-1,3.894000292E0,9.060000420E0,9.870578600E0
7.380168090E-1,4.260000288E-1,3.931950092E0,9.136950493E0,9.956182595E0
7.399798250E-1,3.870000243E-1,3.856050253E0,9.175050735E0,9.959942197E0
7.419425980E-1,3.870000243E-1,3.931950092E0,9.175050735E0,9.989572391E0
7.439054430E-1,4.260000288E-1,3.931950092E0,9.175050735E0,9.991159270E0
7.458686930E-1,3.870000243E-1,3.894000292E0,9.214050293E0,1.001058091E1
7.478318250E-1,4.260000288E-1,3.894000292E0,9.214050293E0,1.001216446E1
7.497947790E-1,3.490500152E-1,3.894000292E0,9.175050735E0,9.973295854E0
7.517577710E-1,3.490500152E-1,3.894000292E0,9.252000809E0,1.004413227E1
7.537206820E-1,3.490500152E-1,3.894000292E0,9.252000809E0,1.004413227E1
7.556836170E-1,3.490500152E-1,3.856050253E0,9.214050293E0,9.994482591E0
7.576468970E-1,3.490500152E-1,3.817050219E0,9.214050293E0,9.979500543E0
7.596100760E-1,3.109500110E-1,3.778950214E0,9.252000809E0,9.998833612E0
7.615730760E-1,3.490500152E-1,3.894000292E0,9.214050293E0,1.000918563E1
7.635361400E-1,3.109500110E-1,3.856050253E0,9.252000809E0,1.002822678E1
7.654992180E-1,3.109500110E-1,3.856050253E0,9.214050293E0,9.993224518E0
7.674622920E-1,3.490500152E-1,3.894000292E0,9.252000809E0,1.004413227E1
7.694251900E-1,3.490500152E-1,3.856050253E0,9.252000809E0,1.002948047E1
7.713881400E-1,3.490500152E-1,3.894000292E0,9.252000809E0,1.004413227E1
7.733513070E-1,3.490500152E-1,3.856050253E0,9.328050613E0,1.009967760E1
7.753143930E-1,3.109500110E-1,3.856050253E0,9.252000809E0,1.002822678E1
7.772774700E-1,3.109500110E-1,3.817050219E0,9.252000809E0,1.001329522E1
7.792405490E-1,3.109500110E-1,3.856050253E0,9.328050613E0,1.009843264E1
7.812034450E-1,3.109500110E-1,3.856050253E0,9.289950371E0,1.006324954E1
7.831663950E-1,3.870000243E-1,3.856050253E0,9.252000809E0,1.003087292E1
7.851294290E-1,3.490500152E-1,3.856050253E0,9.252000809E0,1.002948047E1
7.870924510E-1,3.109500110E-1,3.856050253E0,9.328050613E0,1.009843264E1
7.890554030E-1,3.109500110E-1,3.856050253E0,9.289950371E0,1.006324954E1
7.910183760E-1,3.490500152E-1,3.894000292E0,9.214050293E0,1.000918563E1
7.929812900E-1,3.490500152E-1,3.856050253E0,9.252000809E0,1.002948047E1
7.949442220E-1,3.490500152E-1,3.894000292E0,9.214050293E0,1.000918563E1
7.969069590E-1,3.870000243E-1,3.856050253E0,9.214050293E0,9.995879920E0
7.988697560E-1,3.109500110E-1,3.931950092E0,9.175050735E0,9.986915311E0
8.008326540E-1,3.109500110E-1,3.856050253E0,9.214050293E0,9.993224518E0
8.027955230E-1,3.109500110E-1,3.856050253E0,9.214050293E0,9.993224518E0
8.047582760E-1,3.490500152E-1,3.856050253E0,9.175050735E0,9.958539826E0
8.067210630E-1,3.490500152E-1,3.894000292E0,9.175050735E0,9.973295854E0
8.086843740E-1,3.490500152E-1,3.817050219E0,9.175050735E0,9.943503622E0
8.106475280E-1,3.109500110E-1,3.894000292E0,9.136950493E0,9.936991119E0
8.126104580E-1,3.109500110E-1,3.894000292E0,9.136950493E0,9.936991119E0
8.145734530E-1,3.490500152E-1,3.894000292E0,9.136950493E0,9.938256311E0
8.165365430E-1,3.490500152E-1,3.894000292E0,9.175050735E0,9.973295854E0
8.184996050E-1,2.719500065E-1,3.931950092E0,9.098999977E0,9.915946194E0
8.204624710E-1,3.870000243E-1,3.894000292E0,9.136950493E0,9.939661544E0
8.224254190E-1,3.109500110E-1,3.894000292E0,9.136950493E0,9.936991119E0
8.243883380E-1,3.490500152E-1,3.894000292E0,9.060000420E0,9.867557032E0
8.263512650E-1,3.109500110E-1,3.894000292E0,9.098999977E0,9.902107289E0
8.283139620E-1,3.109500110E-1,3.970950127E0,9.175050735E0,1.000233427E1
8.302767270E-1,3.109500110E-1,3.931950092E0,9.136950493E0,9.951923721E0
8.322397160E-1,3.109500110E-1,3.931950092E0,9.136950493E0,9.951923721E0
8.342026430E-1,3.109500110E-1,3.931950092E0,9.098999977E0,9.917092418E0
8.361651610E-1,3.490500152E-1,3.894000292E0,9.136950493E0,9.938256311E0
8.381277990E-1,3.109500110E-1,3.931950092E0,9.060000420E0,9.881322231E0
8.400909500E-1,3.109500110E-1,3.931950092E0,9.098999977E0,9.917092418E0
8.420539500E-1,3.109500110E-1,3.894000292E0,9.136950493E0,9.936991119E0
8.440165370E-1,3.109500110E-1,3.894000292E0,9.060000420E0,9.866282774E0
8.459792510E-1,3.109500110E-1,3.931950092E0,9.136950493E0,9.951923721E0
8.479419840E-1,3.109500110E-1,3.931950092E0,9.098999977E0,9.917092418E0
8.499047110E-1,3.109500110E-1,3.894000292E0,9.098999977E0,9.902107289E0
8.518678480E-1,3.109500110E-1,3.931950092E0,9.214050293E0,1.002275632E1
8.538308650E-1,3.490500152E-1,3.931950092E0,9.136950493E0,9.953187015E0
8.557939630E-1,3.490500152E-1,3.894000292E0,9.136950493E0,9.938256311E0
8.577570610E-1,3.490500152E-1,3.894000292E0,9.136950493E0,9.938256311E0
8.597201350E-1,3.490500152E-1,3.856050253E0,9.136950493E0,9.923448180E0
8.616832170E-1,3.490500152E-1,3.894000292E0,9.175050735E0,9.973295854E0
8.636462480E-1,3.490500152E-1,3.894000292E0,9.136950493E0,9.938256311E0
8.656092940E-1,3.109500110E-1,3.894000292E0,9.098999977E0,9.902107289E0
8.675723890E-1,3.490500152E-1,3.931950092E0,9.136950493E0,9.953187015E0
8.695354600E-1,3.870000243E-1,3.894000292E0,9.136950493E0,9.939661544E0
8.714985380E-1,3.490500152E-1,3.856050253E0,9.136950493E0,9.923448180E0
8.734616140E-1,3.490500152E-1,3.894000292E0,9.175050735E0,9.973295854E0
8.754245120E-1,3.490500152E-1,3.894000292E0,9.175050735E0,9.973295854E0
8.773874620E-1,3.490500152E-1,3.817050219E0,9.136950493E0,9.908358723E0
8.793503610E-1,3.490500152E-1,3.894000292E0,9.175050735E0,9.973295854E0
8.813132890E-1,3.109500110E-1,3.894000292E0,9.175050735E0,9.972035107E0
8.832762110E-1,3.490500152E-1,3.856050253E0,9.175050735E0,9.958539826E0
8.852391350E-1,3.109500110E-1,3.856050253E0,9.175050735E0,9.957277211E0
8.872022370E-1,3.490500152E-1,3.894000292E0,9.214050293E0,1.000918563E1
8.891652870E-1,3.870000243E-1,3.856050253E0,9.175050735E0,9.959942197E0
8.911280500E-1,3.490500152E-1,3.856050253E0,9.175050735E0,9.958539826E0
8.930909000E-1,3.870000243E-1,3.856050253E0,9.175050735E0,9.959942197E0
8.950539700E-1,3.490500152E-1,3.856050253E0,9.214050293E0,9.994482591E0
8.970169750E-1,3.870000243E-1,3.856050253E0,9.136950493E0,9.924855509E0
8.989795690E-1,3.490500152E-1,3.894000292E0,9.252000809E0,1.004413227E1
9.009422840E-1,3.490500152E-1,3.856050253E0,9.252000809E0,1.002948047E1
9.029054460E-1,4.260000288E-1,3.856050253E0,9.252000809E0,1.003245327E1
9.048684600E-1,3.870000243E-1,3.856050253E0,9.289950371E0,1.006588647E1
9.068315030E-1,3.490500152E-1,3.894000292E0,9.289950371E0,1.007909977E1
9.087945370E-1,3.870000243E-1,3.817050219E0,9.252000809E0,1.001594531E1
9.107574870E-1,3.870000243E-1,3.817050219E0,9.214050293E0,9.980899969E0
9.127204620E-1,4.639500082E-1,3.856050253E0,9.175050735E0,9.963228852E0
9.146833380E-1,3.870000243E-1,3.817050219E0,9.214050293E0,9.980899969E0
9.166462700E-1,3.870000243E-1,3.856050253E0,9.214050293E0,9.995879920E0
9.186095060E-1,3.870000243E-1,3.856050253E0,9.289950371E0,1.006588647E1
9.205726530E-1,3.490500152E-1,3.894000292E0,9.252000809E0,1.004413227E1
9.225355390E-1,3.870000243E-1,3.894000292E0,9.175050735E0,9.974696150E0
9.244985010E-1,4.260000288E-1,3.856050253E0,9.252000809E0,1.003245327E1
9.264612820E-1,3.870000243E-1,3.856050253E0,9.214050293E0,9.995879920E0
9.284241160E-1,4.260000288E-1,3.856050253E0,9.175050735E0,9.961533796E0
9.303871890E-1,4.260000288E-1,3.817050219E0,9.252000809E0,1.001752801E1
9.323501910E-1,4.260000288E-1,3.856050253E0,9.175050735E0,9.961533796E0
9.343132810E-1,4.260000288E-1,3.856050253E0,9.214050293E0,9.997465798E0
9.362763450E-1,3.870000243E-1,3.894000292E0,9.136950493E0,9.939661544E0
9.382390910E-1,3.870000243E-1,3.856050253E0,9.136950493E0,9.924855509E0
9.402019440E-1,3.870000243E-1,3.856050253E0,9.175050735E0,9.959942197E0
9.421644740E-1,4.260000288E-1,3.856050253E0,9.175050735E0,9.961533796E0
9.441270980E-1,4.639500082E-1,3.894000292E0,9.136950493E0,9.942954902E0
9.460899360E-1,4.260000288E-1,3.856050253E0,9.136950493E0,9.926452734E0
9.480527110E-1,3.870000243E-1,3.856050253E0,9.175050735E0,9.959942197E0
9.500156780E-1,4.260000288E-1,3.856050253E0,9.136950493E0,9.926452734E0
9.519785760E-1,3.490500152E-1,3.856050253E0,9.136950493E0,9.923448180E0
9.539416840E-1,3.870000243E-1,3.894000292E0,9.136950493E0,9.939661544E0
9.559047300E-1,4.260000288E-1,3.931950092E0,9.214050293E0,1.002698511E1
9.578677680E-1,4.260000288E-1,3.856050253E0,9.175050735E0,9.961533796E0
9.598308090E-1,4.639500082E-1,3.856050253E0,9.214050293E0,9.999154762E0
9.617935610E-1,4.260000288E-1,3.817050219E0,9.214050293E0,9.982488227E0
9.637564090E-1,4.639500082E-1,3.856050253E0,9.175050735E0,9.963228852E0
9.657195240E-1,4.260000288E-1,3.894000292E0,9.175050735E0,9.976285396E0
9.676825610E-1,4.260000288E-1,3.856050253E0,9.252000809E0,1.003245327E1
9.696456450E-1,3.870000243E-1,3.778950214E0,9.214050293E0,9.966391350E0
9.716087150E-1,4.639500082E-1,3.856050253E0,9.214050293E0,9.999154762E0
9.735716340E-1,3.870000243E-1,3.817050219E0,9.175050735E0,9.944908114E0
9.755345830E-1,3.870000243E-1,3.856050253E0,9.175050735E0,9.959942197E0
9.774976810E-1,4.260000288E-1,3.817050219E0,9.214050293E0,9.982488227E0
9.794607350E-1,4.260000288E-1,3.856050253E0,9.214050293E0,9.997465798E0
9.814236370E-1,3.870000243E-1,3.856050253E0,9.136950493E0,9.924855509E0
9.833865830E-1,4.639500082E-1,3.894000292E0,9.136950493E0,9.942954902E0
9.853496360E-1,4.260000288E-1,3.856050253E0,9.175050735E0,9.961533796E0
9.873126580E-1,4.260000288E-1,3.817050219E0,9.175050735E0,9.946502119E0
9.892756100E-1,3.870000243E-1,3.856050253E0,9.175050735E0,9.959942197E0
9.912385830E-1,3.870000243E-1,3.856050253E0,9.175050735E0,9.959942197E0
9.932014520E-1,3.870000243E-1,3.856050253E0,9.214050293E0,9.995879920E0
9.951643520E-1,3.870000243E-1,3.856050253E0,9.136950493E0,9.924855509E0
9.971274380E-1,3.490500152E-1,3.894000292E0,9.175050735E0,9.973295854E0
9.990904840E-1,3.870000243E-1,3.856050253E0,9.214050293E0,9.995879920E0
1.001053747E0,3.109500110E-1,3.894000292E0,9.214050293E0,1.000792941E1
1.003016946E0,3.870000243E-1,3.894000292E0,9.136950493E0,9.939661544E0
1.004980003E0,4.260000288E-1,3.894000292E0,9.175050735E0,9.976285396E0
1.006943102E0,4.260000288E-1,3.856050253E0,9.214050293E0,9.997465798E0
1.008906010E0,3.870000243E-1,3.894000292E0,9.214050293E0,1.001058091E1
1.010868963E0,4.260000288E-1,3.894000292E0,9.214050293E0,1.001216446E1
1.012831566E0,3.870000243E-1,3.931950092E0,9.175050735E0,9.989572391E0
1.014794271E0,3.870000243E-1,3.894000292E0,9.214050293E0,1.001058091E1
1.016757230E0,3.870000243E-1,3.894000292E0,9.136950493E0,9.939661544E0
1.018720115E0,3.870000243E-1,3.894000292E0,9.175050735E0,9.974696150E0
1.020683065E0,3.870000243E-1,3.894000292E0,9.175050735E0,9.974696150E0
1.022645981E0,3.870000243E-1,3.894000292E0,9.136950493E0,9.939661544E0
1.024608905E0,3.870000243E-1,3.894000292E0,9.136950493E0,9.939661544E0
1.026571827E0,3.490500152E-1,3.894000292E0,9.136950493E0,9.938256311E0
1.028534931E0,3.870000243E-1,3.894000292E0,9.136950493E0,9.939661544E0
1.030497981E0,3.490500152E-1,3.894000292E0,9.136950493E0,9.938256311E0
1.032461072E0,3.490500152E-1,3.894000292E0,9.098999977E0,9.903376938E0
1.034424144E0,3.870000243E-1,3.894000292E0,9.136950493E0,9.939661544E0
1.036387043E0,3.109500110E-1,3.894000292E0,9.136950493E0,9.936991119E0
1.038349992E0,3.490500152E-1,3.931950092E0,9.175050735E0,9.988174180E0
1.040313045E0,3.490500152E-1,3.894000292E0,9.136950493E0,9.938256311E0
1.042276067E0,3.870000243E-1,3.894000292E0,9.136950493E0,9.939661544E0
1.044238994E0,3.870000243E-1,3.931950092E0,9.175050735E0,9.989572391E0
1.046201935E0,3.870000243E-1,3.894000292E0,9.214050293E0,1.001058091E1
1.048164855E0,3.109500110E-1,3.970950127E0,9.175050735E0,1.000233427E1
1.050127781E0,3.490500152E-1,3.894000292E0,9.214050293E0,1.000918563E1
1.052090569E0,3.870000243E-1,3.931950092E0,9.214050293E0,1.002540390E1
1.054053397E0,3.490500152E-1,3.894000292E0,9.214050293E0,1.000918563E1
1.056016664E0,3.490500152E-1,3.894000292E0,9.214050293E0,1.000918563E1
1.057979793E0,3.870000243E-1,3.931950092E0,9.214050293E0,1.002540390E1
1.059942502E0,3.490500152E-1,3.931950092E0,9.214050293E0,1.002401069E1
1.061905334E0,3.490500152E-1,3.931950092E0,9.214050293E0,1.002401069E1
1.063868857E0,3.490500152E-1,3.894000292E0,9.175050735E0,9.973295854E0
1.065832178E0,3.490500152E-1,3.894000292E0,9.214050293E0,1.000918563E1
1.067795034E0,3.109500110E-1,3.931950092E0,9.214050293E0,1.002275632E1
1.069758026E0,3.109500110E-1,3.931950092E0,9.175050735E0,9.986915311E0
1.071721432E0,3.109500110E-1,3.894000292E0,9.175050735E0,9.972035107E0
1.073684716E0,3.490500152E-1,3.894000292E0,9.214050293E0,1.000918563E1
1.075647759E0,3.490500152E-1,3.894000292E0,9.289950371E0,1.007909977E1
1.077610872E0,3.109500110E-1,3.931950092E0,9.214050293E0,1.002275632E1
1.079573797E0,3.490500152E-1,3.894000292E0,9.214050293E0,1.000918563E1
1.081536785E0,3.109500110E-1,3.856050253E0,9.175050735E0,9.957277211E0
1.083499517E0,3.109500110E-1,3.894000292E0,9.214050293E0,1.000792941E1
1.085462324E0,3.490500152E-1,3.894000292E0,9.175050735E0,9.973295854E0
1.087425446E0,3.109500110E-1,3.894000292E0,9.136950493E0,9.936991119E0
1.089388476E0,3.490500152E-1,3.856050253E0,9.136950493E0,9.923448180E0
1.091351299E0,3.490500152E-1,3.894000292E0,9.175050735E0,9.973295854E0
1.093314209E0,3.490500152E-1,3.931950092E0,9.136950493E0,9.953187015E0
1.095277178E0,3.109500110E-1,3.856050253E0,9.175050735E0,9.957277211E0
1.097240130E0,3.490500152E-1,3.856050253E0,9.098999977E0,9.888516575E0
1.099203229E0,3.490500152E-1,3.894000292E0,9.098999977E0,9.903376938E0
1.101166284E0,3.490500152E-1,3.894000292E0,9.136950493E0,9.938256311E0
1.103129519E0,3.870000243E-1,3.856050253E0,9.098999977E0,9.889928875E0
1.105092687E0,3.490500152E-1,3.856050253E0,9.098999977E0,9.888516575E0
1.107056109E0,2.719500065E-1,3.856050253E0,9.136950493E0,9.921035463E0
1.109019457E0,3.870000243E-1,3.856050253E0,9.136950493E0,9.924855509E0
1.110982488E0,4.260000288E-1,3.894000292E0,9.136950493E0,9.941256390E0
1.112945612E0,3.870000243E-1,3.856050253E0,9.136950493E0,9.924855509E0
1.114908501E0,4.260000288E-1,3.894000292E0,9.136950493E0,9.941256390E0
1.116871459E0,3.870000243E-1,3.894000292E0,9.136950493E0,9.939661544E0
1.118834600E0,3.870000243E-1,3.817050219E0,9.175050735E0,9.944908114E0
1.120797687E0,4.260000288E-1,3.856050253E0,9.175050735E0,9.961533796E0
1.122760763E0,3.870000243E-1,3.856050253E0,9.136950493E0,9.924855509E0
1.124723843E0,3.870000243E-1,3.817050219E0,9.136950493E0,9.909768196E0
1.126686744E0,3.870000243E-1,3.856050253E0,9.136950493E0,9.924855509E0
1.128649694E0,4.260000288E-1,3.894000292E0,9.098999977E0,9.906387580E0
1.130612568E0,4.260000288E-1,3.817050219E0,9.098999977E0,9.876393521E0
1.132575464E0,4.639500082E-1,3.817050219E0,9.136950493E0,9.913071486E0
1.134538391E0,4.260000288E-1,3.817050219E0,9.136950493E0,9.911367852E0
1.136501308E0,4.260000288E-1,3.817050219E0,9.175050735E0,9.946502119E0
1.138464818E0,4.639500082E-1,3.856050253E0,9.098999977E0,9.893238790E0
1.140428154E0,4.260000288E-1,3.856050253E0,9.175050735E0,9.961533796E0
1.142391143E0,4.639500082E-1,3.817050219E0,9.175050735E0,9.948199736E0
1.144354233E0,4.639500082E-1,3.856050253E0,9.214050293E0,9.999154762E0
1.146317487E0,4.639500082E-1,3.817050219E0,9.136950493E0,9.913071486E0
1.148280692E0,4.639500082E-1,3.856050253E0,9.214050293E0,9.999154762E0
1.150243582E0,4.639500082E-1,3.817050219E0,9.175050735E0,9.948199736E0
1.152206555E0,4.639500082E-1,3.817050219E0,9.175050735E0,9.948199736E0
1.154169469E0,4.260000288E-1,3.817050219E0,9.175050735E0,9.946502119E0
1.156132401E0,4.260000288E-1,3.856050253E0,9.175050735E0,9.961533796E0
1.158095322E0,4.260000288E-1,3.817050219E0,9.175050735E0,9.946502119E0
1.160058247E0,4.260000288E-1,3.856050253E0,9.214050293E0,9.997465798E0
1.162021394E0,3.490500152E-1,3.894000292E0,9.136950493E0,9.938256311E0
1.163984476E0,3.870000243E-1,3.894000292E0,9.136950493E0,9.939661544E0
1.165947508E0,4.260000288E-1,3.894000292E0,9.175050735E0,9.976285396E0
1.167910555E0,3.870000243E-1,3.931950092E0,9.098999977E0,9.919768199E0
1.169873502E0,3.109500110E-1,3.931950092E0,9.175050735E0,9.986915311E0
1.171836478E0,3.490500152E-1,3.894000292E0,9.136950493E0,9.938256311E0
1.173799737E0,3.870000243E-1,3.894000292E0,9.098999977E0,9.904787119E0
1.175762923E0,3.870000243E-1,3.894000292E0,9.136950493E0,9.939661544E0
1.177725802E0,3.490500152E-1,3.894000292E0,9.098999977E0,9.903376938E0
1.179688771E0,3.109500110E-1,3.931950092E0,9.098999977E0,9.917092418E0
1.181651865E0,3.109500110E-1,3.894000292E0,9.098999977E0,9.902107289E0
1.183614923E0,3.490500152E-1,3.931950092E0,9.098999977E0,9.918360148E0
1.185578153E0,3.109500110E-1,3.931950092E0,9.060000420E0,9.881322231E0
1.187541322E0,3.490500152E-1,3.894000292E0,9.098999977E0,9.903376938E0
1.189504384E0,3.870000243E-1,3.894000292E0,9.098999977E0,9.904787119E0
1.191467478E0,3.490500152E-1,3.894000292E0,9.175050735E0,9.973295854E0
1.193430417E0,3.870000243E-1,3.931950092E0,9.098999977E0,9.919768199E0
1.195393401E0,3.870000243E-1,3.894000292E0,9.098999977E0,9.904787119E0
1.197356512E0,3.870000243E-1,3.894000292E0,9.098999977E0,9.904787119E0
1.199319572E0,4.260000288E-1,3.894000292E0,9.098999977E0,9.906387580E0
1.201282652E0,3.870000243E-1,3.931950092E0,9.060000420E0,9.884007697E0
1.203245726E0,3.490500152E-1,3.894000292E0,9.136950493E0,9.938256311E0
1.205208444E0,4.260000288E-1,3.894000292E0,9.098999977E0,9.906387580E0
1.207171266E0,4.260000288E-1,3.894000292E0,9.136950493E0,9.941256390E0
1.209134382E0,4.260000288E-1,3.856050253E0,9.136950493E0,9.926452734E0
1.211097414E0,4.260000288E-1,3.817050219E0,9.098999977E0,9.876393521E0
1.213060319E0,4.260000288E-1,3.894000292E0,9.136950493E0,9.941256390E0
1.215023262E0,4.260000288E-1,3.894000292E0,9.175050735E0,9.976285396E0
1.216986316E0,4.260000288E-1,3.856050253E0,9.098999977E0,9.891531740E0
1.218949337E0,3.870000243E-1,3.856050253E0,9.098999977E0,9.889928875E0
1.220912473E0,4.260000288E-1,3.894000292E0,9.136950493E0,9.941256390E0
1.222875572E0,4.260000288E-1,3.894000292E0,9.136950493E0,9.941256390E0
1.224838421E0,4.260000288E-1,3.894000292E0,9.136950493E0,9.941256390E0
1.226801343E0,3.870000243E-1,3.894000292E0,9.175050735E0,9.974696150E0
1.228764446E0,4.639500082E-1,3.894000292E0,9.175050735E0,9.977977946E0
1.230727495E0,4.639500082E-1,3.856050253E0,9.175050735E0,9.963228852E0
1.232690622E0,3.490500152E-1,3.931950092E0,9.175050735E0,9.988174180E0
1.234653726E0,3.490500152E-1,3.894000292E0,9.175050735E0,9.973295854E0
1.236616933E0,3.490500152E-1,3.931950092E0,9.175050735E0,9.988174180E0
1.238580110E0,3.870000243E-1,3.931950092E0,9.214050293E0,1.002540390E1
1.240543395E0,3.490500152E-1,3.931950092E0,9.214050293E0,1.002401069E1
1.242506649E0,3.870000243E-1,3.894000292E0,9.289950371E0,1.008048536E1
1.244469798E0,3.870000243E-1,3.970950127E0,9.252000809E0,1.007560087E1
1.246433002E0,3.870000243E-1,3.931950092E0,9.289950371E0,1.009520572E1
1.248396282E0,3.490500152E-1,3.894000292E0,9.289950371E0,1.007909977E1
1.250359539E0,3.490500152E-1,3.894000292E0,9.328050613E0,1.011422772E1
1.252322721E0,3.870000243E-1,3.894000292E0,9.252000809E0,1.004552270E1
1.254285925E0,3.490500152E-1,3.931950092E0,9.252000809E0,1.005890583E1
1.256249189E0,3.870000243E-1,3.894000292E0,9.289950371E0,1.008048536E1
1.258212414E0,3.490500152E-1,3.931950092E0,9.289950371E0,1.009382214E1
1.260175646E0,3.109500110E-1,3.894000292E0,9.252000809E0,1.004288042E1
1.262138876E0,3.490500152E-1,3.894000292E0,9.252000809E0,1.004413227E1
1.264101972E0,3.109500110E-1,3.856050253E0,9.252000809E0,1.002822678E1
1.266065108E0,3.109500110E-1,3.894000292E0,9.289950371E0,1.007785226E1
1.268028475E0,3.490500152E-1,3.856050253E0,9.289950371E0,1.006449886E1
1.269991784E0,3.490500152E-1,3.894000292E0,9.252000809E0,1.004413227E1
1.271954687E0,3.870000243E-1,3.931950092E0,9.252000809E0,1.006029421E1
1.273917709E0,3.490500152E-1,3.894000292E0,9.252000809E0,1.004413227E1
1.275880794E0,3.490500152E-1,3.856050253E0,9.289950371E0,1.006449886E1
1.277843861E0,3.870000243E-1,3.856050253E0,9.289950371E0,1.006588647E1
1.279806978E0,3.870000243E-1,3.856050253E0,9.214050293E0,9.995879920E0
1.281770053E0,3.109500110E-1,3.894000292E0,9.252000809E0,1.004288042E1
1.283733266E0,3.109500110E-1,3.856050253E0,9.289950371E0,1.006324954E1
1.285696438E0,3.870000243E-1,3.856050253E0,9.252000809E0,1.003087292E1
1.287659859E0,3.490500152E-1,3.856050253E0,9.289950371E0,1.006449886E1
1.289623207E0,3.109500110E-1,3.856050253E0,9.214050293E0,9.993224518E0
1.291586224E0,3.490500152E-1,3.856050253E0,9.289950371E0,1.006449886E1
1.293549348E0,3.490500152E-1,3.856050253E0,9.252000809E0,1.002948047E1
1.295512821E0,3.490500152E-1,3.856050253E0,9.214050293E0,9.994482591E0
1.297476192E0,3.490500152E-1,3.817050219E0,9.214050293E0,9.979500543E0
1.299439355E0,4.260000288E-1,3.856050253E0,9.252000809E0,1.003245327E1
1.301402579E0,3.870000243E-1,3.817050219E0,9.175050735E0,9.944908114E0
1.303365855E0,3.870000243E-1,3.856050253E0,9.175050735E0,9.959942197E0
1.305329115E0,3.870000243E-1,3.856050253E0,9.252000809E0,1.003087292E1
1.307292162E0,4.260000288E-1,3.856050253E0,9.175050735E0,9.961533796E0
1.309255271E0,4.260000288E-1,3.817050219E0,9.175050735E0,9.946502119E0
1.311218297E0,3.870000243E-1,3.817050219E0,9.136950493E0,9.909768196E0
1.313181348E0,4.260000288E-1,3.778950214E0,9.175050735E0,9.931943251E0
1.315144414E0,4.639500082E-1,3.778950214E0,9.136950493E0,9.898463449E0
1.317107486E0,3.870000243E-1,3.817050219E0,9.136950493E0,9.909768196E0
1.319070564E0,4.260000288E-1,3.778950214E0,9.098999977E0,9.861731153E0
1.321033640E0,4.260000288E-1,3.778950214E0,9.098999977E0,9.861731153E0
1.322996942E0,4.260000288E-1,3.817050219E0,9.136950493E0,9.911367852E0
1.324960178E0,4.260000288E-1,3.778950214E0,9.136950493E0,9.896757300E0
1.326923184E0,3.870000243E-1,3.817050219E0,9.098999977E0,9.874788199E0
1.328886257E0,4.639500082E-1,3.817050219E0,9.098999977E0,9.878103187E0
1.330849334E0,4.260000288E-1,3.778950214E0,9.098999977E0,9.861731153E0
1.332812409E0,4.260000288E-1,3.817050219E0,9.060000420E0,9.840475395E0
1.334775667E0,3.870000243E-1,3.856050253E0,9.098999977E0,9.889928875E0
1.336738871E0,3.870000243E-1,3.856050253E0,9.098999977E0,9.889928875E0
1.338702272E0,4.639500082E-1,3.856050253E0,9.060000420E0,9.857382044E0
1.340665625E0,4.260000288E-1,3.894000292E0,9.022050858E0,9.835757011E0
1.342629015E0,4.260000288E-1,3.856050253E0,9.060000420E0,9.855668784E0
1.344592394E0,4.639500082E-1,3.894000292E0,9.098999977E0,9.908092070E0
1.346555240E0,4.260000288E-1,3.894000292E0,9.098999977E0,9.906387580E0
1.348518242E0,4.260000288E-1,3.894000292E0,9.098999977E0,9.906387580E0
1.350481371E0,4.260000288E-1,3.894000292E0,9.060000420E0,9.870578600E0
1.352444466E0,3.870000243E-1,3.894000292E0,9.098999977E0,9.904787119E0
1.354407496E0,3.870000243E-1,3.894000292E0,9.022050858E0,9.834145055E0
1.356370545E0,3.870000243E-1,3.894000292E0,9.098999977E0,9.904787119E0
1.358333806E0,3.870000243E-1,3.931950092E0,9.022050858E0,9.849233586E0
1.360297005E0,3.870000243E-1,3.931950092E0,9.098999977E0,9.919768199E0
1.362260241E0,3.490500152E-1,3.931950092E0,9.022050858E0,9.847815449E0
1.364223466E0,3.870000243E-1,3.894000292E0,9.098999977E0,9.904787119E0
1.366186878E0,3.490500152E-1,3.931950092E0,9.098999977E0,9.918360148E0
1.368150235E0,3.490500152E-1,3.931950092E0,9.098999977E0,9.918360148E0
1.370113445E0,3.870000243E-1,3.931950092E0,9.022050858E0,9.849233586E0
1.372076699E0,3.490500152E-1,3.970950127E0,9.098999977E0,9.933885514E0
1.374039916E0,3.870000243E-1,3.970950127E0,9.098999977E0,9.935291365E0
1.376003151E0,3.490500152E-1,3.970950127E0,9.098999977E0,9.933885514E0
1.377966381E0,3.870000243E-1,3.970950127E0,9.060000420E0,9.899586937E0
1.379929612E0,3.870000243E-1,3.931950092E0,9.098999977E0,9.919768199E0
1.381892347E0,3.490500152E-1,3.931950092E0,9.175050735E0,9.988174180E0
1.383855227E0,3.870000243E-1,3.970950127E0,9.098999977E0,9.935291365E0
1.385818477E0,3.870000243E-1,3.931950092E0,9.136950493E0,9.954590140E0
1.387781615E0,3.870000243E-1,4.009050369E0,9.175050735E0,1.002017015E1
1.389744683E0,3.490500152E-1,3.931950092E0,9.136950493E0,9.953187015E0
1.391707771E0,3.490500152E-1,3.970950127E0,9.175050735E0,1.000359120E1
1.393671205E0,3.870000243E-1,3.970950127E0,9.175050735E0,1.000498725E1
1.395634538E0,3.870000243E-1,3.970950127E0,9.214050293E0,1.004076375E1
1.397597813E0,3.870000243E-1,4.009050369E0,9.175050735E0,1.002017015E1
1.399561094E0,3.490500152E-1,3.931950092E0,9.136950493E0,9.953187015E0
1.401524495E0,3.490500152E-1,3.931950092E0,9.175050735E0,9.988174180E0
1.403487861E0,3.870000243E-1,3.931950092E0,9.136950493E0,9.954590140E0
1.405451205E0,3.490500152E-1,3.931950092E0,9.136950493E0,9.953187015E0
1.407414555E0,3.490500152E-1,3.894000292E0,9.214050293E0,1.000918563E1
1.409377596E0,3.109500110E-1,3.970950127E0,9.098999977E0,9.932619765E0
1.411340752E0,3.870000243E-1,3.931950092E0,9.136950493E0,9.954590140E0
1.413304130E0,3.490500152E-1,3.970950127E0,9.175050735E0,1.000359120E1
1.415267442E0,3.490500152E-1,3.894000292E0,9.175050735E0,9.973295854E0
1.417230660E0,4.260000288E-1,3.931950092E0,9.175050735E0,9.991159270E0
1.419193906E0,3.490500152E-1,3.894000292E0,9.214050293E0,1.000918563E1
1.421156989E0,3.109500110E-1,3.894000292E0,9.175050735E0,9.972035107E0
1.423120127E0,3.870000243E-1,3.894000292E0,9.214050293E0,1.001058091E1
1.425083193E0,4.260000288E-1,3.856050253E0,9.252000809E0,1.003245327E1
1.427046280E0,3.870000243E-1,3.856050253E0,9.252000809E0,1.003087292E1
1.429009850E0,3.870000243E-1,3.894000292E0,9.214050293E0,1.001058091E1
1.430973279E0,3.870000243E-1,3.894000292E0,9.214050293E0,1.001058091E1
1.432936537E0,3.109500110E-1,3.894000292E0,9.175050735E0,9.972035107E0
1.434899834E0,3.490500152E-1,3.856050253E0,9.214050293E0,9.994482591E0
1.436863187E0,3.870000243E-1,3.931950092E0,9.136950493E0,9.954590140E0
1.438826524E0,4.260000288E-1,3.931950092E0,9.136950493E0,9.956182595E0
1.440789917E0,3.870000243E-1,3.856050253E0,9.175050735E0,9.959942197E0
1.442753294E0,3.490500152E-1,3.894000292E0,9.098999977E0,9.903376938E0
1.444716507E0,3.490500152E-1,3.894000292E0,9.098999977E0,9.903376938E0
1.446679795E0,3.490500152E-1,3.856050253E0,9.136950493E0,9.923448180E0
1.448642791E0,3.870000243E-1,3.856050253E0,9.175050735E0,9.959942197E0
1.450605872E0,3.490500152E-1,3.856050253E0,9.175050735E0,9.958539826E0
1.452568768E0,3.870000243E-1,3.856050253E0,9.175050735E0,9.959942197E0
1.454531718E0,3.870000243E-1,3.856050253E0,9.136950493E0,9.924855509E0
1.456494709E0,3.109500110E-1,3.856050253E0,9.136950493E0,9.922181100E0
1.458457668E0,3.490500152E-1,3.894000292E0,9.136950493E0,9.938256311E0
1.460420946E0,3.870000243E-1,3.817050219E0,9.175050735E0,9.944908114E0
1.462384130E0,4.260000288E-1,3.894000292E0,9.175050735E0,9.976285396E0
1.464347549E0,3.490500152E-1,3.856050253E0,9.175050735E0,9.958539826E0
1.466310899E0,3.870000243E-1,3.817050219E0,9.136950493E0,9.909768196E0
1.468274116E0,4.260000288E-1,3.894000292E0,9.136950493E0,9.941256390E0
1.470237368E0,4.260000288E-1,3.856050253E0,9.136950493E0,9.926452734E0
1.472200729E0,4.260000288E-1,3.817050219E0,9.175050735E0,9.946502119E0
1.474164058E0,4.260000288E-1,3.856050253E0,9.175050735E0,9.961533796E0
1.476127452E0,4.260000288E-1,3.817050219E0,9.175050735E0,9.946502119E0
1.478090827E0,3.870000243E-1,3.856050253E0,9.136950493E0,9.924855509E0
1.480054423E0,4.260000288E-1,3.817050219E0,9.136950493E0,9.911367852E0
1.482017933E0,4.260000288E-1,3.856050253E0,9.136950493E0,9.926452734E0
1.483981342E0,3.490500152E-1,3.856050253E0,9.136950493E0,9.923448180E0
1.485944781E0,4.260000288E-1,3.856050253E0,9.136950493E0,9.926452734E0
1.487908335E0,3.870000243E-1,3.856050253E0,9.136950493E0,9.924855509E0
1.489871856E0,4.260000288E-1,3.894000292E0,9.136950493E0,9.941256390E0
1.491835403E0,4.260000288E-1,3.856050253E0,9.098999977E0,9.891531740E0
1.493798938E0,5.020500422E-1,3.856050253E0,9.175050735E0,9.965075704E0
1.495762433E0,4.639500082E-1,3.894000292E0,9.175050735E0,9.977977946E0
1.497725940E0,4.639500082E-1,3.856050253E0,9.214050293E0,9.999154762E0
1.499689349E0,4.639500082E-1,3.856050253E0,9.175050735E0,9.963228852E0
1.501652786E0,4.260000288E-1,3.894000292E0,9.214050293E0,1.001216446E1
1.503616535E0,3.870000243E-1,3.894000292E0,9.098999977E0,9.904787119E0
1.505580183E0,4.260000288E-1,3.894000292E0,9.175050735E0,9.976285396E0
1.507543659E0,4.260000288E-1,3.894000292E0,9.214050293E0,1.001216446E1
1.509507185E0,4.260000288E-1,3.894000292E0,9.175050735E0,9.976285396E0
1.511470365E0,3.870000243E-1,3.931950092E0,9.175050735E0,9.989572391E0
1.513433646E0,3.870000243E-1,3.894000292E0,9.136950493E0,9.939661544E0
1.515396688E0,3.870000243E-1,3.894000292E0,9.136950493E0,9.939661544E0
1.517359800E0,3.870000243E-1,3.931950092E0,9.136950493E0,9.954590140E0
1.519323275E0,4.260000288E-1,3.931950092E0,9.098999977E0,9.921366243E0
1.521286644E0,3.870000243E-1,3.931950092E0,9.175050735E0,9.989572391E0
1.523250167E0,3.870000243E-1,3.931950092E0,9.136950493E0,9.954590140E0
1.525213644E0,3.870000243E-1,3.970950127E0,9.136950493E0,9.970059089E0
1.527176805E0,3.490500152E-1,3.931950092E0,9.175050735E0,9.988174180E0
1.529140079E0,3.490500152E-1,3.931950092E0,9.175050735E0,9.988174180E0
1.531103526E0,3.490500152E-1,3.970950127E0,9.214050293E0,1.003937267E1
1.533066923E0,3.109500110E-1,3.970950127E0,9.175050735E0,1.000233427E1
1.535030261E0,3.870000243E-1,3.931950092E0,9.175050735E0,9.989572391E0
1.536993617E0,3.109500110E-1,3.931950092E0,9.214050293E0,1.002275632E1
1.538956831E0,3.490500152E-1,3.931950092E0,9.136950493E0,9.953187015E0
1.540920084E0,3.870000243E-1,3.894000292E0,9.214050293E0,1.001058091E1
1.542883535E0,3.870000243E-1,3.931950092E0,9.214050293E0,1.002540390E1
1.544846928E0,3.490500152E-1,3.894000292E0,9.252000809E0,1.004413227E1
1.546810312E0,3.490500152E-1,3.931950092E0,9.214050293E0,1.002401069E1
1.548773699E0,3.490500152E-1,3.931950092E0,9.252000809E0,1.005890583E1
1.550737084E0,3.490500152E-1,3.931950092E0,9.252000809E0,1.005890583E1
1.552700469E0,3.490500152E-1,3.894000292E0,9.289950371E0,1.007909977E1
1.554663673E0,3.490500152E-1,3.931950092E0,9.252000809E0,1.005890583E1
1.556626930E0,3.490500152E-1,3.894000292E0,9.289950371E0,1.007909977E1
1.558590335E0,3.490500152E-1,3.894000292E0,9.252000809E0,1.004413227E1
1.560553697E0,3.490500152E-1,3.931950092E0,9.252000809E0,1.005890583E1
1.562517100E0,3.490500152E-1,3.894000292E0,9.252000809E0,1.004413227E1
1.564480481E0,3.490500152E-1,3.894000292E0,9.289950371E0,1.007909977E1
1.566443687E0,3.490500152E-1,3.894000292E0,9.252000809E0,1.004413227E1
1.568406944E0,4.260000288E-1,3.856050253E0,9.289950371E0,1.006746132E1
1.570370305E0,3.490500152E-1,3.856050253E0,9.289950371E0,1.006449886E1
1.572333635E0,3.109500110E-1,3.856050253E0,9.289950371E0,1.006324954E1
1.574297254E0,3.109500110E-1,3.856050253E0,9.252000809E0,1.002822678E1
1.576260788E0,3.870000243E-1,3.856050253E0,9.328050613E0,1.010106038E1
1.578224508E0,3.490500152E-1,3.856050253E0,9.289950371E0,1.006449886E1
1.580188173E0,3.109500110E-1,3.856050253E0,9.289950371E0,1.006324954E1
1.582151331E0,3.490500152E-1,3.856050253E0,9.252000809E0,1.002948047E1
1.584114637E0,3.490500152E-1,3.856050253E0,9.289950371E0,1.006449886E1
1.586077980E0,3.870000243E-1,3.856050253E0,9.289950371E0,1.006588647E1
1.588041318E0,3.870000243E-1,3.856050253E0,9.252000809E0,1.003087292E1
1.590004711E0,3.870000243E-1,3.856050253E0,9.252000809E0,1.003087292E1
1.591968087E0,3.870000243E-1,3.856050253E0,9.252000809E0,1.003087292E1
1.593931699E0,3.490500152E-1,3.856050253E0,9.175050735E0,9.958539826E0
1.595895241E0,3.490500152E-1,3.856050253E0,9.175050735E0,9.958539826E0
1.597858809E0,3.490500152E-1,3.856050253E0,9.214050293E0,9.994482591E0
1.599822349E0,3.490500152E-1,3.856050253E0,9.214050293E0,9.994482591E0
1.601786021E0,3.490500152E-1,3.856050253E0,9.175050735E0,9.958539826E0
1.603749655E0,3.490500152E-1,3.817050219E0,9.214050293E0,9.979500543E0
1.605713178E0,3.490500152E-1,3.817050219E0,9.214050293E0,9.979500543E0
1.607676734E0,3.490500152E-1,3.931950092E0,9.136950493E0,9.953187015E0
1.609640337E0,3.490500152E-1,3.894000292E0,9.175050735E0,9.973295854E0
1.611603909E0,3.490500152E-1,3.894000292E0,9.136950493E0,9.938256311E0
1.613567443E0,3.490500152E-1,3.894000292E0,9.175050735E0,9.973295854E0
1.615530988E0,3.490500152E-1,3.856050253E0,9.136950493E0,9.923448180E0
1.617494480E0,3.490500152E-1,3.931950092E0,9.098999977E0,9.918360148E0
1.619457988E0,3.490500152E-1,3.817050219E0,9.175050735E0,9.943503622E0
1.621421356E0,4.260000288E-1,3.894000292E0,9.136950493E0,9.941256390E0
1.623384762E0,3.870000243E-1,3.894000292E0,9.136950493E0,9.939661544E0
1.625348187E0,3.490500152E-1,3.894000292E0,9.136950493E0,9.938256311E0
1.627311606E0,3.870000243E-1,3.894000292E0,9.098999977E0,9.904787119E0
1.629274805E0,4.260000288E-1,3.894000292E0,9.060000420E0,9.870578600E0
1.631238069E0,3.490500152E-1,3.856050253E0,9.060000420E0,9.852642644E0
1.633201328E0,3.870000243E-1,3.894000292E0,9.060000420E0,9.868972332E0
1.635164565E0,3.490500152E-1,3.856050253E0,8.983950615E0,9.782756673E0
1.637127794E0,4.260000288E-1,3.894000292E0,9.060000420E0,9.870578600E0
1.639091026E0,3.870000243E-1,3.856050253E0,9.022050858E0,9.819179917E0
1.641054076E0,3.870000243E-1,3.894000292E0,9.022050858E0,9.834145055E0
1.643017180E0,3.870000243E-1,3.856050253E0,9.060000420E0,9.854060086E0
1.644980413E0,3.870000243E-1,3.894000292E0,9.060000420E0,9.868972332E0
1.646943621E0,3.490500152E-1,3.894000292E0,9.098999977E0,9.903376938E0
1.648906991E0,4.260000288E-1,3.894000292E0,9.060000420E0,9.870578600E0
1.650870313E0,3.870000243E-1,3.894000292E0,9.098999977E0,9.904787119E0
1.652833349E0,3.870000243E-1,3.894000292E0,9.098999977E0,9.904787119E0
1.654796469E0,3.870000243E-1,3.856050253E0,9.098999977E0,9.889928875E0
1.656759574E0,3.870000243E-1,3.931950092E0,9.098999977E0,9.919768199E0
1.658722690E0,3.490500152E-1,3.894000292E0,9.098999977E0,9.903376938E0
1.660685715E0,3.870000243E-1,3.931950092E0,9.136950493E0,9.954590140E0
1.662648767E0,4.260000288E-1,3.856050253E0,9.175050735E0,9.961533796E0
1.664611847E0,3.870000243E-1,3.894000292E0,9.136950493E0,9.939661544E0
1.666574919E0,4.260000288E-1,3.856050253E0,9.098999977E0,9.891531740E0
1.668538177E0,3.490500152E-1,3.817050219E0,9.175050735E0,9.943503622E0
1.670501380E0,3.870000243E-1,3.894000292E0,9.175050735E0,9.974696150E0
1.672464482E0,4.260000288E-1,3.817050219E0,9.136950493E0,9.911367852E0
1.674427613E0,4.260000288E-1,3.817050219E0,9.175050735E0,9.946502119E0
1.676390995E0,5.020500422E-1,3.894000292E0,9.136950493E0,9.944805520E0
1.678354303E0,4.260000288E-1,3.894000292E0,9.136950493E0,9.941256390E0
1.680317527E0,4.260000288E-1,3.894000292E0,9.136950493E0,9.941256390E0
1.682280772E0,3.870000243E-1,3.894000292E0,9.175050735E0,9.974696150E0
1.684243685E0,4.260000288E-1,3.856050253E0,9.136950493E0,9.926452734E0
1.686206695E0,4.260000288E-1,3.856050253E0,9.214050293E0,9.997465798E0
1.688169917E0,3.870000243E-1,3.894000292E0,9.175050735E0,9.974696150E0
1.690133077E0,4.260000288E-1,3.894000292E0,9.136950493E0,9.941256390E0
1.692096171E0,4.260000288E-1,3.894000292E0,9.175050735E0,9.976285396E0
1.694059295E0,3.870000243E-1,3.894000292E0,9.214050293E0,1.001058091E1
1.696022679E0,3.870000243E-1,3.894000292E0,9.214050293E0,1.001058091E1
1.697985986E0,3.870000243E-1,3.856050253E0,9.175050735E0,9.959942197E0
1.699949429E0,3.870000243E-1,3.894000292E0,9.098999977E0,9.904787119E0
1.701912832E0,3.490500152E-1,3.894000292E0,9.098999977E0,9.903376938E0
1.703876184E0,3.490500152E-1,3.894000292E0,9.214050293E0,1.000918563E1
1.705839541E0,3.870000243E-1,3.894000292E0,9.136950493E0,9.939661544E0
1.707802615E0,3.870000243E-1,3.894000292E0,9.136950493E0,9.939661544E0
1.709765772E0,4.260000288E-1,3.856050253E0,9.214050293E0,9.997465798E0
1.711729149E0,3.870000243E-1,3.931950092E0,9.175050735E0,9.989572391E0
1.713692462E0,3.870000243E-1,3.894000292E0,9.175050735E0,9.974696150E0
1.715655923E0,3.870000243E-1,3.894000292E0,9.136950493E0,9.939661544E0
1.717619327E0,4.260000288E-1,3.894000292E0,9.136950493E0,9.941256390E0
1.719582349E0,3.870000243E-1,3.894000292E0,9.136950493E0,9.939661544E0
1.721545483E0,4.260000288E-1,3.856050253E0,9.136950493E0,9.926452734E0
1.723508864E0,4.260000288E-1,3.856050253E0,9.175050735E0,9.961533796E0
1.725472173E0,4.260000288E-1,3.931950092E0,9.098999977E0,9.921366243E0
1.727435552E0,4.260000288E-1,3.931950092E0,9.175050735E0,9.991159270E0
1.729398924E0,3.870000243E-1,3.856050253E0,9.214050293E0,9.995879920E0
1.731361816E0,3.870000243E-1,3.894000292E0,9.175050735E0,9.974696150E0
1.733324849E0,4.639500082E-1,3.894000292E0,9.214050293E0,1.001385094E1
1.735288473E0,4.260000288E-1,3.856050253E0,9.136950493E0,9.926452734E0
1.737251924E0,3.870000243E-1,3.894000292E0,9.175050735E0,9.974696150E0
1.739215146E0,4.260000288E-1,3.856050253E0,9.175050735E0,9.961533796E0
1.741178415E0,3.870000243E-1,3.856050253E0,9.175050735E0,9.959942197E0
1.743141774E0,4.260000288E-1,3.856050253E0,9.136950493E0,9.926452734E0
1.745105106E0,3.490500152E-1,3.894000292E0,9.136950493E0,9.938256311E0
1.747068320E0,3.870000243E-1,3.894000292E0,9.214050293E0,1.001058091E1
1.749031569E0,3.870000243E-1,3.856050253E0,9.175050735E0,9.959942197E0
1.750994266E0,3.870000243E-1,3.931950092E0,9.214050293E0,1.002540390E1
1.752957118E0,3.870000243E-1,3.856050253E0,9.214050293E0,9.995879920E0
1.754920052E0,4.260000288E-1,3.894000292E0,9.136950493E0,9.941256390E0
1.756882962E0,3.870000243E-1,3.894000292E0,9.175050735E0,9.974696150E0
1.758846113E0,3.870000243E-1,3.894000292E0,9.214050293E0,1.001058091E1
1.760809193E0,3.870000243E-1,3.894000292E0,9.175050735E0,9.974696150E0
1.762772251E0,3.870000243E-1,3.817050219E0,9.136950493E0,9.909768196E0
1.764735329E0,3.870000243E-1,3.894000292E0,9.214050293E0,1.001058091E1
1.766698406E0,4.260000288E-1,3.894000292E0,9.214050293E0,1.001216446E1
1.768661483E0,4.260000288E-1,3.894000292E0,9.252000809E0,1.004710074E1
1.770624739E0,3.870000243E-1,3.856050253E0,9.252000809E0,1.003087292E1
1.772587943E0,3.490500152E-1,3.856050253E0,9.252000809E0,1.002948047E1
1.774551129E0,3.870000243E-1,3.894000292E0,9.214050293E0,1.001058091E1
1.776514324E0,3.870000243E-1,3.894000292E0,9.175050735E0,9.974696150E0
1.778477426E0,4.260000288E-1,3.856050253E0,9.252000809E0,1.003245327E1
1.780440555E0,3.490500152E-1,3.894000292E0,9.214050293E0,1.000918563E1
1.782403578E0,3.870000243E-1,3.856050253E0,9.175050735E0,9.959942197E0
1.784366632E0,3.870000243E-1,3.894000292E0,9.214050293E0,1.001058091E1
1.786329578E0,3.870000243E-1,3.894000292E0,9.214050293E0,1.001058091E1
1.788292555E0,3.490500152E-1,3.894000292E0,9.214050293E0,1.000918563E1
1.790255783E0,3.490500152E-1,3.856050253E0,9.175050735E0,9.958539826E0
1.792218938E0,3.490500152E-1,3.856050253E0,9.175050735E0,9.958539826E0
1.794182182E0,3.490500152E-1,3.894000292E0,9.214050293E0,1.000918563E1
1.796145399E0,2.719500065E-1,3.894000292E0,9.175050735E0,9.970895199E0
1.798108429E0,3.870000243E-1,3.894000292E0,9.175050735E0,9.974696150E0
1.800071531E0,3.109500110E-1,3.894000292E0,9.214050293E0,1.000792941E1
1.802034288E0,3.490500152E-1,3.894000292E0,9.175050735E0,9.973295854E0
1.803997147E0,3.490500152E-1,3.856050253E0,9.136950493E0,9.923448180E0
1.805960395E0,3.490500152E-1,3.894000292E0,9.136950493E0,9.938256311E0
1.807923529E0,3.490500152E-1,3.894000292E0,9.175050735E0,9.973295854E0
1.809886462E0,3.870000243E-1,3.894000292E0,9.175050735E0,9.974696150E0
1.811849454E0,3.490500152E-1,3.894000292E0,9.136950493E0,9.938256311E0
1.813812725E0,3.490500152E-1,3.931950092E0,9.175050735E0,9.988174180E0
1.815775914E0,3.490500152E-1,3.894000292E0,9.175050735E0,9.973295854E0
1.817739332E0,3.109500110E-1,3.856050253E0,9.214050293E0,9.993224518E0
1.819702683E0,3.870000243E-1,3.894000292E0,9.098999977E0,9.904787119E0
1.821666029E0,3.870000243E-1,3.894000292E0,9.175050735E0,9.974696150E0
1.823629377E0,3.490500152E-1,3.931950092E0,9.175050735E0,9.988174180E0
1.825592767E0,3.490500152E-1,3.894000292E0,9.136950493E0,9.938256311E0
1.827556145E0,3.490500152E-1,3.894000292E0,9.214050293E0,1.000918563E1
1.829519531E0,3.490500152E-1,3.894000292E0,9.175050735E0,9.973295854E0
1.831482914E0,3.109500110E-1,3.894000292E0,9.175050735E0,9.972035107E0
1.833446165E0,3.490500152E-1,3.931950092E0,9.175050735E0,9.988174180E0
1.835409454E0,3.870000243E-1,3.931950092E0,9.175050735E0,9.989572391E0
1.837372630E0,3.490500152E-1,3.894000292E0,9.175050735E0,9.973295854E0
1.839335839E0,3.109500110E-1,3.894000292E0,9.214050293E0,1.000792941E1
1.841298758E0,3.490500152E-1,3.894000292E0,9.175050735E0,9.973295854E0
1.843261762E0,3.490500152E-1,3.894000292E0,9.175050735E0,9.973295854E0
1.845224971E0,3.490500152E-1,3.894000292E0,9.214050293E0,1.000918563E1
1.847188130E0,3.870000243E-1,3.894000292E0,9.175050735E0,9.974696150E0
1.849151553E0,3.490500152E-1,3.931950092E0,9.136950493E0,9.953187015E0
1.851114899E0,3.490500152E-1,3.894000292E0,9.175050735E0,9.973295854E0
1.853078335E0,3.490500152E-1,3.894000292E0,9.175050735E0,9.973295854E0
1.855041745E0,3.490500152E-1,3.931950092E0,9.136950493E0,9.953187015E0
1.857005126E0,3.490500152E-1,3.894000292E0,9.098999977E0,9.903376938E0
1.858968516E0,3.109500110E-1,3.894000292E0,9.136950493E0,9.936991119E0
1.860932034E0,3.490500152E-1,3.931950092E0,9.136950493E0,9.953187015E0
1.862895514E0,3.109500110E-1,3.970950127E0,9.136950493E0,9.967396808E0
1.864858748E0,3.490500152E-1,3.856050253E0,9.175050735E0,9.958539826E0
1.866822055E0,3.490500152E-1,3.894000292E0,9.098999977E0,9.903376938E0
1.868785457E0,3.490500152E-1,3.894000292E0,9.098999977E0,9.903376938E0
1.870748827E0,3.490500152E-1,3.894000292E0,9.136950493E0,9.938256311E0
1.872712349E0,3.490500152E-1,3.894000292E0,9.098999977E0,9.903376938E0
1.874675827E0,3.109500110E-1,3.894000292E0,9.175050735E0,9.972035107E0
1.876639062E0,3.490500152E-1,3.931950092E0,9.136950493E0,9.953187015E0
1.878602368E0,3.870000243E-1,3.856050253E0,9.136950493E0,9.924855509E0
1.880565890E0,3.870000243E-1,3.931950092E0,9.098999977E0,9.919768199E0
1.882529356E0,3.490500152E-1,3.931950092E0,9.136950493E0,9.953187015E0
1.884492592E0,3.870000243E-1,3.894000292E0,9.175050735E0,9.974696150E0
1.886455896E0,3.870000243E-1,3.894000292E0,9.175050735E0,9.974696150E0
1.888419248E0,3.870000243E-1,3.931950092E0,9.098999977E0,9.919768199E0
1.890382586E0,3.870000243E-1,3.931950092E0,9.098999977E0,9.919768199E0
1.892345976E0,3.870000243E-1,3.894000292E0,9.175050735E0,9.974696150E0
1.894309385E0,3.490500152E-1,3.894000292E0,9.175050735E0,9.973295854E0
1.896272721E0,3.870000243E-1,3.894000292E0,9.214050293E0,1.001058091E1
1.898236079E0,3.870000243E-1,3.931950092E0,9.214050293E0,1.002540390E1
1.900199288E0,3.870000243E-1,3.856050253E0,9.136950493E0,9.924855509E0
1.902162540E0,3.870000243E-1,3.856050253E0,9.136950493E0,9.924855509E0
1.904125826E0,4.260000288E-1,3.894000292E0,9.175050735E0,9.976285396E0
1.906089092E0,4.260000288E-1,3.856050253E0,9.136950493E0,9.926452734E0
1.908052497E0,4.260000288E-1,3.856050253E0,9.136950493E0,9.926452734E0
1.910015861E0,3.870000243E-1,3.856050253E0,9.136950493E0,9.924855509E0
1.911979070E0,3.870000243E-1,3.856050253E0,9.175050735E0,9.959942197E0
1.913942325E0,4.260000288E-1,3.817050219E0,9.175050735E0,9.946502119E0
1.915905690E0,4.260000288E-1,3.817050219E0,9.136950493E0,9.911367852E0
1.917869019E0,3.870000243E-1,3.856050253E0,9.136950493E0,9.924855509E0
1.919832458E0,3.870000243E-1,3.856050253E0,9.136950493E0,9.924855509E0
1.921795865E0,4.260000288E-1,3.856050253E0,9.175050735E0,9.961533796E0
1.923759381E0,4.260000288E-1,3.894000292E0,9.175050735E0,9.976285396E0
1.925722865E0,4.639500082E-1,3.856050253E0,9.136950493E0,9.928153780E0
1.927685890E0,4.639500082E-1,3.931950092E0,9.136950493E0,9.957878562E0
1.929649070E0,4.639500082E-1,3.817050219E0,9.136950493E0,9.913071486E0
1.931612443E0,4.260000288E-1,3.817050219E0,9.136950493E0,9.911367852E0
1.933575760E0,3.870000243E-1,3.817050219E0,9.214050293E0,9.980899969E0
1.935539337E0,4.260000288E-1,3.856050253E0,9.214050293E0,9.997465798E0
1.937502837E0,3.870000243E-1,3.817050219E0,9.175050735E0,9.944908114E0
1.939466238E0,4.260000288E-1,3.817050219E0,9.214050293E0,9.982488227E0
1.941429675E0,3.870000243E-1,3.894000292E0,9.175050735E0,9.974696150E0
1.943393051E0,3.870000243E-1,3.856050253E0,9.175050735E0,9.959942197E0
1.945356445E0,3.870000243E-1,3.894000292E0,9.175050735E0,9.974696150E0
1.947319962E0,3.870000243E-1,3.894000292E0,9.136950493E0,9.939661544E0
1.949283443E0,3.490500152E-1,3.931950092E0,9.175050735E0,9.988174180E0
1.951247055E0,3.109500110E-1,3.894000292E0,9.175050735E0,9.972035107E0
1.953210615E0,3.490500152E-1,3.856050253E0,9.214050293E0,9.994482591E0
1.955174151E0,3.490500152E-1,3.856050253E0,9.136950493E0,9.923448180E0
1.957137694E0,3.109500110E-1,3.931950092E0,9.175050735E0,9.986915311E0
1.959100826E0,2.719500065E-1,3.931950092E0,9.175050735E0,9.985777102E0
1.961064079E0,2.719500065E-1,3.894000292E0,9.175050735E0,9.970895199E0
1.963027525E0,2.719500065E-1,3.894000292E0,9.136950493E0,9.935847190E0
1.964990918E0,3.490500152E-1,3.931950092E0,9.136950493E0,9.953187015E0
1.966954122E0,3.490500152E-1,3.931950092E0,9.175050735E0,9.988174180E0
1.968917382E0,3.870000243E-1,3.970950127E0,9.136950493E0,9.970059089E0
1.970880787E0,3.490500152E-1,3.931950092E0,9.175050735E0,9.988174180E0
1.972844149E0,3.490500152E-1,3.931950092E0,9.175050735E0,9.988174180E0
1.974807678E0,3.109500110E-1,3.894000292E0,9.175050735E0,9.972035107E0
1.976771154E0,3.490500152E-1,3.931950092E0,9.175050735E0,9.988174180E0
1.978734389E0,3.490500152E-1,3.931950092E0,9.136950493E0,9.953187015E0
1.980697694E0,3.490500152E-1,3.931950092E0,9.136950493E0,9.953187015E0
1.982660687E0,3.870000243E-1,3.894000292E0,9.136950493E0,9.939661544E0
1.984623771E0,3.870000243E-1,3.931950092E0,9.136950493E0,9.954590140E0
1.986587095E0,3.490500152E-1,3.894000292E0,9.136950493E0,9.938256311E0
1.988550332E0,3.490500152E-1,3.894000292E0,9.136950493E0,9.938256311E0
1.990513383E0,3.870000243E-1,3.856050253E0,9.136950493E0,9.924855509E0
1.992476488E0,3.870000243E-1,3.894000292E0,9.175050735E0,9.974696150E0
1.994440055E0,3.870000243E-1,3.894000292E0,9.098999977E0,9.904787119E0
1.996403486E0,3.870000243E-1,3.894000292E0,9.175050735E0,9.974696150E0
1.998366859E0,3.870000243E-1,3.856050253E0,9.060000420E0,9.854060086E0
2.000330252E0,4.260000288E-1,3.894000292E0,9.136950493E0,9.941256390E0
2.002293500E0,3.870000243E-1,3.894000292E0,9.098999977E0,9.904787119E0
2.004256790E0,3.870000243E-1,3.894000292E0,9.098999977E0,9.904787119E0
2.006219966E0,3.870000243E-1,3.856050253E0,9.136950493E0,9.924855509E0
2.008183175E0,3.870000243E-1,3.894000292E0,9.098999977E0,9.904787119E0
2.010146265E0,3.870000243E-1,3.894000292E0,9.136950493E0,9.939661544E0
2.012109397E0,3.870000243E-1,3.856050253E0,9.098999977E0,9.889928875E0
2.014072959E0,3.870000243E-1,3.894000292E0,9.098999977E0,9.904787119E0
2.016036395E0,3.870000243E-1,3.856050253E0,9.098999977E0,9.889928875E0
2.017999817E0,3.490500152E-1,3.894000292E0,9.098999977E0,9.903376938E0
2.019963243E0,3.870000243E-1,3.894000292E0,9.098999977E0,9.904787119E0
2.021926599E0,3.490500152E-1,3.856050253E0,9.175050735E0,9.958539826E0
2.023889959E0,3.870000243E-1,3.894000292E0,9.136950493E0,9.939661544E0
2.025853213E0,3.870000243E-1,3.894000292E0,9.136950493E0,9.939661544E0
2.027816498E0,3.870000243E-1,3.931950092E0,9.136950493E0,9.954590140E0
2.029779853E0,3.490500152E-1,3.931950092E0,9.175050735E0,9.988174180E0
2.031743188E0,3.490500152E-1,3.931950092E0,9.136950493E0,9.953187015E0
2.033706226E0,3.490500152E-1,3.894000292E0,9.136950493E0,9.938256311E0
2.035669348E0,3.109500110E-1,3.931950092E0,9.214050293E0,1.002275632E1
2.037632822E0,3.490500152E-1,3.970950127E0,9.136950493E0,9.968658141E0
2.039596192E0,3.490500152E-1,3.970950127E0,9.252000809E0,1.007421460E1
2.041559535E0,3.109500110E-1,3.970950127E0,9.214050293E0,1.003812022E1
2.043522886E0,3.870000243E-1,3.970950127E0,9.214050293E0,1.004076375E1
2.045485781E0,3.870000243E-1,3.931950092E0,9.214050293E0,1.002540390E1
2.047448810E0,4.260000288E-1,3.970950127E0,9.214050293E0,1.004234254E1
2.049412209E0,3.870000243E-1,3.931950092E0,9.214050293E0,1.002540390E1
2.051375500E0,3.490500152E-1,3.931950092E0,9.214050293E0,1.002401069E1
2.053338721E0,3.870000243E-1,3.931950092E0,9.252000809E0,1.006029421E1
2.055301963E0,3.870000243E-1,3.894000292E0,9.214050293E0,1.001058091E1
2.057264998E0,3.870000243E-1,3.894000292E0,9.252000809E0,1.004552270E1
2.059228103E0,3.870000243E-1,3.894000292E0,9.214050293E0,1.001058091E1
2.061191534E0,3.490500152E-1,3.817050219E0,9.252000809E0,1.001455078E1
2.063154870E0,4.260000288E-1,3.856050253E0,9.214050293E0,9.997465798E0
2.065118084E0,3.490500152E-1,3.817050219E0,9.214050293E0,9.979500543E0
2.067081334E0,3.490500152E-1,3.856050253E0,9.175050735E0,9.958539826E0
2.069044945E0,3.870000243E-1,3.817050219E0,9.214050293E0,9.980899969E0
2.071008433E0,4.639500082E-1,3.856050253E0,9.214050293E0,9.999154762E0
2.072971666E0,3.870000243E-1,3.856050253E0,9.252000809E0,1.003087292E1
2.074934973E0,3.490500152E-1,3.856050253E0,9.214050293E0,9.994482591E0
2.076898191E0,3.870000243E-1,3.856050253E0,9.214050293E0,9.995879920E0
2.078861435E0,3.870000243E-1,3.778950214E0,9.214050293E0,9.966391350E0
2.080824638E0,3.490500152E-1,3.817050219E0,9.252000809E0,1.001455078E1
2.082787839E0,3.870000243E-1,3.817050219E0,9.252000809E0,1.001594531E1
2.084750894E0,3.870000243E-1,3.817050219E0,9.214050293E0,9.980899969E0
2.086713992E0,3.490500152E-1,3.817050219E0,9.214050293E0,9.979500543E0
2.088677065E0,3.870000243E-1,3.778950214E0,9.214050293E0,9.966391350E0
2.090640146E0,4.260000288E-1,3.817050219E0,9.252000809E0,1.001752801E1
2.092603073E0,3.870000243E-1,3.817050219E0,9.252000809E0,1.001594531E1
2.094566055E0,3.490500152E-1,3.817050219E0,9.214050293E0,9.979500543E0
2.096529328E0,3.870000243E-1,3.778950214E0,9.214050293E0,9.966391350E0
2.098492515E0,3.870000243E-1,3.817050219E0,9.252000809E0,1.001594531E1
2.100455709E0,3.870000243E-1,3.778950214E0,9.252000809E0,1.000148752E1
2.102418900E0,3.870000243E-1,3.778950214E0,9.252000809E0,1.000148752E1
2.104382003E0,3.870000243E-1,3.817050219E0,9.214050293E0,9.980899969E0
2.106345132E0,4.260000288E-1,3.856050253E0,9.289950371E0,1.006746132E1
2.108308560E0,3.490500152E-1,3.856050253E0,9.175050735E0,9.958539826E0
2.110271900E0,4.260000288E-1,3.817050219E0,9.214050293E0,9.982488227E0
2.112235113E0,4.260000288E-1,3.817050219E0,9.214050293E0,9.982488227E0
2.114198363E0,4.260000288E-1,3.817050219E0,9.214050293E0,9.982488227E0
2.116162129E0,4.639500082E-1,3.778950214E0,9.252000809E0,1.000476053E1
2.118125745E0,4.260000288E-1,3.817050219E0,9.175050735E0,9.946502119E0
2.120089091E0,4.639500082E-1,3.817050219E0,9.136950493E0,9.913071486E0
2.122052516E0,4.639500082E-1,3.817050219E0,9.175050735E0,9.948199736E0
2.124015893E0,5.020500422E-1,3.856050253E0,9.175050735E0,9.965075704E0
2.125979285E0,4.639500082E-1,3.817050219E0,9.214050293E0,9.984179725E0
2.127942429E0,4.639500082E-1,3.856050253E0,9.175050735E0,9.963228852E0
2.129905656E0,4.639500082E-1,3.856050253E0,9.175050735E0,9.963228852E0
2.131869112E0,5.020500422E-1,3.856050253E0,9.098999977E0,9.895098705E0
2.133832500E0,5.020500422E-1,3.856050253E0,9.136950493E0,9.930007155E0
2.135796064E0,4.639500082E-1,3.856050253E0,9.098999977E0,9.893238790E0
2.137759577E0,4.639500082E-1,3.894000292E0,9.098999977E0,9.908092070E0
2.139722575E0,4.260000288E-1,3.856050253E0,9.136950493E0,9.926452734E0
2.141685728E0,4.639500082E-1,3.817050219E0,9.098999977E0,9.878103187E0
2.143648971E0,4.260000288E-1,3.856050253E0,9.136950493E0,9.926452734E0
2.145612187E0,4.260000288E-1,3.894000292E0,9.098999977E0,9.906387580E0
2.147575377E0,3.870000243E-1,3.894000292E0,9.098999977E0,9.904787119E0
2.149538574E0,4.260000288E-1,3.894000292E0,9.098999977E0,9.906387580E0
2.151501631E0,4.260000288E-1,3.894000292E0,9.098999977E0,9.906387580E0
2.153464761E0,3.870000243E-1,3.894000292E0,9.136950493E0,9.939661544E0
2.155428188E0,4.260000288E-1,3.894000292E0,9.175050735E0,9.976285396E0
2.157391528E0,4.260000288E-1,3.894000292E0,9.175050735E0,9.976285396E0
2.159354561E0,4.260000288E-1,3.856050253E0,9.175050735E0,9.961533796E0
2.161317684E0,4.260000288E-1,3.894000292E0,9.136950493E0,9.941256390E0
2.163281253E0,3.870000243E-1,3.894000292E0,9.175050735E0,9.974696150E0
2.165244687E0,3.870000243E-1,3.894000292E0,9.175050735E0,9.974696150E0
2.167207929E0,4.639500082E-1,3.856050253E0,9.252000809E0,1.003413634E1
2.169171227E0,4.260000288E-1,3.856050253E0,9.214050293E0,9.997465798E0
2.171134626E0,3.490500152E-1,3.894000292E0,9.214050293E0,1.000918563E1
2.173097995E0,3.490500152E-1,3.856050253E0,9.214050293E0,9.994482591E0
2.175061342E0,4.260000288E-1,3.894000292E0,9.214050293E0,1.001216446E1
2.177024693E0,4.260000288E-1,3.856050253E0,9.175050735E0,9.961533796E0
2.178987903E0,3.490500152E-1,3.894000292E0,9.175050735E0,9.973295854E0
2.180951154E0,3.870000243E-1,3.894000292E0,9.136950493E0,9.939661544E0
2.182914426E0,4.260000288E-1,3.894000292E0,9.175050735E0,9.976285396E0
2.184877691E0,3.870000243E-1,3.894000292E0,9.175050735E0,9.974696150E0
2.186841101E0,3.490500152E-1,3.856050253E0,9.175050735E0,9.958539826E0
2.188804465E0,4.260000288E-1,3.856050253E0,9.136950493E0,9.926452734E0
2.190767988E0,3.870000243E-1,3.894000292E0,9.214050293E0,1.001058091E1
2.192731465E0,3.870000243E-1,3.894000292E0,9.175050735E0,9.974696150E0
2.194695014E0,3.870000243E-1,3.931950092E0,9.175050735E0,9.989572391E0
2.196658542E0,3.870000243E-1,3.894000292E0,9.214050293E0,1.001058091E1
2.198621915E0,3.490500152E-1,3.931950092E0,9.214050293E0,1.002401069E1
2.200585357E0,3.490500152E-1,3.931950092E0,9.175050735E0,9.988174180E0
2.202548687E0,3.870000243E-1,3.931950092E0,9.175050735E0,9.989572391E0
2.204512050E0,3.490500152E-1,3.856050253E0,9.175050735E0,9.958539826E0
2.206475303E0,3.490500152E-1,3.931950092E0,9.214050293E0,1.002401069E1
2.208438588E0,3.490500152E-1,3.894000292E0,9.214050293E0,1.000918563E1
2.210402085E0,3.490500152E-1,3.931950092E0,9.175050735E0,9.988174180E0
2.212365547E0,3.490500152E-1,3.931950092E0,9.252000809E0,1.005890583E1
2.214328739E0,3.870000243E-1,3.894000292E0,9.214050293E0,1.001058091E1
2.216292011E0,4.260000288E-1,3.931950092E0,9.175050735E0,9.991159270E0
2.218255459E0,3.490500152E-1,3.931950092E0,9.214050293E0,1.002401069E1
2.220218855E0,3.490500152E-1,3.931950092E0,9.175050735E0,9.988174180E0
2.222181902E0,3.490500152E-1,3.894000292E0,9.175050735E0,9.973295854E0
2.224145035E0,3.490500152E-1,3.931950092E0,9.175050735E0,9.988174180E0
2.226108416E0,3.870000243E-1,3.931950092E0,9.136950493E0,9.954590140E0
2.228071725E0,3.870000243E-1,3.931950092E0,9.136950493E0,9.954590140E0
2.230035123E0,3.109500110E-1,3.856050253E0,9.175050735E0,9.957277211E0
2.231998494E0,3.490500152E-1,3.894000292E0,9.136950493E0,9.938256311E0
2.233961718E0,3.490500152E-1,3.931950092E0,9.136950493E0,9.953187015E0
2.235925006E0,3.870000243E-1,3.894000292E0,9.136950493E0,9.939661544E0
2.237888406E0,3.109500110E-1,3.894000292E0,9.136950493E0,9.936991119E0
2.239851773E0,3.490500152E-1,3.894000292E0,9.136950493E0,9.938256311E0
2.241814981E0,3.109500110E-1,3.894000292E0,9.098999977E0,9.902107289E0
2.243778236E0,3.490500152E-1,3.894000292E0,9.136950493E0,9.938256311E0
2.245741782E0,3.870000243E-1,3.856050253E0,9.098999977E0,9.889928875E0
2.247705239E0,3.490500152E-1,3.931950092E0,9.136950493E0,9.953187015E0
2.249668477E0,3.490500152E-1,3.894000292E0,9.136950493E0,9.938256311E0
2.251631780E0,3.109500110E-1,3.894000292E0,9.098999977E0,9.902107289E0
2.253595177E0,4.260000288E-1,3.856050253E0,9.098999977E0,9.891531740E0
2.255558547E0,3.490500152E-1,3.931950092E0,9.136950493E0,9.953187015E0
2.257522114E0,3.490500152E-1,3.856050253E0,9.175050735E0,9.958539826E0
2.259485624E0,3.490500152E-1,3.931950092E0,9.136950493E0,9.953187015E0
2.261448808E0,3.490500152E-1,3.894000292E0,9.175050735E0,9.973295854E0
2.263412088E0,3.490500152E-1,3.894000292E0,9.136950493E0,9.938256311E0
2.265375310E0,3.490500152E-1,3.856050253E0,9.136950493E0,9.923448180E0
2.267338549E0,3.490500152E-1,3.931950092E0,9.175050735E0,9.988174180E0
2.269301548E0,3.870000243E-1,3.856050253E0,9.098999977E0,9.889928875E0
2.271264621E0,3.870000243E-1,3.856050253E0,9.175050735E0,9.959942197E0
2.273227878E0,3.870000243E-1,3.894000292E0,9.136950493E0,9.939661544E0
2.275191081E0,3.490500152E-1,3.856050253E0,9.175050735E0,9.958539826E0
2.277154137E0,4.260000288E-1,3.894000292E0,9.175050735E0,9.976285396E0
2.279117237E0,4.260000288E-1,3.931950092E0,9.136950493E0,9.956182595E0
2.281080534E0,3.870000243E-1,3.894000292E0,9.175050735E0,9.974696150E0
2.283043773E0,3.490500152E-1,3.894000292E0,9.175050735E0,9.973295854E0
2.285007137E0,4.260000288E-1,3.931950092E0,9.136950493E0,9.956182595E0
2.286970465E0,4.260000288E-1,3.856050253E0,9.175050735E0,9.961533796E0
2.288933140E0,3.870000243E-1,3.856050253E0,9.136950493E0,9.924855509E0
2.290896006E0,3.490500152E-1,3.894000292E0,9.098999977E0,9.903376938E0
2.292859192E0,3.870000243E-1,3.856050253E0,9.136950493E0,9.924855509E0
2.294822264E0,3.490500152E-1,3.894000292E0,9.175050735E0,9.973295854E0
2.296785657E0,3.870000243E-1,3.894000292E0,9.098999977E0,9.904787119E0
2.298748956E0,3.490500152E-1,3.931950092E0,9.098999977E0,9.918360148E0
2.300712400E0,3.870000243E-1,3.894000292E0,9.175050735E0,9.974696150E0
2.302675802E0,3.870000243E-1,3.931950092E0,9.136950493E0,9.954590140E0
2.304639149E0,3.870000243E-1,3.894000292E0,9.136950493E0,9.939661544E0
2.306602506E0,4.260000288E-1,3.931950092E0,9.136950493E0,9.956182595E0
2.308565715E0,3.870000243E-1,3.931950092E0,9.175050735E0,9.989572391E0
2.310528968E0,3.490500152E-1,3.894000292E0,9.098999977E0,9.903376938E0
2.312492419E0,3.490500152E-1,3.894000292E0,9.098999977E0,9.903376938E0
2.314455812E0,3.870000243E-1,3.970950127E0,9.098999977E0,9.935291365E0
2.316419210E0,3.109500110E-1,3.894000292E0,9.136950493E0,9.936991119E0
2.318382597E0,3.870000243E-1,3.931950092E0,9.060000420E0,9.884007697E0
2.320345982E0,3.490500152E-1,3.931950092E0,9.098999977E0,9.918360148E0
2.322309367E0,3.490500152E-1,3.894000292E0,9.136950493E0,9.938256311E0
2.324272751E0,3.870000243E-1,3.894000292E0,9.175050735E0,9.974696150E0
2.326236136E0,3.870000243E-1,3.894000292E0,9.175050735E0,9.974696150E0
2.328199300E0,3.870000243E-1,3.970950127E0,9.136950493E0,9.970059089E0
2.330162525E0,3.870000243E-1,3.931950092E0,9.175050735E0,9.989572391E0
2.332125801E0,3.870000243E-1,3.931950092E0,9.214050293E0,1.002540390E1
2.334089062E0,3.870000243E-1,3.894000292E0,9.175050735E0,9.974696150E0
2.336052288E0,4.260000288E-1,3.856050253E0,9.175050735E0,9.961533796E0
2.338015525E0,3.870000243E-1,3.894000292E0,9.175050735E0,9.974696150E0
2.339978618E0,3.490500152E-1,3.894000292E0,9.214050293E0,1.000918563E1
2.341941723E0,3.870000243E-1,3.856050253E0,9.252000809E0,1.003087292E1
2.343904975E0,3.870000243E-1,3.856050253E0,9.214050293E0,9.995879920E0
2.345868183E0,3.870000243E-1,3.931950092E0,9.252000809E0,1.006029421E1
2.347831373E0,3.870000243E-1,3.856050253E0,9.214050293E0,9.995879920E0
2.349794569E0,3.490500152E-1,3.856050253E0,9.136950493E0,9.923448180E0
2.351757795E0,3.490500152E-1,3.894000292E0,9.136950493E0,9.938256311E0
2.353721019E0,3.870000243E-1,3.894000292E0,9.214050293E0,1.001058091E1
2.355684431E0,3.490500152E-1,3.856050253E0,9.175050735E0,9.958539826E0
2.357647788E0,3.870000243E-1,3.894000292E0,9.214050293E0,1.001058091E1
2.359611044E0,3.870000243E-1,3.894000292E0,9.214050293E0,1.001058091E1
2.361574329E0,3.870000243E-1,3.856050253E0,9.252000809E0,1.003087292E1
2.363537481E0,3.870000243E-1,3.856050253E0,9.214050293E0,9.995879920E0
2.365500689E0,3.490500152E-1,3.817050219E0,9.214050293E0,9.979500543E0
2.367463968E0,3.109500110E-1,3.856050253E0,9.214050293E0,9.993224518E0
2.369427226E0,3.109500110E-1,3.894000292E0,9.252000809E0,1.004288042E1
2.371390587E0,3.870000243E-1,3.817050219E0,9.214050293E0,9.980899969E0
2.373353918E0,3.109500110E-1,3.856050253E0,9.289950371E0,1.006324954E1
2.375317173E0,3.490500152E-1,3.856050253E0,9.214050293E0,9.994482591E0
2.377280454E0,3.490500152E-1,3.894000292E0,9.252000809E0,1.004413227E1
2.379243631E0,3.109500110E-1,3.894000292E0,9.252000809E0,1.004288042E1
2.381206838E0,3.109500110E-1,3.856050253E0,9.175050735E0,9.957277211E0
2.383170117E0,3.490500152E-1,3.856050253E0,9.252000809E0,1.002948047E1
2.385133375E0,3.490500152E-1,3.856050253E0,9.214050293E0,9.994482591E0
2.387096815E0,3.490500152E-1,3.856050253E0,9.214050293E0,9.994482591E0
2.389060178E0,3.490500152E-1,3.817050219E0,9.214050293E0,9.979500543E0
2.391023207E0,3.870000243E-1,3.817050219E0,9.214050293E0,9.980899969E0
2.392986334E0,3.870000243E-1,3.856050253E0,9.214050293E0,9.995879920E0
2.394949581E0,3.109500110E-1,3.894000292E0,9.136950493E0,9.936991119E0
2.396912793E0,3.109500110E-1,3.856050253E0,9.175050735E0,9.957277211E0
2.398876197E0,3.870000243E-1,3.817050219E0,9.214050293E0,9.980899969E0
2.400839520E0,3.870000243E-1,3.894000292E0,9.175050735E0,9.974696150E0
2.402802600E0,3.490500152E-1,3.817050219E0,9.214050293E0,9.979500543E0
2.404765752E0,4.260000288E-1,3.817050219E0,9.175050735E0,9.946502119E0
2.406728771E0,3.870000243E-1,3.856050253E0,9.214050293E0,9.995879920E0
2.408691829E0,3.870000243E-1,3.778950214E0,9.175050735E0,9.930346909E0
2.410655110E0,3.870000243E-1,3.856050253E0,9.136950493E0,9.924855509E0
2.412618342E0,3.490500152E-1,3.894000292E0,9.175050735E0,9.973295854E0
2.414581708E0,3.870000243E-1,3.856050253E0,9.175050735E0,9.959942197E0
2.416545034E0,3.870000243E-1,3.817050219E0,9.175050735E0,9.944908114E0
2.418508609E0,4.260000288E-1,3.817050219E0,9.136950493E0,9.911367852E0
2.420472111E0,3.870000243E-1,3.817050219E0,9.136950493E0,9.909768196E0
2.422435689E0,3.870000243E-1,3.856050253E0,9.136950493E0,9.924855509E0
2.424399221E0,3.490500152E-1,3.856050253E0,9.098999977E0,9.888516575E0
2.426362626E0,3.870000243E-1,3.856050253E0,9.060000420E0,9.854060086E0
2.428326069E0,3.870000243E-1,3.856050253E0,9.060000420E0,9.854060086E0
2.430289399E0,3.870000243E-1,3.894000292E0,9.098999977E0,9.904787119E0
2.432252762E0,4.260000288E-1,3.856050253E0,9.060000420E0,9.855668784E0
2.434216006E0,3.870000243E-1,3.856050253E0,9.136950493E0,9.924855509E0
2.436179291E0,3.870000243E-1,3.856050253E0,9.175050735E0,9.959942197E0
2.438142646E0,3.109500110E-1,3.856050253E0,9.098999977E0,9.887245018E0
2.440105981E0,3.490500152E-1,3.856050253E0,9.136950493E0,9.923448180E0
2.442068880E0,3.870000243E-1,3.817050219E0,9.098999977E0,9.874788199E0
2.444031906E0,3.490500152E-1,3.856050253E0,9.098999977E0,9.888516575E0
2.445995301E0,3.870000243E-1,3.856050253E0,9.136950493E0,9.924855509E0
2.447958592E0,3.870000243E-1,3.894000292E0,9.136950493E0,9.939661544E0
2.449921678E0,3.870000243E-1,3.894000292E0,9.098999977E0,9.904787119E0
2.451884824E0,4.260000288E-1,3.894000292E0,9.136950493E0,9.941256390E0
2.453848204E0,4.260000288E-1,3.894000292E0,9.136950493E0,9.941256390E0
2.455811515E0,4.260000288E-1,3.894000292E0,9.214050293E0,1.001216446E1
2.457774940E0,3.870000243E-1,3.894000292E0,9.214050293E0,1.001058091E1
2.459738312E0,4.260000288E-1,3.894000292E0,9.175050735E0,9.976285396E0
2.461701385E0,3.870000243E-1,3.894000292E0,9.175050735E0,9.974696150E0
2.463664545E0,3.109500110E-1,3.856050253E0,9.175050735E0,9.957277211E0
2.465627967E0,3.870000243E-1,3.894000292E0,9.175050735E0,9.974696150E0
2.467591312E0,3.870000243E-1,3.894000292E0,9.214050293E0,1.001058091E1
2.469554717E0,3.109500110E-1,3.894000292E0,9.214050293E0,1.000792941E1
2.471518095E0,3.870000243E-1,3.931950092E0,9.214050293E0,1.002540390E1
2.473481257E0,3.870000243E-1,3.894000292E0,9.175050735E0,9.974696150E0
2.475444482E0,3.109500110E-1,3.894000292E0,9.175050735E0,9.972035107E0
2.477407579E0,3.870000243E-1,3.856050253E0,9.252000809E0,1.003087292E1
2.479370713E0,3.870000243E-1,3.894000292E0,9.214050293E0,1.001058091E1
2.481333941E0,3.490500152E-1,3.856050253E0,9.252000809E0,1.002948047E1
2.483297154E0,3.109500110E-1,3.894000292E0,9.214050293E0,1.000792941E1
2.485260344E0,3.490500152E-1,3.856050253E0,9.214050293E0,9.994482591E0
2.487223541E0,3.490500152E-1,3.856050253E0,9.214050293E0,9.994482591E0
2.489186642E0,3.870000243E-1,3.931950092E0,9.252000809E0,1.006029421E1
2.491149772E0,3.870000243E-1,3.894000292E0,9.214050293E0,1.001058091E1
2.493112659E0,3.490500152E-1,3.894000292E0,9.214050293E0,1.000918563E1
2.495075618E0,3.490500152E-1,3.894000292E0,9.289950371E0,1.007909977E1
2.497038669E0,3.490500152E-1,3.856050253E0,9.252000809E0,1.002948047E1
2.499001693E0,3.109500110E-1,3.894000292E0,9.252000809E0,1.004288042E1
2.500964779E0,2.719500065E-1,3.894000292E0,9.289950371E0,1.007672432E1
2.502927847E0,3.490500152E-1,3.856050253E0,9.252000809E0,1.002948047E1
2.504890905E0,3.490500152E-1,3.931950092E0,9.252000809E0,1.005890583E1
2.506853980E0,3.490500152E-1,3.931950092E0,9.252000809E0,1.005890583E1
2.508816743E0,3.109500110E-1,3.894000292E0,9.289950371E0,1.007785226E1
2.510779598E0,3.490500152E-1,3.856050253E0,9.252000809E0,1.002948047E1
2.512742532E0,3.870000243E-1,3.856050253E0,9.252000809E0,1.003087292E1
2.514705442E0,3.490500152E-1,3.817050219E0,9.289950371E0,1.004962120E1
2.516668489E0,3.490500152E-1,3.894000292E0,9.289950371E0,1.007909977E1
2.518631505E0,3.870000243E-1,3.856050253E0,9.252000809E0,1.003087292E1
2.520594278E0,3.870000243E-1,3.894000292E0,9.252000809E0,1.004552270E1
2.522557122E0,3.870000243E-1,3.856050253E0,9.252000809E0,1.003087292E1
2.524520013E0,3.870000243E-1,3.894000292E0,9.175050735E0,9.974696150E0
2.526482890E0,3.870000243E-1,3.856050253E0,9.252000809E0,1.003087292E1
2.528445647E0,4.260000288E-1,3.817050219E0,9.214050293E0,9.982488227E0
2.530408435E0,4.260000288E-1,3.856050253E0,9.136950493E0,9.926452734E0
2.532371201E0,3.870000243E-1,3.856050253E0,9.214050293E0,9.995879920E0
2.534333974E0,3.870000243E-1,3.856050253E0,9.214050293E0,9.995879920E0
2.536297101E0,4.260000288E-1,3.894000292E0,9.136950493E0,9.941256390E0
2.538260125E0,4.260000288E-1,3.856050253E0,9.136950493E0,9.926452734E0
2.540222863E0,3.870000243E-1,3.817050219E0,9.136950493E0,9.909768196E0
2.542185709E0,3.870000243E-1,3.856050253E0,9.136950493E0,9.924855509E0
2.544148779E0,4.260000288E-1,3.856050253E0,9.098999977E0,9.891531740E0
2.546111784E0,4.260000288E-1,3.856050253E0,9.175050735E0,9.961533796E0
2.548074559E0,3.870000243E-1,3.856050253E0,9.098999977E0,9.889928875E0
2.550037401E0,3.870000243E-1,3.894000292E0,9.136950493E0,9.939661544E0
2.551999993E0,4.260000288E-1,3.817050219E0,9.136950493E0,9.911367852E0
2.553962647E0,4.260000288E-1,3.856050253E0,9.136950493E0,9.926452734E0
2.555925390E0,3.490500152E-1,3.856050253E0,9.098999977E0,9.888516575E0
2.557888106E0,3.870000243E-1,3.894000292E0,9.175050735E0,9.974696150E0
2.559850930E0,3.870000243E-1,3.856050253E0,9.098999977E0,9.889928875E0
2.561813722E0,3.870000243E-1,3.856050253E0,9.136950493E0,9.924855509E0
2.563776672E0,4.260000288E-1,3.856050253E0,9.136950493E0,9.926452734E0
2.565739572E0,4.260000288E-1,3.856050253E0,9.175050735E0,9.961533796E0
2.567702320E0,3.490500152E-1,3.894000292E0,9.136950493E0,9.938256311E0
2.569665112E0,3.870000243E-1,3.856050253E0,9.060000420E0,9.854060086E0
2.571628057E0,3.870000243E-1,3.931950092E0,9.175050735E0,9.989572391E0
2.573590957E0,3.490500152E-1,3.894000292E0,9.136950493E0,9.938256311E0
2.575554000E0,3.870000243E-1,3.856050253E0,9.175050735E0,9.959942197E0
2.577517015E0,3.870000243E-1,3.894000292E0,9.136950493E0,9.939661544E0
2.579479743E0,3.109500110E-1,3.856050253E0,9.098999977E0,9.887245018E0
2.581442555E0,3.870000243E-1,3.856050253E0,9.098999977E0,9.889928875E0
2.583405317E0,3.490500152E-1,3.894000292E0,9.214050293E0,1.000918563E1
2.585368093E0,3.490500152E-1,3.894000292E0,9.136950493E0,9.938256311E0
2.587331051E0,3.490500152E-1,3.894000292E0,9.098999977E0,9.903376938E0
2.589293948E0,3.870000243E-1,3.856050253E0,9.136950493E0,9.924855509E0
2.591256561E0,3.490500152E-1,3.856050253E0,9.136950493E0,9.923448180E0
2.593219257E0,4.260000288E-1,3.894000292E0,9.175050735E0,9.976285396E0
2.595182218E0,4.260000288E-1,3.931950092E0,9.136950493E0,9.956182595E0
2.597145102E0,4.260000288E-1,3.856050253E0,9.175050735E0,9.961533796E0
2.599108012E0,4.260000288E-1,3.894000292E0,9.136950493E0,9.941256390E0
2.601070928E0,3.870000243E-1,3.894000292E0,9.098999977E0,9.904787119E0
2.603033852E0,3.870000243E-1,3.894000292E0,9.136950493E0,9.939661544E0
2.604996774E0,3.870000243E-1,3.894000292E0,9.060000420E0,9.868972332E0
2.606959833E0,3.870000243E-1,3.894000292E0,9.136950493E0,9.939661544E0
2.608922851E0,3.870000243E-1,3.856050253E0,9.214050293E0,9.995879920E0
2.610886118E0,4.260000288E-1,3.894000292E0,9.175050735E0,9.976285396E0
2.612849312E0,4.260000288E-1,3.931950092E0,9.136950493E0,9.956182595E0
2.614812370E0,3.870000243E-1,3.894000292E0,9.136950493E0,9.939661544E0
2.616775468E0,3.870000243E-1,3.817050219E0,9.136950493E0,9.909768196E0
2.618738361E0,3.870000243E-1,3.894000292E0,9.098999977E0,9.904787119E0
2.620701314E0,3.490500152E-1,3.856050253E0,9.175050735E0,9.958539826E0
2.622664296E0,3.490500152E-1,3.894000292E0,9.175050735E0,9.973295854E0
2.624627255E0,3.870000243E-1,3.894000292E0,9.136950493E0,9.939661544E0
2.626590488E0,3.870000243E-1,3.856050253E0,9.175050735E0,9.959942197E0
2.628553640E0,4.260000288E-1,3.894000292E0,9.175050735E0,9.976285396E0
2.630516885E0,3.490500152E-1,3.856050253E0,9.214050293E0,9.994482591E0
2.632480102E0,3.490500152E-1,3.856050253E0,9.175050735E0,9.958539826E0
2.634443159E0,3.490500152E-1,3.856050253E0,9.214050293E0,9.994482591E0
2.636406261E0,3.870000243E-1,3.856050253E0,9.136950493E0,9.924855509E0
2.638369154E0,3.490500152E-1,3.856050253E0,9.214050293E0,9.994482591E0
2.640332108E0,3.490500152E-1,3.856050253E0,9.214050293E0,9.994482591E0
2.642295385E0,3.870000243E-1,3.894000292E0,9.175050735E0,9.974696150E0
2.644258567E0,3.870000243E-1,3.856050253E0,9.136950493E0,9.924855509E0
2.646221792E0,3.870000243E-1,3.856050253E0,9.214050293E0,9.995879920E0
2.648185015E0,3.870000243E-1,3.856050253E0,9.252000809E0,1.003087292E1
2.650147933E0,3.490500152E-1,3.817050219E0,9.214050293E0,9.979500543E0
2.652110940E0,4.260000288E-1,3.817050219E0,9.175050735E0,9.946502119E0
2.654073983E0,3.490500152E-1,3.817050219E0,9.252000809E0,1.001455078E1
2.656037015E0,3.870000243E-1,3.817050219E0,9.252000809E0,1.001594531E1
2.658000081E0,4.260000288E-1,3.856050253E0,9.289950371E0,1.006746132E1
2.659963150E0,4.260000288E-1,3.817050219E0,9.252000809E0,1.001752801E1
2.661926453E0,3.870000243E-1,3.817050219E0,9.252000809E0,1.001594531E1
2.663889688E0,3.490500152E-1,3.856050253E0,9.214050293E0,9.994482591E0
2.665852919E0,3.870000243E-1,3.817050219E0,9.214050293E0,9.980899969E0
2.667816152E0,3.870000243E-1,3.817050219E0,9.214050293E0,9.980899969E0
2.669779161E0,4.260000288E-1,3.817050219E0,9.214050293E0,9.982488227E0
2.671742233E0,4.260000288E-1,3.817050219E0,9.252000809E0,1.001752801E1
2.673704815E0,3.870000243E-1,3.856050253E0,9.252000809E0,1.003087292E1
2.675667540E0,3.870000243E-1,3.817050219E0,9.252000809E0,1.001594531E1
2.677630857E0,4.260000288E-1,3.856050253E0,9.289950371E0,1.006746132E1
2.679594000E0,3.870000243E-1,3.894000292E0,9.252000809E0,1.004552270E1
2.681557058E0,3.870000243E-1,3.856050253E0,9.214050293E0,9.995879920E0
2.683520147E0,4.260000288E-1,3.856050253E0,9.252000809E0,1.003245327E1
2.685483177E0,3.490500152E-1,3.856050253E0,9.214050293E0,9.994482591E0
2.687446224E0,3.870000243E-1,3.894000292E0,9.214050293E0,1.001058091E1
2.689409304E0,3.490500152E-1,3.817050219E0,9.175050735E0,9.943503622E0
2.691372375E0,3.870000243E-1,3.856050253E0,9.175050735E0,9.959942197E0
2.693335512E0,3.870000243E-1,3.856050253E0,9.175050735E0,9.959942197E0
2.695298620E0,3.870000243E-1,3.856050253E0,9.175050735E0,9.959942197E0
2.697261467E0,3.870000243E-1,3.894000292E0,9.175050735E0,9.974696150E0
2.699224391E0,3.490500152E-1,3.856050253E0,9.214050293E0,9.994482591E0
2.701187493E0,3.870000243E-1,3.894000292E0,9.098999977E0,9.904787119E0
2.703150543E0,3.870000243E-1,3.856050253E0,9.136950493E0,9.924855509E0
2.705113490E0,3.490500152E-1,3.894000292E0,9.136950493E0,9.938256311E0
2.707076468E0,3.870000243E-1,3.894000292E0,9.175050735E0,9.974696150E0
2.709039382E0,4.260000288E-1,3.817050219E0,9.136950493E0,9.911367852E0
2.711002315E0,4.639500082E-1,3.856050253E0,9.175050735E0,9.963228852E0
2.712965370E0,4.260000288E-1,3.856050253E0,9.175050735E0,9.961533796E0
2.714928389E0,4.639500082E-1,3.894000292E0,9.098999977E0,9.908092070E0
2.716891506E0,4.639500082E-1,3.856050253E0,9.136950493E0,9.928153780E0
2.718854605E0,4.639500082E-1,3.817050219E0,9.136950493E0,9.913071486E0
2.720817859E0,4.639500082E-1,3.856050253E0,9.214050293E0,9.999154762E0
2.722781067E0,4.639500082E-1,3.817050219E0,9.252000809E0,1.001921359E1
2.724743897E0,3.870000243E-1,3.817050219E0,9.252000809E0,1.001594531E1
2.726706838E0,4.260000288E-1,3.817050219E0,9.214050293E0,9.982488227E0
2.728670350E0,4.260000288E-1,3.817050219E0,9.214050293E0,9.982488227E0
2.730633657E0,3.870000243E-1,3.856050253E0,9.214050293E0,9.995879920E0
2.732596696E0,4.260000288E-1,3.856050253E0,9.289950371E0,1.006746132E1
2.734559813E0,3.870000243E-1,3.856050253E0,9.252000809E0,1.003087292E1
2.736522928E0,3.870000243E-1,3.817050219E0,9.252000809E0,1.001594531E1
2.738486044E0,3.109500110E-1,3.894000292E0,9.252000809E0,1.004288042E1
2.740449595E0,3.109500110E-1,3.856050253E0,9.328050613E0,1.009843264E1
2.742413028E0,3.490500152E-1,3.894000292E0,9.289950371E0,1.007909977E1
2.744376270E0,2.719500065E-1,3.894000292E0,9.252000809E0,1.004174856E1
2.746339568E0,3.109500110E-1,3.894000292E0,9.252000809E0,1.004288042E1
2.748302967E0,2.719500065E-1,3.894000292E0,9.289950371E0,1.007672432E1
2.750266336E0,3.109500110E-1,3.931950092E0,9.252000809E0,1.005765581E1
2.752229369E0,3.109500110E-1,3.931950092E0,9.252000809E0,1.005765581E1
2.754192497E0,3.109500110E-1,3.894000292E0,9.252000809E0,1.004288042E1
2.756155744E0,3.109500110E-1,3.894000292E0,9.252000809E0,1.004288042E1
2.758118956E0,3.109500110E-1,3.856050253E0,9.214050293E0,9.993224518E0
2.760082190E0,2.719500065E-1,3.894000292E0,9.214050293E0,1.000679359E1
2.762045418E0,3.109500110E-1,3.894000292E0,9.252000809E0,1.004288042E1
2.764008970E0,3.109500110E-1,3.894000292E0,9.252000809E0,1.004288042E1
2.765972423E0,3.490500152E-1,3.894000292E0,9.289950371E0,1.007909977E1
2.767935301E0,3.490500152E-1,3.817050219E0,9.214050293E0,9.979500543E0
2.769898348E0,3.490500152E-1,3.856050253E0,9.214050293E0,9.994482591E0
2.771861744E0,3.870000243E-1,3.894000292E0,9.214050293E0,1.001058091E1
2.773825038E0,3.490500152E-1,3.856050253E0,9.136950493E0,9.923448180E0
2.775788100E0,3.490500152E-1,3.856050253E0,9.136950493E0,9.923448180E0
2.777751247E0,3.490500152E-1,3.817050219E0,9.175050735E0,9.943503622E0
2.779714491E0,3.490500152E-1,3.856050253E0,9.136950493E0,9.923448180E0
2.781677706E0,3.490500152E-1,3.817050219E0,9.136950493E0,9.908358723E0
2.783640760E0,3.870000243E-1,3.817050219E0,9.175050735E0,9.944908114E0
2.785603862E0,3.109500110E-1,3.856050253E0,9.060000420E0,9.851366457E0
2.787567277E0,3.870000243E-1,3.856050253E0,9.098999977E0,9.889928875E0
2.789530581E0,3.490500152E-1,3.817050219E0,9.098999977E0,9.873373733E0
2.791493800E0,3.490500152E-1,3.817050219E0,9.060000420E0,9.837444581E0
2.793457044E0,3.870000243E-1,3.856050253E0,9.136950493E0,9.924855509E0
2.795420092E0,3.490500152E-1,3.817050219E0,9.136950493E0,9.908358723E0
2.797383198E0,3.490500152E-1,3.856050253E0,9.098999977E0,9.888516575E0
2.799346135E0,3.490500152E-1,3.856050253E0,9.098999977E0,9.888516575E0
2.801309121E0,3.870000243E-1,3.856050253E0,9.098999977E0,9.889928875E0
2.803272213E0,3.870000243E-1,3.856050253E0,9.098999977E0,9.889928875E0
2.805235273E0,3.870000243E-1,3.856050253E0,9.098999977E0,9.889928875E0
2.807198128E0,4.260000288E-1,3.894000292E0,9.136950493E0,9.941256390E0
2.809161044E0,3.490500152E-1,3.894000292E0,9.098999977E0,9.903376938E0
2.811123833E0,3.870000243E-1,3.894000292E0,9.214050293E0,1.001058091E1
2.813086659E0,3.870000243E-1,3.894000292E0,9.098999977E0,9.904787119E0
2.815049733E0,3.870000243E-1,3.931950092E0,9.136950493E0,9.954590140E0
2.817012734E0,4.260000288E-1,3.894000292E0,9.136950493E0,9.941256390E0
2.818975690E0,4.260000288E-1,3.856050253E0,9.060000420E0,9.855668784E0
2.820938660E0,3.109500110E-1,3.894000292E0,9.060000420E0,9.866282774E0
2.822902064E0,3.870000243E-1,3.894000292E0,9.136950493E0,9.939661544E0
2.824865345E0,3.870000243E-1,3.894000292E0,9.136950493E0,9.939661544E0
2.826828253E0,3.490500152E-1,3.931950092E0,9.175050735E0,9.988174180E0
2.828791270E0,3.490500152E-1,3.931950092E0,9.098999977E0,9.918360148E0
2.830754536E0,3.870000243E-1,3.894000292E0,9.098999977E0,9.904787119E0
2.832717729E0,3.490500152E-1,3.931950092E0,9.098999977E0,9.918360148E0
2.834680747E0,3.870000243E-1,3.894000292E0,9.175050735E0,9.974696150E0
2.836643813E0,3.490500152E-1,3.894000292E0,9.136950493E0,9.938256311E0
2.838607071E0,3.870000243E-1,3.931950092E0,9.136950493E0,9.954590140E0
2.840570273E0,3.870000243E-1,3.894000292E0,9.214050293E0,1.001058091E1
2.842533508E0,3.870000243E-1,3.894000292E0,9.136950493E0,9.939661544E0
2.844496734E0,3.490500152E-1,3.894000292E0,9.175050735E0,9.973295854E0
2.846459806E0,3.870000243E-1,3.894000292E0,9.175050735E0,9.974696150E0
2.848422909E0,3.870000243E-1,3.931950092E0,9.175050735E0,9.989572391E0
2.850385802E0,3.870000243E-1,3.894000292E0,9.175050735E0,9.974696150E0
2.852348756E0,3.870000243E-1,3.894000292E0,9.175050735E0,9.974696150E0
2.854311718E0,3.870000243E-1,3.856050253E0,9.175050735E0,9.959942197E0
2.856274677E0,3.490500152E-1,3.856050253E0,9.214050293E0,9.994482591E0
2.858237895E0,3.490500152E-1,3.894000292E0,9.214050293E0,1.000918563E1
2.860201047E0,3.490500152E-1,3.856050253E0,9.252000809E0,1.002948047E1
2.862164471E0,3.870000243E-1,3.817050219E0,9.214050293E0,9.980899969E0
2.864127816E0,3.109500110E-1,3.856050253E0,9.252000809E0,1.002822678E1
2.866091433E0,3.870000243E-1,3.856050253E0,9.214050293E0,9.995879920E0
2.868054970E0,3.870000243E-1,3.817050219E0,9.214050293E0,9.980899969E0
2.870018344E0,3.870000243E-1,3.856050253E0,9.214050293E0,9.995879920E0
2.871981756E0,3.870000243E-1,3.856050253E0,9.214050293E0,9.995879920E0
2.873945270E0,3.490500152E-1,3.817050219E0,9.252000809E0,1.001455078E1
2.875908754E0,3.490500152E-1,3.817050219E0,9.252000809E0,1.001455078E1
2.877872302E0,3.490500152E-1,3.817050219E0,9.214050293E0,9.979500543E0
2.879835831E0,3.870000243E-1,3.817050219E0,9.214050293E0,9.980899969E0
2.881799551E0,3.870000243E-1,3.856050253E0,9.214050293E0,9.995879920E0
2.883763215E0,3.870000243E-1,3.778950214E0,9.252000809E0,1.000148752E1
2.885726958E0,4.260000288E-1,3.778950214E0,9.289950371E0,1.003818303E1
2.887690677E0,3.870000243E-1,3.778950214E0,9.252000809E0,1.000148752E1
2.889654320E0,3.490500152E-1,3.778950214E0,9.252000809E0,1.000009098E1
2.891617986E0,3.870000243E-1,3.817050219E0,9.214050293E0,9.980899969E0
2.893581216E0,3.870000243E-1,3.778950214E0,9.289950371E0,1.003660359E1
2.895544554E0,3.870000243E-1,3.817050219E0,9.289950371E0,1.005101086E1
2.897507945E0,3.870000243E-1,3.817050219E0,9.252000809E0,1.001594531E1
2.899471321E0,3.870000243E-1,3.817050219E0,9.214050293E0,9.980899969E0
2.901434663E0,3.490500152E-1,3.741000175E0,9.175050735E0,9.914558700E0
2.903398015E0,3.870000243E-1,3.778950214E0,9.214050293E0,9.966391350E0
2.905361216E0,4.260000288E-1,3.817050219E0,9.214050293E0,9.982488227E0
2.907324468E0,3.870000243E-1,3.817050219E0,9.214050293E0,9.980899969E0
2.909287380E0,3.870000243E-1,3.778950214E0,9.136950493E0,9.895155282E0
2.911250391E0,3.490500152E-1,3.817050219E0,9.175050735E0,9.943503622E0
2.913213478E0,3.490500152E-1,3.856050253E0,9.136950493E0,9.923448180E0
2.915176543E0,4.260000288E-1,3.817050219E0,9.136950493E0,9.911367852E0
2.917139742E0,3.870000243E-1,3.817050219E0,9.175050735E0,9.944908114E0
2.919102913E0,3.490500152E-1,3.817050219E0,9.136950493E0,9.908358723E0
2.921065974E0,3.109500110E-1,3.856050253E0,9.175050735E0,9.957277211E0
2.923029068E0,3.870000243E-1,3.894000292E0,9.175050735E0,9.974696150E0
2.924992321E0,3.490500152E-1,3.817050219E0,9.060000420E0,9.837444581E0
2.926955528E0,3.490500152E-1,3.856050253E0,9.098999977E0,9.888516575E0
2.928919188E0,3.870000243E-1,3.894000292E0,9.136950493E0,9.939661544E0
2.930882701E0,3.870000243E-1,3.856050253E0,9.175050735E0,9.959942197E0
2.932846244E0,3.109500110E-1,3.817050219E0,9.175050735E0,9.942239098E0
2.934809778E0,3.490500152E-1,3.856050253E0,9.214050293E0,9.994482591E0
2.936772778E0,3.870000243E-1,3.931950092E0,9.175050735E0,9.989572391E0
2.938735934E0,3.490500152E-1,3.894000292E0,9.175050735E0,9.973295854E0
2.940698933E0,3.870000243E-1,3.894000292E0,9.136950493E0,9.939661544E0
2.942661991E0,3.109500110E-1,3.931950092E0,9.136950493E0,9.951923721E0
2.944625476E0,3.870000243E-1,3.894000292E0,9.136950493E0,9.939661544E0
2.946588836E0,4.260000288E-1,3.931950092E0,9.214050293E0,1.002698511E1
2.948552225E0,3.490500152E-1,3.894000292E0,9.136950493E0,9.938256311E0
2.950515605E0,3.109500110E-1,3.894000292E0,9.175050735E0,9.972035107E0
2.952478780E0,3.870000243E-1,3.894000292E0,9.175050735E0,9.974696150E0
2.954442006E0,3.490500152E-1,3.894000292E0,9.175050735E0,9.973295854E0
2.956405281E0,3.490500152E-1,3.894000292E0,9.175050735E0,9.973295854E0
2.958368542E0,3.870000243E-1,3.970950127E0,9.214050293E0,1.004076375E1
2.960331948E0,3.490500152E-1,3.931950092E0,9.214050293E0,1.002401069E1
2.962295311E0,3.870000243E-1,3.931950092E0,9.214050293E0,1.002540390E1
2.964258709E0,3.490500152E-1,3.931950092E0,9.214050293E0,1.002401069E1
2.966222090E0,3.109500110E-1,3.931950092E0,9.214050293E0,1.002275632E1
2.968185116E0,3.870000243E-1,3.931950092E0,9.252000809E0,1.006029421E1
2.970148246E0,3.870000243E-1,3.931950092E0,9.214050293E0,1.002540390E1
2.972111629E0,3.870000243E-1,3.894000292E0,9.214050293E0,1.001058091E1
2.974074937E0,3.490500152E-1,3.894000292E0,9.252000809E0,1.004413227E1
2.976038515E0,3.490500152E-1,3.894000292E0,9.214050293E0,1.000918563E1
2.978002014E0,3.870000243E-1,3.856050253E0,9.214050293E0,9.995879920E0
2.979965425E0,3.490500152E-1,3.931950092E0,9.214050293E0,1.002401069E1
2.981928862E0,3.870000243E-1,3.894000292E0,9.214050293E0,1.001058091E1
2.983892012E0,3.870000243E-1,3.856050253E0,9.175050735E0,9.959942197E0
2.985855246E0,3.870000243E-1,3.894000292E0,9.175050735E0,9.974696150E0
2.987818507E0,3.490500152E-1,3.856050253E0,9.175050735E0,9.958539826E0
2.989781769E0,3.490500152E-1,3.894000292E0,9.175050735E0,9.973295854E0
2.991744995E0,4.260000288E-1,3.894000292E0,9.214050293E0,1.001216446E1
2.993708232E0,3.870000243E-1,3.856050253E0,9.175050735E0,9.959942197E0
2.995671596E0,3.490500152E-1,3.856050253E0,9.098999977E0,9.888516575E0
2.997634923E0,3.870000243E-1,3.894000292E0,9.175050735E0,9.974696150E0
2.999598727E0,3.870000243E-1,3.856050253E0,9.136950493E0,9.924855509E0
3.001562388E0,3.109500110E-1,3.894000292E0,9.175050735E0,9.972035107E0
3.003525861E0,3.870000243E-1,3.894000292E0,9.175050735E0,9.974696150E0
3.005489390E0,3.490500152E-1,3.856050253E0,9.136950493E0,9.923448180E0
3.007452615E0,3.490500152E-1,3.856050253E0,9.136950493E0,9.923448180E0
3.009415929E0,3.870000243E-1,3.856050253E0,9.175050735E0,9.959942197E0
3.011379072E0,3.870000243E-1,3.894000292E0,9.136950493E0,9.939661544E0
3.013342285E0,3.870000243E-1,3.856050253E0,9.136950493E0,9.924855509E0
3.015305878E0,3.870000243E-1,3.856050253E0,9.175050735E0,9.959942197E0
3.017269360E0,3.870000243E-1,3.856050253E0,9.136950493E0,9.924855509E0
3.019232594E0,3.870000243E-1,3.894000292E0,9.098999977E0,9.904787119E0
3.021195901E0,3.870000243E-1,3.894000292E0,9.175050735E0,9.974696150E0
3.023159113E0,3.490500152E-1,3.894000292E0,9.136950493E0,9.938256311E0
3.025122357E0,3.870000243E-1,3.856050253E0,9.175050735E0,9.959942197E0
3.027085405E0,4.260000288E-1,3.856050253E0,9.136950493E0,9.926452734E0
3.029048511E0,3.870000243E-1,3.894000292E0,9.175050735E0,9.974696150E0
3.031011583E0,4.260000288E-1,3.894000292E0,9.136950493E0,9.941256390E0
3.032974665E0,4.260000288E-1,3.856050253E0,9.136950493E0,9.926452734E0
3.034938040E0,4.260000288E-1,3.817050219E0,9.136950493E0,9.911367852E0
3.036901340E0,4.260000288E-1,3.817050219E0,9.175050735E0,9.946502119E0
3.038864784E0,4.639500082E-1,3.856050253E0,9.175050735E0,9.963228852E0
3.040828186E0,3.870000243E-1,3.856050253E0,9.136950493E0,9.924855509E0
3.042791569E0,3.490500152E-1,3.856050253E0,9.175050735E0,9.958539826E0
3.044754958E0,4.260000288E-1,3.856050253E0,9.175050735E0,9.961533796E0
3.046717991E0,3.870000243E-1,3.856050253E0,9.136950493E0,9.924855509E0
3.048681122E0,3.870000243E-1,3.856050253E0,9.175050735E0,9.959942197E0
3.050644145E0,4.260000288E-1,3.856050253E0,9.175050735E0,9.961533796E0
3.052607199E0,4.260000288E-1,3.894000292E0,9.214050293E0,1.001216446E1
3.054570323E0,3.870000243E-1,3.856050253E0,9.214050293E0,9.995879920E0
3.056533427E0,4.260000288E-1,3.856050253E0,9.175050735E0,9.961533796E0
3.058496675E0,4.260000288E-1,3.817050219E0,9.175050735E0,9.946502119E0
3.060459884E0,4.260000288E-1,3.856050253E0,9.175050735E0,9.961533796E0
3.062423299E0,4.639500082E-1,3.856050253E0,9.175050735E0,9.963228852E0
3.064386653E0,3.870000243E-1,3.856050253E0,9.136950493E0,9.924855509E0
3.066349819E0,4.260000288E-1,3.817050219E0,9.136950493E0,9.911367852E0
3.068313040E0,4.260000288E-1,3.817050219E0,9.175050735E0,9.946502119E0
3.070276321E0,3.870000243E-1,3.856050253E0,9.175050735E0,9.959942197E0
3.072239581E0,4.260000288E-1,3.856050253E0,9.136950493E0,9.926452734E0
3.074202583E0,4.260000288E-1,3.856050253E0,9.214050293E0,9.997465798E0
3.076165660E0,4.260000288E-1,3.817050219E0,9.175050735E0,9.946502119E0
3.078128781E0,4.260000288E-1,3.894000292E0,9.175050735E0,9.976285396E0
3.080091889E0,4.260000288E-1,3.856050253E0,9.252000809E0,1.003245327E1
3.082055122E0,4.260000288E-1,3.817050219E0,9.175050735E0,9.946502119E0
3.084018331E0,4.639500082E-1,3.856050253E0,9.136950493E0,9.928153780E0
3.085981746E0,3.870000243E-1,3.856050253E0,9.175050735E0,9.959942197E0
3.087945101E0,3.870000243E-1,3.856050253E0,9.175050735E0,9.959942197E0
3.089908266E0,3.870000243E-1,3.856050253E0,9.214050293E0,9.995879920E0
3.091871487E0,4.260000288E-1,3.856050253E0,9.175050735E0,9.961533796E0
3.093834548E0,4.260000288E-1,3.856050253E0,9.214050293E0,9.997465798E0
3.095797650E0,3.870000243E-1,3.894000292E0,9.175050735E0,9.974696150E0
3.097760767E0,3.870000243E-1,3.856050253E0,9.175050735E0,9.959942197E0
3.099723879E0,3.870000243E-1,3.894000292E0,9.136950493E0,9.939661544E0
3.101686951E0,3.870000243E-1,3.894000292E0,9.175050735E0,9.974696150E0
3.103650035E0,3.870000243E-1,3.894000292E0,9.214050293E0,1.001058091E1
3.105613230E0,3.870000243E-1,3.931950092E0,9.175050735E0,9.989572391E0
3.107576403E0,3.490500152E-1,3.894000292E0,9.214050293E0,1.000918563E1
3.109539644E0,3.870000243E-1,3.894000292E0,9.136950493E0,9.939661544E0
3.111502865E0,3.490500152E-1,3.856050253E0,9.136950493E0,9.923448180E0
3.113466142E0,3.870000243E-1,3.931950092E0,9.175050735E0,9.989572391E0
3.115429403E0,3.490500152E-1,3.894000292E0,9.214050293E0,1.000918563E1
3.117392445E0,3.870000243E-1,3.894000292E0,9.214050293E0,1.001058091E1
3.119355554E0,3.490500152E-1,3.931950092E0,9.214050293E0,1.002401069E1
3.121318985E0,3.490500152E-1,3.931950092E0,9.175050735E0,9.988174180E0
3.123282322E0,3.490500152E-1,3.856050253E0,9.136950493E0,9.923448180E0
3.125245715E0,3.109500110E-1,3.894000292E0,9.252000809E0,1.004288042E1
3.127209091E0,3.870000243E-1,3.894000292E0,9.214050293E0,1.001058091E1
3.129172462E0,3.490500152E-1,3.931950092E0,9.175050735E0,9.988174180E0
3.131135845E0,3.490500152E-1,3.931950092E0,9.252000809E0,1.005890583E1
3.133099365E0,3.490500152E-1,3.931950092E0,9.175050735E0,9.988174180E0
3.135062845E0,3.490500152E-1,3.931950092E0,9.214050293E0,1.002401069E1
3.137025854E0,3.870000243E-1,3.894000292E0,9.252000809E0,1.004552270E1
3.138989001E0,3.490500152E-1,3.931950092E0,9.214050293E0,1.002401069E1
3.140952470E0,3.109500110E-1,3.894000292E0,9.214050293E0,1.000792941E1
3.142915845E0,3.490500152E-1,3.931950092E0,9.214050293E0,1.002401069E1
3.144879412E0,3.109500110E-1,3.894000292E0,9.136950493E0,9.936991119E0
3.146842922E0,2.719500065E-1,3.931950092E0,9.175050735E0,9.985777102E0
3.148806286E0,3.109500110E-1,3.894000292E0,9.214050293E0,1.000792941E1
3.150769693E0,3.490500152E-1,3.894000292E0,9.214050293E0,1.000918563E1
3.152733079E0,2.719500065E-1,3.894000292E0,9.214050293E0,1.000679359E1
3.154696467E0,3.109500110E-1,3.894000292E0,9.214050293E0,1.000792941E1
3.156659985E0,3.109500110E-1,3.894000292E0,9.214050293E0,1.000792941E1
3.158623465E0,2.719500065E-1,3.894000292E0,9.214050293E0,1.000679359E1
3.160586519E0,2.719500065E-1,3.894000292E0,9.252000809E0,1.004174856E1
3.162549698E0,2.719500065E-1,3.856050253E0,9.252000809E0,1.002709326E1
3.164512747E0,3.109500110E-1,3.856050253E0,9.252000809E0,1.002822678E1
3.166475842E0,3.109500110E-1,3.856050253E0,9.252000809E0,1.002822678E1
3.168439410E0,2.719500065E-1,3.894000292E0,9.289950371E0,1.007672432E1
3.170402840E0,2.719500065E-1,3.894000292E0,9.289950371E0,1.007672432E1
3.172366218E0,2.719500065E-1,3.856050253E0,9.289950371E0,1.006211997E1
3.174329611E0,3.109500110E-1,3.856050253E0,9.252000809E0,1.002822678E1
3.176293054E0,3.109500110E-1,3.894000292E0,9.289950371E0,1.007785226E1
3.178256471E0,3.109500110E-1,3.856050253E0,9.252000809E0,1.002822678E1
3.180219985E0,3.109500110E-1,3.856050253E0,9.252000809E0,1.002822678E1
3.182183471E0,2.719500065E-1,3.856050253E0,9.289950371E0,1.006211997E1
3.184146659E0,3.109500110E-1,3.856050253E0,9.252000809E0,1.002822678E1
3.186109934E0,3.109500110E-1,3.817050219E0,9.214050293E0,9.978240580E0
3.188073326E0,3.109500110E-1,3.856050253E0,9.252000809E0,1.002822678E1
3.190036691E0,3.490500152E-1,3.817050219E0,9.252000809E0,1.001455078E1
3.192000124E0,3.109500110E-1,3.778950214E0,9.252000809E0,9.998833612E0
3.193963537E0,3.490500152E-1,3.817050219E0,9.214050293E0,9.979500543E0
3.195926693E0,3.490500152E-1,3.856050253E0,9.214050293E0,9.994482591E0
3.197889924E0,3.870000243E-1,3.817050219E0,9.252000809E0,1.001594531E1
3.199853353E0,3.490500152E-1,3.817050219E0,9.252000809E0,1.001455078E1
3.201816710E0,3.870000243E-1,3.817050219E0,9.214050293E0,9.980899969E0
3.203780325E0,3.870000243E-1,3.856050253E0,9.175050735E0,9.959942197E0
3.205743864E0,4.260000288E-1,3.856050253E0,9.214050293E0,9.997465798E0
3.207707223E0,3.870000243E-1,3.817050219E0,9.175050735E0,9.944908114E0
3.209670635E0,3.490500152E-1,3.817050219E0,9.136950493E0,9.908358723E0
3.211634010E0,4.260000288E-1,3.817050219E0,9.175050735E0,9.946502119E0
3.213597400E0,4.260000288E-1,3.856050253E0,9.175050735E0,9.961533796E0
3.215560918E0,4.639500082E-1,3.817050219E0,9.136950493E0,9.913071486E0
3.217524398E0,4.260000288E-1,3.817050219E0,9.098999977E0,9.876393521E0
3.219487812E0,4.260000288E-1,3.817050219E0,9.098999977E0,9.876393521E0
3.221451246E0,3.870000243E-1,3.856050253E0,9.098999977E0,9.889928875E0
3.223414811E0,3.870000243E-1,3.817050219E0,9.060000420E0,9.838864213E0
3.225378331E0,3.870000243E-1,3.894000292E0,9.098999977E0,9.904787119E0
3.227341648E0,4.260000288E-1,3.856050253E0,9.098999977E0,9.891531740E0
3.229305025E0,3.870000243E-1,3.856050253E0,9.098999977E0,9.889928875E0
3.231268231E0,4.260000288E-1,3.856050253E0,9.098999977E0,9.891531740E0
3.233231487E0,3.870000243E-1,3.856050253E0,9.060000420E0,9.854060086E0
3.235194713E0,4.639500082E-1,3.856050253E0,9.060000420E0,9.857382044E0
3.237157948E0,4.260000288E-1,3.894000292E0,9.060000420E0,9.870578600E0
3.239121537E0,3.870000243E-1,3.894000292E0,9.022050858E0,9.834145055E0
3.241085023E0,3.870000243E-1,3.856050253E0,9.060000420E0,9.854060086E0
3.243048256E0,3.490500152E-1,3.894000292E0,9.022050858E0,9.832724743E0
3.245011564E0,3.490500152E-1,3.894000292E0,8.983950615E0,9.797777444E0
3.246974901E0,4.260000288E-1,3.894000292E0,9.022050858E0,9.835757011E0
3.248938240E0,3.870000243E-1,3.856050253E0,9.022050858E0,9.819179917E0
3.250901498E0,3.490500152E-1,3.856050253E0,9.060000420E0,9.852642644E0
3.252864780E0,3.870000243E-1,3.856050253E0,9.022050858E0,9.819179917E0
3.254828182E0,3.870000243E-1,3.856050253E0,9.022050858E0,9.819179917E0
3.256791548E0,3.870000243E-1,3.894000292E0,9.022050858E0,9.834145055E0
3.258754756E0,3.490500152E-1,3.856050253E0,9.022050858E0,9.817757440E0
3.260718011E0,4.260000288E-1,3.894000292E0,9.022050858E0,9.835757011E0
3.262681417E0,3.490500152E-1,3.856050253E0,9.022050858E0,9.817757440E0
3.264644778E0,3.870000243E-1,3.856050253E0,9.060000420E0,9.854060086E0
3.266607988E0,3.870000243E-1,3.856050253E0,9.098999977E0,9.889928875E0
3.268571242E0,3.490500152E-1,3.931950092E0,9.060000420E0,9.882594550E0
3.270534648E0,3.490500152E-1,3.856050253E0,9.136950493E0,9.923448180E0
3.272498009E0,3.490500152E-1,3.894000292E0,9.175050735E0,9.973295854E0
3.274460813E0,3.870000243E-1,3.856050253E0,9.098999977E0,9.889928875E0
3.276423780E0,3.870000243E-1,3.856050253E0,9.098999977E0,9.889928875E0
3.278387100E0,3.870000243E-1,3.856050253E0,9.175050735E0,9.959942197E0
3.280350317E0,3.870000243E-1,3.856050253E0,9.175050735E0,9.959942197E0
3.282313685E0,4.260000288E-1,3.856050253E0,9.175050735E0,9.961533796E0
3.284277009E0,3.870000243E-1,3.894000292E0,9.175050735E0,9.974696150E0
3.286240270E0,4.260000288E-1,3.856050253E0,9.214050293E0,9.997465798E0
3.288203550E0,3.870000243E-1,3.856050253E0,9.214050293E0,9.995879920E0
3.290166727E0,4.639500082E-1,3.894000292E0,9.175050735E0,9.977977946E0
3.292129934E0,3.490500152E-1,3.894000292E0,9.175050735E0,9.973295854E0
3.294093029E0,3.490500152E-1,3.894000292E0,9.214050293E0,1.000918563E1
3.296056160E0,3.490500152E-1,3.856050253E0,9.175050735E0,9.958539826E0
3.298019407E0,3.490500152E-1,3.894000292E0,9.175050735E0,9.973295854E0
3.299982620E0,3.490500152E-1,3.894000292E0,9.175050735E0,9.973295854E0
3.301945809E0,3.490500152E-1,3.856050253E0,9.175050735E0,9.958539826E0
3.303909006E0,3.490500152E-1,3.894000292E0,9.214050293E0,1.000918563E1
3.305872287E0,3.490500152E-1,3.856050253E0,9.252000809E0,1.002948047E1
3.307835543E0,3.109500110E-1,3.856050253E0,9.252000809E0,1.002822678E1
3.309798410E0,3.490500152E-1,3.894000292E0,9.252000809E0,1.004413227E1
3.311761391E0,3.109500110E-1,3.931950092E0,9.252000809E0,1.005765581E1
3.313724799E0,3.490500152E-1,3.894000292E0,9.252000809E0,1.004413227E1
3.315688081E0,3.870000243E-1,3.894000292E0,9.252000809E0,1.004552270E1
3.317651164E0,3.109500110E-1,3.894000292E0,9.214050293E0,1.000792941E1
3.319614309E0,3.490500152E-1,3.894000292E0,9.214050293E0,1.000918563E1
3.321577554E0,3.490500152E-1,3.894000292E0,9.214050293E0,1.000918563E1
3.323540769E0,3.870000243E-1,3.894000292E0,9.175050735E0,9.974696150E0
3.325504002E0,3.490500152E-1,3.894000292E0,9.175050735E0,9.973295854E0
3.327467230E0,3.870000243E-1,3.856050253E0,9.214050293E0,9.995879920E0
3.329430607E0,3.109500110E-1,3.894000292E0,9.214050293E0,1.000792941E1
3.331393965E0,3.490500152E-1,3.856050253E0,9.214050293E0,9.994482591E0
