"Time (s)","Acceleration x (m/s^2)","Acceleration y (m/s^2)","Acceleration z (m/s^2)","Absolute acceleration (m/s^2)"
3.550022300E-2,2.719500065E-1,4.276950359E0,9.060000420E0,1.002246820E1
3.746241100E-2,3.109500110E-1,4.315950394E0,9.060000420E0,1.004030504E1
3.942707000E-2,3.490500152E-1,4.239000320E0,9.022050858E0,9.974385260E0
4.139037100E-2,3.490500152E-1,4.239000320E0,9.060000420E0,1.000872456E1
4.335407000E-2,3.870000243E-1,4.239000320E0,9.022050858E0,9.975785403E0
4.531756600E-2,3.490500152E-1,4.276950359E0,9.060000420E0,1.002485650E1
4.728113200E-2,3.870000243E-1,4.276950359E0,9.022050858E0,9.991970530E0
4.924417000E-2,3.490500152E-1,4.276950359E0,9.022050858E0,9.990572655E0
5.120736300E-2,3.870000243E-1,4.276950359E0,8.983950615E0,9.957582139E0
5.317059900E-2,3.109500110E-1,4.276950359E0,9.060000420E0,1.002360224E1
5.513382300E-2,3.870000243E-1,4.276950359E0,9.060000420E0,1.002624960E1
5.709687100E-2,3.870000243E-1,4.201050282E0,8.983950615E0,9.925218443E0
5.905997400E-2,3.490500152E-1,4.201050282E0,8.983950615E0,9.923811165E0
6.102336100E-2,3.870000243E-1,4.239000320E0,9.022050858E0,9.975785403E0
6.298666400E-2,3.870000243E-1,4.239000320E0,9.022050858E0,9.975785403E0
6.494988400E-2,4.260000288E-1,4.201050282E0,9.022050858E0,9.961310213E0
6.691312800E-2,3.490500152E-1,4.201050282E0,8.983950615E0,9.923811165E0
6.887633600E-2,3.870000243E-1,4.201050282E0,8.983950615E0,9.925218443E0
7.083956900E-2,3.870000243E-1,4.201050282E0,8.983950615E0,9.925218443E0
7.280284400E-2,4.260000288E-1,4.201050282E0,9.022050858E0,9.961310213E0
7.476610600E-2,3.490500152E-1,4.201050282E0,9.022050858E0,9.958316176E0
7.672933200E-2,3.870000243E-1,4.201050282E0,9.022050858E0,9.959718578E0
7.869256900E-2,3.870000243E-1,4.201050282E0,9.022050858E0,9.959718578E0
8.065576500E-2,3.870000243E-1,4.162050247E0,8.983950615E0,9.908773886E0
8.261899700E-2,3.490500152E-1,4.162050247E0,8.983950615E0,9.907364272E0
8.458236100E-2,3.870000243E-1,4.162050247E0,9.060000420E0,9.977777252E0
8.654568700E-2,3.870000243E-1,4.162050247E0,8.944950104E0,9.873427148E0
8.850930700E-2,3.870000243E-1,4.162050247E0,8.983950615E0,9.908773886E0
9.047284100E-2,4.260000288E-1,4.201050282E0,8.983950615E0,9.926815609E0
9.243614200E-2,4.260000288E-1,4.201050282E0,8.983950615E0,9.926815609E0
9.439952100E-2,3.490500152E-1,4.201050282E0,9.022050858E0,9.958316176E0
9.636308600E-2,3.870000243E-1,4.162050247E0,9.060000420E0,9.977777252E0
9.832659600E-2,3.490500152E-1,4.201050282E0,9.022050858E0,9.958316176E0
1.002899600E-1,3.490500152E-1,4.162050247E0,9.022050858E0,9.941926365E0
1.022533670E-1,3.109500110E-1,4.201050282E0,8.944950104E0,9.887246621E0
1.042165740E-1,3.870000243E-1,4.201050282E0,9.022050858E0,9.959718578E0
1.061798670E-1,3.109500110E-1,4.162050247E0,8.983950615E0,9.906095135E0
1.081434470E-1,3.870000243E-1,4.239000320E0,9.022050858E0,9.975785403E0
1.101069420E-1,3.490500152E-1,4.201050282E0,8.983950615E0,9.923811165E0
1.120704880E-1,3.490500152E-1,4.239000320E0,9.022050858E0,9.974385260E0
1.140340190E-1,3.490500152E-1,4.201050282E0,8.983950615E0,9.923811165E0
1.159973100E-1,3.870000243E-1,4.239000320E0,9.022050858E0,9.975785403E0
1.179606890E-1,3.870000243E-1,4.201050282E0,9.022050858E0,9.959718578E0
1.199237590E-1,3.490500152E-1,4.239000320E0,9.022050858E0,9.974385260E0
1.218869200E-1,3.870000243E-1,4.201050282E0,9.022050858E0,9.959718578E0
1.238501160E-1,3.490500152E-1,4.162050247E0,9.022050858E0,9.941926365E0
1.258133020E-1,3.870000243E-1,4.162050247E0,8.983950615E0,9.908773886E0
1.277765670E-1,3.870000243E-1,4.239000320E0,8.944950104E0,9.906110493E0
1.297398220E-1,4.260000288E-1,4.201050282E0,9.022050858E0,9.961310213E0
1.317030490E-1,3.870000243E-1,4.239000320E0,8.983950615E0,9.941341026E0
1.336662850E-1,3.870000243E-1,4.239000320E0,8.944950104E0,9.906110493E0
1.356296940E-1,4.260000288E-1,4.239000320E0,8.983950615E0,9.942935602E0
1.375930530E-1,3.109500110E-1,4.239000320E0,9.022050858E0,9.973124651E0
1.395563880E-1,3.490500152E-1,4.239000320E0,8.983950615E0,9.939936030E0
1.415197370E-1,3.490500152E-1,4.239000320E0,8.983950615E0,9.939936030E0
1.434831720E-1,3.490500152E-1,4.276950359E0,8.983950615E0,9.956179435E0
1.454465810E-1,3.490500152E-1,4.239000320E0,8.983950615E0,9.939936030E0
1.474097370E-1,3.490500152E-1,4.239000320E0,8.944950104E0,9.904700500E0
1.493729680E-1,3.870000243E-1,4.239000320E0,8.983950615E0,9.941341026E0
1.513362130E-1,3.490500152E-1,4.239000320E0,8.944950104E0,9.904700500E0
1.532994750E-1,3.490500152E-1,4.239000320E0,8.983950615E0,9.939936030E0
1.552630610E-1,3.109500110E-1,4.276950359E0,8.983950615E0,9.954916521E0
1.572265520E-1,3.870000243E-1,4.239000320E0,9.022050858E0,9.975785403E0
1.591896940E-1,3.490500152E-1,4.239000320E0,8.983950615E0,9.939936030E0
1.611529390E-1,3.490500152E-1,4.201050282E0,8.983950615E0,9.923811165E0
1.631159640E-1,3.490500152E-1,4.276950359E0,8.983950615E0,9.956179435E0
1.650790700E-1,3.109500110E-1,4.239000320E0,9.022050858E0,9.973124651E0
1.670423660E-1,3.490500152E-1,4.239000320E0,9.022050858E0,9.974385260E0
1.690056060E-1,3.109500110E-1,4.276950359E0,9.022050858E0,9.989314089E0
1.709690150E-1,2.719500065E-1,4.276950359E0,8.983950615E0,9.953774653E0
1.729323750E-1,2.719500065E-1,4.276950359E0,9.022050858E0,9.988176153E0
1.748956960E-1,3.490500152E-1,4.315950394E0,8.983950615E0,9.972995155E0
1.768590460E-1,3.109500110E-1,4.315950394E0,9.022050858E0,1.000607412E1
1.788223010E-1,3.109500110E-1,4.276950359E0,9.060000420E0,1.002360224E1
1.807855840E-1,3.109500110E-1,4.276950359E0,8.983950615E0,9.954916521E0
1.827489850E-1,3.490500152E-1,4.276950359E0,9.022050858E0,9.990572655E0
1.847123510E-1,3.109500110E-1,4.239000320E0,9.060000420E0,1.000746827E1
1.866753750E-1,2.719500065E-1,4.276950359E0,9.022050858E0,9.988176153E0
1.886385020E-1,3.109500110E-1,4.276950359E0,9.022050858E0,9.989314089E0
1.906015700E-1,2.719500065E-1,4.276950359E0,9.022050858E0,9.988176153E0
1.925646560E-1,2.719500065E-1,4.276950359E0,9.022050858E0,9.988176153E0
1.945278660E-1,2.719500065E-1,4.276950359E0,9.098999977E0,1.005773641E1
1.964910390E-1,2.719500065E-1,4.315950394E0,9.060000420E0,1.003917288E1
1.984540290E-1,2.719500065E-1,4.315950394E0,9.022050858E0,1.000493809E1
2.004171230E-1,2.719500065E-1,4.276950359E0,9.022050858E0,9.988176153E0
2.023802410E-1,2.719500065E-1,4.315950394E0,9.022050858E0,1.000493809E1
2.043433510E-1,2.719500065E-1,4.276950359E0,8.983950615E0,9.953774653E0
2.063065580E-1,2.340000123E-1,4.276950359E0,9.022050858E0,9.987214930E0
2.082697360E-1,1.960500032E-1,4.276950359E0,8.983950615E0,9.951990184E0
2.102330160E-1,3.109500110E-1,4.239000320E0,9.060000420E0,1.000746827E1
2.121962690E-1,2.340000123E-1,4.315950394E0,9.022050858E0,1.000397848E1
2.141593170E-1,2.340000123E-1,4.276950359E0,9.022050858E0,9.987214930E0
2.161224250E-1,2.719500065E-1,4.239000320E0,9.022050858E0,9.971984868E0
2.180854970E-1,2.719500065E-1,4.276950359E0,9.022050858E0,9.988176153E0
2.200485790E-1,2.340000123E-1,4.315950394E0,9.060000420E0,1.003821655E1
2.220113100E-1,2.719500065E-1,4.276950359E0,9.060000420E0,1.002246820E1
2.239741330E-1,2.719500065E-1,4.276950359E0,9.022050858E0,9.988176153E0
2.259370720E-1,2.719500065E-1,4.315950394E0,9.022050858E0,1.000493809E1
2.278999770E-1,2.719500065E-1,4.315950394E0,9.022050858E0,1.000493809E1
2.298632630E-1,3.109500110E-1,4.315950394E0,9.022050858E0,1.000607412E1
2.318264380E-1,2.719500065E-1,4.276950359E0,9.022050858E0,9.988176153E0
2.337896930E-1,2.719500065E-1,4.239000320E0,9.060000420E0,1.000633240E1
2.357529140E-1,2.719500065E-1,4.276950359E0,9.022050858E0,9.988176153E0
2.377162820E-1,2.719500065E-1,4.239000320E0,9.022050858E0,9.971984868E0
2.396796060E-1,3.109500110E-1,4.276950359E0,9.060000420E0,1.002360224E1
2.416426870E-1,2.719500065E-1,4.239000320E0,8.983950615E0,9.937527317E0
2.436058390E-1,2.719500065E-1,4.276950359E0,8.983950615E0,9.953774653E0
2.455690180E-1,3.109500110E-1,4.276950359E0,9.022050858E0,9.989314089E0
2.475322030E-1,3.109500110E-1,4.276950359E0,8.983950615E0,9.954916521E0
2.494952620E-1,3.109500110E-1,4.239000320E0,8.983950615E0,9.938671052E0
2.514583580E-1,3.490500152E-1,4.239000320E0,8.983950615E0,9.939936030E0
2.534212970E-1,3.109500110E-1,4.239000320E0,8.983950615E0,9.938671052E0
2.553842820E-1,3.109500110E-1,4.201050282E0,8.983950615E0,9.922544131E0
2.573473730E-1,3.490500152E-1,4.239000320E0,8.944950104E0,9.904700500E0
2.593104330E-1,3.490500152E-1,4.239000320E0,8.907000542E0,9.870441646E0
2.612736930E-1,3.490500152E-1,4.276950359E0,9.022050858E0,9.990572655E0
2.632368950E-1,3.490500152E-1,4.239000320E0,8.983950615E0,9.939936030E0
2.651999070E-1,3.870000243E-1,4.239000320E0,9.022050858E0,9.975785403E0
2.671629740E-1,3.490500152E-1,4.239000320E0,8.983950615E0,9.939936030E0
2.691260320E-1,3.109500110E-1,4.239000320E0,8.983950615E0,9.938671052E0
2.710891060E-1,3.870000243E-1,4.239000320E0,8.983950615E0,9.941341026E0
2.730525440E-1,3.490500152E-1,4.201050282E0,8.944950104E0,9.888518177E0
2.750158750E-1,3.870000243E-1,4.239000320E0,8.983950615E0,9.941341026E0
2.769789100E-1,3.870000243E-1,4.239000320E0,8.944950104E0,9.906110493E0
2.789420310E-1,3.490500152E-1,4.201050282E0,8.944950104E0,9.888518177E0
2.809053050E-1,4.260000288E-1,4.201050282E0,8.983950615E0,9.926815609E0
2.828685480E-1,3.490500152E-1,4.276950359E0,8.983950615E0,9.956179435E0
2.848319570E-1,3.870000243E-1,4.239000320E0,8.907000542E0,9.871856532E0
2.867953180E-1,3.490500152E-1,4.239000320E0,8.907000542E0,9.870441646E0
2.887584820E-1,3.870000243E-1,4.239000320E0,8.907000542E0,9.871856532E0
2.907217040E-1,2.719500065E-1,4.276950359E0,8.907000542E0,9.884377564E0
2.926848040E-1,3.490500152E-1,4.239000320E0,8.907000542E0,9.870441646E0
2.946479060E-1,3.490500152E-1,4.276950359E0,8.907000542E0,9.886799226E0
2.966110230E-1,3.870000243E-1,4.276950359E0,8.944950104E0,9.922409272E0
2.985741350E-1,3.490500152E-1,4.276950359E0,8.944950104E0,9.921001595E0
3.005372070E-1,3.490500152E-1,4.276950359E0,8.983950615E0,9.956179435E0
3.025002910E-1,3.490500152E-1,4.315950394E0,8.983950615E0,9.972995155E0
3.044633660E-1,3.490500152E-1,4.276950359E0,8.983950615E0,9.956179435E0
3.064264440E-1,3.109500110E-1,4.276950359E0,8.944950104E0,9.919734202E0
3.083898350E-1,3.109500110E-1,4.239000320E0,8.944950104E0,9.903431021E0
3.103531350E-1,3.109500110E-1,4.276950359E0,8.944950104E0,9.919734202E0
3.123160400E-1,3.109500110E-1,4.276950359E0,8.983950615E0,9.954916521E0
3.142790600E-1,3.109500110E-1,4.276950359E0,8.983950615E0,9.954916521E0
3.162422950E-1,3.490500152E-1,4.276950359E0,8.983950615E0,9.956179435E0
3.182054570E-1,3.490500152E-1,4.315950394E0,8.983950615E0,9.972995155E0
3.201683400E-1,3.490500152E-1,4.315950394E0,8.944950104E0,9.937876839E0
3.221313050E-1,3.109500110E-1,4.276950359E0,8.983950615E0,9.954916521E0
3.240940400E-1,3.109500110E-1,4.276950359E0,8.983950615E0,9.954916521E0
3.260568430E-1,3.109500110E-1,4.315950394E0,8.944950104E0,9.936611599E0
3.280196470E-1,3.109500110E-1,4.276950359E0,8.944950104E0,9.919734202E0
3.299824530E-1,3.109500110E-1,4.239000320E0,8.944950104E0,9.903431021E0
3.319453510E-1,3.109500110E-1,4.276950359E0,9.022050858E0,9.989314089E0
3.339082220E-1,3.109500110E-1,4.239000320E0,8.983950615E0,9.938671052E0
3.358711990E-1,2.719500065E-1,4.239000320E0,9.060000420E0,1.000633240E1
3.378341450E-1,2.719500065E-1,4.276950359E0,8.983950615E0,9.953774653E0
3.397973880E-1,3.109500110E-1,4.276950359E0,9.060000420E0,1.002360224E1
3.417605380E-1,3.490500152E-1,4.239000320E0,9.060000420E0,1.000872456E1
3.437236040E-1,2.719500065E-1,4.239000320E0,9.022050858E0,9.971984868E0
3.456866940E-1,3.490500152E-1,4.239000320E0,9.060000420E0,1.000872456E1
3.476494540E-1,3.109500110E-1,4.276950359E0,9.098999977E0,1.005886648E1
3.496123100E-1,3.109500110E-1,4.239000320E0,9.098999977E0,1.004278916E1
3.515753700E-1,3.109500110E-1,4.201050282E0,9.022050858E0,9.957053533E0
3.535383760E-1,2.719500065E-1,4.201050282E0,9.136950493E0,1.006015132E1
3.555009700E-1,2.719500065E-1,4.239000320E0,9.060000420E0,1.000633240E1
3.574636850E-1,2.719500065E-1,4.239000320E0,9.060000420E0,1.000633240E1
3.594269580E-1,2.719500065E-1,4.201050282E0,9.098999977E0,1.002569603E1
3.613900680E-1,3.109500110E-1,4.239000320E0,9.136950493E0,1.007718601E1
3.633530090E-1,3.109500110E-1,4.162050247E0,9.060000420E0,9.975117031E0
3.653159970E-1,3.109500110E-1,4.239000320E0,9.098999977E0,1.004278916E1
3.672794030E-1,3.109500110E-1,4.239000320E0,9.060000420E0,1.000746827E1
3.692426870E-1,3.109500110E-1,4.239000320E0,9.060000420E0,1.000746827E1
3.712059100E-1,3.109500110E-1,4.276950359E0,9.022050858E0,9.989314089E0
3.731691510E-1,3.109500110E-1,4.239000320E0,9.060000420E0,1.000746827E1
3.751323800E-1,3.109500110E-1,4.276950359E0,9.060000420E0,1.002360224E1
3.770956130E-1,3.109500110E-1,4.239000320E0,9.022050858E0,9.973124651E0
3.790586630E-1,3.109500110E-1,4.239000320E0,9.060000420E0,1.000746827E1
3.810217660E-1,3.109500110E-1,4.239000320E0,9.060000420E0,1.000746827E1
3.829848830E-1,2.719500065E-1,4.201050282E0,9.022050858E0,9.955911910E0
3.849479950E-1,3.109500110E-1,4.276950359E0,9.022050858E0,9.989314089E0
3.869110870E-1,3.109500110E-1,4.201050282E0,8.983950615E0,9.922544131E0
3.888741710E-1,3.109500110E-1,4.239000320E0,9.022050858E0,9.973124651E0
3.908374260E-1,3.109500110E-1,4.276950359E0,9.022050858E0,9.989314089E0
3.928006310E-1,2.719500065E-1,4.239000320E0,9.022050858E0,9.971984868E0
3.947642260E-1,2.719500065E-1,4.239000320E0,8.983950615E0,9.937527317E0
3.967277070E-1,3.109500110E-1,4.239000320E0,9.060000420E0,1.000746827E1
3.986910120E-1,3.490500152E-1,4.239000320E0,8.983950615E0,9.939936030E0
4.006543820E-1,3.490500152E-1,4.239000320E0,8.944950104E0,9.904700500E0
4.026174540E-1,2.719500065E-1,4.239000320E0,9.022050858E0,9.971984868E0
4.045806130E-1,3.490500152E-1,4.239000320E0,8.944950104E0,9.904700500E0
4.065438550E-1,3.109500110E-1,4.239000320E0,9.022050858E0,9.973124651E0
4.085070720E-1,3.490500152E-1,4.239000320E0,8.944950104E0,9.904700500E0
4.104701070E-1,3.109500110E-1,4.239000320E0,9.022050858E0,9.973124651E0
4.124332090E-1,3.109500110E-1,4.276950359E0,8.944950104E0,9.919734202E0
4.143965960E-1,3.490500152E-1,4.239000320E0,8.944950104E0,9.904700500E0
4.163598990E-1,3.490500152E-1,4.276950359E0,8.907000542E0,9.886799226E0
4.183233430E-1,3.109500110E-1,4.239000320E0,8.944950104E0,9.903431021E0
4.202867450E-1,3.490500152E-1,4.201050282E0,8.983950615E0,9.923811165E0
4.222499530E-1,3.490500152E-1,4.276950359E0,8.944950104E0,9.921001595E0
4.242132140E-1,3.490500152E-1,4.239000320E0,8.983950615E0,9.939936030E0
4.261764400E-1,3.109500110E-1,4.201050282E0,8.944950104E0,9.887246621E0
4.281396760E-1,3.490500152E-1,4.239000320E0,8.983950615E0,9.939936030E0
4.301029050E-1,3.109500110E-1,4.239000320E0,8.983950615E0,9.938671052E0
4.320661370E-1,3.109500110E-1,4.239000320E0,8.944950104E0,9.903431021E0
4.340293080E-1,3.109500110E-1,4.239000320E0,8.944950104E0,9.903431021E0
4.359925070E-1,3.490500152E-1,4.201050282E0,8.944950104E0,9.888518177E0
4.379556080E-1,3.870000243E-1,4.201050282E0,8.983950615E0,9.925218443E0
4.399187370E-1,3.490500152E-1,4.239000320E0,8.983950615E0,9.939936030E0
4.418819840E-1,3.870000243E-1,4.201050282E0,8.944950104E0,9.889930477E0
4.438451970E-1,3.870000243E-1,4.239000320E0,8.983950615E0,9.941341026E0
4.458085810E-1,3.490500152E-1,4.162050247E0,8.983950615E0,9.907364272E0
4.477719040E-1,3.870000243E-1,4.201050282E0,8.983950615E0,9.925218443E0
4.497351650E-1,3.490500152E-1,4.201050282E0,8.983950615E0,9.923811165E0
4.516984450E-1,3.490500152E-1,4.239000320E0,9.022050858E0,9.974385260E0
4.536618460E-1,3.490500152E-1,4.239000320E0,9.022050858E0,9.974385260E0
4.556252120E-1,3.870000243E-1,4.239000320E0,8.983950615E0,9.941341026E0
4.575884390E-1,3.109500110E-1,4.239000320E0,8.983950615E0,9.938671052E0
4.595516940E-1,3.109500110E-1,4.201050282E0,9.022050858E0,9.957053533E0
4.615150550E-1,3.490500152E-1,4.201050282E0,9.022050858E0,9.958316176E0
4.634783840E-1,3.109500110E-1,4.201050282E0,8.983950615E0,9.922544131E0
4.654421830E-1,3.109500110E-1,4.239000320E0,8.983950615E0,9.938671052E0
4.674058450E-1,3.490500152E-1,4.239000320E0,8.983950615E0,9.939936030E0
4.693695280E-1,3.490500152E-1,4.201050282E0,8.983950615E0,9.923811165E0
4.713331840E-1,3.109500110E-1,4.276950359E0,8.944950104E0,9.919734202E0
4.732967470E-1,3.109500110E-1,4.201050282E0,8.983950615E0,9.922544131E0
4.752603380E-1,3.490500152E-1,4.239000320E0,8.983950615E0,9.939936030E0
4.772238670E-1,2.719500065E-1,4.239000320E0,8.944950104E0,9.902283216E0
4.791874150E-1,3.109500110E-1,4.276950359E0,8.944950104E0,9.919734202E0
4.811508920E-1,3.490500152E-1,4.239000320E0,8.944950104E0,9.904700500E0
4.831144000E-1,2.719500065E-1,4.276950359E0,8.944950104E0,9.918588284E0
4.850776280E-1,3.490500152E-1,4.315950394E0,8.983950615E0,9.972995155E0
4.870409380E-1,3.109500110E-1,4.315950394E0,8.983950615E0,9.971734371E0
4.890041550E-1,2.719500065E-1,4.276950359E0,9.022050858E0,9.988176153E0
4.909674000E-1,3.870000243E-1,4.276950359E0,8.983950615E0,9.957582139E0
4.929307890E-1,3.490500152E-1,4.276950359E0,9.022050858E0,9.990572655E0
4.948941490E-1,3.109500110E-1,4.276950359E0,8.983950615E0,9.954916521E0
4.968573590E-1,3.490500152E-1,4.276950359E0,8.983950615E0,9.956179435E0
4.988206130E-1,3.490500152E-1,4.239000320E0,9.022050858E0,9.974385260E0
5.007838390E-1,3.490500152E-1,4.239000320E0,8.983950615E0,9.939936030E0
5.027470740E-1,3.490500152E-1,4.276950359E0,9.022050858E0,9.990572655E0
5.047102490E-1,3.490500152E-1,4.239000320E0,8.983950615E0,9.939936030E0
5.066734490E-1,3.490500152E-1,4.239000320E0,8.983950615E0,9.939936030E0
5.086370440E-1,3.490500152E-1,4.239000320E0,8.983950615E0,9.939936030E0
5.106005240E-1,3.490500152E-1,4.276950359E0,8.983950615E0,9.956179435E0
5.125639380E-1,3.490500152E-1,4.276950359E0,8.983950615E0,9.956179435E0
5.145273720E-1,3.109500110E-1,4.276950359E0,8.983950615E0,9.954916521E0
5.164907140E-1,3.490500152E-1,4.276950359E0,8.944950104E0,9.921001595E0
5.184541070E-1,3.490500152E-1,4.239000320E0,8.983950615E0,9.939936030E0
5.204174910E-1,3.870000243E-1,4.239000320E0,8.944950104E0,9.906110493E0
5.223808770E-1,3.490500152E-1,4.239000320E0,9.022050858E0,9.974385260E0
5.243442610E-1,2.719500065E-1,4.239000320E0,8.983950615E0,9.937527317E0
5.263076460E-1,3.490500152E-1,4.201050282E0,9.060000420E0,9.992710693E0
5.282706010E-1,3.490500152E-1,4.201050282E0,8.983950615E0,9.923811165E0
5.302336990E-1,3.490500152E-1,4.239000320E0,9.060000420E0,1.000872456E1
5.321968160E-1,3.490500152E-1,4.239000320E0,9.060000420E0,1.000872456E1
5.341599270E-1,3.490500152E-1,4.239000320E0,9.022050858E0,9.974385260E0
5.361233140E-1,3.490500152E-1,4.239000320E0,9.022050858E0,9.974385260E0
5.380866200E-1,3.870000243E-1,4.276950359E0,9.060000420E0,1.002624960E1
5.400500280E-1,3.870000243E-1,4.239000320E0,9.022050858E0,9.975785403E0
5.420133990E-1,3.870000243E-1,4.239000320E0,9.022050858E0,9.975785403E0
5.439766520E-1,3.490500152E-1,4.239000320E0,9.060000420E0,1.000872456E1
5.459399400E-1,3.490500152E-1,4.276950359E0,9.022050858E0,9.990572655E0
5.479034750E-1,3.490500152E-1,4.239000320E0,9.060000420E0,1.000872456E1
5.498669380E-1,3.490500152E-1,4.239000320E0,9.022050858E0,9.974385260E0
5.518301300E-1,3.870000243E-1,4.276950359E0,9.060000420E0,1.002624960E1
5.537934010E-1,3.870000243E-1,4.276950359E0,9.022050858E0,9.991970530E0
5.557566700E-1,3.109500110E-1,4.239000320E0,8.983950615E0,9.938671052E0
5.577199400E-1,3.109500110E-1,4.239000320E0,9.060000420E0,1.000746827E1
5.596831640E-1,3.870000243E-1,4.276950359E0,9.060000420E0,1.002624960E1
5.616464010E-1,3.490500152E-1,4.276950359E0,8.983950615E0,9.956179435E0
5.636094400E-1,3.870000243E-1,4.276950359E0,9.060000420E0,1.002624960E1
5.655725450E-1,3.870000243E-1,4.239000320E0,9.022050858E0,9.975785403E0
5.675361120E-1,3.490500152E-1,4.239000320E0,9.060000420E0,1.000872456E1
5.694995430E-1,3.490500152E-1,4.239000320E0,9.060000420E0,1.000872456E1
5.714627410E-1,3.490500152E-1,4.315950394E0,8.983950615E0,9.972995155E0
5.734260070E-1,3.870000243E-1,4.239000320E0,8.983950615E0,9.941341026E0
5.753894020E-1,3.870000243E-1,4.201050282E0,9.022050858E0,9.959718578E0
5.773527650E-1,3.490500152E-1,4.239000320E0,9.022050858E0,9.974385260E0
5.793159740E-1,3.490500152E-1,4.239000320E0,8.983950615E0,9.939936030E0
5.812792280E-1,3.109500110E-1,4.239000320E0,9.022050858E0,9.973124651E0
5.832423200E-1,3.870000243E-1,4.239000320E0,8.944950104E0,9.906110493E0
5.852054590E-1,3.870000243E-1,4.239000320E0,9.022050858E0,9.975785403E0
5.871687290E-1,3.870000243E-1,4.201050282E0,9.022050858E0,9.959718578E0
5.891319430E-1,3.490500152E-1,4.239000320E0,9.022050858E0,9.974385260E0
5.910953120E-1,3.490500152E-1,4.201050282E0,8.983950615E0,9.923811165E0
5.930586350E-1,3.490500152E-1,4.239000320E0,9.022050858E0,9.974385260E0
5.950218960E-1,3.870000243E-1,4.276950359E0,8.983950615E0,9.957582139E0
5.969851750E-1,3.490500152E-1,4.239000320E0,8.944950104E0,9.904700500E0
5.989485370E-1,3.490500152E-1,4.239000320E0,8.983950615E0,9.939936030E0
6.009118710E-1,3.870000243E-1,4.239000320E0,8.983950615E0,9.941341026E0
6.028747250E-1,3.490500152E-1,4.239000320E0,8.983950615E0,9.939936030E0
6.048377190E-1,3.870000243E-1,4.276950359E0,8.983950615E0,9.957582139E0
6.068010340E-1,3.870000243E-1,4.239000320E0,9.022050858E0,9.975785403E0
6.087642550E-1,3.490500152E-1,4.201050282E0,9.022050858E0,9.958316176E0
6.107277980E-1,3.109500110E-1,4.239000320E0,9.022050858E0,9.973124651E0
6.126912500E-1,3.109500110E-1,4.239000320E0,8.983950615E0,9.938671052E0
6.146544440E-1,3.870000243E-1,4.239000320E0,9.022050858E0,9.975785403E0
6.166177140E-1,3.870000243E-1,4.201050282E0,9.060000420E0,9.994108269E0
6.185811170E-1,3.490500152E-1,4.201050282E0,9.022050858E0,9.958316176E0
6.205444810E-1,3.870000243E-1,4.276950359E0,8.983950615E0,9.957582139E0
6.225077640E-1,3.490500152E-1,4.276950359E0,8.983950615E0,9.956179435E0
6.244710510E-1,3.490500152E-1,4.239000320E0,8.983950615E0,9.939936030E0
6.264344510E-1,3.490500152E-1,4.239000320E0,8.983950615E0,9.939936030E0
6.283978180E-1,3.490500152E-1,4.239000320E0,8.983950615E0,9.939936030E0
6.303611610E-1,3.109500110E-1,4.276950359E0,8.983950615E0,9.954916521E0
6.323245120E-1,3.490500152E-1,4.276950359E0,9.022050858E0,9.990572655E0
6.342881010E-1,3.109500110E-1,4.276950359E0,9.022050858E0,9.989314089E0
6.362516060E-1,3.109500110E-1,4.276950359E0,9.022050858E0,9.989314089E0
6.382150160E-1,3.109500110E-1,4.276950359E0,9.022050858E0,9.989314089E0
6.401784540E-1,2.719500065E-1,4.276950359E0,8.983950615E0,9.953774653E0
6.421417850E-1,3.109500110E-1,4.276950359E0,8.983950615E0,9.954916521E0
6.441051470E-1,3.490500152E-1,4.276950359E0,8.983950615E0,9.956179435E0
6.460684000E-1,3.109500110E-1,4.276950359E0,9.022050858E0,9.989314089E0
6.480316850E-1,2.719500065E-1,4.276950359E0,8.983950615E0,9.953774653E0
6.499952210E-1,2.719500065E-1,4.276950359E0,9.022050858E0,9.988176153E0
6.519586830E-1,2.719500065E-1,4.276950359E0,8.983950615E0,9.953774653E0
6.539219210E-1,2.719500065E-1,4.276950359E0,8.944950104E0,9.918588284E0
6.558852240E-1,3.490500152E-1,4.276950359E0,9.022050858E0,9.990572655E0
6.578486020E-1,3.109500110E-1,4.276950359E0,8.944950104E0,9.919734202E0
6.598119720E-1,3.490500152E-1,4.239000320E0,8.983950615E0,9.939936030E0
6.617751350E-1,3.490500152E-1,4.201050282E0,8.983950615E0,9.923811165E0
6.637383580E-1,3.490500152E-1,4.201050282E0,8.983950615E0,9.923811165E0
6.657012750E-1,3.109500110E-1,4.239000320E0,8.983950615E0,9.938671052E0
6.676642820E-1,3.870000243E-1,4.201050282E0,8.983950615E0,9.925218443E0
6.696274900E-1,3.109500110E-1,4.239000320E0,8.983950615E0,9.938671052E0
6.715906490E-1,3.490500152E-1,4.239000320E0,9.022050858E0,9.974385260E0
6.735537580E-1,3.490500152E-1,4.239000320E0,8.983950615E0,9.939936030E0
6.755168820E-1,3.870000243E-1,4.276950359E0,8.983950615E0,9.957582139E0
6.774802650E-1,3.490500152E-1,4.201050282E0,9.022050858E0,9.958316176E0
6.794435720E-1,3.109500110E-1,4.239000320E0,9.022050858E0,9.973124651E0
6.814069900E-1,3.109500110E-1,4.239000320E0,8.983950615E0,9.938671052E0
6.833703610E-1,3.109500110E-1,4.239000320E0,9.022050858E0,9.973124651E0
6.853337480E-1,3.109500110E-1,4.239000320E0,8.944950104E0,9.903431021E0
6.872971310E-1,2.340000123E-1,4.239000320E0,8.983950615E0,9.936561195E0
6.892602010E-1,2.719500065E-1,4.239000320E0,8.944950104E0,9.902283216E0
6.912233630E-1,2.719500065E-1,4.276950359E0,8.944950104E0,9.918588284E0
6.931864340E-1,2.340000123E-1,4.315950394E0,9.022050858E0,1.000397848E1
6.951495260E-1,1.960500032E-1,4.315950394E0,9.022050858E0,1.000316275E1
6.971127800E-1,2.719500065E-1,4.354050159E0,8.983950615E0,9.987145651E0
6.990759860E-1,2.719500065E-1,4.315950394E0,9.022050858E0,1.000493809E1
7.010395370E-1,2.340000123E-1,4.276950359E0,9.060000420E0,1.002151026E1
7.030029860E-1,3.109500110E-1,4.354050159E0,9.060000420E0,1.005674154E1
7.049660840E-1,2.340000123E-1,4.354050159E0,8.983950615E0,9.986184329E0
7.069292580E-1,2.719500065E-1,4.354050159E0,8.983950615E0,9.987145651E0
7.088926320E-1,1.960500032E-1,4.354050159E0,8.944950104E0,9.950292496E0
7.108559480E-1,2.340000123E-1,4.354050159E0,8.944950104E0,9.951112559E0
7.128195250E-1,2.719500065E-1,4.354050159E0,8.944950104E0,9.952077268E0
7.147830250E-1,2.719500065E-1,4.315950394E0,8.944950104E0,9.935467627E0
7.167462740E-1,2.719500065E-1,4.354050159E0,8.907000542E0,9.917982065E0
7.187095840E-1,3.109500110E-1,4.276950359E0,8.944950104E0,9.919734202E0
7.206727560E-1,3.109500110E-1,4.354050159E0,8.907000542E0,9.919128054E0
7.226359690E-1,2.340000123E-1,4.315950394E0,8.830050468E0,9.831173637E0
7.245993820E-1,3.109500110E-1,4.276950359E0,8.869050026E0,9.851347250E0
7.265627360E-1,3.490500152E-1,4.276950359E0,8.907000542E0,9.886799226E0
7.285264920E-1,2.719500065E-1,4.276950359E0,8.869050026E0,9.850193376E0
7.304901260E-1,3.109500110E-1,4.315950394E0,8.944950104E0,9.936611599E0
7.324531540E-1,3.490500152E-1,4.239000320E0,8.944950104E0,9.904700500E0
7.344163590E-1,3.870000243E-1,4.276950359E0,8.907000542E0,9.888211772E0
7.363795930E-1,4.260000288E-1,4.239000320E0,8.907000542E0,9.873462330E0
7.383428180E-1,3.870000243E-1,4.276950359E0,8.869050026E0,9.854040885E0
7.403060210E-1,3.109500110E-1,4.239000320E0,8.907000542E0,9.869167760E0
7.422692510E-1,3.870000243E-1,4.239000320E0,8.869050026E0,9.837628835E0
7.442324820E-1,3.870000243E-1,4.201050282E0,8.944950104E0,9.889930477E0
7.461957120E-1,3.490500152E-1,4.162050247E0,8.869050026E0,9.803292637E0
7.481591240E-1,4.260000288E-1,4.201050282E0,8.907000542E0,9.857228725E0
7.501224820E-1,3.870000243E-1,4.201050282E0,8.907000542E0,9.855620282E0
7.520855110E-1,3.870000243E-1,4.201050282E0,8.907000542E0,9.855620282E0
7.540486370E-1,3.870000243E-1,4.162050247E0,8.944950104E0,9.873427148E0
7.560118850E-1,3.870000243E-1,4.201050282E0,8.907000542E0,9.855620282E0
7.579750970E-1,4.260000288E-1,4.239000320E0,8.944950104E0,9.907710740E0
7.599384660E-1,3.870000243E-1,4.201050282E0,8.944950104E0,9.889930477E0
7.619017890E-1,4.260000288E-1,4.239000320E0,8.944950104E0,9.907710740E0
7.638650140E-1,3.490500152E-1,4.201050282E0,8.944950104E0,9.888518177E0
7.658282620E-1,3.870000243E-1,4.239000320E0,8.944950104E0,9.906110493E0
7.677915340E-1,3.870000243E-1,4.239000320E0,8.983950615E0,9.941341026E0
7.697547980E-1,3.490500152E-1,4.239000320E0,8.983950615E0,9.939936030E0
7.717182040E-1,4.260000288E-1,4.201050282E0,9.022050858E0,9.961310213E0
7.736815680E-1,3.870000243E-1,4.239000320E0,9.060000420E0,1.001011990E1
7.756446940E-1,3.870000243E-1,4.239000320E0,8.983950615E0,9.941341026E0
7.776079160E-1,3.870000243E-1,4.276950359E0,9.022050858E0,9.991970530E0
7.795710130E-1,4.260000288E-1,4.239000320E0,9.098999977E0,1.004700952E1
7.815341470E-1,3.109500110E-1,4.239000320E0,9.060000420E0,1.000746827E1
7.834973480E-1,3.109500110E-1,4.239000320E0,9.060000420E0,1.000746827E1
7.854605300E-1,3.490500152E-1,4.201050282E0,9.060000420E0,9.992710693E0
7.874239940E-1,3.109500110E-1,4.239000320E0,9.098999977E0,1.004278916E1
7.893873760E-1,3.109500110E-1,4.276950359E0,9.098999977E0,1.005886648E1
7.913507170E-1,3.490500152E-1,4.276950359E0,9.098999977E0,1.006011634E1
7.933140700E-1,3.490500152E-1,4.239000320E0,9.098999977E0,1.004404103E1
7.952771000E-1,3.109500110E-1,4.239000320E0,9.060000420E0,1.000746827E1
7.972402240E-1,3.109500110E-1,4.239000320E0,9.098999977E0,1.004278916E1
7.992035120E-1,3.490500152E-1,4.239000320E0,9.098999977E0,1.004404103E1
8.011667550E-1,3.490500152E-1,4.276950359E0,9.098999977E0,1.006011634E1
8.031297590E-1,3.490500152E-1,4.276950359E0,9.098999977E0,1.006011634E1
8.050928340E-1,3.109500110E-1,4.276950359E0,9.098999977E0,1.005886648E1
8.070557760E-1,3.490500152E-1,4.239000320E0,9.098999977E0,1.004404103E1
8.090187570E-1,3.490500152E-1,4.239000320E0,9.098999977E0,1.004404103E1
8.109821600E-1,3.490500152E-1,4.239000320E0,9.098999977E0,1.004404103E1
8.129454430E-1,3.490500152E-1,4.201050282E0,9.060000420E0,9.992710693E0
8.149085300E-1,3.109500110E-1,4.239000320E0,9.060000420E0,1.000746827E1
8.168716750E-1,3.490500152E-1,4.239000320E0,9.098999977E0,1.004404103E1
8.188351000E-1,3.490500152E-1,4.239000320E0,9.098999977E0,1.004404103E1
8.207984430E-1,3.490500152E-1,4.239000320E0,9.098999977E0,1.004404103E1
8.227616100E-1,3.490500152E-1,4.201050282E0,9.175050735E0,1.009713897E1
8.247248290E-1,3.109500110E-1,4.239000320E0,9.098999977E0,1.004278916E1
8.266882870E-1,3.490500152E-1,4.239000320E0,9.098999977E0,1.004404103E1
8.286516740E-1,3.109500110E-1,4.239000320E0,9.098999977E0,1.004278916E1
8.306150590E-1,3.490500152E-1,4.239000320E0,9.060000420E0,1.000872456E1
8.325784450E-1,3.109500110E-1,4.239000320E0,9.098999977E0,1.004278916E1
8.345418140E-1,2.719500065E-1,4.239000320E0,9.098999977E0,1.004165729E1
8.365051990E-1,3.490500152E-1,4.239000320E0,9.136950493E0,1.007843361E1
8.384687180E-1,3.109500110E-1,4.201050282E0,9.136950493E0,1.006128112E1
8.404321970E-1,3.109500110E-1,4.201050282E0,9.136950493E0,1.006128112E1
8.423955660E-1,3.109500110E-1,4.239000320E0,9.098999977E0,1.004278916E1
8.443589680E-1,3.490500152E-1,4.201050282E0,9.136950493E0,1.006253068E1
8.463223690E-1,3.490500152E-1,4.201050282E0,9.060000420E0,9.992710693E0
8.482857570E-1,3.109500110E-1,4.239000320E0,9.060000420E0,1.000746827E1
8.502491860E-1,3.490500152E-1,4.162050247E0,9.136950493E0,1.004631089E1
8.522126020E-1,3.490500152E-1,4.201050282E0,9.098999977E0,1.002808356E1
8.541759370E-1,3.870000243E-1,4.201050282E0,9.022050858E0,9.959718578E0
8.561392960E-1,3.490500152E-1,4.162050247E0,9.098999977E0,1.001180797E1
8.581026980E-1,3.870000243E-1,4.162050247E0,9.060000420E0,9.977777252E0
8.600660770E-1,3.870000243E-1,4.162050247E0,9.022050858E0,9.943331079E0
8.620293290E-1,3.870000243E-1,4.123950005E0,8.983950615E0,9.892830804E0
8.639926180E-1,3.870000243E-1,4.162050247E0,9.022050858E0,9.943331079E0
8.659559730E-1,4.260000288E-1,4.201050282E0,9.022050858E0,9.961310213E0
8.679193080E-1,3.870000243E-1,4.201050282E0,8.983950615E0,9.925218443E0
8.698823270E-1,3.490500152E-1,4.201050282E0,8.983950615E0,9.923811165E0
8.718454490E-1,3.870000243E-1,4.239000320E0,8.983950615E0,9.941341026E0
8.738089230E-1,3.109500110E-1,4.201050282E0,8.983950615E0,9.922544131E0
8.757722930E-1,3.490500152E-1,4.239000320E0,8.983950615E0,9.939936030E0
8.777354560E-1,3.490500152E-1,4.239000320E0,8.944950104E0,9.904700500E0
8.796986800E-1,3.490500152E-1,4.201050282E0,8.944950104E0,9.888518177E0
8.816617480E-1,3.109500110E-1,4.239000320E0,8.944950104E0,9.903431021E0
8.836248820E-1,3.490500152E-1,4.276950359E0,8.944950104E0,9.921001595E0
8.855880830E-1,3.109500110E-1,4.276950359E0,8.907000542E0,9.885527449E0
8.875512650E-1,3.109500110E-1,4.276950359E0,8.944950104E0,9.919734202E0
8.895145490E-1,3.109500110E-1,4.239000320E0,8.944950104E0,9.903431021E0
8.914778030E-1,3.870000243E-1,4.276950359E0,8.907000542E0,9.888211772E0
8.934409610E-1,3.490500152E-1,4.276950359E0,8.907000542E0,9.886799226E0
8.954041650E-1,3.109500110E-1,4.315950394E0,8.907000542E0,9.902463146E0
8.973678050E-1,3.490500152E-1,4.239000320E0,8.944950104E0,9.904700500E0
8.993313170E-1,3.490500152E-1,4.239000320E0,8.983950615E0,9.939936030E0
9.012944560E-1,3.109500110E-1,4.239000320E0,8.983950615E0,9.938671052E0
9.032577040E-1,3.870000243E-1,4.276950359E0,8.983950615E0,9.957582139E0
9.052209480E-1,3.490500152E-1,4.276950359E0,8.944950104E0,9.921001595E0
9.071842120E-1,3.109500110E-1,4.276950359E0,8.944950104E0,9.919734202E0
9.091473930E-1,3.109500110E-1,4.276950359E0,8.944950104E0,9.919734202E0
9.111105990E-1,3.109500110E-1,4.315950394E0,8.983950615E0,9.971734371E0
9.130736540E-1,3.870000243E-1,4.276950359E0,8.983950615E0,9.957582139E0
9.150367530E-1,3.490500152E-1,4.315950394E0,8.907000542E0,9.903732749E0
9.170000000E-1,3.870000243E-1,4.276950359E0,8.983950615E0,9.957582139E0
9.189632070E-1,3.109500110E-1,4.276950359E0,8.944950104E0,9.919734202E0
9.209266220E-1,2.719500065E-1,4.315950394E0,8.983950615E0,9.970594429E0
9.228899760E-1,3.109500110E-1,4.315950394E0,8.907000542E0,9.902463146E0
9.248533660E-1,3.109500110E-1,4.315950394E0,8.944950104E0,9.936611599E0
9.268167460E-1,2.719500065E-1,4.276950359E0,8.944950104E0,9.918588284E0
9.287801450E-1,3.109500110E-1,4.315950394E0,8.944950104E0,9.936611599E0
9.307435290E-1,2.719500065E-1,4.315950394E0,8.907000542E0,9.901315229E0
9.327065540E-1,2.340000123E-1,4.276950359E0,8.944950104E0,9.917620316E0
9.346696850E-1,2.340000123E-1,4.315950394E0,8.869050026E0,9.866216710E0
9.366327530E-1,2.340000123E-1,4.315950394E0,8.907000542E0,9.900345573E0
9.385958390E-1,2.719500065E-1,4.315950394E0,8.944950104E0,9.935467627E0
9.405589530E-1,2.340000123E-1,4.354050159E0,8.944950104E0,9.951112559E0
9.425220620E-1,2.719500065E-1,4.354050159E0,9.022050858E0,1.002143260E1
9.444853140E-1,2.340000123E-1,4.354050159E0,8.983950615E0,9.986184329E0
9.464485240E-1,3.109500110E-1,4.315950394E0,8.983950615E0,9.971734371E0
9.484115340E-1,2.340000123E-1,4.315950394E0,9.022050858E0,1.000397848E1
9.503746030E-1,2.719500065E-1,4.354050159E0,9.022050858E0,1.002143260E1
9.523377210E-1,2.719500065E-1,4.315950394E0,9.022050858E0,1.000493809E1
9.543008280E-1,2.719500065E-1,4.315950394E0,9.022050858E0,1.000493809E1
9.562639000E-1,2.340000123E-1,4.315950394E0,9.022050858E0,1.000397848E1
9.582269830E-1,2.719500065E-1,4.315950394E0,9.022050858E0,1.000493809E1
9.601900140E-1,2.719500065E-1,4.315950394E0,9.060000420E0,1.003917288E1
9.621530600E-1,2.719500065E-1,4.315950394E0,9.060000420E0,1.003917288E1
9.641158150E-1,2.719500065E-1,4.315950394E0,9.022050858E0,1.000493809E1
9.660786320E-1,2.719500065E-1,4.239000320E0,9.060000420E0,1.000633240E1
9.680419770E-1,3.109500110E-1,4.276950359E0,9.060000420E0,1.002360224E1
9.700051680E-1,3.490500152E-1,4.315950394E0,9.060000420E0,1.004155722E1
9.719683610E-1,3.109500110E-1,4.276950359E0,9.022050858E0,9.989314089E0
9.739315530E-1,2.719500065E-1,4.276950359E0,9.060000420E0,1.002246820E1
9.758947850E-1,2.719500065E-1,4.315950394E0,9.022050858E0,1.000493809E1
9.778580090E-1,3.109500110E-1,4.276950359E0,9.022050858E0,9.989314089E0
9.798214670E-1,2.719500065E-1,4.276950359E0,9.060000420E0,1.002246820E1
9.817848560E-1,3.109500110E-1,4.315950394E0,9.022050858E0,1.000607412E1
9.837478800E-1,2.719500065E-1,4.276950359E0,9.022050858E0,9.988176153E0
9.857110110E-1,3.490500152E-1,4.239000320E0,9.022050858E0,9.974385260E0
9.876742490E-1,3.109500110E-1,4.276950359E0,9.022050858E0,9.989314089E0
9.896374620E-1,2.719500065E-1,4.239000320E0,9.022050858E0,9.971984868E0
9.916006520E-1,2.340000123E-1,4.239000320E0,8.983950615E0,9.936561195E0
9.935638490E-1,3.490500152E-1,4.276950359E0,9.060000420E0,1.002485650E1
9.955271290E-1,2.719500065E-1,4.276950359E0,9.022050858E0,9.988176153E0
9.974903850E-1,2.719500065E-1,4.276950359E0,9.022050858E0,9.988176153E0
9.994537610E-1,3.490500152E-1,4.276950359E0,9.022050858E0,9.990572655E0
1.001417091E0,2.719500065E-1,4.239000320E0,9.022050858E0,9.971984868E0
1.003380126E0,2.719500065E-1,4.239000320E0,9.060000420E0,1.000633240E1
1.005343247E0,3.109500110E-1,4.239000320E0,9.060000420E0,1.000746827E1
1.007306676E0,3.109500110E-1,4.239000320E0,9.098999977E0,1.004278916E1
1.009270015E0,3.109500110E-1,4.239000320E0,9.060000420E0,1.000746827E1
1.011233240E0,4.260000288E-1,4.201050282E0,9.060000420E0,9.995694428E0
1.013196522E0,3.490500152E-1,4.201050282E0,9.060000420E0,9.992710693E0
1.015159383E0,3.490500152E-1,4.201050282E0,9.060000420E0,9.992710693E0
1.017122368E0,3.870000243E-1,4.201050282E0,9.098999977E0,1.002947621E1
1.019085595E0,3.870000243E-1,4.239000320E0,9.022050858E0,9.975785403E0
1.021048751E0,4.260000288E-1,4.201050282E0,9.022050858E0,9.961310213E0
1.023011851E0,3.870000243E-1,4.239000320E0,9.060000420E0,1.001011990E1
1.024974974E0,4.639500082E-1,4.201050282E0,8.983950615E0,9.928516593E0
1.026938402E0,4.260000288E-1,4.162050247E0,8.983950615E0,9.910373703E0
1.028901741E0,4.260000288E-1,4.239000320E0,9.022050858E0,9.977374475E0
1.030864909E0,4.260000288E-1,4.162050247E0,9.022050858E0,9.944925337E0
1.032828127E0,3.870000243E-1,4.201050282E0,9.022050858E0,9.959718578E0
1.034791031E0,3.870000243E-1,4.201050282E0,8.983950615E0,9.925218443E0
1.036754037E0,3.870000243E-1,4.276950359E0,9.022050858E0,9.991970530E0
1.038717305E0,3.870000243E-1,4.239000320E0,8.944950104E0,9.906110493E0
1.040680496E0,3.870000243E-1,4.201050282E0,8.944950104E0,9.889930477E0
1.042643555E0,3.870000243E-1,4.201050282E0,8.944950104E0,9.889930477E0
1.044606652E0,3.490500152E-1,4.201050282E0,8.944950104E0,9.888518177E0
1.046570001E0,3.490500152E-1,4.239000320E0,8.983950615E0,9.939936030E0
1.048533303E0,3.870000243E-1,4.276950359E0,8.944950104E0,9.922409272E0
1.050496388E0,3.490500152E-1,4.276950359E0,8.869050026E0,9.852623440E0
1.052459536E0,3.490500152E-1,4.239000320E0,8.944950104E0,9.904700500E0
1.054422420E0,3.870000243E-1,4.276950359E0,8.944950104E0,9.922409272E0
1.056385382E0,3.870000243E-1,4.239000320E0,8.944950104E0,9.906110493E0
1.058348968E0,3.490500152E-1,4.276950359E0,8.983950615E0,9.956179435E0
1.060312375E0,3.870000243E-1,4.239000320E0,8.944950104E0,9.906110493E0
1.062275442E0,3.870000243E-1,4.276950359E0,8.944950104E0,9.922409272E0
1.064238608E0,3.490500152E-1,4.239000320E0,8.944950104E0,9.904700500E0
1.066201625E0,4.260000288E-1,4.315950394E0,8.983950615E0,9.975984787E0
1.068164685E0,3.870000243E-1,4.239000320E0,8.983950615E0,9.941341026E0
1.070127783E0,3.870000243E-1,4.239000320E0,8.907000542E0,9.871856532E0
1.072090856E0,3.490500152E-1,4.276950359E0,8.944950104E0,9.921001595E0
1.074054114E0,3.870000243E-1,4.276950359E0,8.944950104E0,9.922409272E0
1.076017317E0,3.870000243E-1,4.276950359E0,8.983950615E0,9.957582139E0
1.077980238E0,3.870000243E-1,4.276950359E0,8.983950615E0,9.957582139E0
1.079943242E0,3.870000243E-1,4.239000320E0,9.022050858E0,9.975785403E0
1.081906711E0,3.490500152E-1,4.276950359E0,8.983950615E0,9.956179435E0
1.083870030E0,3.109500110E-1,4.276950359E0,8.983950615E0,9.954916521E0
1.085833067E0,3.109500110E-1,4.239000320E0,9.022050858E0,9.973124651E0
1.087796186E0,3.490500152E-1,4.315950394E0,9.022050858E0,1.000733058E1
1.089759975E0,3.490500152E-1,4.276950359E0,9.060000420E0,1.002485650E1
1.091723568E0,3.490500152E-1,4.276950359E0,9.060000420E0,1.002485650E1
1.093686697E0,3.490500152E-1,4.276950359E0,8.983950615E0,9.956179435E0
1.095649959E0,2.719500065E-1,4.276950359E0,9.060000420E0,1.002246820E1
1.097613049E0,3.109500110E-1,4.276950359E0,9.022050858E0,9.989314089E0
1.099576190E0,2.719500065E-1,4.239000320E0,8.983950615E0,9.937527317E0
1.101539076E0,3.109500110E-1,4.276950359E0,9.022050858E0,9.989314089E0
1.103502036E0,3.109500110E-1,4.239000320E0,9.022050858E0,9.973124651E0
1.105465118E0,2.719500065E-1,4.276950359E0,9.022050858E0,9.988176153E0
1.107428174E0,3.109500110E-1,4.239000320E0,9.022050858E0,9.973124651E0
1.109391435E0,2.719500065E-1,4.276950359E0,9.060000420E0,1.002246820E1
1.111354635E0,2.719500065E-1,4.239000320E0,8.983950615E0,9.937527317E0
1.113318006E0,3.109500110E-1,4.239000320E0,9.022050858E0,9.973124651E0
1.115281327E0,2.719500065E-1,4.276950359E0,9.060000420E0,1.002246820E1
1.117244689E0,2.340000123E-1,4.276950359E0,9.060000420E0,1.002151026E1
1.119208063E0,3.109500110E-1,4.239000320E0,9.060000420E0,1.000746827E1
1.121171494E0,2.340000123E-1,4.239000320E0,9.060000420E0,1.000537292E1
1.123134909E0,2.719500065E-1,4.276950359E0,9.060000420E0,1.002246820E1
1.125098064E0,2.719500065E-1,4.239000320E0,9.022050858E0,9.971984868E0
1.127061295E0,3.109500110E-1,4.276950359E0,9.098999977E0,1.005886648E1
1.129024590E0,3.109500110E-1,4.239000320E0,9.060000420E0,1.000746827E1
1.130987852E0,3.490500152E-1,4.239000320E0,9.060000420E0,1.000872456E1
1.132951258E0,3.109500110E-1,4.201050282E0,9.060000420E0,9.991452396E0
1.134914621E0,3.109500110E-1,4.239000320E0,9.098999977E0,1.004278916E1
1.136877965E0,3.109500110E-1,4.239000320E0,9.060000420E0,1.000746827E1
1.138841315E0,2.719500065E-1,4.239000320E0,9.022050858E0,9.971984868E0
1.140804700E0,3.109500110E-1,4.239000320E0,9.060000420E0,1.000746827E1
1.142768078E0,3.109500110E-1,4.201050282E0,9.060000420E0,9.991452396E0
1.144731329E0,2.719500065E-1,4.239000320E0,8.983950615E0,9.937527317E0
1.146694618E0,3.490500152E-1,4.276950359E0,9.060000420E0,1.002485650E1
1.148657839E0,3.109500110E-1,4.201050282E0,9.022050858E0,9.957053533E0
1.150621080E0,3.109500110E-1,4.239000320E0,8.983950615E0,9.938671052E0
1.152584443E0,3.109500110E-1,4.276950359E0,9.022050858E0,9.989314089E0
1.154547770E0,3.109500110E-1,4.239000320E0,9.022050858E0,9.973124651E0
1.156510850E0,3.490500152E-1,4.276950359E0,9.022050858E0,9.990572655E0
1.158474003E0,3.109500110E-1,4.276950359E0,8.983950615E0,9.954916521E0
1.160437067E0,2.719500065E-1,4.276950359E0,8.983950615E0,9.953774653E0
1.162400157E0,3.109500110E-1,4.239000320E0,8.983950615E0,9.938671052E0
1.164363425E0,3.109500110E-1,4.239000320E0,8.983950615E0,9.938671052E0
1.166326630E0,3.109500110E-1,4.239000320E0,8.944950104E0,9.903431021E0
1.168289866E0,3.109500110E-1,4.201050282E0,8.907000542E0,9.852927079E0
1.170253092E0,3.490500152E-1,4.276950359E0,8.983950615E0,9.956179435E0
1.172216504E0,3.109500110E-1,4.276950359E0,8.944950104E0,9.919734202E0
1.174179861E0,3.109500110E-1,4.239000320E0,8.983950615E0,9.938671052E0
1.176143040E0,3.109500110E-1,4.239000320E0,8.983950615E0,9.938671052E0
1.178106262E0,3.109500110E-1,4.276950359E0,8.944950104E0,9.919734202E0
1.180069538E0,3.109500110E-1,4.276950359E0,8.907000542E0,9.885527449E0
1.182032798E0,3.109500110E-1,4.239000320E0,8.907000542E0,9.869167760E0
1.183996025E0,3.109500110E-1,4.276950359E0,8.907000542E0,9.885527449E0
1.185959262E0,3.109500110E-1,4.276950359E0,8.944950104E0,9.919734202E0
1.187922442E0,3.109500110E-1,4.239000320E0,8.944950104E0,9.903431021E0
1.189885642E0,3.109500110E-1,4.239000320E0,8.907000542E0,9.869167760E0
1.191848922E0,3.109500110E-1,4.276950359E0,8.907000542E0,9.885527449E0
1.193812179E0,3.109500110E-1,4.276950359E0,8.944950104E0,9.919734202E0
1.195775406E0,3.109500110E-1,4.276950359E0,8.944950104E0,9.919734202E0
1.197738642E0,3.490500152E-1,4.276950359E0,8.944950104E0,9.921001595E0
1.199702181E0,3.109500110E-1,4.239000320E0,8.944950104E0,9.903431021E0
1.201665635E0,3.490500152E-1,4.239000320E0,8.944950104E0,9.904700500E0
1.203628829E0,3.109500110E-1,4.239000320E0,8.907000542E0,9.869167760E0
1.205592099E0,3.490500152E-1,4.315950394E0,8.907000542E0,9.903732749E0
1.207555502E0,3.109500110E-1,4.276950359E0,8.944950104E0,9.919734202E0
1.209518866E0,3.490500152E-1,4.315950394E0,8.907000542E0,9.903732749E0
1.211482473E0,3.109500110E-1,4.276950359E0,8.944950104E0,9.919734202E0
1.213445981E0,3.870000243E-1,4.276950359E0,8.907000542E0,9.888211772E0
1.215409345E0,3.109500110E-1,4.276950359E0,8.944950104E0,9.919734202E0
1.217372752E0,3.109500110E-1,4.276950359E0,8.944950104E0,9.919734202E0
1.219335817E0,3.490500152E-1,4.239000320E0,8.944950104E0,9.904700500E0
1.221298983E0,3.490500152E-1,4.239000320E0,8.983950615E0,9.939936030E0
1.223262354E0,3.490500152E-1,4.276950359E0,8.907000542E0,9.886799226E0
1.225225668E0,3.109500110E-1,4.239000320E0,8.907000542E0,9.869167760E0
1.227189065E0,3.109500110E-1,4.239000320E0,8.907000542E0,9.869167760E0
1.229152438E0,3.490500152E-1,4.276950359E0,8.944950104E0,9.921001595E0
1.231116005E0,3.490500152E-1,4.276950359E0,9.022050858E0,9.990572655E0
1.233079515E0,3.490500152E-1,4.276950359E0,8.944950104E0,9.921001595E0
1.235042913E0,3.109500110E-1,4.239000320E0,8.944950104E0,9.903431021E0
1.237006320E0,3.870000243E-1,4.239000320E0,8.944950104E0,9.906110493E0
1.238969701E0,3.490500152E-1,4.239000320E0,8.983950615E0,9.939936030E0
1.240933089E0,3.490500152E-1,4.276950359E0,8.983950615E0,9.956179435E0
1.242896697E0,3.490500152E-1,4.239000320E0,8.983950615E0,9.939936030E0
1.244860241E0,3.109500110E-1,4.239000320E0,8.907000542E0,9.869167760E0
1.246823618E0,3.490500152E-1,4.276950359E0,8.944950104E0,9.921001595E0
1.248787031E0,3.109500110E-1,4.276950359E0,8.983950615E0,9.954916521E0
1.250750411E0,3.490500152E-1,4.276950359E0,8.907000542E0,9.886799226E0
1.252713800E0,3.490500152E-1,4.276950359E0,8.907000542E0,9.886799226E0
1.254677184E0,3.490500152E-1,4.276950359E0,8.944950104E0,9.921001595E0
1.256640570E0,3.490500152E-1,4.276950359E0,8.944950104E0,9.921001595E0
1.258604134E0,3.109500110E-1,4.276950359E0,8.944950104E0,9.919734202E0
1.260567645E0,3.490500152E-1,4.276950359E0,9.022050858E0,9.990572655E0
1.262531368E0,3.109500110E-1,4.276950359E0,8.983950615E0,9.954916521E0
1.264495029E0,3.490500152E-1,4.239000320E0,9.022050858E0,9.974385260E0
1.266458367E0,3.109500110E-1,4.239000320E0,9.022050858E0,9.973124651E0
1.268421800E0,2.719500065E-1,4.239000320E0,9.022050858E0,9.971984868E0
1.270385182E0,3.490500152E-1,4.276950359E0,9.022050858E0,9.990572655E0
1.272348575E0,3.109500110E-1,4.276950359E0,9.022050858E0,9.989314089E0
1.274311913E0,3.109500110E-1,4.276950359E0,9.022050858E0,9.989314089E0
1.276275267E0,3.109500110E-1,4.239000320E0,9.060000420E0,1.000746827E1
1.278238161E0,3.109500110E-1,4.276950359E0,9.060000420E0,1.002360224E1
1.280201190E0,3.490500152E-1,4.276950359E0,9.136950493E0,1.009445415E1
1.282164293E0,3.109500110E-1,4.239000320E0,9.060000420E0,1.000746827E1
1.284127361E0,3.490500152E-1,4.239000320E0,9.098999977E0,1.004404103E1
1.286090980E0,3.490500152E-1,4.276950359E0,9.098999977E0,1.006011634E1
1.288054438E0,3.490500152E-1,4.276950359E0,9.136950493E0,1.009445415E1
1.290017990E0,3.109500110E-1,4.239000320E0,9.098999977E0,1.004278916E1
1.291981515E0,3.490500152E-1,4.276950359E0,9.060000420E0,1.002485650E1
1.293945210E0,3.490500152E-1,4.239000320E0,9.060000420E0,1.000872456E1
1.295908841E0,3.109500110E-1,4.239000320E0,9.136950493E0,1.007718601E1
1.297872365E0,3.109500110E-1,4.201050282E0,9.136950493E0,1.006128112E1
1.299835920E0,3.109500110E-1,4.239000320E0,9.098999977E0,1.004278916E1
1.301799456E0,3.490500152E-1,4.239000320E0,9.098999977E0,1.004404103E1
1.303762997E0,3.490500152E-1,4.276950359E0,9.175050735E0,1.012895337E1
1.305726583E0,3.109500110E-1,4.239000320E0,9.136950493E0,1.007718601E1
1.307690122E0,3.490500152E-1,4.239000320E0,9.098999977E0,1.004404103E1
1.309653525E0,3.490500152E-1,4.201050282E0,9.098999977E0,1.002808356E1
1.311616968E0,2.719500065E-1,4.239000320E0,9.060000420E0,1.000633240E1
1.313580477E0,3.870000243E-1,4.239000320E0,9.060000420E0,1.001011990E1
1.315543966E0,3.490500152E-1,4.239000320E0,9.060000420E0,1.000872456E1
1.317507675E0,3.870000243E-1,4.239000320E0,9.098999977E0,1.004543147E1
1.319471332E0,3.870000243E-1,4.276950359E0,9.060000420E0,1.002624960E1
1.321435076E0,3.870000243E-1,4.276950359E0,9.136950493E0,1.009583764E1
1.323398794E0,3.870000243E-1,4.276950359E0,9.022050858E0,9.991970530E0
1.325362258E0,3.490500152E-1,4.239000320E0,9.022050858E0,9.974385260E0
1.327325796E0,3.870000243E-1,4.239000320E0,9.022050858E0,9.975785403E0
1.329289343E0,3.490500152E-1,4.276950359E0,9.022050858E0,9.990572655E0
1.331252881E0,3.490500152E-1,4.239000320E0,9.060000420E0,1.000872456E1
1.333216419E0,3.870000243E-1,4.239000320E0,9.060000420E0,1.001011990E1
1.335179957E0,4.260000288E-1,4.239000320E0,9.022050858E0,9.977374475E0
1.337143316E0,3.870000243E-1,4.239000320E0,9.022050858E0,9.975785403E0
1.339106728E0,3.870000243E-1,4.239000320E0,9.022050858E0,9.975785403E0
1.341070148E0,3.490500152E-1,4.239000320E0,9.022050858E0,9.974385260E0
1.343033568E0,3.490500152E-1,4.239000320E0,9.060000420E0,1.000872456E1
1.344997082E0,3.870000243E-1,4.276950359E0,8.983950615E0,9.957582139E0
1.346960568E0,3.490500152E-1,4.239000320E0,8.983950615E0,9.939936030E0
1.348923756E0,4.260000288E-1,4.276950359E0,9.022050858E0,9.993557028E0
1.350887031E0,3.490500152E-1,4.276950359E0,9.022050858E0,9.990572655E0
1.352850228E0,3.870000243E-1,4.239000320E0,9.022050858E0,9.975785403E0
1.354813467E0,3.490500152E-1,4.239000320E0,9.022050858E0,9.974385260E0
1.356776740E0,3.109500110E-1,4.276950359E0,8.983950615E0,9.954916521E0
1.358740003E0,3.490500152E-1,4.239000320E0,9.022050858E0,9.974385260E0
1.360703589E0,3.870000243E-1,4.276950359E0,8.944950104E0,9.922409272E0
1.362667080E0,3.490500152E-1,4.239000320E0,8.983950615E0,9.939936030E0
1.364630418E0,3.109500110E-1,4.239000320E0,8.944950104E0,9.903431021E0
1.366593790E0,3.870000243E-1,4.239000320E0,8.983950615E0,9.941341026E0
1.368557041E0,3.870000243E-1,4.239000320E0,8.944950104E0,9.906110493E0
1.370520328E0,3.490500152E-1,4.239000320E0,8.944950104E0,9.904700500E0
1.372483863E0,3.490500152E-1,4.162050247E0,8.944950104E0,9.872012486E0
1.374447326E0,3.490500152E-1,4.239000320E0,8.944950104E0,9.904700500E0
1.376410733E0,3.870000243E-1,4.276950359E0,8.983950615E0,9.957582139E0
1.378374164E0,3.490500152E-1,4.239000320E0,9.022050858E0,9.974385260E0
1.380337361E0,3.870000243E-1,4.276950359E0,8.944950104E0,9.922409272E0
1.382300626E0,3.870000243E-1,4.239000320E0,9.022050858E0,9.975785403E0
1.384263626E0,3.490500152E-1,4.276950359E0,8.983950615E0,9.956179435E0
1.386226703E0,3.490500152E-1,4.239000320E0,8.944950104E0,9.904700500E0
1.388189669E0,3.870000243E-1,4.239000320E0,8.944950104E0,9.906110493E0
1.390152650E0,3.870000243E-1,4.239000320E0,8.983950615E0,9.941341026E0
1.392115878E0,4.260000288E-1,4.276950359E0,8.944950104E0,9.924006890E0
1.394079033E0,3.490500152E-1,4.276950359E0,8.944950104E0,9.921001595E0
1.396041962E0,3.490500152E-1,4.239000320E0,8.944950104E0,9.904700500E0
1.398004958E0,3.870000243E-1,4.276950359E0,8.944950104E0,9.922409272E0
1.399968354E0,3.490500152E-1,4.239000320E0,8.944950104E0,9.904700500E0
1.401931639E0,3.870000243E-1,4.239000320E0,8.869050026E0,9.837628835E0
1.403895221E0,3.490500152E-1,4.276950359E0,8.944950104E0,9.921001595E0
1.405858716E0,3.109500110E-1,4.239000320E0,8.907000542E0,9.869167760E0
1.407822083E0,3.490500152E-1,4.239000320E0,8.944950104E0,9.904700500E0
1.409785487E0,3.870000243E-1,4.315950394E0,8.907000542E0,9.905142880E0
1.411749013E0,3.490500152E-1,4.315950394E0,8.944950104E0,9.937876839E0
1.413712528E0,3.870000243E-1,4.276950359E0,8.944950104E0,9.922409272E0
1.415675891E0,3.870000243E-1,4.276950359E0,8.907000542E0,9.888211772E0
1.417639299E0,3.490500152E-1,4.239000320E0,8.944950104E0,9.904700500E0
1.419602545E0,3.109500110E-1,4.276950359E0,8.944950104E0,9.919734202E0
1.421565838E0,3.109500110E-1,4.315950394E0,8.907000542E0,9.902463146E0
1.423529029E0,3.109500110E-1,4.276950359E0,8.907000542E0,9.885527449E0
1.425492270E0,3.109500110E-1,4.239000320E0,8.944950104E0,9.903431021E0
1.427455679E0,3.109500110E-1,4.239000320E0,8.907000542E0,9.869167760E0
1.429419038E0,3.490500152E-1,4.315950394E0,8.907000542E0,9.903732749E0
1.431382742E0,3.870000243E-1,4.276950359E0,8.944950104E0,9.922409272E0
1.433346345E0,3.109500110E-1,4.276950359E0,8.944950104E0,9.919734202E0
1.435309909E0,3.490500152E-1,4.201050282E0,8.944950104E0,9.888518177E0
1.437273491E0,3.109500110E-1,4.239000320E0,9.022050858E0,9.973124651E0
1.439236842E0,3.109500110E-1,4.276950359E0,8.944950104E0,9.919734202E0
1.441200260E0,3.490500152E-1,4.276950359E0,8.944950104E0,9.921001595E0
1.443163594E0,3.490500152E-1,4.239000320E0,8.983950615E0,9.939936030E0
1.445126953E0,3.490500152E-1,4.276950359E0,9.022050858E0,9.990572655E0
1.447090332E0,3.109500110E-1,4.276950359E0,9.022050858E0,9.989314089E0
1.449053711E0,3.109500110E-1,4.239000320E0,9.022050858E0,9.973124651E0
1.451017142E0,3.109500110E-1,4.239000320E0,9.022050858E0,9.973124651E0
1.452980557E0,3.109500110E-1,4.239000320E0,9.060000420E0,1.000746827E1
1.454944072E0,3.109500110E-1,4.276950359E0,9.022050858E0,9.989314089E0
1.456907557E0,3.490500152E-1,4.315950394E0,8.983950615E0,9.972995155E0
1.458870776E0,3.109500110E-1,4.276950359E0,9.022050858E0,9.989314089E0
1.460834083E0,3.870000243E-1,4.276950359E0,8.944950104E0,9.922409272E0
1.462797075E0,3.490500152E-1,4.276950359E0,8.983950615E0,9.956179435E0
1.464760159E0,2.719500065E-1,4.276950359E0,8.983950615E0,9.953774653E0
1.466723595E0,3.490500152E-1,4.239000320E0,9.022050858E0,9.974385260E0
1.468686927E0,3.109500110E-1,4.276950359E0,9.022050858E0,9.989314089E0
1.470650191E0,3.109500110E-1,4.276950359E0,8.983950615E0,9.954916521E0
1.472613472E0,2.719500065E-1,4.276950359E0,8.944950104E0,9.918588284E0
1.474576694E0,3.109500110E-1,4.276950359E0,8.983950615E0,9.954916521E0
1.476539934E0,3.109500110E-1,4.239000320E0,8.983950615E0,9.938671052E0
1.478503163E0,2.719500065E-1,4.239000320E0,8.983950615E0,9.937527317E0
1.480466395E0,3.870000243E-1,4.239000320E0,8.983950615E0,9.941341026E0
1.482429557E0,3.870000243E-1,4.276950359E0,9.022050858E0,9.991970530E0
1.484392756E0,3.109500110E-1,4.239000320E0,8.983950615E0,9.938671052E0
1.486356171E0,3.490500152E-1,4.276950359E0,9.022050858E0,9.990572655E0
1.488319523E0,3.490500152E-1,4.276950359E0,8.983950615E0,9.956179435E0
1.490282958E0,3.870000243E-1,4.276950359E0,9.022050858E0,9.991970530E0
1.492246369E0,3.490500152E-1,4.239000320E0,8.983950615E0,9.939936030E0
1.494209692E0,3.490500152E-1,4.276950359E0,8.983950615E0,9.956179435E0
1.496173050E0,3.490500152E-1,4.239000320E0,9.022050858E0,9.974385260E0
1.498136304E0,3.490500152E-1,4.239000320E0,8.944950104E0,9.904700500E0
1.500099588E0,2.719500065E-1,4.239000320E0,9.022050858E0,9.971984868E0
1.502062449E0,3.109500110E-1,4.276950359E0,8.983950615E0,9.954916521E0
1.504025434E0,3.109500110E-1,4.239000320E0,8.983950615E0,9.938671052E0
1.505988341E0,3.109500110E-1,4.239000320E0,8.983950615E0,9.938671052E0
1.507951275E0,3.109500110E-1,4.239000320E0,9.060000420E0,1.000746827E1
1.509914197E0,2.719500065E-1,4.239000320E0,9.060000420E0,1.000633240E1
1.511877122E0,3.109500110E-1,4.239000320E0,9.022050858E0,9.973124651E0
1.513840539E0,3.109500110E-1,4.276950359E0,9.060000420E0,1.002360224E1
1.515803812E0,2.340000123E-1,4.276950359E0,9.098999977E0,1.005678184E1
1.517767036E0,2.719500065E-1,4.315950394E0,9.060000420E0,1.003917288E1
1.519730275E0,2.719500065E-1,4.276950359E0,9.060000420E0,1.002246820E1
1.521693549E0,3.109500110E-1,4.276950359E0,9.022050858E0,9.989314089E0
1.523656812E0,3.109500110E-1,4.315950394E0,9.060000420E0,1.004030504E1
1.525620217E0,2.340000123E-1,4.276950359E0,9.060000420E0,1.002151026E1
1.527583581E0,2.719500065E-1,4.315950394E0,9.022050858E0,1.000493809E1
1.529546600E0,2.719500065E-1,4.276950359E0,9.022050858E0,9.988176153E0
1.531509727E0,3.109500110E-1,4.276950359E0,9.022050858E0,9.989314089E0
1.533473109E0,3.109500110E-1,4.276950359E0,8.944950104E0,9.919734202E0
1.535436417E0,2.340000123E-1,4.276950359E0,8.944950104E0,9.917620316E0
1.537399681E0,3.109500110E-1,4.276950359E0,8.944950104E0,9.919734202E0
1.539362958E0,3.109500110E-1,4.239000320E0,8.944950104E0,9.903431021E0
1.541326331E0,3.109500110E-1,4.276950359E0,8.983950615E0,9.954916521E0
1.543289664E0,3.109500110E-1,4.239000320E0,8.983950615E0,9.938671052E0
1.545252698E0,3.490500152E-1,4.239000320E0,8.983950615E0,9.939936030E0
1.547215820E0,3.870000243E-1,4.239000320E0,8.869050026E0,9.837628835E0
1.549178934E0,3.490500152E-1,4.239000320E0,8.944950104E0,9.904700500E0
1.551142051E0,3.490500152E-1,4.239000320E0,8.944950104E0,9.904700500E0
1.553105106E0,3.490500152E-1,4.276950359E0,8.907000542E0,9.886799226E0
1.555068190E0,3.870000243E-1,4.201050282E0,8.944950104E0,9.889930477E0
1.557031399E0,4.639500082E-1,4.276950359E0,8.983950615E0,9.960869572E0
1.558994572E0,3.490500152E-1,4.239000320E0,8.983950615E0,9.939936030E0
1.560957813E0,3.870000243E-1,4.201050282E0,8.944950104E0,9.889930477E0
1.562921034E0,4.260000288E-1,4.239000320E0,8.944950104E0,9.907710740E0
1.564884147E0,3.870000243E-1,4.239000320E0,8.944950104E0,9.906110493E0
1.566847282E0,3.870000243E-1,4.239000320E0,8.944950104E0,9.906110493E0
1.568810483E0,3.870000243E-1,4.239000320E0,8.983950615E0,9.941341026E0
1.570773664E0,3.870000243E-1,4.239000320E0,8.907000542E0,9.871856532E0
1.572736904E0,3.870000243E-1,4.239000320E0,8.944950104E0,9.906110493E0
1.574700126E0,4.260000288E-1,4.239000320E0,8.983950615E0,9.942935602E0
1.576663523E0,3.490500152E-1,4.239000320E0,8.983950615E0,9.939936030E0
1.578626880E0,3.870000243E-1,4.239000320E0,8.983950615E0,9.941341026E0
1.580589910E0,3.490500152E-1,4.239000320E0,8.983950615E0,9.939936030E0
1.582553036E0,3.870000243E-1,4.276950359E0,8.983950615E0,9.957582139E0
1.584516464E0,3.490500152E-1,4.276950359E0,8.983950615E0,9.956179435E0
1.586479803E0,3.870000243E-1,4.276950359E0,8.944950104E0,9.922409272E0
1.588443186E0,3.490500152E-1,4.276950359E0,8.983950615E0,9.956179435E0
1.590406563E0,3.490500152E-1,4.276950359E0,8.944950104E0,9.921001595E0
1.592369949E0,3.109500110E-1,4.276950359E0,8.944950104E0,9.919734202E0
1.594333333E0,2.719500065E-1,4.315950394E0,8.944950104E0,9.935467627E0
1.596296763E0,3.109500110E-1,4.276950359E0,8.983950615E0,9.954916521E0
1.598260179E0,3.109500110E-1,4.276950359E0,8.983950615E0,9.954916521E0
1.600223547E0,3.870000243E-1,4.276950359E0,8.983950615E0,9.957582139E0
1.602186906E0,3.109500110E-1,4.315950394E0,9.022050858E0,1.000607412E1
1.604149980E0,2.719500065E-1,4.315950394E0,8.983950615E0,9.970594429E0
1.606113137E0,2.719500065E-1,4.315950394E0,8.983950615E0,9.970594429E0
1.608076559E0,3.109500110E-1,4.239000320E0,8.983950615E0,9.938671052E0
1.610039904E0,3.490500152E-1,4.276950359E0,9.060000420E0,1.002485650E1
1.612002979E0,3.490500152E-1,4.276950359E0,9.098999977E0,1.006011634E1
1.613966103E0,3.490500152E-1,4.276950359E0,9.022050858E0,9.990572655E0
1.615929486E0,3.870000243E-1,4.276950359E0,9.098999977E0,1.006150456E1
1.617892793E0,3.490500152E-1,4.239000320E0,9.060000420E0,1.000872456E1
1.619856371E0,3.490500152E-1,4.276950359E0,9.098999977E0,1.006011634E1
1.621819870E0,3.870000243E-1,4.276950359E0,9.136950493E0,1.009583764E1
1.623782857E0,3.490500152E-1,4.315950394E0,9.136950493E0,1.011103991E1
1.625746007E0,3.490500152E-1,4.239000320E0,9.098999977E0,1.004404103E1
1.627709071E0,3.490500152E-1,4.276950359E0,9.060000420E0,1.002485650E1
1.629672161E0,3.109500110E-1,4.239000320E0,9.098999977E0,1.004278916E1
1.631635280E0,3.870000243E-1,4.239000320E0,9.175050735E0,1.011436843E1
1.633598390E0,3.870000243E-1,4.239000320E0,9.136950493E0,1.007981930E1
1.635561646E0,3.490500152E-1,4.239000320E0,9.098999977E0,1.004404103E1
1.637524856E0,3.490500152E-1,4.239000320E0,9.060000420E0,1.000872456E1
1.639487866E0,3.870000243E-1,4.239000320E0,9.060000420E0,1.001011990E1
1.641450935E0,3.870000243E-1,4.239000320E0,9.136950493E0,1.007981930E1
1.643414193E0,3.490500152E-1,4.201050282E0,9.098999977E0,1.002808356E1
1.645377395E0,3.870000243E-1,4.239000320E0,9.136950493E0,1.007981930E1
1.647340510E0,3.490500152E-1,4.239000320E0,9.098999977E0,1.004404103E1
1.649303641E0,3.109500110E-1,4.162050247E0,9.098999977E0,1.001055207E1
1.651266843E0,3.490500152E-1,4.239000320E0,9.060000420E0,1.000872456E1
1.653230024E0,3.870000243E-1,4.201050282E0,9.098999977E0,1.002947621E1
1.655193309E0,3.490500152E-1,4.162050247E0,9.060000420E0,9.976377387E0
1.657156563E0,3.870000243E-1,4.239000320E0,9.098999977E0,1.004543147E1
1.659119906E0,3.109500110E-1,4.239000320E0,9.060000420E0,1.000746827E1
1.661083236E0,3.490500152E-1,4.201050282E0,9.060000420E0,9.992710693E0
1.663046630E0,4.260000288E-1,4.201050282E0,8.983950615E0,9.926815609E0
1.665010005E0,3.870000243E-1,4.162050247E0,9.060000420E0,9.977777252E0
1.666973212E0,3.870000243E-1,4.201050282E0,9.022050858E0,9.959718578E0
1.668936469E0,3.870000243E-1,4.201050282E0,9.022050858E0,9.959718578E0
1.670899709E0,3.870000243E-1,4.162050247E0,8.983950615E0,9.908773886E0
1.672862944E0,3.490500152E-1,4.201050282E0,9.022050858E0,9.958316176E0
1.674826039E0,3.870000243E-1,4.201050282E0,9.022050858E0,9.959718578E0
1.676789175E0,4.260000288E-1,4.201050282E0,8.983950615E0,9.926815609E0
1.678752016E0,3.870000243E-1,4.123950005E0,9.022050858E0,9.927443494E0
1.680714944E0,3.870000243E-1,4.201050282E0,9.022050858E0,9.959718578E0
1.682678065E0,3.870000243E-1,4.201050282E0,8.983950615E0,9.925218443E0
1.684641116E0,3.870000243E-1,4.201050282E0,9.022050858E0,9.959718578E0
1.686604018E0,3.870000243E-1,4.201050282E0,8.944950104E0,9.889930477E0
1.688566964E0,3.870000243E-1,4.201050282E0,8.907000542E0,9.855620282E0
1.690530288E0,3.870000243E-1,4.162050247E0,8.983950615E0,9.908773886E0
1.692493501E0,3.870000243E-1,4.239000320E0,8.907000542E0,9.871856532E0
1.694456661E0,3.490500152E-1,4.201050282E0,8.944950104E0,9.888518177E0
1.696419858E0,3.870000243E-1,4.162050247E0,8.869050026E0,9.804717214E0
1.698383274E0,3.870000243E-1,4.239000320E0,8.869050026E0,9.837628835E0
1.700346626E0,3.490500152E-1,4.201050282E0,8.944950104E0,9.888518177E0
1.702310016E0,3.870000243E-1,4.239000320E0,8.907000542E0,9.871856532E0
1.704273395E0,3.490500152E-1,4.201050282E0,8.944950104E0,9.888518177E0
1.706236406E0,3.490500152E-1,4.201050282E0,8.907000542E0,9.854203064E0
1.708199536E0,3.870000243E-1,4.201050282E0,8.944950104E0,9.889930477E0
1.710162604E0,3.490500152E-1,4.239000320E0,8.944950104E0,9.904700500E0
1.712125690E0,3.490500152E-1,4.276950359E0,8.944950104E0,9.921001595E0
1.714088585E0,3.490500152E-1,4.276950359E0,8.944950104E0,9.921001595E0
1.716051536E0,3.490500152E-1,4.239000320E0,8.983950615E0,9.939936030E0
1.718014508E0,3.490500152E-1,4.239000320E0,8.983950615E0,9.939936030E0
1.719977467E0,4.260000288E-1,4.239000320E0,8.983950615E0,9.942935602E0
1.721940385E0,3.109500110E-1,4.239000320E0,9.022050858E0,9.973124651E0
1.723903315E0,3.490500152E-1,4.201050282E0,8.983950615E0,9.923811165E0
1.725866416E0,3.870000243E-1,4.239000320E0,8.944950104E0,9.906110493E0
1.727829467E0,3.490500152E-1,4.276950359E0,9.060000420E0,1.002485650E1
1.729792499E0,3.490500152E-1,4.239000320E0,9.022050858E0,9.974385260E0
1.731755541E0,3.490500152E-1,4.239000320E0,9.022050858E0,9.974385260E0
1.733718489E0,3.490500152E-1,4.239000320E0,9.060000420E0,1.000872456E1
1.735681464E0,3.109500110E-1,4.276950359E0,9.022050858E0,9.989314089E0
1.737644557E0,3.109500110E-1,4.239000320E0,9.060000420E0,1.000746827E1
1.739607616E0,3.490500152E-1,4.276950359E0,9.060000420E0,1.002485650E1
1.741570477E0,3.109500110E-1,4.239000320E0,9.060000420E0,1.000746827E1
1.743533392E0,2.719500065E-1,4.239000320E0,9.060000420E0,1.000633240E1
1.745496676E0,3.109500110E-1,4.276950359E0,9.060000420E0,1.002360224E1
1.747459851E0,2.719500065E-1,4.239000320E0,9.022050858E0,9.971984868E0
1.749422778E0,2.719500065E-1,4.276950359E0,9.060000420E0,1.002246820E1
1.751385777E0,3.109500110E-1,4.276950359E0,9.098999977E0,1.005886648E1
1.753349166E0,2.719500065E-1,4.276950359E0,9.098999977E0,1.005773641E1
1.755312452E0,2.719500065E-1,4.276950359E0,9.060000420E0,1.002246820E1
1.757275674E0,3.109500110E-1,4.315950394E0,9.060000420E0,1.004030504E1
1.759238915E0,2.719500065E-1,4.276950359E0,9.060000420E0,1.002246820E1
1.761201828E0,2.719500065E-1,4.315950394E0,9.098999977E0,1.007438262E1
1.763164838E0,2.719500065E-1,4.276950359E0,9.098999977E0,1.005773641E1
1.765127771E0,2.719500065E-1,4.276950359E0,8.983950615E0,9.953774653E0
1.767090709E0,3.109500110E-1,4.315950394E0,9.060000420E0,1.004030504E1
1.769053943E0,3.109500110E-1,4.315950394E0,9.060000420E0,1.004030504E1
1.771017091E0,2.340000123E-1,4.315950394E0,9.098999977E0,1.007342962E1
1.772980336E0,2.719500065E-1,4.315950394E0,9.060000420E0,1.003917288E1
1.774943553E0,2.340000123E-1,4.315950394E0,9.060000420E0,1.003821655E1
1.776906602E0,3.109500110E-1,4.315950394E0,9.098999977E0,1.007551082E1
1.778869704E0,2.719500065E-1,4.315950394E0,9.098999977E0,1.007438262E1
1.780832641E0,1.960500032E-1,4.315950394E0,9.060000420E0,1.003740360E1
1.782795627E0,2.719500065E-1,4.315950394E0,9.098999977E0,1.007438262E1
1.784758898E0,3.109500110E-1,4.315950394E0,9.060000420E0,1.004030504E1
1.786722086E0,2.719500065E-1,4.276950359E0,9.060000420E0,1.002246820E1
1.788685150E0,2.719500065E-1,4.315950394E0,9.098999977E0,1.007438262E1
1.790648247E0,2.340000123E-1,4.276950359E0,9.060000420E0,1.002151026E1
1.792611455E0,2.719500065E-1,4.276950359E0,9.098999977E0,1.005773641E1
1.794574630E0,3.109500110E-1,4.276950359E0,9.098999977E0,1.005886648E1
1.796537556E0,2.719500065E-1,4.315950394E0,9.060000420E0,1.003917288E1
1.798500555E0,2.719500065E-1,4.276950359E0,9.060000420E0,1.002246820E1
1.800464111E0,2.719500065E-1,4.276950359E0,9.098999977E0,1.005773641E1
1.802427524E0,2.719500065E-1,4.315950394E0,9.060000420E0,1.003917288E1
1.804390724E0,2.340000123E-1,4.239000320E0,9.060000420E0,1.000537292E1
1.806353987E0,3.109500110E-1,4.276950359E0,9.022050858E0,9.989314089E0
1.808317212E0,3.109500110E-1,4.276950359E0,9.022050858E0,9.989314089E0
1.810280449E0,2.719500065E-1,4.276950359E0,9.022050858E0,9.988176153E0
1.812243746E0,3.109500110E-1,4.276950359E0,8.983950615E0,9.954916521E0
1.814207009E0,2.719500065E-1,4.276950359E0,8.983950615E0,9.953774653E0
1.816170236E0,3.109500110E-1,4.201050282E0,8.983950615E0,9.922544131E0
1.818133473E0,3.109500110E-1,4.239000320E0,9.022050858E0,9.973124651E0
1.820096477E0,3.109500110E-1,4.276950359E0,8.944950104E0,9.919734202E0
1.822059550E0,2.719500065E-1,4.201050282E0,9.022050858E0,9.955911910E0
1.824022599E0,3.490500152E-1,4.239000320E0,8.983950615E0,9.939936030E0
1.825985674E0,2.719500065E-1,4.201050282E0,8.983950615E0,9.921398537E0
1.827948751E0,3.490500152E-1,4.201050282E0,8.944950104E0,9.888518177E0
1.829911828E0,3.490500152E-1,4.239000320E0,8.983950615E0,9.939936030E0
1.831874545E0,3.490500152E-1,4.201050282E0,8.983950615E0,9.923811165E0
1.833837368E0,3.490500152E-1,4.201050282E0,8.983950615E0,9.923811165E0
1.835800532E0,3.490500152E-1,4.239000320E0,9.022050858E0,9.974385260E0
1.837763596E0,3.490500152E-1,4.201050282E0,8.944950104E0,9.888518177E0
1.839726631E0,3.490500152E-1,4.239000320E0,8.907000542E0,9.870441646E0
1.841689675E0,3.490500152E-1,4.201050282E0,8.983950615E0,9.923811165E0
1.843652757E0,3.490500152E-1,4.239000320E0,8.983950615E0,9.939936030E0
1.845615827E0,3.490500152E-1,4.239000320E0,8.983950615E0,9.939936030E0
1.847578786E0,3.490500152E-1,4.239000320E0,8.983950615E0,9.939936030E0
1.849541767E0,3.870000243E-1,4.201050282E0,9.022050858E0,9.959718578E0
1.851504814E0,3.109500110E-1,4.239000320E0,8.944950104E0,9.903431021E0
1.853467842E0,3.109500110E-1,4.239000320E0,8.944950104E0,9.903431021E0
1.855431107E0,3.490500152E-1,4.239000320E0,8.944950104E0,9.904700500E0
1.857394303E0,3.490500152E-1,4.276950359E0,8.944950104E0,9.921001595E0
1.859357170E0,3.870000243E-1,4.239000320E0,8.983950615E0,9.941341026E0
1.861320141E0,3.870000243E-1,4.276950359E0,8.983950615E0,9.957582139E0
1.863283461E0,3.870000243E-1,4.276950359E0,8.944950104E0,9.922409272E0
1.865246678E0,3.870000243E-1,4.276950359E0,8.907000542E0,9.888211772E0
1.867209687E0,3.490500152E-1,4.276950359E0,8.944950104E0,9.921001595E0
1.869172757E0,3.490500152E-1,4.239000320E0,8.907000542E0,9.870441646E0
1.871135825E0,3.870000243E-1,4.276950359E0,8.944950104E0,9.922409272E0
1.873098900E0,3.870000243E-1,4.276950359E0,8.944950104E0,9.922409272E0
1.875062157E0,3.870000243E-1,4.276950359E0,8.944950104E0,9.922409272E0
1.877025361E0,4.260000288E-1,4.239000320E0,8.907000542E0,9.873462330E0
1.878988597E0,3.490500152E-1,4.276950359E0,8.944950104E0,9.921001595E0
1.880951823E0,3.870000243E-1,4.276950359E0,8.907000542E0,9.888211772E0
1.882915073E0,3.109500110E-1,4.276950359E0,8.907000542E0,9.885527449E0
1.884878303E0,3.490500152E-1,4.239000320E0,8.944950104E0,9.904700500E0
1.886841220E0,3.109500110E-1,4.276950359E0,8.907000542E0,9.885527449E0
1.888804228E0,3.870000243E-1,4.239000320E0,8.907000542E0,9.871856532E0
1.890767451E0,3.490500152E-1,4.276950359E0,8.907000542E0,9.886799226E0
1.892730611E0,3.490500152E-1,4.239000320E0,8.944950104E0,9.904700500E0
1.894693873E0,3.870000243E-1,4.276950359E0,8.944950104E0,9.922409272E0
1.896657092E0,3.490500152E-1,4.276950359E0,8.944950104E0,9.921001595E0
1.898620370E0,3.490500152E-1,4.315950394E0,8.944950104E0,9.937876839E0
1.900583630E0,3.870000243E-1,4.276950359E0,8.983950615E0,9.957582139E0
1.902546857E0,3.490500152E-1,4.239000320E0,8.983950615E0,9.939936030E0
1.904510094E0,3.109500110E-1,4.276950359E0,8.983950615E0,9.954916521E0
1.906473323E0,3.870000243E-1,4.239000320E0,9.022050858E0,9.975785403E0
1.908436555E0,3.109500110E-1,4.239000320E0,9.022050858E0,9.973124651E0
1.910399965E0,3.109500110E-1,4.276950359E0,9.022050858E0,9.989314089E0
1.912363322E0,3.870000243E-1,4.276950359E0,9.060000420E0,1.002624960E1
1.914326712E0,3.490500152E-1,4.276950359E0,9.022050858E0,9.990572655E0
1.916290092E0,3.109500110E-1,4.201050282E0,9.022050858E0,9.957053533E0
1.918253242E0,3.490500152E-1,4.276950359E0,9.022050858E0,9.990572655E0
1.920216467E0,3.490500152E-1,4.239000320E0,9.022050858E0,9.974385260E0
1.922179519E0,3.490500152E-1,4.276950359E0,9.022050858E0,9.990572655E0
1.924142621E0,3.109500110E-1,4.276950359E0,9.060000420E0,1.002360224E1
1.926105694E0,2.719500065E-1,4.201050282E0,9.060000420E0,9.990314704E0
1.928068775E0,3.490500152E-1,4.276950359E0,9.022050858E0,9.990572655E0
1.930031846E0,3.490500152E-1,4.239000320E0,9.060000420E0,1.000872456E1
1.931994924E0,3.490500152E-1,4.276950359E0,9.060000420E0,1.002485650E1
1.933958001E0,3.109500110E-1,4.239000320E0,9.060000420E0,1.000746827E1
1.935921078E0,3.490500152E-1,4.239000320E0,9.060000420E0,1.000872456E1
1.937884155E0,3.109500110E-1,4.239000320E0,9.022050858E0,9.973124651E0
1.939847232E0,2.719500065E-1,4.239000320E0,9.060000420E0,1.000633240E1
1.941810170E0,3.490500152E-1,4.276950359E0,9.060000420E0,1.002485650E1
1.943773151E0,3.490500152E-1,4.276950359E0,9.060000420E0,1.002485650E1
1.945736243E0,3.490500152E-1,4.201050282E0,9.098999977E0,1.002808356E1
1.947699302E0,3.109500110E-1,4.239000320E0,9.098999977E0,1.004278916E1
1.949662382E0,3.490500152E-1,4.276950359E0,9.022050858E0,9.990572655E0
1.951625456E0,3.109500110E-1,4.239000320E0,9.060000420E0,1.000746827E1
1.953588519E0,3.109500110E-1,4.239000320E0,9.060000420E0,1.000746827E1
1.955551595E0,3.109500110E-1,4.201050282E0,9.136950493E0,1.006128112E1
1.957514628E0,3.109500110E-1,4.239000320E0,9.136950493E0,1.007718601E1
1.959477674E0,3.109500110E-1,4.239000320E0,9.136950493E0,1.007718601E1
1.961440981E0,3.109500110E-1,4.239000320E0,9.098999977E0,1.004278916E1
1.963404211E0,2.719500065E-1,4.276950359E0,9.060000420E0,1.002246820E1
1.965367248E0,3.109500110E-1,4.239000320E0,9.098999977E0,1.004278916E1
1.967330352E0,3.490500152E-1,4.239000320E0,9.098999977E0,1.004404103E1
1.969293919E0,3.109500110E-1,4.239000320E0,9.098999977E0,1.004278916E1
1.971257350E0,3.109500110E-1,4.201050282E0,9.060000420E0,9.991452396E0
1.973220412E0,3.109500110E-1,4.239000320E0,9.060000420E0,1.000746827E1
1.975183583E0,3.490500152E-1,4.201050282E0,9.022050858E0,9.958316176E0
1.977146944E0,3.109500110E-1,4.239000320E0,9.022050858E0,9.973124651E0
1.979110259E0,3.870000243E-1,4.276950359E0,9.022050858E0,9.991970530E0
1.981073341E0,3.490500152E-1,4.276950359E0,9.060000420E0,1.002485650E1
1.983036491E0,3.109500110E-1,4.239000320E0,9.022050858E0,9.973124651E0
1.984999735E0,3.109500110E-1,4.239000320E0,9.022050858E0,9.973124651E0
1.986962951E0,3.109500110E-1,4.239000320E0,9.098999977E0,1.004278916E1
1.988926199E0,2.719500065E-1,4.276950359E0,9.022050858E0,9.988176153E0
1.990889427E0,3.109500110E-1,4.239000320E0,8.983950615E0,9.938671052E0
1.992852659E0,3.490500152E-1,4.239000320E0,9.022050858E0,9.974385260E0
1.994815889E0,3.490500152E-1,4.239000320E0,8.983950615E0,9.939936030E0
1.996779120E0,3.109500110E-1,4.239000320E0,9.022050858E0,9.973124651E0
1.998742351E0,3.490500152E-1,4.201050282E0,8.944950104E0,9.888518177E0
2.000705897E0,3.490500152E-1,4.239000320E0,8.983950615E0,9.939936030E0
2.002669351E0,3.109500110E-1,4.239000320E0,8.907000542E0,9.869167760E0
2.004632544E0,3.490500152E-1,4.239000320E0,8.944950104E0,9.904700500E0
2.006595814E0,3.109500110E-1,4.239000320E0,8.907000542E0,9.869167760E0
2.008559038E0,3.109500110E-1,4.201050282E0,8.944950104E0,9.887246621E0
2.010522276E0,3.109500110E-1,4.276950359E0,8.944950104E0,9.919734202E0
2.012485729E0,2.719500065E-1,4.239000320E0,8.907000542E0,9.868015969E0
2.014449119E0,3.870000243E-1,4.276950359E0,8.944950104E0,9.922409272E0
2.016412459E0,3.870000243E-1,4.239000320E0,8.907000542E0,9.871856532E0
2.018375813E0,3.109500110E-1,4.239000320E0,8.907000542E0,9.869167760E0
2.020339023E0,3.870000243E-1,4.276950359E0,8.983950615E0,9.957582139E0
2.022302275E0,3.490500152E-1,4.239000320E0,8.983950615E0,9.939936030E0
2.024265333E0,3.490500152E-1,4.276950359E0,8.944950104E0,9.921001595E0
2.026228472E0,3.490500152E-1,4.276950359E0,8.983950615E0,9.956179435E0
2.028191718E0,3.490500152E-1,4.239000320E0,8.944950104E0,9.904700500E0
2.030154932E0,3.490500152E-1,4.239000320E0,8.983950615E0,9.939936030E0
2.032118481E0,3.490500152E-1,4.276950359E0,9.022050858E0,9.990572655E0
2.034081932E0,3.490500152E-1,4.239000320E0,8.944950104E0,9.904700500E0
2.036044991E0,3.870000243E-1,4.239000320E0,8.907000542E0,9.871856532E0
2.038008165E0,3.109500110E-1,4.239000320E0,8.944950104E0,9.903431021E0
2.039971585E0,3.109500110E-1,4.239000320E0,8.983950615E0,9.938671052E0
2.041934932E0,3.109500110E-1,4.276950359E0,9.022050858E0,9.989314089E0
2.043898323E0,3.490500152E-1,4.239000320E0,8.983950615E0,9.939936030E0
2.045861701E0,3.870000243E-1,4.276950359E0,8.983950615E0,9.957582139E0
2.047825106E0,3.870000243E-1,4.276950359E0,9.022050858E0,9.991970530E0
2.049788489E0,3.870000243E-1,4.276950359E0,9.022050858E0,9.991970530E0
2.051751695E0,3.490500152E-1,4.276950359E0,8.983950615E0,9.956179435E0
2.053714953E0,3.109500110E-1,4.239000320E0,9.060000420E0,1.000746827E1
2.055678493E0,3.490500152E-1,4.276950359E0,9.022050858E0,9.990572655E0
2.057641951E0,3.490500152E-1,4.239000320E0,8.983950615E0,9.939936030E0
2.059604936E0,3.490500152E-1,4.276950359E0,9.022050858E0,9.990572655E0
2.061568079E0,3.109500110E-1,4.239000320E0,9.022050858E0,9.973124651E0
2.063531504E0,3.490500152E-1,4.239000320E0,8.983950615E0,9.939936030E0
2.065494846E0,3.109500110E-1,4.276950359E0,9.022050858E0,9.989314089E0
2.067458104E0,2.719500065E-1,4.276950359E0,8.983950615E0,9.953774653E0
2.069421387E0,3.490500152E-1,4.276950359E0,8.983950615E0,9.956179435E0
2.071384821E0,3.109500110E-1,4.276950359E0,8.983950615E0,9.954916521E0
2.073348187E0,2.719500065E-1,4.276950359E0,8.983950615E0,9.953774653E0
2.075311755E0,2.719500065E-1,4.276950359E0,9.022050858E0,9.988176153E0
2.077275264E0,3.109500110E-1,4.315950394E0,9.022050858E0,1.000607412E1
2.079238628E0,3.109500110E-1,4.276950359E0,9.022050858E0,9.989314089E0
2.081202035E0,3.109500110E-1,4.276950359E0,8.983950615E0,9.954916521E0
2.083165416E0,3.109500110E-1,4.239000320E0,8.983950615E0,9.938671052E0
2.085128804E0,3.109500110E-1,4.315950394E0,9.022050858E0,1.000607412E1
2.087092188E0,2.719500065E-1,4.315950394E0,8.983950615E0,9.970594429E0
2.089055574E0,2.719500065E-1,4.276950359E0,9.022050858E0,9.988176153E0
2.091018913E0,2.719500065E-1,4.276950359E0,9.022050858E0,9.988176153E0
2.092982266E0,3.490500152E-1,4.276950359E0,8.983950615E0,9.956179435E0
2.094945825E0,3.109500110E-1,4.239000320E0,9.022050858E0,9.973124651E0
2.096909331E0,3.109500110E-1,4.315950394E0,9.022050858E0,1.000607412E1
2.098873055E0,3.109500110E-1,4.276950359E0,9.060000420E0,1.002360224E1
2.100836715E0,3.490500152E-1,4.276950359E0,8.983950615E0,9.956179435E0
2.102800054E0,3.490500152E-1,4.276950359E0,9.060000420E0,1.002485650E1
2.104763487E0,3.490500152E-1,4.276950359E0,9.060000420E0,1.002485650E1
2.106727267E0,3.870000243E-1,4.276950359E0,9.098999977E0,1.006150456E1
2.108690946E0,3.490500152E-1,4.239000320E0,9.022050858E0,9.974385260E0
2.110654461E0,3.490500152E-1,4.239000320E0,9.098999977E0,1.004404103E1
2.112618025E0,3.109500110E-1,4.276950359E0,9.060000420E0,1.002360224E1
2.114581334E0,3.490500152E-1,4.239000320E0,9.060000420E0,1.000872456E1
2.116544717E0,3.490500152E-1,4.239000320E0,9.060000420E0,1.000872456E1
2.118507962E0,3.870000243E-1,4.276950359E0,9.022050858E0,9.991970530E0
2.120471251E0,3.490500152E-1,4.239000320E0,9.098999977E0,1.004404103E1
2.122434651E0,3.870000243E-1,4.239000320E0,9.022050858E0,9.975785403E0
2.124398018E0,3.870000243E-1,4.201050282E0,9.022050858E0,9.959718578E0
2.126361541E0,3.490500152E-1,4.239000320E0,8.983950615E0,9.939936030E0
2.128325018E0,3.870000243E-1,4.239000320E0,8.983950615E0,9.941341026E0
2.130288627E0,4.260000288E-1,4.276950359E0,8.983950615E0,9.959174115E0
2.132252187E0,3.490500152E-1,4.276950359E0,9.022050858E0,9.990572655E0
2.134215857E0,3.490500152E-1,4.239000320E0,8.983950615E0,9.939936030E0
2.136179495E0,3.109500110E-1,4.239000320E0,8.983950615E0,9.938671052E0
2.138143241E0,3.870000243E-1,4.276950359E0,8.944950104E0,9.922409272E0
2.140106956E0,3.490500152E-1,4.276950359E0,8.983950615E0,9.956179435E0
2.142070425E0,3.490500152E-1,4.276950359E0,8.944950104E0,9.921001595E0
2.144033963E0,3.490500152E-1,4.239000320E0,8.907000542E0,9.870441646E0
2.145997546E0,3.870000243E-1,4.239000320E0,8.944950104E0,9.906110493E0
2.147961115E0,3.109500110E-1,4.276950359E0,8.983950615E0,9.954916521E0
2.149924649E0,4.260000288E-1,4.239000320E0,8.983950615E0,9.942935602E0
2.151888194E0,3.490500152E-1,4.276950359E0,8.983950615E0,9.956179435E0
2.153851695E0,3.490500152E-1,4.276950359E0,8.907000542E0,9.886799226E0
2.155815203E0,3.109500110E-1,4.239000320E0,9.022050858E0,9.973124651E0
2.157778926E0,3.870000243E-1,4.315950394E0,8.983950615E0,9.974395494E0
2.159742586E0,3.870000243E-1,4.315950394E0,8.983950615E0,9.974395494E0
2.161705969E0,3.490500152E-1,4.276950359E0,8.983950615E0,9.956179435E0
2.163669434E0,3.870000243E-1,4.276950359E0,8.983950615E0,9.957582139E0
2.165632999E0,3.870000243E-1,4.239000320E0,9.022050858E0,9.975785403E0
2.167596524E0,3.490500152E-1,4.239000320E0,9.022050858E0,9.974385260E0
2.169559885E0,3.490500152E-1,4.276950359E0,9.022050858E0,9.990572655E0
2.171523295E0,3.870000243E-1,4.239000320E0,8.983950615E0,9.941341026E0
2.173486495E0,4.260000288E-1,4.239000320E0,9.060000420E0,1.001170352E1
2.175449757E0,4.260000288E-1,4.239000320E0,9.060000420E0,1.001170352E1
2.177412972E0,3.870000243E-1,4.239000320E0,9.022050858E0,9.975785403E0
2.179376208E0,3.870000243E-1,4.239000320E0,9.022050858E0,9.975785403E0
2.181339572E0,3.870000243E-1,4.201050282E0,9.060000420E0,9.994108269E0
2.183302898E0,4.260000288E-1,4.239000320E0,8.983950615E0,9.942935602E0
2.185266473E0,3.870000243E-1,4.201050282E0,9.022050858E0,9.959718578E0
2.187229975E0,3.870000243E-1,4.239000320E0,9.060000420E0,1.001011990E1
2.189193166E0,3.490500152E-1,4.201050282E0,9.022050858E0,9.958316176E0
2.191156444E0,3.870000243E-1,4.201050282E0,8.983950615E0,9.925218443E0
2.193120026E0,3.870000243E-1,4.239000320E0,8.983950615E0,9.941341026E0
2.195083519E0,2.719500065E-1,4.239000320E0,8.944950104E0,9.902283216E0
2.197046751E0,3.490500152E-1,4.239000320E0,8.944950104E0,9.904700500E0
2.199010059E0,3.490500152E-1,4.239000320E0,8.944950104E0,9.904700500E0
2.200973416E0,3.490500152E-1,4.239000320E0,8.983950615E0,9.939936030E0
2.202936755E0,3.870000243E-1,4.239000320E0,8.944950104E0,9.906110493E0
2.204900013E0,3.490500152E-1,4.276950359E0,8.944950104E0,9.921001595E0
2.206863295E0,3.870000243E-1,4.276950359E0,8.983950615E0,9.957582139E0
2.208826696E0,3.490500152E-1,4.239000320E0,8.983950615E0,9.939936030E0
2.210790062E0,3.870000243E-1,4.239000320E0,8.983950615E0,9.941341026E0
2.212753483E0,3.490500152E-1,4.239000320E0,8.983950615E0,9.939936030E0
2.214716865E0,3.870000243E-1,4.276950359E0,8.944950104E0,9.922409272E0
2.216680430E0,3.870000243E-1,4.239000320E0,8.944950104E0,9.906110493E0
2.218643942E0,3.109500110E-1,4.239000320E0,8.983950615E0,9.938671052E0
2.220607261E0,3.490500152E-1,4.239000320E0,8.983950615E0,9.939936030E0
2.222570636E0,3.870000243E-1,4.239000320E0,8.983950615E0,9.941341026E0
2.224534216E0,3.870000243E-1,4.239000320E0,8.983950615E0,9.941341026E0
2.226497726E0,3.870000243E-1,4.276950359E0,8.944950104E0,9.922409272E0
2.228461449E0,3.490500152E-1,4.276950359E0,8.944950104E0,9.921001595E0
2.230425110E0,3.870000243E-1,4.239000320E0,9.022050858E0,9.975785403E0
2.232388629E0,3.490500152E-1,4.239000320E0,8.983950615E0,9.939936030E0
2.234352189E0,3.490500152E-1,4.276950359E0,8.983950615E0,9.956179435E0
2.236315524E0,3.870000243E-1,4.201050282E0,9.022050858E0,9.959718578E0
2.238278939E0,3.490500152E-1,4.239000320E0,8.944950104E0,9.904700500E0
2.240242542E0,3.870000243E-1,4.276950359E0,8.983950615E0,9.957582139E0
2.242206090E0,3.870000243E-1,4.276950359E0,8.983950615E0,9.957582139E0
2.244169628E0,3.490500152E-1,4.276950359E0,8.983950615E0,9.956179435E0
2.246133169E0,3.870000243E-1,4.276950359E0,9.060000420E0,1.002624960E1
2.248096726E0,3.490500152E-1,4.239000320E0,9.060000420E0,1.000872456E1
2.250060265E0,3.490500152E-1,4.239000320E0,8.983950615E0,9.939936030E0
2.252023443E0,3.490500152E-1,4.239000320E0,9.022050858E0,9.974385260E0
2.253986727E0,3.490500152E-1,4.239000320E0,8.944950104E0,9.904700500E0
2.255950308E0,3.870000243E-1,4.239000320E0,8.983950615E0,9.941341026E0
2.257913802E0,3.490500152E-1,4.239000320E0,8.983950615E0,9.939936030E0
2.259877358E0,3.870000243E-1,4.239000320E0,8.983950615E0,9.941341026E0
2.261840889E0,3.109500110E-1,4.239000320E0,8.983950615E0,9.938671052E0
2.263804249E0,3.490500152E-1,4.201050282E0,8.983950615E0,9.923811165E0
2.265767660E0,3.870000243E-1,4.201050282E0,8.944950104E0,9.889930477E0
2.267731174E0,3.109500110E-1,4.239000320E0,8.983950615E0,9.938671052E0
2.269694658E0,3.870000243E-1,4.239000320E0,8.944950104E0,9.906110493E0
2.271658027E0,3.490500152E-1,4.201050282E0,8.983950615E0,9.923811165E0
2.273621429E0,3.490500152E-1,4.239000320E0,9.022050858E0,9.974385260E0
2.275584676E0,3.870000243E-1,4.201050282E0,9.022050858E0,9.959718578E0
2.277547968E0,3.490500152E-1,4.239000320E0,9.060000420E0,1.000872456E1
2.279511503E0,4.260000288E-1,4.239000320E0,9.022050858E0,9.977374475E0
2.281474966E0,3.109500110E-1,4.239000320E0,9.022050858E0,9.973124651E0
2.283438348E0,2.719500065E-1,4.239000320E0,9.022050858E0,9.971984868E0
2.285401747E0,3.109500110E-1,4.239000320E0,9.060000420E0,1.000746827E1
2.287365308E0,3.490500152E-1,4.239000320E0,9.022050858E0,9.974385260E0
2.289328822E0,3.870000243E-1,4.239000320E0,8.983950615E0,9.941341026E0
2.291292590E0,3.870000243E-1,4.276950359E0,9.022050858E0,9.991970530E0
2.293256283E0,3.490500152E-1,4.276950359E0,9.022050858E0,9.990572655E0
2.295219946E0,3.490500152E-1,4.201050282E0,9.022050858E0,9.958316176E0
2.297183608E0,3.109500110E-1,4.276950359E0,9.060000420E0,1.002360224E1
2.299146945E0,3.109500110E-1,4.239000320E0,9.060000420E0,1.000746827E1
2.301110377E0,3.490500152E-1,4.239000320E0,9.022050858E0,9.974385260E0
2.303073619E0,3.109500110E-1,4.276950359E0,9.022050858E0,9.989314089E0
2.305036916E0,3.109500110E-1,4.276950359E0,9.022050858E0,9.989314089E0
2.307000675E0,3.109500110E-1,4.239000320E0,9.022050858E0,9.973124651E0
2.308964298E0,3.490500152E-1,4.239000320E0,8.983950615E0,9.939936030E0
2.310928138E0,3.490500152E-1,4.276950359E0,8.944950104E0,9.921001595E0
2.312891914E0,3.109500110E-1,4.276950359E0,8.944950104E0,9.919734202E0
2.314855593E0,2.719500065E-1,4.276950359E0,8.983950615E0,9.953774653E0
2.316819300E0,3.109500110E-1,4.276950359E0,8.983950615E0,9.954916521E0
2.318782635E0,3.490500152E-1,4.315950394E0,8.983950615E0,9.972995155E0
2.320746075E0,3.490500152E-1,4.276950359E0,9.022050858E0,9.990572655E0
2.322709674E0,3.109500110E-1,4.315950394E0,9.022050858E0,1.000607412E1
2.324673227E0,3.109500110E-1,4.315950394E0,8.983950615E0,9.971734371E0
2.326636719E0,3.109500110E-1,4.276950359E0,8.983950615E0,9.954916521E0
2.328600229E0,3.109500110E-1,4.315950394E0,9.022050858E0,1.000607412E1
2.330563651E0,3.490500152E-1,4.315950394E0,8.983950615E0,9.972995155E0
2.332527089E0,3.109500110E-1,4.315950394E0,8.944950104E0,9.936611599E0
2.334490284E0,3.109500110E-1,4.276950359E0,8.983950615E0,9.954916521E0
2.336453550E0,3.109500110E-1,4.276950359E0,8.983950615E0,9.954916521E0
2.338416775E0,3.109500110E-1,4.239000320E0,9.022050858E0,9.973124651E0
2.340380012E0,3.490500152E-1,4.239000320E0,9.022050858E0,9.974385260E0
2.342343416E0,3.109500110E-1,4.276950359E0,9.022050858E0,9.989314089E0
2.344306774E0,3.109500110E-1,4.239000320E0,8.983950615E0,9.938671052E0
2.346270163E0,3.490500152E-1,4.276950359E0,8.983950615E0,9.956179435E0
2.348233543E0,3.870000243E-1,4.276950359E0,8.983950615E0,9.957582139E0
2.350196885E0,3.870000243E-1,4.276950359E0,8.983950615E0,9.957582139E0
2.352160238E0,3.490500152E-1,4.276950359E0,8.944950104E0,9.921001595E0
2.354123267E0,4.260000288E-1,4.276950359E0,8.944950104E0,9.924006890E0
2.356086391E0,3.490500152E-1,4.239000320E0,8.944950104E0,9.904700500E0
2.358049820E0,3.109500110E-1,4.276950359E0,8.983950615E0,9.954916521E0
2.360013159E0,3.490500152E-1,4.239000320E0,8.983950615E0,9.939936030E0
2.361976732E0,3.490500152E-1,4.276950359E0,8.944950104E0,9.921001595E0
2.363940236E0,4.260000288E-1,4.239000320E0,8.983950615E0,9.942935602E0
2.365903611E0,3.870000243E-1,4.276950359E0,9.022050858E0,9.991970530E0
2.367867017E0,3.490500152E-1,4.239000320E0,9.022050858E0,9.974385260E0
2.369830262E0,3.490500152E-1,4.239000320E0,8.983950615E0,9.939936030E0
2.371793555E0,3.490500152E-1,4.201050282E0,8.983950615E0,9.923811165E0
2.373757089E0,3.490500152E-1,4.239000320E0,8.983950615E0,9.939936030E0
2.375720553E0,3.870000243E-1,4.239000320E0,8.983950615E0,9.941341026E0
2.377683897E0,3.109500110E-1,4.239000320E0,8.983950615E0,9.938671052E0
2.379647296E0,3.870000243E-1,4.276950359E0,8.983950615E0,9.957582139E0
2.381610722E0,3.109500110E-1,4.239000320E0,9.022050858E0,9.973124651E0
2.383574140E0,3.490500152E-1,4.276950359E0,8.983950615E0,9.956179435E0
2.385537339E0,3.109500110E-1,4.239000320E0,8.944950104E0,9.903431021E0
2.387500603E0,3.109500110E-1,4.276950359E0,8.983950615E0,9.954916521E0
2.389464212E0,3.109500110E-1,4.276950359E0,9.022050858E0,9.989314089E0
2.391427702E0,3.490500152E-1,4.276950359E0,8.944950104E0,9.921001595E0
2.393391069E0,3.109500110E-1,4.239000320E0,8.944950104E0,9.903431021E0
2.395354473E0,3.109500110E-1,4.276950359E0,8.944950104E0,9.919734202E0
2.397318349E0,3.109500110E-1,4.276950359E0,8.944950104E0,9.919734202E0
2.399282087E0,3.109500110E-1,4.276950359E0,8.944950104E0,9.919734202E0
2.401245232E0,2.719500065E-1,4.276950359E0,8.944950104E0,9.918588284E0
2.403208550E0,3.109500110E-1,4.276950359E0,8.944950104E0,9.919734202E0
2.405171945E0,3.109500110E-1,4.239000320E0,8.983950615E0,9.938671052E0
2.407135318E0,2.340000123E-1,4.276950359E0,8.944950104E0,9.917620316E0
2.409098750E0,2.719500065E-1,4.276950359E0,8.907000542E0,9.884377564E0
2.411062164E0,3.109500110E-1,4.315950394E0,8.944950104E0,9.936611599E0
2.413025626E0,3.109500110E-1,4.276950359E0,8.944950104E0,9.919734202E0
2.414989111E0,3.490500152E-1,4.239000320E0,8.944950104E0,9.904700500E0
2.416952524E0,3.870000243E-1,4.276950359E0,8.907000542E0,9.888211772E0
2.418915959E0,3.109500110E-1,4.239000320E0,8.944950104E0,9.903431021E0
2.420879155E0,3.109500110E-1,4.239000320E0,9.022050858E0,9.973124651E0
2.422842421E0,3.490500152E-1,4.239000320E0,8.983950615E0,9.939936030E0
2.424805844E0,3.490500152E-1,4.239000320E0,9.022050858E0,9.974385260E0
2.426769207E0,3.870000243E-1,4.239000320E0,8.983950615E0,9.941341026E0
2.428732371E0,3.490500152E-1,4.276950359E0,9.022050858E0,9.990572655E0
2.430695593E0,3.870000243E-1,4.239000320E0,9.022050858E0,9.975785403E0
2.432659185E0,3.490500152E-1,4.239000320E0,9.022050858E0,9.974385260E0
2.434622668E0,3.490500152E-1,4.239000320E0,9.060000420E0,1.000872456E1
2.436586097E0,3.490500152E-1,4.239000320E0,9.022050858E0,9.974385260E0
2.438549531E0,3.490500152E-1,4.239000320E0,9.060000420E0,1.000872456E1
2.440512862E0,3.870000243E-1,4.239000320E0,9.060000420E0,1.001011990E1
2.442476224E0,3.490500152E-1,4.201050282E0,9.098999977E0,1.002808356E1
2.444439611E0,3.490500152E-1,4.239000320E0,9.060000420E0,1.000872456E1
2.446402991E0,3.490500152E-1,4.239000320E0,9.022050858E0,9.974385260E0
2.448366547E0,3.490500152E-1,4.239000320E0,9.060000420E0,1.000872456E1
2.450330058E0,3.490500152E-1,4.239000320E0,9.022050858E0,9.974385260E0
2.452293287E0,3.870000243E-1,4.239000320E0,8.983950615E0,9.941341026E0
2.454256598E0,3.490500152E-1,4.276950359E0,9.022050858E0,9.990572655E0
2.456220174E0,3.490500152E-1,4.276950359E0,9.060000420E0,1.002485650E1
2.458183673E0,3.109500110E-1,4.239000320E0,9.060000420E0,1.000746827E1
2.460147700E0,3.109500110E-1,4.239000320E0,9.022050858E0,9.973124651E0
2.462111582E0,3.490500152E-1,4.315950394E0,9.022050858E0,1.000733058E1
2.464075063E0,3.109500110E-1,4.276950359E0,9.060000420E0,1.002360224E1
2.466038661E0,3.490500152E-1,4.276950359E0,9.022050858E0,9.990572655E0
2.468002414E0,3.490500152E-1,4.239000320E0,9.060000420E0,1.000872456E1
2.469966121E0,3.490500152E-1,4.276950359E0,9.060000420E0,1.002485650E1
2.471929591E0,3.109500110E-1,4.239000320E0,9.060000420E0,1.000746827E1
2.473893127E0,3.490500152E-1,4.239000320E0,9.060000420E0,1.000872456E1
2.475856710E0,3.109500110E-1,4.239000320E0,9.060000420E0,1.000746827E1
2.477820279E0,3.490500152E-1,4.276950359E0,9.060000420E0,1.002485650E1
2.479783948E0,3.870000243E-1,4.239000320E0,9.022050858E0,9.975785403E0
2.481747587E0,3.870000243E-1,4.239000320E0,9.136950493E0,1.007981930E1
2.483710974E0,3.490500152E-1,4.239000320E0,9.098999977E0,1.004404103E1
2.485674435E0,3.870000243E-1,4.239000320E0,9.098999977E0,1.004543147E1
2.487637806E0,3.870000243E-1,4.276950359E0,9.136950493E0,1.009583764E1
2.489601204E0,3.490500152E-1,4.239000320E0,9.175050735E0,1.011298747E1
2.491564946E0,3.490500152E-1,4.239000320E0,9.136950493E0,1.007843361E1
2.493528587E0,3.490500152E-1,4.239000320E0,9.060000420E0,1.000872456E1
2.495492409E0,3.490500152E-1,4.239000320E0,9.022050858E0,9.974385260E0
2.497456188E0,3.870000243E-1,4.239000320E0,9.098999977E0,1.004543147E1
2.499420091E0,3.870000243E-1,4.201050282E0,9.098999977E0,1.002947621E1
2.501383957E0,3.870000243E-1,4.239000320E0,9.098999977E0,1.004543147E1
2.503347215E0,3.870000243E-1,4.239000320E0,9.098999977E0,1.004543147E1
2.505310651E0,3.870000243E-1,4.201050282E0,9.022050858E0,9.959718578E0
2.507274022E0,3.870000243E-1,4.239000320E0,8.983950615E0,9.941341026E0
2.509237416E0,3.870000243E-1,4.201050282E0,9.022050858E0,9.959718578E0
2.511201203E0,3.490500152E-1,4.201050282E0,9.060000420E0,9.992710693E0
2.513164875E0,3.490500152E-1,4.201050282E0,9.060000420E0,9.992710693E0
2.515128347E0,3.490500152E-1,4.239000320E0,9.022050858E0,9.974385260E0
2.517091877E0,3.490500152E-1,4.239000320E0,9.060000420E0,1.000872456E1
2.519055218E0,3.490500152E-1,4.239000320E0,9.022050858E0,9.974385260E0
2.521018628E0,3.870000243E-1,4.201050282E0,8.983950615E0,9.925218443E0
2.522982232E0,3.490500152E-1,4.239000320E0,9.060000420E0,1.000872456E1
2.524945779E0,3.490500152E-1,4.201050282E0,9.022050858E0,9.958316176E0
2.526909632E0,3.870000243E-1,4.201050282E0,9.060000420E0,9.994108269E0
2.528873395E0,3.870000243E-1,4.201050282E0,9.060000420E0,9.994108269E0
2.530836735E0,3.490500152E-1,4.239000320E0,8.983950615E0,9.939936030E0
2.532800185E0,3.490500152E-1,4.201050282E0,9.022050858E0,9.958316176E0
2.534763738E0,3.490500152E-1,4.201050282E0,8.983950615E0,9.923811165E0
2.536727260E0,3.870000243E-1,4.162050247E0,9.022050858E0,9.943331079E0
2.538691027E0,3.490500152E-1,4.239000320E0,8.983950615E0,9.939936030E0
2.540654722E0,3.870000243E-1,4.239000320E0,8.983950615E0,9.941341026E0
2.542618369E0,3.490500152E-1,4.239000320E0,8.944950104E0,9.904700500E0
2.544582031E0,3.490500152E-1,4.276950359E0,8.983950615E0,9.956179435E0
2.546545413E0,3.870000243E-1,4.201050282E0,8.983950615E0,9.925218443E0
2.548508877E0,3.490500152E-1,4.276950359E0,8.983950615E0,9.956179435E0
2.550472382E0,3.490500152E-1,4.239000320E0,9.022050858E0,9.974385260E0
2.552435875E0,3.490500152E-1,4.276950359E0,8.944950104E0,9.921001595E0
2.554399248E0,3.490500152E-1,4.276950359E0,8.983950615E0,9.956179435E0
2.556362652E0,3.870000243E-1,4.276950359E0,8.983950615E0,9.957582139E0
2.558326212E0,3.490500152E-1,4.239000320E0,8.944950104E0,9.904700500E0
2.560289727E0,3.870000243E-1,4.239000320E0,8.944950104E0,9.906110493E0
2.562252955E0,3.490500152E-1,4.239000320E0,8.944950104E0,9.904700500E0
2.564216267E0,3.490500152E-1,4.276950359E0,8.983950615E0,9.956179435E0
2.566179608E0,3.109500110E-1,4.276950359E0,8.944950104E0,9.919734202E0
2.568142947E0,3.490500152E-1,4.239000320E0,8.944950104E0,9.904700500E0
2.570106340E0,3.870000243E-1,4.276950359E0,8.983950615E0,9.957582139E0
2.572069717E0,3.870000243E-1,4.276950359E0,8.983950615E0,9.957582139E0
2.574032969E0,3.490500152E-1,4.239000320E0,8.944950104E0,9.904700500E0
2.575996257E0,3.490500152E-1,4.239000320E0,8.983950615E0,9.939936030E0
2.577959638E0,3.490500152E-1,4.276950359E0,8.983950615E0,9.956179435E0
2.579923005E0,3.490500152E-1,4.276950359E0,8.983950615E0,9.956179435E0
2.581886393E0,3.109500110E-1,4.239000320E0,8.944950104E0,9.903431021E0
2.583849775E0,3.109500110E-1,4.239000320E0,8.983950615E0,9.938671052E0
2.585813160E0,3.490500152E-1,4.276950359E0,8.944950104E0,9.921001595E0
2.587776544E0,3.109500110E-1,4.276950359E0,8.944950104E0,9.919734202E0
2.589740114E0,3.109500110E-1,4.239000320E0,8.983950615E0,9.938671052E0
2.591703626E0,3.109500110E-1,4.276950359E0,9.022050858E0,9.989314089E0
2.593667125E0,3.109500110E-1,4.239000320E0,8.983950615E0,9.938671052E0
2.595630628E0,3.490500152E-1,4.276950359E0,8.944950104E0,9.921001595E0
2.597594396E0,2.719500065E-1,4.276950359E0,9.022050858E0,9.988176153E0
2.599558087E0,3.109500110E-1,4.239000320E0,8.983950615E0,9.938671052E0
2.601521638E0,3.490500152E-1,4.276950359E0,8.983950615E0,9.956179435E0
2.603485204E0,3.109500110E-1,4.239000320E0,9.022050858E0,9.973124651E0
2.605448693E0,3.109500110E-1,4.239000320E0,9.022050858E0,9.973124651E0
2.607412204E0,3.490500152E-1,4.276950359E0,8.983950615E0,9.956179435E0
2.609375612E0,3.490500152E-1,4.239000320E0,9.022050858E0,9.974385260E0
2.611339050E0,3.870000243E-1,4.239000320E0,9.022050858E0,9.975785403E0
2.613302367E0,3.109500110E-1,4.239000320E0,8.983950615E0,9.938671052E0
2.615265729E0,3.490500152E-1,4.201050282E0,9.022050858E0,9.958316176E0
2.617229116E0,3.109500110E-1,4.239000320E0,8.983950615E0,9.938671052E0
2.619192496E0,3.490500152E-1,4.276950359E0,8.983950615E0,9.956179435E0
2.621156107E0,3.490500152E-1,4.239000320E0,9.060000420E0,1.000872456E1
2.623119650E0,3.490500152E-1,4.239000320E0,9.022050858E0,9.974385260E0
2.625083353E0,2.719500065E-1,4.239000320E0,9.060000420E0,1.000633240E1
2.627047019E0,3.109500110E-1,4.276950359E0,9.060000420E0,1.002360224E1
2.629010312E0,3.870000243E-1,4.239000320E0,8.983950615E0,9.941341026E0
2.630973714E0,3.490500152E-1,4.239000320E0,8.983950615E0,9.939936030E0
2.632937275E0,3.109500110E-1,4.239000320E0,8.983950615E0,9.938671052E0
2.634900789E0,3.109500110E-1,4.276950359E0,8.944950104E0,9.919734202E0
2.636864332E0,3.870000243E-1,4.239000320E0,8.907000542E0,9.871856532E0
2.638827866E0,3.490500152E-1,4.276950359E0,8.983950615E0,9.956179435E0
2.640791630E0,3.109500110E-1,4.239000320E0,8.907000542E0,9.869167760E0
2.642755327E0,3.870000243E-1,4.315950394E0,8.944950104E0,9.939282126E0
2.644718975E0,3.870000243E-1,4.276950359E0,8.983950615E0,9.957582139E0
2.646682637E0,3.109500110E-1,4.239000320E0,8.983950615E0,9.938671052E0
2.648646019E0,3.490500152E-1,4.239000320E0,8.944950104E0,9.904700500E0
2.650609483E0,3.870000243E-1,4.162050247E0,8.907000542E0,9.839059403E0
2.652572988E0,4.260000288E-1,4.123950005E0,8.944950104E0,9.859035045E0
2.654536481E0,4.639500082E-1,4.123950005E0,8.944950104E0,9.860747721E0
2.656499893E0,5.410500169E-1,4.085999966E0,8.907000542E0,9.814417430E0
2.658463329E0,4.260000288E-1,4.162050247E0,8.944950104E0,9.875032691E0
2.660426884E0,4.639500082E-1,4.162050247E0,8.944950104E0,9.876742592E0
2.662390404E0,4.639500082E-1,4.162050247E0,8.944950104E0,9.876742592E0
2.664353721E0,4.639500082E-1,4.239000320E0,9.022050858E0,9.979066840E0
2.666317098E0,4.639500082E-1,4.201050282E0,8.983950615E0,9.928516593E0
2.668280304E0,4.260000288E-1,4.201050282E0,8.983950615E0,9.926815609E0
2.670243560E0,3.870000243E-1,4.201050282E0,9.022050858E0,9.959718578E0
2.672206815E0,3.109500110E-1,4.201050282E0,9.060000420E0,9.991452396E0
2.674170081E0,3.109500110E-1,4.201050282E0,9.136950493E0,1.006128112E1
2.676133441E0,3.109500110E-1,4.201050282E0,9.098999977E0,1.002682971E1
2.678096774E0,3.109500110E-1,4.239000320E0,9.098999977E0,1.004278916E1
2.680059808E0,2.719500065E-1,4.239000320E0,9.098999977E0,1.004165729E1
2.682022930E0,2.340000123E-1,4.276950359E0,9.098999977E0,1.005678184E1
2.683986358E0,2.340000123E-1,4.276950359E0,9.098999977E0,1.005678184E1
2.685949697E0,1.960500032E-1,4.276950359E0,9.098999977E0,1.005597039E1
2.687912775E0,2.340000123E-1,4.315950394E0,9.098999977E0,1.007342962E1
2.689875930E0,1.960500032E-1,4.276950359E0,9.060000420E0,1.002069596E1
2.691839308E0,2.340000123E-1,4.276950359E0,9.060000420E0,1.002151026E1
2.693802620E0,1.960500032E-1,4.315950394E0,9.060000420E0,1.003740360E1
2.695765857E0,2.340000123E-1,4.276950359E0,9.136950493E0,1.009113099E1
2.697729102E0,2.340000123E-1,4.276950359E0,9.060000420E0,1.002151026E1
2.699692690E0,2.340000123E-1,4.239000320E0,9.098999977E0,1.004070119E1
2.701656177E0,2.340000123E-1,4.276950359E0,9.098999977E0,1.005678184E1
2.703619724E0,2.719500065E-1,4.276950359E0,9.060000420E0,1.002246820E1
2.705583254E0,3.109500110E-1,4.315950394E0,9.060000420E0,1.004030504E1
2.707546660E0,3.109500110E-1,4.315950394E0,9.060000420E0,1.004030504E1
2.709510103E0,2.719500065E-1,4.276950359E0,8.983950615E0,9.953774653E0
2.711473656E0,2.719500065E-1,4.276950359E0,8.983950615E0,9.953774653E0
2.713437177E0,2.719500065E-1,4.276950359E0,9.098999977E0,1.005773641E1
2.715400719E0,2.719500065E-1,4.315950394E0,9.060000420E0,1.003917288E1
2.717364254E0,3.490500152E-1,4.276950359E0,9.060000420E0,1.002485650E1
2.719327614E0,2.719500065E-1,4.276950359E0,9.060000420E0,1.002246820E1
2.721291026E0,2.719500065E-1,4.276950359E0,9.098999977E0,1.005773641E1
2.723254540E0,2.340000123E-1,4.315950394E0,9.098999977E0,1.007342962E1
2.725218024E0,2.340000123E-1,4.315950394E0,9.136950493E0,1.010772220E1
2.727181393E0,2.719500065E-1,4.315950394E0,9.022050858E0,1.000493809E1
2.729144795E0,2.340000123E-1,4.354050159E0,8.983950615E0,9.986184329E0
2.731108322E0,1.960500032E-1,4.315950394E0,9.060000420E0,1.003740360E1
2.733071836E0,2.340000123E-1,4.315950394E0,9.060000420E0,1.003821655E1
2.735035199E0,1.960500032E-1,4.315950394E0,9.022050858E0,1.000316275E1
2.736998607E0,2.340000123E-1,4.276950359E0,9.022050858E0,9.987214930E0
2.738961987E0,1.960500032E-1,4.315950394E0,9.022050858E0,1.000316275E1
2.740925376E0,2.340000123E-1,4.276950359E0,8.983950615E0,9.952810107E0
2.742888934E0,2.340000123E-1,4.315950394E0,8.983950615E0,9.969631511E0
2.744852446E0,2.340000123E-1,4.315950394E0,8.983950615E0,9.969631511E0
2.746816034E0,1.960500032E-1,4.315950394E0,8.944950104E0,9.933679870E0
2.748779600E0,2.340000123E-1,4.315950394E0,8.983950615E0,9.969631511E0
2.750743314E0,2.340000123E-1,4.276950359E0,8.983950615E0,9.952810107E0
2.752706985E0,2.340000123E-1,4.276950359E0,8.907000542E0,9.883406246E0
2.754670336E0,2.340000123E-1,4.315950394E0,8.944950104E0,9.934501304E0
2.756633771E0,2.719500065E-1,4.276950359E0,8.944950104E0,9.918588284E0
2.758597641E0,2.340000123E-1,4.276950359E0,8.944950104E0,9.917620316E0
2.760561384E0,2.340000123E-1,4.239000320E0,8.944950104E0,9.901313654E0
2.762524709E0,3.490500152E-1,4.276950359E0,8.907000542E0,9.886799226E0
2.764488156E0,2.719500065E-1,4.315950394E0,8.907000542E0,9.901315229E0
2.766451169E0,3.109500110E-1,4.276950359E0,8.944950104E0,9.919734202E0
2.768414309E0,3.109500110E-1,4.276950359E0,8.983950615E0,9.954916521E0
2.770377735E0,3.109500110E-1,4.239000320E0,9.022050858E0,9.973124651E0
2.772341077E0,3.109500110E-1,4.315950394E0,8.983950615E0,9.971734371E0
2.774304829E0,3.109500110E-1,4.315950394E0,8.983950615E0,9.971734371E0
2.776268461E0,3.109500110E-1,4.276950359E0,9.022050858E0,9.989314089E0
2.778231600E0,3.109500110E-1,4.239000320E0,9.022050858E0,9.973124651E0
2.780194901E0,3.109500110E-1,4.239000320E0,9.060000420E0,1.000746827E1
2.782158479E0,3.109500110E-1,4.239000320E0,9.022050858E0,9.973124651E0
2.784121976E0,3.109500110E-1,4.239000320E0,8.983950615E0,9.938671052E0
2.786085342E0,3.109500110E-1,4.239000320E0,8.983950615E0,9.938671052E0
2.788048747E0,3.109500110E-1,4.239000320E0,8.983950615E0,9.938671052E0
2.790011798E0,3.490500152E-1,4.201050282E0,8.983950615E0,9.923811165E0
2.791974963E0,3.109500110E-1,4.276950359E0,9.022050858E0,9.989314089E0
2.793938699E0,3.109500110E-1,4.201050282E0,9.022050858E0,9.957053533E0
2.795902268E0,3.109500110E-1,4.162050247E0,9.060000420E0,9.975117031E0
2.797865668E0,3.490500152E-1,4.201050282E0,9.022050858E0,9.958316176E0
2.799829117E0,3.490500152E-1,4.239000320E0,8.983950615E0,9.939936030E0
2.801792490E0,3.109500110E-1,4.239000320E0,9.022050858E0,9.973124651E0
2.803755886E0,3.109500110E-1,4.239000320E0,9.022050858E0,9.973124651E0
2.805719043E0,3.109500110E-1,4.201050282E0,8.983950615E0,9.922544131E0
2.807682271E0,3.109500110E-1,4.201050282E0,9.022050858E0,9.957053533E0
2.809645367E0,3.109500110E-1,4.239000320E0,9.022050858E0,9.973124651E0
2.811608501E0,3.109500110E-1,4.201050282E0,9.022050858E0,9.957053533E0
2.813572118E0,3.109500110E-1,4.201050282E0,8.983950615E0,9.922544131E0
2.815535586E0,3.109500110E-1,4.201050282E0,9.060000420E0,9.991452396E0
2.817499092E0,3.870000243E-1,4.239000320E0,9.060000420E0,1.001011990E1
2.819462586E0,3.490500152E-1,4.162050247E0,9.060000420E0,9.976377387E0
2.821425818E0,3.490500152E-1,4.201050282E0,9.022050858E0,9.958316176E0
2.823389127E0,2.719500065E-1,4.162050247E0,9.022050858E0,9.939518134E0
2.825352654E0,3.490500152E-1,4.162050247E0,8.983950615E0,9.907364272E0
2.827316120E0,3.109500110E-1,4.201050282E0,9.022050858E0,9.957053533E0
2.829279671E0,3.870000243E-1,4.201050282E0,9.060000420E0,9.994108269E0
2.831243197E0,3.490500152E-1,4.201050282E0,9.060000420E0,9.992710693E0
2.833206558E0,3.490500152E-1,4.201050282E0,9.060000420E0,9.992710693E0
2.835169968E0,3.109500110E-1,4.201050282E0,9.098999977E0,1.002682971E1
2.837133537E0,3.490500152E-1,4.201050282E0,9.022050858E0,9.958316176E0
2.839097053E0,3.109500110E-1,4.201050282E0,9.022050858E0,9.957053533E0
2.841060281E0,3.870000243E-1,4.201050282E0,9.022050858E0,9.959718578E0
2.843023593E0,3.490500152E-1,4.239000320E0,9.022050858E0,9.974385260E0
2.844986989E0,3.490500152E-1,4.201050282E0,8.983950615E0,9.923811165E0
2.846950361E0,3.490500152E-1,4.239000320E0,9.022050858E0,9.974385260E0
2.848913689E0,3.490500152E-1,4.201050282E0,9.022050858E0,9.958316176E0
2.850877040E0,3.490500152E-1,4.201050282E0,8.983950615E0,9.923811165E0
2.852840295E0,3.109500110E-1,4.239000320E0,9.022050858E0,9.973124651E0
2.854803578E0,3.490500152E-1,4.201050282E0,9.022050858E0,9.958316176E0
2.856767159E0,3.870000243E-1,4.239000320E0,8.983950615E0,9.941341026E0
2.858730653E0,3.490500152E-1,4.162050247E0,8.983950615E0,9.907364272E0
2.860694045E0,3.490500152E-1,4.201050282E0,9.022050858E0,9.958316176E0
2.862657450E0,2.719500065E-1,4.239000320E0,9.022050858E0,9.971984868E0
2.864620605E0,3.490500152E-1,4.239000320E0,9.022050858E0,9.974385260E0
2.866583834E0,3.490500152E-1,4.276950359E0,8.944950104E0,9.921001595E0
2.868547425E0,3.490500152E-1,4.239000320E0,9.022050858E0,9.974385260E0
2.870510909E0,3.490500152E-1,4.239000320E0,8.983950615E0,9.939936030E0
2.872474283E0,3.109500110E-1,4.239000320E0,8.944950104E0,9.903431021E0
2.874437685E0,3.109500110E-1,4.239000320E0,8.983950615E0,9.938671052E0
2.876401111E0,3.109500110E-1,4.201050282E0,8.983950615E0,9.922544131E0
2.878364529E0,3.490500152E-1,4.201050282E0,8.944950104E0,9.888518177E0
2.880327909E0,3.109500110E-1,4.239000320E0,8.983950615E0,9.938671052E0
2.882291301E0,3.109500110E-1,4.239000320E0,8.944950104E0,9.903431021E0
2.884254969E0,3.490500152E-1,4.239000320E0,8.983950615E0,9.939936030E0
2.886218577E0,3.490500152E-1,4.239000320E0,8.983950615E0,9.939936030E0
2.888181790E0,3.490500152E-1,4.276950359E0,8.983950615E0,9.956179435E0
2.890145118E0,3.490500152E-1,4.239000320E0,8.983950615E0,9.939936030E0
2.892108646E0,3.490500152E-1,4.315950394E0,8.983950615E0,9.972995155E0
2.894072116E0,3.870000243E-1,4.276950359E0,8.983950615E0,9.957582139E0
2.896035306E0,3.870000243E-1,4.239000320E0,9.022050858E0,9.975785403E0
2.897998579E0,3.870000243E-1,4.239000320E0,9.022050858E0,9.975785403E0
2.899961982E0,3.490500152E-1,4.276950359E0,8.983950615E0,9.956179435E0
2.901925347E0,3.109500110E-1,4.239000320E0,8.944950104E0,9.903431021E0
2.903888556E0,3.109500110E-1,4.239000320E0,9.022050858E0,9.973124651E0
2.905851810E0,3.870000243E-1,4.276950359E0,9.022050858E0,9.991970530E0
2.907815066E0,3.109500110E-1,4.239000320E0,8.983950615E0,9.938671052E0
2.909778332E0,3.870000243E-1,4.276950359E0,8.944950104E0,9.922409272E0
2.911741872E0,3.490500152E-1,4.276950359E0,8.983950615E0,9.956179435E0
2.913705332E0,3.490500152E-1,4.239000320E0,8.983950615E0,9.939936030E0
2.915668705E0,3.109500110E-1,4.239000320E0,8.983950615E0,9.938671052E0
2.917632103E0,3.109500110E-1,4.276950359E0,8.983950615E0,9.954916521E0
2.919595529E0,3.109500110E-1,4.276950359E0,8.983950615E0,9.954916521E0
2.921558916E0,3.490500152E-1,4.276950359E0,9.022050858E0,9.990572655E0
2.923522165E0,3.109500110E-1,4.276950359E0,8.907000542E0,9.885527449E0
2.925485455E0,3.109500110E-1,4.239000320E0,8.944950104E0,9.903431021E0
2.927448855E0,2.719500065E-1,4.239000320E0,9.022050858E0,9.971984868E0
2.929412222E0,3.109500110E-1,4.276950359E0,9.022050858E0,9.989314089E0
2.931375614E0,3.109500110E-1,4.276950359E0,8.944950104E0,9.919734202E0
2.933338995E0,2.719500065E-1,4.276950359E0,9.022050858E0,9.988176153E0
2.935302516E0,3.109500110E-1,4.239000320E0,9.060000420E0,1.000746827E1
2.937265995E0,2.719500065E-1,4.276950359E0,9.022050858E0,9.988176153E0
2.939229185E0,3.109500110E-1,4.239000320E0,8.983950615E0,9.938671052E0
2.941192459E0,3.109500110E-1,4.239000320E0,9.022050858E0,9.973124651E0
2.943156076E0,3.490500152E-1,4.239000320E0,8.983950615E0,9.939936030E0
2.945119568E0,3.109500110E-1,4.239000320E0,9.060000420E0,1.000746827E1
2.947082980E0,3.490500152E-1,4.276950359E0,9.060000420E0,1.002485650E1
2.949046416E0,3.109500110E-1,4.239000320E0,9.060000420E0,1.000746827E1
2.951009746E0,3.109500110E-1,4.239000320E0,9.060000420E0,1.000746827E1
2.952973108E0,3.109500110E-1,4.201050282E0,9.098999977E0,1.002682971E1
2.954936550E0,3.109500110E-1,4.201050282E0,9.022050858E0,9.957053533E0
2.956899962E0,2.719500065E-1,4.239000320E0,8.983950615E0,9.937527317E0
2.958863522E0,2.719500065E-1,4.239000320E0,9.060000420E0,1.000633240E1
2.960827039E0,2.719500065E-1,4.239000320E0,9.098999977E0,1.004165729E1
2.962790537E0,2.719500065E-1,4.239000320E0,9.060000420E0,1.000633240E1
2.964754041E0,2.719500065E-1,4.276950359E0,9.022050858E0,9.988176153E0
2.966717270E0,2.719500065E-1,4.239000320E0,9.060000420E0,1.000633240E1
2.968680580E0,3.109500110E-1,4.276950359E0,8.983950615E0,9.954916521E0
2.970643931E0,2.719500065E-1,4.276950359E0,9.022050858E0,9.988176153E0
2.972607270E0,2.340000123E-1,4.276950359E0,9.060000420E0,1.002151026E1
2.974570528E0,3.109500110E-1,4.239000320E0,9.136950493E0,1.007718601E1
2.976533810E0,2.719500065E-1,4.276950359E0,9.060000420E0,1.002246820E1
2.978497180E0,2.719500065E-1,4.239000320E0,9.022050858E0,9.971984868E0
2.980460515E0,3.109500110E-1,4.276950359E0,9.060000420E0,1.002360224E1
2.982424134E0,2.340000123E-1,4.239000320E0,9.060000420E0,1.000537292E1
2.984387669E0,3.109500110E-1,4.201050282E0,9.060000420E0,9.991452396E0
2.986351523E0,2.719500065E-1,4.239000320E0,9.060000420E0,1.000633240E1
2.988315284E0,3.109500110E-1,4.239000320E0,9.060000420E0,1.000746827E1
2.990278581E0,3.490500152E-1,4.276950359E0,9.098999977E0,1.006011634E1
2.992242031E0,2.719500065E-1,4.239000320E0,9.060000420E0,1.000633240E1
2.994205449E0,3.109500110E-1,4.239000320E0,9.060000420E0,1.000746827E1
2.996168877E0,3.109500110E-1,4.239000320E0,9.098999977E0,1.004278916E1
2.998132794E0,3.490500152E-1,4.276950359E0,9.060000420E0,1.002485650E1
3.000096568E0,2.719500065E-1,4.276950359E0,9.060000420E0,1.002246820E1
3.002060232E0,3.109500110E-1,4.239000320E0,9.060000420E0,1.000746827E1
3.004023939E0,3.109500110E-1,4.276950359E0,9.022050858E0,9.989314089E0
3.005987269E0,2.719500065E-1,4.276950359E0,9.022050858E0,9.988176153E0
3.007950709E0,3.490500152E-1,4.276950359E0,9.022050858E0,9.990572655E0
3.009914443E0,3.109500110E-1,4.276950359E0,9.060000420E0,1.002360224E1
3.011878091E0,2.719500065E-1,4.276950359E0,9.022050858E0,9.988176153E0
3.013841612E0,3.109500110E-1,4.315950394E0,9.060000420E0,1.004030504E1
3.015805170E0,3.109500110E-1,4.276950359E0,8.983950615E0,9.954916521E0
3.017768839E0,3.109500110E-1,4.239000320E0,8.983950615E0,9.938671052E0
3.019732476E0,2.719500065E-1,4.276950359E0,9.022050858E0,9.988176153E0
3.021695818E0,3.870000243E-1,4.276950359E0,9.060000420E0,1.002624960E1
3.023659247E0,3.490500152E-1,4.239000320E0,9.022050858E0,9.974385260E0
3.025622639E0,3.490500152E-1,4.276950359E0,9.060000420E0,1.002485650E1
3.027586031E0,3.109500110E-1,4.239000320E0,9.060000420E0,1.000746827E1
3.029549594E0,3.109500110E-1,4.239000320E0,9.022050858E0,9.973124651E0
3.031513106E0,3.490500152E-1,4.239000320E0,8.983950615E0,9.939936030E0
3.033476470E0,3.109500110E-1,4.201050282E0,8.983950615E0,9.922544131E0
3.035439878E0,3.109500110E-1,4.201050282E0,8.983950615E0,9.922544131E0
3.037403258E0,3.490500152E-1,4.201050282E0,8.983950615E0,9.923811165E0
3.039366647E0,3.490500152E-1,4.239000320E0,8.944950104E0,9.904700500E0
3.041330075E0,3.490500152E-1,4.276950359E0,8.983950615E0,9.956179435E0
3.043293491E0,3.870000243E-1,4.201050282E0,8.983950615E0,9.925218443E0
3.045257005E0,3.109500110E-1,4.276950359E0,8.944950104E0,9.919734202E0
3.047220491E0,3.490500152E-1,4.239000320E0,8.944950104E0,9.904700500E0
3.049183679E0,3.490500152E-1,4.201050282E0,8.983950615E0,9.923811165E0
3.051146986E0,3.490500152E-1,4.239000320E0,9.022050858E0,9.974385260E0
3.053110383E0,3.490500152E-1,4.276950359E0,8.983950615E0,9.956179435E0
3.055073754E0,3.870000243E-1,4.239000320E0,8.983950615E0,9.941341026E0
3.057036961E0,3.490500152E-1,4.239000320E0,8.983950615E0,9.939936030E0
3.059000217E0,3.490500152E-1,4.239000320E0,8.983950615E0,9.939936030E0
3.060963459E0,3.870000243E-1,4.239000320E0,8.983950615E0,9.941341026E0
3.062926694E0,4.260000288E-1,4.201050282E0,9.022050858E0,9.961310213E0
3.064889924E0,3.870000243E-1,4.201050282E0,9.022050858E0,9.959718578E0
3.066853155E0,3.870000243E-1,4.201050282E0,8.983950615E0,9.925218443E0
3.068816520E0,4.260000288E-1,4.276950359E0,8.983950615E0,9.959174115E0
3.070779846E0,3.870000243E-1,4.239000320E0,9.022050858E0,9.975785403E0
3.072743475E0,3.870000243E-1,4.239000320E0,8.983950615E0,9.941341026E0
3.074707008E0,3.490500152E-1,4.239000320E0,8.944950104E0,9.904700500E0
3.076670369E0,3.870000243E-1,4.239000320E0,8.983950615E0,9.941341026E0
3.078633780E0,3.490500152E-1,4.201050282E0,8.944950104E0,9.888518177E0
3.080597160E0,3.490500152E-1,4.239000320E0,8.983950615E0,9.939936030E0
3.082560549E0,3.870000243E-1,4.239000320E0,9.022050858E0,9.975785403E0
3.084523708E0,3.870000243E-1,4.239000320E0,9.022050858E0,9.975785403E0
3.086486934E0,3.870000243E-1,4.201050282E0,8.983950615E0,9.925218443E0
3.088450345E0,3.490500152E-1,4.239000320E0,8.983950615E0,9.939936030E0
3.090413701E0,3.870000243E-1,4.201050282E0,8.983950615E0,9.925218443E0
3.092376731E0,3.870000243E-1,4.239000320E0,8.983950615E0,9.941341026E0
3.094339857E0,3.870000243E-1,4.239000320E0,8.983950615E0,9.941341026E0
3.096302926E0,3.490500152E-1,4.239000320E0,8.983950615E0,9.939936030E0
3.098266011E0,3.870000243E-1,4.239000320E0,8.944950104E0,9.906110493E0
3.100229446E0,3.490500152E-1,4.239000320E0,8.907000542E0,9.870441646E0
3.102192778E0,3.870000243E-1,4.201050282E0,8.944950104E0,9.889930477E0
3.104155812E0,3.109500110E-1,4.239000320E0,8.944950104E0,9.903431021E0
3.106118934E0,3.490500152E-1,4.239000320E0,8.944950104E0,9.904700500E0
3.108082053E0,3.490500152E-1,4.239000320E0,8.944950104E0,9.904700500E0
3.110045169E0,3.870000243E-1,4.276950359E0,8.944950104E0,9.922409272E0
3.112008599E0,3.870000243E-1,4.201050282E0,8.944950104E0,9.889930477E0
3.113971937E0,3.490500152E-1,4.239000320E0,8.983950615E0,9.939936030E0
3.115935150E0,3.870000243E-1,4.239000320E0,8.983950615E0,9.941341026E0
3.117898400E0,3.490500152E-1,4.239000320E0,8.907000542E0,9.870441646E0
3.119861997E0,3.870000243E-1,4.276950359E0,8.983950615E0,9.957582139E0
3.121825485E0,3.870000243E-1,4.276950359E0,8.944950104E0,9.922409272E0
3.123788853E0,3.870000243E-1,4.239000320E0,8.907000542E0,9.871856532E0
3.125752256E0,3.870000243E-1,4.201050282E0,8.944950104E0,9.889930477E0
3.127715772E0,3.870000243E-1,4.239000320E0,8.944950104E0,9.906110493E0
3.129679254E0,3.490500152E-1,4.239000320E0,8.983950615E0,9.939936030E0
3.131642438E0,3.870000243E-1,4.201050282E0,8.944950104E0,9.889930477E0
3.133605713E0,3.490500152E-1,4.239000320E0,8.983950615E0,9.939936030E0
3.135568756E0,3.490500152E-1,4.201050282E0,8.944950104E0,9.888518177E0
3.137531867E0,3.490500152E-1,4.276950359E0,9.060000420E0,1.002485650E1
3.139494758E0,3.870000243E-1,4.201050282E0,9.022050858E0,9.959718578E0
3.141457713E0,3.490500152E-1,4.239000320E0,8.944950104E0,9.904700500E0
3.143420869E0,3.490500152E-1,4.239000320E0,9.022050858E0,9.974385260E0
3.145383956E0,3.870000243E-1,4.239000320E0,9.022050858E0,9.975785403E0
3.147347032E0,3.870000243E-1,4.239000320E0,8.983950615E0,9.941341026E0
3.149310112E0,3.109500110E-1,4.276950359E0,8.983950615E0,9.954916521E0
3.151273188E0,3.109500110E-1,4.239000320E0,9.022050858E0,9.973124651E0
3.153236265E0,3.490500152E-1,4.276950359E0,9.022050858E0,9.990572655E0
3.155199517E0,3.109500110E-1,4.276950359E0,9.022050858E0,9.989314089E0
3.157162721E0,3.490500152E-1,4.239000320E0,9.022050858E0,9.974385260E0
3.159126137E0,3.109500110E-1,4.276950359E0,9.022050858E0,9.989314089E0
3.161089490E0,3.490500152E-1,4.239000320E0,9.022050858E0,9.974385260E0
3.163052836E0,3.109500110E-1,4.239000320E0,9.136950493E0,1.007718601E1
3.165016185E0,3.109500110E-1,4.276950359E0,9.060000420E0,1.002360224E1
3.166979935E0,3.490500152E-1,4.315950394E0,9.022050858E0,1.000733058E1
3.168943567E0,2.719500065E-1,4.276950359E0,9.022050858E0,9.988176153E0
3.170907136E0,3.109500110E-1,4.276950359E0,9.098999977E0,1.005886648E1
3.172870723E0,3.109500110E-1,4.239000320E0,9.060000420E0,1.000746827E1
3.174834028E0,3.109500110E-1,4.239000320E0,9.098999977E0,1.004278916E1
3.176797415E0,3.109500110E-1,4.315950394E0,9.060000420E0,1.004030504E1
3.178761016E0,3.109500110E-1,4.276950359E0,9.098999977E0,1.005886648E1
3.180724528E0,3.109500110E-1,4.276950359E0,9.060000420E0,1.002360224E1
3.182687757E0,3.490500152E-1,4.239000320E0,9.022050858E0,9.974385260E0
3.184651069E0,3.490500152E-1,4.239000320E0,9.060000420E0,1.000872456E1
3.186614465E0,3.109500110E-1,4.276950359E0,9.060000420E0,1.002360224E1
3.188577836E0,3.109500110E-1,4.239000320E0,9.022050858E0,9.973124651E0
3.190541553E0,3.109500110E-1,4.239000320E0,9.022050858E0,9.973124651E0
3.192505158E0,2.719500065E-1,4.276950359E0,9.022050858E0,9.988176153E0
3.194468865E0,3.109500110E-1,4.276950359E0,9.022050858E0,9.989314089E0
3.196432542E0,3.109500110E-1,4.315950394E0,9.022050858E0,1.000607412E1
3.198395923E0,3.490500152E-1,4.276950359E0,9.022050858E0,9.990572655E0
3.200359390E0,3.490500152E-1,4.276950359E0,9.022050858E0,9.990572655E0
3.202322905E0,3.109500110E-1,4.276950359E0,9.022050858E0,9.989314089E0
3.204286398E0,3.109500110E-1,4.276950359E0,8.983950615E0,9.954916521E0
3.206249944E0,3.109500110E-1,4.276950359E0,9.022050858E0,9.989314089E0
3.208213475E0,3.109500110E-1,4.276950359E0,9.022050858E0,9.989314089E0
3.210177015E0,3.490500152E-1,4.239000320E0,8.944950104E0,9.904700500E0
3.212140552E0,3.109500110E-1,4.239000320E0,8.983950615E0,9.938671052E0
3.214104067E0,3.490500152E-1,4.239000320E0,8.983950615E0,9.939936030E0
3.216067605E0,3.870000243E-1,4.239000320E0,8.983950615E0,9.941341026E0
3.218031144E0,3.870000243E-1,4.239000320E0,9.022050858E0,9.975785403E0
3.219994682E0,3.490500152E-1,4.239000320E0,8.983950615E0,9.939936030E0
3.221958086E0,3.109500110E-1,4.201050282E0,8.983950615E0,9.922544131E0
3.223921530E0,3.870000243E-1,4.201050282E0,9.022050858E0,9.959718578E0
3.225884905E0,3.870000243E-1,4.201050282E0,9.022050858E0,9.959718578E0
3.227848300E0,3.490500152E-1,4.239000320E0,8.983950615E0,9.939936030E0
3.229811817E0,3.870000243E-1,4.201050282E0,9.022050858E0,9.959718578E0
3.231775298E0,3.870000243E-1,4.239000320E0,8.983950615E0,9.941341026E0
3.233738667E0,3.870000243E-1,4.201050282E0,8.944950104E0,9.889930477E0
3.235702069E0,4.260000288E-1,4.239000320E0,8.983950615E0,9.942935602E0
3.237665450E0,4.260000288E-1,4.201050282E0,9.060000420E0,9.995694428E0
3.239628838E0,3.870000243E-1,4.162050247E0,9.022050858E0,9.943331079E0
3.241592222E0,3.490500152E-1,4.239000320E0,8.983950615E0,9.939936030E0
3.243555607E0,3.870000243E-1,4.201050282E0,9.060000420E0,9.994108269E0
3.245518857E0,3.109500110E-1,4.239000320E0,8.983950615E0,9.938671052E0
3.247482146E0,3.870000243E-1,4.201050282E0,9.022050858E0,9.959718578E0
3.249445361E0,3.870000243E-1,4.239000320E0,9.022050858E0,9.975785403E0
3.251408602E0,2.719500065E-1,4.239000320E0,9.060000420E0,1.000633240E1
3.253372011E0,3.109500110E-1,4.276950359E0,9.022050858E0,9.989314089E0
3.255335370E0,3.109500110E-1,4.276950359E0,8.983950615E0,9.954916521E0
3.257298759E0,3.109500110E-1,4.239000320E0,8.944950104E0,9.903431021E0
3.259262139E0,3.490500152E-1,4.315950394E0,9.060000420E0,1.004155722E1
3.261225514E0,2.340000123E-1,4.276950359E0,9.060000420E0,1.002151026E1
3.263188898E0,3.109500110E-1,4.276950359E0,9.060000420E0,1.002360224E1
3.265152283E0,3.490500152E-1,4.315950394E0,9.022050858E0,1.000733058E1
3.267115667E0,3.109500110E-1,4.315950394E0,9.060000420E0,1.004030504E1
3.269079052E0,2.719500065E-1,4.276950359E0,8.983950615E0,9.953774653E0
3.271042437E0,2.719500065E-1,4.315950394E0,8.983950615E0,9.970594429E0
3.273005569E0,2.719500065E-1,4.276950359E0,8.944950104E0,9.918588284E0
3.274968795E0,3.109500110E-1,4.276950359E0,8.907000542E0,9.885527449E0
3.276932206E0,2.719500065E-1,4.354050159E0,8.944950104E0,9.952077268E0
3.278895562E0,3.490500152E-1,4.315950394E0,8.983950615E0,9.972995155E0
3.280859493E0,3.109500110E-1,4.276950359E0,8.983950615E0,9.954916521E0
3.282823255E0,3.109500110E-1,4.315950394E0,8.944950104E0,9.936611599E0
3.284786621E0,3.490500152E-1,4.315950394E0,8.944950104E0,9.937876839E0
3.286750103E0,3.109500110E-1,4.276950359E0,9.022050858E0,9.989314089E0
3.288713426E0,3.109500110E-1,4.276950359E0,8.907000542E0,9.885527449E0
3.290676795E0,3.870000243E-1,4.239000320E0,8.944950104E0,9.906110493E0
3.292639822E0,3.109500110E-1,4.239000320E0,8.944950104E0,9.903431021E0
3.294602949E0,3.490500152E-1,4.201050282E0,8.944950104E0,9.888518177E0
3.296566028E0,3.109500110E-1,4.239000320E0,8.907000542E0,9.869167760E0
3.298529146E0,3.109500110E-1,4.239000320E0,8.983950615E0,9.938671052E0
3.300492575E0,3.870000243E-1,4.239000320E0,8.944950104E0,9.906110493E0
3.302455913E0,3.870000243E-1,4.239000320E0,9.022050858E0,9.975785403E0
3.304419127E0,3.490500152E-1,4.239000320E0,9.022050858E0,9.974385260E0
3.306382377E0,4.260000288E-1,4.239000320E0,9.022050858E0,9.977374475E0
3.308345709E0,3.490500152E-1,4.201050282E0,8.983950615E0,9.923811165E0
3.310309038E0,3.490500152E-1,4.201050282E0,8.944950104E0,9.888518177E0
3.312272432E0,3.490500152E-1,4.239000320E0,8.983950615E0,9.939936030E0
3.314235807E0,3.870000243E-1,4.201050282E0,9.022050858E0,9.959718578E0
3.316199419E0,3.870000243E-1,4.201050282E0,9.022050858E0,9.959718578E0
3.318162961E0,3.870000243E-1,4.276950359E0,9.022050858E0,9.991970530E0
3.320126301E0,3.870000243E-1,4.239000320E0,9.060000420E0,1.001011990E1
3.322089713E0,3.490500152E-1,4.276950359E0,9.060000420E0,1.002485650E1
3.324053093E0,3.870000243E-1,4.276950359E0,9.060000420E0,1.002624960E1
3.326016483E0,3.870000243E-1,4.239000320E0,9.022050858E0,9.975785403E0
3.327979821E0,3.870000243E-1,4.239000320E0,9.060000420E0,1.001011990E1
3.329943175E0,3.870000243E-1,4.276950359E0,9.098999977E0,1.006150456E1
3.331906725E0,3.490500152E-1,4.315950394E0,9.060000420E0,1.004155722E1
3.333870231E0,3.109500110E-1,4.239000320E0,9.098999977E0,1.004278916E1
