"Time (s)","Acceleration x (m/s^2)","Acceleration y (m/s^2)","Acceleration z (m/s^2)","Absolute acceleration (m/s^2)"
7.803398000E-3,3.870000243E-1,4.315950394E0,8.983950615E0,9.974395494E0
3.269160900E-2,4.260000288E-1,4.392000198E0,8.869050026E0,9.906118823E0
3.465343200E-2,3.870000243E-1,4.392000198E0,8.869050026E0,9.904518319E0
3.661776300E-2,3.490500152E-1,4.392000198E0,8.830050468E0,9.868196032E0
3.858098600E-2,4.260000288E-1,4.392000198E0,8.869050026E0,9.906118823E0
4.054453300E-2,3.870000243E-1,4.392000198E0,8.830050468E0,9.869611240E0
4.250732000E-2,4.260000288E-1,4.431000233E0,8.869050026E0,9.923471542E0
4.447035000E-2,4.260000288E-1,4.431000233E0,8.869050026E0,9.923471542E0
4.643325500E-2,4.260000288E-1,4.431000233E0,8.907000542E0,9.957404167E0
4.839619600E-2,3.870000243E-1,4.431000233E0,8.869050026E0,9.921873837E0
5.035934000E-2,3.870000243E-1,4.431000233E0,8.869050026E0,9.921873837E0
5.232242500E-2,3.870000243E-1,4.431000233E0,8.869050026E0,9.921873837E0
5.428560100E-2,3.490500152E-1,4.392000198E0,8.907000542E0,9.937110259E0
5.624877500E-2,3.870000243E-1,4.431000233E0,8.869050026E0,9.921873837E0
5.821152100E-2,3.870000243E-1,4.392000198E0,8.907000542E0,9.938515654E0
6.017439300E-2,3.870000243E-1,4.392000198E0,8.869050026E0,9.904518319E0
6.213732400E-2,3.490500152E-1,4.431000233E0,8.869050026E0,9.920466085E0
6.410023700E-2,3.870000243E-1,4.392000198E0,8.907000542E0,9.938515654E0
6.606309800E-2,3.490500152E-1,4.392000198E0,8.907000542E0,9.937110259E0
6.802598800E-2,4.260000288E-1,4.392000198E0,8.869050026E0,9.906118823E0
6.998891600E-2,3.870000243E-1,4.392000198E0,8.830050468E0,9.869611240E0
7.195183200E-2,3.870000243E-1,4.392000198E0,8.907000542E0,9.938515654E0
7.391498200E-2,3.870000243E-1,4.392000198E0,8.830050468E0,9.869611240E0
7.587806300E-2,3.870000243E-1,4.392000198E0,8.907000542E0,9.938515654E0
7.784146100E-2,3.490500152E-1,4.431000233E0,8.869050026E0,9.920466085E0
7.980479300E-2,3.490500152E-1,4.392000198E0,8.869050026E0,9.903108099E0
8.176800800E-2,3.490500152E-1,4.431000233E0,8.907000542E0,9.954408954E0
8.373125700E-2,3.870000243E-1,4.431000233E0,8.869050026E0,9.921873837E0
8.569461900E-2,3.870000243E-1,4.392000198E0,8.907000542E0,9.938515654E0
8.765794700E-2,3.109500110E-1,4.392000198E0,8.944950104E0,9.969879037E0
8.962113800E-2,3.109500110E-1,4.392000198E0,8.907000542E0,9.935844921E0
9.158438700E-2,3.109500110E-1,4.392000198E0,8.907000542E0,9.935844921E0
9.354747900E-2,3.490500152E-1,4.354050159E0,8.983950615E0,9.989542400E0
9.551061700E-2,3.490500152E-1,4.354050159E0,8.944950104E0,9.954482461E0
9.747386300E-2,3.490500152E-1,4.354050159E0,8.944950104E0,9.954482461E0
9.943707700E-2,3.109500110E-1,4.354050159E0,8.907000542E0,9.919128054E0
1.014001220E-1,3.490500152E-1,4.392000198E0,8.907000542E0,9.937110259E0
1.033632230E-1,3.490500152E-1,4.354050159E0,8.983950615E0,9.989542400E0
1.053264300E-1,3.490500152E-1,4.354050159E0,8.983950615E0,9.989542400E0
1.072896060E-1,3.490500152E-1,4.354050159E0,8.907000542E0,9.920395524E0
1.092528910E-1,3.490500152E-1,4.354050159E0,8.983950615E0,9.989542400E0
1.112161440E-1,3.109500110E-1,4.354050159E0,8.983950615E0,9.988283704E0
1.131791130E-1,3.490500152E-1,4.354050159E0,8.944950104E0,9.954482461E0
1.151421890E-1,3.490500152E-1,4.392000198E0,8.944950104E0,9.971140056E0
1.171053100E-1,3.490500152E-1,4.354050159E0,8.944950104E0,9.954482461E0
1.190684180E-1,3.109500110E-1,4.354050159E0,8.944950104E0,9.953219331E0
1.210318500E-1,2.340000123E-1,4.315950394E0,8.944950104E0,9.934501304E0
1.229951870E-1,3.109500110E-1,4.354050159E0,8.944950104E0,9.953219331E0
1.249583370E-1,3.109500110E-1,4.354050159E0,8.944950104E0,9.953219331E0
1.269215550E-1,2.719500065E-1,4.354050159E0,8.944950104E0,9.952077268E0
1.288844720E-1,3.109500110E-1,4.392000198E0,8.983950615E0,1.000488502E1
1.308474780E-1,3.490500152E-1,4.354050159E0,8.983950615E0,9.989542400E0
1.328105660E-1,3.109500110E-1,4.354050159E0,8.983950615E0,9.988283704E0
1.347736290E-1,3.109500110E-1,4.354050159E0,8.983950615E0,9.988283704E0
1.367365110E-1,3.109500110E-1,4.354050159E0,9.022050858E0,1.002256676E1
1.386994590E-1,2.719500065E-1,4.392000198E0,8.983950615E0,1.000374886E1
1.406626920E-1,3.109500110E-1,4.354050159E0,8.983950615E0,9.988283704E0
1.426258410E-1,2.719500065E-1,4.354050159E0,8.983950615E0,9.987145651E0
1.445889070E-1,3.109500110E-1,4.354050159E0,9.022050858E0,1.002256676E1
1.465519970E-1,3.109500110E-1,4.354050159E0,8.944950104E0,9.953219331E0
1.485150390E-1,3.109500110E-1,4.354050159E0,8.983950615E0,9.988283704E0
1.504781180E-1,3.490500152E-1,4.392000198E0,8.983950615E0,1.000614163E1
1.524411950E-1,2.719500065E-1,4.354050159E0,8.944950104E0,9.952077268E0
1.544042720E-1,2.719500065E-1,4.315950394E0,8.944950104E0,9.935467627E0
1.563675730E-1,3.490500152E-1,4.354050159E0,8.944950104E0,9.954482461E0
1.583308080E-1,3.490500152E-1,4.315950394E0,8.944950104E0,9.937876839E0
1.602941400E-1,3.490500152E-1,4.315950394E0,8.907000542E0,9.903732749E0
1.622574670E-1,3.109500110E-1,4.315950394E0,8.944950104E0,9.936611599E0
1.642203220E-1,3.490500152E-1,4.315950394E0,8.907000542E0,9.903732749E0
1.661833150E-1,3.490500152E-1,4.315950394E0,8.907000542E0,9.903732749E0
1.681462260E-1,3.490500152E-1,4.315950394E0,8.944950104E0,9.937876839E0
1.701091610E-1,3.490500152E-1,4.354050159E0,8.907000542E0,9.920395524E0
1.720722720E-1,3.870000243E-1,4.354050159E0,9.022050858E0,1.002521439E1
1.740353560E-1,3.490500152E-1,4.354050159E0,8.983950615E0,9.989542400E0
1.759987920E-1,3.490500152E-1,4.354050159E0,8.983950615E0,9.989542400E0
1.779621250E-1,3.490500152E-1,4.354050159E0,8.983950615E0,9.989542400E0
1.799254730E-1,3.109500110E-1,4.354050159E0,8.944950104E0,9.953219331E0
1.818888170E-1,3.490500152E-1,4.354050159E0,8.983950615E0,9.989542400E0
1.838516950E-1,3.490500152E-1,4.354050159E0,8.944950104E0,9.954482461E0
1.858147230E-1,3.870000243E-1,4.354050159E0,8.983950615E0,9.990940419E0
1.877779430E-1,3.109500110E-1,4.315950394E0,8.983950615E0,9.971734371E0
1.897411060E-1,3.109500110E-1,4.354050159E0,8.983950615E0,9.988283704E0
1.917043490E-1,3.490500152E-1,4.354050159E0,8.983950615E0,9.989542400E0
1.936675680E-1,3.490500152E-1,4.315950394E0,9.022050858E0,1.000733058E1
1.956305680E-1,3.109500110E-1,4.354050159E0,9.022050858E0,1.002256676E1
1.975936700E-1,3.870000243E-1,4.354050159E0,8.983950615E0,9.990940419E0
1.995567430E-1,3.490500152E-1,4.354050159E0,8.983950615E0,9.989542400E0
2.015198240E-1,3.109500110E-1,4.354050159E0,8.983950615E0,9.988283704E0
2.034827200E-1,2.719500065E-1,4.354050159E0,9.060000420E0,1.005561123E1
2.054456700E-1,3.109500110E-1,4.354050159E0,9.022050858E0,1.002256676E1
2.074085740E-1,3.109500110E-1,4.354050159E0,9.022050858E0,1.002256676E1
2.093715020E-1,2.719500065E-1,4.354050159E0,9.022050858E0,1.002143260E1
2.113342890E-1,2.719500065E-1,4.354050159E0,9.022050858E0,1.002143260E1
2.132971170E-1,3.109500110E-1,4.392000198E0,9.022050858E0,1.003911138E1
2.152596510E-1,3.109500110E-1,4.315950394E0,9.060000420E0,1.004030504E1
2.172222710E-1,3.109500110E-1,4.315950394E0,9.022050858E0,1.000607412E1
2.191850810E-1,3.490500152E-1,4.315950394E0,9.022050858E0,1.000733058E1
2.211478550E-1,3.109500110E-1,4.315950394E0,8.944950104E0,9.936611599E0
2.231107590E-1,3.490500152E-1,4.354050159E0,9.022050858E0,1.002382115E1
2.250736240E-1,3.109500110E-1,4.354050159E0,8.983950615E0,9.988283704E0
2.270365580E-1,3.109500110E-1,4.354050159E0,8.983950615E0,9.988283704E0
2.289994710E-1,3.490500152E-1,4.354050159E0,8.983950615E0,9.989542400E0
2.309622570E-1,3.109500110E-1,4.354050159E0,8.983950615E0,9.988283704E0
2.329250840E-1,3.490500152E-1,4.354050159E0,8.944950104E0,9.954482461E0
2.348885180E-1,3.490500152E-1,4.315950394E0,9.022050858E0,1.000733058E1
2.368517740E-1,3.490500152E-1,4.354050159E0,8.944950104E0,9.954482461E0
2.388152260E-1,3.109500110E-1,4.392000198E0,8.944950104E0,9.969879037E0
2.407786210E-1,4.260000288E-1,4.354050159E0,8.983950615E0,9.992527081E0
2.427419590E-1,3.490500152E-1,4.354050159E0,8.983950615E0,9.989542400E0
2.447053140E-1,2.719500065E-1,4.354050159E0,8.944950104E0,9.952077268E0
2.466682080E-1,3.490500152E-1,4.392000198E0,8.944950104E0,9.971140056E0
2.486312370E-1,3.109500110E-1,4.315950394E0,8.907000542E0,9.902463146E0
2.505942760E-1,3.490500152E-1,4.392000198E0,8.907000542E0,9.937110259E0
2.525573120E-1,3.870000243E-1,4.354050159E0,8.983950615E0,9.990940419E0
2.545200810E-1,3.109500110E-1,4.392000198E0,8.907000542E0,9.935844921E0
2.564829290E-1,3.490500152E-1,4.354050159E0,8.944950104E0,9.954482461E0
2.584462250E-1,3.490500152E-1,4.354050159E0,8.907000542E0,9.920395524E0
2.604093890E-1,3.870000243E-1,4.354050159E0,8.907000542E0,9.921803287E0
2.623722270E-1,3.490500152E-1,4.354050159E0,8.944950104E0,9.954482461E0
2.643351600E-1,3.490500152E-1,4.354050159E0,8.944950104E0,9.954482461E0
2.662981250E-1,4.260000288E-1,4.392000198E0,8.944950104E0,9.974130244E0
2.682610500E-1,3.490500152E-1,4.315950394E0,8.983950615E0,9.972995155E0
2.702238380E-1,3.490500152E-1,4.392000198E0,8.907000542E0,9.937110259E0
2.721866660E-1,3.109500110E-1,4.392000198E0,8.944950104E0,9.969879037E0
2.741497840E-1,3.870000243E-1,4.392000198E0,8.944950104E0,9.972540655E0
2.761128170E-1,3.490500152E-1,4.392000198E0,8.907000542E0,9.937110259E0
2.780759060E-1,3.870000243E-1,4.354050159E0,8.869050026E0,9.887748489E0
2.800389750E-1,3.870000243E-1,4.392000198E0,8.907000542E0,9.938515654E0
2.820020090E-1,4.260000288E-1,4.354050159E0,8.907000542E0,9.923401003E0
2.839650540E-1,3.490500152E-1,4.392000198E0,8.907000542E0,9.937110259E0
2.859283160E-1,3.870000243E-1,4.354050159E0,8.869050026E0,9.887748489E0
2.878915140E-1,3.490500152E-1,4.354050159E0,8.869050026E0,9.886335877E0
2.898546360E-1,4.260000288E-1,4.354050159E0,8.983950615E0,9.992527081E0
2.918177670E-1,3.870000243E-1,4.354050159E0,8.907000542E0,9.921803287E0
2.937806540E-1,3.490500152E-1,4.392000198E0,8.907000542E0,9.937110259E0
2.957436130E-1,3.490500152E-1,4.392000198E0,8.869050026E0,9.903108099E0
2.977066640E-1,3.870000243E-1,4.354050159E0,8.907000542E0,9.921803287E0
2.996696880E-1,3.490500152E-1,4.392000198E0,8.944950104E0,9.971140056E0
3.016328190E-1,4.260000288E-1,4.392000198E0,8.907000542E0,9.940110684E0
3.035959180E-1,3.490500152E-1,4.315950394E0,8.907000542E0,9.903732749E0
3.055588120E-1,3.490500152E-1,4.392000198E0,8.907000542E0,9.937110259E0
3.075217670E-1,3.870000243E-1,4.354050159E0,8.907000542E0,9.921803287E0
3.094846840E-1,3.490500152E-1,4.392000198E0,8.869050026E0,9.903108099E0
3.114476130E-1,3.870000243E-1,4.392000198E0,8.907000542E0,9.938515654E0
3.134104850E-1,3.490500152E-1,4.354050159E0,8.907000542E0,9.920395524E0
3.153733770E-1,3.870000243E-1,4.392000198E0,8.830050468E0,9.869611240E0
3.173365300E-1,3.490500152E-1,4.392000198E0,8.830050468E0,9.868196032E0
3.192996060E-1,3.870000243E-1,4.392000198E0,8.830050468E0,9.869611240E0
3.212626830E-1,3.490500152E-1,4.431000233E0,8.869050026E0,9.920466085E0
3.232257600E-1,3.870000243E-1,4.392000198E0,8.907000542E0,9.938515654E0
3.251888660E-1,3.870000243E-1,4.392000198E0,8.907000542E0,9.938515654E0
3.271519430E-1,3.490500152E-1,4.392000198E0,8.869050026E0,9.903108099E0
3.291149750E-1,3.870000243E-1,4.392000198E0,8.869050026E0,9.904518319E0
3.310780210E-1,3.490500152E-1,4.431000233E0,8.869050026E0,9.920466085E0
3.330407880E-1,3.490500152E-1,4.392000198E0,8.869050026E0,9.903108099E0
3.350036370E-1,3.870000243E-1,4.392000198E0,8.944950104E0,9.972540655E0
3.369667260E-1,3.490500152E-1,4.392000198E0,8.907000542E0,9.937110259E0
3.389297310E-1,3.870000243E-1,4.392000198E0,8.944950104E0,9.972540655E0
3.408926410E-1,3.870000243E-1,4.354050159E0,8.944950104E0,9.955885404E0
3.428555790E-1,3.870000243E-1,4.354050159E0,8.869050026E0,9.887748489E0
3.448181840E-1,3.870000243E-1,4.354050159E0,8.907000542E0,9.921803287E0
3.467808870E-1,3.490500152E-1,4.354050159E0,8.907000542E0,9.920395524E0
3.487438610E-1,3.490500152E-1,4.392000198E0,8.944950104E0,9.971140056E0
3.507067450E-1,3.490500152E-1,4.392000198E0,8.907000542E0,9.937110259E0
3.526696300E-1,3.870000243E-1,4.354050159E0,8.944950104E0,9.955885404E0
3.546325140E-1,3.870000243E-1,4.354050159E0,8.944950104E0,9.955885404E0
3.565956240E-1,3.870000243E-1,4.392000198E0,8.907000542E0,9.938515654E0
3.585586680E-1,3.870000243E-1,4.354050159E0,8.944950104E0,9.955885404E0
3.605219220E-1,3.490500152E-1,4.392000198E0,8.907000542E0,9.937110259E0
3.624851200E-1,3.870000243E-1,4.354050159E0,8.944950104E0,9.955885404E0
3.644483570E-1,3.490500152E-1,4.392000198E0,8.983950615E0,1.000614163E1
3.664115820E-1,3.870000243E-1,4.354050159E0,8.944950104E0,9.955885404E0
3.683748140E-1,3.490500152E-1,4.392000198E0,8.944950104E0,9.971140056E0
3.703380440E-1,3.490500152E-1,4.392000198E0,8.983950615E0,1.000614163E1
3.723016250E-1,4.260000288E-1,4.392000198E0,8.944950104E0,9.974130244E0
3.742651100E-1,3.109500110E-1,4.392000198E0,8.907000542E0,9.935844921E0
3.762279830E-1,3.870000243E-1,4.392000198E0,8.944950104E0,9.972540655E0
3.781910360E-1,3.490500152E-1,4.392000198E0,8.944950104E0,9.971140056E0
3.801537560E-1,3.109500110E-1,4.392000198E0,8.907000542E0,9.935844921E0
3.821165740E-1,3.109500110E-1,4.392000198E0,8.907000542E0,9.935844921E0
3.840798450E-1,3.490500152E-1,4.392000198E0,8.944950104E0,9.971140056E0
3.860429720E-1,3.490500152E-1,4.392000198E0,8.869050026E0,9.903108099E0
3.880060410E-1,3.490500152E-1,4.392000198E0,8.869050026E0,9.903108099E0
3.899691270E-1,3.490500152E-1,4.354050159E0,8.907000542E0,9.920395524E0
3.919320230E-1,3.109500110E-1,4.392000198E0,8.944950104E0,9.969879037E0
3.938949740E-1,3.870000243E-1,4.354050159E0,8.907000542E0,9.921803287E0
3.958579360E-1,3.870000243E-1,4.354050159E0,8.944950104E0,9.955885404E0
3.978208950E-1,3.490500152E-1,4.354050159E0,8.944950104E0,9.954482461E0
3.997841720E-1,3.490500152E-1,4.392000198E0,8.944950104E0,9.971140056E0
4.017473560E-1,3.490500152E-1,4.354050159E0,8.944950104E0,9.954482461E0
4.037103710E-1,3.870000243E-1,4.392000198E0,8.983950615E0,1.000753733E1
4.056734350E-1,3.870000243E-1,4.354050159E0,8.983950615E0,9.990940419E0
4.076367080E-1,3.490500152E-1,4.392000198E0,8.983950615E0,1.000614163E1
4.095999090E-1,3.870000243E-1,4.354050159E0,8.944950104E0,9.955885404E0
4.115629660E-1,3.870000243E-1,4.354050159E0,8.944950104E0,9.955885404E0
4.135260650E-1,3.109500110E-1,4.392000198E0,8.944950104E0,9.969879037E0
4.154890030E-1,3.109500110E-1,4.392000198E0,8.944950104E0,9.969879037E0
4.174519880E-1,3.109500110E-1,4.392000198E0,8.944950104E0,9.969879037E0
4.194150850E-1,2.719500065E-1,4.392000198E0,8.944950104E0,9.968738882E0
4.213781450E-1,3.109500110E-1,4.392000198E0,8.907000542E0,9.935844921E0
4.233415400E-1,3.109500110E-1,4.392000198E0,8.944950104E0,9.969879037E0
4.253048370E-1,3.109500110E-1,4.392000198E0,8.944950104E0,9.969879037E0
4.272682370E-1,2.719500065E-1,4.468950272E0,8.944950104E0,1.000287987E1
4.292316060E-1,3.109500110E-1,4.392000198E0,8.907000542E0,9.935844921E0
4.311950020E-1,3.490500152E-1,4.431000233E0,8.944950104E0,9.988379815E0
4.331583840E-1,2.719500065E-1,4.431000233E0,8.944950104E0,9.985982787E0
4.351214550E-1,2.719500065E-1,4.468950272E0,8.907000542E0,9.968958420E0
4.370846170E-1,2.719500065E-1,4.392000198E0,8.907000542E0,9.934700861E0
4.390478140E-1,2.719500065E-1,4.431000233E0,8.907000542E0,9.952003744E0
4.410110000E-1,2.719500065E-1,4.468950272E0,8.907000542E0,9.968958420E0
4.429741040E-1,2.719500065E-1,4.431000233E0,8.944950104E0,9.985982787E0
4.449372330E-1,2.719500065E-1,4.431000233E0,8.907000542E0,9.952003744E0
4.469004800E-1,2.340000123E-1,4.392000198E0,8.907000542E0,9.933734464E0
4.488636920E-1,3.109500110E-1,4.431000233E0,8.907000542E0,9.953145815E0
4.508267020E-1,2.719500065E-1,4.392000198E0,8.907000542E0,9.934700861E0
4.527897710E-1,2.719500065E-1,4.431000233E0,8.869050026E0,9.918052643E0
4.547526550E-1,3.109500110E-1,4.392000198E0,8.907000542E0,9.935844921E0
4.567156030E-1,3.109500110E-1,4.392000198E0,8.907000542E0,9.935844921E0
4.586787460E-1,3.109500110E-1,4.392000198E0,8.830050468E0,9.866921857E0
4.606418320E-1,3.490500152E-1,4.392000198E0,8.830050468E0,9.868196032E0
4.626050430E-1,3.490500152E-1,4.354050159E0,8.869050026E0,9.886335877E0
4.645682170E-1,3.870000243E-1,4.354050159E0,8.869050026E0,9.887748489E0
4.665313370E-1,3.490500152E-1,4.315950394E0,8.791950226E0,9.800390425E0
4.684944630E-1,3.870000243E-1,4.315950394E0,8.869050026E0,9.871030604E0
4.704573520E-1,3.870000243E-1,4.354050159E0,8.907000542E0,9.921803287E0
4.724203100E-1,4.260000288E-1,4.276950359E0,8.907000542E0,9.889814915E0
4.743833610E-1,3.490500152E-1,4.315950394E0,8.907000542E0,9.903732749E0
4.763463840E-1,3.870000243E-1,4.315950394E0,8.869050026E0,9.871030604E0
4.783092920E-1,3.870000243E-1,4.354050159E0,8.907000542E0,9.921803287E0
4.802722330E-1,4.260000288E-1,4.354050159E0,8.907000542E0,9.923401003E0
4.822355120E-1,3.870000243E-1,4.392000198E0,8.944950104E0,9.972540655E0
4.841986920E-1,4.260000288E-1,4.354050159E0,8.983950615E0,9.992527081E0
4.861619770E-1,3.870000243E-1,4.354050159E0,8.983950615E0,9.990940419E0
4.881252310E-1,3.490500152E-1,4.392000198E0,8.907000542E0,9.937110259E0
4.900882640E-1,3.870000243E-1,4.354050159E0,8.944950104E0,9.955885404E0
4.920513720E-1,4.260000288E-1,4.392000198E0,8.983950615E0,1.000912136E1
4.940145780E-1,3.870000243E-1,4.354050159E0,8.983950615E0,9.990940419E0
4.959777550E-1,3.870000243E-1,4.392000198E0,8.983950615E0,1.000753733E1
4.979410400E-1,4.260000288E-1,4.392000198E0,8.944950104E0,9.974130244E0
4.999042940E-1,3.870000243E-1,4.392000198E0,8.944950104E0,9.972540655E0
5.018672970E-1,3.870000243E-1,4.392000198E0,8.944950104E0,9.972540655E0
5.038303730E-1,3.490500152E-1,4.392000198E0,8.983950615E0,1.000614163E1
5.057934490E-1,3.870000243E-1,4.392000198E0,8.944950104E0,9.972540655E0
5.077565250E-1,3.870000243E-1,4.392000198E0,8.983950615E0,1.000753733E1
5.097197820E-1,3.490500152E-1,4.392000198E0,8.983950615E0,1.000614163E1
5.116829860E-1,3.490500152E-1,4.392000198E0,8.944950104E0,9.971140056E0
5.136458680E-1,3.870000243E-1,4.392000198E0,8.907000542E0,9.938515654E0
5.156088720E-1,3.870000243E-1,4.392000198E0,9.022050858E0,1.004175465E1
5.175720960E-1,3.490500152E-1,4.392000198E0,8.983950615E0,1.000614163E1
5.195352550E-1,3.870000243E-1,4.392000198E0,8.983950615E0,1.000753733E1
5.214981390E-1,4.260000288E-1,4.392000198E0,9.060000420E0,1.007743764E1
5.234611030E-1,3.870000243E-1,4.392000198E0,8.983950615E0,1.000753733E1
5.254243740E-1,3.870000243E-1,4.392000198E0,9.060000420E0,1.007586435E1
5.273875580E-1,3.870000243E-1,4.392000198E0,9.022050858E0,1.004175465E1
5.293508420E-1,3.490500152E-1,4.354050159E0,9.022050858E0,1.002382115E1
5.313140970E-1,3.490500152E-1,4.315950394E0,9.022050858E0,1.000733058E1
5.332773240E-1,3.490500152E-1,4.354050159E0,8.983950615E0,9.989542400E0
5.352405600E-1,3.490500152E-1,4.354050159E0,8.983950615E0,9.989542400E0
5.372039040E-1,3.870000243E-1,4.354050159E0,9.022050858E0,1.002521439E1
5.391672310E-1,3.490500152E-1,4.354050159E0,9.022050858E0,1.002382115E1
5.411306710E-1,3.490500152E-1,4.315950394E0,9.022050858E0,1.000733058E1
5.430940770E-1,3.490500152E-1,4.276950359E0,9.060000420E0,1.002485650E1
5.450572780E-1,3.109500110E-1,4.315950394E0,9.022050858E0,1.000607412E1
5.470205400E-1,3.870000243E-1,4.354050159E0,9.022050858E0,1.002521439E1
5.489839190E-1,3.870000243E-1,4.276950359E0,9.060000420E0,1.002624960E1
5.509472500E-1,3.490500152E-1,4.315950394E0,9.098999977E0,1.007675862E1
5.529106440E-1,3.490500152E-1,4.239000320E0,9.098999977E0,1.004404103E1
5.548740190E-1,3.490500152E-1,4.315950394E0,9.098999977E0,1.007675862E1
5.568370460E-1,3.109500110E-1,4.315950394E0,9.098999977E0,1.007551082E1
5.588001750E-1,3.490500152E-1,4.276950359E0,9.098999977E0,1.006011634E1
5.607631040E-1,3.490500152E-1,4.315950394E0,9.098999977E0,1.007675862E1
5.627260940E-1,3.109500110E-1,4.315950394E0,9.022050858E0,1.000607412E1
5.646891400E-1,3.490500152E-1,4.276950359E0,9.060000420E0,1.002485650E1
5.666521690E-1,3.490500152E-1,4.315950394E0,9.022050858E0,1.000733058E1
5.686150750E-1,3.490500152E-1,4.315950394E0,9.022050858E0,1.000733058E1
5.705780170E-1,4.260000288E-1,4.315950394E0,9.022050858E0,1.001030996E1
5.725413360E-1,3.870000243E-1,4.276950359E0,8.983950615E0,9.957582139E0
5.745045480E-1,3.490500152E-1,4.276950359E0,8.983950615E0,9.956179435E0
5.764677820E-1,3.870000243E-1,4.315950394E0,9.022050858E0,1.000872612E1
5.784310100E-1,3.870000243E-1,4.315950394E0,8.944950104E0,9.939282126E0
5.803943760E-1,4.260000288E-1,4.315950394E0,8.983950615E0,9.975984787E0
5.823577020E-1,3.870000243E-1,4.315950394E0,8.944950104E0,9.939282126E0
5.843209580E-1,3.870000243E-1,4.315950394E0,8.944950104E0,9.939282126E0
5.862842380E-1,3.490500152E-1,4.315950394E0,8.944950104E0,9.937876839E0
5.882475940E-1,3.870000243E-1,4.315950394E0,8.944950104E0,9.939282126E0
5.902109280E-1,4.639500082E-1,4.315950394E0,8.944950104E0,9.942575610E0
5.921741420E-1,3.870000243E-1,4.315950394E0,8.907000542E0,9.905142880E0
5.941373920E-1,3.870000243E-1,4.315950394E0,8.907000542E0,9.905142880E0
5.961007830E-1,3.870000243E-1,4.354050159E0,8.944950104E0,9.955885404E0
5.980641440E-1,3.870000243E-1,4.354050159E0,8.869050026E0,9.887748489E0
6.000272180E-1,4.260000288E-1,4.354050159E0,8.869050026E0,9.889351707E0
6.019903770E-1,4.260000288E-1,4.354050159E0,8.907000542E0,9.923401003E0
6.039535740E-1,3.870000243E-1,4.354050159E0,8.907000542E0,9.921803287E0
6.059167590E-1,4.260000288E-1,4.354050159E0,8.869050026E0,9.889351707E0
6.078800080E-1,3.870000243E-1,4.354050159E0,8.907000542E0,9.921803287E0
6.098432310E-1,3.870000243E-1,4.392000198E0,8.869050026E0,9.904518319E0
6.118066430E-1,4.260000288E-1,4.354050159E0,8.869050026E0,9.889351707E0
6.137700000E-1,3.870000243E-1,4.392000198E0,8.944950104E0,9.972540655E0
6.157330750E-1,3.870000243E-1,4.392000198E0,8.907000542E0,9.938515654E0
6.176962330E-1,3.870000243E-1,4.315950394E0,8.907000542E0,9.905142880E0
6.196590750E-1,3.870000243E-1,4.392000198E0,8.869050026E0,9.904518319E0
6.216220070E-1,3.490500152E-1,4.392000198E0,8.907000542E0,9.937110259E0
6.235852880E-1,3.870000243E-1,4.354050159E0,8.944950104E0,9.955885404E0
6.255484670E-1,4.260000288E-1,4.392000198E0,8.944950104E0,9.974130244E0
6.275115720E-1,3.490500152E-1,4.392000198E0,8.944950104E0,9.971140056E0
6.294746990E-1,3.870000243E-1,4.354050159E0,8.983950615E0,9.990940419E0
6.314379560E-1,3.109500110E-1,4.392000198E0,8.944950104E0,9.969879037E0
6.334011680E-1,3.870000243E-1,4.392000198E0,8.944950104E0,9.972540655E0
6.353645820E-1,3.870000243E-1,4.354050159E0,8.983950615E0,9.990940419E0
6.373279370E-1,3.490500152E-1,4.392000198E0,8.983950615E0,1.000614163E1
6.392911030E-1,3.490500152E-1,4.354050159E0,8.983950615E0,9.989542400E0
6.412543240E-1,3.490500152E-1,4.392000198E0,9.022050858E0,1.004036371E1
6.432171870E-1,3.490500152E-1,4.354050159E0,8.944950104E0,9.954482461E0
6.451801610E-1,3.109500110E-1,4.392000198E0,8.944950104E0,9.969879037E0
6.471433000E-1,3.490500152E-1,4.354050159E0,8.944950104E0,9.954482461E0
6.491063900E-1,3.490500152E-1,4.392000198E0,8.983950615E0,1.000614163E1
6.510698250E-1,3.490500152E-1,4.392000198E0,9.022050858E0,1.004036371E1
6.530331590E-1,3.490500152E-1,4.392000198E0,8.983950615E0,1.000614163E1
6.549961730E-1,3.870000243E-1,4.392000198E0,9.022050858E0,1.004175465E1
6.569592950E-1,3.490500152E-1,4.392000198E0,8.983950615E0,1.000614163E1
6.589226780E-1,3.490500152E-1,4.392000198E0,8.983950615E0,1.000614163E1
6.608859850E-1,3.490500152E-1,4.392000198E0,8.944950104E0,9.971140056E0
6.628492490E-1,3.490500152E-1,4.392000198E0,8.983950615E0,1.000614163E1
6.648125260E-1,3.490500152E-1,4.431000233E0,8.983950615E0,1.002332119E1
6.667753840E-1,3.490500152E-1,4.354050159E0,8.944950104E0,9.954482461E0
6.687383680E-1,3.109500110E-1,4.354050159E0,8.983950615E0,9.988283704E0
6.707017750E-1,3.490500152E-1,4.392000198E0,8.944950104E0,9.971140056E0
6.726650580E-1,3.109500110E-1,4.392000198E0,8.944950104E0,9.969879037E0
6.746282810E-1,3.490500152E-1,4.354050159E0,8.944950104E0,9.954482461E0
6.765915220E-1,3.109500110E-1,4.354050159E0,8.944950104E0,9.953219331E0
6.785546050E-1,3.109500110E-1,4.354050159E0,8.983950615E0,9.988283704E0
6.805177420E-1,3.109500110E-1,4.392000198E0,8.944950104E0,9.969879037E0
6.824809880E-1,3.490500152E-1,4.354050159E0,8.944950104E0,9.954482461E0
6.844442020E-1,3.109500110E-1,4.354050159E0,8.983950615E0,9.988283704E0
6.864075710E-1,3.109500110E-1,4.354050159E0,8.944950104E0,9.953219331E0
6.883708940E-1,3.109500110E-1,4.354050159E0,8.944950104E0,9.953219331E0
6.903339200E-1,3.109500110E-1,4.392000198E0,8.983950615E0,1.000488502E1
6.922970400E-1,3.490500152E-1,4.354050159E0,8.944950104E0,9.954482461E0
6.942602890E-1,3.490500152E-1,4.315950394E0,8.983950615E0,9.972995155E0
6.962235000E-1,3.490500152E-1,4.315950394E0,8.983950615E0,9.972995155E0
6.981870950E-1,3.109500110E-1,4.392000198E0,8.983950615E0,1.000488502E1
7.001505770E-1,3.490500152E-1,4.392000198E0,8.983950615E0,1.000614163E1
7.021139700E-1,3.109500110E-1,4.392000198E0,8.983950615E0,1.000488502E1
7.040773720E-1,3.490500152E-1,4.354050159E0,8.944950104E0,9.954482461E0
7.060405730E-1,3.870000243E-1,4.392000198E0,8.983950615E0,1.000753733E1
7.080038330E-1,3.490500152E-1,4.354050159E0,9.022050858E0,1.002382115E1
7.099671030E-1,3.490500152E-1,4.392000198E0,8.944950104E0,9.971140056E0
7.119303700E-1,3.870000243E-1,4.392000198E0,8.944950104E0,9.972540655E0
7.138935420E-1,3.490500152E-1,4.354050159E0,8.944950104E0,9.954482461E0
7.158567480E-1,3.870000243E-1,4.354050159E0,9.022050858E0,1.002521439E1
7.178200270E-1,3.870000243E-1,4.354050159E0,8.983950615E0,9.990940419E0
7.197832840E-1,3.109500110E-1,4.354050159E0,8.944950104E0,9.953219331E0
7.217465120E-1,3.490500152E-1,4.354050159E0,8.944950104E0,9.954482461E0
7.237097480E-1,3.870000243E-1,4.354050159E0,9.022050858E0,1.002521439E1
7.256729170E-1,3.870000243E-1,4.354050159E0,8.907000542E0,9.921803287E0
7.276361170E-1,3.870000243E-1,4.392000198E0,8.944950104E0,9.972540655E0
7.295997120E-1,3.490500152E-1,4.354050159E0,8.944950104E0,9.954482461E0
7.315631920E-1,3.490500152E-1,4.354050159E0,8.944950104E0,9.954482461E0
7.335266060E-1,3.490500152E-1,4.315950394E0,8.944950104E0,9.937876839E0
7.354900400E-1,3.870000243E-1,4.315950394E0,8.944950104E0,9.939282126E0
7.374532360E-1,3.109500110E-1,4.354050159E0,8.983950615E0,9.988283704E0
7.394165020E-1,3.490500152E-1,4.315950394E0,8.907000542E0,9.903732749E0
7.413797260E-1,3.870000243E-1,4.354050159E0,8.944950104E0,9.955885404E0
7.433429630E-1,3.109500110E-1,4.392000198E0,8.944950104E0,9.969879037E0
7.453063720E-1,3.490500152E-1,4.354050159E0,8.944950104E0,9.954482461E0
7.472697310E-1,3.870000243E-1,4.354050159E0,8.907000542E0,9.921803287E0
7.492327260E-1,3.870000243E-1,4.354050159E0,8.983950615E0,9.990940419E0
7.511958200E-1,3.870000243E-1,4.354050159E0,8.944950104E0,9.955885404E0
7.531590730E-1,4.260000288E-1,4.354050159E0,8.944950104E0,9.957477651E0
7.551222790E-1,4.260000288E-1,4.354050159E0,8.907000542E0,9.923401003E0
7.570855140E-1,4.260000288E-1,4.354050159E0,8.983950615E0,9.992527081E0
7.590487410E-1,4.260000288E-1,4.354050159E0,8.944950104E0,9.957477651E0
7.610120020E-1,3.870000243E-1,4.354050159E0,8.944950104E0,9.955885404E0
7.629752640E-1,4.639500082E-1,4.354050159E0,8.907000542E0,9.925102571E0
7.649384460E-1,3.870000243E-1,4.354050159E0,8.907000542E0,9.921803287E0
7.669016510E-1,4.260000288E-1,4.354050159E0,8.944950104E0,9.957477651E0
7.688649300E-1,4.260000288E-1,4.354050159E0,8.907000542E0,9.923401003E0
7.708281870E-1,3.870000243E-1,4.315950394E0,8.907000542E0,9.905142880E0
7.727914300E-1,3.870000243E-1,4.392000198E0,8.869050026E0,9.904518319E0
7.747546660E-1,3.870000243E-1,4.354050159E0,8.907000542E0,9.921803287E0
7.767178500E-1,3.490500152E-1,4.354050159E0,8.907000542E0,9.920395524E0
7.786810500E-1,4.260000288E-1,4.354050159E0,8.830050468E0,9.854390904E0
7.806439260E-1,3.870000243E-1,4.354050159E0,8.869050026E0,9.887748489E0
7.826068970E-1,3.870000243E-1,4.392000198E0,8.869050026E0,9.904518319E0
7.845700600E-1,4.260000288E-1,4.354050159E0,8.869050026E0,9.889351707E0
7.865331490E-1,3.490500152E-1,4.354050159E0,8.907000542E0,9.920395524E0
7.884961800E-1,3.870000243E-1,4.354050159E0,8.869050026E0,9.887748489E0
7.904592280E-1,4.260000288E-1,4.354050159E0,8.907000542E0,9.923401003E0
7.924225340E-1,3.870000243E-1,4.392000198E0,8.944950104E0,9.972540655E0
7.943857650E-1,3.870000243E-1,4.392000198E0,8.907000542E0,9.938515654E0
7.963489550E-1,3.870000243E-1,4.392000198E0,8.944950104E0,9.972540655E0
7.983121550E-1,3.870000243E-1,4.392000198E0,8.944950104E0,9.972540655E0
8.002754350E-1,3.870000243E-1,4.392000198E0,8.907000542E0,9.938515654E0
8.022386920E-1,3.870000243E-1,4.431000233E0,8.907000542E0,9.955811907E0
8.042020980E-1,3.490500152E-1,4.354050159E0,8.907000542E0,9.920395524E0
8.061654610E-1,3.870000243E-1,4.392000198E0,8.944950104E0,9.972540655E0
8.081288490E-1,3.870000243E-1,4.392000198E0,8.907000542E0,9.938515654E0
8.100922300E-1,3.490500152E-1,4.392000198E0,8.907000542E0,9.937110259E0
8.120557960E-1,3.870000243E-1,4.354050159E0,8.944950104E0,9.955885404E0
8.140193070E-1,3.870000243E-1,4.392000198E0,8.944950104E0,9.972540655E0
8.159826260E-1,3.490500152E-1,4.431000233E0,8.983950615E0,1.002332119E1
8.179460020E-1,3.870000243E-1,4.354050159E0,8.944950104E0,9.955885404E0
8.199094230E-1,3.870000243E-1,4.354050159E0,8.944950104E0,9.955885404E0
8.218728370E-1,3.870000243E-1,4.354050159E0,8.944950104E0,9.955885404E0
8.238363970E-1,3.870000243E-1,4.431000233E0,8.944950104E0,9.989777998E0
8.257999140E-1,3.490500152E-1,4.392000198E0,9.022050858E0,1.004036371E1
8.277634120E-1,3.490500152E-1,4.431000233E0,9.022050858E0,1.005748481E1
8.297269160E-1,3.870000243E-1,4.392000198E0,8.983950615E0,1.000753733E1
8.316902890E-1,3.109500110E-1,4.354050159E0,8.944950104E0,9.953219331E0
8.336536940E-1,3.109500110E-1,4.392000198E0,8.983950615E0,1.000488502E1
8.356168940E-1,3.109500110E-1,4.354050159E0,8.944950104E0,9.953219331E0
8.375801550E-1,3.870000243E-1,4.354050159E0,8.983950615E0,9.990940419E0
8.395428850E-1,3.109500110E-1,4.354050159E0,8.944950104E0,9.953219331E0
8.415057710E-1,3.490500152E-1,4.392000198E0,8.983950615E0,1.000614163E1
8.434688400E-1,3.490500152E-1,4.354050159E0,8.983950615E0,9.989542400E0
8.454318510E-1,3.490500152E-1,4.354050159E0,8.983950615E0,9.989542400E0
8.473953000E-1,2.719500065E-1,4.354050159E0,8.983950615E0,9.987145651E0
8.493586200E-1,3.109500110E-1,4.354050159E0,9.022050858E0,1.002256676E1
8.513218820E-1,3.490500152E-1,4.354050159E0,8.983950615E0,9.989542400E0
8.532851610E-1,3.490500152E-1,4.354050159E0,8.944950104E0,9.954482461E0
8.552486980E-1,3.109500110E-1,4.392000198E0,8.944950104E0,9.969879037E0
8.572121590E-1,3.109500110E-1,4.392000198E0,8.944950104E0,9.969879037E0
8.591757100E-1,3.109500110E-1,4.315950394E0,8.983950615E0,9.971734371E0
8.611392350E-1,3.490500152E-1,4.392000198E0,8.944950104E0,9.971140056E0
8.631025970E-1,3.490500152E-1,4.354050159E0,8.944950104E0,9.954482461E0
8.650660070E-1,3.870000243E-1,4.354050159E0,8.907000542E0,9.921803287E0
8.670296220E-1,3.490500152E-1,4.354050159E0,8.983950615E0,9.989542400E0
8.689931690E-1,3.490500152E-1,4.354050159E0,8.944950104E0,9.954482461E0
8.709564820E-1,3.490500152E-1,4.392000198E0,8.907000542E0,9.937110259E0
8.729198630E-1,3.870000243E-1,4.392000198E0,8.944950104E0,9.972540655E0
8.748836070E-1,3.490500152E-1,4.315950394E0,8.983950615E0,9.972995155E0
8.768472450E-1,3.109500110E-1,4.354050159E0,8.944950104E0,9.953219331E0
8.788106230E-1,3.109500110E-1,4.354050159E0,8.983950615E0,9.988283704E0
8.807740840E-1,3.490500152E-1,4.354050159E0,8.944950104E0,9.954482461E0
8.827379500E-1,3.109500110E-1,4.354050159E0,8.983950615E0,9.988283704E0
8.847016970E-1,2.719500065E-1,4.392000198E0,8.907000542E0,9.934700861E0
8.866656050E-1,3.870000243E-1,4.392000198E0,8.907000542E0,9.938515654E0
8.886294660E-1,3.490500152E-1,4.354050159E0,8.944950104E0,9.954482461E0
8.905932470E-1,3.490500152E-1,4.315950394E0,8.944950104E0,9.937876839E0
8.925570650E-1,3.490500152E-1,4.392000198E0,8.907000542E0,9.937110259E0
8.945207800E-1,3.109500110E-1,4.354050159E0,8.944950104E0,9.953219331E0
8.964845260E-1,3.870000243E-1,4.354050159E0,8.983950615E0,9.990940419E0
8.984481640E-1,3.109500110E-1,4.392000198E0,8.907000542E0,9.935844921E0
9.004118340E-1,3.490500152E-1,4.354050159E0,8.944950104E0,9.954482461E0
9.023753500E-1,3.490500152E-1,4.354050159E0,8.944950104E0,9.954482461E0
9.043389110E-1,3.870000243E-1,4.315950394E0,8.944950104E0,9.939282126E0
9.063020850E-1,3.490500152E-1,4.315950394E0,8.907000542E0,9.903732749E0
9.082653720E-1,3.490500152E-1,4.354050159E0,8.944950104E0,9.954482461E0
9.102286380E-1,3.490500152E-1,4.392000198E0,8.869050026E0,9.903108099E0
9.121919110E-1,3.490500152E-1,4.315950394E0,8.907000542E0,9.903732749E0
9.141554730E-1,3.490500152E-1,4.392000198E0,8.944950104E0,9.971140056E0
9.161189330E-1,3.870000243E-1,4.392000198E0,8.907000542E0,9.938515654E0
9.180821250E-1,3.870000243E-1,4.354050159E0,8.944950104E0,9.955885404E0
9.200453960E-1,4.260000288E-1,4.354050159E0,8.944950104E0,9.957477651E0
9.220084850E-1,3.870000243E-1,4.354050159E0,8.907000542E0,9.921803287E0
9.239716270E-1,3.870000243E-1,4.392000198E0,8.944950104E0,9.972540655E0
9.259353680E-1,4.260000288E-1,4.392000198E0,8.983950615E0,1.000912136E1
9.278989330E-1,3.490500152E-1,4.315950394E0,8.944950104E0,9.937876839E0
9.298622880E-1,3.870000243E-1,4.354050159E0,8.944950104E0,9.955885404E0
9.318257040E-1,3.490500152E-1,4.354050159E0,8.983950615E0,9.989542400E0
9.337887230E-1,3.490500152E-1,4.354050159E0,8.944950104E0,9.954482461E0
9.357518580E-1,3.490500152E-1,4.392000198E0,8.944950104E0,9.971140056E0
9.377149650E-1,3.490500152E-1,4.354050159E0,8.944950104E0,9.954482461E0
9.396780840E-1,3.490500152E-1,4.354050159E0,8.944950104E0,9.954482461E0
9.416414680E-1,3.870000243E-1,4.392000198E0,8.907000542E0,9.938515654E0
9.436047740E-1,3.870000243E-1,4.392000198E0,8.944950104E0,9.972540655E0
9.455682170E-1,3.490500152E-1,4.392000198E0,8.983950615E0,1.000614163E1
9.475316200E-1,3.490500152E-1,4.354050159E0,8.983950615E0,9.989542400E0
9.494950270E-1,3.490500152E-1,4.392000198E0,8.983950615E0,1.000614163E1
9.514584160E-1,3.490500152E-1,4.354050159E0,8.983950615E0,9.989542400E0
9.534219340E-1,3.490500152E-1,4.354050159E0,8.944950104E0,9.954482461E0
9.553854140E-1,3.870000243E-1,4.315950394E0,8.983950615E0,9.974395494E0
9.573487830E-1,3.490500152E-1,4.315950394E0,8.983950615E0,9.972995155E0
9.593121850E-1,3.870000243E-1,4.315950394E0,9.022050858E0,1.000872612E1
9.612755810E-1,3.870000243E-1,4.354050159E0,8.983950615E0,9.990940419E0
9.632389690E-1,4.260000288E-1,4.276950359E0,8.944950104E0,9.924006890E0
9.652023970E-1,3.870000243E-1,4.315950394E0,8.944950104E0,9.939282126E0
9.671658130E-1,3.870000243E-1,4.354050159E0,8.983950615E0,9.990940419E0
9.691291930E-1,4.260000288E-1,4.354050159E0,9.060000420E0,1.006095604E1
9.710925840E-1,3.870000243E-1,4.354050159E0,8.944950104E0,9.955885404E0
9.730560970E-1,4.260000288E-1,4.315950394E0,8.944950104E0,9.940877033E0
9.750195770E-1,3.490500152E-1,4.315950394E0,8.944950104E0,9.937876839E0
9.769825860E-1,3.870000243E-1,4.354050159E0,8.983950615E0,9.990940419E0
9.789457330E-1,3.870000243E-1,4.354050159E0,8.907000542E0,9.921803287E0
9.809090220E-1,3.870000243E-1,4.354050159E0,8.944950104E0,9.955885404E0
9.828722700E-1,3.870000243E-1,4.354050159E0,8.944950104E0,9.955885404E0
9.848352880E-1,3.870000243E-1,4.354050159E0,8.944950104E0,9.955885404E0
9.867983630E-1,3.870000243E-1,4.354050159E0,8.944950104E0,9.955885404E0
9.887614840E-1,4.260000288E-1,4.354050159E0,8.907000542E0,9.923401003E0
9.907245910E-1,4.260000288E-1,4.354050159E0,8.907000542E0,9.923401003E0
9.926877980E-1,3.870000243E-1,4.354050159E0,8.983950615E0,9.990940419E0
9.946509760E-1,3.870000243E-1,4.354050159E0,8.944950104E0,9.955885404E0
9.966139010E-1,3.870000243E-1,4.392000198E0,8.907000542E0,9.938515654E0
9.985769010E-1,4.260000288E-1,4.354050159E0,8.907000542E0,9.923401003E0
1.000540486E0,3.870000243E-1,4.354050159E0,8.907000542E0,9.921803287E0
1.002503899E0,3.870000243E-1,4.354050159E0,8.907000542E0,9.921803287E0
1.004467100E0,3.870000243E-1,4.354050159E0,8.944950104E0,9.955885404E0
1.006430363E0,3.870000243E-1,4.315950394E0,8.944950104E0,9.939282126E0
1.008393602E0,3.870000243E-1,4.354050159E0,8.944950104E0,9.955885404E0
1.010356869E0,3.870000243E-1,4.354050159E0,8.944950104E0,9.955885404E0
1.012320229E0,4.260000288E-1,4.354050159E0,8.907000542E0,9.923401003E0
1.014283562E0,4.260000288E-1,4.354050159E0,8.907000542E0,9.923401003E0
1.016246641E0,4.639500082E-1,4.354050159E0,8.869050026E0,9.891059133E0
1.018209794E0,4.639500082E-1,4.392000198E0,8.944950104E0,9.975823160E0
1.020172983E0,3.870000243E-1,4.315950394E0,8.907000542E0,9.905142880E0
1.022136168E0,4.260000288E-1,4.354050159E0,8.944950104E0,9.957477651E0
1.024099451E0,4.260000288E-1,4.354050159E0,8.907000542E0,9.923401003E0
1.026062706E0,4.260000288E-1,4.354050159E0,8.907000542E0,9.923401003E0
1.028026113E0,3.870000243E-1,4.315950394E0,8.907000542E0,9.905142880E0
1.029989476E0,3.490500152E-1,4.354050159E0,8.907000542E0,9.920395524E0
1.031952820E0,3.870000243E-1,4.354050159E0,8.944950104E0,9.955885404E0
1.033916170E0,3.109500110E-1,4.392000198E0,8.944950104E0,9.969879037E0
1.035879245E0,4.260000288E-1,4.315950394E0,8.944950104E0,9.940877033E0
1.037842401E0,3.490500152E-1,4.315950394E0,8.983950615E0,9.972995155E0
1.039805779E0,3.870000243E-1,4.354050159E0,8.907000542E0,9.921803287E0
1.041769091E0,3.870000243E-1,4.354050159E0,8.944950104E0,9.955885404E0
1.043732280E0,3.490500152E-1,4.392000198E0,8.983950615E0,1.000614163E1
1.045695526E0,3.109500110E-1,4.354050159E0,8.944950104E0,9.953219331E0
1.047658798E0,3.490500152E-1,4.315950394E0,8.907000542E0,9.903732749E0
1.049622062E0,3.490500152E-1,4.354050159E0,8.944950104E0,9.954482461E0
1.051585243E0,3.109500110E-1,4.354050159E0,8.944950104E0,9.953219331E0
1.053548449E0,3.490500152E-1,4.392000198E0,8.983950615E0,1.000614163E1
1.055511499E0,3.870000243E-1,4.392000198E0,8.944950104E0,9.972540655E0
1.057474598E0,3.109500110E-1,4.354050159E0,8.944950104E0,9.953219331E0
1.059437715E0,3.490500152E-1,4.392000198E0,8.983950615E0,1.000614163E1
1.061400826E0,3.490500152E-1,4.392000198E0,8.983950615E0,1.000614163E1
1.063364213E0,3.490500152E-1,4.354050159E0,8.983950615E0,9.989542400E0
1.065327519E0,3.490500152E-1,4.392000198E0,8.944950104E0,9.971140056E0
1.067290807E0,3.870000243E-1,4.354050159E0,9.022050858E0,1.002521439E1
1.069254083E0,3.490500152E-1,4.354050159E0,8.983950615E0,9.989542400E0
1.071217126E0,3.870000243E-1,4.315950394E0,8.983950615E0,9.974395494E0
1.073180237E0,3.490500152E-1,4.354050159E0,9.022050858E0,1.002382115E1
1.075143667E0,3.490500152E-1,4.315950394E0,8.944950104E0,9.937876839E0
1.077107004E0,3.870000243E-1,4.354050159E0,8.983950615E0,9.990940419E0
1.079070366E0,3.490500152E-1,4.392000198E0,8.983950615E0,1.000614163E1
1.081033711E0,3.490500152E-1,4.354050159E0,8.983950615E0,9.989542400E0
1.082997282E0,3.490500152E-1,4.392000198E0,8.944950104E0,9.971140056E0
1.084960787E0,3.109500110E-1,4.392000198E0,8.944950104E0,9.969879037E0
1.086923792E0,3.109500110E-1,4.392000198E0,8.983950615E0,1.000488502E1
1.088886943E0,3.490500152E-1,4.392000198E0,8.944950104E0,9.971140056E0
1.090850062E0,3.490500152E-1,4.392000198E0,8.983950615E0,1.000614163E1
1.092813184E0,3.870000243E-1,4.354050159E0,8.983950615E0,9.990940419E0
1.094776253E0,3.870000243E-1,4.392000198E0,8.944950104E0,9.972540655E0
1.096739338E0,3.490500152E-1,4.354050159E0,8.944950104E0,9.954482461E0
1.098702414E0,3.109500110E-1,4.392000198E0,8.944950104E0,9.969879037E0
1.100665492E0,3.870000243E-1,4.354050159E0,8.944950104E0,9.955885404E0
1.102628158E0,3.490500152E-1,4.354050159E0,8.944950104E0,9.954482461E0
1.104590948E0,4.260000288E-1,4.315950394E0,8.983950615E0,9.975984787E0
1.106554073E0,3.870000243E-1,4.354050159E0,8.907000542E0,9.921803287E0
1.108517100E0,3.490500152E-1,4.354050159E0,8.983950615E0,9.989542400E0
1.110480186E0,3.490500152E-1,4.354050159E0,8.944950104E0,9.954482461E0
1.112443254E0,2.719500065E-1,4.392000198E0,8.944950104E0,9.968738882E0
1.114406198E0,3.490500152E-1,4.354050159E0,8.944950104E0,9.954482461E0
1.116369179E0,3.490500152E-1,4.354050159E0,8.944950104E0,9.954482461E0
1.118332407E0,3.490500152E-1,4.354050159E0,8.944950104E0,9.954482461E0
1.120295562E0,3.490500152E-1,4.315950394E0,8.944950104E0,9.937876839E0
1.122258627E0,3.870000243E-1,4.354050159E0,8.944950104E0,9.955885404E0
1.124221718E0,3.870000243E-1,4.354050159E0,8.983950615E0,9.990940419E0
1.126184607E0,3.490500152E-1,4.315950394E0,8.944950104E0,9.937876839E0
1.128147559E0,3.490500152E-1,4.354050159E0,8.907000542E0,9.920395524E0
1.130110477E0,4.260000288E-1,4.354050159E0,8.983950615E0,9.992527081E0
1.132073405E0,3.490500152E-1,4.315950394E0,8.944950104E0,9.937876839E0
1.134036552E0,3.870000243E-1,4.354050159E0,8.983950615E0,9.990940419E0
1.135999634E0,3.490500152E-1,4.354050159E0,8.983950615E0,9.989542400E0
1.137962666E0,4.260000288E-1,4.354050159E0,8.944950104E0,9.957477651E0
1.139925713E0,4.260000288E-1,4.354050159E0,8.983950615E0,9.992527081E0
1.141888660E0,3.870000243E-1,4.315950394E0,8.944950104E0,9.939282126E0
1.143851636E0,4.260000288E-1,4.276950359E0,8.907000542E0,9.889814915E0
1.145815090E0,4.260000288E-1,4.315950394E0,8.944950104E0,9.940877033E0
1.147778403E0,3.870000243E-1,4.315950394E0,9.022050858E0,1.000872612E1
1.149741398E0,3.490500152E-1,4.392000198E0,8.983950615E0,1.000614163E1
1.151704516E0,3.870000243E-1,4.392000198E0,8.907000542E0,9.938515654E0
1.153667720E0,3.490500152E-1,4.354050159E0,8.944950104E0,9.954482461E0
1.155630898E0,4.260000288E-1,4.354050159E0,8.944950104E0,9.957477651E0
1.157594138E0,4.260000288E-1,4.354050159E0,8.944950104E0,9.957477651E0
1.159557360E0,3.870000243E-1,4.315950394E0,8.944950104E0,9.939282126E0
1.161520598E0,4.260000288E-1,4.315950394E0,8.944950104E0,9.940877033E0
1.163483827E0,4.260000288E-1,4.315950394E0,8.944950104E0,9.940877033E0
1.165447103E0,3.870000243E-1,4.315950394E0,8.944950104E0,9.939282126E0
1.167410365E0,4.639500082E-1,4.315950394E0,8.944950104E0,9.942575610E0
1.169373231E0,4.260000288E-1,4.354050159E0,8.907000542E0,9.923401003E0
1.171336213E0,3.490500152E-1,4.315950394E0,8.983950615E0,9.972995155E0
1.173299111E0,3.870000243E-1,4.354050159E0,8.983950615E0,9.990940419E0
1.175262044E0,3.490500152E-1,4.315950394E0,8.944950104E0,9.937876839E0
1.177224966E0,3.490500152E-1,4.392000198E0,8.983950615E0,1.000614163E1
1.179187891E0,3.870000243E-1,4.354050159E0,9.022050858E0,1.002521439E1
1.181150992E0,3.870000243E-1,4.315950394E0,9.098999977E0,1.007814454E1
1.183114042E0,3.870000243E-1,4.315950394E0,9.022050858E0,1.000872612E1
1.185076750E0,3.870000243E-1,4.354050159E0,9.060000420E0,1.005938017E1
1.187039569E0,3.490500152E-1,4.392000198E0,9.022050858E0,1.004036371E1
1.189002329E0,3.490500152E-1,4.354050159E0,8.983950615E0,9.989542400E0
1.190965107E0,3.490500152E-1,4.354050159E0,9.022050858E0,1.002382115E1
1.192928234E0,2.719500065E-1,4.354050159E0,8.983950615E0,9.987145651E0
1.194891259E0,3.490500152E-1,4.315950394E0,8.983950615E0,9.972995155E0
1.196854334E0,3.109500110E-1,4.392000198E0,9.022050858E0,1.003911138E1
1.198817370E0,3.490500152E-1,4.392000198E0,8.983950615E0,1.000614163E1
1.200780635E0,3.490500152E-1,4.392000198E0,8.944950104E0,9.971140056E0
1.202743832E0,3.109500110E-1,4.392000198E0,8.983950615E0,1.000488502E1
1.204707113E0,3.109500110E-1,4.392000198E0,8.983950615E0,1.000488502E1
1.206670370E0,3.109500110E-1,4.392000198E0,8.983950615E0,1.000488502E1
1.208633746E0,3.109500110E-1,4.392000198E0,8.944950104E0,9.969879037E0
1.210597077E0,3.490500152E-1,4.392000198E0,8.944950104E0,9.971140056E0
1.212559796E0,3.490500152E-1,4.392000198E0,8.907000542E0,9.937110259E0
1.214522695E0,3.490500152E-1,4.392000198E0,8.869050026E0,9.903108099E0
1.216485981E0,3.490500152E-1,4.354050159E0,8.907000542E0,9.920395524E0
1.218449154E0,3.870000243E-1,4.354050159E0,8.869050026E0,9.887748489E0
1.220412409E0,3.870000243E-1,4.392000198E0,8.869050026E0,9.904518319E0
1.222375630E0,3.490500152E-1,4.354050159E0,8.907000542E0,9.920395524E0
1.224338819E0,3.490500152E-1,4.392000198E0,8.869050026E0,9.903108099E0
1.226302017E0,3.490500152E-1,4.392000198E0,8.830050468E0,9.868196032E0
1.228265297E0,3.490500152E-1,4.354050159E0,8.907000542E0,9.920395524E0
1.230228553E0,3.490500152E-1,4.354050159E0,8.869050026E0,9.886335877E0
1.232191770E0,3.109500110E-1,4.354050159E0,8.830050468E0,9.850088019E0
1.234154974E0,3.490500152E-1,4.392000198E0,8.791950226E0,9.834118691E0
1.236117894E0,3.490500152E-1,4.354050159E0,8.830050468E0,9.851364371E0
1.238080897E0,3.490500152E-1,4.392000198E0,8.830050468E0,9.868196032E0
1.240044120E0,3.490500152E-1,4.354050159E0,8.830050468E0,9.851364371E0
1.242007279E0,3.490500152E-1,4.354050159E0,8.830050468E0,9.851364371E0
1.243970402E0,3.490500152E-1,4.354050159E0,8.869050026E0,9.886335877E0
1.245933526E0,3.490500152E-1,4.354050159E0,8.869050026E0,9.886335877E0
1.247896550E0,3.490500152E-1,4.392000198E0,8.869050026E0,9.903108099E0
1.249859603E0,3.490500152E-1,4.431000233E0,8.907000542E0,9.954408954E0
1.251822504E0,3.109500110E-1,4.354050159E0,8.907000542E0,9.919128054E0
1.253785449E0,3.490500152E-1,4.431000233E0,8.830050468E0,9.885615320E0
1.255748534E0,3.870000243E-1,4.354050159E0,8.907000542E0,9.921803287E0
1.257711587E0,3.870000243E-1,4.431000233E0,8.907000542E0,9.955811907E0
1.259674489E0,3.490500152E-1,4.392000198E0,8.907000542E0,9.937110259E0
1.261637435E0,3.490500152E-1,4.431000233E0,8.869050026E0,9.920466085E0
1.263600174E0,3.870000243E-1,4.431000233E0,8.907000542E0,9.955811907E0
1.265562974E0,3.490500152E-1,4.431000233E0,8.907000542E0,9.954408954E0
1.267525966E0,3.490500152E-1,4.431000233E0,8.944950104E0,9.988379815E0
1.269488899E0,3.490500152E-1,4.392000198E0,8.869050026E0,9.903108099E0
1.271451821E0,3.490500152E-1,4.392000198E0,8.869050026E0,9.903108099E0
1.273414747E0,3.490500152E-1,4.431000233E0,8.907000542E0,9.954408954E0
1.275378029E0,3.870000243E-1,4.468950272E0,8.983950615E0,1.004154640E1
1.277341207E0,3.490500152E-1,4.431000233E0,8.983950615E0,1.002332119E1
1.279304401E0,3.870000243E-1,4.392000198E0,8.944950104E0,9.972540655E0
1.281267591E0,3.109500110E-1,4.392000198E0,8.944950104E0,9.969879037E0
1.283230829E0,3.490500152E-1,4.392000198E0,8.983950615E0,1.000614163E1
1.285194053E0,3.490500152E-1,4.392000198E0,8.983950615E0,1.000614163E1
1.287157465E0,3.490500152E-1,4.431000233E0,8.983950615E0,1.002332119E1
1.289120822E0,3.109500110E-1,4.392000198E0,8.944950104E0,9.969879037E0
1.291084437E0,3.870000243E-1,4.392000198E0,8.983950615E0,1.000753733E1
1.293047976E0,3.490500152E-1,4.354050159E0,8.944950104E0,9.954482461E0
1.295011335E0,3.870000243E-1,4.392000198E0,9.022050858E0,1.004175465E1
1.296974747E0,3.870000243E-1,4.354050159E0,9.022050858E0,1.002521439E1
1.298937947E0,3.490500152E-1,4.354050159E0,9.022050858E0,1.002382115E1
1.300901209E0,3.870000243E-1,4.392000198E0,9.060000420E0,1.007586435E1
1.302864599E0,3.490500152E-1,4.354050159E0,8.983950615E0,9.989542400E0
1.304827962E0,3.109500110E-1,4.315950394E0,9.022050858E0,1.000607412E1
1.306791711E0,4.260000288E-1,4.354050159E0,9.022050858E0,1.002679562E1
1.308755346E0,3.870000243E-1,4.354050159E0,8.983950615E0,9.990940419E0
1.310718869E0,3.870000243E-1,4.354050159E0,9.060000420E0,1.005938017E1
1.312682425E0,3.870000243E-1,4.354050159E0,9.022050858E0,1.002521439E1
1.314645915E0,3.490500152E-1,4.315950394E0,9.022050858E0,1.000733058E1
1.316609425E0,3.490500152E-1,4.315950394E0,9.022050858E0,1.000733058E1
1.318573328E0,3.870000243E-1,4.276950359E0,9.022050858E0,9.991970530E0
1.320537116E0,3.490500152E-1,4.276950359E0,8.983950615E0,9.956179435E0
1.322500613E0,3.870000243E-1,4.276950359E0,9.060000420E0,1.002624960E1
1.324464195E0,3.870000243E-1,4.315950394E0,8.983950615E0,9.974395494E0
1.326427950E0,3.870000243E-1,4.276950359E0,9.060000420E0,1.002624960E1
1.328391654E0,3.870000243E-1,4.315950394E0,9.022050858E0,1.000872612E1
1.330355301E0,4.260000288E-1,4.276950359E0,9.060000420E0,1.002783067E1
1.332318964E0,3.490500152E-1,4.276950359E0,8.983950615E0,9.956179435E0
1.334282526E0,3.490500152E-1,4.239000320E0,8.983950615E0,9.939936030E0
1.336246118E0,3.870000243E-1,4.276950359E0,9.060000420E0,1.002624960E1
1.338209275E0,3.870000243E-1,4.276950359E0,9.022050858E0,9.991970530E0
1.340172536E0,3.870000243E-1,4.276950359E0,8.983950615E0,9.957582139E0
1.342135986E0,3.490500152E-1,4.239000320E0,9.022050858E0,9.974385260E0
1.344099381E0,3.870000243E-1,4.276950359E0,9.022050858E0,9.991970530E0
1.346062944E0,3.870000243E-1,4.276950359E0,9.022050858E0,9.991970530E0
1.348026457E0,3.870000243E-1,4.276950359E0,9.022050858E0,9.991970530E0
1.349990125E0,4.260000288E-1,4.315950394E0,9.022050858E0,1.001030996E1
1.351953755E0,4.260000288E-1,4.315950394E0,9.022050858E0,1.001030996E1
1.353916919E0,3.870000243E-1,4.276950359E0,8.983950615E0,9.957582139E0
1.355880219E0,4.639500082E-1,4.276950359E0,9.022050858E0,9.995246653E0
1.357843617E0,3.870000243E-1,4.315950394E0,9.022050858E0,1.000872612E1
1.359806986E0,3.870000243E-1,4.315950394E0,8.944950104E0,9.939282126E0
1.361770413E0,3.870000243E-1,4.315950394E0,8.944950104E0,9.939282126E0
1.363733827E0,3.870000243E-1,4.315950394E0,8.944950104E0,9.939282126E0
1.365697208E0,3.490500152E-1,4.392000198E0,8.944950104E0,9.971140056E0
1.367660598E0,3.870000243E-1,4.354050159E0,8.983950615E0,9.990940419E0
1.369623802E0,3.490500152E-1,4.354050159E0,8.944950104E0,9.954482461E0
1.371587060E0,3.870000243E-1,4.392000198E0,8.944950104E0,9.972540655E0
1.373550434E0,3.870000243E-1,4.392000198E0,8.869050026E0,9.904518319E0
1.375513764E0,3.870000243E-1,4.392000198E0,8.907000542E0,9.938515654E0
1.377477024E0,3.870000243E-1,4.392000198E0,8.907000542E0,9.938515654E0
1.379440305E0,3.870000243E-1,4.354050159E0,8.869050026E0,9.887748489E0
1.381403887E0,3.490500152E-1,4.354050159E0,8.830050468E0,9.851364371E0
1.383367380E0,3.490500152E-1,4.392000198E0,8.869050026E0,9.903108099E0
1.385330698E0,3.490500152E-1,4.392000198E0,8.869050026E0,9.903108099E0
1.387294070E0,3.490500152E-1,4.392000198E0,8.869050026E0,9.903108099E0
1.389257276E0,3.490500152E-1,4.392000198E0,8.907000542E0,9.937110259E0
1.391220531E0,3.490500152E-1,4.392000198E0,8.869050026E0,9.903108099E0
1.393183443E0,3.109500110E-1,4.431000233E0,8.869050026E0,9.919198624E0
1.395146455E0,3.490500152E-1,4.392000198E0,8.869050026E0,9.903108099E0
1.397109541E0,3.870000243E-1,4.392000198E0,8.869050026E0,9.904518319E0
1.399072606E0,3.490500152E-1,4.392000198E0,8.944950104E0,9.971140056E0
1.401035685E0,3.490500152E-1,4.392000198E0,8.907000542E0,9.937110259E0
1.402998760E0,3.490500152E-1,4.431000233E0,8.983950615E0,1.002332119E1
1.404961793E0,3.870000243E-1,4.392000198E0,8.907000542E0,9.938515654E0
1.406924839E0,3.109500110E-1,4.392000198E0,8.944950104E0,9.969879037E0
1.408888326E0,3.490500152E-1,4.431000233E0,8.983950615E0,1.002332119E1
1.410851683E0,3.109500110E-1,4.392000198E0,8.944950104E0,9.969879037E0
1.412814848E0,3.490500152E-1,4.392000198E0,8.983950615E0,1.000614163E1
1.414778070E0,3.870000243E-1,4.431000233E0,9.022050858E0,1.005887338E1
1.416741167E0,3.490500152E-1,4.354050159E0,8.983950615E0,9.989542400E0
1.418704301E0,3.490500152E-1,4.431000233E0,9.022050858E0,1.005748481E1
1.420667551E0,3.109500110E-1,4.392000198E0,8.983950615E0,1.000488502E1
1.422630764E0,3.490500152E-1,4.392000198E0,9.022050858E0,1.004036371E1
1.424594358E0,3.490500152E-1,4.392000198E0,9.060000420E0,1.007447811E1
1.426557841E0,3.109500110E-1,4.431000233E0,8.983950615E0,1.002206673E1
1.428521344E0,3.870000243E-1,4.392000198E0,9.060000420E0,1.007586435E1
1.430484841E0,3.109500110E-1,4.431000233E0,9.098999977E0,1.012532733E1
1.432447897E0,3.490500152E-1,4.392000198E0,9.060000420E0,1.007447811E1
1.434411079E0,3.870000243E-1,4.392000198E0,9.060000420E0,1.007586435E1
1.436374452E0,3.870000243E-1,4.431000233E0,8.983950615E0,1.002471450E1
1.438337769E0,3.870000243E-1,4.354050159E0,9.060000420E0,1.005938017E1
1.440301031E0,3.870000243E-1,4.392000198E0,9.060000420E0,1.007586435E1
1.442264310E0,3.490500152E-1,4.354050159E0,9.022050858E0,1.002382115E1
1.444227501E0,3.490500152E-1,4.392000198E0,9.022050858E0,1.004036371E1
1.446190708E0,3.490500152E-1,4.392000198E0,9.022050858E0,1.004036371E1
1.448153808E0,3.870000243E-1,4.354050159E0,9.060000420E0,1.005938017E1
1.450116939E0,3.490500152E-1,4.392000198E0,9.060000420E0,1.007447811E1
1.452080141E0,3.490500152E-1,4.354050159E0,9.060000420E0,1.005799166E1
1.454043322E0,3.870000243E-1,4.354050159E0,9.022050858E0,1.002521439E1
1.456006423E0,3.490500152E-1,4.392000198E0,9.060000420E0,1.007447811E1
1.457969551E0,3.109500110E-1,4.354050159E0,9.060000420E0,1.005674154E1
1.459932439E0,3.490500152E-1,4.354050159E0,9.022050858E0,1.002382115E1
1.461895397E0,3.870000243E-1,4.354050159E0,9.060000420E0,1.005938017E1
1.463858808E0,3.490500152E-1,4.392000198E0,9.060000420E0,1.007447811E1
1.465822087E0,3.490500152E-1,4.392000198E0,8.983950615E0,1.000614163E1
1.467784819E0,4.260000288E-1,4.392000198E0,9.022050858E0,1.004333328E1
1.469747709E0,4.260000288E-1,4.392000198E0,8.944950104E0,9.974130244E0
1.471710816E0,3.870000243E-1,4.354050159E0,8.983950615E0,9.990940419E0
1.473673860E0,4.260000288E-1,4.392000198E0,8.983950615E0,1.000912136E1
1.475637078E0,3.870000243E-1,4.315950394E0,8.944950104E0,9.939282126E0
1.477600245E0,3.870000243E-1,4.392000198E0,8.983950615E0,1.000753733E1
1.479563483E0,3.870000243E-1,4.315950394E0,8.944950104E0,9.939282126E0
1.481526703E0,3.490500152E-1,4.315950394E0,8.907000542E0,9.903732749E0
1.483489801E0,4.260000288E-1,4.315950394E0,8.944950104E0,9.940877033E0
1.485452935E0,4.260000288E-1,4.354050159E0,8.944950104E0,9.957477651E0
1.487416182E0,4.260000288E-1,4.315950394E0,8.944950104E0,9.940877033E0
1.489379395E0,4.260000288E-1,4.354050159E0,8.907000542E0,9.923401003E0
1.491342797E0,4.260000288E-1,4.354050159E0,8.907000542E0,9.923401003E0
1.493306120E0,4.639500082E-1,4.315950394E0,8.944950104E0,9.942575610E0
1.495269336E0,4.260000288E-1,4.354050159E0,8.907000542E0,9.923401003E0
1.497232584E0,4.260000288E-1,4.315950394E0,8.944950104E0,9.940877033E0
1.499196036E0,4.260000288E-1,4.276950359E0,8.983950615E0,9.959174115E0
1.501159428E0,4.260000288E-1,4.315950394E0,8.944950104E0,9.940877033E0
1.503122966E0,4.260000288E-1,4.315950394E0,8.907000542E0,9.906743283E0
1.505086447E0,3.109500110E-1,4.276950359E0,8.944950104E0,9.919734202E0
1.507049636E0,3.870000243E-1,4.276950359E0,8.907000542E0,9.888211772E0
1.509012910E0,4.260000288E-1,4.276950359E0,8.907000542E0,9.889814915E0
1.510976313E0,3.870000243E-1,4.315950394E0,8.907000542E0,9.905142880E0
1.512939678E0,4.639500082E-1,4.315950394E0,8.907000542E0,9.908447712E0
1.514903291E0,4.260000288E-1,4.315950394E0,8.907000542E0,9.906743283E0
1.516866832E0,4.260000288E-1,4.276950359E0,8.944950104E0,9.924006890E0
1.518829785E0,4.260000288E-1,4.276950359E0,8.944950104E0,9.924006890E0
1.520792910E0,3.870000243E-1,4.276950359E0,8.944950104E0,9.922409272E0
1.522755979E0,4.639500082E-1,4.315950394E0,8.907000542E0,9.908447712E0
1.524719064E0,4.260000288E-1,4.315950394E0,8.907000542E0,9.906743283E0
1.526682494E0,4.639500082E-1,4.354050159E0,8.944950104E0,9.959173397E0
1.528645827E0,4.639500082E-1,4.315950394E0,8.907000542E0,9.908447712E0
1.530608906E0,4.639500082E-1,4.354050159E0,8.944950104E0,9.959173397E0
1.532572059E0,3.870000243E-1,4.315950394E0,8.869050026E0,9.871030604E0
1.534535257E0,4.260000288E-1,4.315950394E0,8.907000542E0,9.906743283E0
1.536498442E0,4.260000288E-1,4.354050159E0,8.869050026E0,9.889351707E0
1.538461357E0,4.260000288E-1,4.315950394E0,8.830050468E0,9.837616332E0
1.540424358E0,4.260000288E-1,4.354050159E0,8.869050026E0,9.889351707E0
1.542387447E0,4.639500082E-1,4.354050159E0,8.791950226E0,9.821985093E0
1.544350510E0,3.870000243E-1,4.354050159E0,8.830050468E0,9.852781997E0
1.546313905E0,4.260000288E-1,4.392000198E0,8.791950226E0,9.837150530E0
1.548277202E0,4.260000288E-1,4.392000198E0,8.830050468E0,9.871217404E0
1.550240242E0,4.260000288E-1,4.392000198E0,8.791950226E0,9.837150530E0
1.552203358E0,4.260000288E-1,4.354050159E0,8.791950226E0,9.820265658E0
1.554166787E0,4.260000288E-1,4.392000198E0,8.791950226E0,9.837150530E0
1.556130125E0,4.260000288E-1,4.392000198E0,8.830050468E0,9.871217404E0
1.558093158E0,4.639500082E-1,4.354050159E0,8.907000542E0,9.925102571E0
1.560056281E0,3.490500152E-1,4.392000198E0,8.830050468E0,9.868196032E0
1.562019524E0,4.639500082E-1,4.392000198E0,8.830050468E0,9.872927966E0
1.563982736E0,4.260000288E-1,4.431000233E0,8.869050026E0,9.923471542E0
1.565946015E0,4.639500082E-1,4.392000198E0,8.907000542E0,9.941809393E0
1.567909274E0,4.639500082E-1,4.392000198E0,8.907000542E0,9.941809393E0
1.569872815E0,3.870000243E-1,4.392000198E0,8.907000542E0,9.938515654E0
1.571836274E0,4.639500082E-1,4.431000233E0,8.869050026E0,9.925173098E0
1.573799487E0,4.260000288E-1,4.392000198E0,8.907000542E0,9.940110684E0
1.575762790E0,3.870000243E-1,4.392000198E0,8.869050026E0,9.904518319E0
1.577726187E0,4.260000288E-1,4.392000198E0,8.944950104E0,9.974130244E0
1.579689557E0,4.260000288E-1,4.392000198E0,8.944950104E0,9.974130244E0
1.581652765E0,3.870000243E-1,4.392000198E0,8.944950104E0,9.972540655E0
1.583616020E0,3.490500152E-1,4.392000198E0,8.944950104E0,9.971140056E0
1.585579376E0,3.870000243E-1,4.354050159E0,8.944950104E0,9.955885404E0
1.587542706E0,3.490500152E-1,4.354050159E0,8.907000542E0,9.920395524E0
1.589505921E0,3.870000243E-1,4.392000198E0,8.944950104E0,9.972540655E0
1.591469169E0,3.490500152E-1,4.315950394E0,8.944950104E0,9.937876839E0
1.593432441E0,3.490500152E-1,4.392000198E0,8.944950104E0,9.971140056E0
1.595395706E0,3.109500110E-1,4.392000198E0,8.907000542E0,9.935844921E0
1.597358733E0,3.109500110E-1,4.392000198E0,8.944950104E0,9.969879037E0
1.599321843E0,3.109500110E-1,4.392000198E0,8.983950615E0,1.000488502E1
1.601285048E0,3.490500152E-1,4.354050159E0,8.983950615E0,9.989542400E0
1.603248225E0,3.109500110E-1,4.392000198E0,9.022050858E0,1.003911138E1
1.605211465E0,3.490500152E-1,4.354050159E0,8.983950615E0,9.989542400E0
1.607174687E0,3.109500110E-1,4.354050159E0,8.983950615E0,9.988283704E0
1.609137923E0,2.719500065E-1,4.354050159E0,8.983950615E0,9.987145651E0
1.611101152E0,3.490500152E-1,4.354050159E0,9.022050858E0,1.002382115E1
1.613063889E0,3.109500110E-1,4.354050159E0,9.022050858E0,1.002256676E1
1.615026770E0,3.109500110E-1,4.354050159E0,9.060000420E0,1.005674154E1
1.616990014E0,3.109500110E-1,4.354050159E0,9.022050858E0,1.002256676E1
1.618953152E0,2.719500065E-1,4.315950394E0,9.022050858E0,1.000493809E1
1.620916084E0,2.719500065E-1,4.354050159E0,9.022050858E0,1.002143260E1
1.622879077E0,3.870000243E-1,4.354050159E0,9.022050858E0,1.002521439E1
1.624841988E0,3.490500152E-1,4.315950394E0,9.022050858E0,1.000733058E1
1.626804924E0,3.109500110E-1,4.315950394E0,9.022050858E0,1.000607412E1
1.628768204E0,3.109500110E-1,4.276950359E0,9.022050858E0,9.989314089E0
1.630731383E0,3.109500110E-1,4.315950394E0,9.060000420E0,1.004030504E1
1.632694583E0,3.490500152E-1,4.315950394E0,9.022050858E0,1.000733058E1
1.634657773E0,3.490500152E-1,4.315950394E0,9.022050858E0,1.000733058E1
1.636621011E0,3.109500110E-1,4.276950359E0,9.022050858E0,9.989314089E0
1.638584234E0,3.870000243E-1,4.315950394E0,9.022050858E0,1.000872612E1
1.640547466E0,3.490500152E-1,4.276950359E0,9.022050858E0,9.990572655E0
1.642510696E0,3.490500152E-1,4.276950359E0,9.060000420E0,1.002485650E1
1.644473927E0,3.870000243E-1,4.315950394E0,9.022050858E0,1.000872612E1
1.646437157E0,3.109500110E-1,4.276950359E0,8.944950104E0,9.919734202E0
1.648400074E0,2.719500065E-1,4.315950394E0,8.983950615E0,9.970594429E0
1.650363083E0,3.490500152E-1,4.315950394E0,9.022050858E0,1.000733058E1
1.652326170E0,3.870000243E-1,4.315950394E0,8.944950104E0,9.939282126E0
1.654289234E0,3.870000243E-1,4.315950394E0,9.022050858E0,1.000872612E1
1.656252313E0,3.109500110E-1,4.315950394E0,9.022050858E0,1.000607412E1
1.658215388E0,3.109500110E-1,4.276950359E0,8.944950104E0,9.919734202E0
1.660178465E0,3.109500110E-1,4.276950359E0,8.983950615E0,9.954916521E0
1.662141542E0,3.109500110E-1,4.354050159E0,8.983950615E0,9.988283704E0
1.664104800E0,3.109500110E-1,4.315950394E0,8.983950615E0,9.971734371E0
1.666068004E0,3.109500110E-1,4.315950394E0,8.983950615E0,9.971734371E0
1.668031200E0,3.870000243E-1,4.354050159E0,8.983950615E0,9.990940419E0
1.669994395E0,3.109500110E-1,4.315950394E0,9.022050858E0,1.000607412E1
1.671957812E0,3.109500110E-1,4.354050159E0,8.983950615E0,9.988283704E0
1.673921163E0,3.109500110E-1,4.354050159E0,8.907000542E0,9.919128054E0
1.675884193E0,3.109500110E-1,4.354050159E0,8.983950615E0,9.988283704E0
1.677847318E0,2.719500065E-1,4.354050159E0,8.983950615E0,9.987145651E0
1.679810563E0,3.109500110E-1,4.354050159E0,8.944950104E0,9.953219331E0
1.681773807E0,3.109500110E-1,4.354050159E0,8.983950615E0,9.988283704E0
1.683736676E0,3.109500110E-1,4.354050159E0,8.944950104E0,9.953219331E0
1.685699655E0,3.109500110E-1,4.354050159E0,9.022050858E0,1.002256676E1
1.687662703E0,3.490500152E-1,4.392000198E0,8.907000542E0,9.937110259E0
1.689625730E0,3.490500152E-1,4.392000198E0,8.983950615E0,1.000614163E1
1.691589176E0,3.109500110E-1,4.392000198E0,8.983950615E0,1.000488502E1
1.693552499E0,3.109500110E-1,4.392000198E0,9.022050858E0,1.003911138E1
1.695515715E0,3.109500110E-1,4.315950394E0,9.022050858E0,1.000607412E1
1.697478963E0,3.490500152E-1,4.354050159E0,8.983950615E0,9.989542400E0
1.699442190E0,3.109500110E-1,4.392000198E0,8.983950615E0,1.000488502E1
1.701405424E0,3.490500152E-1,4.392000198E0,8.944950104E0,9.971140056E0
1.703368519E0,3.109500110E-1,4.392000198E0,8.983950615E0,1.000488502E1
1.705331655E0,3.109500110E-1,4.392000198E0,8.944950104E0,9.969879037E0
1.707294677E0,3.109500110E-1,4.354050159E0,8.944950104E0,9.953219331E0
1.709257732E0,3.109500110E-1,4.392000198E0,8.944950104E0,9.969879037E0
1.711221172E0,3.490500152E-1,4.392000198E0,8.983950615E0,1.000614163E1
1.713184499E0,3.490500152E-1,4.392000198E0,8.983950615E0,1.000614163E1
1.715147765E0,3.109500110E-1,4.354050159E0,8.944950104E0,9.953219331E0
1.717111045E0,3.490500152E-1,4.392000198E0,8.983950615E0,1.000614163E1
1.719074401E0,3.109500110E-1,4.354050159E0,8.944950104E0,9.953219331E0
1.721037735E0,3.490500152E-1,4.354050159E0,8.944950104E0,9.954482461E0
1.723000995E0,3.109500110E-1,4.392000198E0,8.983950615E0,1.000488502E1
1.724964276E0,3.870000243E-1,4.392000198E0,8.983950615E0,1.000753733E1
1.726927467E0,3.490500152E-1,4.392000198E0,9.022050858E0,1.004036371E1
1.728890674E0,3.870000243E-1,4.392000198E0,8.983950615E0,1.000753733E1
1.730853908E0,3.490500152E-1,4.392000198E0,9.022050858E0,1.004036371E1
1.732817134E0,3.490500152E-1,4.392000198E0,8.983950615E0,1.000614163E1
1.734780231E0,3.490500152E-1,4.392000198E0,9.022050858E0,1.004036371E1
1.736743366E0,3.490500152E-1,4.354050159E0,8.983950615E0,9.989542400E0
1.738706388E0,3.490500152E-1,4.392000198E0,9.022050858E0,1.004036371E1
1.740669443E0,3.870000243E-1,4.431000233E0,8.983950615E0,1.002471450E1
1.742632523E0,3.109500110E-1,4.392000198E0,9.022050858E0,1.003911138E1
1.744595595E0,3.490500152E-1,4.354050159E0,9.022050858E0,1.002382115E1
1.746558898E0,3.870000243E-1,4.354050159E0,8.983950615E0,9.990940419E0
1.748522134E0,4.260000288E-1,4.354050159E0,9.022050858E0,1.002679562E1
1.750484945E0,3.490500152E-1,4.354050159E0,9.022050858E0,1.002382115E1
1.752447891E0,3.870000243E-1,4.354050159E0,9.060000420E0,1.005938017E1
1.754410854E0,3.490500152E-1,4.354050159E0,8.983950615E0,9.989542400E0
1.756373812E0,3.870000243E-1,4.354050159E0,8.983950615E0,9.990940419E0
1.758336730E0,4.260000288E-1,4.354050159E0,9.022050858E0,1.002679562E1
1.760299660E0,3.870000243E-1,4.354050159E0,9.022050858E0,1.002521439E1
1.762262591E0,3.870000243E-1,4.354050159E0,9.022050858E0,1.002521439E1
1.764225515E0,3.490500152E-1,4.354050159E0,8.983950615E0,9.989542400E0
1.766188798E0,3.490500152E-1,4.354050159E0,8.944950104E0,9.954482461E0
1.768151975E0,3.490500152E-1,4.315950394E0,8.983950615E0,9.972995155E0
1.770115350E0,4.260000288E-1,4.354050159E0,9.022050858E0,1.002679562E1
1.772078667E0,3.870000243E-1,4.354050159E0,9.022050858E0,1.002521439E1
1.774041569E0,4.260000288E-1,4.354050159E0,9.022050858E0,1.002679562E1
1.776004592E0,4.260000288E-1,4.315950394E0,9.022050858E0,1.001030996E1
1.777967498E0,4.260000288E-1,4.315950394E0,9.022050858E0,1.001030996E1
1.779930438E0,4.260000288E-1,4.354050159E0,9.022050858E0,1.002679562E1
1.781893853E0,4.260000288E-1,4.315950394E0,8.944950104E0,9.940877033E0
1.783857129E0,4.639500082E-1,4.315950394E0,8.944950104E0,9.942575610E0
1.785820223E0,4.639500082E-1,4.354050159E0,9.022050858E0,1.002847965E1
1.787783367E0,4.639500082E-1,4.354050159E0,8.944950104E0,9.959173397E0
1.789746432E0,4.639500082E-1,4.315950394E0,8.983950615E0,9.977677388E0
1.791709520E0,5.020500422E-1,4.315950394E0,8.944950104E0,9.944426298E0
1.793672774E0,4.260000288E-1,4.315950394E0,8.944950104E0,9.940877033E0
1.795635980E0,4.639500082E-1,4.315950394E0,8.907000542E0,9.908447712E0
1.797599161E0,4.260000288E-1,4.315950394E0,8.944950104E0,9.940877033E0
1.799562357E0,4.639500082E-1,4.315950394E0,8.944950104E0,9.942575610E0
1.801525413E0,4.639500082E-1,4.354050159E0,8.869050026E0,9.891059133E0
1.803488510E0,4.260000288E-1,4.276950359E0,8.907000542E0,9.889814915E0
1.805451223E0,4.639500082E-1,4.315950394E0,8.944950104E0,9.942575610E0
1.807414049E0,3.870000243E-1,4.315950394E0,8.907000542E0,9.905142880E0
1.809377163E0,4.260000288E-1,4.315950394E0,8.944950104E0,9.940877033E0
1.811340196E0,4.260000288E-1,4.315950394E0,8.907000542E0,9.906743283E0
1.813302921E0,4.639500082E-1,4.315950394E0,8.907000542E0,9.908447712E0
1.815265736E0,3.870000243E-1,4.315950394E0,8.907000542E0,9.905142880E0
1.817228676E0,4.260000288E-1,4.315950394E0,8.907000542E0,9.906743283E0
1.819191580E0,4.639500082E-1,4.315950394E0,8.907000542E0,9.908447712E0
1.821154728E0,4.260000288E-1,4.315950394E0,8.907000542E0,9.906743283E0
1.823117807E0,4.260000288E-1,4.315950394E0,8.907000542E0,9.906743283E0
1.825080885E0,4.260000288E-1,4.354050159E0,8.907000542E0,9.923401003E0
1.827043963E0,4.260000288E-1,4.354050159E0,8.907000542E0,9.923401003E0
1.829007040E0,4.260000288E-1,4.354050159E0,8.907000542E0,9.923401003E0
1.830970117E0,3.870000243E-1,4.354050159E0,8.869050026E0,9.887748489E0
1.832933508E0,4.260000288E-1,4.392000198E0,8.869050026E0,9.906118823E0
1.834896807E0,4.639500082E-1,4.315950394E0,8.907000542E0,9.908447712E0
1.836860073E0,4.639500082E-1,4.315950394E0,8.869050026E0,9.874346853E0
1.838823348E0,4.260000288E-1,4.354050159E0,8.907000542E0,9.923401003E0
1.840786931E0,4.260000288E-1,4.354050159E0,8.944950104E0,9.957477651E0
1.842750423E0,4.639500082E-1,4.392000198E0,8.907000542E0,9.941809393E0
1.844713424E0,4.260000288E-1,4.392000198E0,8.907000542E0,9.940110684E0
1.846676573E0,3.870000243E-1,4.354050159E0,8.944950104E0,9.955885404E0
1.848639952E0,5.020500422E-1,4.354050159E0,8.944950104E0,9.961021002E0
1.850603264E0,4.260000288E-1,4.315950394E0,8.869050026E0,9.872636537E0
1.852566482E0,3.870000243E-1,4.354050159E0,8.907000542E0,9.921803287E0
1.854529727E0,4.260000288E-1,4.354050159E0,8.869050026E0,9.889351707E0
1.856493000E0,4.260000288E-1,4.354050159E0,8.907000542E0,9.923401003E0
1.858456264E0,3.870000243E-1,4.315950394E0,8.907000542E0,9.905142880E0
1.860419310E0,3.870000243E-1,4.354050159E0,8.907000542E0,9.921803287E0
1.862382420E0,4.260000288E-1,4.354050159E0,8.907000542E0,9.923401003E0
1.864345805E0,4.260000288E-1,4.354050159E0,8.907000542E0,9.923401003E0
1.866309110E0,3.870000243E-1,4.315950394E0,8.869050026E0,9.871030604E0
1.868272338E0,3.490500152E-1,4.315950394E0,8.944950104E0,9.937876839E0
1.870235583E0,3.870000243E-1,4.354050159E0,8.944950104E0,9.955885404E0
1.872198811E0,3.870000243E-1,4.315950394E0,8.944950104E0,9.939282126E0
1.874162044E0,3.109500110E-1,4.354050159E0,8.944950104E0,9.953219331E0
1.876125139E0,3.870000243E-1,4.354050159E0,8.907000542E0,9.921803287E0
1.878088275E0,3.490500152E-1,4.354050159E0,8.907000542E0,9.920395524E0
1.880051521E0,3.870000243E-1,4.354050159E0,8.907000542E0,9.921803287E0
1.882014734E0,3.490500152E-1,4.354050159E0,9.022050858E0,1.002382115E1
1.883978103E0,3.490500152E-1,4.354050159E0,8.907000542E0,9.920395524E0
1.885941427E0,3.490500152E-1,4.354050159E0,8.907000542E0,9.920395524E0
1.887904822E0,3.490500152E-1,4.315950394E0,8.944950104E0,9.937876839E0
1.889868196E0,3.490500152E-1,4.354050159E0,8.983950615E0,9.989542400E0
1.891831064E0,3.870000243E-1,4.354050159E0,8.907000542E0,9.921803287E0
1.893794097E0,3.490500152E-1,4.431000233E0,8.944950104E0,9.988379815E0
1.895757496E0,3.490500152E-1,4.354050159E0,8.983950615E0,9.989542400E0
1.897720787E0,3.490500152E-1,4.354050159E0,8.907000542E0,9.920395524E0
1.899684009E0,3.490500152E-1,4.354050159E0,8.983950615E0,9.989542400E0
1.901647251E0,3.109500110E-1,4.354050159E0,8.944950104E0,9.953219331E0
1.903610465E0,3.109500110E-1,4.354050159E0,8.983950615E0,9.988283704E0
1.905573698E0,3.490500152E-1,4.392000198E0,9.022050858E0,1.004036371E1
1.907536568E0,3.109500110E-1,4.392000198E0,8.983950615E0,1.000488502E1
1.909499545E0,3.490500152E-1,4.392000198E0,9.022050858E0,1.004036371E1
1.911462683E0,3.109500110E-1,4.392000198E0,9.022050858E0,1.003911138E1
1.913425773E0,3.490500152E-1,4.392000198E0,8.907000542E0,9.937110259E0
1.915388789E0,3.109500110E-1,4.392000198E0,9.022050858E0,1.003911138E1
1.917351837E0,3.109500110E-1,4.431000233E0,9.022050858E0,1.005623462E1
1.919314739E0,3.490500152E-1,4.392000198E0,8.983950615E0,1.000614163E1
1.921277684E0,3.490500152E-1,4.392000198E0,8.944950104E0,9.971140056E0
1.923240647E0,3.870000243E-1,4.392000198E0,8.983950615E0,1.000753733E1
1.925203605E0,3.109500110E-1,4.392000198E0,9.022050858E0,1.003911138E1
1.927166648E0,3.490500152E-1,4.354050159E0,9.022050858E0,1.002382115E1
1.929129673E0,3.870000243E-1,4.392000198E0,8.983950615E0,1.000753733E1
1.931092984E0,3.109500110E-1,4.392000198E0,8.983950615E0,1.000488502E1
1.933056211E0,3.109500110E-1,4.354050159E0,8.983950615E0,9.988283704E0
1.935019218E0,3.870000243E-1,4.392000198E0,8.907000542E0,9.938515654E0
1.936982290E0,3.490500152E-1,4.392000198E0,8.907000542E0,9.937110259E0
1.938945386E0,3.870000243E-1,4.392000198E0,8.944950104E0,9.972540655E0
1.940908461E0,3.490500152E-1,4.392000198E0,8.983950615E0,1.000614163E1
1.942871538E0,3.109500110E-1,4.392000198E0,8.907000542E0,9.935844921E0
1.944834615E0,3.490500152E-1,4.392000198E0,8.944950104E0,9.971140056E0
1.946798052E0,3.490500152E-1,4.392000198E0,8.944950104E0,9.971140056E0
1.948761384E0,3.109500110E-1,4.392000198E0,8.944950104E0,9.969879037E0
1.950724098E0,3.870000243E-1,4.354050159E0,8.944950104E0,9.955885404E0
1.952686996E0,3.490500152E-1,4.354050159E0,8.983950615E0,9.989542400E0
1.954650418E0,4.260000288E-1,4.354050159E0,8.944950104E0,9.957477651E0
1.956613687E0,3.490500152E-1,4.354050159E0,8.944950104E0,9.954482461E0
1.958576777E0,3.490500152E-1,4.354050159E0,8.983950615E0,9.989542400E0
1.960539919E0,3.870000243E-1,4.392000198E0,8.944950104E0,9.972540655E0
1.962503124E0,3.870000243E-1,4.315950394E0,8.907000542E0,9.905142880E0
1.964466307E0,3.870000243E-1,4.315950394E0,8.944950104E0,9.939282126E0
1.966429412E0,3.870000243E-1,4.354050159E0,8.944950104E0,9.955885404E0
1.968392540E0,3.870000243E-1,4.354050159E0,8.944950104E0,9.955885404E0
1.970355787E0,4.260000288E-1,4.315950394E0,8.944950104E0,9.940877033E0
1.972318999E0,3.870000243E-1,4.315950394E0,8.944950104E0,9.939282126E0
1.974281838E0,4.639500082E-1,4.315950394E0,8.907000542E0,9.908447712E0
1.976244780E0,3.870000243E-1,4.354050159E0,8.907000542E0,9.921803287E0
1.978208239E0,3.870000243E-1,4.315950394E0,8.944950104E0,9.939282126E0
1.980171547E0,4.639500082E-1,4.315950394E0,8.907000542E0,9.908447712E0
1.982134631E0,5.020500422E-1,4.315950394E0,8.944950104E0,9.944426298E0
1.984097780E0,3.870000243E-1,4.315950394E0,8.944950104E0,9.939282126E0
1.986060830E0,3.870000243E-1,4.315950394E0,9.022050858E0,1.000872612E1
1.988023919E0,3.490500152E-1,4.315950394E0,8.983950615E0,9.972995155E0
1.989987173E0,3.870000243E-1,4.315950394E0,8.983950615E0,9.974395494E0
1.991950379E0,3.870000243E-1,4.392000198E0,8.944950104E0,9.972540655E0
1.993913749E0,3.490500152E-1,4.315950394E0,8.983950615E0,9.972995155E0
1.995877071E0,3.870000243E-1,4.354050159E0,8.983950615E0,9.990940419E0
1.997840652E0,3.490500152E-1,4.354050159E0,8.983950615E0,9.989542400E0
1.999804153E0,3.490500152E-1,4.354050159E0,8.944950104E0,9.954482461E0
2.001767384E0,3.109500110E-1,4.354050159E0,8.944950104E0,9.953219331E0
2.003730694E0,3.109500110E-1,4.354050159E0,9.022050858E0,1.002256676E1
2.005693911E0,3.109500110E-1,4.354050159E0,8.983950615E0,9.988283704E0
2.007657155E0,3.109500110E-1,4.354050159E0,8.983950615E0,9.988283704E0
2.009620320E0,2.719500065E-1,4.354050159E0,8.983950615E0,9.987145651E0
2.011583521E0,3.109500110E-1,4.392000198E0,8.944950104E0,9.969879037E0
2.013546755E0,3.109500110E-1,4.354050159E0,8.907000542E0,9.919128054E0
2.015509980E0,3.109500110E-1,4.354050159E0,8.983950615E0,9.988283704E0
2.017473078E0,2.719500065E-1,4.354050159E0,8.983950615E0,9.987145651E0
2.019436213E0,3.490500152E-1,4.392000198E0,8.944950104E0,9.971140056E0
2.021399786E0,3.490500152E-1,4.392000198E0,8.944950104E0,9.971140056E0
2.023363254E0,3.490500152E-1,4.354050159E0,8.944950104E0,9.954482461E0
2.025326805E0,3.490500152E-1,4.354050159E0,8.944950104E0,9.954482461E0
2.027290331E0,3.109500110E-1,4.354050159E0,8.944950104E0,9.953219331E0
2.029253828E0,3.490500152E-1,4.354050159E0,8.944950104E0,9.954482461E0
2.031217333E0,3.490500152E-1,4.354050159E0,8.944950104E0,9.954482461E0
2.033180522E0,3.490500152E-1,4.354050159E0,8.907000542E0,9.920395524E0
2.035143800E0,3.870000243E-1,4.354050159E0,8.907000542E0,9.921803287E0
2.037107247E0,3.109500110E-1,4.354050159E0,8.869050026E0,9.885064039E0
2.039070644E0,3.490500152E-1,4.354050159E0,8.907000542E0,9.920395524E0
2.041034207E0,3.490500152E-1,4.315950394E0,8.944950104E0,9.937876839E0
2.042997721E0,3.490500152E-1,4.315950394E0,8.907000542E0,9.903732749E0
2.044960904E0,4.260000288E-1,4.315950394E0,8.907000542E0,9.906743283E0
2.046924184E0,4.260000288E-1,4.315950394E0,8.983950615E0,9.975984787E0
2.048887407E0,3.870000243E-1,4.354050159E0,8.907000542E0,9.921803287E0
2.050850646E0,4.260000288E-1,4.315950394E0,8.983950615E0,9.975984787E0
2.052814054E0,4.260000288E-1,4.315950394E0,8.907000542E0,9.906743283E0
2.054777413E0,4.260000288E-1,4.315950394E0,8.983950615E0,9.975984787E0
2.056741123E0,3.870000243E-1,4.354050159E0,8.944950104E0,9.955885404E0
2.058704726E0,3.870000243E-1,4.354050159E0,8.944950104E0,9.955885404E0
2.060668255E0,3.870000243E-1,4.354050159E0,8.869050026E0,9.887748489E0
2.062631805E0,3.490500152E-1,4.354050159E0,8.869050026E0,9.886335877E0
2.064595565E0,3.490500152E-1,4.392000198E0,8.907000542E0,9.937110259E0
2.066559264E0,3.870000243E-1,4.392000198E0,8.944950104E0,9.972540655E0
2.068522551E0,3.870000243E-1,4.431000233E0,8.907000542E0,9.955811907E0
2.070485959E0,3.870000243E-1,4.392000198E0,8.944950104E0,9.972540655E0
2.072449699E0,3.490500152E-1,4.392000198E0,8.869050026E0,9.903108099E0
2.074413341E0,3.870000243E-1,4.392000198E0,8.907000542E0,9.938515654E0
2.076376728E0,3.870000243E-1,4.392000198E0,8.907000542E0,9.938515654E0
2.078340189E0,3.870000243E-1,4.431000233E0,8.907000542E0,9.955811907E0
2.080303759E0,3.870000243E-1,4.431000233E0,8.907000542E0,9.955811907E0
2.082267283E0,3.490500152E-1,4.392000198E0,8.944950104E0,9.971140056E0
2.084230824E0,3.490500152E-1,4.392000198E0,8.983950615E0,1.000614163E1
2.086194360E0,3.870000243E-1,4.431000233E0,8.983950615E0,1.002471450E1
2.088157855E0,3.490500152E-1,4.431000233E0,8.944950104E0,9.988379815E0
2.090121362E0,3.490500152E-1,4.392000198E0,8.983950615E0,1.000614163E1
2.092084605E0,3.490500152E-1,4.431000233E0,9.022050858E0,1.005748481E1
2.094047915E0,3.870000243E-1,4.392000198E0,8.944950104E0,9.972540655E0
2.096011087E0,3.490500152E-1,4.468950272E0,9.022050858E0,1.007426196E1
2.097974299E0,3.490500152E-1,4.392000198E0,8.983950615E0,1.000614163E1
2.099937532E0,3.490500152E-1,4.392000198E0,9.022050858E0,1.004036371E1
2.101900759E0,3.490500152E-1,4.431000233E0,8.983950615E0,1.002332119E1
2.103863885E0,3.870000243E-1,4.354050159E0,8.983950615E0,9.990940419E0
2.105827021E0,3.490500152E-1,4.392000198E0,9.022050858E0,1.004036371E1
2.107790267E0,3.490500152E-1,4.354050159E0,9.060000420E0,1.005799166E1
2.109753480E0,3.109500110E-1,4.354050159E0,9.098999977E0,1.009188998E1
2.111717029E0,3.870000243E-1,4.392000198E0,9.022050858E0,1.004175465E1
2.113680480E0,3.870000243E-1,4.354050159E0,9.022050858E0,1.002521439E1
2.115643729E0,3.490500152E-1,4.354050159E0,9.060000420E0,1.005799166E1
2.117607031E0,3.870000243E-1,4.315950394E0,9.060000420E0,1.004294799E1
2.119570429E0,3.870000243E-1,4.354050159E0,8.983950615E0,9.990940419E0
2.121533798E0,3.490500152E-1,4.315950394E0,9.022050858E0,1.000733058E1
2.123496961E0,3.870000243E-1,4.354050159E0,8.983950615E0,9.990940419E0
2.125460185E0,3.490500152E-1,4.239000320E0,9.022050858E0,9.974385260E0
2.127423596E0,3.490500152E-1,4.239000320E0,9.060000420E0,1.000872456E1
2.129386952E0,3.870000243E-1,4.276950359E0,9.060000420E0,1.002624960E1
2.131350341E0,3.870000243E-1,4.315950394E0,9.022050858E0,1.000872612E1
2.133313721E0,3.870000243E-1,4.239000320E0,8.983950615E0,9.941341026E0
2.135276792E0,3.490500152E-1,4.276950359E0,8.983950615E0,9.956179435E0
2.137239954E0,3.109500110E-1,4.276950359E0,9.022050858E0,9.989314089E0
2.139203215E0,3.490500152E-1,4.354050159E0,8.983950615E0,9.989542400E0
2.141166433E0,3.490500152E-1,4.276950359E0,8.983950615E0,9.956179435E0
2.143129666E0,3.490500152E-1,4.315950394E0,8.983950615E0,9.972995155E0
2.145092895E0,3.490500152E-1,4.276950359E0,8.983950615E0,9.956179435E0
2.147056126E0,3.490500152E-1,4.276950359E0,8.983950615E0,9.956179435E0
2.149019356E0,3.870000243E-1,4.276950359E0,8.983950615E0,9.957582139E0
2.150982582E0,3.490500152E-1,4.239000320E0,8.907000542E0,9.870441646E0
2.152945813E0,3.870000243E-1,4.315950394E0,8.983950615E0,9.974395494E0
2.154909359E0,4.260000288E-1,4.239000320E0,8.983950615E0,9.942935602E0
2.156872813E0,3.870000243E-1,4.276950359E0,8.944950104E0,9.922409272E0
2.158835826E0,3.870000243E-1,4.276950359E0,8.983950615E0,9.957582139E0
2.160798969E0,4.260000288E-1,4.315950394E0,8.944950104E0,9.940877033E0
2.162762179E0,4.639500082E-1,4.315950394E0,8.983950615E0,9.977677388E0
2.164725394E0,4.639500082E-1,4.315950394E0,8.907000542E0,9.908447712E0
2.166688494E0,4.260000288E-1,4.276950359E0,8.983950615E0,9.959174115E0
2.168651627E0,3.870000243E-1,4.315950394E0,8.983950615E0,9.974395494E0
2.170615054E0,4.260000288E-1,4.315950394E0,8.944950104E0,9.940877033E0
2.172578394E0,4.639500082E-1,4.315950394E0,8.983950615E0,9.977677388E0
2.174541792E0,4.260000288E-1,4.315950394E0,8.983950615E0,9.975984787E0
2.176505169E0,4.260000288E-1,4.354050159E0,8.983950615E0,9.992527081E0
2.178468330E0,5.020500422E-1,4.354050159E0,8.983950615E0,9.996058007E0
2.180431555E0,4.260000288E-1,4.315950394E0,8.907000542E0,9.906743283E0
2.182394831E0,4.639500082E-1,4.276950359E0,8.944950104E0,9.925708355E0
2.184358092E0,3.870000243E-1,4.276950359E0,8.944950104E0,9.922409272E0
2.186321633E0,4.639500082E-1,4.315950394E0,8.944950104E0,9.942575610E0
2.188285092E0,4.260000288E-1,4.315950394E0,8.907000542E0,9.906743283E0
2.190248105E0,3.870000243E-1,4.354050159E0,8.907000542E0,9.921803287E0
2.192211248E0,4.260000288E-1,4.315950394E0,8.907000542E0,9.906743283E0
2.194174538E0,4.260000288E-1,4.354050159E0,8.983950615E0,9.992527081E0
2.196137784E0,5.020500422E-1,4.315950394E0,8.944950104E0,9.944426298E0
2.198101047E0,3.870000243E-1,4.354050159E0,8.907000542E0,9.921803287E0
2.200064281E0,4.260000288E-1,4.315950394E0,8.944950104E0,9.940877033E0
2.202027826E0,4.260000288E-1,4.354050159E0,8.907000542E0,9.923401003E0
2.203991279E0,4.639500082E-1,4.315950394E0,8.944950104E0,9.942575610E0
2.205954518E0,3.870000243E-1,4.354050159E0,8.944950104E0,9.955885404E0
2.207917819E0,3.490500152E-1,4.354050159E0,9.022050858E0,1.002382115E1
2.209881237E0,3.870000243E-1,4.354050159E0,8.944950104E0,9.955885404E0
2.211844606E0,4.260000288E-1,4.354050159E0,8.907000542E0,9.923401003E0
2.213807589E0,3.490500152E-1,4.354050159E0,8.944950104E0,9.954482461E0
2.215770685E0,3.490500152E-1,4.354050159E0,8.944950104E0,9.954482461E0
2.217733983E0,3.870000243E-1,4.354050159E0,8.944950104E0,9.955885404E0
2.219697222E0,4.260000288E-1,4.354050159E0,8.944950104E0,9.957477651E0
2.221660402E0,3.870000243E-1,4.354050159E0,8.907000542E0,9.921803287E0
2.223623603E0,4.260000288E-1,4.315950394E0,8.907000542E0,9.906743283E0
2.225587018E0,3.490500152E-1,4.392000198E0,8.983950615E0,1.000614163E1
2.227550371E0,3.490500152E-1,4.392000198E0,8.983950615E0,1.000614163E1
2.229513582E0,3.870000243E-1,4.392000198E0,8.944950104E0,9.972540655E0
2.231476834E0,3.870000243E-1,4.392000198E0,8.983950615E0,1.000753733E1
2.233440086E0,3.490500152E-1,4.392000198E0,8.944950104E0,9.971140056E0
2.235403352E0,3.870000243E-1,4.392000198E0,8.983950615E0,1.000753733E1
2.237366712E0,3.490500152E-1,4.431000233E0,8.944950104E0,9.988379815E0
2.239330044E0,3.490500152E-1,4.392000198E0,8.944950104E0,9.971140056E0
2.241293123E0,3.870000243E-1,4.354050159E0,8.983950615E0,9.990940419E0
2.243256277E0,3.870000243E-1,4.392000198E0,8.983950615E0,1.000753733E1
2.245219520E0,3.870000243E-1,4.392000198E0,8.983950615E0,1.000753733E1
2.247182736E0,3.870000243E-1,4.354050159E0,8.983950615E0,9.990940419E0
2.249145926E0,3.109500110E-1,4.392000198E0,8.944950104E0,9.969879037E0
2.251109123E0,3.490500152E-1,4.354050159E0,8.944950104E0,9.954482461E0
2.253072179E0,3.870000243E-1,4.354050159E0,8.907000542E0,9.921803287E0
2.255035277E0,3.870000243E-1,4.354050159E0,8.983950615E0,9.990940419E0
2.256998146E0,3.490500152E-1,4.392000198E0,8.944950104E0,9.971140056E0
2.258961099E0,3.490500152E-1,4.392000198E0,8.944950104E0,9.971140056E0
2.260924376E0,3.870000243E-1,4.392000198E0,8.944950104E0,9.972540655E0
2.262887558E0,4.260000288E-1,4.354050159E0,8.944950104E0,9.957477651E0
2.264850663E0,4.260000288E-1,4.392000198E0,8.944950104E0,9.974130244E0
2.266813791E0,4.260000288E-1,4.354050159E0,8.907000542E0,9.923401003E0
2.268776679E0,3.490500152E-1,4.354050159E0,8.944950104E0,9.954482461E0
2.270739637E0,3.490500152E-1,4.354050159E0,8.944950104E0,9.954482461E0
2.272702869E0,3.870000243E-1,4.315950394E0,8.907000542E0,9.905142880E0
2.274666020E0,4.260000288E-1,4.354050159E0,8.944950104E0,9.957477651E0
2.276629085E0,3.109500110E-1,4.354050159E0,8.944950104E0,9.953219331E0
2.278592176E0,3.870000243E-1,4.315950394E0,8.907000542E0,9.905142880E0
2.280555227E0,3.870000243E-1,4.315950394E0,8.907000542E0,9.905142880E0
2.282518306E0,3.870000243E-1,4.315950394E0,8.907000542E0,9.905142880E0
2.284481383E0,3.870000243E-1,4.354050159E0,8.944950104E0,9.955885404E0
2.286444460E0,3.490500152E-1,4.315950394E0,8.907000542E0,9.903732749E0
2.288407580E0,4.260000288E-1,4.354050159E0,8.907000542E0,9.923401003E0
2.290370688E0,3.870000243E-1,4.315950394E0,8.907000542E0,9.905142880E0
2.292333712E0,4.260000288E-1,4.392000198E0,8.907000542E0,9.940110684E0
2.294296795E0,4.260000288E-1,4.315950394E0,8.907000542E0,9.906743283E0
2.296260230E0,4.260000288E-1,4.354050159E0,8.907000542E0,9.923401003E0
2.298223562E0,3.870000243E-1,4.315950394E0,8.944950104E0,9.939282126E0
2.300186956E0,4.260000288E-1,4.392000198E0,8.830050468E0,9.871217404E0
2.302150332E0,4.260000288E-1,4.354050159E0,8.944950104E0,9.957477651E0
2.304113148E0,3.870000243E-1,4.354050159E0,8.944950104E0,9.955885404E0
2.306076118E0,3.490500152E-1,4.315950394E0,8.907000542E0,9.903732749E0
2.308039212E0,3.870000243E-1,4.315950394E0,8.907000542E0,9.905142880E0
2.310002270E0,4.260000288E-1,4.354050159E0,8.944950104E0,9.957477651E0
2.311965395E0,3.870000243E-1,4.354050159E0,8.944950104E0,9.955885404E0
2.313928501E0,3.490500152E-1,4.354050159E0,8.944950104E0,9.954482461E0
2.315891559E0,3.490500152E-1,4.315950394E0,8.944950104E0,9.937876839E0
2.317854641E0,3.870000243E-1,4.354050159E0,8.944950104E0,9.955885404E0
2.319818077E0,3.870000243E-1,4.315950394E0,8.983950615E0,9.974395494E0
2.321781409E0,3.490500152E-1,4.354050159E0,8.983950615E0,9.989542400E0
2.323744757E0,3.870000243E-1,4.315950394E0,8.944950104E0,9.939282126E0
2.325708101E0,3.870000243E-1,4.392000198E0,8.944950104E0,9.972540655E0
2.327671333E0,4.260000288E-1,4.354050159E0,8.944950104E0,9.957477651E0
2.329634616E0,3.870000243E-1,4.354050159E0,8.983950615E0,9.990940419E0
2.331597972E0,3.870000243E-1,4.354050159E0,8.983950615E0,9.990940419E0
2.333561307E0,4.260000288E-1,4.392000198E0,9.060000420E0,1.007743764E1
2.335524341E0,4.260000288E-1,4.392000198E0,8.983950615E0,1.000912136E1
2.337487463E0,3.870000243E-1,4.354050159E0,8.907000542E0,9.921803287E0
2.339450338E0,4.260000288E-1,4.354050159E0,8.944950104E0,9.957477651E0
2.341413295E0,4.260000288E-1,4.392000198E0,8.944950104E0,9.974130244E0
2.343376437E0,3.870000243E-1,4.431000233E0,8.907000542E0,9.955811907E0
2.345339524E0,3.870000243E-1,4.392000198E0,8.869050026E0,9.904518319E0
2.347302600E0,3.490500152E-1,4.354050159E0,8.907000542E0,9.920395524E0
2.349265679E0,3.490500152E-1,4.354050159E0,8.907000542E0,9.920395524E0
2.351228959E0,3.870000243E-1,4.392000198E0,8.907000542E0,9.938515654E0
2.353192163E0,3.490500152E-1,4.431000233E0,8.907000542E0,9.954408954E0
2.355155355E0,3.490500152E-1,4.392000198E0,8.944950104E0,9.971140056E0
2.357118550E0,4.260000288E-1,4.431000233E0,8.907000542E0,9.957404167E0
2.359081471E0,3.490500152E-1,4.431000233E0,8.869050026E0,9.920466085E0
2.361044473E0,3.870000243E-1,4.392000198E0,8.869050026E0,9.904518319E0
2.363007512E0,3.490500152E-1,4.431000233E0,8.907000542E0,9.954408954E0
2.364970543E0,3.870000243E-1,4.392000198E0,8.830050468E0,9.869611240E0
2.366933808E0,3.490500152E-1,4.392000198E0,8.944950104E0,9.971140056E0
2.368897004E0,3.490500152E-1,4.431000233E0,8.907000542E0,9.954408954E0
2.370860241E0,3.490500152E-1,4.431000233E0,8.944950104E0,9.988379815E0
2.372823466E0,3.870000243E-1,4.431000233E0,8.944950104E0,9.989777998E0
2.374786684E0,3.490500152E-1,4.431000233E0,8.944950104E0,9.988379815E0
2.376749913E0,3.490500152E-1,4.392000198E0,8.944950104E0,9.971140056E0
2.378713325E0,3.490500152E-1,4.392000198E0,9.022050858E0,1.004036371E1
2.380676683E0,3.870000243E-1,4.431000233E0,8.983950615E0,1.002471450E1
2.382639893E0,3.870000243E-1,4.354050159E0,8.983950615E0,9.990940419E0
2.384603146E0,3.870000243E-1,4.392000198E0,8.983950615E0,1.000753733E1
2.386566334E0,3.490500152E-1,4.392000198E0,9.022050858E0,1.004036371E1
2.388529569E0,3.490500152E-1,4.354050159E0,9.022050858E0,1.002382115E1
2.390493023E0,3.109500110E-1,4.315950394E0,9.022050858E0,1.000607412E1
2.392456413E0,3.109500110E-1,4.392000198E0,8.983950615E0,1.000488502E1
2.394419617E0,2.719500065E-1,4.392000198E0,8.983950615E0,1.000374886E1
2.396382876E0,3.109500110E-1,4.354050159E0,9.022050858E0,1.002256676E1
2.398346116E0,3.490500152E-1,4.354050159E0,8.983950615E0,9.989542400E0
2.400309352E0,3.109500110E-1,4.315950394E0,8.944950104E0,9.936611599E0
2.402272402E0,2.719500065E-1,4.354050159E0,8.983950615E0,9.987145651E0
2.404235506E0,3.109500110E-1,4.354050159E0,8.983950615E0,9.988283704E0
2.406198892E0,3.870000243E-1,4.354050159E0,8.983950615E0,9.990940419E0
2.408162196E0,3.109500110E-1,4.392000198E0,9.060000420E0,1.007323003E1
2.410125407E0,3.109500110E-1,4.354050159E0,8.983950615E0,9.988283704E0
2.412088651E0,3.490500152E-1,4.354050159E0,9.022050858E0,1.002382115E1
2.414051879E0,3.109500110E-1,4.392000198E0,9.022050858E0,1.003911138E1
2.416015112E0,3.870000243E-1,4.354050159E0,9.022050858E0,1.002521439E1
2.417978162E0,3.490500152E-1,4.315950394E0,9.022050858E0,1.000733058E1
2.419941266E0,3.490500152E-1,4.392000198E0,9.022050858E0,1.004036371E1
2.421904406E0,3.109500110E-1,4.354050159E0,9.022050858E0,1.002256676E1
2.423867519E0,3.109500110E-1,4.354050159E0,9.022050858E0,1.002256676E1
2.425830546E0,3.109500110E-1,4.354050159E0,9.022050858E0,1.002256676E1
2.427793598E0,3.490500152E-1,4.392000198E0,8.983950615E0,1.000614163E1
2.429756723E0,3.490500152E-1,4.354050159E0,9.060000420E0,1.005799166E1
2.431719827E0,3.490500152E-1,4.354050159E0,9.022050858E0,1.002382115E1
2.433683419E0,3.490500152E-1,4.315950394E0,9.022050858E0,1.000733058E1
2.435646851E0,3.870000243E-1,4.354050159E0,8.983950615E0,9.990940419E0
2.437610093E0,3.870000243E-1,4.354050159E0,9.022050858E0,1.002521439E1
2.439573391E0,3.870000243E-1,4.315950394E0,9.022050858E0,1.000872612E1
2.441536744E0,3.109500110E-1,4.315950394E0,9.060000420E0,1.004030504E1
2.443500081E0,3.490500152E-1,4.315950394E0,9.022050858E0,1.000733058E1
2.445462953E0,3.870000243E-1,4.315950394E0,8.983950615E0,9.974395494E0
2.447425948E0,3.870000243E-1,4.315950394E0,8.983950615E0,9.974395494E0
2.449388904E0,4.260000288E-1,4.315950394E0,9.060000420E0,1.004452644E1
2.451351872E0,3.870000243E-1,4.315950394E0,9.022050858E0,1.000872612E1
2.453315101E0,3.870000243E-1,4.315950394E0,8.944950104E0,9.939282126E0
2.455278254E0,4.260000288E-1,4.276950359E0,8.944950104E0,9.924006890E0
2.457240989E0,4.260000288E-1,4.315950394E0,9.022050858E0,1.001030996E1
2.459203857E0,4.639500082E-1,4.315950394E0,8.983950615E0,9.977677388E0
2.461166968E0,4.260000288E-1,4.315950394E0,8.944950104E0,9.940877033E0
2.463130008E0,3.490500152E-1,4.315950394E0,8.944950104E0,9.937876839E0
2.465093227E0,4.260000288E-1,4.354050159E0,8.907000542E0,9.923401003E0
2.467056393E0,4.260000288E-1,4.315950394E0,8.944950104E0,9.940877033E0
2.469019349E0,4.260000288E-1,4.354050159E0,8.944950104E0,9.957477651E0
2.470982347E0,3.870000243E-1,4.315950394E0,8.907000542E0,9.905142880E0
2.472945572E0,3.870000243E-1,4.315950394E0,8.907000542E0,9.905142880E0
2.474908730E0,3.490500152E-1,4.315950394E0,8.944950104E0,9.937876839E0
2.476871973E0,3.490500152E-1,4.315950394E0,8.944950104E0,9.937876839E0
2.478835191E0,4.260000288E-1,4.315950394E0,8.944950104E0,9.940877033E0
2.480798319E0,3.870000243E-1,4.354050159E0,8.944950104E0,9.955885404E0
2.482761453E0,3.870000243E-1,4.354050159E0,8.907000542E0,9.921803287E0
2.484724520E0,4.260000288E-1,4.354050159E0,8.907000542E0,9.923401003E0
2.486687607E0,4.260000288E-1,4.354050159E0,8.944950104E0,9.957477651E0
2.488651041E0,4.260000288E-1,4.315950394E0,8.983950615E0,9.975984787E0
2.490614374E0,3.870000243E-1,4.354050159E0,8.944950104E0,9.955885404E0
2.492577349E0,3.870000243E-1,4.354050159E0,8.907000542E0,9.921803287E0
2.494540439E0,4.639500082E-1,4.354050159E0,8.907000542E0,9.925102571E0
2.496503333E0,3.870000243E-1,4.354050159E0,8.907000542E0,9.921803287E0
2.498466285E0,4.639500082E-1,4.354050159E0,8.907000542E0,9.925102571E0
2.500429427E0,4.260000288E-1,4.392000198E0,8.869050026E0,9.906118823E0
2.502392514E0,4.260000288E-1,4.392000198E0,8.907000542E0,9.940110684E0
2.504355590E0,3.870000243E-1,4.392000198E0,8.944950104E0,9.972540655E0
2.506318670E0,4.260000288E-1,4.392000198E0,8.907000542E0,9.940110684E0
2.508281746E0,4.260000288E-1,4.392000198E0,8.907000542E0,9.940110684E0
2.510244824E0,3.870000243E-1,4.392000198E0,8.869050026E0,9.904518319E0
2.512208260E0,3.870000243E-1,4.354050159E0,8.869050026E0,9.887748489E0
2.514171591E0,3.870000243E-1,4.392000198E0,8.869050026E0,9.904518319E0
2.516134770E0,4.260000288E-1,4.354050159E0,8.907000542E0,9.923401003E0
2.518097987E0,3.870000243E-1,4.354050159E0,8.944950104E0,9.955885404E0
2.520061084E0,3.870000243E-1,4.354050159E0,8.869050026E0,9.887748489E0
2.522024217E0,3.870000243E-1,4.392000198E0,8.907000542E0,9.938515654E0
2.523987644E0,4.260000288E-1,4.392000198E0,8.944950104E0,9.974130244E0
2.525950985E0,3.490500152E-1,4.354050159E0,8.983950615E0,9.989542400E0
2.527914396E0,3.870000243E-1,4.354050159E0,8.983950615E0,9.990940419E0
2.529877773E0,3.870000243E-1,4.392000198E0,9.022050858E0,1.004175465E1
2.531841294E0,4.260000288E-1,4.354050159E0,8.983950615E0,9.992527081E0
2.533804773E0,4.260000288E-1,4.315950394E0,9.060000420E0,1.004452644E1
2.535767962E0,3.870000243E-1,4.315950394E0,9.022050858E0,1.000872612E1
2.537731236E0,3.870000243E-1,4.315950394E0,9.022050858E0,1.000872612E1
2.539694455E0,4.260000288E-1,4.315950394E0,9.022050858E0,1.001030996E1
2.541657693E0,3.870000243E-1,4.315950394E0,8.983950615E0,9.974395494E0
2.543620966E0,4.260000288E-1,4.315950394E0,8.983950615E0,9.975984787E0
2.545584229E0,3.870000243E-1,4.354050159E0,8.983950615E0,9.990940419E0
2.547547770E0,3.870000243E-1,4.354050159E0,9.022050858E0,1.002521439E1
2.549511229E0,3.870000243E-1,4.315950394E0,9.022050858E0,1.000872612E1
2.551474796E0,4.260000288E-1,4.354050159E0,8.983950615E0,9.992527081E0
2.553438321E0,3.870000243E-1,4.315950394E0,8.983950615E0,9.974395494E0
2.555401728E0,3.490500152E-1,4.276950359E0,8.944950104E0,9.921001595E0
2.557365170E0,4.260000288E-1,4.315950394E0,8.983950615E0,9.975984787E0
2.559328499E0,4.260000288E-1,4.315950394E0,8.983950615E0,9.975984787E0
2.561291862E0,3.490500152E-1,4.315950394E0,8.983950615E0,9.972995155E0
2.563254959E0,3.490500152E-1,4.315950394E0,8.983950615E0,9.972995155E0
2.565218117E0,3.870000243E-1,4.315950394E0,8.944950104E0,9.939282126E0
2.567181494E0,3.109500110E-1,4.315950394E0,8.983950615E0,9.971734371E0
2.569144807E0,3.490500152E-1,4.354050159E0,8.983950615E0,9.989542400E0
2.571108070E0,3.870000243E-1,4.315950394E0,8.983950615E0,9.974395494E0
2.573071347E0,3.490500152E-1,4.315950394E0,8.983950615E0,9.972995155E0
2.575034414E0,3.109500110E-1,4.315950394E0,9.022050858E0,1.000607412E1
2.576997525E0,3.870000243E-1,4.354050159E0,8.983950615E0,9.990940419E0
2.578960956E0,3.490500152E-1,4.315950394E0,8.983950615E0,9.972995155E0
2.580924293E0,3.870000243E-1,4.315950394E0,8.983950615E0,9.974395494E0
2.582887641E0,3.490500152E-1,4.392000198E0,9.022050858E0,1.004036371E1
2.584850985E0,3.870000243E-1,4.354050159E0,8.983950615E0,9.990940419E0
2.586814023E0,3.870000243E-1,4.392000198E0,8.944950104E0,9.972540655E0
2.588777179E0,3.490500152E-1,4.315950394E0,8.983950615E0,9.972995155E0
2.590740197E0,3.870000243E-1,4.354050159E0,8.983950615E0,9.990940419E0
2.592703256E0,4.260000288E-1,4.354050159E0,8.944950104E0,9.957477651E0
2.594666201E0,3.870000243E-1,4.354050159E0,8.944950104E0,9.955885404E0
2.596629179E0,3.870000243E-1,4.354050159E0,8.944950104E0,9.955885404E0
2.598592642E0,3.490500152E-1,4.354050159E0,8.983950615E0,9.989542400E0
2.600555956E0,3.490500152E-1,4.354050159E0,8.983950615E0,9.989542400E0
2.602519129E0,3.870000243E-1,4.354050159E0,8.944950104E0,9.955885404E0
2.604482343E0,3.490500152E-1,4.354050159E0,8.944950104E0,9.954482461E0
2.606445575E0,3.870000243E-1,4.354050159E0,8.983950615E0,9.990940419E0
2.608408802E0,4.260000288E-1,4.315950394E0,8.944950104E0,9.940877033E0
2.610371724E0,3.490500152E-1,4.392000198E0,8.983950615E0,1.000614163E1
2.612334732E0,4.260000288E-1,4.392000198E0,8.983950615E0,1.000912136E1
2.614297775E0,3.870000243E-1,4.354050159E0,8.983950615E0,9.990940419E0
2.616260807E0,4.260000288E-1,4.315950394E0,8.944950104E0,9.940877033E0
2.618223577E0,3.490500152E-1,4.354050159E0,8.983950615E0,9.989542400E0
2.620186424E0,3.490500152E-1,4.354050159E0,8.983950615E0,9.989542400E0
2.622149534E0,3.490500152E-1,4.392000198E0,8.944950104E0,9.971140056E0
2.624112571E0,3.490500152E-1,4.354050159E0,8.983950615E0,9.989542400E0
2.626075790E0,3.490500152E-1,4.354050159E0,8.983950615E0,9.989542400E0
2.628038956E0,3.870000243E-1,4.392000198E0,8.983950615E0,1.000753733E1
2.630002019E0,3.490500152E-1,4.354050159E0,8.983950615E0,9.989542400E0
2.631965112E0,3.870000243E-1,4.392000198E0,8.944950104E0,9.972540655E0
2.633928249E0,3.870000243E-1,4.354050159E0,8.983950615E0,9.990940419E0
2.635891360E0,3.870000243E-1,4.392000198E0,8.983950615E0,1.000753733E1
2.637854432E0,3.490500152E-1,4.392000198E0,9.022050858E0,1.004036371E1
2.639817515E0,3.490500152E-1,4.354050159E0,8.944950104E0,9.954482461E0
2.641780725E0,3.490500152E-1,4.354050159E0,8.944950104E0,9.954482461E0
2.643743898E0,4.260000288E-1,4.392000198E0,8.983950615E0,1.000912136E1
2.645707024E0,4.260000288E-1,4.354050159E0,8.944950104E0,9.957477651E0
2.647670150E0,3.870000243E-1,4.392000198E0,8.983950615E0,1.000753733E1
2.649633533E0,3.109500110E-1,4.392000198E0,8.983950615E0,1.000488502E1
2.651596840E0,3.870000243E-1,4.354050159E0,8.983950615E0,9.990940419E0
2.653560059E0,3.490500152E-1,4.354050159E0,8.944950104E0,9.954482461E0
2.655523304E0,3.870000243E-1,4.315950394E0,8.983950615E0,9.974395494E0
2.657486702E0,3.490500152E-1,4.354050159E0,8.983950615E0,9.989542400E0
2.659450062E0,3.490500152E-1,4.354050159E0,8.944950104E0,9.954482461E0
2.661413092E0,3.870000243E-1,4.315950394E0,8.944950104E0,9.939282126E0
2.663376218E0,3.490500152E-1,4.354050159E0,8.944950104E0,9.954482461E0
2.665339287E0,3.870000243E-1,4.392000198E0,8.907000542E0,9.938515654E0
2.667302372E0,3.490500152E-1,4.354050159E0,8.983950615E0,9.989542400E0
2.669265626E0,3.870000243E-1,4.392000198E0,8.944950104E0,9.972540655E0
2.671228831E0,3.490500152E-1,4.392000198E0,8.983950615E0,1.000614163E1
2.673191887E0,3.490500152E-1,4.354050159E0,8.944950104E0,9.954482461E0
2.675154987E0,3.490500152E-1,4.392000198E0,8.983950615E0,1.000614163E1
2.677118284E0,3.490500152E-1,4.392000198E0,9.022050858E0,1.004036371E1
2.679081524E0,3.490500152E-1,4.392000198E0,8.944950104E0,9.971140056E0
2.681044754E0,3.490500152E-1,4.392000198E0,8.983950615E0,1.000614163E1
2.683007987E0,3.109500110E-1,4.392000198E0,8.944950104E0,9.969879037E0
2.684971351E0,3.490500152E-1,4.392000198E0,8.944950104E0,9.971140056E0
2.686934677E0,3.109500110E-1,4.354050159E0,8.944950104E0,9.953219331E0
2.688897893E0,3.490500152E-1,4.354050159E0,8.944950104E0,9.954482461E0
2.690861141E0,3.490500152E-1,4.392000198E0,8.944950104E0,9.971140056E0
2.692824203E0,3.870000243E-1,4.392000198E0,8.944950104E0,9.972540655E0
2.694787309E0,3.870000243E-1,4.354050159E0,8.944950104E0,9.955885404E0
2.696750560E0,3.490500152E-1,4.354050159E0,8.944950104E0,9.954482461E0
2.698713768E0,3.490500152E-1,4.392000198E0,8.944950104E0,9.971140056E0
2.700676824E0,3.870000243E-1,4.354050159E0,8.907000542E0,9.921803287E0
2.702639924E0,3.870000243E-1,4.354050159E0,9.022050858E0,1.002521439E1
2.704603376E0,3.490500152E-1,4.354050159E0,8.944950104E0,9.954482461E0
2.706566711E0,3.490500152E-1,4.354050159E0,8.944950104E0,9.954482461E0
2.708529745E0,3.109500110E-1,4.354050159E0,8.983950615E0,9.988283704E0
2.710492867E0,3.490500152E-1,4.354050159E0,8.983950615E0,9.989542400E0
2.712456161E0,3.490500152E-1,4.392000198E0,8.944950104E0,9.971140056E0
2.714419404E0,3.870000243E-1,4.392000198E0,8.983950615E0,1.000753733E1
2.716382579E0,3.870000243E-1,4.354050159E0,9.060000420E0,1.005938017E1
2.718345781E0,4.260000288E-1,4.354050159E0,8.983950615E0,9.992527081E0
2.720308836E0,4.260000288E-1,4.392000198E0,8.944950104E0,9.974130244E0
2.722271935E0,3.870000243E-1,4.354050159E0,9.022050858E0,1.002521439E1
2.724235008E0,3.490500152E-1,4.315950394E0,8.983950615E0,9.972995155E0
2.726198089E0,3.870000243E-1,4.354050159E0,9.022050858E0,1.002521439E1
2.728161184E0,3.870000243E-1,4.354050159E0,8.983950615E0,9.990940419E0
2.730124262E0,3.870000243E-1,4.392000198E0,8.944950104E0,9.972540655E0
2.732087518E0,3.490500152E-1,4.315950394E0,8.944950104E0,9.937876839E0
2.734050722E0,3.870000243E-1,4.354050159E0,8.907000542E0,9.921803287E0
2.736013463E0,3.870000243E-1,4.354050159E0,8.907000542E0,9.921803287E0
2.737976339E0,3.870000243E-1,4.354050159E0,8.907000542E0,9.921803287E0
2.739939418E0,4.639500082E-1,4.354050159E0,8.907000542E0,9.925102571E0
2.741902428E0,4.260000288E-1,4.315950394E0,8.907000542E0,9.906743283E0
2.743865742E0,3.870000243E-1,4.392000198E0,8.907000542E0,9.938515654E0
2.745828966E0,4.260000288E-1,4.354050159E0,8.944950104E0,9.957477651E0
2.747792334E0,4.260000288E-1,4.354050159E0,8.944950104E0,9.957477651E0
2.749755659E0,4.260000288E-1,4.354050159E0,8.944950104E0,9.957477651E0
2.751718671E0,3.870000243E-1,4.392000198E0,8.907000542E0,9.938515654E0
2.753681791E0,4.260000288E-1,4.354050159E0,8.944950104E0,9.957477651E0
2.755644860E0,4.639500082E-1,4.315950394E0,8.944950104E0,9.942575610E0
2.757607944E0,4.639500082E-1,4.392000198E0,8.907000542E0,9.941809393E0
2.759571199E0,5.020500422E-1,4.354050159E0,8.869050026E0,9.892919458E0
2.761534404E0,4.260000288E-1,4.315950394E0,8.869050026E0,9.872636537E0
2.763497441E0,4.639500082E-1,4.354050159E0,8.907000542E0,9.925102571E0
2.765460541E0,4.639500082E-1,4.354050159E0,8.907000542E0,9.925102571E0
2.767423614E0,4.639500082E-1,4.315950394E0,8.907000542E0,9.908447712E0
2.769386695E0,5.020500422E-1,4.354050159E0,8.907000542E0,9.926956517E0
2.771349636E0,4.260000288E-1,4.354050159E0,8.907000542E0,9.923401003E0
2.773312618E0,4.260000288E-1,4.354050159E0,8.907000542E0,9.923401003E0
2.775275888E0,5.020500422E-1,4.392000198E0,8.869050026E0,9.909680537E0
2.777239043E0,4.639500082E-1,4.354050159E0,8.869050026E0,9.891059133E0
2.779202468E0,4.639500082E-1,4.354050159E0,8.944950104E0,9.959173397E0
2.781165813E0,4.260000288E-1,4.354050159E0,8.907000542E0,9.923401003E0
2.783128890E0,4.639500082E-1,4.354050159E0,8.907000542E0,9.925102571E0
2.785092045E0,4.260000288E-1,4.392000198E0,8.869050026E0,9.906118823E0
2.787055128E0,4.260000288E-1,4.354050159E0,8.907000542E0,9.923401003E0
2.789018218E0,4.639500082E-1,4.354050159E0,8.944950104E0,9.959173397E0
2.790981472E0,4.639500082E-1,4.315950394E0,8.907000542E0,9.908447712E0
2.792944678E0,4.260000288E-1,4.354050159E0,8.907000542E0,9.923401003E0
2.794907913E0,4.639500082E-1,4.392000198E0,8.869050026E0,9.907823359E0
2.796871139E0,4.260000288E-1,4.354050159E0,8.830050468E0,9.854390904E0
2.798834327E0,4.639500082E-1,4.354050159E0,8.944950104E0,9.959173397E0
2.800797526E0,4.639500082E-1,4.354050159E0,8.907000542E0,9.925102571E0
2.802760761E0,3.870000243E-1,4.354050159E0,8.869050026E0,9.887748489E0
2.804723985E0,4.260000288E-1,4.354050159E0,8.944950104E0,9.957477651E0
2.806687083E0,4.639500082E-1,4.315950394E0,8.907000542E0,9.908447712E0
2.808650218E0,4.260000288E-1,4.315950394E0,8.907000542E0,9.906743283E0
2.810613625E0,3.870000243E-1,4.315950394E0,8.983950615E0,9.974395494E0
2.812576966E0,4.260000288E-1,4.276950359E0,8.983950615E0,9.959174115E0
2.814540134E0,4.260000288E-1,4.276950359E0,8.983950615E0,9.959174115E0
2.816503353E0,4.639500082E-1,4.315950394E0,8.944950104E0,9.942575610E0
2.818466990E0,4.260000288E-1,4.315950394E0,8.944950104E0,9.940877033E0
2.820430505E0,4.260000288E-1,4.315950394E0,8.983950615E0,9.975984787E0
2.822393475E0,4.260000288E-1,4.315950394E0,9.022050858E0,1.001030996E1
2.824356628E0,4.260000288E-1,4.315950394E0,9.022050858E0,1.001030996E1
2.826320006E0,3.870000243E-1,4.315950394E0,8.944950104E0,9.939282126E0
2.828283318E0,4.260000288E-1,4.315950394E0,9.022050858E0,1.001030996E1
2.830246581E0,4.639500082E-1,4.315950394E0,9.060000420E0,1.004620749E1
2.832209859E0,3.870000243E-1,4.315950394E0,8.983950615E0,9.974395494E0
2.834173395E0,3.870000243E-1,4.315950394E0,8.983950615E0,9.974395494E0
2.836136856E0,3.490500152E-1,4.315950394E0,8.983950615E0,9.972995155E0
2.838099868E0,3.870000243E-1,4.315950394E0,8.983950615E0,9.974395494E0
2.840063011E0,3.490500152E-1,4.315950394E0,9.022050858E0,1.000733058E1
2.842026256E0,3.870000243E-1,4.315950394E0,9.022050858E0,1.000872612E1
2.843989471E0,3.490500152E-1,4.315950394E0,9.022050858E0,1.000733058E1
2.845952701E0,3.490500152E-1,4.354050159E0,8.907000542E0,9.920395524E0
2.847915929E0,3.490500152E-1,4.354050159E0,8.944950104E0,9.954482461E0
2.849879386E0,3.109500110E-1,4.315950394E0,9.022050858E0,1.000607412E1
2.851842775E0,3.109500110E-1,4.354050159E0,8.983950615E0,9.988283704E0
2.853805979E0,3.870000243E-1,4.315950394E0,8.944950104E0,9.939282126E0
2.855769238E0,3.109500110E-1,4.354050159E0,8.907000542E0,9.919128054E0
2.857732288E0,3.870000243E-1,4.354050159E0,8.907000542E0,9.921803287E0
2.859695396E0,3.490500152E-1,4.354050159E0,8.869050026E0,9.886335877E0
2.861658287E0,3.870000243E-1,4.315950394E0,8.907000542E0,9.905142880E0
2.863621242E0,3.490500152E-1,4.315950394E0,8.944950104E0,9.937876839E0
2.865584339E0,3.870000243E-1,4.315950394E0,8.907000542E0,9.905142880E0
2.867547394E0,4.260000288E-1,4.315950394E0,8.830050468E0,9.837616332E0
2.869510422E0,3.870000243E-1,4.354050159E0,8.907000542E0,9.921803287E0
2.871473464E0,3.490500152E-1,4.354050159E0,8.869050026E0,9.886335877E0
2.873436546E0,3.870000243E-1,4.315950394E0,8.869050026E0,9.871030604E0
2.875399616E0,4.260000288E-1,4.354050159E0,8.869050026E0,9.889351707E0
2.877362334E0,3.870000243E-1,4.354050159E0,8.791950226E0,9.818651159E0
2.879325156E0,3.870000243E-1,4.315950394E0,8.907000542E0,9.905142880E0
2.881288436E0,4.260000288E-1,4.354050159E0,8.869050026E0,9.889351707E0
2.883251596E0,3.870000243E-1,4.354050159E0,8.907000542E0,9.921803287E0
2.885214839E0,4.260000288E-1,4.354050159E0,8.869050026E0,9.889351707E0
2.887178058E0,4.260000288E-1,4.315950394E0,8.907000542E0,9.906743283E0
2.889141111E0,3.870000243E-1,4.354050159E0,8.869050026E0,9.887748489E0
2.891104213E0,4.639500082E-1,4.354050159E0,8.907000542E0,9.925102571E0
2.893067301E0,4.639500082E-1,4.392000198E0,8.907000542E0,9.941809393E0
2.895030413E0,4.260000288E-1,4.354050159E0,8.907000542E0,9.923401003E0
2.896993844E0,4.260000288E-1,4.392000198E0,8.944950104E0,9.974130244E0
2.898957182E0,4.260000288E-1,4.392000198E0,8.944950104E0,9.974130244E0
2.900920530E0,4.260000288E-1,4.431000233E0,8.944950104E0,9.991364844E0
2.902883875E0,4.260000288E-1,4.431000233E0,8.944950104E0,9.991364844E0
2.904846961E0,4.260000288E-1,4.431000233E0,8.944950104E0,9.991364844E0
2.906810116E0,4.260000288E-1,4.431000233E0,8.983950615E0,1.002629581E1
2.908773359E0,4.260000288E-1,4.392000198E0,8.983950615E0,1.000912136E1
2.910736576E0,4.260000288E-1,4.468950272E0,8.983950615E0,1.004312507E1
2.912699944E0,3.490500152E-1,4.468950272E0,8.944950104E0,1.000527285E1
2.914663268E0,3.870000243E-1,4.431000233E0,8.944950104E0,9.989777998E0
2.916626719E0,3.490500152E-1,4.468950272E0,8.907000542E0,9.971359541E0
2.918590125E0,3.490500152E-1,4.431000233E0,8.983950615E0,1.002332119E1
2.920553462E0,3.870000243E-1,4.468950272E0,9.022050858E0,1.007564823E1
2.922516819E0,3.109500110E-1,4.468950272E0,8.983950615E0,1.003890308E1
2.924480073E0,3.490500152E-1,4.507050037E0,9.022050858E0,1.009122082E1
2.926443357E0,3.109500110E-1,4.468950272E0,8.983950615E0,1.003890308E1
2.928406574E0,3.109500110E-1,4.431000233E0,9.022050858E0,1.005623462E1
2.930369814E0,3.490500152E-1,4.431000233E0,9.060000420E0,1.009154134E1
2.932332998E0,3.109500110E-1,4.431000233E0,9.022050858E0,1.005623462E1
2.934296198E0,2.719500065E-1,4.507050037E0,9.060000420E0,1.012279924E1
2.936259614E0,3.109500110E-1,4.431000233E0,9.060000420E0,1.009029537E1
2.938222966E0,2.719500065E-1,4.468950272E0,9.060000420E0,1.010589338E1
2.940186361E0,2.719500065E-1,4.392000198E0,9.098999977E0,1.010719660E1
2.942149740E0,3.109500110E-1,4.431000233E0,9.098999977E0,1.012532733E1
2.944112766E0,3.109500110E-1,4.392000198E0,9.060000420E0,1.007323003E1
2.946075896E0,3.109500110E-1,4.392000198E0,9.060000420E0,1.007323003E1
2.948038829E0,3.109500110E-1,4.431000233E0,9.060000420E0,1.009029537E1
2.950001819E0,3.490500152E-1,4.392000198E0,9.060000420E0,1.007447811E1
2.951965095E0,3.109500110E-1,4.354050159E0,9.098999977E0,1.009188998E1
2.953928283E0,3.490500152E-1,4.354050159E0,9.022050858E0,1.002382115E1
2.955891702E0,4.260000288E-1,4.354050159E0,9.060000420E0,1.006095604E1
2.957855053E0,3.490500152E-1,4.315950394E0,9.022050858E0,1.000733058E1
2.959818443E0,3.870000243E-1,4.315950394E0,9.022050858E0,1.000872612E1
2.961781822E0,3.490500152E-1,4.354050159E0,9.060000420E0,1.005799166E1
2.963745163E0,3.490500152E-1,4.315950394E0,9.022050858E0,1.000733058E1
2.965708516E0,3.870000243E-1,4.315950394E0,9.060000420E0,1.004294799E1
2.967671726E0,3.870000243E-1,4.276950359E0,9.022050858E0,9.991970530E0
2.969634978E0,3.109500110E-1,4.315950394E0,8.983950615E0,9.971734371E0
2.971598025E0,3.870000243E-1,4.239000320E0,9.022050858E0,9.975785403E0
2.973561132E0,3.870000243E-1,4.276950359E0,8.983950615E0,9.957582139E0
2.975524399E0,3.490500152E-1,4.276950359E0,9.022050858E0,9.990572655E0
2.977487639E0,3.870000243E-1,4.276950359E0,8.944950104E0,9.922409272E0
2.979451229E0,3.870000243E-1,4.276950359E0,9.022050858E0,9.991970530E0
2.981414716E0,4.260000288E-1,4.276950359E0,8.983950615E0,9.959174115E0
2.983377904E0,4.260000288E-1,4.239000320E0,8.983950615E0,9.942935602E0
2.985341180E0,4.260000288E-1,4.239000320E0,8.983950615E0,9.942935602E0
2.987304546E0,4.260000288E-1,4.276950359E0,9.022050858E0,9.993557028E0
2.989267879E0,4.260000288E-1,4.239000320E0,9.022050858E0,9.977374475E0
2.991231633E0,4.260000288E-1,4.276950359E0,9.022050858E0,9.993557028E0
2.993195264E0,4.639500082E-1,4.315950394E0,8.983950615E0,9.977677388E0
2.995158427E0,4.639500082E-1,4.276950359E0,8.983950615E0,9.960869572E0
2.997121727E0,4.639500082E-1,4.239000320E0,9.022050858E0,9.979066840E0
2.999085006E0,4.639500082E-1,4.239000320E0,8.983950615E0,9.944633828E0
3.001048281E0,4.260000288E-1,4.276950359E0,8.983950615E0,9.959174115E0
3.003011144E0,4.260000288E-1,4.276950359E0,8.983950615E0,9.959174115E0
3.004974127E0,3.870000243E-1,4.315950394E0,8.983950615E0,9.974395494E0
3.006937219E0,3.870000243E-1,4.315950394E0,9.022050858E0,1.000872612E1
3.008900279E0,4.639500082E-1,4.315950394E0,9.022050858E0,1.001199676E1
3.010863909E0,4.260000288E-1,4.315950394E0,9.022050858E0,1.001030996E1
3.012827365E0,4.260000288E-1,4.354050159E0,8.944950104E0,9.957477651E0
3.014790558E0,3.870000243E-1,4.354050159E0,8.944950104E0,9.955885404E0
3.016753828E0,3.870000243E-1,4.354050159E0,8.907000542E0,9.921803287E0
3.018717007E0,3.870000243E-1,4.354050159E0,8.907000542E0,9.921803287E0
3.020680213E0,3.870000243E-1,4.354050159E0,8.944950104E0,9.955885404E0
3.022643447E0,4.260000288E-1,4.315950394E0,8.944950104E0,9.940877033E0
3.024606672E0,3.870000243E-1,4.354050159E0,8.907000542E0,9.921803287E0
3.026569949E0,4.639500082E-1,4.354050159E0,8.869050026E0,9.891059133E0
3.028533211E0,4.260000288E-1,4.354050159E0,8.907000542E0,9.923401003E0
3.030496257E0,3.870000243E-1,4.354050159E0,8.944950104E0,9.955885404E0
3.032459367E0,4.260000288E-1,4.392000198E0,8.830050468E0,9.871217404E0
3.034422762E0,3.870000243E-1,4.315950394E0,8.907000542E0,9.905142880E0
3.036386067E0,4.260000288E-1,4.392000198E0,8.907000542E0,9.940110684E0
3.038349286E0,4.260000288E-1,4.392000198E0,8.907000542E0,9.940110684E0
3.040312530E0,4.639500082E-1,4.431000233E0,8.907000542E0,9.959099925E0
3.042275803E0,4.260000288E-1,4.392000198E0,8.944950104E0,9.974130244E0
3.044239067E0,4.639500082E-1,4.392000198E0,8.944950104E0,9.975823160E0
3.046202422E0,4.260000288E-1,4.392000198E0,8.907000542E0,9.940110684E0
3.048165754E0,4.260000288E-1,4.392000198E0,8.907000542E0,9.940110684E0
3.050129148E0,4.260000288E-1,4.392000198E0,8.944950104E0,9.974130244E0
3.052092523E0,3.870000243E-1,4.392000198E0,8.907000542E0,9.938515654E0
3.054056135E0,3.870000243E-1,4.392000198E0,9.022050858E0,1.004175465E1
3.056019677E0,3.870000243E-1,4.354050159E0,8.944950104E0,9.955885404E0
3.057982514E0,3.870000243E-1,4.392000198E0,8.944950104E0,9.972540655E0
3.059945544E0,4.260000288E-1,4.354050159E0,9.022050858E0,1.002679562E1
3.061908583E0,4.260000288E-1,4.431000233E0,9.022050858E0,1.006044933E1
3.063871619E0,3.870000243E-1,4.392000198E0,8.983950615E0,1.000753733E1
3.065834929E0,4.260000288E-1,4.392000198E0,8.944950104E0,9.974130244E0
3.067798158E0,3.870000243E-1,4.392000198E0,9.022050858E0,1.004175465E1
3.069761543E0,4.260000288E-1,4.431000233E0,8.944950104E0,9.991364844E0
3.071724869E0,3.870000243E-1,4.354050159E0,8.983950615E0,9.990940419E0
3.073687769E0,3.490500152E-1,4.392000198E0,8.907000542E0,9.937110259E0
3.075650794E0,3.490500152E-1,4.392000198E0,8.944950104E0,9.971140056E0
3.077614059E0,3.870000243E-1,4.392000198E0,8.944950104E0,9.972540655E0
3.079577254E0,3.870000243E-1,4.354050159E0,8.944950104E0,9.955885404E0
3.081540111E0,3.870000243E-1,4.392000198E0,8.944950104E0,9.972540655E0
3.083503050E0,3.870000243E-1,4.354050159E0,8.944950104E0,9.955885404E0
3.085466375E0,4.260000288E-1,4.354050159E0,8.983950615E0,9.992527081E0
3.087429587E0,4.260000288E-1,4.392000198E0,8.944950104E0,9.974130244E0
3.089392416E0,3.870000243E-1,4.354050159E0,8.944950104E0,9.955885404E0
3.091355358E0,3.870000243E-1,4.392000198E0,8.944950104E0,9.972540655E0
3.093318303E0,3.870000243E-1,4.354050159E0,8.944950104E0,9.955885404E0
3.095281260E0,4.260000288E-1,4.392000198E0,8.944950104E0,9.974130244E0
3.097244538E0,3.870000243E-1,4.392000198E0,8.983950615E0,1.000753733E1
3.099207721E0,3.870000243E-1,4.392000198E0,8.983950615E0,1.000753733E1
3.101170915E0,3.490500152E-1,4.354050159E0,8.907000542E0,9.920395524E0
3.103134106E0,3.870000243E-1,4.354050159E0,8.944950104E0,9.955885404E0
3.105097345E0,3.109500110E-1,4.354050159E0,8.983950615E0,9.988283704E0
3.107060601E0,3.870000243E-1,4.392000198E0,8.983950615E0,1.000753733E1
3.109023963E0,3.870000243E-1,4.354050159E0,8.944950104E0,9.955885404E0
3.110987294E0,3.490500152E-1,4.354050159E0,8.944950104E0,9.954482461E0
3.112950733E0,3.870000243E-1,4.354050159E0,8.907000542E0,9.921803287E0
3.114914140E0,4.639500082E-1,4.354050159E0,8.944950104E0,9.959173397E0
3.116876912E0,3.870000243E-1,4.354050159E0,8.907000542E0,9.921803287E0
3.118839887E0,4.260000288E-1,4.392000198E0,8.869050026E0,9.906118823E0
3.120802801E0,4.260000288E-1,4.354050159E0,8.869050026E0,9.889351707E0
3.122765733E0,3.870000243E-1,4.315950394E0,8.944950104E0,9.939282126E0
3.124729195E0,3.870000243E-1,4.354050159E0,8.907000542E0,9.921803287E0
3.126692501E0,3.870000243E-1,4.354050159E0,8.944950104E0,9.955885404E0
3.128655413E0,4.639500082E-1,4.354050159E0,8.907000542E0,9.925102571E0
3.130618435E0,4.260000288E-1,4.354050159E0,8.830050468E0,9.854390904E0
3.132581700E0,3.870000243E-1,4.315950394E0,8.869050026E0,9.871030604E0
3.134544894E0,4.639500082E-1,4.276950359E0,8.907000542E0,9.891522261E0
3.136508087E0,4.260000288E-1,4.354050159E0,8.944950104E0,9.957477651E0
3.138471281E0,4.639500082E-1,4.315950394E0,8.907000542E0,9.908447712E0
3.140434348E0,4.260000288E-1,4.315950394E0,8.907000542E0,9.906743283E0
3.142397445E0,4.260000288E-1,4.354050159E0,8.907000542E0,9.923401003E0
3.144360742E0,4.639500082E-1,4.315950394E0,8.944950104E0,9.942575610E0
3.146323981E0,4.260000288E-1,4.315950394E0,8.944950104E0,9.940877033E0
3.148287571E0,3.870000243E-1,4.276950359E0,8.983950615E0,9.957582139E0
3.150251058E0,4.639500082E-1,4.315950394E0,8.944950104E0,9.942575610E0
3.152214231E0,4.639500082E-1,4.315950394E0,8.944950104E0,9.942575610E0
3.154177507E0,4.260000288E-1,4.315950394E0,8.983950615E0,9.975984787E0
3.156140864E0,4.639500082E-1,4.276950359E0,9.022050858E0,9.995246653E0
3.158104197E0,4.639500082E-1,4.354050159E0,8.983950615E0,9.994216880E0
3.160067096E0,4.639500082E-1,4.276950359E0,9.022050858E0,9.995246653E0
3.162030122E0,4.639500082E-1,4.315950394E0,9.022050858E0,1.001199676E1
3.163993551E0,4.639500082E-1,4.315950394E0,8.983950615E0,9.977677388E0
3.165956841E0,5.020500422E-1,4.315950394E0,8.983950615E0,9.979521567E0
3.167920242E0,5.410500169E-1,4.315950394E0,8.983950615E0,9.981559576E0
3.169883611E0,5.020500422E-1,4.354050159E0,8.983950615E0,9.996058007E0
3.171847179E0,5.020500422E-1,4.354050159E0,8.869050026E0,9.892919458E0
3.173810688E0,5.020500422E-1,4.315950394E0,8.944950104E0,9.944426298E0
3.175773717E0,5.410500169E-1,4.315950394E0,8.944950104E0,9.946471499E0
3.177736901E0,5.410500169E-1,4.315950394E0,8.907000542E0,9.912357014E0
3.179700499E0,5.020500422E-1,4.315950394E0,8.944950104E0,9.944426298E0
3.181663976E0,5.020500422E-1,4.354050159E0,8.944950104E0,9.961021002E0
3.183627166E0,5.020500422E-1,4.354050159E0,8.869050026E0,9.892919458E0
3.185590440E0,4.260000288E-1,4.354050159E0,8.944950104E0,9.957477651E0
3.187553782E0,4.639500082E-1,4.354050159E0,8.869050026E0,9.891059133E0
3.189517115E0,4.639500082E-1,4.392000198E0,8.869050026E0,9.907823359E0
3.191480508E0,5.020500422E-1,4.392000198E0,8.869050026E0,9.909680537E0
3.193443884E0,5.020500422E-1,4.392000198E0,8.869050026E0,9.909680537E0
3.195407316E0,5.410500169E-1,4.392000198E0,8.869050026E0,9.911732907E0
3.197370731E0,4.639500082E-1,4.392000198E0,8.830050468E0,9.872927966E0
3.199334071E0,4.260000288E-1,4.392000198E0,8.907000542E0,9.940110684E0
3.201297430E0,4.639500082E-1,4.431000233E0,8.907000542E0,9.959099925E0
3.203260863E0,4.260000288E-1,4.431000233E0,8.944950104E0,9.991364844E0
3.205224274E0,4.260000288E-1,4.354050159E0,8.944950104E0,9.957477651E0
3.207187834E0,4.639500082E-1,4.392000198E0,8.907000542E0,9.941809393E0
3.209151351E0,4.639500082E-1,4.392000198E0,8.869050026E0,9.907823359E0
3.211114650E0,3.870000243E-1,4.431000233E0,8.907000542E0,9.955811907E0
3.213078026E0,4.639500082E-1,4.392000198E0,8.983950615E0,1.001080836E1
3.215041411E0,4.260000288E-1,4.392000198E0,8.944950104E0,9.974130244E0
3.217004794E0,3.870000243E-1,4.392000198E0,8.944950104E0,9.972540655E0
3.218967819E0,3.490500152E-1,4.431000233E0,8.983950615E0,1.002332119E1
3.220930949E0,3.870000243E-1,4.392000198E0,8.983950615E0,1.000753733E1
3.222894186E0,4.639500082E-1,4.392000198E0,8.983950615E0,1.001080836E1
3.224857399E0,4.260000288E-1,4.354050159E0,9.022050858E0,1.002679562E1
3.226820678E0,4.260000288E-1,4.431000233E0,8.983950615E0,1.002629581E1
3.228783937E0,3.870000243E-1,4.354050159E0,9.022050858E0,1.002521439E1
3.230747164E0,4.260000288E-1,4.354050159E0,9.022050858E0,1.002679562E1
3.232710401E0,3.870000243E-1,4.354050159E0,9.060000420E0,1.005938017E1
3.234673976E0,4.260000288E-1,4.354050159E0,9.022050858E0,1.002679562E1
3.236637462E0,3.490500152E-1,4.354050159E0,9.022050858E0,1.002382115E1
3.238600785E0,3.490500152E-1,4.392000198E0,9.022050858E0,1.004036371E1
3.240564156E0,3.870000243E-1,4.354050159E0,8.983950615E0,9.990940419E0
3.242527587E0,3.870000243E-1,4.354050159E0,9.098999977E0,1.009451942E1
3.244491000E0,4.260000288E-1,4.354050159E0,9.060000420E0,1.006095604E1
3.246454371E0,3.490500152E-1,4.315950394E0,9.022050858E0,1.000733058E1
3.248417762E0,3.490500152E-1,4.354050159E0,9.022050858E0,1.002382115E1
3.250381100E0,3.490500152E-1,4.392000198E0,9.022050858E0,1.004036371E1
3.252344454E0,3.870000243E-1,4.354050159E0,9.098999977E0,1.009451942E1
3.254307708E0,3.490500152E-1,4.354050159E0,9.060000420E0,1.005799166E1
3.256270992E0,3.109500110E-1,4.354050159E0,9.060000420E0,1.005674154E1
3.258234894E0,3.490500152E-1,4.354050159E0,9.022050858E0,1.002382115E1
3.260198611E0,3.490500152E-1,4.354050159E0,9.022050858E0,1.002382115E1
3.262161985E0,3.490500152E-1,4.354050159E0,8.983950615E0,9.989542400E0
3.264125459E0,3.490500152E-1,4.354050159E0,8.944950104E0,9.954482461E0
3.266089143E0,2.719500065E-1,4.354050159E0,8.944950104E0,9.952077268E0
3.268052765E0,3.490500152E-1,4.315950394E0,8.983950615E0,9.972995155E0
3.270016150E0,3.490500152E-1,4.354050159E0,8.944950104E0,9.954482461E0
3.271979608E0,3.109500110E-1,4.392000198E0,8.944950104E0,9.969879037E0
3.273942980E0,3.490500152E-1,4.392000198E0,8.944950104E0,9.971140056E0
3.275906377E0,3.109500110E-1,4.392000198E0,8.983950615E0,1.000488502E1
3.277869759E0,3.109500110E-1,4.392000198E0,8.944950104E0,9.969879037E0
3.279833146E0,3.490500152E-1,4.354050159E0,8.944950104E0,9.954482461E0
3.281796684E0,3.490500152E-1,4.392000198E0,8.944950104E0,9.971140056E0
3.283760164E0,3.490500152E-1,4.392000198E0,8.983950615E0,1.000614163E1
3.285723353E0,3.490500152E-1,4.354050159E0,8.983950615E0,9.989542400E0
3.287686628E0,3.870000243E-1,4.354050159E0,8.944950104E0,9.955885404E0
3.289650256E0,3.870000243E-1,4.354050159E0,8.944950104E0,9.955885404E0
3.291613780E0,3.490500152E-1,4.392000198E0,8.907000542E0,9.937110259E0
3.293577529E0,3.490500152E-1,4.354050159E0,8.983950615E0,9.989542400E0
3.295541192E0,3.490500152E-1,4.392000198E0,8.944950104E0,9.971140056E0
3.297504665E0,3.490500152E-1,4.392000198E0,8.907000542E0,9.937110259E0
3.299468194E0,3.490500152E-1,4.354050159E0,8.907000542E0,9.920395524E0
3.301431599E0,3.490500152E-1,4.354050159E0,8.983950615E0,9.989542400E0
3.303395041E0,3.870000243E-1,4.392000198E0,8.907000542E0,9.938515654E0
3.305358240E0,3.490500152E-1,4.392000198E0,8.907000542E0,9.937110259E0
3.307321507E0,3.490500152E-1,4.354050159E0,8.907000542E0,9.920395524E0
3.309284506E0,3.490500152E-1,4.354050159E0,8.907000542E0,9.920395524E0
3.311247584E0,3.490500152E-1,4.392000198E0,8.983950615E0,1.000614163E1
3.313210705E0,3.870000243E-1,4.392000198E0,8.983950615E0,1.000753733E1
3.315173813E0,3.490500152E-1,4.392000198E0,8.944950104E0,9.971140056E0
3.317137195E0,3.490500152E-1,4.392000198E0,8.983950615E0,1.000614163E1
3.319100500E0,3.490500152E-1,4.354050159E0,8.983950615E0,9.989542400E0
3.321063943E0,3.490500152E-1,4.392000198E0,9.022050858E0,1.004036371E1
3.323027346E0,3.490500152E-1,4.354050159E0,8.944950104E0,9.954482461E0
3.324990368E0,3.870000243E-1,4.392000198E0,8.983950615E0,1.000753733E1
3.326953502E0,3.870000243E-1,4.392000198E0,8.983950615E0,1.000753733E1
3.328916899E0,3.870000243E-1,4.392000198E0,8.983950615E0,1.000753733E1
