"Time (s)","Acceleration x (m/s^2)","Acceleration y (m/s^2)","Acceleration z (m/s^2)","Absolute acceleration (m/s^2)"
3.305221500E-2,2.340000123E-1,4.431000233E0,8.944950104E0,9.985021353E0
3.501399100E-2,2.340000123E-1,4.468950272E0,8.983950615E0,1.003681429E1
3.697836900E-2,2.340000123E-1,4.468950272E0,8.907000542E0,9.967995344E0
3.894135800E-2,2.340000123E-1,4.468950272E0,8.907000542E0,9.967995344E0
4.090475400E-2,2.719500065E-1,4.468950272E0,8.907000542E0,9.968958420E0
4.286796700E-2,2.719500065E-1,4.468950272E0,8.907000542E0,9.968958420E0
4.483125800E-2,2.719500065E-1,4.468950272E0,8.869050026E0,9.935065259E0
4.679443400E-2,2.719500065E-1,4.507050037E0,8.869050026E0,9.952261311E0
4.875764300E-2,2.719500065E-1,4.468950272E0,8.869050026E0,9.935065259E0
5.072105700E-2,3.109500110E-1,4.431000233E0,8.869050026E0,9.919198624E0
5.268441000E-2,3.109500110E-1,4.431000233E0,8.869050026E0,9.919198624E0
5.464759700E-2,2.719500065E-1,4.468950272E0,8.830050468E0,9.900265886E0
5.661084900E-2,2.719500065E-1,4.468950272E0,8.869050026E0,9.935065259E0
5.857389600E-2,2.719500065E-1,4.431000233E0,8.830050468E0,9.883193368E0
6.053700300E-2,3.109500110E-1,4.431000233E0,8.791950226E0,9.850321911E0
6.250025400E-2,3.109500110E-1,4.431000233E0,8.791950226E0,9.850321911E0
6.446346300E-2,3.109500110E-1,4.431000233E0,8.830050468E0,9.884343390E0
6.642651600E-2,3.490500152E-1,4.431000233E0,8.830050468E0,9.885615320E0
6.838964800E-2,3.490500152E-1,4.392000198E0,8.830050468E0,9.868196032E0
7.035271500E-2,3.490500152E-1,4.392000198E0,8.869050026E0,9.903108099E0
7.231580200E-2,3.490500152E-1,4.431000233E0,8.869050026E0,9.920466085E0
7.427883200E-2,3.490500152E-1,4.431000233E0,8.830050468E0,9.885615320E0
7.624187800E-2,3.490500152E-1,4.392000198E0,8.830050468E0,9.868196032E0
7.820513000E-2,3.490500152E-1,4.468950272E0,8.830050468E0,9.902683662E0
8.016832800E-2,3.109500110E-1,4.468950272E0,8.830050468E0,9.901413925E0
8.213138500E-2,3.490500152E-1,4.431000233E0,8.869050026E0,9.920466085E0
8.409448400E-2,3.490500152E-1,4.468950272E0,8.907000542E0,9.971359541E0
8.605760100E-2,3.109500110E-1,4.431000233E0,8.907000542E0,9.953145815E0
8.802071300E-2,3.109500110E-1,4.507050037E0,8.869050026E0,9.953403353E0
8.998370600E-2,3.109500110E-1,4.468950272E0,8.869050026E0,9.936209277E0
9.194675800E-2,3.109500110E-1,4.507050037E0,8.907000542E0,9.987234282E0
9.390970400E-2,3.109500110E-1,4.468950272E0,8.944950104E0,1.000401613E1
9.587268100E-2,3.109500110E-1,4.468950272E0,8.907000542E0,9.970098550E0
9.783572900E-2,2.719500065E-1,4.468950272E0,8.907000542E0,9.968958420E0
9.979875600E-2,2.719500065E-1,4.507050037E0,8.907000542E0,9.986096109E0
1.017620080E-1,2.719500065E-1,4.507050037E0,8.944950104E0,1.001995954E1
1.037252030E-1,3.109500110E-1,4.507050037E0,8.869050026E0,9.953403353E0
1.056883060E-1,3.490500152E-1,4.545000076E0,8.907000542E0,1.000567440E1
1.076514360E-1,3.109500110E-1,4.507050037E0,8.983950615E0,1.005592157E1
1.096144590E-1,3.109500110E-1,4.468950272E0,8.907000542E0,9.970098550E0
1.115775130E-1,3.109500110E-1,4.431000233E0,8.944950104E0,9.987120973E0
1.135409330E-1,2.340000123E-1,4.468950272E0,8.944950104E0,1.000192006E1
1.155042600E-1,2.719500065E-1,4.431000233E0,8.907000542E0,9.952003744E0
1.174674760E-1,2.340000123E-1,4.392000198E0,8.907000542E0,9.933734464E0
1.194307240E-1,2.719500065E-1,4.431000233E0,8.869050026E0,9.918052643E0
1.213941310E-1,2.719500065E-1,4.468950272E0,8.907000542E0,9.968958420E0
1.233574910E-1,2.719500065E-1,4.468950272E0,8.944950104E0,1.000287987E1
1.253207260E-1,3.109500110E-1,4.507050037E0,8.983950615E0,1.005592157E1
1.272840120E-1,3.109500110E-1,4.507050037E0,8.983950615E0,1.005592157E1
1.292473680E-1,2.719500065E-1,4.468950272E0,8.983950615E0,1.003777077E1
1.312107030E-1,2.340000123E-1,4.468950272E0,9.060000420E0,1.010494335E1
1.331737810E-1,2.719500065E-1,4.468950272E0,9.060000420E0,1.010589338E1
1.351369350E-1,1.960500032E-1,4.431000233E0,9.022050858E0,1.005333777E1
1.371003440E-1,1.570500135E-1,4.468950272E0,9.098999977E0,1.013844080E1
1.390636880E-1,2.340000123E-1,4.431000233E0,9.060000420E0,1.008821722E1
1.410269000E-1,2.340000123E-1,4.431000233E0,9.022050858E0,1.005414943E1
1.429901510E-1,1.960500032E-1,4.392000198E0,9.022050858E0,1.003620959E1
1.449529730E-1,2.340000123E-1,4.392000198E0,9.022050858E0,1.003702264E1
1.469159200E-1,2.340000123E-1,4.431000233E0,8.983950615E0,1.001997444E1
1.488791850E-1,2.340000123E-1,4.468950272E0,9.022050858E0,1.007093214E1
1.508423660E-1,2.719500065E-1,4.392000198E0,8.983950615E0,1.000374886E1
1.528052460E-1,1.960500032E-1,4.431000233E0,8.983950615E0,1.001916001E1
1.547682140E-1,2.340000123E-1,4.392000198E0,8.983950615E0,1.000278913E1
1.567313090E-1,2.340000123E-1,4.354050159E0,8.983950615E0,9.986184329E0
1.586943660E-1,2.719500065E-1,4.392000198E0,8.944950104E0,9.968738882E0
1.606574470E-1,2.719500065E-1,4.392000198E0,8.944950104E0,9.968738882E0
1.626205200E-1,2.719500065E-1,4.392000198E0,8.944950104E0,9.968738882E0
1.645834180E-1,2.719500065E-1,4.392000198E0,8.869050026E0,9.900690426E0
1.665463680E-1,3.109500110E-1,4.392000198E0,8.907000542E0,9.935844921E0
1.685089710E-1,2.719500065E-1,4.392000198E0,8.944950104E0,9.968738882E0
1.704716760E-1,3.109500110E-1,4.392000198E0,8.944950104E0,9.969879037E0
1.724347270E-1,3.109500110E-1,4.431000233E0,8.869050026E0,9.919198624E0
1.743977070E-1,3.109500110E-1,4.431000233E0,8.907000542E0,9.953145815E0
1.763604860E-1,2.340000123E-1,4.392000198E0,8.907000542E0,9.933734464E0
1.783233240E-1,2.719500065E-1,4.431000233E0,8.869050026E0,9.918052643E0
1.802863960E-1,3.109500110E-1,4.392000198E0,8.791950226E0,9.832840100E0
1.822493990E-1,2.719500065E-1,4.354050159E0,8.830050468E0,9.848933997E0
1.842121600E-1,2.719500065E-1,4.431000233E0,8.830050468E0,9.883193368E0
1.861750020E-1,2.719500065E-1,4.392000198E0,8.830050468E0,9.865769804E0
1.881380730E-1,2.719500065E-1,4.392000198E0,8.869050026E0,9.900690426E0
1.901010770E-1,2.340000123E-1,4.431000233E0,8.791950226E0,9.848193126E0
1.920642120E-1,2.719500065E-1,4.431000233E0,8.830050468E0,9.883193368E0
1.940273080E-1,3.109500110E-1,4.468950272E0,8.830050468E0,9.901413925E0
1.959901570E-1,3.109500110E-1,4.431000233E0,8.830050468E0,9.884343390E0
1.979530790E-1,3.490500152E-1,4.468950272E0,8.830050468E0,9.902683662E0
1.999160020E-1,3.109500110E-1,4.431000233E0,8.869050026E0,9.919198624E0
2.018789240E-1,2.719500065E-1,4.431000233E0,8.869050026E0,9.918052643E0
2.038422080E-1,3.109500110E-1,4.431000233E0,8.869050026E0,9.919198624E0
2.058053850E-1,3.490500152E-1,4.431000233E0,8.869050026E0,9.920466085E0
2.077684720E-1,3.109500110E-1,4.468950272E0,8.869050026E0,9.936209277E0
2.097315990E-1,3.109500110E-1,4.468950272E0,8.830050468E0,9.901413925E0
2.116946220E-1,2.719500065E-1,4.468950272E0,8.869050026E0,9.935065259E0
2.136576760E-1,3.109500110E-1,4.468950272E0,8.869050026E0,9.936209277E0
2.156205760E-1,3.109500110E-1,4.468950272E0,8.830050468E0,9.901413925E0
2.175835220E-1,2.719500065E-1,4.431000233E0,8.830050468E0,9.883193368E0
2.195463250E-1,3.109500110E-1,4.431000233E0,8.907000542E0,9.953145815E0
2.215091560E-1,3.109500110E-1,4.431000233E0,8.907000542E0,9.953145815E0
2.234722740E-1,3.109500110E-1,4.431000233E0,8.907000542E0,9.953145815E0
2.254353080E-1,3.490500152E-1,4.468950272E0,8.907000542E0,9.971359541E0
2.273979880E-1,3.109500110E-1,4.468950272E0,8.907000542E0,9.970098550E0
2.293607720E-1,2.340000123E-1,4.431000233E0,8.907000542E0,9.951039027E0
2.313237720E-1,3.109500110E-1,4.468950272E0,8.907000542E0,9.970098550E0
2.332867020E-1,3.109500110E-1,4.468950272E0,8.907000542E0,9.970098550E0
2.352497590E-1,2.719500065E-1,4.468950272E0,8.944950104E0,1.000287987E1
2.372127790E-1,3.109500110E-1,4.468950272E0,8.944950104E0,1.000401613E1
2.391753710E-1,3.109500110E-1,4.468950272E0,8.907000542E0,9.970098550E0
2.411380880E-1,2.340000123E-1,4.507050037E0,8.983950615E0,1.005383632E1
2.431012260E-1,2.340000123E-1,4.468950272E0,8.944950104E0,1.000192006E1
2.450642400E-1,2.719500065E-1,4.468950272E0,8.944950104E0,1.000287987E1
2.470274630E-1,2.340000123E-1,4.468950272E0,8.983950615E0,1.003681429E1
2.489906250E-1,2.340000123E-1,4.431000233E0,8.983950615E0,1.001997444E1
2.509540480E-1,2.719500065E-1,4.468950272E0,8.983950615E0,1.003777077E1
2.529173940E-1,2.719500065E-1,4.468950272E0,8.983950615E0,1.003777077E1
2.548806400E-1,2.719500065E-1,4.431000233E0,8.944950104E0,9.985982787E0
2.568438920E-1,2.340000123E-1,4.431000233E0,8.907000542E0,9.951039027E0
2.588069390E-1,2.719500065E-1,4.468950272E0,8.983950615E0,1.003777077E1
2.607700460E-1,2.340000123E-1,4.507050037E0,8.983950615E0,1.005383632E1
2.627331170E-1,2.340000123E-1,4.507050037E0,8.983950615E0,1.005383632E1
2.646961990E-1,2.340000123E-1,4.431000233E0,8.944950104E0,9.985021353E0
2.666592900E-1,2.340000123E-1,4.468950272E0,8.907000542E0,9.967995344E0
2.686223990E-1,2.719500065E-1,4.431000233E0,8.944950104E0,9.985982787E0
2.705856510E-1,2.719500065E-1,4.468950272E0,8.983950615E0,1.003777077E1
2.725488610E-1,2.719500065E-1,4.431000233E0,8.983950615E0,1.002093252E1
2.745120950E-1,2.719500065E-1,4.468950272E0,8.907000542E0,9.968958420E0
2.764753220E-1,2.719500065E-1,4.468950272E0,8.983950615E0,1.003777077E1
2.784383390E-1,2.719500065E-1,4.431000233E0,8.944950104E0,9.985982787E0
2.804014110E-1,2.719500065E-1,4.468950272E0,8.944950104E0,1.000287987E1
2.823641740E-1,2.719500065E-1,4.468950272E0,8.944950104E0,1.000287987E1
2.843270270E-1,2.719500065E-1,4.468950272E0,8.944950104E0,1.000287987E1
2.862902760E-1,3.490500152E-1,4.431000233E0,8.944950104E0,9.988379815E0
2.882534090E-1,2.340000123E-1,4.431000233E0,8.907000542E0,9.951039027E0
2.902166570E-1,2.719500065E-1,4.431000233E0,8.944950104E0,9.985982787E0
2.921798710E-1,2.719500065E-1,4.468950272E0,8.944950104E0,1.000287987E1
2.941429710E-1,2.719500065E-1,4.431000233E0,8.869050026E0,9.918052643E0
2.961061040E-1,3.109500110E-1,4.431000233E0,8.944950104E0,9.987120973E0
2.980694850E-1,3.109500110E-1,4.468950272E0,8.869050026E0,9.936209277E0
3.000327940E-1,2.719500065E-1,4.507050037E0,8.869050026E0,9.952261311E0
3.019957060E-1,2.719500065E-1,4.468950272E0,8.907000542E0,9.968958420E0
3.039587280E-1,3.109500110E-1,4.431000233E0,8.907000542E0,9.953145815E0
3.059221740E-1,3.109500110E-1,4.468950272E0,8.907000542E0,9.970098550E0
3.078854950E-1,2.719500065E-1,4.468950272E0,8.869050026E0,9.935065259E0
3.098490260E-1,2.719500065E-1,4.468950272E0,8.907000542E0,9.968958420E0
3.118124950E-1,3.490500152E-1,4.431000233E0,8.907000542E0,9.954408954E0
3.137760560E-1,3.109500110E-1,4.507050037E0,8.869050026E0,9.953403353E0
3.157395820E-1,3.109500110E-1,4.468950272E0,8.869050026E0,9.936209277E0
3.177025830E-1,2.719500065E-1,4.392000198E0,8.907000542E0,9.934700861E0
3.196657380E-1,2.719500065E-1,4.468950272E0,8.869050026E0,9.935065259E0
3.216289810E-1,3.490500152E-1,4.468950272E0,8.830050468E0,9.902683662E0
3.235921980E-1,3.490500152E-1,4.468950272E0,8.869050026E0,9.937474569E0
3.255552970E-1,2.719500065E-1,4.392000198E0,8.869050026E0,9.900690426E0
3.275184300E-1,3.490500152E-1,4.431000233E0,8.869050026E0,9.920466085E0
3.294814520E-1,3.490500152E-1,4.392000198E0,8.830050468E0,9.868196032E0
3.314445070E-1,3.490500152E-1,4.431000233E0,8.869050026E0,9.920466085E0
3.334072730E-1,3.109500110E-1,4.431000233E0,8.869050026E0,9.919198624E0
3.353701230E-1,2.719500065E-1,4.431000233E0,8.869050026E0,9.918052643E0
3.373332380E-1,3.490500152E-1,4.392000198E0,8.907000542E0,9.937110259E0
3.392962750E-1,3.490500152E-1,4.392000198E0,8.869050026E0,9.903108099E0
3.412595390E-1,3.490500152E-1,4.392000198E0,8.830050468E0,9.868196032E0
3.432227360E-1,3.490500152E-1,4.392000198E0,8.830050468E0,9.868196032E0
3.451861080E-1,3.109500110E-1,4.392000198E0,8.907000542E0,9.935844921E0
3.471494280E-1,3.109500110E-1,4.431000233E0,8.830050468E0,9.884343390E0
3.491124780E-1,3.490500152E-1,4.431000233E0,8.907000542E0,9.954408954E0
3.510755980E-1,2.719500065E-1,4.431000233E0,8.869050026E0,9.918052643E0
3.530390270E-1,3.870000243E-1,4.468950272E0,8.869050026E0,9.938879912E0
3.550023650E-1,3.490500152E-1,4.468950272E0,8.830050468E0,9.902683662E0
3.569654430E-1,3.870000243E-1,4.431000233E0,8.869050026E0,9.921873837E0
3.589285980E-1,4.260000288E-1,4.431000233E0,8.830050468E0,9.888631370E0
3.608916900E-1,3.870000243E-1,4.392000198E0,8.907000542E0,9.938515654E0
3.628547800E-1,3.490500152E-1,4.431000233E0,8.869050026E0,9.920466085E0
3.648179890E-1,3.490500152E-1,4.468950272E0,8.869050026E0,9.937474569E0
3.667811630E-1,3.490500152E-1,4.431000233E0,8.869050026E0,9.920466085E0
3.687442700E-1,3.490500152E-1,4.431000233E0,8.830050468E0,9.885615320E0
3.707073960E-1,3.109500110E-1,4.468950272E0,8.830050468E0,9.901413925E0
3.726704190E-1,3.109500110E-1,4.468950272E0,8.830050468E0,9.901413925E0
3.746334720E-1,3.490500152E-1,4.468950272E0,8.830050468E0,9.902683662E0
3.765965520E-1,3.490500152E-1,4.468950272E0,8.830050468E0,9.902683662E0
3.785596240E-1,3.109500110E-1,4.507050037E0,8.830050468E0,9.918668319E0
3.805227470E-1,2.719500065E-1,4.468950272E0,8.869050026E0,9.935065259E0
3.824858550E-1,3.109500110E-1,4.468950272E0,8.830050468E0,9.901413925E0
3.844488550E-1,3.109500110E-1,4.507050037E0,8.869050026E0,9.953403353E0
3.864119060E-1,2.719500065E-1,4.507050037E0,8.907000542E0,9.986096109E0
3.883749860E-1,3.109500110E-1,4.507050037E0,8.907000542E0,9.987234282E0
3.903380580E-1,3.109500110E-1,4.507050037E0,8.907000542E0,9.987234282E0
3.923011360E-1,2.340000123E-1,4.507050037E0,8.869050026E0,9.951296619E0
3.942642120E-1,2.340000123E-1,4.545000076E0,8.944950104E0,1.003613043E1
3.962273030E-1,2.340000123E-1,4.507050037E0,8.944950104E0,1.001900137E1
3.981903800E-1,2.340000123E-1,4.507050037E0,8.907000542E0,9.985134686E0
4.001532780E-1,2.719500065E-1,4.468950272E0,8.907000542E0,9.968958420E0
4.021162280E-1,2.340000123E-1,4.507050037E0,8.944950104E0,1.001900137E1
4.040791460E-1,2.340000123E-1,4.507050037E0,8.907000542E0,9.985134686E0
4.060420740E-1,2.719500065E-1,4.468950272E0,8.907000542E0,9.968958420E0
4.080055410E-1,1.960500032E-1,4.468950272E0,8.944950104E0,1.000110416E1
4.099688460E-1,2.719500065E-1,4.431000233E0,8.869050026E0,9.918052643E0
4.119317050E-1,2.719500065E-1,4.468950272E0,8.944950104E0,1.000287987E1
4.138946940E-1,2.340000123E-1,4.507050037E0,8.944950104E0,1.001900137E1
4.158580110E-1,2.340000123E-1,4.468950272E0,8.907000542E0,9.967995344E0
4.178212310E-1,2.719500065E-1,4.507050037E0,8.944950104E0,1.001995954E1
4.197844230E-1,2.719500065E-1,4.507050037E0,8.944950104E0,1.001995954E1
4.217476210E-1,2.719500065E-1,4.468950272E0,8.944950104E0,1.000287987E1
4.237104970E-1,2.340000123E-1,4.468950272E0,8.983950615E0,1.003681429E1
4.256734680E-1,2.719500065E-1,4.468950272E0,8.944950104E0,1.000287987E1
4.276367420E-1,1.960500032E-1,4.507050037E0,8.983950615E0,1.005302463E1
4.295999270E-1,1.960500032E-1,4.507050037E0,8.983950615E0,1.005302463E1
4.315626670E-1,2.340000123E-1,4.507050037E0,8.983950615E0,1.005383632E1
4.335255410E-1,1.960500032E-1,4.468950272E0,8.983950615E0,1.003600123E1
4.354888320E-1,1.960500032E-1,4.507050037E0,8.983950615E0,1.005302463E1
4.374520000E-1,2.340000123E-1,4.507050037E0,9.022050858E0,1.008789660E1
4.394148820E-1,1.960500032E-1,4.507050037E0,8.983950615E0,1.005302463E1
4.413778480E-1,2.340000123E-1,4.507050037E0,8.983950615E0,1.005383632E1
4.433409340E-1,1.960500032E-1,4.468950272E0,8.983950615E0,1.003600123E1
4.453039910E-1,2.340000123E-1,4.468950272E0,8.983950615E0,1.003681429E1
4.472670720E-1,1.960500032E-1,4.507050037E0,8.944950104E0,1.001818686E1
4.492301450E-1,2.340000123E-1,4.468950272E0,8.907000542E0,9.967995344E0
4.511928630E-1,1.960500032E-1,4.468950272E0,8.944950104E0,1.000110416E1
4.531556850E-1,2.340000123E-1,4.507050037E0,8.907000542E0,9.985134686E0
4.551187870E-1,1.960500032E-1,4.431000233E0,8.944950104E0,9.984204076E0
4.570817870E-1,1.960500032E-1,4.507050037E0,8.944950104E0,1.001818686E1
4.590449220E-1,2.340000123E-1,4.468950272E0,8.907000542E0,9.967995344E0
4.610080180E-1,1.960500032E-1,4.468950272E0,8.944950104E0,1.000110416E1
4.629709120E-1,2.340000123E-1,4.431000233E0,8.944950104E0,9.985021353E0
4.649338660E-1,2.719500065E-1,4.468950272E0,8.907000542E0,9.968958420E0
4.668969640E-1,2.340000123E-1,4.468950272E0,8.907000542E0,9.967995344E0
4.688600190E-1,2.340000123E-1,4.468950272E0,8.944950104E0,1.000192006E1
4.708231000E-1,2.340000123E-1,4.431000233E0,8.907000542E0,9.951039027E0
4.727861730E-1,2.719500065E-1,4.431000233E0,8.944950104E0,9.985982787E0
4.747492070E-1,2.340000123E-1,4.431000233E0,8.869050026E0,9.917084624E0
4.767122520E-1,3.109500110E-1,4.431000233E0,8.869050026E0,9.919198624E0
4.786752130E-1,3.109500110E-1,4.431000233E0,8.830050468E0,9.884343390E0
4.806381890E-1,3.109500110E-1,4.431000233E0,8.869050026E0,9.919198624E0
4.826014180E-1,2.719500065E-1,4.431000233E0,8.830050468E0,9.883193368E0
4.845645720E-1,3.109500110E-1,4.431000233E0,8.791950226E0,9.850321911E0
4.865274560E-1,3.490500152E-1,4.431000233E0,8.830050468E0,9.885615320E0
4.884904200E-1,3.109500110E-1,4.392000198E0,8.791950226E0,9.832840100E0
4.904535200E-1,3.109500110E-1,4.392000198E0,8.830050468E0,9.866921857E0
4.924165770E-1,3.490500152E-1,4.392000198E0,8.791950226E0,9.834118691E0
4.943793430E-1,3.109500110E-1,4.431000233E0,8.791950226E0,9.850321911E0
4.963421940E-1,2.719500065E-1,4.392000198E0,8.791950226E0,9.831684053E0
4.983054440E-1,3.109500110E-1,4.354050159E0,8.754000664E0,9.781971699E0
5.002685770E-1,3.490500152E-1,4.431000233E0,8.830050468E0,9.885615320E0
5.022318000E-1,3.109500110E-1,4.468950272E0,8.830050468E0,9.901413925E0
5.041950140E-1,3.109500110E-1,4.431000233E0,8.830050468E0,9.884343390E0
5.061584280E-1,3.109500110E-1,4.468950272E0,8.869050026E0,9.936209277E0
5.081217830E-1,3.490500152E-1,4.468950272E0,8.869050026E0,9.937474569E0
5.100852180E-1,3.870000243E-1,4.431000233E0,8.869050026E0,9.921873837E0
5.120486300E-1,3.870000243E-1,4.431000233E0,8.830050468E0,9.887028035E0
5.140121450E-1,3.490500152E-1,4.431000233E0,8.791950226E0,9.851598233E0
5.159756300E-1,3.109500110E-1,4.468950272E0,8.869050026E0,9.936209277E0
5.179389980E-1,3.109500110E-1,4.468950272E0,8.907000542E0,9.970098550E0
5.199024010E-1,3.109500110E-1,4.431000233E0,8.869050026E0,9.919198624E0
5.218659620E-1,3.490500152E-1,4.431000233E0,8.830050468E0,9.885615320E0
5.238294760E-1,3.109500110E-1,4.431000233E0,8.830050468E0,9.884343390E0
5.257928290E-1,3.870000243E-1,4.468950272E0,8.830050468E0,9.904093943E0
5.277562370E-1,3.109500110E-1,4.507050037E0,8.869050026E0,9.953403353E0
5.297197970E-1,3.109500110E-1,4.431000233E0,8.869050026E0,9.919198624E0
5.316833120E-1,3.109500110E-1,4.431000233E0,8.869050026E0,9.919198624E0
5.336468550E-1,3.870000243E-1,4.468950272E0,8.869050026E0,9.938879912E0
5.356103890E-1,3.490500152E-1,4.468950272E0,8.791950226E0,9.868725410E0
5.375735640E-1,2.719500065E-1,4.431000233E0,8.830050468E0,9.883193368E0
5.395368470E-1,3.490500152E-1,4.507050037E0,8.869050026E0,9.954666459E0
5.415001140E-1,3.490500152E-1,4.468950272E0,8.869050026E0,9.937474569E0
5.434633860E-1,2.719500065E-1,4.468950272E0,8.830050468E0,9.900265886E0
5.454263840E-1,3.109500110E-1,4.431000233E0,8.869050026E0,9.919198624E0
5.473894630E-1,3.109500110E-1,4.468950272E0,8.944950104E0,1.000401613E1
5.493527640E-1,3.109500110E-1,4.468950272E0,8.907000542E0,9.970098550E0
5.513159990E-1,3.109500110E-1,4.468950272E0,8.869050026E0,9.936209277E0
5.532792300E-1,2.719500065E-1,4.468950272E0,8.907000542E0,9.968958420E0
5.552424630E-1,2.719500065E-1,4.507050037E0,8.907000542E0,9.986096109E0
5.572058270E-1,2.719500065E-1,4.468950272E0,8.907000542E0,9.968958420E0
5.591691530E-1,3.109500110E-1,4.468950272E0,8.907000542E0,9.970098550E0
5.611323800E-1,2.719500065E-1,4.507050037E0,8.907000542E0,9.986096109E0
5.630956600E-1,2.719500065E-1,4.468950272E0,8.907000542E0,9.968958420E0
5.650588370E-1,2.719500065E-1,4.468950272E0,8.907000542E0,9.968958420E0
5.670220440E-1,2.719500065E-1,4.468950272E0,8.907000542E0,9.968958420E0
5.689850990E-1,2.340000123E-1,4.468950272E0,8.907000542E0,9.967995344E0
5.709481980E-1,2.719500065E-1,4.468950272E0,8.944950104E0,1.000287987E1
5.729113440E-1,2.340000123E-1,4.468950272E0,8.907000542E0,9.967995344E0
5.748744560E-1,2.340000123E-1,4.431000233E0,8.944950104E0,9.985021353E0
5.768374830E-1,3.109500110E-1,4.431000233E0,8.907000542E0,9.953145815E0
5.788005350E-1,2.719500065E-1,4.431000233E0,8.907000542E0,9.952003744E0
5.807637950E-1,2.719500065E-1,4.468950272E0,8.944950104E0,1.000287987E1
5.827269940E-1,2.719500065E-1,4.431000233E0,8.907000542E0,9.952003744E0
5.846900370E-1,2.719500065E-1,4.468950272E0,8.907000542E0,9.968958420E0
5.866531360E-1,2.719500065E-1,4.468950272E0,8.907000542E0,9.968958420E0
5.886164340E-1,2.719500065E-1,4.468950272E0,8.944950104E0,1.000287987E1
5.905796730E-1,2.340000123E-1,4.431000233E0,8.944950104E0,9.985021353E0
5.925430370E-1,2.719500065E-1,4.431000233E0,8.944950104E0,9.985982787E0
5.945063650E-1,2.719500065E-1,4.468950272E0,8.907000542E0,9.968958420E0
5.964695600E-1,3.109500110E-1,4.431000233E0,8.944950104E0,9.987120973E0
5.984328090E-1,2.719500065E-1,4.431000233E0,8.907000542E0,9.952003744E0
6.003960800E-1,2.719500065E-1,4.507050037E0,8.907000542E0,9.986096109E0
6.023593450E-1,3.109500110E-1,4.468950272E0,8.907000542E0,9.970098550E0
6.043227500E-1,2.340000123E-1,4.468950272E0,8.907000542E0,9.967995344E0
6.062861140E-1,2.719500065E-1,4.431000233E0,8.907000542E0,9.952003744E0
6.082496640E-1,3.109500110E-1,4.468950272E0,8.944950104E0,1.000401613E1
6.102131720E-1,2.719500065E-1,4.468950272E0,8.944950104E0,1.000287987E1
6.121766720E-1,2.719500065E-1,4.468950272E0,8.907000542E0,9.968958420E0
6.141401740E-1,2.719500065E-1,4.431000233E0,8.869050026E0,9.918052643E0
6.161035830E-1,2.719500065E-1,4.468950272E0,8.907000542E0,9.968958420E0
6.180670200E-1,3.109500110E-1,4.431000233E0,8.907000542E0,9.953145815E0
6.200305490E-1,2.719500065E-1,4.431000233E0,8.907000542E0,9.952003744E0
6.219940370E-1,2.719500065E-1,4.468950272E0,8.830050468E0,9.900265886E0
6.239570900E-1,2.719500065E-1,4.468950272E0,8.869050026E0,9.935065259E0
6.259202700E-1,2.719500065E-1,4.468950272E0,8.869050026E0,9.935065259E0
6.278833290E-1,2.719500065E-1,4.431000233E0,8.907000542E0,9.952003744E0
6.298464240E-1,3.109500110E-1,4.468950272E0,8.869050026E0,9.936209277E0
6.318097930E-1,2.719500065E-1,4.468950272E0,8.907000542E0,9.968958420E0
6.337730950E-1,3.109500110E-1,4.468950272E0,8.907000542E0,9.970098550E0
6.357364940E-1,3.490500152E-1,4.468950272E0,8.944950104E0,1.000527285E1
6.376998650E-1,3.109500110E-1,4.431000233E0,8.907000542E0,9.953145815E0
6.396632520E-1,3.109500110E-1,4.507050037E0,8.907000542E0,9.987234282E0
6.416266340E-1,3.490500152E-1,4.468950272E0,8.907000542E0,9.971359541E0
6.435901990E-1,3.109500110E-1,4.468950272E0,8.907000542E0,9.970098550E0
6.455537110E-1,2.719500065E-1,4.392000198E0,8.907000542E0,9.934700861E0
6.475172990E-1,3.109500110E-1,4.431000233E0,8.869050026E0,9.919198624E0
6.494808650E-1,3.490500152E-1,4.431000233E0,8.869050026E0,9.920466085E0
6.514444000E-1,3.109500110E-1,4.431000233E0,8.907000542E0,9.953145815E0
6.534079440E-1,3.490500152E-1,4.468950272E0,8.869050026E0,9.937474569E0
6.553714260E-1,3.109500110E-1,4.507050037E0,8.869050026E0,9.953403353E0
6.573349340E-1,3.109500110E-1,4.431000233E0,8.907000542E0,9.953145815E0
6.592987020E-1,3.109500110E-1,4.431000233E0,8.869050026E0,9.919198624E0
6.612623930E-1,3.490500152E-1,4.431000233E0,8.944950104E0,9.988379815E0
6.632256810E-1,3.109500110E-1,4.431000233E0,8.907000542E0,9.953145815E0
6.651890870E-1,2.719500065E-1,4.431000233E0,8.907000542E0,9.952003744E0
6.671524590E-1,3.109500110E-1,4.431000233E0,8.907000542E0,9.953145815E0
6.691158480E-1,2.719500065E-1,4.431000233E0,8.944950104E0,9.985982787E0
6.710790960E-1,3.109500110E-1,4.507050037E0,8.907000542E0,9.987234282E0
6.730423860E-1,3.109500110E-1,4.431000233E0,8.907000542E0,9.953145815E0
6.750057410E-1,3.109500110E-1,4.468950272E0,8.907000542E0,9.970098550E0
6.769690760E-1,2.719500065E-1,4.468950272E0,8.907000542E0,9.968958420E0
6.789323350E-1,3.109500110E-1,4.468950272E0,8.907000542E0,9.970098550E0
6.808956170E-1,3.109500110E-1,4.431000233E0,8.907000542E0,9.953145815E0
6.828591530E-1,3.109500110E-1,4.468950272E0,8.869050026E0,9.936209277E0
6.848226150E-1,2.719500065E-1,4.507050037E0,8.907000542E0,9.986096109E0
6.867858520E-1,2.719500065E-1,4.468950272E0,8.944950104E0,1.000287987E1
6.887491550E-1,3.109500110E-1,4.468950272E0,8.907000542E0,9.970098550E0
6.907123470E-1,3.109500110E-1,4.431000233E0,8.944950104E0,9.987120973E0
6.926755590E-1,2.719500065E-1,4.431000233E0,8.983950615E0,1.002093252E1
6.946391520E-1,3.109500110E-1,4.431000233E0,8.944950104E0,9.987120973E0
6.966026340E-1,3.109500110E-1,4.468950272E0,8.907000542E0,9.970098550E0
6.985660480E-1,3.109500110E-1,4.468950272E0,8.907000542E0,9.970098550E0
7.005294820E-1,3.109500110E-1,4.392000198E0,8.944950104E0,9.969879037E0
7.024928180E-1,2.719500065E-1,4.468950272E0,8.907000542E0,9.968958420E0
7.044561790E-1,3.109500110E-1,4.431000233E0,8.907000542E0,9.953145815E0
7.064197470E-1,3.109500110E-1,4.431000233E0,8.944950104E0,9.987120973E0
7.083832540E-1,2.719500065E-1,4.468950272E0,8.944950104E0,1.000287987E1
7.103464840E-1,3.109500110E-1,4.431000233E0,8.907000542E0,9.953145815E0
7.123097950E-1,3.109500110E-1,4.468950272E0,8.944950104E0,1.000401613E1
7.142735170E-1,3.109500110E-1,4.431000233E0,8.983950615E0,1.002206673E1
7.162371110E-1,3.109500110E-1,4.468950272E0,8.944950104E0,1.000401613E1
7.182005060E-1,3.109500110E-1,4.392000198E0,8.983950615E0,1.000488502E1
7.201639590E-1,3.109500110E-1,4.431000233E0,8.983950615E0,1.002206673E1
7.221275110E-1,2.719500065E-1,4.431000233E0,8.907000542E0,9.952003744E0
7.240910340E-1,3.109500110E-1,4.468950272E0,8.944950104E0,1.000401613E1
7.260541410E-1,3.109500110E-1,4.431000233E0,8.944950104E0,9.987120973E0
7.280173910E-1,2.719500065E-1,4.468950272E0,8.907000542E0,9.968958420E0
7.299810230E-1,3.109500110E-1,4.431000233E0,8.907000542E0,9.953145815E0
7.319445430E-1,2.719500065E-1,4.431000233E0,8.907000542E0,9.952003744E0
7.339080850E-1,3.109500110E-1,4.431000233E0,8.907000542E0,9.953145815E0
7.358716200E-1,3.109500110E-1,4.468950272E0,8.983950615E0,1.003890308E1
7.378349760E-1,3.109500110E-1,4.507050037E0,8.944950104E0,1.002109387E1
7.397983870E-1,2.719500065E-1,4.468950272E0,8.944950104E0,1.000287987E1
7.417619460E-1,3.109500110E-1,4.468950272E0,8.907000542E0,9.970098550E0
7.437254620E-1,2.719500065E-1,4.507050037E0,8.869050026E0,9.952261311E0
7.456888260E-1,3.109500110E-1,4.507050037E0,8.907000542E0,9.987234282E0
7.476522340E-1,3.109500110E-1,4.507050037E0,8.907000542E0,9.987234282E0
7.496157930E-1,3.109500110E-1,4.468950272E0,8.869050026E0,9.936209277E0
7.515793080E-1,2.340000123E-1,4.468950272E0,8.830050468E0,9.899296127E0
7.535428070E-1,2.719500065E-1,4.507050037E0,8.907000542E0,9.986096109E0
7.555063100E-1,2.719500065E-1,4.468950272E0,8.944950104E0,1.000287987E1
7.574697200E-1,2.719500065E-1,4.507050037E0,8.907000542E0,9.986096109E0
7.594331570E-1,2.719500065E-1,4.468950272E0,8.907000542E0,9.968958420E0
7.613968320E-1,3.109500110E-1,4.468950272E0,8.907000542E0,9.970098550E0
7.633604470E-1,2.719500065E-1,4.468950272E0,8.907000542E0,9.968958420E0
7.653240190E-1,2.719500065E-1,4.431000233E0,8.869050026E0,9.918052643E0
7.672876030E-1,3.109500110E-1,4.468950272E0,8.869050026E0,9.936209277E0
7.692512680E-1,2.719500065E-1,4.431000233E0,8.907000542E0,9.952003744E0
7.712149090E-1,3.109500110E-1,4.468950272E0,8.907000542E0,9.970098550E0
7.731786790E-1,3.109500110E-1,4.431000233E0,8.907000542E0,9.953145815E0
7.751423940E-1,3.109500110E-1,4.468950272E0,8.944950104E0,1.000401613E1
7.771055430E-1,3.109500110E-1,4.468950272E0,8.907000542E0,9.970098550E0
7.790688580E-1,3.109500110E-1,4.468950272E0,8.907000542E0,9.970098550E0
7.810322530E-1,3.490500152E-1,4.431000233E0,8.944950104E0,9.988379815E0
7.829956250E-1,3.490500152E-1,4.431000233E0,8.907000542E0,9.954408954E0
7.849588520E-1,3.109500110E-1,4.431000233E0,8.944950104E0,9.987120973E0
7.869221080E-1,3.109500110E-1,4.468950272E0,8.983950615E0,1.003890308E1
7.888854680E-1,2.719500065E-1,4.468950272E0,8.983950615E0,1.003777077E1
7.908487980E-1,2.719500065E-1,4.507050037E0,8.907000542E0,9.986096109E0
7.928120130E-1,2.340000123E-1,4.468950272E0,8.907000542E0,9.967995344E0
7.947752620E-1,2.719500065E-1,4.507050037E0,8.869050026E0,9.952261311E0
7.967385090E-1,2.340000123E-1,4.468950272E0,8.907000542E0,9.967995344E0
7.987017430E-1,1.960500032E-1,4.468950272E0,8.907000542E0,9.967176671E0
8.006650180E-1,2.340000123E-1,4.507050037E0,8.907000542E0,9.985134686E0
8.026282800E-1,2.340000123E-1,4.507050037E0,8.869050026E0,9.951296619E0
8.045916860E-1,1.960500032E-1,4.507050037E0,8.830050468E0,9.915731285E0
8.065550490E-1,1.960500032E-1,4.545000076E0,8.830050468E0,9.933038436E0
8.085184370E-1,2.719500065E-1,4.545000076E0,8.869050026E0,9.969505046E0
8.104818180E-1,2.340000123E-1,4.545000076E0,8.830050468E0,9.933859923E0
8.124455190E-1,2.340000123E-1,4.507050037E0,8.791950226E0,9.882643615E0
8.144091260E-1,2.340000123E-1,4.545000076E0,8.754000664E0,9.866321975E0
8.163722930E-1,1.570500135E-1,4.507050037E0,8.830050468E0,9.915036864E0
8.183355890E-1,2.719500065E-1,4.507050037E0,8.830050468E0,9.917522277E0
8.202984680E-1,2.340000123E-1,4.584000111E0,8.791950226E0,9.917973674E0
8.222614550E-1,1.960500032E-1,4.507050037E0,8.754000664E0,9.848069012E0
8.242249520E-1,2.340000123E-1,4.507050037E0,8.791950226E0,9.882643615E0
8.261882990E-1,2.340000123E-1,4.545000076E0,8.791950226E0,9.900008610E0
8.281516460E-1,2.719500065E-1,4.507050037E0,8.754000664E0,9.849872307E0
8.301149930E-1,2.340000123E-1,4.545000076E0,8.754000664E0,9.866321975E0
8.320784130E-1,2.719500065E-1,4.507050037E0,8.791950226E0,9.883615008E0
8.340418220E-1,2.719500065E-1,4.507050037E0,8.754000664E0,9.849872307E0
8.360051580E-1,1.960500032E-1,4.468950272E0,8.754000664E0,9.830690706E0
8.379685160E-1,2.719500065E-1,4.468950272E0,8.830050468E0,9.900265886E0
8.399314100E-1,3.109500110E-1,4.468950272E0,8.830050468E0,9.901413925E0
8.418944400E-1,2.719500065E-1,4.468950272E0,8.830050468E0,9.900265886E0
8.438576550E-1,3.109500110E-1,4.431000233E0,8.830050468E0,9.884343390E0
8.458208180E-1,2.719500065E-1,4.468950272E0,8.791950226E0,9.866299312E0
8.477838810E-1,3.109500110E-1,4.468950272E0,8.830050468E0,9.901413925E0
8.497469740E-1,3.109500110E-1,4.431000233E0,8.869050026E0,9.919198624E0
8.517102280E-1,3.109500110E-1,4.468950272E0,8.869050026E0,9.936209277E0
8.536734340E-1,3.109500110E-1,4.468950272E0,8.830050468E0,9.901413925E0
8.556364930E-1,3.109500110E-1,4.431000233E0,8.869050026E0,9.919198624E0
8.575995930E-1,2.719500065E-1,4.431000233E0,8.869050026E0,9.918052643E0
8.595626660E-1,2.719500065E-1,4.468950272E0,8.830050468E0,9.900265886E0
8.615257470E-1,2.719500065E-1,4.468950272E0,8.907000542E0,9.968958420E0
8.634888230E-1,3.109500110E-1,4.431000233E0,8.869050026E0,9.919198624E0
8.654519010E-1,2.719500065E-1,4.431000233E0,8.830050468E0,9.883193368E0
8.674149880E-1,3.109500110E-1,4.431000233E0,8.869050026E0,9.919198624E0
8.693780650E-1,2.719500065E-1,4.468950272E0,8.830050468E0,9.900265886E0
8.713413660E-1,2.719500065E-1,4.468950272E0,8.907000542E0,9.968958420E0
8.733046010E-1,2.719500065E-1,4.468950272E0,8.907000542E0,9.968958420E0
8.752676070E-1,2.719500065E-1,4.431000233E0,8.907000542E0,9.952003744E0
8.772306800E-1,2.340000123E-1,4.431000233E0,8.907000542E0,9.951039027E0
8.791939720E-1,2.719500065E-1,4.468950272E0,8.944950104E0,1.000287987E1
8.811572070E-1,3.490500152E-1,4.468950272E0,8.944950104E0,1.000527285E1
8.831205720E-1,2.719500065E-1,4.507050037E0,8.983950615E0,1.005479117E1
8.850838990E-1,2.719500065E-1,4.468950272E0,8.944950104E0,1.000287987E1
8.870471600E-1,3.109500110E-1,4.507050037E0,8.983950615E0,1.005592157E1
8.890104400E-1,2.340000123E-1,4.507050037E0,8.983950615E0,1.005383632E1
8.909736520E-1,3.109500110E-1,4.468950272E0,9.022050858E0,1.007301385E1
8.929368910E-1,3.109500110E-1,4.545000076E0,8.983950615E0,1.007298785E1
8.949000750E-1,2.719500065E-1,4.468950272E0,9.022050858E0,1.007188538E1
8.968632760E-1,3.109500110E-1,4.507050037E0,8.983950615E0,1.005592157E1
8.988265100E-1,2.719500065E-1,4.468950272E0,9.022050858E0,1.007188538E1
9.007897350E-1,3.109500110E-1,4.468950272E0,8.983950615E0,1.003890308E1
9.027529670E-1,3.109500110E-1,4.468950272E0,8.983950615E0,1.003890308E1
9.047161970E-1,3.109500110E-1,4.468950272E0,9.022050858E0,1.007301385E1
9.066794730E-1,2.719500065E-1,4.468950272E0,8.983950615E0,1.003777077E1
9.086427350E-1,3.109500110E-1,4.468950272E0,8.983950615E0,1.003890308E1
9.106061410E-1,2.719500065E-1,4.431000233E0,9.022050858E0,1.005510425E1
9.125695050E-1,2.340000123E-1,4.431000233E0,8.983950615E0,1.001997444E1
9.145329030E-1,3.109500110E-1,4.468950272E0,9.022050858E0,1.007301385E1
9.164962840E-1,3.109500110E-1,4.468950272E0,9.022050858E0,1.007301385E1
9.184596690E-1,2.719500065E-1,4.431000233E0,9.022050858E0,1.005510425E1
9.204230530E-1,2.719500065E-1,4.431000233E0,8.983950615E0,1.002093252E1
9.223864380E-1,3.109500110E-1,4.468950272E0,9.022050858E0,1.007301385E1
9.243498220E-1,3.109500110E-1,4.468950272E0,8.983950615E0,1.003890308E1
9.263131580E-1,3.109500110E-1,4.431000233E0,9.022050858E0,1.005623462E1
9.282765120E-1,2.719500065E-1,4.392000198E0,8.944950104E0,9.968738882E0
9.302394060E-1,2.719500065E-1,4.392000198E0,8.983950615E0,1.000374886E1
9.322024350E-1,2.719500065E-1,4.392000198E0,8.944950104E0,9.968738882E0
9.341654740E-1,3.109500110E-1,4.392000198E0,8.983950615E0,1.000488502E1
9.361285100E-1,3.109500110E-1,4.431000233E0,8.907000542E0,9.953145815E0
9.380918070E-1,3.490500152E-1,4.392000198E0,8.944950104E0,9.971140056E0
9.400550040E-1,2.719500065E-1,4.392000198E0,8.907000542E0,9.934700861E0
9.420180610E-1,3.490500152E-1,4.392000198E0,8.907000542E0,9.937110259E0
9.439811600E-1,2.719500065E-1,4.431000233E0,8.944950104E0,9.985982787E0
9.459439180E-1,2.719500065E-1,4.392000198E0,8.830050468E0,9.865769804E0
9.479067760E-1,2.719500065E-1,4.392000198E0,8.869050026E0,9.900690426E0
9.498700460E-1,3.109500110E-1,4.392000198E0,8.869050026E0,9.901838416E0
9.518332120E-1,3.109500110E-1,4.392000198E0,8.830050468E0,9.866921857E0
9.537965890E-1,3.109500110E-1,4.392000198E0,8.869050026E0,9.901838416E0
9.557599040E-1,3.490500152E-1,4.431000233E0,8.869050026E0,9.920466085E0
9.577229860E-1,3.109500110E-1,4.392000198E0,8.907000542E0,9.935844921E0
9.596861370E-1,2.719500065E-1,4.431000233E0,8.907000542E0,9.952003744E0
9.616490010E-1,3.490500152E-1,4.431000233E0,8.869050026E0,9.920466085E0
9.636119630E-1,3.109500110E-1,4.392000198E0,8.830050468E0,9.866921857E0
9.655751940E-1,3.109500110E-1,4.392000198E0,8.869050026E0,9.901838416E0
9.675383460E-1,3.490500152E-1,4.431000233E0,8.869050026E0,9.920466085E0
9.695014560E-1,3.109500110E-1,4.431000233E0,8.791950226E0,9.850321911E0
9.714645790E-1,3.109500110E-1,4.431000233E0,8.830050468E0,9.884343390E0
9.734276480E-1,3.490500152E-1,4.468950272E0,8.869050026E0,9.937474569E0
9.753907330E-1,3.109500110E-1,4.431000233E0,8.869050026E0,9.919198624E0
9.773539420E-1,3.109500110E-1,4.431000233E0,8.830050468E0,9.884343390E0
9.793171150E-1,2.719500065E-1,4.507050037E0,8.791950226E0,9.883615008E0
9.812800410E-1,3.109500110E-1,4.468950272E0,8.830050468E0,9.901413925E0
9.832430400E-1,3.109500110E-1,4.468950272E0,8.907000542E0,9.970098550E0
9.852060650E-1,3.490500152E-1,4.431000233E0,8.907000542E0,9.954408954E0
9.871690960E-1,3.109500110E-1,4.468950272E0,8.869050026E0,9.936209277E0
9.891320470E-1,2.719500065E-1,4.507050037E0,8.869050026E0,9.952261311E0
9.910950210E-1,3.109500110E-1,4.468950272E0,8.869050026E0,9.936209277E0
9.930582500E-1,2.719500065E-1,4.468950272E0,8.869050026E0,9.935065259E0
9.950214040E-1,3.109500110E-1,4.468950272E0,8.869050026E0,9.936209277E0
9.969843200E-1,2.719500065E-1,4.468950272E0,8.830050468E0,9.900265886E0
9.989473150E-1,2.719500065E-1,4.507050037E0,8.869050026E0,9.952261311E0
1.000910720E0,2.719500065E-1,4.468950272E0,8.869050026E0,9.935065259E0
1.002874005E0,2.719500065E-1,4.507050037E0,8.869050026E0,9.952261311E0
1.004837587E0,2.719500065E-1,4.468950272E0,8.907000542E0,9.968958420E0
1.006801082E0,2.719500065E-1,4.468950272E0,8.907000542E0,9.968958420E0
1.008764453E0,2.719500065E-1,4.507050037E0,8.944950104E0,1.001995954E1
1.010727858E0,2.340000123E-1,4.468950272E0,8.907000542E0,9.967995344E0
1.012691283E0,3.109500110E-1,4.507050037E0,8.944950104E0,1.002109387E1
1.014654702E0,2.719500065E-1,4.468950272E0,8.944950104E0,1.000287987E1
1.016618037E0,2.719500065E-1,4.468950272E0,8.907000542E0,9.968958420E0
1.018581396E0,2.719500065E-1,4.468950272E0,8.944950104E0,1.000287987E1
1.020544490E0,2.719500065E-1,4.507050037E0,8.907000542E0,9.986096109E0
1.022507647E0,2.719500065E-1,4.431000233E0,8.869050026E0,9.918052643E0
1.024471069E0,2.719500065E-1,4.507050037E0,8.907000542E0,9.986096109E0
1.026434414E0,3.109500110E-1,4.468950272E0,8.907000542E0,9.970098550E0
1.028397446E0,3.109500110E-1,4.468950272E0,8.907000542E0,9.970098550E0
1.030360570E0,2.719500065E-1,4.431000233E0,8.869050026E0,9.918052643E0
1.032323972E0,3.109500110E-1,4.468950272E0,8.907000542E0,9.970098550E0
1.034287279E0,2.340000123E-1,4.468950272E0,8.907000542E0,9.967995344E0
1.036250498E0,2.340000123E-1,4.507050037E0,8.869050026E0,9.951296619E0
1.038213743E0,2.340000123E-1,4.507050037E0,8.791950226E0,9.882643615E0
1.040176971E0,2.719500065E-1,4.468950272E0,8.907000542E0,9.968958420E0
1.042140204E0,2.340000123E-1,4.507050037E0,8.907000542E0,9.985134686E0
1.044103435E0,2.719500065E-1,4.507050037E0,8.869050026E0,9.952261311E0
1.046066666E0,2.719500065E-1,4.468950272E0,8.830050468E0,9.900265886E0
1.048030121E0,2.719500065E-1,4.545000076E0,8.869050026E0,9.969505046E0
1.049993510E0,2.719500065E-1,4.545000076E0,8.907000542E0,1.000328152E1
1.051956850E0,2.340000123E-1,4.507050037E0,8.907000542E0,9.985134686E0
1.053920204E0,3.109500110E-1,4.507050037E0,8.869050026E0,9.953403353E0
1.055883449E0,2.719500065E-1,4.545000076E0,8.907000542E0,1.000328152E1
1.057846733E0,3.109500110E-1,4.545000076E0,8.830050468E0,9.935970354E0
1.059809954E0,3.109500110E-1,4.468950272E0,8.907000542E0,9.970098550E0
1.061773194E0,2.719500065E-1,4.468950272E0,8.944950104E0,1.000287987E1
1.063736423E0,3.109500110E-1,4.507050037E0,8.944950104E0,1.002109387E1
1.065699656E0,2.719500065E-1,4.507050037E0,8.983950615E0,1.005479117E1
1.067662661E0,3.109500110E-1,4.507050037E0,8.983950615E0,1.005592157E1
1.069625733E0,3.109500110E-1,4.468950272E0,8.944950104E0,1.000401613E1
1.071588495E0,2.719500065E-1,4.468950272E0,8.944950104E0,1.000287987E1
1.073551348E0,2.719500065E-1,4.468950272E0,8.944950104E0,1.000287987E1
1.075514643E0,3.490500152E-1,4.468950272E0,8.944950104E0,1.000527285E1
1.077477808E0,3.109500110E-1,4.468950272E0,8.869050026E0,9.936209277E0
1.079440816E0,2.719500065E-1,4.507050037E0,8.907000542E0,9.986096109E0
1.081403877E0,2.719500065E-1,4.507050037E0,8.907000542E0,9.986096109E0
1.083366956E0,3.109500110E-1,4.468950272E0,8.869050026E0,9.936209277E0
1.085330029E0,2.719500065E-1,4.468950272E0,8.944950104E0,1.000287987E1
1.087293287E0,2.719500065E-1,4.507050037E0,8.907000542E0,9.986096109E0
1.089256490E0,2.719500065E-1,4.468950272E0,8.944950104E0,1.000287987E1
1.091220086E0,2.719500065E-1,4.468950272E0,8.869050026E0,9.935065259E0
1.093183567E0,3.109500110E-1,4.431000233E0,8.830050468E0,9.884343390E0
1.095147115E0,2.719500065E-1,4.507050037E0,8.869050026E0,9.952261311E0
1.097110644E0,3.109500110E-1,4.468950272E0,8.869050026E0,9.936209277E0
1.099074184E0,3.109500110E-1,4.468950272E0,8.869050026E0,9.936209277E0
1.101037721E0,3.490500152E-1,4.468950272E0,8.869050026E0,9.937474569E0
1.103001260E0,3.109500110E-1,4.468950272E0,8.907000542E0,9.970098550E0
1.104964798E0,3.109500110E-1,4.468950272E0,8.869050026E0,9.936209277E0
1.106928382E0,3.109500110E-1,4.431000233E0,8.830050468E0,9.884343390E0
1.108891952E0,3.490500152E-1,4.468950272E0,8.869050026E0,9.937474569E0
1.110855261E0,2.719500065E-1,4.468950272E0,8.830050468E0,9.900265886E0
1.112818646E0,2.719500065E-1,4.431000233E0,8.830050468E0,9.883193368E0
1.114782089E0,2.719500065E-1,4.392000198E0,8.907000542E0,9.934700861E0
1.116745505E0,2.719500065E-1,4.431000233E0,8.830050468E0,9.883193368E0
1.118708885E0,2.719500065E-1,4.431000233E0,8.830050468E0,9.883193368E0
1.120672276E0,3.109500110E-1,4.468950272E0,8.907000542E0,9.970098550E0
1.122635615E0,3.490500152E-1,4.392000198E0,8.907000542E0,9.937110259E0
1.124598969E0,3.109500110E-1,4.392000198E0,8.944950104E0,9.969879037E0
1.126562204E0,3.109500110E-1,4.431000233E0,8.869050026E0,9.919198624E0
1.128525488E0,3.109500110E-1,4.431000233E0,8.944950104E0,9.987120973E0
1.130488665E0,3.490500152E-1,4.468950272E0,8.907000542E0,9.971359541E0
1.132451873E0,3.109500110E-1,4.431000233E0,8.907000542E0,9.953145815E0
1.134414927E0,3.109500110E-1,4.431000233E0,8.907000542E0,9.953145815E0
1.136378027E0,2.719500065E-1,4.431000233E0,8.907000542E0,9.952003744E0
1.138341523E0,2.719500065E-1,4.468950272E0,8.869050026E0,9.935065259E0
1.140304890E0,2.719500065E-1,4.468950272E0,8.907000542E0,9.968958420E0
1.142268413E0,3.109500110E-1,4.468950272E0,8.944950104E0,1.000401613E1
1.144231890E0,3.109500110E-1,4.468950272E0,8.869050026E0,9.936209277E0
1.146194945E0,2.719500065E-1,4.431000233E0,8.907000542E0,9.952003744E0
1.148158123E0,2.719500065E-1,4.468950272E0,8.907000542E0,9.968958420E0
1.150121380E0,2.719500065E-1,4.507050037E0,8.869050026E0,9.952261311E0
1.152084601E0,3.109500110E-1,4.468950272E0,8.869050026E0,9.936209277E0
1.154047790E0,2.719500065E-1,4.507050037E0,8.907000542E0,9.986096109E0
1.156010988E0,3.109500110E-1,4.545000076E0,8.907000542E0,1.000441774E1
1.157974268E0,3.109500110E-1,4.468950272E0,8.869050026E0,9.936209277E0
1.159937524E0,2.719500065E-1,4.468950272E0,8.907000542E0,9.968958420E0
1.161900707E0,3.109500110E-1,4.468950272E0,8.869050026E0,9.936209277E0
1.163863911E0,3.490500152E-1,4.507050037E0,8.907000542E0,9.988493110E0
1.165827011E0,3.490500152E-1,4.507050037E0,8.869050026E0,9.954666459E0
1.167790142E0,3.109500110E-1,4.507050037E0,8.907000542E0,9.987234282E0
1.169753210E0,2.719500065E-1,4.545000076E0,8.907000542E0,1.000328152E1
1.171716296E0,2.719500065E-1,4.468950272E0,8.869050026E0,9.935065259E0
1.173679321E0,2.719500065E-1,4.507050037E0,8.907000542E0,9.986096109E0
1.175642367E0,3.109500110E-1,4.507050037E0,8.907000542E0,9.987234282E0
1.177605493E0,3.109500110E-1,4.507050037E0,8.869050026E0,9.953403353E0
1.179568596E0,2.719500065E-1,4.507050037E0,8.907000542E0,9.986096109E0
1.181531670E0,3.109500110E-1,4.468950272E0,8.944950104E0,1.000401613E1
1.183494752E0,2.719500065E-1,4.507050037E0,8.944950104E0,1.001995954E1
1.185458161E0,2.719500065E-1,4.507050037E0,8.907000542E0,9.986096109E0
1.187421461E0,2.719500065E-1,4.468950272E0,8.907000542E0,9.968958420E0
1.189384546E0,2.719500065E-1,4.507050037E0,8.907000542E0,9.986096109E0
1.191347694E0,2.719500065E-1,4.468950272E0,8.907000542E0,9.968958420E0
1.193310893E0,3.109500110E-1,4.468950272E0,8.907000542E0,9.970098550E0
1.195274077E0,2.340000123E-1,4.507050037E0,8.944950104E0,1.001900137E1
1.197237347E0,3.109500110E-1,4.545000076E0,8.907000542E0,1.000441774E1
1.199200601E0,2.719500065E-1,4.507050037E0,8.907000542E0,9.986096109E0
1.201163784E0,2.340000123E-1,4.468950272E0,8.944950104E0,1.000192006E1
1.203126988E0,2.719500065E-1,4.507050037E0,8.907000542E0,9.986096109E0
1.205090267E0,2.340000123E-1,4.468950272E0,8.944950104E0,1.000192006E1
1.207053524E0,2.719500065E-1,4.507050037E0,8.869050026E0,9.952261311E0
1.209017066E0,2.340000123E-1,4.468950272E0,8.907000542E0,9.967995344E0
1.210980524E0,2.719500065E-1,4.545000076E0,8.944950104E0,1.003708697E1
1.212944122E0,2.340000123E-1,4.507050037E0,8.907000542E0,9.985134686E0
1.214907678E0,2.719500065E-1,4.468950272E0,8.944950104E0,1.000287987E1
1.216871034E0,2.340000123E-1,4.468950272E0,8.907000542E0,9.967995344E0
1.218834449E0,2.719500065E-1,4.507050037E0,8.907000542E0,9.986096109E0
1.220797449E0,2.340000123E-1,4.507050037E0,8.944950104E0,1.001900137E1
1.222760584E0,2.719500065E-1,4.468950272E0,8.944950104E0,1.000287987E1
1.224724011E0,2.719500065E-1,4.507050037E0,8.944950104E0,1.001995954E1
1.226687352E0,2.340000123E-1,4.468950272E0,8.907000542E0,9.967995344E0
1.228650744E0,2.340000123E-1,4.468950272E0,8.869050026E0,9.934098897E0
1.230614121E0,2.719500065E-1,4.507050037E0,8.944950104E0,1.001995954E1
1.232577074E0,2.340000123E-1,4.468950272E0,8.869050026E0,9.934098897E0
1.234540171E0,2.340000123E-1,4.468950272E0,8.907000542E0,9.967995344E0
1.236503964E0,2.719500065E-1,4.468950272E0,8.830050468E0,9.900265886E0
1.238467553E0,2.719500065E-1,4.468950272E0,8.869050026E0,9.935065259E0
1.240431084E0,2.340000123E-1,4.468950272E0,8.907000542E0,9.967995344E0
1.242394632E0,2.340000123E-1,4.431000233E0,8.869050026E0,9.917084624E0
1.244357785E0,2.719500065E-1,4.468950272E0,8.907000542E0,9.968958420E0
1.246321070E0,3.109500110E-1,4.468950272E0,8.869050026E0,9.936209277E0
1.248284291E0,2.719500065E-1,4.468950272E0,8.869050026E0,9.935065259E0
1.250247531E0,2.719500065E-1,4.468950272E0,8.907000542E0,9.968958420E0
1.252211120E0,2.719500065E-1,4.507050037E0,8.907000542E0,9.986096109E0
1.254174606E0,2.719500065E-1,4.468950272E0,8.869050026E0,9.935065259E0
1.256138144E0,3.109500110E-1,4.468950272E0,8.944950104E0,1.000401613E1
1.258101673E0,2.719500065E-1,4.468950272E0,8.907000542E0,9.968958420E0
1.260065213E0,2.340000123E-1,4.468950272E0,8.907000542E0,9.967995344E0
1.262028750E0,2.719500065E-1,4.468950272E0,8.869050026E0,9.935065259E0
1.263992289E0,2.719500065E-1,4.468950272E0,8.869050026E0,9.935065259E0
1.265955827E0,3.109500110E-1,4.468950272E0,8.907000542E0,9.970098550E0
1.267919186E0,2.719500065E-1,4.468950272E0,8.869050026E0,9.935065259E0
1.269882598E0,2.340000123E-1,4.431000233E0,8.907000542E0,9.951039027E0
1.271845978E0,2.719500065E-1,4.468950272E0,8.907000542E0,9.968958420E0
1.273809368E0,2.719500065E-1,4.468950272E0,8.869050026E0,9.935065259E0
1.275772931E0,3.490500152E-1,4.468950272E0,8.869050026E0,9.937474569E0
1.277736443E0,3.109500110E-1,4.468950272E0,8.869050026E0,9.936209277E0
1.279699802E0,3.109500110E-1,4.507050037E0,8.907000542E0,9.987234282E0
1.281663209E0,2.719500065E-1,4.468950272E0,8.907000542E0,9.968958420E0
1.283626409E0,2.719500065E-1,4.468950272E0,8.869050026E0,9.935065259E0
1.285589670E0,2.340000123E-1,4.431000233E0,8.944950104E0,9.985021353E0
1.287553075E0,3.109500110E-1,4.431000233E0,8.869050026E0,9.919198624E0
1.289516438E0,2.719500065E-1,4.468950272E0,8.907000542E0,9.968958420E0
1.291479670E0,3.109500110E-1,4.468950272E0,8.869050026E0,9.936209277E0
1.293442924E0,3.109500110E-1,4.507050037E0,8.869050026E0,9.953403353E0
1.295406375E0,2.340000123E-1,4.507050037E0,8.907000542E0,9.985134686E0
1.297369768E0,3.109500110E-1,4.431000233E0,8.907000542E0,9.953145815E0
1.299333108E0,2.719500065E-1,4.468950272E0,8.983950615E0,1.003777077E1
1.301296463E0,2.340000123E-1,4.507050037E0,8.907000542E0,9.985134686E0
1.303259704E0,3.109500110E-1,4.468950272E0,8.907000542E0,9.970098550E0
1.305222988E0,2.719500065E-1,4.431000233E0,8.944950104E0,9.985982787E0
1.307186344E0,2.340000123E-1,4.468950272E0,8.907000542E0,9.967995344E0
1.309149678E0,2.340000123E-1,4.468950272E0,8.907000542E0,9.967995344E0
1.311112757E0,2.719500065E-1,4.431000233E0,8.944950104E0,9.985982787E0
1.313075911E0,2.719500065E-1,4.431000233E0,8.944950104E0,9.985982787E0
1.315039137E0,2.719500065E-1,4.468950272E0,8.944950104E0,1.000287987E1
1.317002322E0,2.719500065E-1,4.468950272E0,8.907000542E0,9.968958420E0
1.318965560E0,3.109500110E-1,4.468950272E0,8.944950104E0,1.000401613E1
1.320928783E0,3.109500110E-1,4.431000233E0,8.944950104E0,9.987120973E0
1.322892196E0,3.109500110E-1,4.468950272E0,8.944950104E0,1.000401613E1
1.324855553E0,3.109500110E-1,4.431000233E0,8.944950104E0,9.987120973E0
1.326818808E0,3.109500110E-1,4.431000233E0,8.944950104E0,9.987120973E0
1.328782093E0,3.490500152E-1,4.468950272E0,8.944950104E0,1.000527285E1
1.330745493E0,3.109500110E-1,4.507050037E0,8.944950104E0,1.002109387E1
1.332708860E0,3.109500110E-1,4.468950272E0,8.907000542E0,9.970098550E0
1.334672204E0,3.490500152E-1,4.431000233E0,8.869050026E0,9.920466085E0
1.336635555E0,3.109500110E-1,4.468950272E0,8.830050468E0,9.901413925E0
1.338598966E0,3.490500152E-1,4.431000233E0,8.869050026E0,9.920466085E0
1.340562376E0,3.109500110E-1,4.468950272E0,8.869050026E0,9.936209277E0
1.342525532E0,3.490500152E-1,4.468950272E0,8.791950226E0,9.868725410E0
1.344488762E0,3.490500152E-1,4.507050037E0,8.869050026E0,9.954666459E0
1.346451992E0,3.109500110E-1,4.468950272E0,8.869050026E0,9.936209277E0
1.348415222E0,3.109500110E-1,4.468950272E0,8.869050026E0,9.936209277E0
1.350378319E0,2.719500065E-1,4.507050037E0,8.907000542E0,9.986096109E0
1.352341455E0,3.109500110E-1,4.468950272E0,8.907000542E0,9.970098550E0
1.354304656E0,2.719500065E-1,4.507050037E0,8.830050468E0,9.917522277E0
1.356267837E0,3.490500152E-1,4.507050037E0,8.830050468E0,9.919935848E0
1.358231077E0,3.109500110E-1,4.468950272E0,8.830050468E0,9.901413925E0
1.360194299E0,3.109500110E-1,4.468950272E0,8.869050026E0,9.936209277E0
1.362157905E0,2.719500065E-1,4.507050037E0,8.869050026E0,9.952261311E0
1.364121389E0,2.719500065E-1,4.507050037E0,8.869050026E0,9.952261311E0
1.366084803E0,3.109500110E-1,4.468950272E0,8.830050468E0,9.901413925E0
1.368048237E0,3.490500152E-1,4.431000233E0,8.907000542E0,9.954408954E0
1.370011747E0,3.490500152E-1,4.468950272E0,8.830050468E0,9.902683662E0
1.371975235E0,3.109500110E-1,4.468950272E0,8.830050468E0,9.901413925E0
1.373938585E0,3.109500110E-1,4.468950272E0,8.830050468E0,9.901413925E0
1.375901988E0,3.870000243E-1,4.468950272E0,8.791950226E0,9.870140542E0
1.377865369E0,3.109500110E-1,4.431000233E0,8.869050026E0,9.919198624E0
1.379828757E0,3.109500110E-1,4.431000233E0,8.830050468E0,9.884343390E0
1.381792006E0,3.490500152E-1,4.507050037E0,8.791950226E0,9.886036856E0
1.383755296E0,3.490500152E-1,4.431000233E0,8.830050468E0,9.885615320E0
1.385718844E0,3.109500110E-1,4.468950272E0,8.830050468E0,9.901413925E0
1.387682307E0,3.109500110E-1,4.468950272E0,8.869050026E0,9.936209277E0
1.389645724E0,3.109500110E-1,4.431000233E0,8.791950226E0,9.850321911E0
1.391609155E0,2.719500065E-1,4.507050037E0,8.830050468E0,9.917522277E0
1.393572306E0,3.109500110E-1,4.468950272E0,8.830050468E0,9.901413925E0
1.395535540E0,2.719500065E-1,4.468950272E0,8.830050468E0,9.900265886E0
1.397498976E0,3.109500110E-1,4.468950272E0,8.830050468E0,9.901413925E0
1.399462366E0,3.490500152E-1,4.468950272E0,8.791950226E0,9.868725410E0
1.401425885E0,3.109500110E-1,4.507050037E0,8.869050026E0,9.953403353E0
1.403389366E0,2.719500065E-1,4.507050037E0,8.869050026E0,9.952261311E0
1.405352780E0,3.109500110E-1,4.468950272E0,8.869050026E0,9.936209277E0
1.407316214E0,3.109500110E-1,4.468950272E0,8.907000542E0,9.970098550E0
1.409279742E0,2.719500065E-1,4.507050037E0,8.907000542E0,9.986096109E0
1.411243230E0,2.719500065E-1,4.468950272E0,8.869050026E0,9.935065259E0
1.413206283E0,3.109500110E-1,4.507050037E0,8.869050026E0,9.953403353E0
1.415169463E0,3.109500110E-1,4.468950272E0,8.830050468E0,9.901413925E0
1.417132477E0,3.490500152E-1,4.507050037E0,8.869050026E0,9.954666459E0
1.419095540E0,2.719500065E-1,4.507050037E0,8.869050026E0,9.952261311E0
1.421058687E0,2.719500065E-1,4.507050037E0,8.907000542E0,9.986096109E0
1.423021793E0,2.719500065E-1,4.507050037E0,8.869050026E0,9.952261311E0
1.424985180E0,2.719500065E-1,4.507050037E0,8.869050026E0,9.952261311E0
1.426948485E0,3.109500110E-1,4.507050037E0,8.944950104E0,1.002109387E1
1.428912109E0,2.340000123E-1,4.468950272E0,8.907000542E0,9.967995344E0
1.430875639E0,2.719500065E-1,4.507050037E0,8.869050026E0,9.952261311E0
1.432838829E0,2.719500065E-1,4.468950272E0,8.944950104E0,1.000287987E1
1.434802112E0,2.719500065E-1,4.507050037E0,8.944950104E0,1.001995954E1
1.436765513E0,3.109500110E-1,4.507050037E0,8.907000542E0,9.987234282E0
1.438728880E0,2.719500065E-1,4.468950272E0,8.944950104E0,1.000287987E1
1.440692088E0,2.719500065E-1,4.468950272E0,8.907000542E0,9.968958420E0
1.442655343E0,2.719500065E-1,4.507050037E0,8.983950615E0,1.005479117E1
1.444618584E0,2.719500065E-1,4.468950272E0,8.944950104E0,1.000287987E1
1.446581819E0,2.719500065E-1,4.468950272E0,8.944950104E0,1.000287987E1
1.448545363E0,2.719500065E-1,4.431000233E0,8.907000542E0,9.952003744E0
1.450508817E0,3.109500110E-1,4.468950272E0,8.907000542E0,9.970098550E0
1.452472010E0,2.719500065E-1,4.507050037E0,8.944950104E0,1.001995954E1
1.454435280E0,2.719500065E-1,4.468950272E0,8.907000542E0,9.968958420E0
1.456398514E0,3.109500110E-1,4.507050037E0,8.907000542E0,9.987234282E0
1.458361752E0,2.340000123E-1,4.507050037E0,8.944950104E0,1.001900137E1
1.460324846E0,3.109500110E-1,4.507050037E0,8.983950615E0,1.005592157E1
1.462287983E0,2.719500065E-1,4.507050037E0,8.907000542E0,9.986096109E0
1.464251228E0,3.109500110E-1,4.507050037E0,8.907000542E0,9.987234282E0
1.466214442E0,3.109500110E-1,4.468950272E0,8.907000542E0,9.970098550E0
1.468177657E0,2.719500065E-1,4.468950272E0,8.944950104E0,1.000287987E1
1.470140854E0,2.340000123E-1,4.507050037E0,8.907000542E0,9.985134686E0
1.472104089E0,2.719500065E-1,4.507050037E0,9.022050858E0,1.008884823E1
1.474067313E0,2.719500065E-1,4.507050037E0,8.944950104E0,1.001995954E1
1.476030545E0,2.719500065E-1,4.468950272E0,8.983950615E0,1.003777077E1
1.477993775E0,2.719500065E-1,4.468950272E0,8.944950104E0,1.000287987E1
1.479956862E0,3.490500152E-1,4.468950272E0,9.022050858E0,1.007426196E1
1.481919998E0,3.490500152E-1,4.468950272E0,8.944950104E0,1.000527285E1
1.483883244E0,3.109500110E-1,4.507050037E0,8.983950615E0,1.005592157E1
1.485846457E0,3.490500152E-1,4.431000233E0,8.983950615E0,1.002332119E1
1.487809871E0,3.109500110E-1,4.507050037E0,8.944950104E0,1.002109387E1
1.489773226E0,3.109500110E-1,4.468950272E0,8.944950104E0,1.000401613E1
1.491736751E0,3.109500110E-1,4.468950272E0,8.907000542E0,9.970098550E0
1.493700226E0,3.490500152E-1,4.468950272E0,8.944950104E0,1.000527285E1
1.495663281E0,2.719500065E-1,4.468950272E0,8.869050026E0,9.935065259E0
1.497626459E0,2.719500065E-1,4.431000233E0,8.944950104E0,9.985982787E0
1.499589833E0,3.490500152E-1,4.431000233E0,8.907000542E0,9.954408954E0
1.501553149E0,2.719500065E-1,4.431000233E0,8.944950104E0,9.985982787E0
1.503516202E0,3.490500152E-1,4.468950272E0,8.944950104E0,1.000527285E1
1.505479353E0,3.109500110E-1,4.468950272E0,8.869050026E0,9.936209277E0
1.507442912E0,3.490500152E-1,4.431000233E0,8.830050468E0,9.885615320E0
1.509406351E0,3.109500110E-1,4.468950272E0,8.869050026E0,9.936209277E0
1.511369367E0,3.490500152E-1,4.468950272E0,8.907000542E0,9.971359541E0
1.513332507E0,3.109500110E-1,4.431000233E0,8.869050026E0,9.919198624E0
1.515295739E0,3.109500110E-1,4.468950272E0,8.869050026E0,9.936209277E0
1.517258953E0,2.719500065E-1,4.468950272E0,8.830050468E0,9.900265886E0
1.519221827E0,3.109500110E-1,4.431000233E0,8.907000542E0,9.953145815E0
1.521184801E0,3.109500110E-1,4.468950272E0,8.869050026E0,9.936209277E0
1.523147895E0,3.109500110E-1,4.468950272E0,8.869050026E0,9.936209277E0
1.525110953E0,3.109500110E-1,4.468950272E0,8.869050026E0,9.936209277E0
1.527074213E0,3.109500110E-1,4.468950272E0,8.869050026E0,9.936209277E0
1.529037414E0,2.719500065E-1,4.468950272E0,8.869050026E0,9.935065259E0
1.531000830E0,3.109500110E-1,4.468950272E0,8.907000542E0,9.970098550E0
1.532964183E0,2.719500065E-1,4.545000076E0,8.869050026E0,9.969505046E0
1.534927214E0,3.109500110E-1,4.468950272E0,8.869050026E0,9.936209277E0
1.536890339E0,3.109500110E-1,4.507050037E0,8.944950104E0,1.002109387E1
1.538853572E0,3.109500110E-1,4.468950272E0,8.907000542E0,9.970098550E0
1.540816784E0,3.109500110E-1,4.431000233E0,8.907000542E0,9.953145815E0
1.542779839E0,2.719500065E-1,4.507050037E0,8.907000542E0,9.986096109E0
1.544742940E0,3.109500110E-1,4.507050037E0,8.869050026E0,9.953403353E0
1.546706237E0,2.719500065E-1,4.468950272E0,8.907000542E0,9.968958420E0
1.548669476E0,3.109500110E-1,4.468950272E0,8.907000542E0,9.970098550E0
1.550632841E0,3.109500110E-1,4.468950272E0,8.907000542E0,9.970098550E0
1.552596169E0,3.109500110E-1,4.468950272E0,8.944950104E0,1.000401613E1
1.554559608E0,3.490500152E-1,4.468950272E0,8.907000542E0,9.971359541E0
1.556523015E0,3.109500110E-1,4.507050037E0,8.907000542E0,9.987234282E0
1.558486352E0,2.719500065E-1,4.507050037E0,8.830050468E0,9.917522277E0
1.560449709E0,2.719500065E-1,4.468950272E0,8.830050468E0,9.900265886E0
1.562412783E0,3.109500110E-1,4.507050037E0,8.869050026E0,9.953403353E0
1.564375940E0,3.109500110E-1,4.507050037E0,8.869050026E0,9.953403353E0
1.566339498E0,3.109500110E-1,4.507050037E0,8.830050468E0,9.918668319E0
1.568302938E0,2.719500065E-1,4.507050037E0,8.830050468E0,9.917522277E0
1.570266134E0,2.719500065E-1,4.545000076E0,8.869050026E0,9.969505046E0
1.572229401E0,2.719500065E-1,4.468950272E0,8.830050468E0,9.900265886E0
1.574192831E0,2.719500065E-1,4.468950272E0,8.830050468E0,9.900265886E0
1.576156226E0,2.719500065E-1,4.468950272E0,8.830050468E0,9.900265886E0
1.578119744E0,2.719500065E-1,4.468950272E0,8.869050026E0,9.935065259E0
1.580083226E0,2.719500065E-1,4.468950272E0,8.869050026E0,9.935065259E0
1.582046641E0,2.719500065E-1,4.468950272E0,8.907000542E0,9.968958420E0
1.584010075E0,3.490500152E-1,4.431000233E0,8.907000542E0,9.954408954E0
1.585973298E0,2.719500065E-1,4.468950272E0,8.830050468E0,9.900265886E0
1.587936564E0,3.109500110E-1,4.431000233E0,8.907000542E0,9.953145815E0
1.589899923E0,3.109500110E-1,4.468950272E0,8.869050026E0,9.936209277E0
1.591863255E0,2.719500065E-1,4.431000233E0,8.869050026E0,9.918052643E0
1.593826694E0,3.490500152E-1,4.431000233E0,8.944950104E0,9.988379815E0
1.595790101E0,3.490500152E-1,4.431000233E0,8.907000542E0,9.954408954E0
1.597753498E0,3.870000243E-1,4.431000233E0,8.944950104E0,9.989777998E0
1.599716887E0,3.490500152E-1,4.431000233E0,8.944950104E0,9.988379815E0
1.601680226E0,2.719500065E-1,4.392000198E0,8.944950104E0,9.968738882E0
1.603643579E0,3.109500110E-1,4.431000233E0,8.869050026E0,9.919198624E0
1.605606789E0,3.109500110E-1,4.431000233E0,8.944950104E0,9.987120973E0
1.607570041E0,3.109500110E-1,4.431000233E0,8.907000542E0,9.953145815E0
1.609533482E0,3.109500110E-1,4.468950272E0,8.907000542E0,9.970098550E0
1.611496875E0,2.719500065E-1,4.431000233E0,8.907000542E0,9.952003744E0
1.613460214E0,2.719500065E-1,4.431000233E0,8.907000542E0,9.952003744E0
1.615423569E0,2.719500065E-1,4.468950272E0,8.907000542E0,9.968958420E0
1.617386824E0,2.340000123E-1,4.507050037E0,8.907000542E0,9.985134686E0
1.619350108E0,2.719500065E-1,4.468950272E0,8.907000542E0,9.968958420E0
1.621313474E0,2.719500065E-1,4.431000233E0,8.907000542E0,9.952003744E0
1.623276808E0,2.719500065E-1,4.468950272E0,8.869050026E0,9.935065259E0
1.625239887E0,2.719500065E-1,4.468950272E0,8.944950104E0,1.000287987E1
1.627203041E0,2.719500065E-1,4.468950272E0,8.869050026E0,9.935065259E0
1.629166238E0,2.340000123E-1,4.507050037E0,8.907000542E0,9.985134686E0
1.631129423E0,2.340000123E-1,4.468950272E0,8.907000542E0,9.967995344E0
1.633092463E0,1.960500032E-1,4.468950272E0,8.907000542E0,9.967176671E0
1.635055559E0,2.719500065E-1,4.468950272E0,8.907000542E0,9.968958420E0
1.637018992E0,2.340000123E-1,4.468950272E0,8.869050026E0,9.934098897E0
1.638982327E0,2.719500065E-1,4.507050037E0,8.907000542E0,9.986096109E0
1.640945541E0,2.719500065E-1,4.507050037E0,8.907000542E0,9.986096109E0
1.642908790E0,2.719500065E-1,4.507050037E0,8.869050026E0,9.952261311E0
1.644871874E0,2.719500065E-1,4.507050037E0,8.869050026E0,9.952261311E0
1.646835012E0,2.719500065E-1,4.468950272E0,8.907000542E0,9.968958420E0
1.648798078E0,2.719500065E-1,4.468950272E0,8.869050026E0,9.935065259E0
1.650761166E0,2.719500065E-1,4.431000233E0,8.830050468E0,9.883193368E0
1.652724375E0,3.109500110E-1,4.468950272E0,8.869050026E0,9.936209277E0
1.654687548E0,3.109500110E-1,4.468950272E0,8.907000542E0,9.970098550E0
1.656650620E0,2.719500065E-1,4.431000233E0,8.869050026E0,9.918052643E0
1.658613746E0,3.109500110E-1,4.431000233E0,8.869050026E0,9.919198624E0
1.660577129E0,3.109500110E-1,4.468950272E0,8.869050026E0,9.936209277E0
1.662540436E0,2.719500065E-1,4.431000233E0,8.869050026E0,9.918052643E0
1.664503655E0,3.490500152E-1,4.468950272E0,8.830050468E0,9.902683662E0
1.666466900E0,2.719500065E-1,4.431000233E0,8.830050468E0,9.883193368E0
1.668430129E0,3.109500110E-1,4.468950272E0,8.830050468E0,9.901413925E0
1.670393362E0,3.109500110E-1,4.507050037E0,8.830050468E0,9.918668319E0
1.672356817E0,3.109500110E-1,4.468950272E0,8.869050026E0,9.936209277E0
1.674320206E0,3.109500110E-1,4.431000233E0,8.791950226E0,9.850321911E0
1.676283410E0,3.109500110E-1,4.468950272E0,8.830050468E0,9.901413925E0
1.678246669E0,2.719500065E-1,4.507050037E0,8.869050026E0,9.952261311E0
1.680210005E0,3.109500110E-1,4.507050037E0,8.869050026E0,9.953403353E0
1.682173336E0,2.719500065E-1,4.507050037E0,8.791950226E0,9.883615008E0
1.684136370E0,3.490500152E-1,4.468950272E0,8.830050468E0,9.902683662E0
1.686099491E0,3.109500110E-1,4.507050037E0,8.830050468E0,9.918668319E0
1.688062785E0,2.719500065E-1,4.545000076E0,8.791950226E0,9.900978299E0
1.690026028E0,3.109500110E-1,4.545000076E0,8.791950226E0,9.902126255E0
1.691989218E0,2.719500065E-1,4.507050037E0,8.791950226E0,9.883615008E0
1.693952420E0,3.109500110E-1,4.507050037E0,8.791950226E0,9.884764981E0
1.695915654E0,3.109500110E-1,4.507050037E0,8.869050026E0,9.953403353E0
1.697878879E0,2.719500065E-1,4.507050037E0,8.830050468E0,9.917522277E0
1.699842652E0,2.719500065E-1,4.507050037E0,8.791950226E0,9.883615008E0
1.701806264E0,2.719500065E-1,4.507050037E0,8.791950226E0,9.883615008E0
1.703769464E0,2.719500065E-1,4.507050037E0,8.830050468E0,9.917522277E0
1.705732761E0,2.719500065E-1,4.545000076E0,8.830050468E0,9.934826308E0
1.707696159E0,2.340000123E-1,4.584000111E0,8.907000542E0,1.002010338E1
1.709659528E0,2.719500065E-1,4.545000076E0,8.869050026E0,9.969505046E0
1.711622916E0,2.340000123E-1,4.545000076E0,8.869050026E0,9.968542023E0
1.713586298E0,2.719500065E-1,4.507050037E0,8.907000542E0,9.986096109E0
1.715549504E0,3.109500110E-1,4.507050037E0,8.869050026E0,9.953403353E0
1.717512761E0,2.719500065E-1,4.507050037E0,8.869050026E0,9.952261311E0
1.719475672E0,2.719500065E-1,4.468950272E0,8.907000542E0,9.968958420E0
1.721438684E0,2.719500065E-1,4.507050037E0,8.944950104E0,1.001995954E1
1.723401771E0,2.340000123E-1,4.507050037E0,8.944950104E0,1.001900137E1
1.725364836E0,3.109500110E-1,4.468950272E0,8.907000542E0,9.970098550E0
1.727327910E0,3.490500152E-1,4.468950272E0,8.907000542E0,9.971359541E0
1.729290985E0,2.719500065E-1,4.507050037E0,8.907000542E0,9.986096109E0
1.731253883E0,2.719500065E-1,4.468950272E0,8.907000542E0,9.968958420E0
1.733216833E0,3.109500110E-1,4.468950272E0,8.983950615E0,1.003890308E1
1.735179931E0,3.109500110E-1,4.431000233E0,8.944950104E0,9.987120973E0
1.737142985E0,3.109500110E-1,4.468950272E0,8.944950104E0,1.000401613E1
1.739106196E0,2.719500065E-1,4.507050037E0,8.944950104E0,1.001995954E1
1.741069365E0,2.719500065E-1,4.468950272E0,8.944950104E0,1.000287987E1
1.743032427E0,2.719500065E-1,4.431000233E0,8.907000542E0,9.952003744E0
1.744995521E0,2.719500065E-1,4.431000233E0,8.944950104E0,9.985982787E0
1.746958594E0,2.719500065E-1,4.392000198E0,8.944950104E0,9.968738882E0
1.748921674E0,2.719500065E-1,4.392000198E0,8.944950104E0,9.968738882E0
1.750884790E0,2.719500065E-1,4.392000198E0,8.907000542E0,9.934700861E0
1.752847898E0,2.719500065E-1,4.354050159E0,8.907000542E0,9.917982065E0
1.754810926E0,3.109500110E-1,4.431000233E0,8.944950104E0,9.987120973E0
1.756773977E0,2.719500065E-1,4.431000233E0,8.907000542E0,9.952003744E0
1.758737418E0,2.719500065E-1,4.392000198E0,8.944950104E0,9.968738882E0
1.760700744E0,3.109500110E-1,4.392000198E0,8.983950615E0,1.000488502E1
1.762664139E0,3.109500110E-1,4.431000233E0,9.022050858E0,1.005623462E1
1.764627514E0,3.109500110E-1,4.392000198E0,8.983950615E0,1.000488502E1
1.766590721E0,3.109500110E-1,4.468950272E0,8.983950615E0,1.003890308E1
1.768553977E0,3.109500110E-1,4.392000198E0,8.944950104E0,9.969879037E0
1.770517068E0,3.109500110E-1,4.392000198E0,8.983950615E0,1.000488502E1
1.772480208E0,3.109500110E-1,4.392000198E0,9.022050858E0,1.003911138E1
1.774443578E0,2.719500065E-1,4.431000233E0,8.983950615E0,1.002093252E1
1.776406888E0,3.109500110E-1,4.431000233E0,9.022050858E0,1.005623462E1
1.778370646E0,2.719500065E-1,4.392000198E0,8.983950615E0,1.000374886E1
1.780334273E0,3.490500152E-1,4.431000233E0,8.944950104E0,9.988379815E0
1.782297437E0,2.719500065E-1,4.431000233E0,8.983950615E0,1.002093252E1
1.784260736E0,2.719500065E-1,4.431000233E0,8.907000542E0,9.952003744E0
1.786224121E0,3.109500110E-1,4.431000233E0,8.944950104E0,9.987120973E0
1.788187490E0,3.109500110E-1,4.431000233E0,8.907000542E0,9.953145815E0
1.790150563E0,3.490500152E-1,4.468950272E0,8.907000542E0,9.971359541E0
1.792113722E0,3.109500110E-1,4.431000233E0,8.944950104E0,9.987120973E0
1.794076964E0,3.490500152E-1,4.468950272E0,8.907000542E0,9.971359541E0
1.796040182E0,2.719500065E-1,4.431000233E0,8.869050026E0,9.918052643E0
1.798003236E0,2.719500065E-1,4.431000233E0,8.869050026E0,9.918052643E0
1.799966338E0,2.719500065E-1,4.468950272E0,8.830050468E0,9.900265886E0
1.801929411E0,2.719500065E-1,4.468950272E0,8.869050026E0,9.935065259E0
1.803892492E0,3.109500110E-1,4.507050037E0,8.830050468E0,9.918668319E0
1.805855747E0,2.719500065E-1,4.468950272E0,8.907000542E0,9.968958420E0
1.807818951E0,3.109500110E-1,4.507050037E0,8.907000542E0,9.987234282E0
1.809782552E0,2.719500065E-1,4.507050037E0,8.869050026E0,9.952261311E0
1.811746033E0,2.719500065E-1,4.545000076E0,8.869050026E0,9.969505046E0
1.813709536E0,2.719500065E-1,4.507050037E0,8.869050026E0,9.952261311E0
1.815673033E0,2.340000123E-1,4.545000076E0,8.907000542E0,1.000232175E1
1.817636084E0,3.109500110E-1,4.507050037E0,8.944950104E0,1.002109387E1
1.819599266E0,2.719500065E-1,4.507050037E0,8.869050026E0,9.952261311E0
1.821562693E0,3.109500110E-1,4.507050037E0,8.869050026E0,9.953403353E0
1.823526042E0,2.340000123E-1,4.507050037E0,8.944950104E0,1.001900137E1
1.825489254E0,2.340000123E-1,4.545000076E0,8.944950104E0,1.003613043E1
1.827452506E0,2.719500065E-1,4.545000076E0,8.907000542E0,1.000328152E1
1.829415688E0,2.340000123E-1,4.545000076E0,8.907000542E0,1.000232175E1
1.831378890E0,2.719500065E-1,4.468950272E0,8.907000542E0,9.968958420E0
1.833342135E0,2.719500065E-1,4.507050037E0,8.944950104E0,1.001995954E1
1.835305360E0,3.109500110E-1,4.507050037E0,8.869050026E0,9.953403353E0
1.837268413E0,3.109500110E-1,4.507050037E0,8.944950104E0,1.002109387E1
1.839231516E0,2.719500065E-1,4.507050037E0,8.944950104E0,1.001995954E1
1.841194633E0,2.719500065E-1,4.468950272E0,8.869050026E0,9.935065259E0
1.843157745E0,3.109500110E-1,4.507050037E0,8.944950104E0,1.002109387E1
1.845121317E0,3.109500110E-1,4.507050037E0,8.869050026E0,9.953403353E0
1.847084750E0,3.109500110E-1,4.545000076E0,8.907000542E0,1.000441774E1
1.849048307E0,3.109500110E-1,4.507050037E0,8.907000542E0,9.987234282E0
1.851011827E0,3.109500110E-1,4.468950272E0,8.830050468E0,9.901413925E0
1.852975234E0,2.719500065E-1,4.431000233E0,8.869050026E0,9.918052643E0
1.854938675E0,3.109500110E-1,4.468950272E0,8.869050026E0,9.936209277E0
1.856901689E0,2.719500065E-1,4.507050037E0,8.869050026E0,9.952261311E0
1.858864829E0,2.340000123E-1,4.507050037E0,8.869050026E0,9.951296619E0
1.860828029E0,2.719500065E-1,4.507050037E0,8.830050468E0,9.917522277E0
1.862791211E0,2.719500065E-1,4.507050037E0,8.907000542E0,9.986096109E0
1.864754630E0,3.109500110E-1,4.507050037E0,8.869050026E0,9.953403353E0
1.866717980E0,2.719500065E-1,4.468950272E0,8.791950226E0,9.866299312E0
1.868681235E0,3.109500110E-1,4.468950272E0,8.869050026E0,9.936209277E0
1.870644487E0,2.340000123E-1,4.468950272E0,8.869050026E0,9.934098897E0
1.872607758E0,2.719500065E-1,4.468950272E0,8.830050468E0,9.900265886E0
1.874571023E0,2.719500065E-1,4.468950272E0,8.830050468E0,9.900265886E0
1.876534204E0,3.109500110E-1,4.468950272E0,8.869050026E0,9.936209277E0
1.878497410E0,2.719500065E-1,4.468950272E0,8.907000542E0,9.968958420E0
1.880460639E0,3.109500110E-1,4.468950272E0,8.869050026E0,9.936209277E0
1.882423865E0,2.719500065E-1,4.507050037E0,8.907000542E0,9.986096109E0
1.884387502E0,3.109500110E-1,4.507050037E0,8.944950104E0,1.002109387E1
1.886351018E0,3.109500110E-1,4.507050037E0,8.907000542E0,9.987234282E0
1.888314382E0,2.719500065E-1,4.507050037E0,8.869050026E0,9.952261311E0
1.890277790E0,2.719500065E-1,4.507050037E0,8.907000542E0,9.986096109E0
1.892241116E0,3.109500110E-1,4.468950272E0,8.869050026E0,9.936209277E0
1.894204473E0,3.109500110E-1,4.507050037E0,8.907000542E0,9.987234282E0
1.896167547E0,3.490500152E-1,4.468950272E0,8.830050468E0,9.902683662E0
1.898130704E0,3.109500110E-1,4.507050037E0,8.869050026E0,9.953403353E0
1.900093946E0,3.490500152E-1,4.468950272E0,8.869050026E0,9.937474569E0
1.902057163E0,2.719500065E-1,4.468950272E0,8.869050026E0,9.935065259E0
1.904020395E0,3.109500110E-1,4.468950272E0,8.830050468E0,9.901413925E0
1.905983624E0,3.109500110E-1,4.431000233E0,8.830050468E0,9.884343390E0
1.907946676E0,3.109500110E-1,4.507050037E0,8.791950226E0,9.884764981E0
1.909909780E0,2.719500065E-1,4.468950272E0,8.791950226E0,9.866299312E0
1.911873166E0,3.490500152E-1,4.468950272E0,8.830050468E0,9.902683662E0
1.913836470E0,3.109500110E-1,4.431000233E0,8.869050026E0,9.919198624E0
1.915799929E0,3.490500152E-1,4.468950272E0,8.869050026E0,9.937474569E0
1.917763331E0,3.109500110E-1,4.468950272E0,8.869050026E0,9.936209277E0
1.919726714E0,3.109500110E-1,4.468950272E0,8.869050026E0,9.936209277E0
1.921690102E0,2.719500065E-1,4.431000233E0,8.869050026E0,9.918052643E0
1.923653665E0,3.109500110E-1,4.468950272E0,8.944950104E0,1.000401613E1
1.925617177E0,3.490500152E-1,4.468950272E0,8.869050026E0,9.937474569E0
1.927580850E0,2.719500065E-1,4.431000233E0,8.907000542E0,9.952003744E0
1.929544480E0,3.109500110E-1,4.431000233E0,8.907000542E0,9.953145815E0
1.931507689E0,3.870000243E-1,4.431000233E0,8.907000542E0,9.955811907E0
1.933471021E0,3.490500152E-1,4.431000233E0,8.907000542E0,9.954408954E0
1.935434189E0,3.109500110E-1,4.431000233E0,8.944950104E0,9.987120973E0
1.937397405E0,3.109500110E-1,4.431000233E0,8.907000542E0,9.953145815E0
1.939360651E0,3.870000243E-1,4.431000233E0,8.907000542E0,9.955811907E0
1.941323879E0,3.109500110E-1,4.431000233E0,8.944950104E0,9.987120973E0
1.943286976E0,3.870000243E-1,4.392000198E0,8.830050468E0,9.869611240E0
1.945250112E0,3.870000243E-1,4.431000233E0,8.869050026E0,9.921873837E0
1.947213313E0,3.490500152E-1,4.431000233E0,8.869050026E0,9.920466085E0
1.949176494E0,3.490500152E-1,4.431000233E0,8.869050026E0,9.920466085E0
1.951139614E0,3.870000243E-1,4.431000233E0,8.907000542E0,9.955811907E0
1.953102742E0,3.490500152E-1,4.431000233E0,8.869050026E0,9.920466085E0
1.955065810E0,3.109500110E-1,4.431000233E0,8.830050468E0,9.884343390E0
1.957028896E0,3.490500152E-1,4.468950272E0,8.907000542E0,9.971359541E0
1.958992105E0,3.490500152E-1,4.468950272E0,8.830050468E0,9.902683662E0
1.960955278E0,3.870000243E-1,4.468950272E0,8.830050468E0,9.904093943E0
1.962918495E0,3.109500110E-1,4.468950272E0,8.869050026E0,9.936209277E0
1.964881716E0,3.490500152E-1,4.468950272E0,8.869050026E0,9.937474569E0
1.966844993E0,3.490500152E-1,4.507050037E0,8.830050468E0,9.919935848E0
1.968808254E0,3.490500152E-1,4.507050037E0,8.869050026E0,9.954666459E0
1.970771615E0,3.109500110E-1,4.468950272E0,8.907000542E0,9.970098550E0
1.972734947E0,3.490500152E-1,4.507050037E0,8.869050026E0,9.954666459E0
1.974698395E0,3.109500110E-1,4.468950272E0,8.869050026E0,9.936209277E0
1.976661802E0,3.490500152E-1,4.507050037E0,8.830050468E0,9.919935848E0
1.978624959E0,2.719500065E-1,4.507050037E0,8.907000542E0,9.986096109E0
1.980588189E0,2.719500065E-1,4.507050037E0,8.869050026E0,9.952261311E0
1.982551104E0,3.109500110E-1,4.507050037E0,8.907000542E0,9.987234282E0
1.984514112E0,3.109500110E-1,4.468950272E0,8.944950104E0,1.000401613E1
1.986477204E0,3.490500152E-1,4.468950272E0,8.869050026E0,9.937474569E0
1.988440268E0,3.109500110E-1,4.545000076E0,8.907000542E0,1.000441774E1
1.990403483E0,3.109500110E-1,4.507050037E0,8.944950104E0,1.002109387E1
1.992366653E0,2.719500065E-1,4.468950272E0,8.907000542E0,9.968958420E0
1.994329895E0,2.719500065E-1,4.507050037E0,8.907000542E0,9.986096109E0
1.996293115E0,3.109500110E-1,4.507050037E0,8.907000542E0,9.987234282E0
1.998255983E0,3.109500110E-1,4.431000233E0,8.944950104E0,9.987120973E0
2.000218958E0,2.719500065E-1,4.507050037E0,8.944950104E0,1.001995954E1
2.002182231E0,2.719500065E-1,4.468950272E0,8.907000542E0,9.968958420E0
2.004145417E0,3.109500110E-1,4.468950272E0,8.907000542E0,9.970098550E0
2.006108521E0,2.719500065E-1,4.468950272E0,8.983950615E0,1.003777077E1
2.008071650E0,2.340000123E-1,4.468950272E0,8.907000542E0,9.967995344E0
2.010035101E0,2.340000123E-1,4.431000233E0,8.944950104E0,9.985021353E0
2.011998441E0,2.719500065E-1,4.431000233E0,8.944950104E0,9.985982787E0
2.013961969E0,2.340000123E-1,4.468950272E0,8.944950104E0,1.000192006E1
2.015925441E0,2.340000123E-1,4.468950272E0,9.022050858E0,1.007093214E1
2.017888451E0,2.340000123E-1,4.468950272E0,9.022050858E0,1.007093214E1
2.019851597E0,2.340000123E-1,4.468950272E0,8.983950615E0,1.003681429E1
2.021814841E0,1.960500032E-1,4.431000233E0,9.022050858E0,1.005333777E1
2.023778057E0,2.340000123E-1,4.431000233E0,9.022050858E0,1.005414943E1
2.025741335E0,1.960500032E-1,4.468950272E0,8.983950615E0,1.003600123E1
2.027704595E0,1.960500032E-1,4.507050037E0,9.022050858E0,1.008708765E1
2.029667777E0,2.340000123E-1,4.507050037E0,9.060000420E0,1.012185080E1
2.031630982E0,2.340000123E-1,4.507050037E0,8.983950615E0,1.005383632E1
2.033594098E0,2.340000123E-1,4.431000233E0,9.060000420E0,1.008821722E1
2.035557229E0,2.340000123E-1,4.468950272E0,9.022050858E0,1.007093214E1
2.037520656E0,2.340000123E-1,4.468950272E0,9.022050858E0,1.007093214E1
2.039483996E0,2.340000123E-1,4.507050037E0,9.022050858E0,1.008789660E1
2.041447343E0,2.719500065E-1,4.507050037E0,8.944950104E0,1.001995954E1
2.043410688E0,2.340000123E-1,4.507050037E0,8.944950104E0,1.001900137E1
2.045373570E0,2.340000123E-1,4.431000233E0,8.944950104E0,9.985021353E0
2.047336598E0,2.340000123E-1,4.431000233E0,8.944950104E0,9.985021353E0
2.049300043E0,2.340000123E-1,4.431000233E0,8.907000542E0,9.951039027E0
2.051263366E0,2.340000123E-1,4.468950272E0,8.944950104E0,1.000192006E1
2.053226761E0,2.719500065E-1,4.507050037E0,8.944950104E0,1.001995954E1
2.055190135E0,2.340000123E-1,4.431000233E0,8.907000542E0,9.951039027E0
2.057153468E0,2.719500065E-1,4.468950272E0,8.907000542E0,9.968958420E0
2.059116820E0,2.719500065E-1,4.431000233E0,8.869050026E0,9.918052643E0
2.061080209E0,2.340000123E-1,4.468950272E0,8.907000542E0,9.967995344E0
2.063043587E0,2.719500065E-1,4.468950272E0,8.907000542E0,9.968958420E0
2.065006794E0,2.719500065E-1,4.507050037E0,8.907000542E0,9.986096109E0
2.066970051E0,1.960500032E-1,4.468950272E0,8.907000542E0,9.967176671E0
2.068933291E0,2.340000123E-1,4.507050037E0,8.869050026E0,9.951296619E0
2.070896526E0,2.340000123E-1,4.431000233E0,8.869050026E0,9.917084624E0
2.072859576E0,3.109500110E-1,4.468950272E0,8.907000542E0,9.970098550E0
2.074822680E0,2.340000123E-1,4.507050037E0,8.869050026E0,9.951296619E0
2.076785796E0,2.340000123E-1,4.507050037E0,8.907000542E0,9.985134686E0
2.078748909E0,2.340000123E-1,4.468950272E0,8.869050026E0,9.934098897E0
2.080712350E0,2.719500065E-1,4.507050037E0,8.830050468E0,9.917522277E0
2.082675688E0,3.109500110E-1,4.507050037E0,8.869050026E0,9.953403353E0
2.084638721E0,2.719500065E-1,4.468950272E0,8.869050026E0,9.935065259E0
2.086601844E0,3.109500110E-1,4.507050037E0,8.869050026E0,9.953403353E0
2.088565227E0,3.109500110E-1,4.507050037E0,8.830050468E0,9.918668319E0
2.090528534E0,3.490500152E-1,4.468950272E0,8.830050468E0,9.902683662E0
2.092491428E0,3.109500110E-1,4.468950272E0,8.791950226E0,9.867451303E0
2.094454450E0,3.109500110E-1,4.468950272E0,8.791950226E0,9.867451303E0
2.096417490E0,3.490500152E-1,4.431000233E0,8.830050468E0,9.885615320E0
2.098380524E0,2.719500065E-1,4.468950272E0,8.791950226E0,9.866299312E0
2.100343430E0,3.490500152E-1,4.431000233E0,8.830050468E0,9.885615320E0
2.102306373E0,3.490500152E-1,4.468950272E0,8.830050468E0,9.902683662E0
2.104269297E0,2.719500065E-1,4.431000233E0,8.791950226E0,9.849167916E0
2.106232224E0,3.490500152E-1,4.431000233E0,8.791950226E0,9.851598233E0
2.108195326E0,3.490500152E-1,4.507050037E0,8.830050468E0,9.919935848E0
2.110158376E0,3.109500110E-1,4.431000233E0,8.830050468E0,9.884343390E0
2.112121458E0,3.490500152E-1,4.468950272E0,8.830050468E0,9.902683662E0
2.114084530E0,3.109500110E-1,4.468950272E0,8.791950226E0,9.867451303E0
2.116047443E0,3.490500152E-1,4.507050037E0,8.830050468E0,9.919935848E0
2.118010392E0,3.109500110E-1,4.507050037E0,8.830050468E0,9.918668319E0
2.119973715E0,3.109500110E-1,4.545000076E0,8.791950226E0,9.902126255E0
2.121936928E0,3.490500152E-1,4.507050037E0,8.791950226E0,9.886036856E0
2.123900162E0,3.109500110E-1,4.507050037E0,8.754000664E0,9.851026219E0
2.125863390E0,3.109500110E-1,4.545000076E0,8.791950226E0,9.902126255E0
2.127826428E0,3.490500152E-1,4.507050037E0,8.791950226E0,9.886036856E0
2.129789532E0,3.109500110E-1,4.545000076E0,8.830050468E0,9.935970354E0
2.131752738E0,3.109500110E-1,4.468950272E0,8.830050468E0,9.901413925E0
2.133715914E0,3.490500152E-1,4.507050037E0,8.830050468E0,9.919935848E0
2.135678975E0,3.109500110E-1,4.507050037E0,8.869050026E0,9.953403353E0
2.137642070E0,3.109500110E-1,4.507050037E0,8.907000542E0,9.987234282E0
2.139604963E0,3.109500110E-1,4.468950272E0,8.907000542E0,9.970098550E0
2.141567916E0,3.109500110E-1,4.507050037E0,8.869050026E0,9.953403353E0
2.143531013E0,3.490500152E-1,4.468950272E0,8.944950104E0,1.000527285E1
2.145494068E0,3.490500152E-1,4.468950272E0,8.944950104E0,1.000527285E1
2.147457374E0,3.109500110E-1,4.468950272E0,8.869050026E0,9.936209277E0
2.149420607E0,2.719500065E-1,4.468950272E0,8.907000542E0,9.968958420E0
2.151383847E0,3.109500110E-1,4.468950272E0,8.944950104E0,1.000401613E1
2.153347079E0,3.870000243E-1,4.507050037E0,8.983950615E0,1.005856042E1
2.155310489E0,3.870000243E-1,4.468950272E0,8.944950104E0,1.000666867E1
2.157273846E0,2.719500065E-1,4.507050037E0,8.944950104E0,1.001995954E1
2.159237056E0,3.109500110E-1,4.507050037E0,8.907000542E0,9.987234282E0
2.161200310E0,3.109500110E-1,4.468950272E0,8.907000542E0,9.970098550E0
2.163163882E0,3.490500152E-1,4.431000233E0,8.983950615E0,1.002332119E1
2.165127371E0,3.109500110E-1,4.468950272E0,8.983950615E0,1.003890308E1
2.167090873E0,3.109500110E-1,4.468950272E0,8.944950104E0,1.000401613E1
2.169054371E0,3.109500110E-1,4.431000233E0,8.944950104E0,9.987120973E0
2.171017917E0,3.109500110E-1,4.431000233E0,8.944950104E0,9.987120973E0
2.172981448E0,3.109500110E-1,4.468950272E0,8.983950615E0,1.003890308E1
2.174944849E0,3.109500110E-1,4.468950272E0,8.944950104E0,1.000401613E1
2.176908291E0,3.109500110E-1,4.392000198E0,8.983950615E0,1.000488502E1
2.178871666E0,2.719500065E-1,4.431000233E0,8.983950615E0,1.002093252E1
2.180835060E0,3.490500152E-1,4.431000233E0,8.944950104E0,9.988379815E0
2.182798218E0,3.109500110E-1,4.431000233E0,8.944950104E0,9.987120973E0
2.184761445E0,2.719500065E-1,4.431000233E0,8.944950104E0,9.985982787E0
2.186724906E0,2.719500065E-1,4.431000233E0,8.907000542E0,9.952003744E0
2.188688294E0,2.719500065E-1,4.392000198E0,8.983950615E0,1.000374886E1
2.190652039E0,3.109500110E-1,4.468950272E0,8.983950615E0,1.003890308E1
2.192615679E0,3.109500110E-1,4.431000233E0,8.983950615E0,1.002206673E1
2.194579335E0,3.109500110E-1,4.431000233E0,8.944950104E0,9.987120973E0
2.196542986E0,3.109500110E-1,4.468950272E0,9.022050858E0,1.007301385E1
2.198506006E0,2.719500065E-1,4.431000233E0,8.983950615E0,1.002093252E1
2.200469214E0,3.109500110E-1,4.431000233E0,8.983950615E0,1.002206673E1
2.202432763E0,2.719500065E-1,4.468950272E0,8.983950615E0,1.003777077E1
2.204396212E0,2.719500065E-1,4.431000233E0,8.907000542E0,9.952003744E0
2.206359766E0,3.109500110E-1,4.468950272E0,8.944950104E0,1.000401613E1
2.208323289E0,3.109500110E-1,4.431000233E0,8.944950104E0,9.987120973E0
2.210286696E0,3.490500152E-1,4.431000233E0,8.983950615E0,1.002332119E1
2.212250137E0,3.109500110E-1,4.431000233E0,8.944950104E0,9.987120973E0
2.214213691E0,3.490500152E-1,4.468950272E0,8.944950104E0,1.000527285E1
2.216177212E0,3.109500110E-1,4.468950272E0,8.944950104E0,1.000401613E1
2.218140754E0,2.719500065E-1,4.507050037E0,8.944950104E0,1.001995954E1
2.220104289E0,2.719500065E-1,4.468950272E0,8.944950104E0,1.000287987E1
2.222067579E0,2.719500065E-1,4.468950272E0,8.944950104E0,1.000287987E1
2.224030958E0,3.490500152E-1,4.507050037E0,8.944950104E0,1.002234844E1
2.225994523E0,3.109500110E-1,4.468950272E0,8.907000542E0,9.970098550E0
2.227958033E0,3.109500110E-1,4.468950272E0,8.907000542E0,9.970098550E0
2.229921398E0,3.109500110E-1,4.431000233E0,8.869050026E0,9.919198624E0
2.231884805E0,3.109500110E-1,4.468950272E0,8.869050026E0,9.936209277E0
2.233848359E0,2.719500065E-1,4.507050037E0,8.869050026E0,9.952261311E0
2.235811874E0,3.490500152E-1,4.468950272E0,8.869050026E0,9.937474569E0
2.237775238E0,2.719500065E-1,4.468950272E0,8.869050026E0,9.935065259E0
2.239738646E0,2.719500065E-1,4.468950272E0,8.944950104E0,1.000287987E1
2.241702026E0,2.719500065E-1,4.468950272E0,8.944950104E0,1.000287987E1
2.243665415E0,3.109500110E-1,4.468950272E0,8.944950104E0,1.000401613E1
2.245628964E0,3.490500152E-1,4.507050037E0,8.944950104E0,1.002234844E1
2.247592476E0,2.719500065E-1,4.468950272E0,8.944950104E0,1.000287987E1
2.249555525E0,3.490500152E-1,4.468950272E0,8.869050026E0,9.937474569E0
2.251518709E0,3.109500110E-1,4.507050037E0,8.907000542E0,9.987234282E0
2.253482082E0,3.109500110E-1,4.431000233E0,8.907000542E0,9.953145815E0
2.255445399E0,3.490500152E-1,4.545000076E0,8.907000542E0,1.000567440E1
2.257408849E0,3.109500110E-1,4.507050037E0,8.944950104E0,1.002109387E1
2.259372254E0,3.490500152E-1,4.507050037E0,8.944950104E0,1.002234844E1
2.261335951E0,3.109500110E-1,4.468950272E0,8.907000542E0,9.970098550E0
2.263299562E0,3.109500110E-1,4.468950272E0,8.944950104E0,1.000401613E1
2.265263089E0,3.109500110E-1,4.431000233E0,8.907000542E0,9.953145815E0
2.267226641E0,3.490500152E-1,4.468950272E0,8.869050026E0,9.937474569E0
2.269189827E0,3.490500152E-1,4.468950272E0,8.869050026E0,9.937474569E0
2.271153145E0,3.109500110E-1,4.468950272E0,8.907000542E0,9.970098550E0
2.273116495E0,3.109500110E-1,4.507050037E0,8.869050026E0,9.953403353E0
2.275079836E0,3.490500152E-1,4.431000233E0,8.830050468E0,9.885615320E0
2.277043228E0,3.490500152E-1,4.468950272E0,8.830050468E0,9.902683662E0
2.279006605E0,2.719500065E-1,4.468950272E0,8.830050468E0,9.900265886E0
2.280970162E0,3.109500110E-1,4.507050037E0,8.907000542E0,9.987234282E0
2.282933673E0,3.490500152E-1,4.507050037E0,8.907000542E0,9.988493110E0
2.284896902E0,2.719500065E-1,4.507050037E0,8.869050026E0,9.952261311E0
2.286860213E0,3.109500110E-1,4.507050037E0,8.907000542E0,9.987234282E0
2.288823564E0,3.109500110E-1,4.507050037E0,8.907000542E0,9.987234282E0
2.290786903E0,3.109500110E-1,4.468950272E0,8.907000542E0,9.970098550E0
2.292750112E0,3.109500110E-1,4.507050037E0,8.944950104E0,1.002109387E1
2.294713362E0,3.109500110E-1,4.468950272E0,8.944950104E0,1.000401613E1
2.296676814E0,2.719500065E-1,4.468950272E0,8.907000542E0,9.968958420E0
2.298640206E0,3.109500110E-1,4.468950272E0,8.907000542E0,9.970098550E0
2.300603590E0,2.719500065E-1,4.468950272E0,8.869050026E0,9.935065259E0
2.302566977E0,2.719500065E-1,4.468950272E0,8.907000542E0,9.968958420E0
2.304530509E0,3.109500110E-1,4.468950272E0,8.944950104E0,1.000401613E1
2.306493989E0,3.109500110E-1,4.468950272E0,8.869050026E0,9.936209277E0
2.308457404E0,3.109500110E-1,4.468950272E0,8.830050468E0,9.901413925E0
2.310420838E0,2.719500065E-1,4.431000233E0,8.869050026E0,9.918052643E0
2.312384348E0,3.109500110E-1,4.468950272E0,8.907000542E0,9.970098550E0
2.314347836E0,2.719500065E-1,4.468950272E0,8.869050026E0,9.935065259E0
2.316311223E0,2.719500065E-1,4.468950272E0,8.869050026E0,9.935065259E0
2.318274626E0,2.340000123E-1,4.431000233E0,8.830050468E0,9.882221934E0
2.320238051E0,2.719500065E-1,4.468950272E0,8.830050468E0,9.900265886E0
2.322201470E0,2.719500065E-1,4.468950272E0,8.830050468E0,9.900265886E0
2.324164670E0,2.719500065E-1,4.468950272E0,8.869050026E0,9.935065259E0
2.326127934E0,2.340000123E-1,4.431000233E0,8.830050468E0,9.882221934E0
2.328091488E0,2.719500065E-1,4.507050037E0,8.869050026E0,9.952261311E0
2.330054947E0,2.719500065E-1,4.468950272E0,8.869050026E0,9.935065259E0
2.332018679E0,2.719500065E-1,4.507050037E0,8.869050026E0,9.952261311E0
2.333982331E0,2.719500065E-1,4.468950272E0,8.907000542E0,9.968958420E0
2.335946031E0,3.490500152E-1,4.468950272E0,8.830050468E0,9.902683662E0
2.337909716E0,3.109500110E-1,4.468950272E0,8.944950104E0,1.000401613E1
2.339873444E0,3.109500110E-1,4.507050037E0,8.907000542E0,9.987234282E0
2.341837167E0,3.109500110E-1,4.468950272E0,8.907000542E0,9.970098550E0
2.343800675E0,3.490500152E-1,4.468950272E0,8.907000542E0,9.971359541E0
2.345764246E0,3.490500152E-1,4.468950272E0,8.907000542E0,9.971359541E0
2.347727779E0,3.490500152E-1,4.468950272E0,8.907000542E0,9.971359541E0
2.349691323E0,3.109500110E-1,4.431000233E0,8.907000542E0,9.953145815E0
2.351654806E0,3.490500152E-1,4.507050037E0,8.869050026E0,9.954666459E0
2.353618314E0,3.490500152E-1,4.468950272E0,8.907000542E0,9.971359541E0
2.355582082E0,3.109500110E-1,4.507050037E0,8.907000542E0,9.987234282E0
2.357545774E0,3.490500152E-1,4.507050037E0,8.869050026E0,9.954666459E0
2.359509062E0,3.109500110E-1,4.507050037E0,8.907000542E0,9.987234282E0
2.361472468E0,3.490500152E-1,4.468950272E0,8.907000542E0,9.971359541E0
2.363436077E0,3.109500110E-1,4.468950272E0,8.830050468E0,9.901413925E0
2.365399624E0,3.109500110E-1,4.431000233E0,8.869050026E0,9.919198624E0
2.367363162E0,3.490500152E-1,4.431000233E0,8.869050026E0,9.920466085E0
2.369326703E0,2.719500065E-1,4.468950272E0,8.869050026E0,9.935065259E0
2.371290015E0,3.490500152E-1,4.468950272E0,8.830050468E0,9.902683662E0
2.373253395E0,3.490500152E-1,4.468950272E0,8.791950226E0,9.868725410E0
2.375216586E0,3.109500110E-1,4.431000233E0,8.869050026E0,9.919198624E0
2.377179843E0,3.109500110E-1,4.431000233E0,8.869050026E0,9.919198624E0
2.379143293E0,3.490500152E-1,4.431000233E0,8.869050026E0,9.920466085E0
2.381106687E0,3.490500152E-1,4.431000233E0,8.907000542E0,9.954408954E0
2.383070071E0,3.490500152E-1,4.431000233E0,8.907000542E0,9.954408954E0
2.385033458E0,3.490500152E-1,4.431000233E0,8.907000542E0,9.954408954E0
2.386996787E0,3.109500110E-1,4.431000233E0,8.907000542E0,9.953145815E0
2.388960140E0,3.490500152E-1,4.431000233E0,8.944950104E0,9.988379815E0
2.390923575E0,3.870000243E-1,4.431000233E0,8.944950104E0,9.989777998E0
2.392886985E0,3.490500152E-1,4.431000233E0,8.907000542E0,9.954408954E0
2.394850321E0,3.490500152E-1,4.392000198E0,8.907000542E0,9.937110259E0
2.396813679E0,3.490500152E-1,4.392000198E0,8.907000542E0,9.937110259E0
2.398776919E0,3.870000243E-1,4.392000198E0,8.907000542E0,9.938515654E0
2.400740203E0,3.109500110E-1,4.431000233E0,8.944950104E0,9.987120973E0
2.402703739E0,3.870000243E-1,4.431000233E0,8.944950104E0,9.989777998E0
2.404667201E0,3.109500110E-1,4.431000233E0,8.907000542E0,9.953145815E0
2.406630619E0,3.490500152E-1,4.431000233E0,8.907000542E0,9.954408954E0
2.408594050E0,3.109500110E-1,4.431000233E0,8.944950104E0,9.987120973E0
2.410557406E0,3.109500110E-1,4.392000198E0,8.944950104E0,9.969879037E0
2.412520767E0,3.490500152E-1,4.468950272E0,8.944950104E0,1.000527285E1
2.414484335E0,3.109500110E-1,4.431000233E0,8.907000542E0,9.953145815E0
2.416447842E0,3.109500110E-1,4.431000233E0,8.907000542E0,9.953145815E0
2.418411207E0,2.719500065E-1,4.507050037E0,8.907000542E0,9.986096109E0
2.420374613E0,2.719500065E-1,4.468950272E0,8.907000542E0,9.968958420E0
2.422338052E0,3.109500110E-1,4.507050037E0,8.907000542E0,9.987234282E0
2.424301471E0,2.719500065E-1,4.507050037E0,8.869050026E0,9.952261311E0
2.426264851E0,2.719500065E-1,4.507050037E0,8.907000542E0,9.986096109E0
2.428228243E0,2.719500065E-1,4.468950272E0,8.869050026E0,9.935065259E0
2.430191626E0,2.719500065E-1,4.507050037E0,8.869050026E0,9.952261311E0
2.432155012E0,2.719500065E-1,4.507050037E0,8.869050026E0,9.952261311E0
2.434118031E0,2.719500065E-1,4.468950272E0,8.830050468E0,9.900265886E0
2.436081161E0,2.719500065E-1,4.507050037E0,8.830050468E0,9.917522277E0
2.438044903E0,2.719500065E-1,4.507050037E0,8.791950226E0,9.883615008E0
2.440008466E0,2.340000123E-1,4.507050037E0,8.830050468E0,9.916554206E0
2.441972045E0,3.109500110E-1,4.545000076E0,8.830050468E0,9.935970354E0
2.443935620E0,2.340000123E-1,4.507050037E0,8.830050468E0,9.916554206E0
2.445899104E0,3.109500110E-1,4.431000233E0,8.754000664E0,9.816464771E0
2.447862618E0,3.109500110E-1,4.468950272E0,8.830050468E0,9.901413925E0
2.449825800E0,3.109500110E-1,4.468950272E0,8.869050026E0,9.936209277E0
2.451789080E0,3.109500110E-1,4.468950272E0,8.830050468E0,9.901413925E0
2.453752481E0,3.490500152E-1,4.468950272E0,8.869050026E0,9.937474569E0
2.455715847E0,3.109500110E-1,4.431000233E0,8.869050026E0,9.919198624E0
2.457679235E0,3.109500110E-1,4.468950272E0,8.791950226E0,9.867451303E0
2.459642616E0,3.109500110E-1,4.468950272E0,8.791950226E0,9.867451303E0
2.461605867E0,3.109500110E-1,4.431000233E0,8.830050468E0,9.884343390E0
2.463569157E0,3.490500152E-1,4.431000233E0,8.869050026E0,9.920466085E0
2.465532692E0,3.109500110E-1,4.507050037E0,8.869050026E0,9.953403353E0
2.467496155E0,3.490500152E-1,4.431000233E0,8.791950226E0,9.851598233E0
2.469459230E0,3.109500110E-1,4.431000233E0,8.869050026E0,9.919198624E0
2.471422406E0,3.109500110E-1,4.468950272E0,8.869050026E0,9.936209277E0
2.473385600E0,3.109500110E-1,4.468950272E0,8.869050026E0,9.936209277E0
2.475348789E0,3.490500152E-1,4.431000233E0,8.907000542E0,9.954408954E0
2.477312027E0,3.490500152E-1,4.468950272E0,8.944950104E0,1.000527285E1
2.479275251E0,2.719500065E-1,4.507050037E0,8.944950104E0,1.001995954E1
2.481238353E0,3.109500110E-1,4.468950272E0,8.944950104E0,1.000401613E1
2.483201488E0,3.109500110E-1,4.468950272E0,8.944950104E0,1.000401613E1
2.485165095E0,3.109500110E-1,4.468950272E0,8.944950104E0,1.000401613E1
2.487128563E0,3.109500110E-1,4.507050037E0,8.983950615E0,1.005592157E1
2.489092069E0,3.109500110E-1,4.507050037E0,8.944950104E0,1.002109387E1
2.491055563E0,3.109500110E-1,4.468950272E0,8.983950615E0,1.003890308E1
2.493018771E0,2.719500065E-1,4.507050037E0,8.983950615E0,1.005479117E1
2.494982080E0,2.719500065E-1,4.507050037E0,8.983950615E0,1.005479117E1
2.496945431E0,3.109500110E-1,4.507050037E0,8.907000542E0,9.987234282E0
2.498908770E0,2.719500065E-1,4.468950272E0,8.983950615E0,1.003777077E1
2.500871848E0,2.719500065E-1,4.507050037E0,8.983950615E0,1.005479117E1
2.502835003E0,2.719500065E-1,4.507050037E0,8.944950104E0,1.001995954E1
2.504798220E0,2.719500065E-1,4.507050037E0,8.983950615E0,1.005479117E1
2.506761405E0,2.719500065E-1,4.507050037E0,9.022050858E0,1.008884823E1
2.508724824E0,2.719500065E-1,4.507050037E0,8.983950615E0,1.005479117E1
2.510688174E0,2.719500065E-1,4.507050037E0,9.022050858E0,1.008884823E1
2.512651250E0,2.340000123E-1,4.545000076E0,9.022050858E0,1.010490888E1
2.514614407E0,2.719500065E-1,4.507050037E0,9.022050858E0,1.008884823E1
2.516577560E0,2.340000123E-1,4.507050037E0,9.022050858E0,1.008789660E1
2.518540745E0,3.109500110E-1,4.545000076E0,9.022050858E0,1.010698359E1
2.520503984E0,2.719500065E-1,4.468950272E0,9.022050858E0,1.007188538E1
2.522467207E0,2.719500065E-1,4.507050037E0,9.060000420E0,1.012279924E1
2.524430080E0,2.719500065E-1,4.468950272E0,9.022050858E0,1.007188538E1
2.526393055E0,2.719500065E-1,4.507050037E0,9.060000420E0,1.012279924E1
2.528356034E0,2.340000123E-1,4.431000233E0,8.983950615E0,1.001997444E1
2.530318998E0,2.340000123E-1,4.468950272E0,9.022050858E0,1.007093214E1
2.532282048E0,2.719500065E-1,4.431000233E0,9.022050858E0,1.005510425E1
2.534245073E0,3.490500152E-1,4.468950272E0,9.022050858E0,1.007426196E1
2.536208519E0,2.340000123E-1,4.507050037E0,8.983950615E0,1.005383632E1
2.538171842E0,2.719500065E-1,4.468950272E0,8.907000542E0,9.968958420E0
2.540135112E0,2.719500065E-1,4.468950272E0,8.983950615E0,1.003777077E1
2.542098392E0,2.340000123E-1,4.468950272E0,8.944950104E0,1.000192006E1
2.544061569E0,2.340000123E-1,4.468950272E0,8.983950615E0,1.003681429E1
2.546024776E0,3.109500110E-1,4.468950272E0,8.944950104E0,1.000401613E1
2.547988010E0,2.719500065E-1,4.431000233E0,8.907000542E0,9.952003744E0
2.549951236E0,2.719500065E-1,4.431000233E0,8.944950104E0,9.985982787E0
2.551914477E0,2.719500065E-1,4.431000233E0,8.907000542E0,9.952003744E0
2.553877707E0,3.109500110E-1,4.431000233E0,8.907000542E0,9.953145815E0
2.555841119E0,3.109500110E-1,4.468950272E0,8.869050026E0,9.936209277E0
2.557804477E0,3.109500110E-1,4.431000233E0,8.869050026E0,9.919198624E0
2.559767866E0,3.109500110E-1,4.392000198E0,8.869050026E0,9.901838416E0
2.561731246E0,3.490500152E-1,4.392000198E0,8.907000542E0,9.937110259E0
2.563694645E0,3.109500110E-1,4.392000198E0,8.869050026E0,9.901838416E0
2.565658029E0,3.490500152E-1,4.392000198E0,8.869050026E0,9.903108099E0
2.567621414E0,3.490500152E-1,4.431000233E0,8.869050026E0,9.920466085E0
2.569584798E0,3.109500110E-1,4.431000233E0,8.791950226E0,9.850321911E0
2.571548183E0,4.260000288E-1,4.354050159E0,8.791950226E0,9.820265658E0
2.573511568E0,3.490500152E-1,4.392000198E0,8.830050468E0,9.868196032E0
2.575474984E0,3.870000243E-1,4.468950272E0,8.830050468E0,9.904093943E0
2.577438400E0,3.870000243E-1,4.431000233E0,8.791950226E0,9.853015825E0
2.579402320E0,3.490500152E-1,4.392000198E0,8.830050468E0,9.868196032E0
2.581366092E0,3.490500152E-1,4.392000198E0,8.791950226E0,9.834118691E0
2.583329546E0,3.870000243E-1,4.392000198E0,8.830050468E0,9.869611240E0
2.585293094E0,3.490500152E-1,4.431000233E0,8.830050468E0,9.885615320E0
2.587256469E0,3.870000243E-1,4.431000233E0,8.830050468E0,9.887028035E0
2.589219882E0,3.490500152E-1,4.431000233E0,8.830050468E0,9.885615320E0
2.591183486E0,3.490500152E-1,4.431000233E0,8.830050468E0,9.885615320E0
2.593147034E0,4.260000288E-1,4.392000198E0,8.830050468E0,9.871217404E0
2.595110706E0,3.870000243E-1,4.468950272E0,8.830050468E0,9.904093943E0
2.597074342E0,3.490500152E-1,4.507050037E0,8.830050468E0,9.919935848E0
2.599037910E0,3.870000243E-1,4.468950272E0,8.830050468E0,9.904093943E0
2.601001498E0,3.870000243E-1,4.507050037E0,8.830050468E0,9.921343676E0
2.602964847E0,3.490500152E-1,4.507050037E0,8.830050468E0,9.919935848E0
2.604928267E0,3.870000243E-1,4.468950272E0,8.791950226E0,9.870140542E0
2.606891780E0,3.870000243E-1,4.468950272E0,8.791950226E0,9.870140542E0
2.608855265E0,3.490500152E-1,4.468950272E0,8.869050026E0,9.937474569E0
2.610818663E0,3.870000243E-1,4.507050037E0,8.791950226E0,9.887449511E0
2.612782098E0,3.870000243E-1,4.507050037E0,8.830050468E0,9.921343676E0
2.614745429E0,3.870000243E-1,4.468950272E0,8.907000542E0,9.972760109E0
2.616708790E0,3.870000243E-1,4.468950272E0,8.869050026E0,9.938879912E0
2.618672044E0,3.490500152E-1,4.431000233E0,8.869050026E0,9.920466085E0
2.620635329E0,3.490500152E-1,4.468950272E0,8.869050026E0,9.937474569E0
2.622598689E0,3.490500152E-1,4.507050037E0,8.869050026E0,9.954666459E0
2.624562024E0,3.109500110E-1,4.468950272E0,8.869050026E0,9.936209277E0
2.626525643E0,3.490500152E-1,4.468950272E0,8.907000542E0,9.971359541E0
2.628489178E0,3.490500152E-1,4.468950272E0,8.907000542E0,9.971359541E0
2.630452673E0,3.490500152E-1,4.468950272E0,8.944950104E0,1.000527285E1
2.632416180E0,3.870000243E-1,4.468950272E0,8.869050026E0,9.938879912E0
2.634379379E0,3.490500152E-1,4.507050037E0,8.869050026E0,9.954666459E0
2.636342657E0,3.109500110E-1,4.507050037E0,8.907000542E0,9.987234282E0
2.638306419E0,2.719500065E-1,4.468950272E0,8.907000542E0,9.968958420E0
2.640270039E0,3.490500152E-1,4.507050037E0,8.944950104E0,1.002234844E1
2.642233384E0,3.109500110E-1,4.507050037E0,8.983950615E0,1.005592157E1
2.644196810E0,3.109500110E-1,4.507050037E0,8.944950104E0,1.002109387E1
2.646160202E0,3.490500152E-1,4.468950272E0,8.944950104E0,1.000527285E1
2.648123594E0,3.109500110E-1,4.468950272E0,8.944950104E0,1.000401613E1
2.650087021E0,3.490500152E-1,4.507050037E0,8.983950615E0,1.005717180E1
2.652050438E0,2.719500065E-1,4.507050037E0,8.907000542E0,9.986096109E0
2.654013773E0,3.109500110E-1,4.545000076E0,8.907000542E0,1.000441774E1
2.655977132E0,2.719500065E-1,4.468950272E0,8.907000542E0,9.968958420E0
2.657940579E0,3.109500110E-1,4.468950272E0,8.907000542E0,9.970098550E0
2.659903990E0,2.719500065E-1,4.507050037E0,8.944950104E0,1.001995954E1
2.661867505E0,3.109500110E-1,4.468950272E0,8.869050026E0,9.936209277E0
2.663830990E0,3.109500110E-1,4.468950272E0,8.944950104E0,1.000401613E1
2.665794718E0,2.719500065E-1,4.468950272E0,8.944950104E0,1.000287987E1
2.667758375E0,3.109500110E-1,4.468950272E0,8.907000542E0,9.970098550E0
2.669721894E0,3.109500110E-1,4.468950272E0,8.944950104E0,1.000401613E1
2.671685454E0,3.109500110E-1,4.468950272E0,8.944950104E0,1.000401613E1
2.673648989E0,3.490500152E-1,4.431000233E0,8.944950104E0,9.988379815E0
2.675612531E0,3.109500110E-1,4.468950272E0,8.944950104E0,1.000401613E1
2.677575933E0,3.109500110E-1,4.431000233E0,8.944950104E0,9.987120973E0
2.679539377E0,3.870000243E-1,4.431000233E0,8.944950104E0,9.989777998E0
2.681502927E0,2.719500065E-1,4.468950272E0,8.944950104E0,1.000287987E1
2.683466448E0,3.490500152E-1,4.431000233E0,8.944950104E0,9.988379815E0
2.685429990E0,3.109500110E-1,4.468950272E0,8.944950104E0,1.000401613E1
2.687393525E0,3.109500110E-1,4.468950272E0,8.907000542E0,9.970098550E0
2.689357200E0,3.490500152E-1,4.468950272E0,8.907000542E0,9.971359541E0
2.691320833E0,3.490500152E-1,4.468950272E0,8.944950104E0,1.000527285E1
2.693284002E0,2.719500065E-1,4.468950272E0,8.944950104E0,1.000287987E1
2.695247334E0,3.109500110E-1,4.468950272E0,8.907000542E0,9.970098550E0
2.697210681E0,3.490500152E-1,4.468950272E0,8.944950104E0,1.000527285E1
2.699174024E0,3.109500110E-1,4.468950272E0,8.869050026E0,9.936209277E0
2.701137416E0,3.109500110E-1,4.468950272E0,8.944950104E0,1.000401613E1
2.703100794E0,3.109500110E-1,4.468950272E0,8.944950104E0,1.000401613E1
2.705064540E0,3.490500152E-1,4.468950272E0,8.869050026E0,9.937474569E0
2.707028178E0,3.109500110E-1,4.431000233E0,8.907000542E0,9.953145815E0
2.708991925E0,3.109500110E-1,4.431000233E0,8.907000542E0,9.953145815E0
2.710955640E0,3.870000243E-1,4.431000233E0,8.869050026E0,9.921873837E0
2.712919329E0,3.490500152E-1,4.431000233E0,8.869050026E0,9.920466085E0
2.714883026E0,3.490500152E-1,4.431000233E0,8.869050026E0,9.920466085E0
2.716846148E0,3.870000243E-1,4.468950272E0,8.869050026E0,9.938879912E0
2.718809459E0,3.490500152E-1,4.392000198E0,8.830050468E0,9.868196032E0
2.720772855E0,3.870000243E-1,4.431000233E0,8.907000542E0,9.955811907E0
2.722736226E0,3.870000243E-1,4.431000233E0,8.869050026E0,9.921873837E0
2.724699974E0,3.490500152E-1,4.468950272E0,8.869050026E0,9.937474569E0
2.726663611E0,3.490500152E-1,4.431000233E0,8.907000542E0,9.954408954E0
2.728627134E0,4.260000288E-1,4.431000233E0,8.830050468E0,9.888631370E0
2.730590690E0,3.490500152E-1,4.392000198E0,8.830050468E0,9.868196032E0
2.732554000E0,3.490500152E-1,4.431000233E0,8.907000542E0,9.954408954E0
2.734517382E0,3.109500110E-1,4.431000233E0,8.869050026E0,9.919198624E0
2.736480766E0,3.870000243E-1,4.431000233E0,8.869050026E0,9.921873837E0
2.738444149E0,3.490500152E-1,4.431000233E0,8.869050026E0,9.920466085E0
2.740407405E0,4.260000288E-1,4.392000198E0,8.869050026E0,9.906118823E0
2.742370695E0,3.870000243E-1,4.392000198E0,8.907000542E0,9.938515654E0
2.744334095E0,3.490500152E-1,4.468950272E0,8.869050026E0,9.937474569E0
2.746297462E0,3.490500152E-1,4.431000233E0,8.907000542E0,9.954408954E0
2.748260985E0,3.490500152E-1,4.431000233E0,8.907000542E0,9.954408954E0
2.750224462E0,3.490500152E-1,4.468950272E0,8.869050026E0,9.937474569E0
2.752187832E0,3.870000243E-1,4.507050037E0,8.907000542E0,9.989891276E0
2.754151233E0,3.490500152E-1,4.468950272E0,8.830050468E0,9.902683662E0
2.756114254E0,3.490500152E-1,4.431000233E0,8.830050468E0,9.885615320E0
2.758077387E0,3.490500152E-1,4.468950272E0,8.830050468E0,9.902683662E0
2.760040679E0,3.870000243E-1,4.468950272E0,8.869050026E0,9.938879912E0
2.762003924E0,3.870000243E-1,4.507050037E0,8.869050026E0,9.956069376E0
2.763967148E0,3.490500152E-1,4.468950272E0,8.791950226E0,9.868725410E0
2.765930382E0,3.490500152E-1,4.507050037E0,8.830050468E0,9.919935848E0
2.767893927E0,3.490500152E-1,4.507050037E0,8.830050468E0,9.919935848E0
2.769857380E0,3.490500152E-1,4.468950272E0,8.830050468E0,9.902683662E0
2.771820933E0,3.490500152E-1,4.507050037E0,8.830050468E0,9.919935848E0
2.773784457E0,3.490500152E-1,4.507050037E0,8.830050468E0,9.919935848E0
2.775748024E0,3.109500110E-1,4.468950272E0,8.830050468E0,9.901413925E0
2.777711592E0,3.109500110E-1,4.545000076E0,8.830050468E0,9.935970354E0
2.779675127E0,3.109500110E-1,4.507050037E0,8.830050468E0,9.918668319E0
2.781638671E0,3.109500110E-1,4.545000076E0,8.791950226E0,9.902126255E0
2.783601983E0,3.109500110E-1,4.545000076E0,8.869050026E0,9.970645113E0
2.785565363E0,3.109500110E-1,4.545000076E0,8.869050026E0,9.970645113E0
2.787528928E0,3.109500110E-1,4.507050037E0,8.907000542E0,9.987234282E0
2.789492438E0,2.719500065E-1,4.545000076E0,8.869050026E0,9.969505046E0
2.791455667E0,2.719500065E-1,4.545000076E0,8.907000542E0,1.000328152E1
2.793418979E0,2.719500065E-1,4.507050037E0,8.944950104E0,1.001995954E1
2.795382330E0,2.719500065E-1,4.584000111E0,8.944950104E0,1.005480712E1
2.797345669E0,3.109500110E-1,4.584000111E0,8.907000542E0,1.002219565E1
2.799309066E0,2.719500065E-1,4.507050037E0,8.944950104E0,1.001995954E1
2.801272443E0,2.719500065E-1,4.545000076E0,8.944950104E0,1.003708697E1
2.803235695E0,2.719500065E-1,4.507050037E0,8.944950104E0,1.001995954E1
2.805198984E0,3.109500110E-1,4.507050037E0,8.907000542E0,9.987234282E0
2.807162024E0,2.340000123E-1,4.507050037E0,8.944950104E0,1.001900137E1
2.809125137E0,2.340000123E-1,4.468950272E0,8.944950104E0,1.000192006E1
2.811088771E0,2.340000123E-1,4.545000076E0,8.907000542E0,1.000232175E1
2.813052236E0,2.719500065E-1,4.507050037E0,8.944950104E0,1.001995954E1
2.815015923E0,2.340000123E-1,4.507050037E0,8.944950104E0,1.001900137E1
2.816979544E0,1.960500032E-1,4.545000076E0,8.944950104E0,1.003531732E1
2.818943069E0,2.340000123E-1,4.545000076E0,8.907000542E0,1.000232175E1
2.820906623E0,2.340000123E-1,4.507050037E0,8.983950615E0,1.005383632E1
2.822870328E0,2.340000123E-1,4.468950272E0,8.944950104E0,1.000192006E1
2.824833996E0,2.340000123E-1,4.507050037E0,8.983950615E0,1.005383632E1
2.826797198E0,2.340000123E-1,4.507050037E0,8.944950104E0,1.001900137E1
2.828760536E0,3.109500110E-1,4.507050037E0,8.944950104E0,1.002109387E1
2.830724108E0,2.719500065E-1,4.507050037E0,8.944950104E0,1.001995954E1
2.832687611E0,2.719500065E-1,4.507050037E0,8.907000542E0,9.986096109E0
2.834650781E0,2.340000123E-1,4.507050037E0,8.944950104E0,1.001900137E1
2.836614060E0,2.719500065E-1,4.468950272E0,8.944950104E0,1.000287987E1
2.838577416E0,2.719500065E-1,4.468950272E0,8.907000542E0,9.968958420E0
2.840540750E0,2.719500065E-1,4.468950272E0,8.944950104E0,1.000287987E1
2.842504143E0,3.109500110E-1,4.507050037E0,8.944950104E0,1.002109387E1
2.844467519E0,2.719500065E-1,4.431000233E0,8.907000542E0,9.952003744E0
2.846430707E0,3.109500110E-1,4.431000233E0,8.830050468E0,9.884343390E0
2.848393964E0,2.719500065E-1,4.468950272E0,8.907000542E0,9.968958420E0
2.850357414E0,3.109500110E-1,4.468950272E0,8.907000542E0,9.970098550E0
2.852320808E0,3.109500110E-1,4.468950272E0,8.907000542E0,9.970098550E0
2.854284147E0,3.109500110E-1,4.468950272E0,8.907000542E0,9.970098550E0
2.856247502E0,3.109500110E-1,4.431000233E0,8.830050468E0,9.884343390E0
2.858211066E0,3.490500152E-1,4.507050037E0,8.869050026E0,9.954666459E0
2.860174572E0,3.490500152E-1,4.468950272E0,8.830050468E0,9.902683662E0
2.862137802E0,3.109500110E-1,4.468950272E0,8.869050026E0,9.936209277E0
2.864101113E0,3.490500152E-1,4.468950272E0,8.830050468E0,9.902683662E0
2.866064464E0,3.490500152E-1,4.468950272E0,8.869050026E0,9.937474569E0
2.868027803E0,3.490500152E-1,4.468950272E0,8.830050468E0,9.902683662E0
2.869991259E0,3.490500152E-1,4.507050037E0,8.869050026E0,9.954666459E0
2.871954668E0,3.109500110E-1,4.507050037E0,8.830050468E0,9.918668319E0
2.873918004E0,3.490500152E-1,4.507050037E0,8.791950226E0,9.886036856E0
2.875881362E0,3.490500152E-1,4.468950272E0,8.830050468E0,9.902683662E0
2.877844256E0,3.109500110E-1,4.507050037E0,8.830050468E0,9.918668319E0
2.879807286E0,3.490500152E-1,4.507050037E0,8.869050026E0,9.954666459E0
2.881770700E0,3.109500110E-1,4.507050037E0,8.830050468E0,9.918668319E0
2.883733991E0,3.490500152E-1,4.468950272E0,8.869050026E0,9.937474569E0
2.885697257E0,2.719500065E-1,4.431000233E0,8.830050468E0,9.883193368E0
2.887660531E0,3.109500110E-1,4.507050037E0,8.830050468E0,9.918668319E0
2.889623574E0,3.490500152E-1,4.507050037E0,8.791950226E0,9.886036856E0
2.891586685E0,3.109500110E-1,4.507050037E0,8.830050468E0,9.918668319E0
2.893549775E0,3.490500152E-1,4.507050037E0,8.830050468E0,9.919935848E0
2.895512858E0,3.490500152E-1,4.468950272E0,8.830050468E0,9.902683662E0
2.897476068E0,3.490500152E-1,4.468950272E0,8.830050468E0,9.902683662E0
2.899439241E0,3.109500110E-1,4.468950272E0,8.791950226E0,9.867451303E0
2.901402481E0,3.109500110E-1,4.468950272E0,8.830050468E0,9.901413925E0
2.903365702E0,3.870000243E-1,4.468950272E0,8.869050026E0,9.938879912E0
2.905329189E0,3.870000243E-1,4.468950272E0,8.791950226E0,9.870140542E0
2.907292577E0,3.870000243E-1,4.468950272E0,8.791950226E0,9.870140542E0
2.909256096E0,4.260000288E-1,4.431000233E0,8.830050468E0,9.888631370E0
2.911219577E0,3.490500152E-1,4.431000233E0,8.830050468E0,9.885615320E0
2.913183125E0,3.490500152E-1,4.468950272E0,8.869050026E0,9.937474569E0
2.915146654E0,4.260000288E-1,4.468950272E0,8.830050468E0,9.905694515E0
2.917109840E0,3.490500152E-1,4.468950272E0,8.830050468E0,9.902683662E0
2.919073123E0,3.490500152E-1,4.431000233E0,8.869050026E0,9.920466085E0
2.921036524E0,3.870000243E-1,4.431000233E0,8.869050026E0,9.921873837E0
2.922999890E0,3.490500152E-1,4.431000233E0,8.869050026E0,9.920466085E0
2.924963278E0,3.870000243E-1,4.431000233E0,8.907000542E0,9.955811907E0
2.926926659E0,4.260000288E-1,4.431000233E0,8.907000542E0,9.957404167E0
2.928889910E0,4.260000288E-1,4.468950272E0,8.944950104E0,1.000825284E1
2.930853200E0,3.870000243E-1,4.468950272E0,8.944950104E0,1.000666867E1
2.932816420E0,3.490500152E-1,4.431000233E0,8.944950104E0,9.988379815E0
2.934779661E0,3.490500152E-1,4.431000233E0,8.907000542E0,9.954408954E0
2.936743385E0,3.870000243E-1,4.431000233E0,8.944950104E0,9.989777998E0
2.938706967E0,3.870000243E-1,4.431000233E0,8.944950104E0,9.989777998E0
2.940670314E0,3.490500152E-1,4.468950272E0,8.907000542E0,9.971359541E0
2.942633733E0,3.490500152E-1,4.468950272E0,8.907000542E0,9.971359541E0
2.944597471E0,4.260000288E-1,4.468950272E0,8.907000542E0,9.974349663E0
2.946561116E0,3.870000243E-1,4.392000198E0,8.944950104E0,9.972540655E0
2.948524502E0,3.490500152E-1,4.468950272E0,8.983950615E0,1.004015543E1
2.950487964E0,4.260000288E-1,4.431000233E0,8.907000542E0,9.957404167E0
2.952451299E0,3.870000243E-1,4.431000233E0,8.944950104E0,9.989777998E0
2.954414665E0,4.639500082E-1,4.431000233E0,8.869050026E0,9.925173098E0
2.956378052E0,4.639500082E-1,4.392000198E0,8.944950104E0,9.975823160E0
2.958341433E0,3.870000243E-1,4.507050037E0,8.907000542E0,9.989891276E0
2.960304503E0,3.490500152E-1,4.431000233E0,8.907000542E0,9.954408954E0
2.962267665E0,3.870000243E-1,4.431000233E0,8.907000542E0,9.955811907E0
2.964231038E0,3.870000243E-1,4.507050037E0,8.907000542E0,9.989891276E0
2.966194352E0,3.870000243E-1,4.468950272E0,8.907000542E0,9.972760109E0
2.968157614E0,3.870000243E-1,4.468950272E0,8.944950104E0,1.000666867E1
2.970120892E0,3.490500152E-1,4.431000233E0,8.944950104E0,9.988379815E0
2.972084249E0,3.490500152E-1,4.507050037E0,8.944950104E0,1.002234844E1
2.974047583E0,3.870000243E-1,4.431000233E0,8.944950104E0,9.989777998E0
2.976010976E0,3.870000243E-1,4.468950272E0,8.907000542E0,9.972760109E0
2.977974352E0,3.490500152E-1,4.468950272E0,8.944950104E0,1.000527285E1
2.979937424E0,3.870000243E-1,4.431000233E0,8.907000542E0,9.955811907E0
2.981900585E0,3.109500110E-1,4.468950272E0,8.907000542E0,9.970098550E0
2.983863962E0,3.490500152E-1,4.468950272E0,8.944950104E0,1.000527285E1
2.985827275E0,3.109500110E-1,4.468950272E0,8.944950104E0,1.000401613E1
2.987790372E0,3.490500152E-1,4.468950272E0,8.907000542E0,9.971359541E0
2.989753522E0,3.870000243E-1,4.468950272E0,8.907000542E0,9.972760109E0
2.991716586E0,4.260000288E-1,4.468950272E0,8.907000542E0,9.974349663E0
2.993679675E0,3.109500110E-1,4.468950272E0,8.907000542E0,9.970098550E0
2.995642570E0,3.870000243E-1,4.468950272E0,8.907000542E0,9.972760109E0
2.997605522E0,3.870000243E-1,4.507050037E0,8.830050468E0,9.921343676E0
2.999568550E0,3.490500152E-1,4.468950272E0,8.907000542E0,9.971359541E0
3.001531573E0,3.870000243E-1,4.468950272E0,8.830050468E0,9.904093943E0
3.003494659E0,3.490500152E-1,4.468950272E0,8.791950226E0,9.868725410E0
3.005457726E0,3.490500152E-1,4.468950272E0,8.791950226E0,9.868725410E0
3.007421030E0,3.870000243E-1,4.468950272E0,8.830050468E0,9.904093943E0
3.009384265E0,3.870000243E-1,4.468950272E0,8.869050026E0,9.938879912E0
3.011347477E0,3.490500152E-1,4.468950272E0,8.869050026E0,9.937474569E0
3.013310709E0,3.490500152E-1,4.431000233E0,8.869050026E0,9.920466085E0
3.015273895E0,3.490500152E-1,4.468950272E0,8.869050026E0,9.937474569E0
3.017237094E0,3.870000243E-1,4.468950272E0,8.869050026E0,9.938879912E0
3.019200015E0,3.490500152E-1,4.507050037E0,8.869050026E0,9.954666459E0
3.021163017E0,3.490500152E-1,4.468950272E0,8.869050026E0,9.937474569E0
3.023126300E0,3.490500152E-1,4.468950272E0,8.830050468E0,9.902683662E0
3.025089491E0,3.490500152E-1,4.507050037E0,8.869050026E0,9.954666459E0
3.027052728E0,3.490500152E-1,4.468950272E0,8.830050468E0,9.902683662E0
3.029015952E0,3.490500152E-1,4.431000233E0,8.830050468E0,9.885615320E0
3.030979499E0,4.260000288E-1,4.468950272E0,8.830050468E0,9.905694515E0
3.032942952E0,3.490500152E-1,4.468950272E0,8.869050026E0,9.937474569E0
3.034906004E0,3.490500152E-1,4.468950272E0,8.869050026E0,9.937474569E0
3.036869146E0,3.490500152E-1,4.431000233E0,8.791950226E0,9.851598233E0
3.038832257E0,3.490500152E-1,4.468950272E0,8.869050026E0,9.937474569E0
3.040795377E0,3.490500152E-1,4.507050037E0,8.869050026E0,9.954666459E0
3.042758401E0,3.490500152E-1,4.507050037E0,8.869050026E0,9.954666459E0
3.044721454E0,3.870000243E-1,4.468950272E0,8.907000542E0,9.972760109E0
3.046684589E0,3.490500152E-1,4.468950272E0,8.830050468E0,9.902683662E0
3.048647693E0,3.870000243E-1,4.468950272E0,8.869050026E0,9.938879912E0
3.050611081E0,4.260000288E-1,4.507050037E0,8.869050026E0,9.957661594E0
3.052574385E0,3.490500152E-1,4.468950272E0,8.830050468E0,9.902683662E0
3.054537289E0,3.490500152E-1,4.468950272E0,8.869050026E0,9.937474569E0
3.056500310E0,3.490500152E-1,4.507050037E0,8.869050026E0,9.954666459E0
3.058463531E0,3.490500152E-1,4.468950272E0,8.869050026E0,9.937474569E0
3.060426693E0,3.490500152E-1,4.468950272E0,8.869050026E0,9.937474569E0
3.062389756E0,3.490500152E-1,4.468950272E0,8.869050026E0,9.937474569E0
3.064352848E0,3.490500152E-1,4.468950272E0,8.830050468E0,9.902683662E0
3.066316327E0,3.109500110E-1,4.507050037E0,8.869050026E0,9.953403353E0
3.068279693E0,3.490500152E-1,4.507050037E0,8.869050026E0,9.954666459E0
3.070242887E0,3.109500110E-1,4.507050037E0,8.907000542E0,9.987234282E0
3.072206142E0,3.109500110E-1,4.545000076E0,8.830050468E0,9.935970354E0
3.074169324E0,3.490500152E-1,4.468950272E0,8.907000542E0,9.971359541E0
3.076132527E0,3.109500110E-1,4.507050037E0,8.869050026E0,9.953403353E0
3.078095806E0,3.490500152E-1,4.507050037E0,8.869050026E0,9.954666459E0
3.080059063E0,3.109500110E-1,4.468950272E0,8.869050026E0,9.936209277E0
3.082022260E0,3.490500152E-1,4.468950272E0,8.869050026E0,9.937474569E0
3.083985464E0,2.719500065E-1,4.507050037E0,8.869050026E0,9.952261311E0
3.085948384E0,3.490500152E-1,4.507050037E0,8.830050468E0,9.919935848E0
3.087911387E0,3.109500110E-1,4.507050037E0,8.869050026E0,9.953403353E0
3.089874656E0,3.109500110E-1,4.507050037E0,8.907000542E0,9.987234282E0
3.091837847E0,2.719500065E-1,4.468950272E0,8.869050026E0,9.935065259E0
3.093801074E0,3.490500152E-1,4.468950272E0,8.869050026E0,9.937474569E0
3.095764298E0,2.719500065E-1,4.507050037E0,8.907000542E0,9.986096109E0
3.097727845E0,3.109500110E-1,4.507050037E0,8.944950104E0,1.002109387E1
3.099691298E0,3.109500110E-1,4.468950272E0,8.944950104E0,1.000401613E1
3.101654717E0,3.109500110E-1,4.468950272E0,8.907000542E0,9.970098550E0
3.103618146E0,3.109500110E-1,4.507050037E0,8.907000542E0,9.987234282E0
3.105581473E0,3.490500152E-1,4.468950272E0,8.944950104E0,1.000527285E1
3.107544834E0,3.109500110E-1,4.468950272E0,8.944950104E0,1.000401613E1
3.109508267E0,3.490500152E-1,4.507050037E0,8.944950104E0,1.002234844E1
3.111471678E0,3.109500110E-1,4.507050037E0,8.907000542E0,9.987234282E0
3.113435059E0,3.109500110E-1,4.507050037E0,8.869050026E0,9.953403353E0
3.115398449E0,2.719500065E-1,4.507050037E0,8.944950104E0,1.001995954E1
3.117361953E0,3.109500110E-1,4.468950272E0,8.944950104E0,1.000401613E1
3.119325433E0,3.109500110E-1,4.545000076E0,8.983950615E0,1.007298785E1
3.121288487E0,2.719500065E-1,4.507050037E0,8.869050026E0,9.952261311E0
3.123251666E0,2.719500065E-1,4.507050037E0,8.944950104E0,1.001995954E1
3.125214904E0,3.109500110E-1,4.507050037E0,8.944950104E0,1.002109387E1
3.127178125E0,3.109500110E-1,4.507050037E0,8.944950104E0,1.002109387E1
3.129141143E0,3.109500110E-1,4.507050037E0,8.983950615E0,1.005592157E1
3.131104214E0,3.109500110E-1,4.507050037E0,8.944950104E0,1.002109387E1
3.133067291E0,3.109500110E-1,4.507050037E0,8.944950104E0,1.002109387E1
3.135030366E0,2.719500065E-1,4.468950272E0,8.944950104E0,1.000287987E1
3.136993804E0,3.490500152E-1,4.468950272E0,8.944950104E0,1.000527285E1
3.138957135E0,3.870000243E-1,4.468950272E0,8.907000542E0,9.972760109E0
3.140920205E0,3.109500110E-1,4.431000233E0,8.907000542E0,9.953145815E0
3.142883358E0,3.109500110E-1,4.507050037E0,8.907000542E0,9.987234282E0
3.144846781E0,3.109500110E-1,4.468950272E0,8.944950104E0,1.000401613E1
3.146810125E0,3.490500152E-1,4.468950272E0,8.907000542E0,9.971359541E0
3.148773697E0,3.109500110E-1,4.431000233E0,8.907000542E0,9.953145815E0
3.150737202E0,3.490500152E-1,4.431000233E0,8.944950104E0,9.988379815E0
3.152700411E0,3.490500152E-1,4.392000198E0,8.869050026E0,9.903108099E0
3.154663690E0,3.490500152E-1,4.468950272E0,8.869050026E0,9.937474569E0
3.156626867E0,3.870000243E-1,4.431000233E0,8.907000542E0,9.955811907E0
3.158590074E0,4.260000288E-1,4.468950272E0,8.907000542E0,9.974349663E0
3.160553129E0,3.870000243E-1,4.468950272E0,8.869050026E0,9.938879912E0
3.162516228E0,3.490500152E-1,4.468950272E0,8.869050026E0,9.937474569E0
3.164479340E0,3.490500152E-1,4.468950272E0,8.907000542E0,9.971359541E0
3.166442452E0,3.490500152E-1,4.431000233E0,8.830050468E0,9.885615320E0
3.168405524E0,3.490500152E-1,4.468950272E0,8.869050026E0,9.937474569E0
3.170368608E0,3.490500152E-1,4.468950272E0,8.830050468E0,9.902683662E0
3.172331998E0,3.109500110E-1,4.507050037E0,8.830050468E0,9.918668319E0
3.174295298E0,3.490500152E-1,4.468950272E0,8.830050468E0,9.902683662E0
3.176258530E0,3.109500110E-1,4.507050037E0,8.869050026E0,9.953403353E0
3.178221806E0,3.109500110E-1,4.507050037E0,8.791950226E0,9.884764981E0
3.180184984E0,3.109500110E-1,4.545000076E0,8.754000664E0,9.868446850E0
3.182148190E0,3.109500110E-1,4.507050037E0,8.791950226E0,9.884764981E0
3.184111109E0,3.109500110E-1,4.507050037E0,8.830050468E0,9.918668319E0
3.186074113E0,3.109500110E-1,4.507050037E0,8.791950226E0,9.884764981E0
3.188037566E0,3.490500152E-1,4.545000076E0,8.830050468E0,9.937235676E0
3.190000885E0,3.490500152E-1,4.584000111E0,8.754000664E0,9.887740922E0
3.191964101E0,3.109500110E-1,4.545000076E0,8.791950226E0,9.902126255E0
3.193927348E0,3.109500110E-1,4.584000111E0,8.830050468E0,9.953870513E0
3.195890710E0,3.109500110E-1,4.545000076E0,8.754000664E0,9.868446850E0
3.197854039E0,3.109500110E-1,4.545000076E0,8.830050468E0,9.935970354E0
3.199817264E0,3.109500110E-1,4.545000076E0,8.791950226E0,9.902126255E0
3.201780512E0,3.109500110E-1,4.507050037E0,8.791950226E0,9.884764981E0
3.203743605E0,3.490500152E-1,4.507050037E0,8.830050468E0,9.919935848E0
3.205706743E0,3.109500110E-1,4.507050037E0,8.791950226E0,9.884764981E0
3.207670169E0,3.490500152E-1,4.507050037E0,8.754000664E0,9.852302450E0
3.209633510E0,3.870000243E-1,4.507050037E0,8.791950226E0,9.887449511E0
3.211596733E0,3.490500152E-1,4.468950272E0,8.791950226E0,9.868725410E0
3.213559984E0,3.490500152E-1,4.468950272E0,8.830050468E0,9.902683662E0
3.215523211E0,4.260000288E-1,4.468950272E0,8.869050026E0,9.940474884E0
3.217486445E0,4.260000288E-1,4.468950272E0,8.791950226E0,9.871746620E0
3.219449854E0,3.870000243E-1,4.431000233E0,8.869050026E0,9.921873837E0
3.221413212E0,4.260000288E-1,4.431000233E0,8.869050026E0,9.923471542E0
3.223376711E0,3.490500152E-1,4.468950272E0,8.869050026E0,9.937474569E0
3.225340187E0,3.870000243E-1,4.431000233E0,8.907000542E0,9.955811907E0
3.227303422E0,4.260000288E-1,4.431000233E0,8.907000542E0,9.957404167E0
3.229266728E0,3.870000243E-1,4.431000233E0,8.907000542E0,9.955811907E0
3.231230125E0,4.260000288E-1,4.431000233E0,8.869050026E0,9.923471542E0
3.233193495E0,3.870000243E-1,4.392000198E0,8.907000542E0,9.938515654E0
3.235156654E0,3.870000243E-1,4.431000233E0,8.944950104E0,9.989777998E0
3.237119878E0,4.260000288E-1,4.431000233E0,8.944950104E0,9.991364844E0
3.239083109E0,4.260000288E-1,4.431000233E0,8.944950104E0,9.991364844E0
3.241046337E0,4.260000288E-1,4.431000233E0,8.907000542E0,9.957404167E0
3.243009434E0,3.870000243E-1,4.431000233E0,8.944950104E0,9.989777998E0
3.244972570E0,3.870000243E-1,4.468950272E0,8.983950615E0,1.004154640E1
3.246935756E0,3.490500152E-1,4.431000233E0,8.944950104E0,9.988379815E0
3.248898938E0,3.490500152E-1,4.468950272E0,8.983950615E0,1.004015543E1
3.250862043E0,3.490500152E-1,4.507050037E0,8.983950615E0,1.005717180E1
3.252825171E0,3.109500110E-1,4.507050037E0,8.983950615E0,1.005592157E1
3.254788239E0,3.490500152E-1,4.507050037E0,8.944950104E0,1.002234844E1
3.256751324E0,3.490500152E-1,4.507050037E0,8.983950615E0,1.005717180E1
3.258714700E0,2.719500065E-1,4.507050037E0,8.944950104E0,1.001995954E1
3.260678001E0,2.719500065E-1,4.507050037E0,9.022050858E0,1.008884823E1
3.262641220E0,3.109500110E-1,4.545000076E0,8.983950615E0,1.007298785E1
3.264604464E0,3.109500110E-1,4.507050037E0,8.983950615E0,1.005592157E1
3.266567737E0,3.109500110E-1,4.507050037E0,8.944950104E0,1.002109387E1
3.268531001E0,3.109500110E-1,4.545000076E0,8.983950615E0,1.007298785E1
3.270494013E0,2.340000123E-1,4.545000076E0,8.983950615E0,1.007090613E1
3.272457123E0,2.719500065E-1,4.584000111E0,8.983950615E0,1.008951845E1
3.274420373E0,3.109500110E-1,4.507050037E0,8.983950615E0,1.005592157E1
3.276383582E0,3.109500110E-1,4.584000111E0,8.983950615E0,1.009064495E1
3.278346592E0,3.490500152E-1,4.507050037E0,8.944950104E0,1.002234844E1
3.280309661E0,2.719500065E-1,4.545000076E0,8.944950104E0,1.003708697E1
3.282272752E0,2.340000123E-1,4.545000076E0,8.983950615E0,1.007090613E1
3.284235827E0,2.719500065E-1,4.507050037E0,8.983950615E0,1.005479117E1
3.286198725E0,2.719500065E-1,4.545000076E0,8.944950104E0,1.003708697E1
3.288161675E0,2.719500065E-1,4.545000076E0,8.983950615E0,1.007185937E1
3.290124818E0,2.719500065E-1,4.545000076E0,8.983950615E0,1.007185937E1
3.292087904E0,3.109500110E-1,4.468950272E0,8.983950615E0,1.003890308E1
3.294050791E0,2.719500065E-1,4.507050037E0,8.944950104E0,1.001995954E1
3.296013743E0,3.490500152E-1,4.507050037E0,8.944950104E0,1.002234844E1
3.297976661E0,3.490500152E-1,4.507050037E0,8.944950104E0,1.002234844E1
3.299939589E0,2.719500065E-1,4.468950272E0,8.907000542E0,9.968958420E0
3.301902871E0,3.490500152E-1,4.468950272E0,8.907000542E0,9.971359541E0
3.303866049E0,3.109500110E-1,4.468950272E0,8.944950104E0,1.000401613E1
3.305829105E0,3.109500110E-1,4.507050037E0,8.869050026E0,9.953403353E0
3.307792200E0,2.719500065E-1,4.507050037E0,8.907000542E0,9.986096109E0
3.309755229E0,2.719500065E-1,4.468950272E0,8.907000542E0,9.968958420E0
3.311718277E0,3.490500152E-1,4.468950272E0,8.830050468E0,9.902683662E0
3.313681224E0,3.109500110E-1,4.468950272E0,8.791950226E0,9.867451303E0
3.315644200E0,3.490500152E-1,4.468950272E0,8.830050468E0,9.902683662E0
3.317607243E0,3.870000243E-1,4.431000233E0,8.791950226E0,9.853015825E0
3.319570270E0,3.109500110E-1,4.468950272E0,8.791950226E0,9.867451303E0
3.321533536E0,3.490500152E-1,4.468950272E0,8.830050468E0,9.902683662E0
3.323496731E0,3.490500152E-1,4.468950272E0,8.830050468E0,9.902683662E0
3.325459608E0,3.870000243E-1,4.392000198E0,8.791950226E0,9.835538802E0
3.327422579E0,3.490500152E-1,4.431000233E0,8.830050468E0,9.885615320E0
3.329385499E0,4.260000288E-1,4.431000233E0,8.754000664E0,9.820782388E0
3.331348430E0,3.870000243E-1,4.431000233E0,8.791950226E0,9.853015825E0
