"Time (s)","Acceleration x (m/s^2)","Acceleration y (m/s^2)","Acceleration z (m/s^2)","Absolute acceleration (m/s^2)"
3.929273400E-2,5.790000558E-1,3.931950092E0,9.098999977E0,9.929112406E0
4.125489200E-2,6.169500351E-1,3.856050253E0,9.098999977E0,9.901593381E0
4.321950300E-2,6.550500393E-1,3.817050219E0,9.098999977E0,9.888921251E0
4.518231700E-2,6.169500351E-1,3.894000292E0,9.060000420E0,9.880661578E0
4.714565700E-2,6.169500351E-1,3.817050219E0,9.060000420E0,9.850589186E0
4.910864500E-2,6.550500393E-1,3.856050253E0,9.022050858E0,9.833392893E0
5.107176700E-2,5.790000558E-1,3.894000292E0,9.060000420E0,9.878364588E0
5.303519500E-2,6.940500140E-1,3.856050253E0,9.060000420E0,9.870888338E0
5.499853400E-2,6.550500393E-1,3.894000292E0,9.060000420E0,9.883113701E0
5.696161200E-2,6.550500393E-1,3.856050253E0,9.060000420E0,9.868222824E0
5.892476700E-2,6.169500351E-1,3.856050253E0,9.060000420E0,9.865767000E0
6.088780700E-2,6.940500140E-1,3.856050253E0,9.098999977E0,9.906696198E0
6.285089700E-2,6.550500393E-1,3.856050253E0,9.098999977E0,9.904040322E0
6.481415100E-2,6.550500393E-1,3.856050253E0,9.098999977E0,9.904040322E0
6.677735600E-2,6.940500140E-1,3.856050253E0,9.060000420E0,9.870888338E0
6.874072600E-2,6.550500393E-1,3.894000292E0,9.098999977E0,9.918877427E0
7.070404800E-2,6.550500393E-1,3.856050253E0,9.098999977E0,9.904040322E0
7.266730000E-2,6.169500351E-1,3.817050219E0,9.098999977E0,9.886470568E0
7.463057900E-2,6.550500393E-1,3.856050253E0,9.136950493E0,9.938917366E0
7.659375700E-2,6.550500393E-1,3.856050253E0,9.098999977E0,9.904040322E0
7.855696400E-2,6.550500393E-1,3.817050219E0,9.098999977E0,9.888921251E0
8.051988300E-2,6.169500351E-1,3.817050219E0,9.136950493E0,9.921409377E0
8.248288700E-2,6.550500393E-1,3.817050219E0,9.060000420E0,9.853048794E0
8.444589600E-2,6.550500393E-1,3.817050219E0,9.136950493E0,9.923851431E0
8.640892800E-2,6.169500351E-1,3.817050219E0,9.136950493E0,9.921409377E0
8.837187800E-2,6.550500393E-1,3.778950214E0,9.175050735E0,9.944401001E0
9.033485300E-2,6.940500140E-1,3.856050253E0,9.175050735E0,9.976591852E0
9.229794600E-2,6.550500393E-1,3.817050219E0,9.136950493E0,9.923851431E0
9.426100400E-2,6.550500393E-1,3.894000292E0,9.214050293E0,1.002452251E1
9.622418200E-2,6.550500393E-1,3.856050253E0,9.214050293E0,1.000984200E1
9.818735100E-2,6.169500351E-1,3.817050219E0,9.175050735E0,9.956508209E0
1.001504580E-1,6.550500393E-1,3.817050219E0,9.214050293E0,9.994882977E0
1.021135840E-1,6.940500140E-1,3.817050219E0,9.252000809E0,1.003250202E1
1.040768310E-1,6.940500140E-1,3.856050253E0,9.214050293E0,1.001246981E1
1.060400430E-1,6.169500351E-1,3.817050219E0,9.214050293E0,9.992458282E0
1.080030810E-1,6.550500393E-1,3.778950214E0,9.214050293E0,9.980394685E0
1.099661500E-1,6.940500140E-1,3.778950214E0,9.214050293E0,9.983030249E0
1.119292270E-1,6.550500393E-1,3.817050219E0,9.252000809E0,1.002987946E1
1.138923020E-1,6.940500140E-1,3.856050253E0,9.289950371E0,1.008236118E1
1.158553790E-1,6.550500393E-1,3.817050219E0,9.252000809E0,1.002987946E1
1.178184560E-1,6.940500140E-1,3.856050253E0,9.289950371E0,1.008236118E1
1.197813900E-1,6.940500140E-1,3.856050253E0,9.252000809E0,1.004740504E1
1.217443720E-1,6.940500140E-1,3.856050253E0,9.328050613E0,1.011747781E1
1.237076000E-1,6.940500140E-1,3.817050219E0,9.289950371E0,1.006750990E1
1.256707550E-1,6.550500393E-1,3.856050253E0,9.328050613E0,1.011487728E1
1.276336390E-1,6.550500393E-1,3.817050219E0,9.328050613E0,1.010007382E1
1.295966030E-1,6.940500140E-1,3.856050253E0,9.252000809E0,1.004740504E1
1.315593090E-1,6.550500393E-1,3.856050253E0,9.328050613E0,1.011487728E1
1.335221120E-1,6.940500140E-1,3.856050253E0,9.328050613E0,1.011747781E1
1.354849200E-1,6.940500140E-1,3.856050253E0,9.289950371E0,1.008236118E1
1.374477260E-1,6.940500140E-1,3.856050253E0,9.289950371E0,1.008236118E1
1.394109840E-1,6.940500140E-1,3.856050253E0,9.328050613E0,1.011747781E1
1.413741100E-1,7.320000529E-1,3.778950214E0,9.289950371E0,1.005581755E1
1.433368550E-1,7.320000529E-1,3.856050253E0,9.252000809E0,1.005009784E1
1.452997180E-1,7.320000529E-1,3.856050253E0,9.289950371E0,1.008504465E1
1.472630100E-1,7.699500322E-1,3.817050219E0,9.289950371E0,1.007302702E1
1.492261770E-1,7.320000529E-1,3.817050219E0,9.328050613E0,1.010535624E1
1.511895540E-1,7.320000529E-1,3.856050253E0,9.289950371E0,1.008504465E1
1.531528700E-1,7.320000529E-1,3.817050219E0,9.289950371E0,1.007019733E1
1.551157270E-1,6.940500140E-1,3.817050219E0,9.289950371E0,1.006750990E1
1.570787180E-1,7.320000529E-1,3.778950214E0,9.252000809E0,1.002076882E1
1.590416290E-1,6.940500140E-1,3.778950214E0,9.252000809E0,1.001806813E1
1.610045640E-1,6.940500140E-1,3.856050253E0,9.328050613E0,1.011747781E1
1.629677090E-1,6.940500140E-1,3.817050219E0,9.328050613E0,1.010267816E1
1.649307930E-1,7.320000529E-1,3.778950214E0,9.252000809E0,1.002076882E1
1.668941640E-1,7.320000529E-1,3.778950214E0,9.252000809E0,1.002076882E1
1.688574650E-1,6.550500393E-1,3.817050219E0,9.289950371E0,1.006489646E1
1.708208640E-1,7.320000529E-1,3.778950214E0,9.289950371E0,1.005581755E1
1.727842340E-1,6.940500140E-1,3.778950214E0,9.252000809E0,1.001806813E1
1.747473070E-1,6.940500140E-1,3.817050219E0,9.289950371E0,1.006750990E1
1.767104670E-1,7.320000529E-1,3.778950214E0,9.289950371E0,1.005581755E1
1.786733350E-1,6.940500140E-1,3.817050219E0,9.252000809E0,1.003250202E1
1.806362990E-1,6.940500140E-1,3.817050219E0,9.289950371E0,1.006750990E1
1.825995750E-1,6.550500393E-1,3.778950214E0,9.289950371E0,1.005050910E1
1.845627590E-1,6.940500140E-1,3.817050219E0,9.252000809E0,1.003250202E1
1.865257740E-1,6.940500140E-1,3.817050219E0,9.252000809E0,1.003250202E1
1.884888380E-1,6.940500140E-1,3.817050219E0,9.328050613E0,1.010267816E1
1.904521050E-1,6.550500393E-1,3.817050219E0,9.289950371E0,1.006489646E1
1.924153060E-1,7.320000529E-1,3.817050219E0,9.328050613E0,1.010535624E1
1.943782270E-1,6.940500140E-1,3.778950214E0,9.252000809E0,1.001806813E1
1.963412310E-1,6.940500140E-1,3.817050219E0,9.289950371E0,1.006750990E1
1.983046800E-1,7.699500322E-1,3.817050219E0,9.252000809E0,1.003803837E1
2.002679990E-1,7.320000529E-1,3.817050219E0,9.252000809E0,1.003519882E1
2.022308170E-1,7.320000529E-1,3.778950214E0,9.289950371E0,1.005581755E1
2.041938090E-1,6.550500393E-1,3.817050219E0,9.252000809E0,1.002987946E1
2.061570340E-1,6.940500140E-1,3.817050219E0,9.328050613E0,1.010267816E1
2.081201910E-1,6.940500140E-1,3.817050219E0,9.289950371E0,1.006750990E1
2.100828950E-1,6.550500393E-1,3.856050253E0,9.252000809E0,1.004478636E1
2.120457320E-1,6.550500393E-1,3.856050253E0,9.214050293E0,1.000984200E1
2.140086300E-1,6.550500393E-1,3.817050219E0,9.252000809E0,1.002987946E1
2.159715370E-1,6.940500140E-1,3.856050253E0,9.214050293E0,1.001246981E1
2.179346880E-1,6.550500393E-1,3.817050219E0,9.214050293E0,9.994882977E0
2.198977680E-1,6.940500140E-1,3.817050219E0,9.252000809E0,1.003250202E1
2.218609790E-1,6.550500393E-1,3.856050253E0,9.252000809E0,1.004478636E1
2.238241520E-1,6.169500351E-1,3.778950214E0,9.252000809E0,1.001302207E1
2.257870150E-1,6.550500393E-1,3.778950214E0,9.252000809E0,1.001544179E1
2.277499820E-1,7.320000529E-1,3.856050253E0,9.252000809E0,1.005009784E1
2.297125370E-1,6.940500140E-1,3.856050253E0,9.252000809E0,1.004740504E1
2.316752120E-1,7.320000529E-1,3.817050219E0,9.214050293E0,1.000022096E1
2.336381770E-1,6.169500351E-1,3.817050219E0,9.214050293E0,9.992458282E0
2.356010570E-1,6.550500393E-1,3.894000292E0,9.252000809E0,1.005941588E1
2.375638720E-1,6.169500351E-1,3.817050219E0,9.214050293E0,9.992458282E0
2.395266930E-1,6.550500393E-1,3.856050253E0,9.175050735E0,9.973954587E0
2.414895870E-1,6.550500393E-1,3.894000292E0,9.214050293E0,1.002452251E1
2.434524600E-1,6.550500393E-1,3.856050253E0,9.214050293E0,1.000984200E1
2.454153920E-1,6.940500140E-1,3.778950214E0,9.252000809E0,1.001806813E1
2.473783060E-1,6.550500393E-1,3.856050253E0,9.136950493E0,9.938917366E0
2.493410570E-1,6.940500140E-1,3.856050253E0,9.175050735E0,9.976591852E0
2.513038520E-1,6.940500140E-1,3.817050219E0,9.175050735E0,9.961582896E0
2.532670210E-1,6.940500140E-1,3.856050253E0,9.175050735E0,9.976591852E0
2.552300810E-1,6.940500140E-1,3.817050219E0,9.175050735E0,9.961582896E0
2.571931610E-1,6.940500140E-1,3.817050219E0,9.175050735E0,9.961582896E0
2.591562350E-1,6.550500393E-1,3.817050219E0,9.175050735E0,9.958941657E0
2.611191140E-1,6.169500351E-1,3.817050219E0,9.136950493E0,9.921409377E0
2.630820640E-1,6.940500140E-1,3.856050253E0,9.175050735E0,9.976591852E0
2.650451170E-1,6.550500393E-1,3.817050219E0,9.175050735E0,9.958941657E0
2.670081390E-1,6.550500393E-1,3.856050253E0,9.175050735E0,9.973954587E0
2.689710910E-1,6.940500140E-1,3.817050219E0,9.136950493E0,9.926502007E0
2.709340640E-1,6.550500393E-1,3.856050253E0,9.136950493E0,9.938917366E0
2.728971720E-1,6.550500393E-1,3.817050219E0,9.098999977E0,9.888921251E0
2.748602300E-1,6.550500393E-1,3.856050253E0,9.098999977E0,9.904040322E0
2.768234450E-1,6.550500393E-1,3.856050253E0,9.136950493E0,9.938917366E0
2.787866140E-1,6.550500393E-1,3.817050219E0,9.060000420E0,9.853048794E0
2.807497210E-1,6.169500351E-1,3.894000292E0,9.136950493E0,9.951267755E0
2.827128470E-1,6.169500351E-1,3.856050253E0,9.136950493E0,9.936479015E0
2.846757350E-1,6.169500351E-1,3.856050253E0,9.098999977E0,9.901593381E0
2.866386930E-1,5.790000558E-1,3.817050219E0,9.175050735E0,9.954228721E0
2.886016100E-1,6.169500351E-1,3.856050253E0,9.098999977E0,9.901593381E0
2.905645390E-1,6.169500351E-1,3.894000292E0,9.098999977E0,9.916434148E0
2.925274160E-1,6.169500351E-1,3.856050253E0,9.098999977E0,9.901593381E0
2.944903090E-1,5.790000558E-1,3.894000292E0,9.098999977E0,9.914145446E0
2.964525560E-1,6.169500351E-1,3.894000292E0,9.136950493E0,9.951267755E0
2.984149960E-1,5.790000558E-1,3.931950092E0,9.098999977E0,9.929112406E0
3.003787220E-1,6.169500351E-1,3.894000292E0,9.136950493E0,9.951267755E0
3.023420710E-1,6.169500351E-1,3.931950092E0,9.136950493E0,9.966178966E0
3.043049220E-1,6.169500351E-1,3.856050253E0,9.098999977E0,9.901593381E0
3.062679190E-1,5.790000558E-1,3.894000292E0,9.098999977E0,9.914145446E0
3.082311540E-1,5.790000558E-1,3.894000292E0,9.060000420E0,9.878364588E0
3.101943120E-1,6.169500351E-1,3.931950092E0,9.098999977E0,9.931397659E0
3.121568800E-1,6.169500351E-1,3.894000292E0,9.098999977E0,9.916434148E0
3.141196210E-1,6.550500393E-1,3.894000292E0,9.060000420E0,9.883113701E0
3.160820340E-1,6.169500351E-1,3.894000292E0,9.098999977E0,9.916434148E0
3.180445440E-1,6.169500351E-1,3.856050253E0,9.060000420E0,9.865767000E0
3.200070210E-1,6.550500393E-1,3.894000292E0,9.060000420E0,9.883113701E0
3.219694910E-1,6.169500351E-1,3.894000292E0,9.022050858E0,9.845875649E0
3.239324910E-1,6.169500351E-1,3.856050253E0,9.060000420E0,9.865767000E0
3.258953360E-1,6.550500393E-1,3.856050253E0,9.098999977E0,9.904040322E0
3.278582720E-1,6.550500393E-1,3.894000292E0,9.022050858E0,9.848336433E0
3.298211820E-1,6.550500393E-1,3.856050253E0,9.022050858E0,9.833392893E0
3.317840780E-1,6.940500140E-1,3.817050219E0,9.060000420E0,9.855718411E0
3.337469680E-1,6.169500351E-1,3.856050253E0,9.060000420E0,9.865767000E0
3.357102560E-1,6.940500140E-1,3.817050219E0,9.060000420E0,9.855718411E0
3.376734280E-1,6.940500140E-1,3.856050253E0,9.098999977E0,9.906696198E0
3.396364890E-1,7.320000529E-1,3.778950214E0,9.060000420E0,9.843774500E0
3.415995830E-1,6.940500140E-1,3.817050219E0,9.136950493E0,9.926502007E0
3.435626240E-1,6.940500140E-1,3.817050219E0,9.098999977E0,9.891581187E0
3.455257040E-1,7.320000529E-1,3.778950214E0,9.136950493E0,9.914643368E0
3.474884200E-1,7.320000529E-1,3.856050253E0,9.098999977E0,9.909427239E0
3.494512430E-1,6.940500140E-1,3.817050219E0,9.098999977E0,9.891581187E0
3.514141820E-1,6.940500140E-1,3.817050219E0,9.136950493E0,9.926502007E0
3.533770870E-1,6.940500140E-1,3.778950214E0,9.136950493E0,9.911913763E0
3.553401940E-1,6.940500140E-1,3.856050253E0,9.136950493E0,9.941563925E0
3.573032410E-1,7.320000529E-1,3.856050253E0,9.175050735E0,9.979303765E0
3.592663230E-1,7.320000529E-1,3.894000292E0,9.214050293E0,1.002984472E1
3.612293950E-1,6.940500140E-1,3.856050253E0,9.175050735E0,9.976591852E0
3.631921580E-1,7.320000529E-1,3.817050219E0,9.175050735E0,9.964298894E0
3.651550120E-1,6.940500140E-1,3.856050253E0,9.214050293E0,1.001246981E1
3.671179310E-1,6.550500393E-1,3.894000292E0,9.175050735E0,9.988687843E0
3.690808410E-1,6.940500140E-1,3.856050253E0,9.175050735E0,9.976591852E0
3.710439020E-1,6.169500351E-1,3.856050253E0,9.252000809E0,1.004237372E1
3.730069180E-1,6.550500393E-1,3.856050253E0,9.175050735E0,9.973954587E0
3.749696910E-1,6.550500393E-1,3.856050253E0,9.252000809E0,1.004478636E1
3.769325350E-1,6.169500351E-1,3.894000292E0,9.252000809E0,1.005700674E1
3.788954420E-1,6.550500393E-1,3.894000292E0,9.252000809E0,1.005941588E1
3.808583510E-1,6.940500140E-1,3.894000292E0,9.214050293E0,1.002714648E1
3.828210970E-1,6.550500393E-1,3.894000292E0,9.252000809E0,1.005941588E1
3.847838910E-1,6.169500351E-1,3.856050253E0,9.289950371E0,1.007734731E1
3.867460700E-1,6.169500351E-1,3.931950092E0,9.289950371E0,1.010663331E1
3.887084300E-1,5.410500169E-1,3.856050253E0,9.289950371E0,1.007298548E1
3.906720490E-1,6.169500351E-1,3.894000292E0,9.289950371E0,1.009192962E1
3.926352890E-1,6.550500393E-1,3.856050253E0,9.214050293E0,1.000984200E1
3.945981140E-1,5.790000558E-1,3.856050253E0,9.252000809E0,1.004011372E1
3.965610600E-1,5.790000558E-1,3.856050253E0,9.252000809E0,1.004011372E1
3.985238440E-1,6.169500351E-1,3.894000292E0,9.328050613E0,1.012701308E1
4.004866750E-1,5.790000558E-1,3.894000292E0,9.328050613E0,1.012477198E1
4.024497930E-1,6.550500393E-1,3.856050253E0,9.289950371E0,1.007975158E1
4.044128270E-1,6.940500140E-1,3.856050253E0,9.328050613E0,1.011747781E1
4.063756870E-1,6.940500140E-1,3.817050219E0,9.328050613E0,1.010267816E1
4.083385980E-1,6.169500351E-1,3.817050219E0,9.328050613E0,1.009767438E1
4.103015230E-1,6.550500393E-1,3.817050219E0,9.367050171E0,1.013610338E1
4.122644430E-1,6.550500393E-1,3.817050219E0,9.367050171E0,1.013610338E1
4.142273970E-1,6.550500393E-1,3.817050219E0,9.328050613E0,1.010007382E1
4.161903510E-1,6.940500140E-1,3.778950214E0,9.367050171E0,1.012441599E1
4.181528640E-1,6.550500393E-1,3.817050219E0,9.367050171E0,1.013610338E1
4.201155070E-1,6.940500140E-1,3.778950214E0,9.367050171E0,1.012441599E1
4.220783420E-1,6.550500393E-1,3.778950214E0,9.367050171E0,1.012181724E1
4.240411200E-1,7.320000529E-1,3.817050219E0,9.367050171E0,1.014136704E1
4.260040630E-1,6.940500140E-1,3.778950214E0,9.405000687E0,1.015953779E1
4.279669610E-1,6.940500140E-1,3.741000175E0,9.367050171E0,1.011031239E1
4.299302040E-1,6.940500140E-1,3.778950214E0,9.367050171E0,1.012441599E1
4.318933460E-1,6.550500393E-1,3.778950214E0,9.328050613E0,1.008573664E1
4.338564130E-1,6.940500140E-1,3.778950214E0,9.328050613E0,1.008834468E1
4.358195020E-1,6.940500140E-1,3.741000175E0,9.328050613E0,1.007419059E1
4.377825670E-1,7.320000529E-1,3.741000175E0,9.328050613E0,1.007687623E1
4.397456460E-1,6.940500140E-1,3.741000175E0,9.328050613E0,1.007419059E1
4.417087230E-1,7.320000529E-1,3.741000175E0,9.289950371E0,1.004161761E1
4.436718000E-1,6.940500140E-1,3.741000175E0,9.289950371E0,1.003892253E1
4.456349210E-1,6.940500140E-1,3.741000175E0,9.328050613E0,1.007419059E1
4.475980290E-1,7.699500322E-1,3.778950214E0,9.252000809E0,1.002361246E1
4.495612550E-1,7.320000529E-1,3.778950214E0,9.289950371E0,1.005581755E1
4.515244330E-1,7.699500322E-1,3.778950214E0,9.289950371E0,1.005865128E1
4.534878530E-1,6.940500140E-1,3.778950214E0,9.252000809E0,1.001806813E1
4.554512020E-1,7.320000529E-1,3.741000175E0,9.252000809E0,1.000651914E1
4.574144140E-1,6.940500140E-1,3.741000175E0,9.214050293E0,9.968726626E0
4.593776660E-1,7.699500322E-1,3.778950214E0,9.252000809E0,1.002361246E1
4.613407120E-1,7.320000529E-1,3.778950214E0,9.214050293E0,9.985740413E0
4.633038190E-1,7.699500322E-1,3.741000175E0,9.252000809E0,1.000936683E1
4.652671150E-1,7.320000529E-1,3.741000175E0,9.214050293E0,9.971440678E0
4.672303560E-1,6.940500140E-1,3.778950214E0,9.214050293E0,9.983030249E0
4.691935410E-1,6.940500140E-1,3.778950214E0,9.175050735E0,9.947046101E0
4.711567420E-1,7.320000529E-1,3.817050219E0,9.175050735E0,9.964298894E0
4.731202030E-1,7.699500322E-1,3.778950214E0,9.175050735E0,9.952629993E0
4.750835870E-1,7.320000529E-1,3.778950214E0,9.175050735E0,9.949766068E0
4.770469280E-1,7.320000529E-1,3.778950214E0,9.136950493E0,9.914643368E0
4.790102810E-1,7.320000529E-1,3.817050219E0,9.175050735E0,9.964298894E0
4.809736700E-1,7.320000529E-1,3.741000175E0,9.136950493E0,9.900240941E0
4.829370480E-1,7.320000529E-1,3.778950214E0,9.136950493E0,9.914643368E0
4.849000640E-1,7.320000529E-1,3.778950214E0,9.098999977E0,9.879680632E0
4.868631940E-1,7.320000529E-1,3.817050219E0,9.098999977E0,9.894316400E0
4.888259020E-1,7.320000529E-1,3.856050253E0,9.060000420E0,9.873629284E0
4.907887330E-1,6.550500393E-1,3.856050253E0,9.098999977E0,9.904040322E0
4.927518960E-1,6.940500140E-1,3.817050219E0,9.098999977E0,9.891581187E0
4.947149610E-1,6.940500140E-1,3.817050219E0,9.136950493E0,9.926502007E0
4.966781610E-1,6.940500140E-1,3.817050219E0,9.098999977E0,9.891581187E0
4.986413320E-1,7.699500322E-1,3.817050219E0,9.098999977E0,9.897196371E0
5.006040780E-1,6.940500140E-1,3.817050219E0,9.098999977E0,9.891581187E0
5.025669490E-1,6.940500140E-1,3.817050219E0,9.136950493E0,9.926502007E0
5.045302410E-1,7.320000529E-1,3.817050219E0,9.136950493E0,9.929227601E0
5.064934090E-1,6.940500140E-1,3.817050219E0,9.136950493E0,9.926502007E0
5.084562360E-1,7.320000529E-1,3.778950214E0,9.214050293E0,9.985740413E0
5.104191700E-1,7.320000529E-1,3.817050219E0,9.175050735E0,9.964298894E0
5.123819110E-1,6.940500140E-1,3.778950214E0,9.136950493E0,9.911913763E0
5.143447090E-1,7.320000529E-1,3.856050253E0,9.136950493E0,9.944285391E0
5.163075170E-1,6.940500140E-1,3.856050253E0,9.136950493E0,9.941563925E0
5.182703220E-1,6.940500140E-1,3.817050219E0,9.136950493E0,9.926502007E0
5.202332650E-1,6.940500140E-1,3.856050253E0,9.175050735E0,9.976591852E0
5.221961680E-1,6.940500140E-1,3.856050253E0,9.214050293E0,1.001246981E1
5.241592750E-1,6.940500140E-1,3.856050253E0,9.175050735E0,9.976591852E0
5.261223220E-1,6.940500140E-1,3.856050253E0,9.175050735E0,9.976591852E0
5.280855400E-1,6.550500393E-1,3.856050253E0,9.214050293E0,1.000984200E1
5.300487070E-1,6.940500140E-1,3.894000292E0,9.175050735E0,9.991321219E0
5.320117930E-1,6.550500393E-1,3.894000292E0,9.136950493E0,9.953702484E0
5.339748860E-1,6.550500393E-1,3.856050253E0,9.214050293E0,1.000984200E1
5.359378250E-1,6.550500393E-1,3.894000292E0,9.175050735E0,9.988687843E0
5.379008100E-1,6.550500393E-1,3.894000292E0,9.214050293E0,1.002452251E1
5.398639010E-1,6.550500393E-1,3.894000292E0,9.136950493E0,9.953702484E0
5.418269610E-1,6.169500351E-1,3.894000292E0,9.136950493E0,9.951267755E0
5.437902210E-1,6.169500351E-1,3.894000292E0,9.175050735E0,9.986261644E0
5.457534230E-1,5.790000558E-1,3.894000292E0,9.136950493E0,9.948987066E0
5.477162990E-1,6.550500393E-1,3.894000292E0,9.214050293E0,1.002452251E1
5.496792710E-1,6.550500393E-1,3.894000292E0,9.175050735E0,9.988687843E0
5.516425000E-1,5.790000558E-1,3.894000292E0,9.252000809E0,1.005475004E1
5.536056540E-1,6.550500393E-1,3.894000292E0,9.214050293E0,1.002452251E1
5.555687530E-1,5.790000558E-1,3.894000292E0,9.214050293E0,1.001984042E1
5.575318440E-1,6.169500351E-1,3.894000292E0,9.214050293E0,1.002210499E1
5.594949620E-1,6.169500351E-1,3.894000292E0,9.214050293E0,1.002210499E1
5.614580720E-1,6.550500393E-1,3.931950092E0,9.214050293E0,1.003932492E1
5.634213240E-1,6.550500393E-1,3.894000292E0,9.214050293E0,1.002452251E1
5.653845340E-1,6.169500351E-1,3.894000292E0,9.252000809E0,1.005700674E1
5.673475890E-1,6.550500393E-1,3.894000292E0,9.214050293E0,1.002452251E1
5.693106900E-1,6.169500351E-1,3.856050253E0,9.175050735E0,9.971524803E0
5.712742570E-1,5.790000558E-1,3.856050253E0,9.252000809E0,1.004011372E1
5.732376880E-1,6.169500351E-1,3.817050219E0,9.214050293E0,9.992458282E0
5.752010660E-1,6.169500351E-1,3.856050253E0,9.214050293E0,1.000742093E1
5.771644590E-1,6.169500351E-1,3.894000292E0,9.214050293E0,1.002210499E1
5.791273010E-1,6.550500393E-1,3.856050253E0,9.214050293E0,1.000984200E1
5.810903050E-1,5.790000558E-1,3.817050219E0,9.175050735E0,9.954228721E0
5.830535740E-1,6.550500393E-1,3.817050219E0,9.214050293E0,9.994882977E0
5.850167650E-1,7.320000529E-1,3.856050253E0,9.214050293E0,1.001517201E1
5.869798690E-1,6.550500393E-1,3.856050253E0,9.214050293E0,1.000984200E1
5.889429980E-1,6.550500393E-1,3.817050219E0,9.214050293E0,9.994882977E0
5.909062350E-1,6.550500393E-1,3.817050219E0,9.175050735E0,9.958941657E0
5.928694470E-1,6.169500351E-1,3.817050219E0,9.136950493E0,9.921409377E0
5.948328160E-1,6.550500393E-1,3.817050219E0,9.214050293E0,9.994882977E0
5.967961390E-1,6.550500393E-1,3.856050253E0,9.175050735E0,9.973954587E0
5.987592200E-1,6.550500393E-1,3.817050219E0,9.214050293E0,9.994882977E0
6.007223720E-1,6.169500351E-1,3.778950214E0,9.136950493E0,9.906813634E0
6.026854700E-1,6.940500140E-1,3.817050219E0,9.136950493E0,9.926502007E0
6.046485600E-1,6.550500393E-1,3.817050219E0,9.175050735E0,9.958941657E0
6.066119490E-1,6.550500393E-1,3.856050253E0,9.136950493E0,9.938917366E0
6.085752500E-1,6.550500393E-1,3.817050219E0,9.136950493E0,9.923851431E0
6.105384700E-1,6.550500393E-1,3.817050219E0,9.175050735E0,9.958941657E0
6.125017140E-1,6.550500393E-1,3.817050219E0,9.175050735E0,9.958941657E0
6.144648120E-1,6.940500140E-1,3.817050219E0,9.175050735E0,9.961582896E0
6.164279500E-1,6.940500140E-1,3.778950214E0,9.175050735E0,9.947046101E0
6.183911950E-1,7.320000529E-1,3.817050219E0,9.175050735E0,9.964298894E0
6.203544090E-1,6.940500140E-1,3.817050219E0,9.136950493E0,9.926502007E0
6.223178230E-1,7.320000529E-1,3.817050219E0,9.136950493E0,9.929227601E0
6.242811780E-1,7.320000529E-1,3.778950214E0,9.136950493E0,9.914643368E0
6.262446980E-1,7.320000529E-1,3.817050219E0,9.136950493E0,9.929227601E0
6.282081730E-1,7.320000529E-1,3.856050253E0,9.175050735E0,9.979303765E0
6.301714080E-1,7.320000529E-1,3.817050219E0,9.136950493E0,9.929227601E0
6.321347140E-1,7.320000529E-1,3.856050253E0,9.175050735E0,9.979303765E0
6.340978870E-1,6.940500140E-1,3.856050253E0,9.175050735E0,9.976591852E0
6.360610990E-1,6.550500393E-1,3.894000292E0,9.175050735E0,9.988687843E0
6.380241420E-1,6.940500140E-1,3.856050253E0,9.136950493E0,9.941563925E0
6.399872420E-1,7.320000529E-1,3.817050219E0,9.136950493E0,9.929227601E0
6.419501350E-1,6.940500140E-1,3.817050219E0,9.136950493E0,9.926502007E0
6.439130890E-1,6.550500393E-1,3.856050253E0,9.175050735E0,9.973954587E0
6.458762310E-1,6.940500140E-1,3.894000292E0,9.136950493E0,9.956345113E0
6.478393170E-1,7.320000529E-1,3.856050253E0,9.175050735E0,9.979303765E0
6.498022140E-1,6.940500140E-1,3.856050253E0,9.136950493E0,9.941563925E0
6.517651660E-1,6.940500140E-1,3.817050219E0,9.175050735E0,9.961582896E0
6.537278580E-1,7.320000529E-1,3.817050219E0,9.175050735E0,9.964298894E0
6.556906270E-1,6.940500140E-1,3.817050219E0,9.175050735E0,9.961582896E0
6.576538010E-1,7.699500322E-1,3.817050219E0,9.175050735E0,9.967158643E0
6.596168560E-1,6.940500140E-1,3.817050219E0,9.136950493E0,9.926502007E0
6.615799370E-1,6.940500140E-1,3.817050219E0,9.214050293E0,9.997514721E0
6.635430100E-1,7.320000529E-1,3.856050253E0,9.175050735E0,9.979303765E0
6.655060880E-1,7.699500322E-1,3.817050219E0,9.214050293E0,1.000307044E1
6.674691640E-1,7.320000529E-1,3.856050253E0,9.175050735E0,9.979303765E0
6.694322410E-1,7.320000529E-1,3.856050253E0,9.175050735E0,9.979303765E0
6.713953170E-1,6.940500140E-1,3.817050219E0,9.175050735E0,9.961582896E0
6.733585250E-1,6.940500140E-1,3.817050219E0,9.175050735E0,9.961582896E0
6.753216970E-1,6.940500140E-1,3.856050253E0,9.252000809E0,1.004740504E1
6.772848040E-1,6.550500393E-1,3.856050253E0,9.252000809E0,1.004478636E1
6.792479300E-1,6.550500393E-1,3.817050219E0,9.252000809E0,1.002987946E1
6.812111770E-1,6.940500140E-1,3.817050219E0,9.252000809E0,1.003250202E1
6.831743890E-1,6.550500393E-1,3.856050253E0,9.214050293E0,1.000984200E1
6.851372790E-1,6.550500393E-1,3.856050253E0,9.214050293E0,1.000984200E1
6.871002530E-1,6.940500140E-1,3.856050253E0,9.214050293E0,1.001246981E1
6.890633010E-1,6.169500351E-1,3.856050253E0,9.252000809E0,1.004237372E1
6.910263270E-1,6.550500393E-1,3.856050253E0,9.252000809E0,1.004478636E1
6.929892340E-1,6.169500351E-1,3.894000292E0,9.214050293E0,1.002210499E1
6.949521760E-1,6.169500351E-1,3.856050253E0,9.252000809E0,1.004237372E1
6.969149600E-1,6.940500140E-1,3.817050219E0,9.252000809E0,1.003250202E1
6.988777910E-1,6.940500140E-1,3.856050253E0,9.289950371E0,1.008236118E1
7.008406840E-1,6.940500140E-1,3.856050253E0,9.252000809E0,1.004740504E1
7.028035580E-1,6.940500140E-1,3.856050253E0,9.289950371E0,1.008236118E1
7.047665350E-1,6.550500393E-1,3.856050253E0,9.289950371E0,1.007975158E1
7.067294810E-1,6.550500393E-1,3.817050219E0,9.289950371E0,1.006489646E1
7.086923960E-1,6.940500140E-1,3.856050253E0,9.289950371E0,1.008236118E1
7.106553240E-1,6.940500140E-1,3.817050219E0,9.289950371E0,1.006750990E1
7.126183800E-1,6.550500393E-1,3.856050253E0,9.252000809E0,1.004478636E1
7.145813980E-1,7.320000529E-1,3.817050219E0,9.289950371E0,1.007019733E1
7.165445300E-1,6.550500393E-1,3.894000292E0,9.328050613E0,1.012940556E1
7.185076290E-1,6.550500393E-1,3.894000292E0,9.328050613E0,1.012940556E1
7.204706800E-1,6.169500351E-1,3.817050219E0,9.289950371E0,1.006248864E1
7.224337620E-1,6.550500393E-1,3.856050253E0,9.289950371E0,1.007975158E1
7.243969720E-1,6.169500351E-1,3.817050219E0,9.367050171E0,1.013371248E1
7.263601450E-1,6.169500351E-1,3.856050253E0,9.328050613E0,1.011248135E1
7.283233850E-1,6.169500351E-1,3.817050219E0,9.289950371E0,1.006248864E1
7.302866060E-1,6.169500351E-1,3.856050253E0,9.289950371E0,1.007734731E1
7.322499900E-1,6.550500393E-1,3.817050219E0,9.289950371E0,1.006489646E1
7.342133460E-1,6.550500393E-1,3.817050219E0,9.289950371E0,1.006489646E1
7.361763760E-1,6.169500351E-1,3.894000292E0,9.289950371E0,1.009192962E1
7.381395020E-1,6.169500351E-1,3.856050253E0,9.252000809E0,1.004237372E1
7.401027500E-1,6.169500351E-1,3.817050219E0,9.289950371E0,1.006248864E1
7.420659620E-1,6.169500351E-1,3.856050253E0,9.289950371E0,1.007734731E1
7.440289970E-1,6.550500393E-1,3.856050253E0,9.252000809E0,1.004478636E1
7.459920980E-1,6.940500140E-1,3.817050219E0,9.252000809E0,1.003250202E1
7.479546750E-1,6.550500393E-1,3.817050219E0,9.289950371E0,1.006489646E1
7.499174050E-1,6.169500351E-1,3.817050219E0,9.214050293E0,9.992458282E0
7.518803160E-1,6.550500393E-1,3.856050253E0,9.252000809E0,1.004478636E1
7.538431730E-1,6.550500393E-1,3.817050219E0,9.252000809E0,1.002987946E1
7.558061220E-1,6.550500393E-1,3.817050219E0,9.214050293E0,9.994882977E0
7.577690340E-1,5.790000558E-1,3.856050253E0,9.136950493E0,9.934194931E0
7.597320040E-1,6.550500393E-1,3.856050253E0,9.136950493E0,9.938917366E0
7.616949570E-1,6.940500140E-1,3.856050253E0,9.214050293E0,1.001246981E1
7.636580100E-1,6.550500393E-1,3.856050253E0,9.214050293E0,1.000984200E1
7.656210340E-1,6.169500351E-1,3.856050253E0,9.175050735E0,9.971524803E0
7.675839860E-1,6.940500140E-1,3.856050253E0,9.175050735E0,9.976591852E0
7.695469590E-1,7.320000529E-1,3.856050253E0,9.175050735E0,9.979303765E0
7.715096480E-1,6.169500351E-1,3.817050219E0,9.214050293E0,9.992458282E0
7.734724200E-1,6.169500351E-1,3.856050253E0,9.175050735E0,9.971524803E0
7.754352330E-1,6.550500393E-1,3.856050253E0,9.136950493E0,9.938917366E0
7.773980340E-1,6.169500351E-1,3.856050253E0,9.175050735E0,9.971524803E0
7.793609330E-1,6.940500140E-1,3.817050219E0,9.136950493E0,9.926502007E0
7.813238030E-1,6.550500393E-1,3.856050253E0,9.136950493E0,9.938917366E0
7.832866010E-1,6.550500393E-1,3.856050253E0,9.098999977E0,9.904040322E0
7.852494210E-1,6.550500393E-1,3.856050253E0,9.136950493E0,9.938917366E0
7.872123610E-1,6.940500140E-1,3.856050253E0,9.136950493E0,9.941563925E0
7.891752650E-1,6.940500140E-1,3.856050253E0,9.098999977E0,9.906696198E0
7.911381760E-1,6.550500393E-1,3.856050253E0,9.098999977E0,9.904040322E0
7.931010960E-1,6.550500393E-1,3.856050253E0,9.098999977E0,9.904040322E0
7.950641550E-1,6.550500393E-1,3.817050219E0,9.098999977E0,9.888921251E0
7.970271730E-1,6.550500393E-1,3.856050253E0,9.098999977E0,9.904040322E0
7.989900810E-1,6.940500140E-1,3.817050219E0,9.136950493E0,9.926502007E0
8.009530210E-1,6.169500351E-1,3.817050219E0,9.098999977E0,9.886470568E0
8.029159560E-1,6.940500140E-1,3.817050219E0,9.136950493E0,9.926502007E0
8.048788820E-1,6.940500140E-1,3.817050219E0,9.175050735E0,9.961582896E0
8.068418040E-1,6.550500393E-1,3.817050219E0,9.098999977E0,9.888921251E0
8.088047280E-1,6.550500393E-1,3.856050253E0,9.136950493E0,9.938917366E0
8.107676950E-1,6.940500140E-1,3.817050219E0,9.175050735E0,9.961582896E0
8.127306490E-1,6.940500140E-1,3.856050253E0,9.136950493E0,9.941563925E0
8.146937560E-1,7.320000529E-1,3.817050219E0,9.136950493E0,9.929227601E0
8.166568120E-1,6.940500140E-1,3.817050219E0,9.136950493E0,9.926502007E0
8.186197130E-1,6.550500393E-1,3.817050219E0,9.175050735E0,9.958941657E0
8.205826600E-1,6.550500393E-1,3.856050253E0,9.175050735E0,9.973954587E0
8.225455340E-1,6.940500140E-1,3.856050253E0,9.214050293E0,1.001246981E1
8.245084300E-1,6.940500140E-1,3.856050253E0,9.214050293E0,1.001246981E1
8.264713780E-1,6.550500393E-1,3.817050219E0,9.136950493E0,9.923851431E0
8.284343270E-1,6.940500140E-1,3.817050219E0,9.175050735E0,9.961582896E0
8.303974260E-1,6.940500140E-1,3.856050253E0,9.175050735E0,9.976591852E0
8.323604810E-1,6.940500140E-1,3.856050253E0,9.175050735E0,9.976591852E0
8.343235610E-1,6.940500140E-1,3.817050219E0,9.175050735E0,9.961582896E0
8.362866340E-1,6.940500140E-1,3.817050219E0,9.214050293E0,9.997514721E0
8.382498230E-1,6.940500140E-1,3.817050219E0,9.214050293E0,9.997514721E0
8.402129950E-1,6.940500140E-1,3.856050253E0,9.214050293E0,1.001246981E1
8.421757410E-1,6.940500140E-1,3.856050253E0,9.214050293E0,1.001246981E1
8.441386120E-1,6.940500140E-1,3.778950214E0,9.214050293E0,9.983030249E0
8.461018590E-1,7.320000529E-1,3.856050253E0,9.214050293E0,1.001517201E1
8.480649950E-1,6.940500140E-1,3.817050219E0,9.175050735E0,9.961582896E0
8.500280490E-1,6.940500140E-1,3.856050253E0,9.175050735E0,9.976591852E0
8.519911370E-1,6.940500140E-1,3.817050219E0,9.214050293E0,9.997514721E0
8.539538510E-1,6.940500140E-1,3.856050253E0,9.136950493E0,9.941563925E0
8.559166750E-1,6.940500140E-1,3.817050219E0,9.136950493E0,9.926502007E0
8.578796590E-1,6.940500140E-1,3.817050219E0,9.175050735E0,9.961582896E0
8.598425960E-1,6.550500393E-1,3.856050253E0,9.136950493E0,9.938917366E0
8.618054630E-1,6.940500140E-1,3.894000292E0,9.175050735E0,9.991321219E0
8.637683580E-1,6.550500393E-1,3.856050253E0,9.136950493E0,9.938917366E0
8.657311050E-1,6.940500140E-1,3.817050219E0,9.136950493E0,9.926502007E0
8.676938960E-1,7.699500322E-1,3.817050219E0,9.175050735E0,9.967158643E0
8.696570210E-1,6.940500140E-1,3.856050253E0,9.136950493E0,9.941563925E0
8.716200480E-1,6.940500140E-1,3.856050253E0,9.175050735E0,9.976591852E0
8.735831690E-1,7.320000529E-1,3.817050219E0,9.136950493E0,9.929227601E0
8.755462690E-1,6.550500393E-1,3.856050253E0,9.175050735E0,9.973954587E0
8.775091630E-1,7.320000529E-1,3.856050253E0,9.136950493E0,9.944285391E0
8.794721170E-1,7.320000529E-1,3.856050253E0,9.175050735E0,9.979303765E0
8.814353940E-1,7.320000529E-1,3.856050253E0,9.175050735E0,9.979303765E0
8.833985770E-1,7.699500322E-1,3.856050253E0,9.214050293E0,1.001801724E1
8.853615910E-1,7.320000529E-1,3.817050219E0,9.175050735E0,9.964298894E0
8.873246550E-1,6.940500140E-1,3.817050219E0,9.214050293E0,9.997514721E0
8.892873740E-1,7.320000529E-1,3.856050253E0,9.214050293E0,1.001517201E1
8.912501940E-1,7.699500322E-1,3.817050219E0,9.175050735E0,9.967158643E0
8.932131790E-1,7.699500322E-1,3.817050219E0,9.175050735E0,9.967158643E0
8.951761150E-1,8.089500666E-1,3.778950214E0,9.175050735E0,9.955723024E0
8.971393630E-1,7.320000529E-1,3.817050219E0,9.214050293E0,1.000022096E1
8.991025430E-1,6.940500140E-1,3.817050219E0,9.252000809E0,1.003250202E1
9.010657370E-1,7.699500322E-1,3.856050253E0,9.214050293E0,1.001801724E1
9.030289270E-1,7.320000529E-1,3.856050253E0,9.214050293E0,1.001517201E1
9.049922100E-1,7.320000529E-1,3.894000292E0,9.252000809E0,1.006471963E1
9.069554660E-1,6.940500140E-1,3.856050253E0,9.252000809E0,1.004740504E1
9.089187020E-1,6.550500393E-1,3.856050253E0,9.214050293E0,1.000984200E1
9.108819380E-1,7.699500322E-1,3.817050219E0,9.252000809E0,1.003803837E1
9.128451230E-1,6.940500140E-1,3.817050219E0,9.252000809E0,1.003250202E1
9.148083230E-1,7.699500322E-1,3.856050253E0,9.214050293E0,1.001801724E1
9.167712430E-1,6.940500140E-1,3.817050219E0,9.214050293E0,9.997514721E0
9.187342460E-1,6.940500140E-1,3.817050219E0,9.214050293E0,9.997514721E0
9.206976650E-1,6.940500140E-1,3.856050253E0,9.175050735E0,9.976591852E0
9.226609510E-1,6.550500393E-1,3.856050253E0,9.214050293E0,1.000984200E1
9.246239930E-1,6.169500351E-1,3.817050219E0,9.175050735E0,9.956508209E0
9.265871070E-1,6.940500140E-1,3.856050253E0,9.214050293E0,1.001246981E1
9.285498620E-1,6.940500140E-1,3.817050219E0,9.214050293E0,9.997514721E0
9.305127220E-1,6.940500140E-1,3.856050253E0,9.214050293E0,1.001246981E1
9.324756350E-1,6.940500140E-1,3.817050219E0,9.214050293E0,9.997514721E0
9.344385470E-1,6.550500393E-1,3.856050253E0,9.175050735E0,9.973954587E0
9.364012930E-1,6.940500140E-1,3.817050219E0,9.214050293E0,9.997514721E0
9.383640870E-1,6.940500140E-1,3.856050253E0,9.214050293E0,1.001246981E1
9.403272110E-1,6.940500140E-1,3.856050253E0,9.252000809E0,1.004740504E1
9.422902390E-1,6.550500393E-1,3.817050219E0,9.214050293E0,9.994882977E0
9.442534960E-1,6.940500140E-1,3.856050253E0,9.252000809E0,1.004740504E1
9.462166920E-1,6.940500140E-1,3.817050219E0,9.252000809E0,1.003250202E1
9.481795690E-1,6.550500393E-1,3.856050253E0,9.252000809E0,1.004478636E1
9.501425400E-1,7.320000529E-1,3.856050253E0,9.214050293E0,1.001517201E1
9.521056340E-1,6.169500351E-1,3.856050253E0,9.252000809E0,1.004237372E1
9.540686920E-1,6.550500393E-1,3.817050219E0,9.252000809E0,1.002987946E1
9.560320920E-1,6.550500393E-1,3.817050219E0,9.214050293E0,9.994882977E0
9.579953890E-1,7.320000529E-1,3.817050219E0,9.252000809E0,1.003519882E1
9.599587890E-1,6.550500393E-1,3.894000292E0,9.214050293E0,1.002452251E1
9.619221580E-1,6.550500393E-1,3.856050253E0,9.252000809E0,1.004478636E1
9.638853660E-1,6.940500140E-1,3.817050219E0,9.289950371E0,1.006750990E1
9.658486220E-1,6.550500393E-1,3.817050219E0,9.252000809E0,1.002987946E1
9.678119010E-1,6.550500393E-1,3.817050219E0,9.252000809E0,1.002987946E1
9.697751670E-1,6.550500393E-1,3.817050219E0,9.252000809E0,1.002987946E1
9.717383930E-1,6.550500393E-1,3.817050219E0,9.252000809E0,1.002987946E1
9.737016310E-1,6.550500393E-1,3.856050253E0,9.214050293E0,1.000984200E1
9.756646350E-1,6.550500393E-1,3.856050253E0,9.252000809E0,1.004478636E1
9.776277080E-1,6.940500140E-1,3.894000292E0,9.252000809E0,1.006203074E1
9.795909770E-1,6.940500140E-1,3.856050253E0,9.214050293E0,1.001246981E1
9.815542110E-1,6.169500351E-1,3.856050253E0,9.214050293E0,1.000742093E1
9.835175760E-1,6.550500393E-1,3.856050253E0,9.214050293E0,1.000984200E1
9.854809030E-1,6.940500140E-1,3.894000292E0,9.252000809E0,1.006203074E1
9.874439380E-1,6.169500351E-1,3.894000292E0,9.214050293E0,1.002210499E1
9.894070590E-1,6.550500393E-1,3.894000292E0,9.214050293E0,1.002452251E1
9.913700790E-1,5.790000558E-1,3.856050253E0,9.175050735E0,9.969248749E0
9.933331640E-1,5.790000558E-1,3.856050253E0,9.175050735E0,9.969248749E0
9.952962840E-1,6.169500351E-1,3.817050219E0,9.214050293E0,9.992458282E0
9.972593930E-1,6.169500351E-1,3.931950092E0,9.252000809E0,1.007176141E1
9.992224660E-1,6.169500351E-1,3.894000292E0,9.175050735E0,9.986261644E0
1.001185549E0,6.169500351E-1,3.931950092E0,9.252000809E0,1.007176141E1
1.003148616E0,6.550500393E-1,3.894000292E0,9.214050293E0,1.002452251E1
1.005111694E0,6.169500351E-1,3.856050253E0,9.214050293E0,1.000742093E1
1.007074545E0,6.169500351E-1,3.856050253E0,9.214050293E0,1.000742093E1
1.009037463E0,6.169500351E-1,3.856050253E0,9.252000809E0,1.004237372E1
1.011000206E0,6.550500393E-1,3.856050253E0,9.214050293E0,1.000984200E1
1.012963001E0,5.790000558E-1,3.856050253E0,9.214050293E0,1.000515304E1
1.014926038E0,6.169500351E-1,3.856050253E0,9.175050735E0,9.971524803E0
1.016888970E0,6.550500393E-1,3.894000292E0,9.252000809E0,1.005941588E1
1.018851893E0,6.169500351E-1,3.856050253E0,9.252000809E0,1.004237372E1
1.020814819E0,6.550500393E-1,3.856050253E0,9.175050735E0,9.973954587E0
1.022777875E0,5.790000558E-1,3.894000292E0,9.252000809E0,1.005475004E1
1.024740893E0,6.550500393E-1,3.856050253E0,9.175050735E0,9.973954587E0
1.026703855E0,6.550500393E-1,3.856050253E0,9.214050293E0,1.000984200E1
1.028666828E0,6.940500140E-1,3.894000292E0,9.252000809E0,1.006203074E1
1.030629562E0,6.550500393E-1,3.856050253E0,9.175050735E0,9.973954587E0
1.032592366E0,6.550500393E-1,3.856050253E0,9.214050293E0,1.000984200E1
1.034555489E0,6.550500393E-1,3.894000292E0,9.214050293E0,1.002452251E1
1.036518518E0,6.550500393E-1,3.817050219E0,9.175050735E0,9.958941657E0
1.038481812E0,6.940500140E-1,3.856050253E0,9.214050293E0,1.001246981E1
1.040445008E0,6.550500393E-1,3.817050219E0,9.214050293E0,9.994882977E0
1.042408201E0,6.169500351E-1,3.856050253E0,9.175050735E0,9.971524803E0
1.044371395E0,7.320000529E-1,3.817050219E0,9.175050735E0,9.964298894E0
1.046334676E0,6.550500393E-1,3.856050253E0,9.175050735E0,9.973954587E0
1.048297932E0,6.940500140E-1,3.856050253E0,9.175050735E0,9.976591852E0
1.050261138E0,7.320000529E-1,3.856050253E0,9.098999977E0,9.909427239E0
1.052224342E0,6.550500393E-1,3.856050253E0,9.136950493E0,9.938917366E0
1.054187442E0,7.320000529E-1,3.856050253E0,9.136950493E0,9.944285391E0
1.056150573E0,6.940500140E-1,3.817050219E0,9.175050735E0,9.961582896E0
1.058113641E0,6.940500140E-1,3.817050219E0,9.136950493E0,9.926502007E0
1.060076727E0,6.940500140E-1,3.817050219E0,9.175050735E0,9.961582896E0
1.062039812E0,6.550500393E-1,3.817050219E0,9.136950493E0,9.923851431E0
1.064002891E0,6.550500393E-1,3.817050219E0,9.098999977E0,9.888921251E0
1.065965787E0,6.940500140E-1,3.856050253E0,9.214050293E0,1.001246981E1
1.067928737E0,6.550500393E-1,3.817050219E0,9.175050735E0,9.958941657E0
1.069892195E0,6.940500140E-1,3.856050253E0,9.136950493E0,9.941563925E0
1.071855504E0,6.550500393E-1,3.817050219E0,9.175050735E0,9.958941657E0
1.073818708E0,6.550500393E-1,3.817050219E0,9.175050735E0,9.958941657E0
1.075781953E0,6.550500393E-1,3.817050219E0,9.175050735E0,9.958941657E0
1.077745001E0,6.550500393E-1,3.856050253E0,9.175050735E0,9.973954587E0
1.079708106E0,6.940500140E-1,3.817050219E0,9.175050735E0,9.961582896E0
1.081671358E0,6.550500393E-1,3.856050253E0,9.175050735E0,9.973954587E0
1.083634566E0,6.169500351E-1,3.856050253E0,9.136950493E0,9.936479015E0
1.085597495E0,6.169500351E-1,3.817050219E0,9.175050735E0,9.956508209E0
1.087560468E0,6.169500351E-1,3.856050253E0,9.214050293E0,1.000742093E1
1.089523562E0,6.169500351E-1,3.856050253E0,9.136950493E0,9.936479015E0
1.091486620E0,6.550500393E-1,3.856050253E0,9.136950493E0,9.938917366E0
1.093449476E0,6.550500393E-1,3.856050253E0,9.175050735E0,9.973954587E0
1.095412391E0,6.550500393E-1,3.856050253E0,9.136950493E0,9.938917366E0
1.097375015E0,6.169500351E-1,3.856050253E0,9.175050735E0,9.971524803E0
1.099337714E0,6.169500351E-1,3.894000292E0,9.136950493E0,9.951267755E0
1.101300674E0,6.169500351E-1,3.894000292E0,9.098999977E0,9.916434148E0
1.103263558E0,6.550500393E-1,3.856050253E0,9.175050735E0,9.973954587E0
1.105226849E0,6.169500351E-1,3.894000292E0,9.098999977E0,9.916434148E0
1.107190020E0,6.169500351E-1,3.856050253E0,9.136950493E0,9.936479015E0
1.109152880E0,6.169500351E-1,3.894000292E0,9.136950493E0,9.951267755E0
1.111115815E0,6.940500140E-1,3.856050253E0,9.136950493E0,9.941563925E0
1.113079321E0,6.169500351E-1,3.894000292E0,9.098999977E0,9.916434148E0
1.115042659E0,6.550500393E-1,3.856050253E0,9.136950493E0,9.938917366E0
1.117005828E0,6.550500393E-1,3.894000292E0,9.098999977E0,9.918877427E0
1.118969046E0,6.550500393E-1,3.856050253E0,9.098999977E0,9.904040322E0
1.120931996E0,6.940500140E-1,3.856050253E0,9.098999977E0,9.906696198E0
1.122895002E0,6.550500393E-1,3.856050253E0,9.136950493E0,9.938917366E0
1.124858090E0,7.320000529E-1,3.856050253E0,9.098999977E0,9.909427239E0
1.126821154E0,6.940500140E-1,3.856050253E0,9.175050735E0,9.976591852E0
1.128784368E0,6.940500140E-1,3.856050253E0,9.098999977E0,9.906696198E0
1.130747538E0,7.320000529E-1,3.856050253E0,9.098999977E0,9.909427239E0
1.132710305E0,7.320000529E-1,3.817050219E0,9.098999977E0,9.894316400E0
1.134673176E0,7.699500322E-1,3.894000292E0,9.098999977E0,9.927127576E0
1.136636107E0,7.320000529E-1,3.856050253E0,9.098999977E0,9.909427239E0
1.138599020E0,6.940500140E-1,3.856050253E0,9.175050735E0,9.976591852E0
1.140561720E0,6.940500140E-1,3.856050253E0,9.136950493E0,9.941563925E0
1.142524483E0,7.320000529E-1,3.856050253E0,9.098999977E0,9.909427239E0
1.144486933E0,6.940500140E-1,3.856050253E0,9.098999977E0,9.906696198E0
1.146449478E0,7.320000529E-1,3.817050219E0,9.098999977E0,9.894316400E0
1.148412420E0,7.320000529E-1,3.856050253E0,9.136950493E0,9.944285391E0
1.150375246E0,7.699500322E-1,3.856050253E0,9.175050735E0,9.982159216E0
1.152338006E0,7.320000529E-1,3.894000292E0,9.136950493E0,9.959062539E0
1.154300786E0,7.320000529E-1,3.856050253E0,9.136950493E0,9.944285391E0
1.156263606E0,7.699500322E-1,3.817050219E0,9.136950493E0,9.932097449E0
1.158226408E0,6.940500140E-1,3.817050219E0,9.214050293E0,9.997514721E0
1.160189307E0,7.320000529E-1,3.894000292E0,9.175050735E0,9.994029135E0
1.162152178E0,7.320000529E-1,3.856050253E0,9.175050735E0,9.979303765E0
1.164114976E0,6.940500140E-1,3.856050253E0,9.214050293E0,1.001246981E1
1.166077795E0,7.320000529E-1,3.894000292E0,9.214050293E0,1.002984472E1
1.168040783E0,6.940500140E-1,3.856050253E0,9.175050735E0,9.976591852E0
1.170003687E0,6.550500393E-1,3.894000292E0,9.214050293E0,1.002452251E1
1.171966435E0,6.550500393E-1,3.856050253E0,9.214050293E0,1.000984200E1
1.173929228E0,6.550500393E-1,3.856050253E0,9.214050293E0,1.000984200E1
1.175892127E0,6.169500351E-1,3.856050253E0,9.214050293E0,1.000742093E1
1.177854995E0,6.550500393E-1,3.894000292E0,9.289950371E0,1.009433042E1
1.179817976E0,6.169500351E-1,3.856050253E0,9.252000809E0,1.004237372E1
1.181780889E0,6.940500140E-1,3.856050253E0,9.252000809E0,1.004740504E1
1.183743635E0,6.940500140E-1,3.856050253E0,9.252000809E0,1.004740504E1
1.185706430E0,6.550500393E-1,3.894000292E0,9.289950371E0,1.009433042E1
1.187669554E0,6.940500140E-1,3.856050253E0,9.252000809E0,1.004740504E1
1.189632581E0,6.169500351E-1,3.894000292E0,9.289950371E0,1.009192962E1
1.191595862E0,6.940500140E-1,3.817050219E0,9.252000809E0,1.003250202E1
1.193559058E0,6.550500393E-1,3.894000292E0,9.252000809E0,1.005941588E1
1.195522340E0,6.550500393E-1,3.894000292E0,9.289950371E0,1.009433042E1
1.197485597E0,6.940500140E-1,3.856050253E0,9.289950371E0,1.008236118E1
1.199448644E0,6.940500140E-1,3.856050253E0,9.328050613E0,1.011747781E1
1.201411752E0,7.320000529E-1,3.817050219E0,9.328050613E0,1.010535624E1
1.203374649E0,7.320000529E-1,3.817050219E0,9.289950371E0,1.007019733E1
1.205337604E0,6.550500393E-1,3.856050253E0,9.289950371E0,1.007975158E1
1.207300655E0,7.320000529E-1,3.856050253E0,9.328050613E0,1.012015197E1
1.209263678E0,6.940500140E-1,3.856050253E0,9.367050171E0,1.015344562E1
1.211226809E0,7.320000529E-1,3.856050253E0,9.367050171E0,1.015611031E1
1.213189909E0,6.940500140E-1,3.778950214E0,9.328050613E0,1.008834468E1
1.215153131E0,6.550500393E-1,3.778950214E0,9.367050171E0,1.012181724E1
1.217116308E0,6.169500351E-1,3.817050219E0,9.328050613E0,1.009767438E1
1.219079414E0,6.940500140E-1,3.817050219E0,9.328050613E0,1.010267816E1
1.221042541E0,7.320000529E-1,3.778950214E0,9.328050613E0,1.009102656E1
1.223005609E0,6.550500393E-1,3.817050219E0,9.367050171E0,1.013610338E1
1.224968694E0,6.550500393E-1,3.778950214E0,9.289950371E0,1.005050910E1
1.226931719E0,7.320000529E-1,3.817050219E0,9.328050613E0,1.010535624E1
1.228894766E0,6.940500140E-1,3.778950214E0,9.289950371E0,1.005312628E1
1.230857713E0,6.940500140E-1,3.778950214E0,9.289950371E0,1.005312628E1
1.232820690E0,6.550500393E-1,3.778950214E0,9.328050613E0,1.008573664E1
1.234783782E0,7.320000529E-1,3.778950214E0,9.328050613E0,1.009102656E1
1.236746841E0,6.940500140E-1,3.778950214E0,9.289950371E0,1.005312628E1
1.238709863E0,6.940500140E-1,3.741000175E0,9.252000809E0,1.000381461E1
1.240672906E0,6.169500351E-1,3.778950214E0,9.252000809E0,1.001302207E1
1.242635448E0,6.940500140E-1,3.778950214E0,9.252000809E0,1.001806813E1
1.244598137E0,6.940500140E-1,3.778950214E0,9.252000809E0,1.001806813E1
1.246560785E0,6.940500140E-1,3.778950214E0,9.214050293E0,9.983030249E0
1.248523445E0,7.320000529E-1,3.817050219E0,9.252000809E0,1.003519882E1
1.250486251E0,7.320000529E-1,3.817050219E0,9.214050293E0,1.000022096E1
1.252449000E0,6.550500393E-1,3.778950214E0,9.214050293E0,9.980394685E0
1.254411908E0,6.550500393E-1,3.778950214E0,9.214050293E0,9.980394685E0
1.256374769E0,6.940500140E-1,3.778950214E0,9.252000809E0,1.001806813E1
1.258337703E0,6.550500393E-1,3.856050253E0,9.214050293E0,1.000984200E1
1.260300616E0,6.940500140E-1,3.817050219E0,9.214050293E0,9.997514721E0
1.262263406E0,6.940500140E-1,3.778950214E0,9.214050293E0,9.983030249E0
1.264226233E0,6.550500393E-1,3.817050219E0,9.214050293E0,9.994882977E0
1.266189171E0,6.940500140E-1,3.817050219E0,9.175050735E0,9.961582896E0
1.268152077E0,6.550500393E-1,3.817050219E0,9.175050735E0,9.958941657E0
1.270115183E0,6.550500393E-1,3.778950214E0,9.136950493E0,9.909259285E0
1.272078231E0,6.940500140E-1,3.856050253E0,9.214050293E0,1.001246981E1
1.274041239E0,6.940500140E-1,3.817050219E0,9.214050293E0,9.997514721E0
1.276004280E0,6.940500140E-1,3.817050219E0,9.136950493E0,9.926502007E0
1.277967543E0,6.940500140E-1,3.856050253E0,9.214050293E0,1.001246981E1
1.279930740E0,6.940500140E-1,3.856050253E0,9.175050735E0,9.976591852E0
1.281893976E0,6.550500393E-1,3.817050219E0,9.098999977E0,9.888921251E0
1.283857201E0,6.940500140E-1,3.856050253E0,9.175050735E0,9.976591852E0
1.285820254E0,6.940500140E-1,3.856050253E0,9.214050293E0,1.001246981E1
1.287783357E0,6.550500393E-1,3.817050219E0,9.175050735E0,9.958941657E0
1.289746249E0,6.550500393E-1,3.856050253E0,9.136950493E0,9.938917366E0
1.291709203E0,6.550500393E-1,3.856050253E0,9.136950493E0,9.938917366E0
1.293671986E0,6.550500393E-1,3.817050219E0,9.214050293E0,9.994882977E0
1.295634819E0,6.550500393E-1,3.856050253E0,9.214050293E0,1.000984200E1
1.297597736E0,6.550500393E-1,3.894000292E0,9.175050735E0,9.988687843E0
1.299560643E0,7.320000529E-1,3.856050253E0,9.175050735E0,9.979303765E0
1.301523569E0,6.940500140E-1,3.817050219E0,9.175050735E0,9.961582896E0
1.303486489E0,6.550500393E-1,3.894000292E0,9.098999977E0,9.918877427E0
1.305449413E0,6.940500140E-1,3.856050253E0,9.175050735E0,9.976591852E0
1.307412335E0,6.550500393E-1,3.856050253E0,9.175050735E0,9.973954587E0
1.309375263E0,6.550500393E-1,3.856050253E0,9.136950493E0,9.938917366E0
1.311338186E0,6.169500351E-1,3.856050253E0,9.136950493E0,9.936479015E0
1.313301290E0,6.550500393E-1,3.856050253E0,9.175050735E0,9.973954587E0
1.315264340E0,6.940500140E-1,3.894000292E0,9.175050735E0,9.991321219E0
1.317227242E0,6.169500351E-1,3.894000292E0,9.175050735E0,9.986261644E0
1.319190188E0,6.169500351E-1,3.894000292E0,9.175050735E0,9.986261644E0
1.321153057E0,6.550500393E-1,3.894000292E0,9.098999977E0,9.918877427E0
1.323115952E0,6.169500351E-1,3.894000292E0,9.175050735E0,9.986261644E0
1.325078924E0,6.550500393E-1,3.856050253E0,9.175050735E0,9.973954587E0
1.327041874E0,6.940500140E-1,3.894000292E0,9.136950493E0,9.956345113E0
1.329004748E0,6.940500140E-1,3.856050253E0,9.175050735E0,9.976591852E0
1.330967645E0,5.790000558E-1,3.894000292E0,9.136950493E0,9.948987066E0
1.332930452E0,6.550500393E-1,3.894000292E0,9.136950493E0,9.953702484E0
1.334893275E0,6.169500351E-1,3.856050253E0,9.175050735E0,9.971524803E0
1.336856394E0,6.169500351E-1,3.931950092E0,9.136950493E0,9.966178966E0
1.338819427E0,6.169500351E-1,3.894000292E0,9.214050293E0,1.002210499E1
1.340782467E0,6.550500393E-1,3.894000292E0,9.175050735E0,9.988687843E0
1.342745504E0,6.940500140E-1,3.894000292E0,9.136950493E0,9.956345113E0
1.344708808E0,6.550500393E-1,3.856050253E0,9.175050735E0,9.973954587E0
1.346672037E0,5.790000558E-1,3.894000292E0,9.136950493E0,9.948987066E0
1.348635089E0,6.550500393E-1,3.856050253E0,9.214050293E0,1.000984200E1
1.350598193E0,6.169500351E-1,3.856050253E0,9.214050293E0,1.000742093E1
1.352561445E0,6.550500393E-1,3.856050253E0,9.175050735E0,9.973954587E0
1.354524653E0,6.169500351E-1,3.856050253E0,9.175050735E0,9.971524803E0
1.356487694E0,6.169500351E-1,3.856050253E0,9.214050293E0,1.000742093E1
1.358450794E0,6.550500393E-1,3.856050253E0,9.214050293E0,1.000984200E1
1.360413867E0,6.550500393E-1,3.856050253E0,9.252000809E0,1.004478636E1
1.362376948E0,6.940500140E-1,3.856050253E0,9.175050735E0,9.976591852E0
1.364340203E0,6.550500393E-1,3.894000292E0,9.214050293E0,1.002452251E1
1.366303407E0,6.550500393E-1,3.856050253E0,9.175050735E0,9.973954587E0
1.368266385E0,6.169500351E-1,3.894000292E0,9.214050293E0,1.002210499E1
1.370229453E0,6.550500393E-1,3.856050253E0,9.136950493E0,9.938917366E0
1.372192351E0,6.550500393E-1,3.856050253E0,9.136950493E0,9.938917366E0
1.374155299E0,6.550500393E-1,3.856050253E0,9.214050293E0,1.000984200E1
1.376118218E0,6.550500393E-1,3.856050253E0,9.175050735E0,9.973954587E0
1.378081145E0,6.550500393E-1,3.817050219E0,9.175050735E0,9.958941657E0
1.380044292E0,6.550500393E-1,3.856050253E0,9.175050735E0,9.973954587E0
1.382007374E0,6.550500393E-1,3.894000292E0,9.175050735E0,9.988687843E0
1.383970271E0,6.550500393E-1,3.856050253E0,9.136950493E0,9.938917366E0
1.385933222E0,6.169500351E-1,3.894000292E0,9.175050735E0,9.986261644E0
1.387896140E0,6.940500140E-1,3.856050253E0,9.175050735E0,9.976591852E0
1.389859068E0,7.320000529E-1,3.856050253E0,9.136950493E0,9.944285391E0
1.391822100E0,6.550500393E-1,3.856050253E0,9.214050293E0,1.000984200E1
1.393785119E0,6.940500140E-1,3.894000292E0,9.175050735E0,9.991321219E0
1.395748072E0,6.550500393E-1,3.894000292E0,9.175050735E0,9.988687843E0
1.397711044E0,6.169500351E-1,3.856050253E0,9.175050735E0,9.971524803E0
1.399674093E0,6.550500393E-1,3.856050253E0,9.175050735E0,9.973954587E0
1.401637119E0,6.169500351E-1,3.894000292E0,9.136950493E0,9.951267755E0
1.403600370E0,6.550500393E-1,3.817050219E0,9.175050735E0,9.958941657E0
1.405563566E0,6.550500393E-1,3.817050219E0,9.214050293E0,9.994882977E0
1.407526488E0,6.550500393E-1,3.817050219E0,9.214050293E0,9.994882977E0
1.409489491E0,7.320000529E-1,3.817050219E0,9.214050293E0,1.000022096E1
1.411452715E0,7.320000529E-1,3.817050219E0,9.175050735E0,9.964298894E0
1.413415874E0,6.550500393E-1,3.778950214E0,9.214050293E0,9.980394685E0
1.415378744E0,7.699500322E-1,3.817050219E0,9.252000809E0,1.003803837E1
1.417341708E0,7.320000529E-1,3.856050253E0,9.175050735E0,9.979303765E0
1.419304983E0,7.320000529E-1,3.817050219E0,9.214050293E0,1.000022096E1
1.421268167E0,7.320000529E-1,3.856050253E0,9.214050293E0,1.001517201E1
1.423231406E0,7.320000529E-1,3.817050219E0,9.214050293E0,1.000022096E1
1.425194629E0,7.320000529E-1,3.778950214E0,9.175050735E0,9.949766068E0
1.427157732E0,6.940500140E-1,3.817050219E0,9.214050293E0,9.997514721E0
1.429120867E0,7.320000529E-1,3.856050253E0,9.214050293E0,1.001517201E1
1.431084429E0,6.940500140E-1,3.778950214E0,9.214050293E0,9.983030249E0
1.433047865E0,6.550500393E-1,3.817050219E0,9.175050735E0,9.958941657E0
1.435011106E0,6.940500140E-1,3.817050219E0,9.175050735E0,9.961582896E0
1.436974405E0,6.940500140E-1,3.817050219E0,9.214050293E0,9.997514721E0
1.438937788E0,6.940500140E-1,3.817050219E0,9.136950493E0,9.926502007E0
1.440901157E0,6.940500140E-1,3.856050253E0,9.175050735E0,9.976591852E0
1.442864365E0,6.550500393E-1,3.817050219E0,9.175050735E0,9.958941657E0
1.444827621E0,6.940500140E-1,3.894000292E0,9.175050735E0,9.991321219E0
1.446790622E0,6.940500140E-1,3.856050253E0,9.136950493E0,9.941563925E0
1.448753698E0,6.550500393E-1,3.856050253E0,9.214050293E0,1.000984200E1
1.450716819E0,6.940500140E-1,3.894000292E0,9.175050735E0,9.991321219E0
1.452679927E0,7.320000529E-1,3.856050253E0,9.214050293E0,1.001517201E1
1.454642774E0,6.940500140E-1,3.856050253E0,9.214050293E0,1.001246981E1
1.456605698E0,6.940500140E-1,3.856050253E0,9.175050735E0,9.976591852E0
1.458568665E0,6.940500140E-1,3.856050253E0,9.136950493E0,9.941563925E0
1.460531619E0,6.940500140E-1,3.856050253E0,9.175050735E0,9.976591852E0
1.462494853E0,6.940500140E-1,3.894000292E0,9.175050735E0,9.991321219E0
1.464458004E0,7.699500322E-1,3.931950092E0,9.175050735E0,1.001172366E1
1.466420934E0,7.320000529E-1,3.856050253E0,9.214050293E0,1.001517201E1
1.468383929E0,6.940500140E-1,3.856050253E0,9.214050293E0,1.001246981E1
1.470347379E0,6.940500140E-1,3.856050253E0,9.214050293E0,1.001246981E1
1.472310696E0,6.550500393E-1,3.817050219E0,9.214050293E0,9.994882977E0
1.474274052E0,6.550500393E-1,3.894000292E0,9.214050293E0,1.002452251E1
1.476237393E0,6.550500393E-1,3.856050253E0,9.175050735E0,9.973954587E0
1.478200830E0,6.940500140E-1,3.856050253E0,9.136950493E0,9.941563925E0
1.480164239E0,6.940500140E-1,3.856050253E0,9.175050735E0,9.976591852E0
1.482127755E0,7.320000529E-1,3.856050253E0,9.175050735E0,9.979303765E0
1.484091239E0,6.550500393E-1,3.856050253E0,9.175050735E0,9.973954587E0
1.486054473E0,6.550500393E-1,3.894000292E0,9.175050735E0,9.988687843E0
1.488017780E0,6.940500140E-1,3.856050253E0,9.175050735E0,9.976591852E0
1.489981177E0,7.320000529E-1,3.856050253E0,9.175050735E0,9.979303765E0
1.491944547E0,6.940500140E-1,3.856050253E0,9.214050293E0,1.001246981E1
1.493908069E0,6.550500393E-1,3.894000292E0,9.136950493E0,9.953702484E0
1.495871547E0,6.550500393E-1,3.856050253E0,9.175050735E0,9.973954587E0
1.497834753E0,6.169500351E-1,3.817050219E0,9.214050293E0,9.992458282E0
1.499798059E0,6.550500393E-1,3.894000292E0,9.214050293E0,1.002452251E1
1.501761276E0,6.550500393E-1,3.856050253E0,9.252000809E0,1.004478636E1
1.503724520E0,6.940500140E-1,3.817050219E0,9.252000809E0,1.003250202E1
1.505687568E0,6.169500351E-1,3.856050253E0,9.289950371E0,1.007734731E1
1.507650674E0,6.169500351E-1,3.856050253E0,9.252000809E0,1.004237372E1
1.509614045E0,6.940500140E-1,3.817050219E0,9.289950371E0,1.006750990E1
1.511577349E0,6.550500393E-1,3.856050253E0,9.289950371E0,1.007975158E1
1.513540433E0,6.550500393E-1,3.894000292E0,9.289950371E0,1.009433042E1
1.515503582E0,5.790000558E-1,3.817050219E0,9.289950371E0,1.006023316E1
1.517466961E0,6.550500393E-1,3.817050219E0,9.175050735E0,9.958941657E0
1.519430272E0,5.790000558E-1,3.817050219E0,9.289950371E0,1.006023316E1
1.521393296E0,6.550500393E-1,3.817050219E0,9.289950371E0,1.006489646E1
1.523356414E0,6.169500351E-1,3.856050253E0,9.289950371E0,1.007734731E1
1.525319529E0,6.169500351E-1,3.856050253E0,9.289950371E0,1.007734731E1
1.527282645E0,6.550500393E-1,3.778950214E0,9.289950371E0,1.005050910E1
1.529246029E0,6.550500393E-1,3.778950214E0,9.252000809E0,1.001544179E1
1.531209335E0,6.169500351E-1,3.817050219E0,9.289950371E0,1.006248864E1
1.533172404E0,6.940500140E-1,3.778950214E0,9.289950371E0,1.005312628E1
1.535135553E0,6.550500393E-1,3.894000292E0,9.289950371E0,1.009433042E1
1.537098977E0,6.550500393E-1,3.817050219E0,9.252000809E0,1.002987946E1
1.539062320E0,6.940500140E-1,3.817050219E0,9.252000809E0,1.003250202E1
1.541025533E0,6.169500351E-1,3.856050253E0,9.252000809E0,1.004237372E1
1.542988784E0,6.550500393E-1,3.817050219E0,9.214050293E0,9.994882977E0
1.544952482E0,5.790000558E-1,3.856050253E0,9.214050293E0,1.000515304E1
1.546916066E0,6.169500351E-1,3.817050219E0,9.175050735E0,9.956508209E0
1.548879237E0,5.790000558E-1,3.856050253E0,9.214050293E0,1.000515304E1
1.550842529E0,6.169500351E-1,3.856050253E0,9.252000809E0,1.004237372E1
1.552806109E0,5.790000558E-1,3.817050219E0,9.214050293E0,9.990186997E0
1.554769604E0,6.169500351E-1,3.817050219E0,9.175050735E0,9.956508209E0
1.556733005E0,6.169500351E-1,3.856050253E0,9.252000809E0,1.004237372E1
1.558696409E0,6.169500351E-1,3.894000292E0,9.214050293E0,1.002210499E1
1.560659610E0,6.169500351E-1,3.894000292E0,9.214050293E0,1.002210499E1
1.562622871E0,6.169500351E-1,3.856050253E0,9.252000809E0,1.004237372E1
1.564586276E0,6.169500351E-1,3.856050253E0,9.252000809E0,1.004237372E1
1.566549638E0,6.550500393E-1,3.856050253E0,9.214050293E0,1.000984200E1
1.568512698E0,6.550500393E-1,3.894000292E0,9.252000809E0,1.005941588E1
1.570475857E0,6.169500351E-1,3.817050219E0,9.214050293E0,9.992458282E0
1.572439234E0,6.550500393E-1,3.817050219E0,9.252000809E0,1.002987946E1
1.574402547E0,6.940500140E-1,3.856050253E0,9.252000809E0,1.004740504E1
1.576365944E0,6.550500393E-1,3.817050219E0,9.252000809E0,1.002987946E1
1.578329316E0,6.940500140E-1,3.817050219E0,9.252000809E0,1.003250202E1
1.580292535E0,6.550500393E-1,3.894000292E0,9.214050293E0,1.002452251E1
1.582255823E0,7.320000529E-1,3.817050219E0,9.214050293E0,1.000022096E1
1.584219584E0,7.320000529E-1,3.817050219E0,9.175050735E0,9.964298894E0
1.586183206E0,7.320000529E-1,3.817050219E0,9.214050293E0,1.000022096E1
1.588146506E0,6.940500140E-1,3.817050219E0,9.175050735E0,9.961582896E0
1.590109900E0,6.940500140E-1,3.817050219E0,9.214050293E0,9.997514721E0
1.592073297E0,7.320000529E-1,3.817050219E0,9.175050735E0,9.964298894E0
1.594036683E0,6.940500140E-1,3.856050253E0,9.098999977E0,9.906696198E0
1.595999887E0,7.699500322E-1,3.817050219E0,9.175050735E0,9.967158643E0
1.597963145E0,7.320000529E-1,3.817050219E0,9.136950493E0,9.929227601E0
1.599926191E0,6.940500140E-1,3.856050253E0,9.175050735E0,9.976591852E0
1.601889299E0,6.940500140E-1,3.817050219E0,9.175050735E0,9.961582896E0
1.603852960E0,6.940500140E-1,3.817050219E0,9.098999977E0,9.891581187E0
1.605816455E0,6.940500140E-1,3.856050253E0,9.136950493E0,9.941563925E0
1.607779822E0,6.940500140E-1,3.817050219E0,9.098999977E0,9.891581187E0
1.609743227E0,7.699500322E-1,3.817050219E0,9.175050735E0,9.967158643E0
1.611706382E0,6.940500140E-1,3.856050253E0,9.136950493E0,9.941563925E0
1.613669611E0,7.320000529E-1,3.817050219E0,9.175050735E0,9.964298894E0
1.615632881E0,6.940500140E-1,3.817050219E0,9.214050293E0,9.997514721E0
1.617596143E0,7.320000529E-1,3.817050219E0,9.136950493E0,9.929227601E0
1.619559684E0,7.320000529E-1,3.817050219E0,9.136950493E0,9.929227601E0
1.621523143E0,6.940500140E-1,3.856050253E0,9.136950493E0,9.941563925E0
1.623486516E0,6.940500140E-1,3.856050253E0,9.175050735E0,9.976591852E0
1.625449914E0,7.320000529E-1,3.856050253E0,9.098999977E0,9.909427239E0
1.627413301E0,7.320000529E-1,3.894000292E0,9.136950493E0,9.959062539E0
1.629376688E0,7.320000529E-1,3.856050253E0,9.136950493E0,9.944285391E0
1.631339937E0,6.550500393E-1,3.817050219E0,9.136950493E0,9.923851431E0
1.633303227E0,6.940500140E-1,3.856050253E0,9.136950493E0,9.941563925E0
1.635266627E0,6.940500140E-1,3.894000292E0,9.136950493E0,9.956345113E0
1.637229994E0,6.550500393E-1,3.856050253E0,9.136950493E0,9.938917366E0
1.639193392E0,6.550500393E-1,3.856050253E0,9.098999977E0,9.904040322E0
1.641156773E0,6.550500393E-1,3.856050253E0,9.136950493E0,9.938917366E0
1.643120158E0,6.940500140E-1,3.894000292E0,9.136950493E0,9.956345113E0
1.645083542E0,7.320000529E-1,3.856050253E0,9.175050735E0,9.979303765E0
1.647047062E0,6.940500140E-1,3.894000292E0,9.214050293E0,1.002714648E1
1.649010542E0,7.320000529E-1,3.856050253E0,9.136950493E0,9.944285391E0
1.650973606E0,6.940500140E-1,3.894000292E0,9.098999977E0,9.921529332E0
1.652936785E0,6.940500140E-1,3.856050253E0,9.136950493E0,9.941563925E0
1.654900024E0,6.550500393E-1,3.856050253E0,9.175050735E0,9.973954587E0
1.656863245E0,6.550500393E-1,3.856050253E0,9.136950493E0,9.938917366E0
1.658826433E0,7.320000529E-1,3.817050219E0,9.214050293E0,1.000022096E1
1.660789631E0,6.940500140E-1,3.856050253E0,9.214050293E0,1.001246981E1
1.662753043E0,7.320000529E-1,3.856050253E0,9.214050293E0,1.001517201E1
1.664716395E0,6.550500393E-1,3.817050219E0,9.214050293E0,9.994882977E0
1.666679785E0,7.320000529E-1,3.817050219E0,9.175050735E0,9.964298894E0
1.668643164E0,6.940500140E-1,3.856050253E0,9.175050735E0,9.976591852E0
1.670606595E0,6.550500393E-1,3.856050253E0,9.175050735E0,9.973954587E0
1.672570010E0,6.940500140E-1,3.817050219E0,9.214050293E0,9.997514721E0
1.674533225E0,6.940500140E-1,3.817050219E0,9.252000809E0,1.003250202E1
1.676496488E0,7.320000529E-1,3.817050219E0,9.252000809E0,1.003519882E1
1.678460207E0,7.320000529E-1,3.856050253E0,9.214050293E0,1.001517201E1
1.680423793E0,6.940500140E-1,3.856050253E0,9.214050293E0,1.001246981E1
1.682386784E0,6.169500351E-1,3.817050219E0,9.252000809E0,1.002746322E1
1.684349949E0,6.550500393E-1,3.817050219E0,9.214050293E0,9.994882977E0
1.686313185E0,6.550500393E-1,3.817050219E0,9.214050293E0,9.994882977E0
1.688276404E0,6.940500140E-1,3.817050219E0,9.214050293E0,9.997514721E0
1.690239637E0,6.940500140E-1,3.856050253E0,9.252000809E0,1.004740504E1
1.692202865E0,7.320000529E-1,3.856050253E0,9.252000809E0,1.005009784E1
1.694166276E0,7.699500322E-1,3.856050253E0,9.214050293E0,1.001801724E1
1.696129634E0,7.320000529E-1,3.817050219E0,9.214050293E0,1.000022096E1
1.698092515E0,6.940500140E-1,3.856050253E0,9.136950493E0,9.941563925E0
1.700055546E0,6.550500393E-1,3.856050253E0,9.175050735E0,9.973954587E0
1.702018945E0,6.940500140E-1,3.856050253E0,9.175050735E0,9.976591852E0
1.703982236E0,7.320000529E-1,3.856050253E0,9.175050735E0,9.979303765E0
1.705945817E0,6.940500140E-1,3.817050219E0,9.214050293E0,9.997514721E0
1.707909313E0,6.940500140E-1,3.894000292E0,9.214050293E0,1.002714648E1
1.709872706E0,7.320000529E-1,3.856050253E0,9.175050735E0,9.979303765E0
1.711836142E0,6.940500140E-1,3.817050219E0,9.214050293E0,9.997514721E0
1.713799832E0,6.550500393E-1,3.894000292E0,9.214050293E0,1.002452251E1
1.715763448E0,6.940500140E-1,3.856050253E0,9.175050735E0,9.976591852E0
1.717726659E0,6.940500140E-1,3.856050253E0,9.175050735E0,9.976591852E0
1.719689988E0,6.940500140E-1,3.856050253E0,9.214050293E0,1.001246981E1
1.721653350E0,6.940500140E-1,3.856050253E0,9.214050293E0,1.001246981E1
1.723616692E0,6.550500393E-1,3.856050253E0,9.175050735E0,9.973954587E0
1.725579725E0,6.550500393E-1,3.894000292E0,9.214050293E0,1.002452251E1
1.727542848E0,6.550500393E-1,3.856050253E0,9.175050735E0,9.973954587E0
1.729505782E0,6.940500140E-1,3.856050253E0,9.175050735E0,9.976591852E0
1.731468771E0,6.550500393E-1,3.931950092E0,9.214050293E0,1.003932492E1
1.733432047E0,7.320000529E-1,3.894000292E0,9.214050293E0,1.002984472E1
1.735395236E0,7.320000529E-1,3.856050253E0,9.252000809E0,1.005009784E1
1.737358789E0,6.940500140E-1,3.856050253E0,9.252000809E0,1.004740504E1
1.739322236E0,6.940500140E-1,3.817050219E0,9.175050735E0,9.961582896E0
1.741285070E0,6.940500140E-1,3.894000292E0,9.175050735E0,9.991321219E0
1.743248084E0,7.320000529E-1,3.817050219E0,9.175050735E0,9.964298894E0
1.745211147E0,6.940500140E-1,3.856050253E0,9.175050735E0,9.976591852E0
1.747174212E0,7.320000529E-1,3.856050253E0,9.214050293E0,1.001517201E1
1.749137336E0,7.320000529E-1,3.817050219E0,9.175050735E0,9.964298894E0
1.751100443E0,6.940500140E-1,3.817050219E0,9.252000809E0,1.003250202E1
1.753063650E0,7.320000529E-1,3.817050219E0,9.252000809E0,1.003519882E1
1.755026827E0,7.320000529E-1,3.817050219E0,9.252000809E0,1.003519882E1
1.756990112E0,7.699500322E-1,3.817050219E0,9.214050293E0,1.000307044E1
1.758953366E0,6.550500393E-1,3.817050219E0,9.252000809E0,1.002987946E1
1.760916548E0,7.320000529E-1,3.817050219E0,9.214050293E0,1.000022096E1
1.762879752E0,7.699500322E-1,3.817050219E0,9.252000809E0,1.003803837E1
1.764842672E0,7.320000529E-1,3.856050253E0,9.214050293E0,1.001517201E1
1.766805676E0,7.320000529E-1,3.817050219E0,9.175050735E0,9.964298894E0
1.768768923E0,7.699500322E-1,3.817050219E0,9.175050735E0,9.967158643E0
1.770732082E0,6.940500140E-1,3.778950214E0,9.214050293E0,9.983030249E0
1.772695325E0,7.320000529E-1,3.856050253E0,9.214050293E0,1.001517201E1
1.774658544E0,7.320000529E-1,3.817050219E0,9.214050293E0,1.000022096E1
1.776621957E0,7.320000529E-1,3.856050253E0,9.214050293E0,1.001517201E1
1.778585313E0,6.940500140E-1,3.817050219E0,9.214050293E0,9.997514721E0
1.780548568E0,6.940500140E-1,3.856050253E0,9.175050735E0,9.976591852E0
1.782511853E0,6.550500393E-1,3.817050219E0,9.175050735E0,9.958941657E0
1.784475030E0,6.940500140E-1,3.817050219E0,9.136950493E0,9.926502007E0
1.786438238E0,6.940500140E-1,3.856050253E0,9.175050735E0,9.976591852E0
1.788401157E0,6.940500140E-1,3.817050219E0,9.175050735E0,9.961582896E0
1.790364161E0,6.550500393E-1,3.856050253E0,9.136950493E0,9.938917366E0
1.792327204E0,6.940500140E-1,3.817050219E0,9.136950493E0,9.926502007E0
1.794290236E0,6.550500393E-1,3.856050253E0,9.136950493E0,9.938917366E0
1.796253681E0,6.940500140E-1,3.856050253E0,9.175050735E0,9.976591852E0
1.798217005E0,6.940500140E-1,3.856050253E0,9.136950493E0,9.941563925E0
1.800180041E0,7.320000529E-1,3.856050253E0,9.175050735E0,9.979303765E0
1.802143161E0,6.940500140E-1,3.894000292E0,9.136950493E0,9.956345113E0
1.804106414E0,6.550500393E-1,3.856050253E0,9.098999977E0,9.904040322E0
1.806069625E0,6.550500393E-1,3.856050253E0,9.175050735E0,9.973954587E0
1.808032859E0,6.550500393E-1,3.817050219E0,9.175050735E0,9.958941657E0
1.809996086E0,6.940500140E-1,3.856050253E0,9.136950493E0,9.941563925E0
1.811959138E0,7.320000529E-1,3.894000292E0,9.175050735E0,9.994029135E0
1.813922242E0,6.550500393E-1,3.856050253E0,9.136950493E0,9.938917366E0
1.815885125E0,6.550500393E-1,3.856050253E0,9.175050735E0,9.973954587E0
1.817848079E0,7.320000529E-1,3.856050253E0,9.136950493E0,9.944285391E0
1.819811176E0,6.550500393E-1,3.817050219E0,9.098999977E0,9.888921251E0
1.821774231E0,7.320000529E-1,3.817050219E0,9.175050735E0,9.964298894E0
1.823737357E0,6.550500393E-1,3.856050253E0,9.175050735E0,9.973954587E0
1.825700462E0,6.940500140E-1,3.856050253E0,9.136950493E0,9.941563925E0
1.827663501E0,7.320000529E-1,3.856050253E0,9.136950493E0,9.944285391E0
1.829626584E0,6.550500393E-1,3.856050253E0,9.098999977E0,9.904040322E0
1.831589615E0,6.940500140E-1,3.931950092E0,9.175050735E0,1.000617274E1
1.833552661E0,6.550500393E-1,3.894000292E0,9.136950493E0,9.953702484E0
1.835515742E0,6.169500351E-1,3.894000292E0,9.175050735E0,9.986261644E0
1.837478813E0,6.169500351E-1,3.856050253E0,9.214050293E0,1.000742093E1
1.839441936E0,5.790000558E-1,3.894000292E0,9.175050735E0,9.983988949E0
1.841405043E0,6.169500351E-1,3.894000292E0,9.136950493E0,9.951267755E0
1.843368071E0,5.790000558E-1,3.894000292E0,9.136950493E0,9.948987066E0
1.845331122E0,5.790000558E-1,3.856050253E0,9.136950493E0,9.934194931E0
1.847294428E0,5.790000558E-1,3.856050253E0,9.136950493E0,9.934194931E0
1.849257659E0,6.550500393E-1,3.894000292E0,9.175050735E0,9.988687843E0
1.851220885E0,6.169500351E-1,3.894000292E0,9.136950493E0,9.951267755E0
1.853184116E0,5.790000558E-1,3.856050253E0,9.175050735E0,9.969248749E0
1.855147347E0,6.550500393E-1,3.894000292E0,9.175050735E0,9.988687843E0
1.857110578E0,6.550500393E-1,3.856050253E0,9.175050735E0,9.973954587E0
1.859073988E0,6.550500393E-1,3.894000292E0,9.175050735E0,9.988687843E0
1.861037346E0,6.550500393E-1,3.894000292E0,9.136950493E0,9.953702484E0
1.863000542E0,6.550500393E-1,3.856050253E0,9.136950493E0,9.938917366E0
1.864963796E0,6.550500393E-1,3.856050253E0,9.175050735E0,9.973954587E0
1.866926842E0,6.550500393E-1,3.856050253E0,9.252000809E0,1.004478636E1
1.868889949E0,6.169500351E-1,3.894000292E0,9.252000809E0,1.005700674E1
1.870853336E0,6.550500393E-1,3.778950214E0,9.214050293E0,9.980394685E0
1.872816640E0,5.790000558E-1,3.856050253E0,9.175050735E0,9.969248749E0
1.874779913E0,6.940500140E-1,3.856050253E0,9.175050735E0,9.976591852E0
1.876743189E0,6.550500393E-1,3.817050219E0,9.252000809E0,1.002987946E1
1.878706592E0,6.940500140E-1,3.856050253E0,9.214050293E0,1.001246981E1
1.880669957E0,6.550500393E-1,3.817050219E0,9.214050293E0,9.994882977E0
1.882633166E0,6.169500351E-1,3.856050253E0,9.175050735E0,9.971524803E0
1.884596420E0,6.169500351E-1,3.856050253E0,9.214050293E0,1.000742093E1
1.886559525E0,6.550500393E-1,3.817050219E0,9.214050293E0,9.994882977E0
1.888522632E0,6.940500140E-1,3.856050253E0,9.214050293E0,1.001246981E1
1.890485659E0,6.940500140E-1,3.817050219E0,9.214050293E0,9.997514721E0
1.892448709E0,7.320000529E-1,3.778950214E0,9.252000809E0,1.002076882E1
1.894412014E0,6.940500140E-1,3.817050219E0,9.214050293E0,9.997514721E0
1.896375245E0,6.169500351E-1,3.856050253E0,9.252000809E0,1.004237372E1
1.898338461E0,6.550500393E-1,3.856050253E0,9.252000809E0,1.004478636E1
1.900301692E0,6.940500140E-1,3.817050219E0,9.214050293E0,9.997514721E0
1.902264923E0,6.550500393E-1,3.817050219E0,9.214050293E0,9.994882977E0
1.904228154E0,6.940500140E-1,3.856050253E0,9.252000809E0,1.004740504E1
1.906191700E0,6.169500351E-1,3.856050253E0,9.252000809E0,1.004237372E1
1.908155153E0,6.550500393E-1,3.817050219E0,9.289950371E0,1.006489646E1
1.910118172E0,6.550500393E-1,3.817050219E0,9.252000809E0,1.002987946E1
1.912081314E0,6.550500393E-1,3.856050253E0,9.252000809E0,1.004478636E1
1.914044604E0,6.550500393E-1,3.856050253E0,9.289950371E0,1.007975158E1
1.916007851E0,6.550500393E-1,3.856050253E0,9.214050293E0,1.000984200E1
1.917971080E0,6.550500393E-1,3.856050253E0,9.252000809E0,1.004478636E1
1.919934314E0,6.550500393E-1,3.856050253E0,9.214050293E0,1.000984200E1
1.921897694E0,6.550500393E-1,3.931950092E0,9.252000809E0,1.007416702E1
1.923861020E0,6.169500351E-1,3.856050253E0,9.252000809E0,1.004237372E1
1.925824415E0,5.790000558E-1,3.894000292E0,9.214050293E0,1.001984042E1
1.927787789E0,6.169500351E-1,3.856050253E0,9.214050293E0,1.000742093E1
1.929751175E0,6.169500351E-1,3.931950092E0,9.175050735E0,1.000112068E1
1.931714558E0,6.169500351E-1,3.817050219E0,9.214050293E0,9.992458282E0
1.933678158E0,6.169500351E-1,3.894000292E0,9.136950493E0,9.951267755E0
1.935641702E0,6.169500351E-1,3.931950092E0,9.175050735E0,1.000112068E1
1.937605196E0,5.790000558E-1,3.931950092E0,9.136950493E0,9.963901691E0
1.939568704E0,6.169500351E-1,3.856050253E0,9.136950493E0,9.936479015E0
1.941532067E0,6.169500351E-1,3.856050253E0,9.175050735E0,9.971524803E0
1.943495473E0,6.550500393E-1,3.856050253E0,9.175050735E0,9.973954587E0
1.945458669E0,6.169500351E-1,3.856050253E0,9.136950493E0,9.936479015E0
1.947421930E0,6.169500351E-1,3.894000292E0,9.136950493E0,9.951267755E0
1.949385155E0,6.550500393E-1,3.817050219E0,9.175050735E0,9.958941657E0
1.951348391E0,6.550500393E-1,3.856050253E0,9.136950493E0,9.938917366E0
1.953311621E0,6.940500140E-1,3.817050219E0,9.175050735E0,9.961582896E0
1.955274853E0,6.940500140E-1,3.856050253E0,9.214050293E0,1.001246981E1
1.957238282E0,6.550500393E-1,3.894000292E0,9.136950493E0,9.953702484E0
1.959201639E0,6.550500393E-1,3.856050253E0,9.175050735E0,9.973954587E0
1.961164714E0,7.320000529E-1,3.817050219E0,9.136950493E0,9.929227601E0
1.963127872E0,6.940500140E-1,3.817050219E0,9.175050735E0,9.961582896E0
1.965091249E0,6.940500140E-1,3.856050253E0,9.175050735E0,9.976591852E0
1.967054562E0,6.940500140E-1,3.817050219E0,9.175050735E0,9.961582896E0
1.969017974E0,7.320000529E-1,3.817050219E0,9.175050735E0,9.964298894E0
1.970981346E0,7.320000529E-1,3.856050253E0,9.136950493E0,9.944285391E0
1.972944778E0,7.320000529E-1,3.817050219E0,9.252000809E0,1.003519882E1
1.974908193E0,6.940500140E-1,3.856050253E0,9.214050293E0,1.001246981E1
1.976871528E0,7.320000529E-1,3.856050253E0,9.214050293E0,1.001517201E1
1.978834887E0,7.320000529E-1,3.894000292E0,9.214050293E0,1.002984472E1
1.980797930E0,7.320000529E-1,3.894000292E0,9.214050293E0,1.002984472E1
1.982761055E0,6.940500140E-1,3.817050219E0,9.175050735E0,9.961582896E0
1.984724348E0,7.320000529E-1,3.817050219E0,9.175050735E0,9.964298894E0
1.986687591E0,6.169500351E-1,3.894000292E0,9.175050735E0,9.986261644E0
1.988651135E0,6.940500140E-1,3.894000292E0,9.175050735E0,9.991321219E0
1.990614591E0,6.940500140E-1,3.856050253E0,9.175050735E0,9.976591852E0
1.992577435E0,6.550500393E-1,3.894000292E0,9.175050735E0,9.988687843E0
1.994540482E0,6.940500140E-1,3.894000292E0,9.175050735E0,9.991321219E0
1.996503879E0,6.940500140E-1,3.856050253E0,9.175050735E0,9.976591852E0
1.998467173E0,6.550500393E-1,3.894000292E0,9.252000809E0,1.005941588E1
2.000430439E0,6.940500140E-1,3.856050253E0,9.175050735E0,9.976591852E0
2.002393713E0,6.169500351E-1,3.894000292E0,9.252000809E0,1.005700674E1
2.004357075E0,6.940500140E-1,3.856050253E0,9.252000809E0,1.004740504E1
2.006320408E0,6.940500140E-1,3.817050219E0,9.289950371E0,1.006750990E1
2.008283487E0,6.169500351E-1,3.894000292E0,9.252000809E0,1.005700674E1
2.010246641E0,6.550500393E-1,3.856050253E0,9.252000809E0,1.004478636E1
2.012209884E0,5.790000558E-1,3.817050219E0,9.214050293E0,9.990186997E0
2.014173101E0,6.550500393E-1,3.817050219E0,9.214050293E0,9.994882977E0
2.016136689E0,6.940500140E-1,3.856050253E0,9.252000809E0,1.004740504E1
2.018100140E0,7.320000529E-1,3.856050253E0,9.252000809E0,1.005009784E1
2.020063559E0,6.169500351E-1,3.856050253E0,9.252000809E0,1.004237372E1
2.022026988E0,6.550500393E-1,3.856050253E0,9.252000809E0,1.004478636E1
2.023990320E0,6.550500393E-1,3.817050219E0,9.252000809E0,1.002987946E1
2.025953680E0,6.940500140E-1,3.778950214E0,9.252000809E0,1.001806813E1
2.027916923E0,7.699500322E-1,3.856050253E0,9.289950371E0,1.008787017E1
2.029880208E0,6.940500140E-1,3.856050253E0,9.252000809E0,1.004740504E1
2.031843249E0,7.320000529E-1,3.817050219E0,9.289950371E0,1.007019733E1
2.033806362E0,6.550500393E-1,3.817050219E0,9.328050613E0,1.010007382E1
2.035769388E0,6.550500393E-1,3.778950214E0,9.289950371E0,1.005050910E1
2.037732439E0,7.320000529E-1,3.856050253E0,9.289950371E0,1.008504465E1
2.039695930E0,6.940500140E-1,3.778950214E0,9.252000809E0,1.001806813E1
2.041659288E0,6.940500140E-1,3.817050219E0,9.214050293E0,9.997514721E0
2.043622137E0,7.320000529E-1,3.778950214E0,9.252000809E0,1.002076882E1
2.045585136E0,6.940500140E-1,3.817050219E0,9.252000809E0,1.003250202E1
2.047548360E0,6.550500393E-1,3.778950214E0,9.252000809E0,1.001544179E1
2.049511518E0,6.940500140E-1,3.741000175E0,9.214050293E0,9.968726626E0
2.051474276E0,6.940500140E-1,3.817050219E0,9.175050735E0,9.961582896E0
2.053437145E0,6.550500393E-1,3.778950214E0,9.214050293E0,9.980394685E0
2.055400617E0,7.320000529E-1,3.817050219E0,9.252000809E0,1.003519882E1
2.057363912E0,6.550500393E-1,3.778950214E0,9.252000809E0,1.001544179E1
2.059326953E0,6.550500393E-1,3.778950214E0,9.214050293E0,9.980394685E0
2.061290068E0,6.169500351E-1,3.817050219E0,9.175050735E0,9.956508209E0
2.063253134E0,6.940500140E-1,3.817050219E0,9.214050293E0,9.997514721E0
2.065216218E0,6.550500393E-1,3.817050219E0,9.214050293E0,9.994882977E0
2.067179294E0,7.320000529E-1,3.817050219E0,9.136950493E0,9.929227601E0
2.069142372E0,6.550500393E-1,3.856050253E0,9.175050735E0,9.973954587E0
2.071105268E0,6.550500393E-1,3.817050219E0,9.214050293E0,9.994882977E0
2.073068218E0,6.550500393E-1,3.856050253E0,9.175050735E0,9.973954587E0
2.075031568E0,6.550500393E-1,3.856050253E0,9.175050735E0,9.973954587E0
2.076994845E0,6.550500393E-1,3.817050219E0,9.175050735E0,9.958941657E0
2.078958114E0,6.169500351E-1,3.817050219E0,9.175050735E0,9.956508209E0
2.080921386E0,6.550500393E-1,3.856050253E0,9.136950493E0,9.938917366E0
2.082884609E0,6.550500393E-1,3.856050253E0,9.214050293E0,1.000984200E1
2.084847847E0,6.940500140E-1,3.817050219E0,9.136950493E0,9.926502007E0
2.086810911E0,6.550500393E-1,3.856050253E0,9.136950493E0,9.938917366E0
2.088774016E0,6.169500351E-1,3.817050219E0,9.098999977E0,9.886470568E0
2.090737088E0,6.550500393E-1,3.856050253E0,9.136950493E0,9.938917366E0
2.092700170E0,6.940500140E-1,3.817050219E0,9.098999977E0,9.891581187E0
2.094663605E0,6.550500393E-1,3.856050253E0,9.136950493E0,9.938917366E0
2.096626937E0,6.940500140E-1,3.856050253E0,9.060000420E0,9.870888338E0
2.098590102E0,6.550500393E-1,3.817050219E0,9.136950493E0,9.923851431E0
2.100553319E0,6.940500140E-1,3.856050253E0,9.060000420E0,9.870888338E0
2.102516417E0,6.550500393E-1,3.856050253E0,9.098999977E0,9.904040322E0
2.104479550E0,6.940500140E-1,3.817050219E0,9.060000420E0,9.855718411E0
2.106442977E0,6.940500140E-1,3.856050253E0,9.098999977E0,9.906696198E0
2.108406317E0,6.550500393E-1,3.894000292E0,9.098999977E0,9.918877427E0
2.110369350E0,6.940500140E-1,3.856050253E0,9.136950493E0,9.941563925E0
2.112332473E0,6.940500140E-1,3.817050219E0,9.098999977E0,9.891581187E0
2.114295721E0,5.790000558E-1,3.817050219E0,9.098999977E0,9.884174929E0
2.116258932E0,6.550500393E-1,3.856050253E0,9.098999977E0,9.904040322E0
2.118222346E0,6.169500351E-1,3.817050219E0,9.098999977E0,9.886470568E0
2.120185701E0,6.169500351E-1,3.817050219E0,9.098999977E0,9.886470568E0
2.122148912E0,6.169500351E-1,3.856050253E0,9.098999977E0,9.901593381E0
2.124112165E0,6.550500393E-1,3.856050253E0,9.098999977E0,9.904040322E0
2.126075526E0,6.169500351E-1,3.817050219E0,9.175050735E0,9.956508209E0
2.128038855E0,6.169500351E-1,3.817050219E0,9.136950493E0,9.921409377E0
2.130001755E0,6.550500393E-1,3.856050253E0,9.175050735E0,9.973954587E0
2.131964780E0,6.550500393E-1,3.894000292E0,9.136950493E0,9.953702484E0
2.133928245E0,6.550500393E-1,3.856050253E0,9.175050735E0,9.973954587E0
2.135891567E0,6.169500351E-1,3.894000292E0,9.175050735E0,9.986261644E0
2.137854783E0,6.940500140E-1,3.856050253E0,9.175050735E0,9.976591852E0
2.139818030E0,6.550500393E-1,3.856050253E0,9.175050735E0,9.973954587E0
2.141781078E0,6.169500351E-1,3.856050253E0,9.214050293E0,1.000742093E1
2.143744184E0,6.169500351E-1,3.817050219E0,9.214050293E0,9.992458282E0
2.145707256E0,5.790000558E-1,3.894000292E0,9.175050735E0,9.983988949E0
2.147670338E0,6.169500351E-1,3.856050253E0,9.214050293E0,1.000742093E1
2.149633414E0,6.169500351E-1,3.856050253E0,9.214050293E0,1.000742093E1
2.151596492E0,6.169500351E-1,3.817050219E0,9.252000809E0,1.002746322E1
2.153559524E0,6.550500393E-1,3.856050253E0,9.252000809E0,1.004478636E1
2.155522569E0,5.790000558E-1,3.856050253E0,9.214050293E0,1.000515304E1
2.157485811E0,6.169500351E-1,3.817050219E0,9.252000809E0,1.002746322E1
2.159449009E0,6.550500393E-1,3.856050253E0,9.214050293E0,1.000984200E1
2.161412246E0,6.169500351E-1,3.894000292E0,9.214050293E0,1.002210499E1
2.163375471E0,5.790000558E-1,3.856050253E0,9.214050293E0,1.000515304E1
2.165338524E0,6.169500351E-1,3.856050253E0,9.289950371E0,1.007734731E1
2.167301627E0,6.550500393E-1,3.817050219E0,9.252000809E0,1.002987946E1
2.169264684E0,5.790000558E-1,3.856050253E0,9.289950371E0,1.007509516E1
2.171227765E0,6.169500351E-1,3.856050253E0,9.289950371E0,1.007734731E1
2.173190841E0,6.169500351E-1,3.894000292E0,9.289950371E0,1.009192962E1
2.175153919E0,6.550500393E-1,3.856050253E0,9.289950371E0,1.007975158E1
2.177117040E0,6.169500351E-1,3.817050219E0,9.289950371E0,1.006248864E1
2.179080148E0,6.550500393E-1,3.894000292E0,9.252000809E0,1.005941588E1
2.181043434E0,6.550500393E-1,3.856050253E0,9.289950371E0,1.007975158E1
2.183006644E0,6.550500393E-1,3.817050219E0,9.328050613E0,1.010007382E1
2.184969834E0,6.550500393E-1,3.856050253E0,9.252000809E0,1.004478636E1
2.186933030E0,6.550500393E-1,3.856050253E0,9.252000809E0,1.004478636E1
2.188895906E0,6.169500351E-1,3.856050253E0,9.289950371E0,1.007734731E1
2.190858876E0,6.169500351E-1,3.856050253E0,9.289950371E0,1.007734731E1
2.192821936E0,6.550500393E-1,3.856050253E0,9.289950371E0,1.007975158E1
2.194784994E0,6.550500393E-1,3.894000292E0,9.252000809E0,1.005941588E1
2.196748300E0,6.169500351E-1,3.856050253E0,9.252000809E0,1.004237372E1
2.198711533E0,6.550500393E-1,3.856050253E0,9.252000809E0,1.004478636E1
2.200674944E0,6.169500351E-1,3.856050253E0,9.328050613E0,1.011248135E1
2.202638302E0,5.790000558E-1,3.856050253E0,9.289950371E0,1.007509516E1
2.204601661E0,5.790000558E-1,3.856050253E0,9.252000809E0,1.004011372E1
2.206565010E0,6.169500351E-1,3.856050253E0,9.252000809E0,1.004237372E1
2.208528400E0,6.169500351E-1,3.894000292E0,9.252000809E0,1.005700674E1
2.210491778E0,6.169500351E-1,3.856050253E0,9.214050293E0,1.000742093E1
2.212455029E0,6.169500351E-1,3.817050219E0,9.252000809E0,1.002746322E1
2.214418318E0,6.550500393E-1,3.856050253E0,9.214050293E0,1.000984200E1
2.216381810E0,5.790000558E-1,3.817050219E0,9.252000809E0,1.002519987E1
2.218345273E0,6.550500393E-1,3.856050253E0,9.252000809E0,1.004478636E1
2.220308645E0,5.790000558E-1,3.817050219E0,9.252000809E0,1.002519987E1
2.222272044E0,6.550500393E-1,3.817050219E0,9.289950371E0,1.006489646E1
2.224235470E0,6.940500140E-1,3.856050253E0,9.252000809E0,1.004740504E1
2.226198888E0,6.550500393E-1,3.856050253E0,9.252000809E0,1.004478636E1
2.228162244E0,6.550500393E-1,3.817050219E0,9.252000809E0,1.002987946E1
2.230125636E0,6.169500351E-1,3.817050219E0,9.175050735E0,9.956508209E0
2.232089019E0,6.550500393E-1,3.778950214E0,9.252000809E0,1.001544179E1
2.234052405E0,6.169500351E-1,3.856050253E0,9.214050293E0,1.000742093E1
2.236015564E0,6.550500393E-1,3.817050219E0,9.214050293E0,9.994882977E0
2.237978790E0,6.940500140E-1,3.778950214E0,9.289950371E0,1.005312628E1
2.239942232E0,6.550500393E-1,3.817050219E0,9.289950371E0,1.006489646E1
2.241905620E0,7.320000529E-1,3.817050219E0,9.289950371E0,1.007019733E1
2.243869005E0,6.550500393E-1,3.856050253E0,9.328050613E0,1.011487728E1
2.245832391E0,7.320000529E-1,3.817050219E0,9.289950371E0,1.007019733E1
2.247795775E0,7.320000529E-1,3.778950214E0,9.328050613E0,1.009102656E1
2.249759160E0,7.699500322E-1,3.817050219E0,9.252000809E0,1.003803837E1
2.251722193E0,6.550500393E-1,3.817050219E0,9.252000809E0,1.002987946E1
2.253685323E0,7.320000529E-1,3.817050219E0,9.289950371E0,1.007019733E1
2.255648885E0,6.940500140E-1,3.817050219E0,9.252000809E0,1.003250202E1
2.257612321E0,6.550500393E-1,3.817050219E0,9.214050293E0,9.994882977E0
2.259575563E0,6.940500140E-1,3.856050253E0,9.252000809E0,1.004740504E1
2.261538862E0,7.320000529E-1,3.856050253E0,9.214050293E0,1.001517201E1
2.263502424E0,7.320000529E-1,3.856050253E0,9.175050735E0,9.979303765E0
2.265465889E0,6.550500393E-1,3.817050219E0,9.214050293E0,9.994882977E0
2.267429080E0,6.940500140E-1,3.894000292E0,9.175050735E0,9.991321219E0
2.269392352E0,6.550500393E-1,3.856050253E0,9.136950493E0,9.938917366E0
2.271355800E0,6.550500393E-1,3.817050219E0,9.136950493E0,9.923851431E0
2.273319196E0,6.550500393E-1,3.894000292E0,9.175050735E0,9.988687843E0
2.275282228E0,6.550500393E-1,3.856050253E0,9.136950493E0,9.938917366E0
2.277245361E0,6.940500140E-1,3.894000292E0,9.136950493E0,9.956345113E0
2.279208608E0,6.550500393E-1,3.894000292E0,9.098999977E0,9.918877427E0
2.281171821E0,6.940500140E-1,3.856050253E0,9.136950493E0,9.941563925E0
2.283135370E0,6.550500393E-1,3.856050253E0,9.136950493E0,9.938917366E0
2.285098821E0,6.940500140E-1,3.894000292E0,9.098999977E0,9.921529332E0
2.287062240E0,6.550500393E-1,3.894000292E0,9.136950493E0,9.953702484E0
2.289025669E0,6.550500393E-1,3.894000292E0,9.136950493E0,9.953702484E0
2.290989046E0,6.550500393E-1,3.894000292E0,9.136950493E0,9.953702484E0
2.292952438E0,6.550500393E-1,3.856050253E0,9.136950493E0,9.938917366E0
2.294915821E0,6.940500140E-1,3.856050253E0,9.175050735E0,9.976591852E0
2.296879207E0,6.940500140E-1,3.894000292E0,9.098999977E0,9.921529332E0
2.298842533E0,6.940500140E-1,3.856050253E0,9.136950493E0,9.941563925E0
2.300805886E0,6.550500393E-1,3.817050219E0,9.214050293E0,9.994882977E0
2.302769141E0,6.940500140E-1,3.894000292E0,9.136950493E0,9.956345113E0
2.304732424E0,7.320000529E-1,3.894000292E0,9.136950493E0,9.959062539E0
2.306696141E0,6.940500140E-1,3.856050253E0,9.136950493E0,9.941563925E0
2.308659730E0,7.320000529E-1,3.856050253E0,9.136950493E0,9.944285391E0
2.310623325E0,7.320000529E-1,3.856050253E0,9.136950493E0,9.944285391E0
2.312586905E0,6.940500140E-1,3.894000292E0,9.175050735E0,9.991321219E0
2.314550211E0,6.550500393E-1,3.894000292E0,9.136950493E0,9.953702484E0
2.316513597E0,7.320000529E-1,3.931950092E0,9.136950493E0,9.973962097E0
2.318476486E0,7.320000529E-1,3.856050253E0,9.136950493E0,9.944285391E0
2.320439520E0,6.940500140E-1,3.894000292E0,9.136950493E0,9.956345113E0
2.322402918E0,7.320000529E-1,3.931950092E0,9.136950493E0,9.973962097E0
2.324366210E0,7.320000529E-1,3.856050253E0,9.098999977E0,9.909427239E0
2.326329477E0,6.550500393E-1,3.856050253E0,9.136950493E0,9.938917366E0
2.328292751E0,6.550500393E-1,3.894000292E0,9.175050735E0,9.988687843E0
2.330256289E0,6.550500393E-1,3.894000292E0,9.098999977E0,9.918877427E0
2.332219749E0,6.550500393E-1,3.894000292E0,9.136950493E0,9.953702484E0
2.334182948E0,6.550500393E-1,3.856050253E0,9.136950493E0,9.938917366E0
2.336146251E0,6.550500393E-1,3.856050253E0,9.214050293E0,1.000984200E1
2.338109470E0,6.169500351E-1,3.894000292E0,9.136950493E0,9.951267755E0
2.340072713E0,6.550500393E-1,3.856050253E0,9.175050735E0,9.973954587E0
2.342035896E0,6.550500393E-1,3.931950092E0,9.136950493E0,9.968610053E0
2.343999097E0,6.169500351E-1,3.856050253E0,9.175050735E0,9.971524803E0
2.345962351E0,6.550500393E-1,3.894000292E0,9.175050735E0,9.988687843E0
2.347925576E0,6.169500351E-1,3.894000292E0,9.175050735E0,9.986261644E0
2.349888808E0,6.550500393E-1,3.894000292E0,9.214050293E0,1.002452251E1
2.351852038E0,5.790000558E-1,3.817050219E0,9.175050735E0,9.954228721E0
2.353815269E0,6.940500140E-1,3.856050253E0,9.136950493E0,9.941563925E0
2.355778499E0,6.550500393E-1,3.894000292E0,9.214050293E0,1.002452251E1
2.357741596E0,6.169500351E-1,3.817050219E0,9.175050735E0,9.956508209E0
2.359704732E0,6.169500351E-1,3.817050219E0,9.175050735E0,9.956508209E0
2.361668293E0,6.550500393E-1,3.856050253E0,9.214050293E0,1.000984200E1
2.363631730E0,6.550500393E-1,3.894000292E0,9.214050293E0,1.002452251E1
2.365595331E0,6.550500393E-1,3.856050253E0,9.214050293E0,1.000984200E1
2.367558884E0,6.550500393E-1,3.856050253E0,9.214050293E0,1.000984200E1
2.369522376E0,6.940500140E-1,3.817050219E0,9.175050735E0,9.961582896E0
2.371485886E0,6.550500393E-1,3.856050253E0,9.175050735E0,9.973954587E0
2.373449249E0,6.550500393E-1,3.817050219E0,9.214050293E0,9.994882977E0
2.375412655E0,6.940500140E-1,3.856050253E0,9.214050293E0,1.001246981E1
2.377375900E0,6.550500393E-1,3.856050253E0,9.136950493E0,9.938917366E0
2.379339193E0,6.550500393E-1,3.856050253E0,9.252000809E0,1.004478636E1
2.381302368E0,6.940500140E-1,3.856050253E0,9.175050735E0,9.976591852E0
2.383265578E0,6.940500140E-1,3.817050219E0,9.175050735E0,9.961582896E0
2.385228677E0,6.940500140E-1,3.856050253E0,9.136950493E0,9.941563925E0
2.387191809E0,6.940500140E-1,3.817050219E0,9.175050735E0,9.961582896E0
2.389155236E0,6.550500393E-1,3.817050219E0,9.098999977E0,9.888921251E0
2.391118576E0,6.940500140E-1,3.817050219E0,9.136950493E0,9.926502007E0
2.393081580E0,6.940500140E-1,3.817050219E0,9.136950493E0,9.926502007E0
2.395044703E0,6.940500140E-1,3.856050253E0,9.098999977E0,9.906696198E0
2.397008131E0,6.940500140E-1,3.856050253E0,9.136950493E0,9.941563925E0
2.398971470E0,6.550500393E-1,3.856050253E0,9.136950493E0,9.938917366E0
2.400934684E0,6.940500140E-1,3.856050253E0,9.136950493E0,9.941563925E0
2.402897934E0,7.320000529E-1,3.817050219E0,9.136950493E0,9.929227601E0
2.404861224E0,6.940500140E-1,3.856050253E0,9.098999977E0,9.906696198E0
2.406824458E0,7.320000529E-1,3.817050219E0,9.098999977E0,9.894316400E0
2.408787823E0,7.320000529E-1,3.817050219E0,9.136950493E0,9.929227601E0
2.410751149E0,7.320000529E-1,3.856050253E0,9.098999977E0,9.909427239E0
2.412714229E0,6.940500140E-1,3.856050253E0,9.136950493E0,9.941563925E0
2.414677381E0,6.940500140E-1,3.856050253E0,9.175050735E0,9.976591852E0
2.416640829E0,7.699500322E-1,3.856050253E0,9.175050735E0,9.982159216E0
2.418604173E0,6.940500140E-1,3.817050219E0,9.136950493E0,9.926502007E0
2.420567385E0,6.940500140E-1,3.817050219E0,9.214050293E0,9.997514721E0
2.422530636E0,7.699500322E-1,3.817050219E0,9.175050735E0,9.967158643E0
2.424494178E0,6.940500140E-1,3.778950214E0,9.214050293E0,9.983030249E0
2.426457634E0,7.320000529E-1,3.778950214E0,9.214050293E0,9.985740413E0
2.428421022E0,6.940500140E-1,3.817050219E0,9.175050735E0,9.961582896E0
2.430384420E0,7.699500322E-1,3.817050219E0,9.175050735E0,9.967158643E0
2.432347442E0,7.320000529E-1,3.778950214E0,9.136950493E0,9.914643368E0
2.434310574E0,7.320000529E-1,3.817050219E0,9.175050735E0,9.964298894E0
2.436273821E0,7.320000529E-1,3.894000292E0,9.214050293E0,1.002984472E1
2.438237034E0,7.699500322E-1,3.817050219E0,9.175050735E0,9.967158643E0
2.440199938E0,7.699500322E-1,3.817050219E0,9.175050735E0,9.967158643E0
2.442162944E0,7.699500322E-1,3.856050253E0,9.175050735E0,9.982159216E0
2.444126347E0,7.320000529E-1,3.817050219E0,9.214050293E0,1.000022096E1
2.446089634E0,7.699500322E-1,3.817050219E0,9.214050293E0,1.000307044E1
2.448052721E0,7.320000529E-1,3.778950214E0,9.175050735E0,9.949766068E0
2.450015867E0,7.320000529E-1,3.817050219E0,9.175050735E0,9.964298894E0
2.451979291E0,6.940500140E-1,3.856050253E0,9.214050293E0,1.001246981E1
2.453942634E0,7.320000529E-1,3.817050219E0,9.214050293E0,1.000022096E1
2.455905847E0,6.940500140E-1,3.817050219E0,9.214050293E0,9.997514721E0
2.457869098E0,6.550500393E-1,3.856050253E0,9.252000809E0,1.004478636E1
2.459832325E0,6.550500393E-1,3.817050219E0,9.175050735E0,9.958941657E0
2.461795559E0,6.940500140E-1,3.856050253E0,9.175050735E0,9.976591852E0
2.463759119E0,6.550500393E-1,3.856050253E0,9.136950493E0,9.938917366E0
2.465722572E0,6.550500393E-1,3.894000292E0,9.175050735E0,9.988687843E0
2.467685946E0,7.320000529E-1,3.817050219E0,9.175050735E0,9.964298894E0
2.469649344E0,6.550500393E-1,3.894000292E0,9.175050735E0,9.988687843E0
2.471612950E0,6.940500140E-1,3.817050219E0,9.136950493E0,9.926502007E0
2.473576495E0,6.940500140E-1,3.856050253E0,9.175050735E0,9.976591852E0
2.475540028E0,6.940500140E-1,3.856050253E0,9.136950493E0,9.941563925E0
2.477503569E0,6.550500393E-1,3.894000292E0,9.175050735E0,9.988687843E0
2.479467107E0,6.940500140E-1,3.894000292E0,9.214050293E0,1.002714648E1
2.481430646E0,7.320000529E-1,3.856050253E0,9.136950493E0,9.944285391E0
2.483394139E0,6.550500393E-1,3.856050253E0,9.175050735E0,9.973954587E0
2.485357646E0,6.550500393E-1,3.894000292E0,9.214050293E0,1.002452251E1
2.487320708E0,6.940500140E-1,3.856050253E0,9.136950493E0,9.941563925E0
2.489283891E0,6.169500351E-1,3.894000292E0,9.136950493E0,9.951267755E0
2.491247309E0,6.940500140E-1,3.856050253E0,9.214050293E0,1.001246981E1
2.493210658E0,6.940500140E-1,3.894000292E0,9.214050293E0,1.002714648E1
2.495174184E0,6.550500393E-1,3.894000292E0,9.214050293E0,1.002452251E1
2.497137658E0,6.940500140E-1,3.894000292E0,9.136950493E0,9.956345113E0
2.499100888E0,6.940500140E-1,3.894000292E0,9.252000809E0,1.006203074E1
2.501064194E0,6.550500393E-1,3.856050253E0,9.214050293E0,1.000984200E1
2.503027366E0,6.550500393E-1,3.856050253E0,9.214050293E0,1.000984200E1
2.504990578E0,6.169500351E-1,3.856050253E0,9.214050293E0,1.000742093E1
2.506953856E0,6.550500393E-1,3.856050253E0,9.252000809E0,1.004478636E1
2.508917115E0,7.320000529E-1,3.856050253E0,9.214050293E0,1.001517201E1
2.510880278E0,6.550500393E-1,3.856050253E0,9.252000809E0,1.004478636E1
2.512843483E0,6.940500140E-1,3.856050253E0,9.252000809E0,1.004740504E1
2.514806717E0,6.940500140E-1,3.856050253E0,9.252000809E0,1.004740504E1
2.516769942E0,6.169500351E-1,3.817050219E0,9.252000809E0,1.002746322E1
2.518732995E0,7.320000529E-1,3.856050253E0,9.289950371E0,1.008504465E1
2.520696098E0,6.940500140E-1,3.856050253E0,9.252000809E0,1.004740504E1
2.522659413E0,6.550500393E-1,3.856050253E0,9.289950371E0,1.007975158E1
2.524622653E0,6.550500393E-1,3.817050219E0,9.252000809E0,1.002987946E1
2.526586063E0,6.169500351E-1,3.817050219E0,9.289950371E0,1.006248864E1
2.528549423E0,7.320000529E-1,3.817050219E0,9.252000809E0,1.003519882E1
2.530512632E0,6.550500393E-1,3.856050253E0,9.252000809E0,1.004478636E1
2.532475886E0,6.940500140E-1,3.856050253E0,9.252000809E0,1.004740504E1
2.534439214E0,6.940500140E-1,3.817050219E0,9.175050735E0,9.961582896E0
2.536402544E0,6.550500393E-1,3.856050253E0,9.214050293E0,1.000984200E1
2.538365759E0,6.550500393E-1,3.817050219E0,9.252000809E0,1.002987946E1
2.540329007E0,6.550500393E-1,3.856050253E0,9.252000809E0,1.004478636E1
2.542292279E0,6.169500351E-1,3.817050219E0,9.252000809E0,1.002746322E1
2.544255544E0,6.940500140E-1,3.856050253E0,9.289950371E0,1.008236118E1
2.546218779E0,6.550500393E-1,3.817050219E0,9.252000809E0,1.002987946E1
2.548182016E0,6.940500140E-1,3.817050219E0,9.252000809E0,1.003250202E1
2.550145380E0,6.940500140E-1,3.856050253E0,9.289950371E0,1.008236118E1
2.552108706E0,6.940500140E-1,3.856050253E0,9.289950371E0,1.008236118E1
2.554072101E0,6.940500140E-1,3.817050219E0,9.289950371E0,1.006750990E1
2.556035476E0,6.940500140E-1,3.856050253E0,9.289950371E0,1.008236118E1
2.557999029E0,7.320000529E-1,3.817050219E0,9.252000809E0,1.003519882E1
2.559962539E0,6.940500140E-1,3.856050253E0,9.289950371E0,1.008236118E1
2.561925903E0,6.940500140E-1,3.894000292E0,9.214050293E0,1.002714648E1
2.563889310E0,6.940500140E-1,3.856050253E0,9.252000809E0,1.004740504E1
2.565852555E0,6.940500140E-1,3.856050253E0,9.252000809E0,1.004740504E1
2.567815848E0,6.169500351E-1,3.856050253E0,9.252000809E0,1.004237372E1
2.569779236E0,6.550500393E-1,3.817050219E0,9.252000809E0,1.002987946E1
2.571742572E0,6.940500140E-1,3.856050253E0,9.252000809E0,1.004740504E1
2.573705650E0,6.940500140E-1,3.894000292E0,9.252000809E0,1.006203074E1
2.575668804E0,6.550500393E-1,3.894000292E0,9.214050293E0,1.002452251E1
2.577631868E0,6.550500393E-1,3.817050219E0,9.252000809E0,1.002987946E1
2.579594958E0,6.940500140E-1,3.856050253E0,9.252000809E0,1.004740504E1
2.581558393E0,6.550500393E-1,3.817050219E0,9.214050293E0,9.994882977E0
2.583521726E0,6.940500140E-1,3.856050253E0,9.175050735E0,9.976591852E0
2.585484895E0,6.940500140E-1,3.856050253E0,9.252000809E0,1.004740504E1
2.587448112E0,6.940500140E-1,3.817050219E0,9.214050293E0,9.997514721E0
2.589410984E0,6.550500393E-1,3.856050253E0,9.214050293E0,1.000984200E1
2.591373958E0,6.940500140E-1,3.894000292E0,9.175050735E0,9.991321219E0
2.593336683E0,6.940500140E-1,3.856050253E0,9.175050735E0,9.976591852E0
2.595299488E0,6.940500140E-1,3.856050253E0,9.175050735E0,9.976591852E0
2.597262611E0,6.550500393E-1,3.817050219E0,9.136950493E0,9.923851431E0
2.599225640E0,6.940500140E-1,3.856050253E0,9.175050735E0,9.976591852E0
2.601188905E0,6.940500140E-1,3.817050219E0,9.136950493E0,9.926502007E0
2.603152101E0,6.550500393E-1,3.894000292E0,9.214050293E0,1.002452251E1
2.605115323E0,6.550500393E-1,3.856050253E0,9.136950493E0,9.938917366E0
2.607078548E0,7.320000529E-1,3.856050253E0,9.175050735E0,9.979303765E0
2.609041645E0,6.550500393E-1,3.856050253E0,9.136950493E0,9.938917366E0
2.611004780E0,6.940500140E-1,3.894000292E0,9.175050735E0,9.991321219E0
2.612968026E0,6.940500140E-1,3.856050253E0,9.175050735E0,9.976591852E0
2.614931240E0,6.550500393E-1,3.856050253E0,9.175050735E0,9.973954587E0
2.616894119E0,6.940500140E-1,3.856050253E0,9.175050735E0,9.976591852E0
2.618857093E0,6.940500140E-1,3.894000292E0,9.175050735E0,9.991321219E0
2.620820367E0,6.550500393E-1,3.856050253E0,9.175050735E0,9.973954587E0
2.622783553E0,6.550500393E-1,3.856050253E0,9.136950493E0,9.938917366E0
2.624746746E0,6.550500393E-1,3.894000292E0,9.136950493E0,9.953702484E0
2.626709937E0,6.550500393E-1,3.856050253E0,9.175050735E0,9.973954587E0
2.628672850E0,6.940500140E-1,3.856050253E0,9.098999977E0,9.906696198E0
2.630635820E0,6.940500140E-1,3.894000292E0,9.136950493E0,9.956345113E0
2.632598600E0,6.169500351E-1,3.856050253E0,9.136950493E0,9.936479015E0
2.634561435E0,6.550500393E-1,3.894000292E0,9.175050735E0,9.988687843E0
2.636524507E0,6.940500140E-1,3.894000292E0,9.136950493E0,9.956345113E0
2.638487510E0,6.940500140E-1,3.856050253E0,9.136950493E0,9.941563925E0
2.640450990E0,6.550500393E-1,3.894000292E0,9.175050735E0,9.988687843E0
2.642414341E0,6.940500140E-1,3.894000292E0,9.136950493E0,9.956345113E0
2.644377687E0,6.940500140E-1,3.856050253E0,9.098999977E0,9.906696198E0
2.646341035E0,6.940500140E-1,3.817050219E0,9.136950493E0,9.926502007E0
2.648304065E0,6.940500140E-1,3.894000292E0,9.060000420E0,9.885775200E0
2.650267189E0,6.550500393E-1,3.856050253E0,9.022050858E0,9.833392893E0
2.652230299E0,6.940500140E-1,3.856050253E0,9.175050735E0,9.976591852E0
2.654193416E0,7.320000529E-1,3.817050219E0,9.136950493E0,9.929227601E0
2.656156620E0,7.320000529E-1,3.856050253E0,9.098999977E0,9.909427239E0
2.658119799E0,7.320000529E-1,3.856050253E0,9.098999977E0,9.909427239E0
2.660083038E0,7.320000529E-1,3.856050253E0,9.060000420E0,9.873629284E0
2.662046260E0,6.940500140E-1,3.856050253E0,9.060000420E0,9.870888338E0
2.664009182E0,7.320000529E-1,3.856050253E0,9.060000420E0,9.873629284E0
2.665972189E0,7.320000529E-1,3.856050253E0,9.098999977E0,9.909427239E0
2.667935593E0,8.089500666E-1,3.894000292E0,9.136950493E0,9.965013938E0
2.669898880E0,7.320000529E-1,3.856050253E0,9.175050735E0,9.979303765E0
2.671861967E0,7.699500322E-1,3.894000292E0,9.175050735E0,9.996880380E0
2.673825112E0,8.089500666E-1,3.856050253E0,9.175050735E0,9.985243100E0
2.675788357E0,7.320000529E-1,3.778950214E0,9.060000420E0,9.843774500E0
2.677751572E0,6.940500140E-1,3.856050253E0,9.098999977E0,9.906696198E0
2.679714941E0,6.940500140E-1,3.817050219E0,9.060000420E0,9.855718411E0
2.681678264E0,6.169500351E-1,3.856050253E0,9.022050858E0,9.830928368E0
2.683641345E0,5.790000558E-1,3.856050253E0,9.060000420E0,9.863466542E0
2.685604497E0,6.169500351E-1,3.856050253E0,9.022050858E0,9.830928368E0
2.687567925E0,5.790000558E-1,3.817050219E0,9.022050858E0,9.813384488E0
2.689531269E0,6.169500351E-1,3.894000292E0,9.060000420E0,9.880661578E0
2.691494616E0,6.550500393E-1,3.894000292E0,9.022050858E0,9.848336433E0
2.693457962E0,5.790000558E-1,3.856050253E0,9.022050858E0,9.828619755E0
2.695420859E0,6.169500351E-1,3.894000292E0,9.060000420E0,9.880661578E0
2.697383887E0,6.940500140E-1,3.894000292E0,9.098999977E0,9.921529332E0
2.699346957E0,6.169500351E-1,3.894000292E0,9.098999977E0,9.916434148E0
2.701310024E0,6.550500393E-1,3.856050253E0,9.175050735E0,9.973954587E0
2.703273059E0,6.169500351E-1,3.894000292E0,9.136950493E0,9.951267755E0
2.705236103E0,6.550500393E-1,3.894000292E0,9.136950493E0,9.953702484E0
2.707199545E0,6.550500393E-1,3.817050219E0,9.175050735E0,9.958941657E0
2.709162871E0,6.550500393E-1,3.856050253E0,9.214050293E0,1.000984200E1
2.711126131E0,6.940500140E-1,3.856050253E0,9.214050293E0,1.001246981E1
2.713089411E0,6.550500393E-1,3.856050253E0,9.175050735E0,9.973954587E0
2.715052767E0,6.940500140E-1,3.931950092E0,9.214050293E0,1.004194502E1
2.717016101E0,6.550500393E-1,3.856050253E0,9.252000809E0,1.004478636E1
2.718979675E0,6.940500140E-1,3.894000292E0,9.214050293E0,1.002714648E1
2.720943178E0,6.550500393E-1,3.817050219E0,9.252000809E0,1.002987946E1
2.722906553E0,6.169500351E-1,3.856050253E0,9.252000809E0,1.004237372E1
2.724869959E0,6.940500140E-1,3.856050253E0,9.214050293E0,1.001246981E1
2.726833384E0,6.550500393E-1,3.817050219E0,9.214050293E0,9.994882977E0
2.728796803E0,6.940500140E-1,3.856050253E0,9.252000809E0,1.004740504E1
2.730760183E0,7.320000529E-1,3.817050219E0,9.252000809E0,1.003519882E1
2.732723574E0,6.940500140E-1,3.856050253E0,9.252000809E0,1.004740504E1
2.734686782E0,7.699500322E-1,3.817050219E0,9.252000809E0,1.003803837E1
2.736650041E0,7.320000529E-1,3.856050253E0,9.214050293E0,1.001517201E1
2.738613267E0,7.699500322E-1,3.817050219E0,9.252000809E0,1.003803837E1
2.740576502E0,7.320000529E-1,3.817050219E0,9.252000809E0,1.003519882E1
2.742539732E0,7.320000529E-1,3.778950214E0,9.214050293E0,9.985740413E0
2.744502964E0,7.320000529E-1,3.817050219E0,9.214050293E0,1.000022096E1
2.746466703E0,7.320000529E-1,3.778950214E0,9.214050293E0,9.985740413E0
2.748430283E0,7.320000529E-1,3.817050219E0,9.214050293E0,1.000022096E1
2.750393500E0,7.320000529E-1,3.856050253E0,9.214050293E0,1.001517201E1
2.752356824E0,7.320000529E-1,3.817050219E0,9.175050735E0,9.964298894E0
2.754320398E0,6.940500140E-1,3.817050219E0,9.175050735E0,9.961582896E0
2.756283899E0,6.940500140E-1,3.817050219E0,9.252000809E0,1.003250202E1
2.758247065E0,6.940500140E-1,3.817050219E0,9.214050293E0,9.997514721E0
2.760210343E0,6.550500393E-1,3.778950214E0,9.214050293E0,9.980394685E0
2.762174060E0,6.550500393E-1,3.856050253E0,9.214050293E0,1.000984200E1
2.764137649E0,6.169500351E-1,3.817050219E0,9.252000809E0,1.002746322E1
2.766101045E0,6.169500351E-1,3.856050253E0,9.214050293E0,1.000742093E1
2.768064497E0,5.790000558E-1,3.856050253E0,9.252000809E0,1.004011372E1
2.770028019E0,6.169500351E-1,3.894000292E0,9.289950371E0,1.009192962E1
2.771991510E0,6.169500351E-1,3.856050253E0,9.252000809E0,1.004237372E1
2.773955057E0,6.169500351E-1,3.817050219E0,9.252000809E0,1.002746322E1
2.775918587E0,5.790000558E-1,3.856050253E0,9.289950371E0,1.007509516E1
2.777881993E0,6.169500351E-1,3.856050253E0,9.289950371E0,1.007734731E1
2.779845435E0,6.169500351E-1,3.931950092E0,9.214050293E0,1.003691096E1
2.781808393E0,6.550500393E-1,3.856050253E0,9.252000809E0,1.004478636E1
2.783771501E0,5.790000558E-1,3.856050253E0,9.289950371E0,1.007509516E1
2.785734932E0,6.550500393E-1,3.856050253E0,9.214050293E0,1.000984200E1
2.787698268E0,6.169500351E-1,3.856050253E0,9.214050293E0,1.000742093E1
2.789661482E0,6.940500140E-1,3.856050253E0,9.252000809E0,1.004740504E1
2.791624732E0,6.169500351E-1,3.856050253E0,9.214050293E0,1.000742093E1
2.793588003E0,6.169500351E-1,3.856050253E0,9.175050735E0,9.971524803E0
2.795551268E0,6.550500393E-1,3.817050219E0,9.214050293E0,9.994882977E0
2.797514808E0,6.550500393E-1,3.817050219E0,9.214050293E0,9.994882977E0
2.799478268E0,6.550500393E-1,3.817050219E0,9.214050293E0,9.994882977E0
2.801441641E0,6.940500140E-1,3.817050219E0,9.214050293E0,9.997514721E0
2.803405040E0,6.940500140E-1,3.856050253E0,9.214050293E0,1.001246981E1
2.805368412E0,7.320000529E-1,3.778950214E0,9.175050735E0,9.949766068E0
2.807331799E0,7.320000529E-1,3.817050219E0,9.175050735E0,9.964298894E0
2.809295048E0,7.699500322E-1,3.817050219E0,9.175050735E0,9.967158643E0
2.811258337E0,6.940500140E-1,3.817050219E0,9.175050735E0,9.961582896E0
2.813221917E0,6.940500140E-1,3.778950214E0,9.214050293E0,9.983030249E0
2.815185412E0,6.940500140E-1,3.778950214E0,9.214050293E0,9.983030249E0
2.817148920E0,7.320000529E-1,3.817050219E0,9.214050293E0,1.000022096E1
2.819112451E0,7.320000529E-1,3.778950214E0,9.175050735E0,9.949766068E0
2.821075991E0,7.320000529E-1,3.778950214E0,9.252000809E0,1.002076882E1
2.823039528E0,7.320000529E-1,3.817050219E0,9.214050293E0,1.000022096E1
2.825003067E0,7.320000529E-1,3.817050219E0,9.214050293E0,1.000022096E1
2.826966605E0,7.320000529E-1,3.817050219E0,9.214050293E0,1.000022096E1
2.828929919E0,7.320000529E-1,3.778950214E0,9.252000809E0,1.002076882E1
2.830893299E0,7.320000529E-1,3.817050219E0,9.252000809E0,1.003519882E1
2.832856504E0,7.320000529E-1,3.817050219E0,9.252000809E0,1.003519882E1
2.834819761E0,7.320000529E-1,3.817050219E0,9.214050293E0,1.000022096E1
2.836782852E0,6.550500393E-1,3.894000292E0,9.214050293E0,1.002452251E1
2.838745992E0,6.940500140E-1,3.856050253E0,9.252000809E0,1.004740504E1
2.840709232E0,6.940500140E-1,3.817050219E0,9.252000809E0,1.003250202E1
2.842672446E0,6.550500393E-1,3.894000292E0,9.175050735E0,9.988687843E0
2.844635636E0,6.940500140E-1,3.856050253E0,9.214050293E0,1.001246981E1
2.846598833E0,6.550500393E-1,3.856050253E0,9.175050735E0,9.973954587E0
2.848561934E0,6.940500140E-1,3.817050219E0,9.214050293E0,9.997514721E0
2.850525064E0,6.550500393E-1,3.894000292E0,9.214050293E0,1.002452251E1
2.852488325E0,6.550500393E-1,3.894000292E0,9.214050293E0,1.002452251E1
2.854451537E0,6.169500351E-1,3.894000292E0,9.214050293E0,1.002210499E1
2.856414727E0,6.169500351E-1,3.856050253E0,9.289950371E0,1.007734731E1
2.858377924E0,6.940500140E-1,3.856050253E0,9.214050293E0,1.001246981E1
2.860341340E0,6.550500393E-1,3.894000292E0,9.175050735E0,9.988687843E0
2.862304691E0,6.169500351E-1,3.856050253E0,9.289950371E0,1.007734731E1
2.864267939E0,6.169500351E-1,3.894000292E0,9.175050735E0,9.986261644E0
2.866231223E0,6.169500351E-1,3.894000292E0,9.214050293E0,1.002210499E1
2.868194444E0,6.550500393E-1,3.894000292E0,9.252000809E0,1.005941588E1
2.870157684E0,6.169500351E-1,3.856050253E0,9.214050293E0,1.000742093E1
2.872121228E0,5.790000558E-1,3.856050253E0,9.252000809E0,1.004011372E1
2.874084682E0,6.940500140E-1,3.894000292E0,9.289950371E0,1.009693625E1
2.876048211E0,6.940500140E-1,3.894000292E0,9.252000809E0,1.006203074E1
2.878011735E0,6.169500351E-1,3.894000292E0,9.289950371E0,1.009192962E1
2.879975276E0,6.550500393E-1,3.894000292E0,9.289950371E0,1.009433042E1
2.881938812E0,6.550500393E-1,3.894000292E0,9.289950371E0,1.009433042E1
2.883902351E0,6.550500393E-1,3.856050253E0,9.252000809E0,1.004478636E1
2.885865889E0,6.550500393E-1,3.856050253E0,9.252000809E0,1.004478636E1
2.887829456E0,6.169500351E-1,3.856050253E0,9.252000809E0,1.004237372E1
2.889792994E0,6.940500140E-1,3.856050253E0,9.289950371E0,1.008236118E1
2.891756533E0,6.940500140E-1,3.856050253E0,9.252000809E0,1.004740504E1
2.893720071E0,6.550500393E-1,3.856050253E0,9.252000809E0,1.004478636E1
2.895683430E0,6.940500140E-1,3.817050219E0,9.252000809E0,1.003250202E1
2.897646842E0,6.169500351E-1,3.817050219E0,9.214050293E0,9.992458282E0
2.899610232E0,6.550500393E-1,3.817050219E0,9.289950371E0,1.006489646E1
2.901573621E0,6.940500140E-1,3.817050219E0,9.252000809E0,1.003250202E1
2.903537229E0,6.169500351E-1,3.856050253E0,9.289950371E0,1.007734731E1
2.905500773E0,6.940500140E-1,3.817050219E0,9.252000809E0,1.003250202E1
2.907464267E0,6.550500393E-1,3.856050253E0,9.289950371E0,1.007975158E1
2.909427775E0,6.940500140E-1,3.817050219E0,9.252000809E0,1.003250202E1
2.911391013E0,6.550500393E-1,3.817050219E0,9.214050293E0,9.994882977E0
2.913354324E0,6.940500140E-1,3.817050219E0,9.252000809E0,1.003250202E1
2.915317495E0,6.550500393E-1,3.778950214E0,9.252000809E0,1.001544179E1
2.917280708E0,6.550500393E-1,3.817050219E0,9.175050735E0,9.958941657E0
2.919243807E0,6.169500351E-1,3.856050253E0,9.214050293E0,1.000742093E1
2.921206939E0,6.940500140E-1,3.817050219E0,9.252000809E0,1.003250202E1
2.923170301E0,6.550500393E-1,3.817050219E0,9.214050293E0,9.994882977E0
2.925133609E0,6.940500140E-1,3.817050219E0,9.175050735E0,9.961582896E0
2.927096873E0,6.940500140E-1,3.778950214E0,9.214050293E0,9.983030249E0
2.929060150E0,6.550500393E-1,3.817050219E0,9.214050293E0,9.994882977E0
2.931023507E0,6.940500140E-1,3.817050219E0,9.175050735E0,9.961582896E0
2.932986840E0,6.940500140E-1,3.778950214E0,9.214050293E0,9.983030249E0
2.934950041E0,6.940500140E-1,3.817050219E0,9.214050293E0,9.997514721E0
2.936913290E0,6.940500140E-1,3.817050219E0,9.175050735E0,9.961582896E0
2.938876697E0,7.320000529E-1,3.817050219E0,9.175050735E0,9.964298894E0
2.940840057E0,6.940500140E-1,3.817050219E0,9.136950493E0,9.926502007E0
2.942803132E0,6.940500140E-1,3.817050219E0,9.214050293E0,9.997514721E0
2.944766290E0,6.550500393E-1,3.817050219E0,9.175050735E0,9.958941657E0
2.946729731E0,7.320000529E-1,3.778950214E0,9.136950493E0,9.914643368E0
2.948693076E0,7.699500322E-1,3.778950214E0,9.136950493E0,9.917517436E0
2.950656243E0,7.320000529E-1,3.778950214E0,9.098999977E0,9.879680632E0
2.952619463E0,7.320000529E-1,3.817050219E0,9.098999977E0,9.894316400E0
2.954582694E0,7.320000529E-1,3.817050219E0,9.136950493E0,9.929227601E0
2.956545922E0,7.320000529E-1,3.856050253E0,9.098999977E0,9.909427239E0
2.958509328E0,7.320000529E-1,3.817050219E0,9.098999977E0,9.894316400E0
2.960472686E0,6.940500140E-1,3.817050219E0,9.060000420E0,9.855718411E0
2.962436076E0,6.550500393E-1,3.817050219E0,9.060000420E0,9.853048794E0
2.964399456E0,6.940500140E-1,3.778950214E0,9.098999977E0,9.876941365E0
2.966363022E0,6.940500140E-1,3.778950214E0,9.060000420E0,9.841025239E0
2.968326533E0,7.320000529E-1,3.817050219E0,9.136950493E0,9.929227601E0
2.970289732E0,7.320000529E-1,3.778950214E0,9.098999977E0,9.879680632E0
2.972253012E0,6.940500140E-1,3.817050219E0,9.098999977E0,9.891581187E0
2.974216413E0,7.320000529E-1,3.856050253E0,9.175050735E0,9.979303765E0
2.976179779E0,6.940500140E-1,3.817050219E0,9.098999977E0,9.891581187E0
2.978143033E0,7.320000529E-1,3.817050219E0,9.098999977E0,9.894316400E0
2.980106320E0,7.320000529E-1,3.817050219E0,9.136950493E0,9.929227601E0
2.982069505E0,7.320000529E-1,3.856050253E0,9.136950493E0,9.944285391E0
2.984032713E0,7.699500322E-1,3.856050253E0,9.136950493E0,9.947150894E0
2.985995992E0,6.940500140E-1,3.856050253E0,9.136950493E0,9.941563925E0
2.987959250E0,7.320000529E-1,3.817050219E0,9.136950493E0,9.929227601E0
2.989922297E0,6.940500140E-1,3.817050219E0,9.175050735E0,9.961582896E0
2.991885406E0,7.320000529E-1,3.817050219E0,9.175050735E0,9.964298894E0
2.993848856E0,6.940500140E-1,3.817050219E0,9.175050735E0,9.961582896E0
2.995812192E0,6.940500140E-1,3.817050219E0,9.098999977E0,9.891581187E0
2.997775585E0,6.940500140E-1,3.817050219E0,9.175050735E0,9.961582896E0
2.999738961E0,6.940500140E-1,3.817050219E0,9.175050735E0,9.961582896E0
3.001701988E0,6.940500140E-1,3.856050253E0,9.175050735E0,9.976591852E0
3.003665117E0,6.940500140E-1,3.894000292E0,9.214050293E0,1.002714648E1
3.005628334E0,6.940500140E-1,3.856050253E0,9.175050735E0,9.976591852E0
3.007591515E0,6.940500140E-1,3.856050253E0,9.289950371E0,1.008236118E1
3.009554440E0,6.940500140E-1,3.856050253E0,9.175050735E0,9.976591852E0
3.011517440E0,7.320000529E-1,3.856050253E0,9.252000809E0,1.005009784E1
3.013480664E0,6.940500140E-1,3.856050253E0,9.175050735E0,9.976591852E0
3.015443822E0,6.940500140E-1,3.856050253E0,9.175050735E0,9.976591852E0
3.017406566E0,6.550500393E-1,3.856050253E0,9.214050293E0,1.000984200E1
3.019369435E0,6.940500140E-1,3.856050253E0,9.214050293E0,1.001246981E1
3.021332681E0,6.940500140E-1,3.894000292E0,9.175050735E0,9.991321219E0
3.023295817E0,6.940500140E-1,3.894000292E0,9.214050293E0,1.002714648E1
3.025258930E0,6.550500393E-1,3.856050253E0,9.175050735E0,9.973954587E0
3.027222050E0,6.169500351E-1,3.894000292E0,9.175050735E0,9.986261644E0
3.029185439E0,6.169500351E-1,3.894000292E0,9.214050293E0,1.002210499E1
3.031148746E0,6.169500351E-1,3.894000292E0,9.175050735E0,9.986261644E0
3.033112010E0,6.169500351E-1,3.894000292E0,9.252000809E0,1.005700674E1
3.035075286E0,6.169500351E-1,3.856050253E0,9.214050293E0,1.000742093E1
3.037038509E0,5.790000558E-1,3.931950092E0,9.214050293E0,1.003464974E1
3.039001748E0,6.550500393E-1,3.931950092E0,9.175050735E0,1.000354328E1
3.040965156E0,6.940500140E-1,3.894000292E0,9.214050293E0,1.002714648E1
3.042928515E0,5.790000558E-1,3.856050253E0,9.252000809E0,1.004011372E1
3.044891679E0,6.550500393E-1,3.894000292E0,9.289950371E0,1.009433042E1
3.046854901E0,6.940500140E-1,3.894000292E0,9.214050293E0,1.002714648E1
3.048817998E0,6.169500351E-1,3.931950092E0,9.214050293E0,1.003691096E1
3.050781132E0,6.550500393E-1,3.856050253E0,9.175050735E0,9.973954587E0
3.052744582E0,6.550500393E-1,3.894000292E0,9.252000809E0,1.005941588E1
3.054707923E0,6.940500140E-1,3.931950092E0,9.136950493E0,9.971248731E0
3.056671136E0,6.169500351E-1,3.894000292E0,9.175050735E0,9.986261644E0
3.058634387E0,6.550500393E-1,3.894000292E0,9.214050293E0,1.002452251E1
3.060597614E0,6.940500140E-1,3.894000292E0,9.175050735E0,9.991321219E0
3.062560849E0,6.550500393E-1,3.894000292E0,9.136950493E0,9.953702484E0
3.064523858E0,6.550500393E-1,3.894000292E0,9.136950493E0,9.953702484E0
3.066486930E0,6.169500351E-1,3.856050253E0,9.136950493E0,9.936479015E0
3.068449827E0,6.169500351E-1,3.931950092E0,9.214050293E0,1.003691096E1
3.070412776E0,6.550500393E-1,3.856050253E0,9.175050735E0,9.973954587E0
3.072375694E0,6.169500351E-1,3.856050253E0,9.136950493E0,9.936479015E0
3.074338622E0,6.169500351E-1,3.856050253E0,9.175050735E0,9.971524803E0
3.076301728E0,6.550500393E-1,3.931950092E0,9.175050735E0,1.000354328E1
3.078264779E0,6.550500393E-1,3.894000292E0,9.214050293E0,1.002452251E1
3.080227905E0,6.169500351E-1,3.894000292E0,9.214050293E0,1.002210499E1
3.082191009E0,6.169500351E-1,3.894000292E0,9.252000809E0,1.005700674E1
3.084154082E0,6.550500393E-1,3.856050253E0,9.214050293E0,1.000984200E1
3.086117165E0,6.550500393E-1,3.856050253E0,9.214050293E0,1.000984200E1
3.088080366E0,6.169500351E-1,3.856050253E0,9.175050735E0,9.971524803E0
3.090043539E0,6.550500393E-1,3.856050253E0,9.214050293E0,1.000984200E1
3.092006601E0,6.550500393E-1,3.817050219E0,9.214050293E0,9.994882977E0
3.093969695E0,6.940500140E-1,3.817050219E0,9.252000809E0,1.003250202E1
3.095932589E0,6.169500351E-1,3.856050253E0,9.289950371E0,1.007734731E1
3.097895541E0,6.169500351E-1,3.817050219E0,9.252000809E0,1.002746322E1
3.099858488E0,6.550500393E-1,3.856050253E0,9.252000809E0,1.004478636E1
3.101821447E0,6.940500140E-1,3.856050253E0,9.252000809E0,1.004740504E1
3.103784499E0,6.940500140E-1,3.817050219E0,9.252000809E0,1.003250202E1
3.105747524E0,6.940500140E-1,3.817050219E0,9.252000809E0,1.003250202E1
3.107710431E0,6.940500140E-1,3.856050253E0,9.214050293E0,1.001246981E1
3.109673372E0,6.940500140E-1,3.856050253E0,9.252000809E0,1.004740504E1
3.111636374E0,6.940500140E-1,3.817050219E0,9.252000809E0,1.003250202E1
3.113599331E0,6.940500140E-1,3.856050253E0,9.214050293E0,1.001246981E1
3.115562429E0,6.940500140E-1,3.856050253E0,9.252000809E0,1.004740504E1
3.117525485E0,6.940500140E-1,3.856050253E0,9.175050735E0,9.976591852E0
3.119488701E0,7.320000529E-1,3.856050253E0,9.252000809E0,1.005009784E1
3.121451870E0,6.940500140E-1,3.817050219E0,9.214050293E0,9.997514721E0
3.123414932E0,6.550500393E-1,3.817050219E0,9.214050293E0,9.994882977E0
3.125378026E0,6.550500393E-1,3.817050219E0,9.214050293E0,9.994882977E0
3.127341324E0,7.320000529E-1,3.856050253E0,9.175050735E0,9.979303765E0
3.129304562E0,7.320000529E-1,3.856050253E0,9.214050293E0,1.001517201E1
3.131267793E0,6.550500393E-1,3.817050219E0,9.175050735E0,9.958941657E0
3.133231026E0,7.320000529E-1,3.894000292E0,9.175050735E0,9.994029135E0
3.135194376E0,7.320000529E-1,3.856050253E0,9.175050735E0,9.979303765E0
3.137157702E0,6.550500393E-1,3.856050253E0,9.175050735E0,9.973954587E0
3.139120602E0,6.940500140E-1,3.856050253E0,9.136950493E0,9.941563925E0
3.141083627E0,6.940500140E-1,3.894000292E0,9.098999977E0,9.921529332E0
3.143046847E0,5.790000558E-1,3.894000292E0,9.136950493E0,9.948987066E0
3.145010010E0,6.940500140E-1,3.856050253E0,9.136950493E0,9.941563925E0
3.146973078E0,6.550500393E-1,3.856050253E0,9.136950493E0,9.938917366E0
3.148936170E0,6.940500140E-1,3.856050253E0,9.136950493E0,9.941563925E0
3.150899424E0,6.550500393E-1,3.856050253E0,9.175050735E0,9.973954587E0
3.152862630E0,6.940500140E-1,3.894000292E0,9.098999977E0,9.921529332E0
3.154825910E0,6.940500140E-1,3.894000292E0,9.136950493E0,9.956345113E0
3.156789168E0,6.169500351E-1,3.894000292E0,9.136950493E0,9.951267755E0
3.158752544E0,6.169500351E-1,3.894000292E0,9.098999977E0,9.916434148E0
3.160715875E0,6.940500140E-1,3.894000292E0,9.136950493E0,9.956345113E0
3.162679134E0,6.940500140E-1,3.931950092E0,9.214050293E0,1.004194502E1
3.164642415E0,7.320000529E-1,3.856050253E0,9.136950493E0,9.944285391E0
3.166605772E0,6.550500393E-1,3.894000292E0,9.175050735E0,9.988687843E0
3.168569106E0,6.169500351E-1,3.894000292E0,9.175050735E0,9.986261644E0
3.170532485E0,6.550500393E-1,3.856050253E0,9.214050293E0,1.000984200E1
3.172495861E0,6.940500140E-1,3.894000292E0,9.214050293E0,1.002714648E1
3.174459068E0,6.940500140E-1,3.856050253E0,9.175050735E0,9.976591852E0
3.176422324E0,7.320000529E-1,3.856050253E0,9.252000809E0,1.005009784E1
3.178385595E0,6.550500393E-1,3.817050219E0,9.214050293E0,9.994882977E0
3.180348861E0,7.320000529E-1,3.856050253E0,9.214050293E0,1.001517201E1
3.182312042E0,6.940500140E-1,3.856050253E0,9.214050293E0,1.001246981E1
3.184275280E0,6.169500351E-1,3.856050253E0,9.252000809E0,1.004237372E1
3.186238689E0,6.550500393E-1,3.856050253E0,9.214050293E0,1.000984200E1
3.188202048E0,6.940500140E-1,3.817050219E0,9.252000809E0,1.003250202E1
3.190165572E0,6.940500140E-1,3.817050219E0,9.252000809E0,1.003250202E1
3.192129048E0,6.169500351E-1,3.817050219E0,9.214050293E0,9.992458282E0
3.194092772E0,6.550500393E-1,3.856050253E0,9.214050293E0,1.000984200E1
3.196056427E0,6.550500393E-1,3.856050253E0,9.252000809E0,1.004478636E1
3.198019586E0,6.550500393E-1,3.817050219E0,9.214050293E0,9.994882977E0
3.199982891E0,7.320000529E-1,3.817050219E0,9.214050293E0,1.000022096E1
3.201945929E0,6.940500140E-1,3.817050219E0,9.252000809E0,1.003250202E1
3.203909045E0,6.940500140E-1,3.817050219E0,9.289950371E0,1.006750990E1
3.205872508E0,6.550500393E-1,3.778950214E0,9.252000809E0,1.001544179E1
3.207835846E0,6.940500140E-1,3.817050219E0,9.214050293E0,9.997514721E0
3.209798744E0,6.940500140E-1,3.817050219E0,9.214050293E0,9.997514721E0
3.211761771E0,6.550500393E-1,3.856050253E0,9.252000809E0,1.004478636E1
3.213724991E0,6.940500140E-1,3.817050219E0,9.252000809E0,1.003250202E1
3.215688154E0,6.940500140E-1,3.817050219E0,9.252000809E0,1.003250202E1
3.217651202E0,6.550500393E-1,3.817050219E0,9.289950371E0,1.006489646E1
3.219614294E0,6.940500140E-1,3.817050219E0,9.214050293E0,9.997514721E0
3.221577368E0,6.940500140E-1,3.817050219E0,9.214050293E0,9.997514721E0
3.223540448E0,6.940500140E-1,3.817050219E0,9.214050293E0,9.997514721E0
3.225503524E0,6.940500140E-1,3.817050219E0,9.175050735E0,9.961582896E0
3.227466602E0,7.320000529E-1,3.817050219E0,9.214050293E0,1.000022096E1
3.229429830E0,7.320000529E-1,3.817050219E0,9.175050735E0,9.964298894E0
3.231393034E0,7.320000529E-1,3.856050253E0,9.214050293E0,1.001517201E1
3.233356269E0,6.940500140E-1,3.856050253E0,9.214050293E0,1.001246981E1
3.235319495E0,6.940500140E-1,3.856050253E0,9.214050293E0,1.001246981E1
3.237282548E0,7.320000529E-1,3.817050219E0,9.175050735E0,9.964298894E0
3.239245651E0,7.320000529E-1,3.817050219E0,9.175050735E0,9.964298894E0
3.241208753E0,6.940500140E-1,3.778950214E0,9.136950493E0,9.911913763E0
3.243171865E0,7.320000529E-1,3.817050219E0,9.175050735E0,9.964298894E0
3.245135071E0,7.320000529E-1,3.856050253E0,9.175050735E0,9.979303765E0
3.247098250E0,6.940500140E-1,3.817050219E0,9.175050735E0,9.961582896E0
3.249061355E0,6.550500393E-1,3.778950214E0,9.175050735E0,9.944401001E0
3.251024482E0,7.320000529E-1,3.778950214E0,9.098999977E0,9.879680632E0
3.252987719E0,7.320000529E-1,3.856050253E0,9.175050735E0,9.979303765E0
3.254950899E0,6.940500140E-1,3.856050253E0,9.175050735E0,9.976591852E0
3.256913824E0,6.940500140E-1,3.856050253E0,9.136950493E0,9.941563925E0
3.258876824E0,6.940500140E-1,3.856050253E0,9.098999977E0,9.906696198E0
3.260840048E0,6.550500393E-1,3.856050253E0,9.175050735E0,9.973954587E0
3.262803207E0,6.940500140E-1,3.778950214E0,9.136950493E0,9.911913763E0
3.264766256E0,6.940500140E-1,3.856050253E0,9.175050735E0,9.976591852E0
3.266729348E0,6.940500140E-1,3.856050253E0,9.175050735E0,9.976591852E0
3.268692646E0,6.940500140E-1,3.856050253E0,9.175050735E0,9.976591852E0
3.270655884E0,7.320000529E-1,3.817050219E0,9.136950493E0,9.929227601E0
3.272619070E0,7.320000529E-1,3.817050219E0,9.136950493E0,9.929227601E0
3.274582271E0,7.320000529E-1,3.856050253E0,9.175050735E0,9.979303765E0
3.276545362E0,6.940500140E-1,3.856050253E0,9.214050293E0,1.001246981E1
3.278508492E0,6.550500393E-1,3.817050219E0,9.175050735E0,9.958941657E0
3.280471920E0,7.320000529E-1,3.817050219E0,9.098999977E0,9.894316400E0
3.282435260E0,7.320000529E-1,3.817050219E0,9.175050735E0,9.964298894E0
3.284398652E0,7.320000529E-1,3.778950214E0,9.136950493E0,9.914643368E0
3.286362029E0,7.320000529E-1,3.856050253E0,9.175050735E0,9.979303765E0
3.288325351E0,7.320000529E-1,3.856050253E0,9.136950493E0,9.944285391E0
3.290288703E0,6.940500140E-1,3.817050219E0,9.136950493E0,9.926502007E0
3.292251778E0,7.320000529E-1,3.817050219E0,9.136950493E0,9.929227601E0
3.294214934E0,7.320000529E-1,3.817050219E0,9.136950493E0,9.929227601E0
3.296178177E0,7.320000529E-1,3.856050253E0,9.136950493E0,9.944285391E0
3.298141394E0,7.320000529E-1,3.817050219E0,9.175050735E0,9.964298894E0
3.300104774E0,6.940500140E-1,3.817050219E0,9.136950493E0,9.926502007E0
3.302068130E0,6.940500140E-1,3.856050253E0,9.098999977E0,9.906696198E0
3.304031340E0,6.940500140E-1,3.856050253E0,9.136950493E0,9.941563925E0
3.305994593E0,6.940500140E-1,3.856050253E0,9.136950493E0,9.941563925E0
3.307957640E0,7.320000529E-1,3.856050253E0,9.136950493E0,9.944285391E0
3.309920747E0,6.550500393E-1,3.817050219E0,9.175050735E0,9.958941657E0
3.311883967E0,7.320000529E-1,3.856050253E0,9.175050735E0,9.979303765E0
3.313847144E0,6.940500140E-1,3.894000292E0,9.136950493E0,9.956345113E0
3.315810609E0,6.940500140E-1,3.778950214E0,9.175050735E0,9.947046101E0
3.317773990E0,7.320000529E-1,3.817050219E0,9.136950493E0,9.929227601E0
3.319737151E0,6.940500140E-1,3.856050253E0,9.098999977E0,9.906696198E0
3.321700377E0,6.940500140E-1,3.856050253E0,9.175050735E0,9.976591852E0
3.323663982E0,6.940500140E-1,3.856050253E0,9.175050735E0,9.976591852E0
3.325627466E0,7.320000529E-1,3.856050253E0,9.098999977E0,9.909427239E0
3.327590654E0,7.320000529E-1,3.856050253E0,9.214050293E0,1.001517201E1
3.329553929E0,6.550500393E-1,3.856050253E0,9.175050735E0,9.973954587E0
3.331516972E0,6.550500393E-1,3.856050253E0,9.175050735E0,9.973954587E0
3.333480083E0,6.550500393E-1,3.817050219E0,9.214050293E0,9.994882977E0
3.335443154E0,6.550500393E-1,3.856050253E0,9.175050735E0,9.973954587E0
3.337406237E0,6.550500393E-1,3.856050253E0,9.214050293E0,1.000984200E1
