"Time (s)","Acceleration x (m/s^2)","Acceleration y (m/s^2)","Acceleration z (m/s^2)","Absolute acceleration (m/s^2)"
3.036947400E-2,3.870000243E-1,4.162050247E0,9.022050858E0,9.943331079E0
3.233161000E-2,4.639500082E-1,4.201050282E0,8.983950615E0,9.928516593E0
3.429624300E-2,4.260000288E-1,4.201050282E0,9.022050858E0,9.961310213E0
3.625941300E-2,3.870000243E-1,4.201050282E0,8.983950615E0,9.925218443E0
3.822301200E-2,3.870000243E-1,4.162050247E0,8.983950615E0,9.908773886E0
4.018599200E-2,4.260000288E-1,4.162050247E0,8.944950104E0,9.875032691E0
4.214919100E-2,3.870000243E-1,4.162050247E0,8.983950615E0,9.908773886E0
4.411242600E-2,3.490500152E-1,4.162050247E0,9.022050858E0,9.941926365E0
4.607565100E-2,4.260000288E-1,4.162050247E0,9.022050858E0,9.944925337E0
4.803901800E-2,4.260000288E-1,4.162050247E0,9.022050858E0,9.944925337E0
5.000234300E-2,4.260000288E-1,4.201050282E0,8.983950615E0,9.926815609E0
5.196570900E-2,4.260000288E-1,4.162050247E0,9.022050858E0,9.944925337E0
5.392908300E-2,3.870000243E-1,4.239000320E0,9.022050858E0,9.975785403E0
5.589251400E-2,3.870000243E-1,4.201050282E0,8.983950615E0,9.925218443E0
5.785592900E-2,3.870000243E-1,4.162050247E0,8.983950615E0,9.908773886E0
5.981931000E-2,4.260000288E-1,4.201050282E0,9.022050858E0,9.961310213E0
6.178270100E-2,3.870000243E-1,4.201050282E0,8.983950615E0,9.925218443E0
6.374569300E-2,3.870000243E-1,4.201050282E0,9.022050858E0,9.959718578E0
6.570882400E-2,3.490500152E-1,4.239000320E0,9.060000420E0,1.000872456E1
6.767207100E-2,3.870000243E-1,4.201050282E0,9.022050858E0,9.959718578E0
6.963528400E-2,4.260000288E-1,4.239000320E0,9.022050858E0,9.977374475E0
7.159833900E-2,3.490500152E-1,4.201050282E0,9.060000420E0,9.992710693E0
7.356144000E-2,3.490500152E-1,4.239000320E0,8.983950615E0,9.939936030E0
7.552506600E-2,3.490500152E-1,4.239000320E0,9.022050858E0,9.974385260E0
7.748852900E-2,3.490500152E-1,4.239000320E0,9.022050858E0,9.974385260E0
7.945203500E-2,3.490500152E-1,4.201050282E0,8.983950615E0,9.923811165E0
8.141552900E-2,3.490500152E-1,4.201050282E0,8.944950104E0,9.888518177E0
8.337894100E-2,3.109500110E-1,4.239000320E0,8.944950104E0,9.903431021E0
8.534237700E-2,3.490500152E-1,4.239000320E0,8.983950615E0,9.939936030E0
8.730573400E-2,3.490500152E-1,4.239000320E0,8.983950615E0,9.939936030E0
8.926912700E-2,3.490500152E-1,4.276950359E0,8.983950615E0,9.956179435E0
9.123264400E-2,3.870000243E-1,4.239000320E0,8.944950104E0,9.906110493E0
9.319612500E-2,3.490500152E-1,4.276950359E0,8.983950615E0,9.956179435E0
9.515935900E-2,3.870000243E-1,4.239000320E0,8.944950104E0,9.906110493E0
9.712266600E-2,3.109500110E-1,4.239000320E0,8.944950104E0,9.903431021E0
9.908603400E-2,3.490500152E-1,4.239000320E0,8.983950615E0,9.939936030E0
1.010494040E-1,4.260000288E-1,4.201050282E0,8.944950104E0,9.891533342E0
1.030122510E-1,4.260000288E-1,4.201050282E0,8.983950615E0,9.926815609E0
1.049752520E-1,3.490500152E-1,4.239000320E0,8.944950104E0,9.904700500E0
1.069382960E-1,3.490500152E-1,4.201050282E0,8.944950104E0,9.888518177E0
1.089013270E-1,3.870000243E-1,4.201050282E0,8.944950104E0,9.889930477E0
1.108640920E-1,3.870000243E-1,4.239000320E0,8.944950104E0,9.906110493E0
1.128269390E-1,3.870000243E-1,4.201050282E0,8.983950615E0,9.925218443E0
1.147902350E-1,3.109500110E-1,4.162050247E0,8.944950104E0,9.870738804E0
1.167533990E-1,3.490500152E-1,4.201050282E0,8.944950104E0,9.888518177E0
1.187167760E-1,3.870000243E-1,4.239000320E0,8.983950615E0,9.941341026E0
1.206800910E-1,3.490500152E-1,4.201050282E0,8.983950615E0,9.923811165E0
1.226436840E-1,3.870000243E-1,4.239000320E0,8.983950615E0,9.941341026E0
1.246072160E-1,4.260000288E-1,4.201050282E0,8.944950104E0,9.891533342E0
1.265707120E-1,3.870000243E-1,4.162050247E0,9.022050858E0,9.943331079E0
1.285342180E-1,3.870000243E-1,4.239000320E0,9.022050858E0,9.975785403E0
1.304976270E-1,3.870000243E-1,4.201050282E0,9.022050858E0,9.959718578E0
1.324610640E-1,3.870000243E-1,4.201050282E0,8.983950615E0,9.925218443E0
1.344242210E-1,3.870000243E-1,4.201050282E0,9.022050858E0,9.959718578E0
1.363874870E-1,3.870000243E-1,4.239000320E0,9.022050858E0,9.975785403E0
1.383510260E-1,4.260000288E-1,4.201050282E0,8.983950615E0,9.926815609E0
1.403144850E-1,4.260000288E-1,4.239000320E0,9.022050858E0,9.977374475E0
1.422775430E-1,3.870000243E-1,4.201050282E0,9.022050858E0,9.959718578E0
1.442407180E-1,3.490500152E-1,4.239000320E0,9.060000420E0,1.000872456E1
1.462041070E-1,3.490500152E-1,4.239000320E0,9.022050858E0,9.974385260E0
1.481674230E-1,3.490500152E-1,4.276950359E0,9.060000420E0,1.002485650E1
1.501306410E-1,3.870000243E-1,4.239000320E0,9.060000420E0,1.001011990E1
1.520938870E-1,3.109500110E-1,4.276950359E0,9.022050858E0,9.989314089E0
1.540566190E-1,3.109500110E-1,4.276950359E0,9.022050858E0,9.989314089E0
1.560195020E-1,3.490500152E-1,4.239000320E0,9.022050858E0,9.974385260E0
1.579825410E-1,2.719500065E-1,4.276950359E0,9.060000420E0,1.002246820E1
1.599455520E-1,3.109500110E-1,4.239000320E0,9.022050858E0,9.973124651E0
1.619085060E-1,3.109500110E-1,4.239000320E0,9.022050858E0,9.973124651E0
1.638714770E-1,3.490500152E-1,4.276950359E0,9.060000420E0,1.002485650E1
1.658347510E-1,3.109500110E-1,4.276950359E0,9.060000420E0,1.002360224E1
1.677979360E-1,3.109500110E-1,4.276950359E0,9.060000420E0,1.002360224E1
1.697609820E-1,2.719500065E-1,4.276950359E0,9.022050858E0,9.988176153E0
1.717240780E-1,2.719500065E-1,4.315950394E0,9.098999977E0,1.007438262E1
1.736869270E-1,3.109500110E-1,4.276950359E0,9.022050858E0,9.989314089E0
1.756498480E-1,3.109500110E-1,4.276950359E0,9.060000420E0,1.002360224E1
1.776126360E-1,3.870000243E-1,4.315950394E0,9.060000420E0,1.004294799E1
1.795754630E-1,3.109500110E-1,4.276950359E0,9.060000420E0,1.002360224E1
1.815385480E-1,3.109500110E-1,4.276950359E0,9.060000420E0,1.002360224E1
1.835015810E-1,3.490500152E-1,4.201050282E0,9.022050858E0,9.958316176E0
1.854648450E-1,3.490500152E-1,4.239000320E0,9.060000420E0,1.000872456E1
1.874280420E-1,3.490500152E-1,4.276950359E0,9.060000420E0,1.002485650E1
1.893912350E-1,3.490500152E-1,4.239000320E0,9.022050858E0,9.974385260E0
1.913544290E-1,3.490500152E-1,4.239000320E0,9.022050858E0,9.974385260E0
1.933174980E-1,3.870000243E-1,4.201050282E0,8.983950615E0,9.925218443E0
1.952806270E-1,3.490500152E-1,4.201050282E0,9.022050858E0,9.958316176E0
1.972436950E-1,3.870000243E-1,4.239000320E0,8.983950615E0,9.941341026E0
1.992067810E-1,3.870000243E-1,4.201050282E0,8.983950615E0,9.925218443E0
2.011700350E-1,3.870000243E-1,4.201050282E0,9.060000420E0,9.994108269E0
2.031332400E-1,3.870000243E-1,4.162050247E0,9.022050858E0,9.943331079E0
2.050964130E-1,3.870000243E-1,4.162050247E0,8.983950615E0,9.908773886E0
2.070596390E-1,4.260000288E-1,4.162050247E0,9.022050858E0,9.944925337E0
2.090231860E-1,4.260000288E-1,4.123950005E0,8.944950104E0,9.859035045E0
2.109866390E-1,4.639500082E-1,4.123950005E0,9.022050858E0,9.930740905E0
2.129498320E-1,4.260000288E-1,4.123950005E0,9.022050858E0,9.929040303E0
2.149131020E-1,4.260000288E-1,4.123950005E0,8.983950615E0,9.894433198E0
2.168765060E-1,4.260000288E-1,4.085999966E0,8.944950104E0,9.843221226E0
2.188398700E-1,4.639500082E-1,4.085999966E0,8.983950615E0,9.880385315E0
2.208031240E-1,4.260000288E-1,4.047000408E0,9.060000420E0,9.931933142E0
2.227664100E-1,3.870000243E-1,4.123950005E0,8.983950615E0,9.892830804E0
2.247297650E-1,4.639500082E-1,4.085999966E0,9.060000420E0,9.949585566E0
2.266931000E-1,4.639500082E-1,4.123950005E0,9.060000420E0,9.965230597E0
2.286562170E-1,4.260000288E-1,4.085999966E0,9.022050858E0,9.913338157E0
2.306193710E-1,4.260000288E-1,4.085999966E0,8.983950615E0,9.878676045E0
2.325827490E-1,4.260000288E-1,4.047000408E0,9.022050858E0,9.897327417E0
2.345460610E-1,4.639500082E-1,4.123950005E0,9.060000420E0,9.965230597E0
2.365093240E-1,4.260000288E-1,4.123950005E0,9.022050858E0,9.929040303E0
2.384726020E-1,4.260000288E-1,4.123950005E0,9.022050858E0,9.929040303E0
2.404359900E-1,4.260000288E-1,4.123950005E0,9.060000420E0,9.963535882E0
2.423993550E-1,4.260000288E-1,4.085999966E0,9.060000420E0,9.947888185E0
2.443627430E-1,4.260000288E-1,4.085999966E0,9.022050858E0,9.913338157E0
2.463261240E-1,4.260000288E-1,4.123950005E0,8.983950615E0,9.894433198E0
2.482894660E-1,3.870000243E-1,4.123950005E0,8.983950615E0,9.892830804E0
2.502528190E-1,4.260000288E-1,4.162050247E0,8.983950615E0,9.910373703E0
2.522160380E-1,3.870000243E-1,4.085999966E0,8.983950615E0,9.877071094E0
2.541792900E-1,4.260000288E-1,4.085999966E0,8.983950615E0,9.878676045E0
2.561429220E-1,3.870000243E-1,4.123950005E0,8.944950104E0,9.857426896E0
2.581064420E-1,3.870000243E-1,4.123950005E0,8.944950104E0,9.857426896E0
2.600696250E-1,4.260000288E-1,4.162050247E0,8.944950104E0,9.875032691E0
2.620329060E-1,3.870000243E-1,4.123950005E0,8.944950104E0,9.857426896E0
2.639961240E-1,3.870000243E-1,4.162050247E0,8.983950615E0,9.908773886E0
2.659593630E-1,3.870000243E-1,4.162050247E0,8.944950104E0,9.873427148E0
2.679223670E-1,4.260000288E-1,4.123950005E0,8.944950104E0,9.859035045E0
2.698854400E-1,3.490500152E-1,4.162050247E0,8.944950104E0,9.872012486E0
2.718488770E-1,3.490500152E-1,4.123950005E0,8.944950104E0,9.856009939E0
2.738122070E-1,3.870000243E-1,4.162050247E0,8.983950615E0,9.908773886E0
2.757757660E-1,3.870000243E-1,4.162050247E0,9.022050858E0,9.943331079E0
2.777392690E-1,4.260000288E-1,4.201050282E0,9.022050858E0,9.961310213E0
2.797026790E-1,3.870000243E-1,4.123950005E0,9.022050858E0,9.927443494E0
2.816661170E-1,3.870000243E-1,4.201050282E0,8.983950615E0,9.925218443E0
2.836294480E-1,3.870000243E-1,4.201050282E0,9.022050858E0,9.959718578E0
2.855928100E-1,2.719500065E-1,4.162050247E0,9.022050858E0,9.939518134E0
2.875562260E-1,3.490500152E-1,4.201050282E0,8.944950104E0,9.888518177E0
2.895196060E-1,3.490500152E-1,4.201050282E0,9.022050858E0,9.958316176E0
2.914828570E-1,3.109500110E-1,4.201050282E0,9.022050858E0,9.957053533E0
2.934461460E-1,3.490500152E-1,4.201050282E0,9.022050858E0,9.958316176E0
2.954093670E-1,3.109500110E-1,4.201050282E0,9.060000420E0,9.991452396E0
2.973726080E-1,3.490500152E-1,4.201050282E0,9.022050858E0,9.958316176E0
2.993359520E-1,3.109500110E-1,4.276950359E0,9.060000420E0,1.002360224E1
3.012992790E-1,3.490500152E-1,4.239000320E0,9.060000420E0,1.000872456E1
3.032626740E-1,3.490500152E-1,4.239000320E0,9.060000420E0,1.000872456E1
3.052260490E-1,3.490500152E-1,4.201050282E0,9.060000420E0,9.992710693E0
3.071892560E-1,3.490500152E-1,4.239000320E0,9.098999977E0,1.004404103E1
3.091525120E-1,3.109500110E-1,4.239000320E0,9.098999977E0,1.004278916E1
3.111155840E-1,3.490500152E-1,4.239000320E0,9.098999977E0,1.004404103E1
3.130787240E-1,2.719500065E-1,4.276950359E0,9.136950493E0,1.009208232E1
3.150419240E-1,3.490500152E-1,4.239000320E0,9.136950493E0,1.007843361E1
3.170051070E-1,3.490500152E-1,4.239000320E0,9.098999977E0,1.004404103E1
3.189685710E-1,3.109500110E-1,4.201050282E0,9.136950493E0,1.006128112E1
3.209319530E-1,3.109500110E-1,4.162050247E0,9.175050735E0,1.007972758E1
3.228953470E-1,3.109500110E-1,4.239000320E0,9.136950493E0,1.007718601E1
3.248587310E-1,3.490500152E-1,4.276950359E0,9.098999977E0,1.006011634E1
3.268219360E-1,3.870000243E-1,4.239000320E0,9.136950493E0,1.007981930E1
3.287851940E-1,3.490500152E-1,4.239000320E0,9.136950493E0,1.007843361E1
3.307483750E-1,3.870000243E-1,4.201050282E0,9.175050735E0,1.009852209E1
3.327115790E-1,3.490500152E-1,4.201050282E0,9.136950493E0,1.006253068E1
3.346746740E-1,3.490500152E-1,4.239000320E0,9.214050293E0,1.014838324E1
3.366378050E-1,3.109500110E-1,4.239000320E0,9.136950493E0,1.007718601E1
3.386010510E-1,3.870000243E-1,4.239000320E0,9.098999977E0,1.004543147E1
3.405642640E-1,3.870000243E-1,4.276950359E0,9.136950493E0,1.009583764E1
3.425274980E-1,3.109500110E-1,4.276950359E0,9.175050735E0,1.012771200E1
3.444907260E-1,3.490500152E-1,4.239000320E0,9.136950493E0,1.007843361E1
3.464540730E-1,3.490500152E-1,4.239000320E0,9.098999977E0,1.004404103E1
3.484173990E-1,3.490500152E-1,4.239000320E0,9.060000420E0,1.000872456E1
3.503802540E-1,3.490500152E-1,4.201050282E0,9.022050858E0,9.958316176E0
3.523432470E-1,3.490500152E-1,4.201050282E0,9.136950493E0,1.006253068E1
3.543063370E-1,3.490500152E-1,4.201050282E0,9.175050735E0,1.009713897E1
3.562693990E-1,3.490500152E-1,4.201050282E0,9.098999977E0,1.002808356E1
3.582324600E-1,3.870000243E-1,4.201050282E0,9.060000420E0,9.994108269E0
3.601955340E-1,3.490500152E-1,4.201050282E0,9.098999977E0,1.002808356E1
3.621584770E-1,4.260000288E-1,4.201050282E0,9.060000420E0,9.995694428E0
3.641214590E-1,3.490500152E-1,4.201050282E0,9.022050858E0,9.958316176E0
3.660843270E-1,3.490500152E-1,4.201050282E0,9.022050858E0,9.958316176E0
3.680472280E-1,3.490500152E-1,4.162050247E0,9.060000420E0,9.976377387E0
3.700103790E-1,3.490500152E-1,4.162050247E0,9.022050858E0,9.941926365E0
3.719734570E-1,3.490500152E-1,4.201050282E0,9.022050858E0,9.958316176E0
3.739366690E-1,3.870000243E-1,4.162050247E0,9.022050858E0,9.943331079E0
3.758998420E-1,3.490500152E-1,4.162050247E0,9.060000420E0,9.976377387E0
3.778631280E-1,3.870000243E-1,4.201050282E0,9.060000420E0,9.994108269E0
3.798263800E-1,3.490500152E-1,4.201050282E0,9.022050858E0,9.958316176E0
3.817897620E-1,3.870000243E-1,4.162050247E0,8.983950615E0,9.908773886E0
3.837530920E-1,3.870000243E-1,4.162050247E0,9.060000420E0,9.977777252E0
3.857163520E-1,3.870000243E-1,4.162050247E0,9.022050858E0,9.943331079E0
3.876796320E-1,3.870000243E-1,4.162050247E0,8.944950104E0,9.873427148E0
3.896428090E-1,3.870000243E-1,4.162050247E0,9.022050858E0,9.943331079E0
3.916060170E-1,3.870000243E-1,4.201050282E0,9.022050858E0,9.959718578E0
3.935687510E-1,3.490500152E-1,4.162050247E0,9.022050858E0,9.941926365E0
3.955316270E-1,3.870000243E-1,4.162050247E0,9.060000420E0,9.977777252E0
3.974949180E-1,4.260000288E-1,4.162050247E0,8.983950615E0,9.910373703E0
3.994580870E-1,4.260000288E-1,4.201050282E0,9.060000420E0,9.995694428E0
4.014213280E-1,3.870000243E-1,4.201050282E0,9.022050858E0,9.959718578E0
4.033845480E-1,4.639500082E-1,4.162050247E0,9.022050858E0,9.946623223E0
4.053477470E-1,4.260000288E-1,4.201050282E0,9.022050858E0,9.961310213E0
4.073109450E-1,3.870000243E-1,4.162050247E0,9.022050858E0,9.943331079E0
4.092736400E-1,4.260000288E-1,4.201050282E0,9.022050858E0,9.961310213E0
4.112364830E-1,3.870000243E-1,4.201050282E0,9.022050858E0,9.959718578E0
4.131995990E-1,3.870000243E-1,4.162050247E0,9.060000420E0,9.977777252E0
4.151626350E-1,3.870000243E-1,4.123950005E0,9.022050858E0,9.927443494E0
4.171259000E-1,3.490500152E-1,4.123950005E0,9.060000420E0,9.960542513E0
4.190890970E-1,4.260000288E-1,4.162050247E0,9.060000420E0,9.979366006E0
4.210521540E-1,4.260000288E-1,4.162050247E0,9.060000420E0,9.979366006E0
4.230152530E-1,4.260000288E-1,4.123950005E0,9.098999977E0,9.999011964E0
4.249785050E-1,3.870000243E-1,4.162050247E0,9.060000420E0,9.977777252E0
4.269417120E-1,3.870000243E-1,4.201050282E0,9.060000420E0,9.994108269E0
4.289044480E-1,4.260000288E-1,4.162050247E0,9.060000420E0,9.979366006E0
4.308673250E-1,3.870000243E-1,4.162050247E0,9.060000420E0,9.977777252E0
4.328303900E-1,3.870000243E-1,4.201050282E0,9.060000420E0,9.994108269E0
4.347934000E-1,3.870000243E-1,4.201050282E0,9.060000420E0,9.994108269E0
4.367566680E-1,3.490500152E-1,4.201050282E0,9.060000420E0,9.992710693E0
4.387198610E-1,4.260000288E-1,4.201050282E0,9.060000420E0,9.995694428E0
4.406825830E-1,4.639500082E-1,4.162050247E0,9.060000420E0,9.981058034E0
4.426454580E-1,4.639500082E-1,4.123950005E0,9.098999977E0,1.000070067E1
4.446087040E-1,4.260000288E-1,4.162050247E0,9.022050858E0,9.944925337E0
4.465718410E-1,3.870000243E-1,4.162050247E0,9.098999977E0,1.001320288E1
4.485351330E-1,3.870000243E-1,4.201050282E0,9.060000420E0,9.994108269E0
4.504983800E-1,4.260000288E-1,4.201050282E0,9.098999977E0,1.003105678E1
4.524614180E-1,4.260000288E-1,4.201050282E0,9.098999977E0,1.003105678E1
4.544245250E-1,4.639500082E-1,4.162050247E0,9.098999977E0,1.001647206E1
4.563877760E-1,4.260000288E-1,4.162050247E0,9.098999977E0,1.001478601E1
4.583509850E-1,3.870000243E-1,4.162050247E0,9.136950493E0,1.004770101E1
4.603143550E-1,4.260000288E-1,4.162050247E0,9.060000420E0,9.979366006E0
4.622776770E-1,3.870000243E-1,4.162050247E0,9.136950493E0,1.004770101E1
4.642405330E-1,4.260000288E-1,4.201050282E0,9.098999977E0,1.003105678E1
4.662035250E-1,4.260000288E-1,4.162050247E0,9.098999977E0,1.001478601E1
4.681664370E-1,3.490500152E-1,4.162050247E0,9.136950493E0,1.004631089E1
4.701293720E-1,3.870000243E-1,4.162050247E0,9.060000420E0,9.977777252E0
4.720924720E-1,4.260000288E-1,4.162050247E0,9.098999977E0,1.001478601E1
4.740555230E-1,3.870000243E-1,4.201050282E0,9.098999977E0,1.002947621E1
4.760185970E-1,3.490500152E-1,4.201050282E0,9.098999977E0,1.002808356E1
4.779817010E-1,3.109500110E-1,4.123950005E0,9.175050735E0,1.006405532E1
4.799451340E-1,3.490500152E-1,4.201050282E0,9.098999977E0,1.002808356E1
4.819084700E-1,3.870000243E-1,4.201050282E0,9.098999977E0,1.002947621E1
4.838716840E-1,3.490500152E-1,4.123950005E0,9.098999977E0,9.996029218E0
4.858349340E-1,4.260000288E-1,4.201050282E0,9.098999977E0,1.003105678E1
4.877981320E-1,3.870000243E-1,4.162050247E0,9.060000420E0,9.977777252E0
4.897613340E-1,3.490500152E-1,4.123950005E0,9.098999977E0,9.996029218E0
4.917249290E-1,3.490500152E-1,4.123950005E0,9.060000420E0,9.960542513E0
4.936884090E-1,4.260000288E-1,4.162050247E0,9.060000420E0,9.979366006E0
4.956515980E-1,3.870000243E-1,4.162050247E0,9.060000420E0,9.977777252E0
4.976148720E-1,3.870000243E-1,4.162050247E0,9.022050858E0,9.943331079E0
4.995783230E-1,3.870000243E-1,4.123950005E0,9.060000420E0,9.961944602E0
5.015417200E-1,3.870000243E-1,4.162050247E0,9.022050858E0,9.943331079E0
5.035052830E-1,3.870000243E-1,4.123950005E0,9.060000420E0,9.961944602E0
5.054687970E-1,3.490500152E-1,4.123950005E0,9.098999977E0,9.996029218E0
5.074318000E-1,4.260000288E-1,4.162050247E0,9.098999977E0,1.001478601E1
5.093949530E-1,4.260000288E-1,4.162050247E0,9.060000420E0,9.979366006E0
5.113583170E-1,4.260000288E-1,4.201050282E0,9.060000420E0,9.995694428E0
5.133216290E-1,4.260000288E-1,4.162050247E0,9.098999977E0,1.001478601E1
5.152848920E-1,4.260000288E-1,4.123950005E0,9.136950493E0,1.003355889E1
5.172481700E-1,4.260000288E-1,4.162050247E0,9.136950493E0,1.004927871E1
5.192113470E-1,4.639500082E-1,4.162050247E0,9.060000420E0,9.981058034E0
5.211745540E-1,4.260000288E-1,4.162050247E0,9.060000420E0,9.979366006E0
5.231379290E-1,3.490500152E-1,4.162050247E0,9.022050858E0,9.941926365E0
5.251012830E-1,4.260000288E-1,4.162050247E0,9.060000420E0,9.979366006E0
5.270644930E-1,3.870000243E-1,4.201050282E0,9.060000420E0,9.994108269E0
5.290277460E-1,3.490500152E-1,4.201050282E0,8.983950615E0,9.923811165E0
5.309907930E-1,4.260000288E-1,4.201050282E0,9.060000420E0,9.995694428E0
5.329539000E-1,3.870000243E-1,4.123950005E0,8.983950615E0,9.892830804E0
5.349172160E-1,4.260000288E-1,4.201050282E0,8.983950615E0,9.926815609E0
5.368804570E-1,3.870000243E-1,4.201050282E0,8.944950104E0,9.889930477E0
5.388434620E-1,4.260000288E-1,4.201050282E0,8.944950104E0,9.891533342E0
5.408065360E-1,3.870000243E-1,4.162050247E0,8.944950104E0,9.873427148E0
5.427696570E-1,3.870000243E-1,4.201050282E0,8.907000542E0,9.855620282E0
5.447327640E-1,3.870000243E-1,4.201050282E0,8.944950104E0,9.889930477E0
5.466958510E-1,4.260000288E-1,4.162050247E0,8.907000542E0,9.840670553E0
5.486589340E-1,3.870000243E-1,4.201050282E0,8.944950104E0,9.889930477E0
5.506218290E-1,3.490500152E-1,4.201050282E0,8.907000542E0,9.854203064E0
5.525847800E-1,3.490500152E-1,4.201050282E0,8.869050026E0,9.819913836E0
5.545478320E-1,3.490500152E-1,4.201050282E0,8.944950104E0,9.888518177E0
5.565108550E-1,3.490500152E-1,4.239000320E0,8.944950104E0,9.904700500E0
5.584741620E-1,3.490500152E-1,4.201050282E0,8.869050026E0,9.819913836E0
5.604373890E-1,4.260000288E-1,4.201050282E0,8.944950104E0,9.891533342E0
5.624002160E-1,3.109500110E-1,4.201050282E0,8.907000542E0,9.852927079E0
5.643631600E-1,3.109500110E-1,4.239000320E0,8.869050026E0,9.834930706E0
5.663261230E-1,3.490500152E-1,4.239000320E0,8.830050468E0,9.801058662E0
5.682890810E-1,3.870000243E-1,4.239000320E0,8.907000542E0,9.871856532E0
5.702522760E-1,3.490500152E-1,4.201050282E0,8.944950104E0,9.888518177E0
5.722154280E-1,3.490500152E-1,4.239000320E0,8.907000542E0,9.870441646E0
5.741783130E-1,3.490500152E-1,4.201050282E0,8.907000542E0,9.854203064E0
5.761412760E-1,3.870000243E-1,4.201050282E0,8.944950104E0,9.889930477E0
5.781047320E-1,4.260000288E-1,4.239000320E0,8.944950104E0,9.907710740E0
5.800680430E-1,3.870000243E-1,4.276950359E0,8.944950104E0,9.922409272E0
5.820311450E-1,3.870000243E-1,4.239000320E0,8.983950615E0,9.941341026E0
5.839942950E-1,3.870000243E-1,4.239000320E0,8.983950615E0,9.941341026E0
5.859575380E-1,4.639500082E-1,4.239000320E0,8.983950615E0,9.944633828E0
5.879207540E-1,3.870000243E-1,4.276950359E0,8.944950104E0,9.922409272E0
5.898841680E-1,3.490500152E-1,4.239000320E0,8.983950615E0,9.939936030E0
5.918475240E-1,3.870000243E-1,4.276950359E0,9.022050858E0,9.991970530E0
5.938107190E-1,3.870000243E-1,4.276950359E0,8.983950615E0,9.957582139E0
5.957739720E-1,4.260000288E-1,4.276950359E0,8.944950104E0,9.924006890E0
5.977371990E-1,3.870000243E-1,4.239000320E0,8.944950104E0,9.906110493E0
5.997004340E-1,3.490500152E-1,4.239000320E0,8.907000542E0,9.870441646E0
6.016638430E-1,3.870000243E-1,4.239000320E0,8.907000542E0,9.871856532E0
6.036272010E-1,3.870000243E-1,4.276950359E0,8.944950104E0,9.922409272E0
6.055903660E-1,3.870000243E-1,4.276950359E0,8.907000542E0,9.888211772E0
6.075535880E-1,3.870000243E-1,4.239000320E0,8.907000542E0,9.871856532E0
6.095166850E-1,3.490500152E-1,4.276950359E0,8.907000542E0,9.886799226E0
6.114798180E-1,3.870000243E-1,4.276950359E0,8.907000542E0,9.888211772E0
6.134430650E-1,3.490500152E-1,4.315950394E0,8.944950104E0,9.937876839E0
6.154062780E-1,3.490500152E-1,4.276950359E0,8.944950104E0,9.921001595E0
6.173691430E-1,3.870000243E-1,4.276950359E0,8.944950104E0,9.922409272E0
6.193321170E-1,4.260000288E-1,4.239000320E0,8.907000542E0,9.873462330E0
6.212955260E-1,3.870000243E-1,4.239000320E0,8.944950104E0,9.906110493E0
6.232588070E-1,3.870000243E-1,4.239000320E0,8.944950104E0,9.906110493E0
6.252217150E-1,3.870000243E-1,4.239000320E0,8.944950104E0,9.906110493E0
6.271847320E-1,4.260000288E-1,4.239000320E0,8.944950104E0,9.907710740E0
6.291481390E-1,3.490500152E-1,4.201050282E0,8.944950104E0,9.888518177E0
6.311114280E-1,4.260000288E-1,4.201050282E0,8.983950615E0,9.926815609E0
6.330746500E-1,4.260000288E-1,4.201050282E0,8.983950615E0,9.926815609E0
6.350378910E-1,4.639500082E-1,4.201050282E0,9.022050858E0,9.963005307E0
6.370013000E-1,4.639500082E-1,4.201050282E0,8.944950104E0,9.893240391E0
6.389646590E-1,4.639500082E-1,4.201050282E0,8.983950615E0,9.928516593E0
6.409279330E-1,4.639500082E-1,4.201050282E0,8.983950615E0,9.928516593E0
6.428912180E-1,5.020500422E-1,4.123950005E0,8.983950615E0,9.897999118E0
6.448544400E-1,4.639500082E-1,4.201050282E0,9.022050858E0,9.963005307E0
6.468176800E-1,4.639500082E-1,4.123950005E0,9.098999977E0,1.000070067E1
6.487808640E-1,5.020500422E-1,4.162050247E0,9.060000420E0,9.982901588E0
6.507440640E-1,5.020500422E-1,4.201050282E0,9.060000420E0,9.999224236E0
6.527073530E-1,4.639500082E-1,4.162050247E0,9.060000420E0,9.981058034E0
6.546706100E-1,4.260000288E-1,4.123950005E0,9.022050858E0,9.929040303E0
6.566340160E-1,4.260000288E-1,4.162050247E0,9.098999977E0,1.001478601E1
6.585973790E-1,4.639500082E-1,4.162050247E0,9.098999977E0,1.001647206E1
6.605607230E-1,4.639500082E-1,4.162050247E0,9.060000420E0,9.981058034E0
6.625240730E-1,3.870000243E-1,4.123950005E0,9.060000420E0,9.961944602E0
6.644873020E-1,4.260000288E-1,4.162050247E0,9.060000420E0,9.979366006E0
6.664505540E-1,4.260000288E-1,4.162050247E0,8.983950615E0,9.910373703E0
6.684137810E-1,4.260000288E-1,4.162050247E0,8.983950615E0,9.910373703E0
6.703770150E-1,3.870000243E-1,4.201050282E0,9.022050858E0,9.959718578E0
6.723400650E-1,3.870000243E-1,4.201050282E0,9.022050858E0,9.959718578E0
6.743031690E-1,4.260000288E-1,4.201050282E0,8.944950104E0,9.891533342E0
6.762666210E-1,3.870000243E-1,4.201050282E0,8.983950615E0,9.925218443E0
6.782299560E-1,3.870000243E-1,4.201050282E0,8.944950104E0,9.889930477E0
6.801933950E-1,3.870000243E-1,4.201050282E0,8.944950104E0,9.889930477E0
6.821568030E-1,4.260000288E-1,4.201050282E0,9.022050858E0,9.961310213E0
6.841198240E-1,4.260000288E-1,4.239000320E0,8.983950615E0,9.942935602E0
6.860829580E-1,3.870000243E-1,4.239000320E0,8.983950615E0,9.941341026E0
6.880463990E-1,3.870000243E-1,4.201050282E0,8.944950104E0,9.889930477E0
6.900097400E-1,4.260000288E-1,4.239000320E0,8.983950615E0,9.942935602E0
6.919729530E-1,4.639500082E-1,4.201050282E0,8.944950104E0,9.893240391E0
6.939362030E-1,4.260000288E-1,4.239000320E0,8.944950104E0,9.907710740E0
6.958995650E-1,4.260000288E-1,4.239000320E0,9.060000420E0,1.001170352E1
6.978628940E-1,4.639500082E-1,4.239000320E0,8.983950615E0,9.944633828E0
6.998263520E-1,4.260000288E-1,4.239000320E0,8.944950104E0,9.907710740E0
7.017897590E-1,4.260000288E-1,4.201050282E0,8.983950615E0,9.926815609E0
7.037530960E-1,4.260000288E-1,4.201050282E0,8.944950104E0,9.891533342E0
7.057164530E-1,4.639500082E-1,4.201050282E0,8.983950615E0,9.928516593E0
7.076795270E-1,5.410500169E-1,4.201050282E0,8.983950615E0,9.932417996E0
7.096426840E-1,4.639500082E-1,4.162050247E0,8.944950104E0,9.876742592E0
7.116057410E-1,4.639500082E-1,4.201050282E0,8.944950104E0,9.893240391E0
7.135688000E-1,4.639500082E-1,4.201050282E0,8.944950104E0,9.893240391E0
7.155324200E-1,4.639500082E-1,4.201050282E0,8.944950104E0,9.893240391E0
7.174958750E-1,5.020500422E-1,4.162050247E0,9.022050858E0,9.948473158E0
7.194589330E-1,4.639500082E-1,4.162050247E0,8.983950615E0,9.912077508E0
7.214221070E-1,4.639500082E-1,4.123950005E0,8.983950615E0,9.896139747E0
7.233853470E-1,4.639500082E-1,4.201050282E0,8.983950615E0,9.928516593E0
7.253485670E-1,5.020500422E-1,4.201050282E0,9.060000420E0,9.999224236E0
7.273118000E-1,5.020500422E-1,4.201050282E0,9.060000420E0,9.999224236E0
7.292750290E-1,5.020500422E-1,4.201050282E0,9.060000420E0,9.999224236E0
7.312386210E-1,5.020500422E-1,4.201050282E0,9.098999977E0,1.003457415E1
7.332021060E-1,5.020500422E-1,4.201050282E0,9.060000420E0,9.999224236E0
7.351652840E-1,5.020500422E-1,4.201050282E0,9.136950493E0,1.006899906E1
7.371285590E-1,5.020500422E-1,4.239000320E0,9.136950493E0,1.008489178E1
7.390915570E-1,4.639500082E-1,4.201050282E0,9.098999977E0,1.003274009E1
7.410546360E-1,4.639500082E-1,4.239000320E0,9.175050735E0,1.011760492E1
7.430181170E-1,4.639500082E-1,4.201050282E0,9.136950493E0,1.006717127E1
7.449814800E-1,4.639500082E-1,4.239000320E0,9.214050293E0,1.015298459E1
7.469446350E-1,4.639500082E-1,4.201050282E0,9.175050735E0,1.010176366E1
7.489078580E-1,4.639500082E-1,4.162050247E0,9.175050735E0,1.008560697E1
7.508712690E-1,4.639500082E-1,4.201050282E0,9.252000809E0,1.017170546E1
7.528346250E-1,4.260000288E-1,4.201050282E0,9.214050293E0,1.013553266E1
7.547978360E-1,4.639500082E-1,4.201050282E0,9.175050735E0,1.010176366E1
7.567610890E-1,4.639500082E-1,4.201050282E0,9.175050735E0,1.010176366E1
7.587242280E-1,4.260000288E-1,4.239000320E0,9.175050735E0,1.011593573E1
7.606873670E-1,3.870000243E-1,4.239000320E0,9.214050293E0,1.014975938E1
7.626506130E-1,3.870000243E-1,4.201050282E0,9.252000809E0,1.016848619E1
7.646138270E-1,3.870000243E-1,4.201050282E0,9.175050735E0,1.009852209E1
7.665770600E-1,3.490500152E-1,4.239000320E0,9.214050293E0,1.014838324E1
7.685402880E-1,3.870000243E-1,4.239000320E0,9.175050735E0,1.011436843E1
7.705034700E-1,3.870000243E-1,4.201050282E0,9.136950493E0,1.006391856E1
7.724666700E-1,3.490500152E-1,4.239000320E0,9.175050735E0,1.011298747E1
7.744299050E-1,3.870000243E-1,4.239000320E0,9.214050293E0,1.014975938E1
7.763931300E-1,3.490500152E-1,4.201050282E0,9.136950493E0,1.006253068E1
7.783564070E-1,3.490500152E-1,4.201050282E0,9.136950493E0,1.006253068E1
7.803196680E-1,3.490500152E-1,4.201050282E0,9.060000420E0,9.992710693E0
7.822829090E-1,3.109500110E-1,4.201050282E0,9.098999977E0,1.002682971E1
7.842461460E-1,3.109500110E-1,4.201050282E0,9.098999977E0,1.002682971E1
7.862095100E-1,3.109500110E-1,4.162050247E0,9.136950493E0,1.004505931E1
7.881728360E-1,3.109500110E-1,4.239000320E0,9.098999977E0,1.004278916E1
7.901359160E-1,3.490500152E-1,4.201050282E0,9.098999977E0,1.002808356E1
7.920990690E-1,3.109500110E-1,4.201050282E0,9.136950493E0,1.006128112E1
7.940622980E-1,3.490500152E-1,4.239000320E0,9.098999977E0,1.004404103E1
7.960255140E-1,3.870000243E-1,4.201050282E0,9.060000420E0,9.994108269E0
7.979888830E-1,3.490500152E-1,4.162050247E0,9.136950493E0,1.004631089E1
7.999522070E-1,3.870000243E-1,4.162050247E0,9.098999977E0,1.001320288E1
8.019154230E-1,3.490500152E-1,4.162050247E0,9.060000420E0,9.976377387E0
8.038786700E-1,3.870000243E-1,4.201050282E0,9.022050858E0,9.959718578E0
8.058421060E-1,3.490500152E-1,4.162050247E0,9.060000420E0,9.976377387E0
8.078054660E-1,3.870000243E-1,4.162050247E0,9.060000420E0,9.977777252E0
8.097683160E-1,3.870000243E-1,4.201050282E0,9.060000420E0,9.994108269E0
8.117313150E-1,4.260000288E-1,4.162050247E0,9.022050858E0,9.944925337E0
8.136944040E-1,4.639500082E-1,4.123950005E0,8.983950615E0,9.896139747E0
8.156574660E-1,4.260000288E-1,4.085999966E0,8.983950615E0,9.878676045E0
8.176205660E-1,4.260000288E-1,4.123950005E0,8.983950615E0,9.894433198E0
8.195836400E-1,4.639500082E-1,4.123950005E0,9.022050858E0,9.930740905E0
8.215467630E-1,4.260000288E-1,4.123950005E0,8.983950615E0,9.894433198E0
8.235098710E-1,4.260000288E-1,4.162050247E0,8.944950104E0,9.875032691E0
8.254733030E-1,4.639500082E-1,4.162050247E0,8.944950104E0,9.876742592E0
8.274366400E-1,4.639500082E-1,4.123950005E0,8.907000542E0,9.826335629E0
8.293996440E-1,4.639500082E-1,4.162050247E0,8.944950104E0,9.876742592E0
8.313627670E-1,4.260000288E-1,4.162050247E0,8.944950104E0,9.875032691E0
8.333261950E-1,4.639500082E-1,4.123950005E0,8.944950104E0,9.860747721E0
8.352895340E-1,4.260000288E-1,4.201050282E0,8.944950104E0,9.891533342E0
8.372527020E-1,4.260000288E-1,4.201050282E0,8.907000542E0,9.857228725E0
8.392159210E-1,3.870000243E-1,4.201050282E0,8.907000542E0,9.855620282E0
8.411790190E-1,4.639500082E-1,4.239000320E0,8.907000542E0,9.875172504E0
8.431421520E-1,4.260000288E-1,4.201050282E0,8.944950104E0,9.891533342E0
8.451051740E-1,4.260000288E-1,4.276950359E0,8.944950104E0,9.924006890E0
8.470682290E-1,3.870000243E-1,4.239000320E0,8.907000542E0,9.871856532E0
8.490313090E-1,4.260000288E-1,4.239000320E0,8.907000542E0,9.873462330E0
8.509943810E-1,3.870000243E-1,4.239000320E0,8.907000542E0,9.871856532E0
8.529575170E-1,3.870000243E-1,4.239000320E0,8.944950104E0,9.906110493E0
8.549206250E-1,3.870000243E-1,4.201050282E0,8.907000542E0,9.855620282E0
8.568836980E-1,4.260000288E-1,4.239000320E0,8.907000542E0,9.873462330E0
8.588467810E-1,3.870000243E-1,4.239000320E0,8.869050026E0,9.837628835E0
8.608098570E-1,4.260000288E-1,4.201050282E0,8.869050026E0,9.822950059E0
8.627729350E-1,4.260000288E-1,4.239000320E0,8.869050026E0,9.839240220E0
8.647361770E-1,3.490500152E-1,4.239000320E0,8.944950104E0,9.904700500E0
8.666993810E-1,3.870000243E-1,4.276950359E0,8.869050026E0,9.854040885E0
8.686626160E-1,4.639500082E-1,4.239000320E0,8.907000542E0,9.875172504E0
8.706258420E-1,3.870000243E-1,4.276950359E0,8.944950104E0,9.922409272E0
8.725892540E-1,3.870000243E-1,4.276950359E0,8.983950615E0,9.957582139E0
8.745526110E-1,3.870000243E-1,4.201050282E0,8.983950615E0,9.925218443E0
8.765156220E-1,3.870000243E-1,4.276950359E0,9.022050858E0,9.991970530E0
8.784787480E-1,4.260000288E-1,4.239000320E0,8.983950615E0,9.942935602E0
8.804419510E-1,4.260000288E-1,4.276950359E0,8.983950615E0,9.959174115E0
8.824051310E-1,4.639500082E-1,4.239000320E0,9.060000420E0,1.001339008E1
8.843683700E-1,4.260000288E-1,4.239000320E0,9.060000420E0,1.001170352E1
8.863315920E-1,3.870000243E-1,4.239000320E0,8.983950615E0,9.941341026E0
8.882946450E-1,3.870000243E-1,4.201050282E0,9.022050858E0,9.959718578E0
8.902577480E-1,4.639500082E-1,4.239000320E0,9.060000420E0,1.001339008E1
8.922210000E-1,3.870000243E-1,4.201050282E0,9.022050858E0,9.959718578E0
8.941842080E-1,4.260000288E-1,4.239000320E0,8.983950615E0,9.942935602E0
8.961474880E-1,4.639500082E-1,4.276950359E0,9.060000420E0,1.002951452E1
8.981107460E-1,4.260000288E-1,4.276950359E0,8.944950104E0,9.924006890E0
9.000737480E-1,4.260000288E-1,4.201050282E0,9.022050858E0,9.961310213E0
9.020368250E-1,4.260000288E-1,4.239000320E0,8.983950615E0,9.942935602E0
9.039999460E-1,3.870000243E-1,4.276950359E0,8.983950615E0,9.957582139E0
9.059630540E-1,4.260000288E-1,4.276950359E0,8.944950104E0,9.924006890E0
9.079262610E-1,4.260000288E-1,4.239000320E0,8.944950104E0,9.907710740E0
9.098894390E-1,3.870000243E-1,4.239000320E0,8.944950104E0,9.906110493E0
9.118528890E-1,3.490500152E-1,4.239000320E0,9.022050858E0,9.974385260E0
9.138162700E-1,3.870000243E-1,4.201050282E0,8.944950104E0,9.889930477E0
9.157796110E-1,3.870000243E-1,4.201050282E0,8.983950615E0,9.925218443E0
9.177429640E-1,3.490500152E-1,4.201050282E0,8.983950615E0,9.923811165E0
9.197060390E-1,3.870000243E-1,4.239000320E0,8.983950615E0,9.941341026E0
9.216691950E-1,3.870000243E-1,4.239000320E0,8.983950615E0,9.941341026E0
9.236325680E-1,4.260000288E-1,4.201050282E0,9.022050858E0,9.961310213E0
9.255958800E-1,3.870000243E-1,4.239000320E0,9.022050858E0,9.975785403E0
9.275592770E-1,3.870000243E-1,4.239000320E0,9.022050858E0,9.975785403E0
9.295226490E-1,4.260000288E-1,4.201050282E0,8.983950615E0,9.926815609E0
9.314857220E-1,3.490500152E-1,4.201050282E0,9.022050858E0,9.958316176E0
9.334488820E-1,3.490500152E-1,4.201050282E0,9.060000420E0,9.992710693E0
9.354120940E-1,3.870000243E-1,4.239000320E0,9.060000420E0,1.001011990E1
9.373752800E-1,3.870000243E-1,4.201050282E0,8.983950615E0,9.925218443E0
9.393383840E-1,3.490500152E-1,4.201050282E0,9.022050858E0,9.958316176E0
9.413015130E-1,3.490500152E-1,4.201050282E0,9.022050858E0,9.958316176E0
9.432648950E-1,4.260000288E-1,4.201050282E0,9.022050858E0,9.961310213E0
9.452282030E-1,3.870000243E-1,4.162050247E0,8.944950104E0,9.873427148E0
9.471914060E-1,3.490500152E-1,4.162050247E0,8.983950615E0,9.907364272E0
9.491546510E-1,3.870000243E-1,4.162050247E0,8.944950104E0,9.873427148E0
9.511179240E-1,4.260000288E-1,4.162050247E0,9.022050858E0,9.944925337E0
9.530811880E-1,3.870000243E-1,4.162050247E0,9.060000420E0,9.977777252E0
9.550445480E-1,3.870000243E-1,4.123950005E0,9.022050858E0,9.927443494E0
9.570078800E-1,4.260000288E-1,4.123950005E0,9.022050858E0,9.929040303E0
9.589709000E-1,4.639500082E-1,4.123950005E0,9.060000420E0,9.965230597E0
9.609340220E-1,3.870000243E-1,4.162050247E0,9.060000420E0,9.977777252E0
9.628972710E-1,4.639500082E-1,4.123950005E0,9.098999977E0,1.000070067E1
9.648604820E-1,4.260000288E-1,4.123950005E0,9.022050858E0,9.929040303E0
9.668234020E-1,4.639500082E-1,4.123950005E0,9.098999977E0,1.000070067E1
9.687864070E-1,4.639500082E-1,4.123950005E0,9.060000420E0,9.965230597E0
9.707496200E-1,4.639500082E-1,4.162050247E0,9.060000420E0,9.981058034E0
9.727127790E-1,4.639500082E-1,4.123950005E0,9.060000420E0,9.965230597E0
9.746760220E-1,4.639500082E-1,4.085999966E0,9.098999977E0,9.985111212E0
9.766392410E-1,4.639500082E-1,4.123950005E0,9.060000420E0,9.965230597E0
9.786024740E-1,4.639500082E-1,4.162050247E0,9.022050858E0,9.946623223E0
9.805657020E-1,4.639500082E-1,4.162050247E0,9.060000420E0,9.981058034E0
9.825289890E-1,5.020500422E-1,4.123950005E0,9.060000420E0,9.967077078E0
9.844922510E-1,5.020500422E-1,4.162050247E0,9.060000420E0,9.982901588E0
9.864554780E-1,5.020500422E-1,4.123950005E0,8.983950615E0,9.897999118E0
9.884187150E-1,4.639500082E-1,4.123950005E0,9.022050858E0,9.930740905E0
9.903820790E-1,4.639500082E-1,4.162050247E0,9.022050858E0,9.946623223E0
9.923454050E-1,4.639500082E-1,4.239000320E0,8.983950615E0,9.944633828E0
9.943084350E-1,5.020500422E-1,4.201050282E0,8.983950615E0,9.930369901E0
9.962715560E-1,5.020500422E-1,4.239000320E0,8.983950615E0,9.946484133E0
9.982346700E-1,5.020500422E-1,4.201050282E0,8.983950615E0,9.930369901E0
1.000197786E0,4.639500082E-1,4.239000320E0,8.907000542E0,9.875172504E0
1.002160856E0,4.639500082E-1,4.239000320E0,8.944950104E0,9.909415002E0
1.004123940E0,4.639500082E-1,4.201050282E0,8.944950104E0,9.893240391E0
1.006087195E0,4.260000288E-1,4.201050282E0,8.983950615E0,9.926815609E0
1.008050400E0,4.260000288E-1,4.239000320E0,8.983950615E0,9.942935602E0
1.010013770E0,4.639500082E-1,4.201050282E0,8.944950104E0,9.893240391E0
1.011977092E0,4.260000288E-1,4.239000320E0,8.944950104E0,9.907710740E0
1.013940173E0,3.870000243E-1,4.239000320E0,8.944950104E0,9.906110493E0
1.015903325E0,4.260000288E-1,4.276950359E0,8.944950104E0,9.924006890E0
1.017866413E0,4.260000288E-1,4.239000320E0,8.944950104E0,9.907710740E0
1.019829503E0,3.870000243E-1,4.239000320E0,8.944950104E0,9.906110493E0
1.021792578E0,3.870000243E-1,4.276950359E0,8.944950104E0,9.922409272E0
1.023755657E0,4.639500082E-1,4.239000320E0,8.944950104E0,9.909415002E0
1.025718867E0,4.639500082E-1,4.239000320E0,9.022050858E0,9.979066840E0
1.027682039E0,3.870000243E-1,4.239000320E0,9.022050858E0,9.975785403E0
1.029645091E0,3.870000243E-1,4.201050282E0,9.060000420E0,9.994108269E0
1.031608185E0,4.260000288E-1,4.239000320E0,9.060000420E0,1.001170352E1
1.033571484E0,4.639500082E-1,4.201050282E0,9.098999977E0,1.003274009E1
1.035534722E0,4.260000288E-1,4.201050282E0,9.098999977E0,1.003105678E1
1.037497952E0,4.260000288E-1,4.201050282E0,9.098999977E0,1.003105678E1
1.039461185E0,3.490500152E-1,4.201050282E0,9.060000420E0,9.992710693E0
1.041424361E0,3.870000243E-1,4.239000320E0,9.136950493E0,1.007981930E1
1.043387561E0,4.260000288E-1,4.201050282E0,9.098999977E0,1.003105678E1
1.045350662E0,4.639500082E-1,4.162050247E0,9.098999977E0,1.001647206E1
1.047313792E0,3.870000243E-1,4.239000320E0,9.175050735E0,1.011436843E1
1.049276859E0,4.260000288E-1,4.201050282E0,9.098999977E0,1.003105678E1
1.051239945E0,3.870000243E-1,4.201050282E0,9.136950493E0,1.006391856E1
1.053203365E0,3.870000243E-1,4.201050282E0,9.136950493E0,1.006391856E1
1.055166698E0,3.870000243E-1,4.201050282E0,9.098999977E0,1.002947621E1
1.057130046E0,4.260000288E-1,4.201050282E0,9.136950493E0,1.006549372E1
1.059093390E0,4.260000288E-1,4.201050282E0,9.136950493E0,1.006549372E1
1.061056422E0,3.490500152E-1,4.162050247E0,9.214050293E0,1.011648264E1
1.063019546E0,3.870000243E-1,4.239000320E0,9.175050735E0,1.011436843E1
1.064982639E0,3.490500152E-1,4.201050282E0,9.214050293E0,1.013259010E1
1.066945724E0,3.109500110E-1,4.201050282E0,9.175050735E0,1.009589369E1
1.068908800E0,3.109500110E-1,4.162050247E0,9.136950493E0,1.004505931E1
1.070871878E0,3.870000243E-1,4.162050247E0,9.214050293E0,1.011786312E1
1.072834954E0,3.490500152E-1,4.162050247E0,9.175050735E0,1.008097486E1
1.074798031E0,3.870000243E-1,4.201050282E0,9.175050735E0,1.009852209E1
1.076761147E0,3.109500110E-1,4.162050247E0,9.136950493E0,1.004505931E1
1.078724255E0,3.870000243E-1,4.162050247E0,9.136950493E0,1.004770101E1
1.080687147E0,3.490500152E-1,4.162050247E0,9.098999977E0,1.001180797E1
1.082650103E0,3.490500152E-1,4.201050282E0,9.136950493E0,1.006253068E1
1.084612976E0,3.870000243E-1,4.201050282E0,9.136950493E0,1.006391856E1
1.086575873E0,3.870000243E-1,4.162050247E0,9.098999977E0,1.001320288E1
1.088539175E0,3.870000243E-1,4.201050282E0,9.098999977E0,1.002947621E1
1.090502347E0,4.260000288E-1,4.162050247E0,9.022050858E0,9.944925337E0
1.092465228E0,3.870000243E-1,4.201050282E0,9.060000420E0,9.994108269E0
1.094428195E0,3.870000243E-1,4.162050247E0,9.060000420E0,9.977777252E0
1.096391470E0,4.260000288E-1,4.162050247E0,9.060000420E0,9.979366006E0
1.098354655E0,4.260000288E-1,4.162050247E0,9.022050858E0,9.944925337E0
1.100317893E0,3.870000243E-1,4.162050247E0,9.060000420E0,9.977777252E0
1.102281116E0,3.870000243E-1,4.201050282E0,9.098999977E0,1.002947621E1
1.104244394E0,3.870000243E-1,4.201050282E0,8.983950615E0,9.925218443E0
1.106207655E0,3.490500152E-1,4.201050282E0,9.098999977E0,1.002808356E1
1.108171016E0,3.870000243E-1,4.239000320E0,9.060000420E0,1.001011990E1
1.110134347E0,3.490500152E-1,4.162050247E0,9.060000420E0,9.976377387E0
1.112097431E0,3.870000243E-1,4.162050247E0,9.022050858E0,9.943331079E0
1.114060584E0,3.490500152E-1,4.239000320E0,9.022050858E0,9.974385260E0
1.116023782E0,3.870000243E-1,4.162050247E0,8.983950615E0,9.908773886E0
1.117986967E0,3.490500152E-1,4.201050282E0,9.022050858E0,9.958316176E0
1.119950071E0,3.490500152E-1,4.162050247E0,9.022050858E0,9.941926365E0
1.121913199E0,4.260000288E-1,4.162050247E0,9.022050858E0,9.944925337E0
1.123876447E0,4.639500082E-1,4.239000320E0,9.060000420E0,1.001339008E1
1.125839659E0,4.260000288E-1,4.162050247E0,8.983950615E0,9.910373703E0
1.127803028E0,3.870000243E-1,4.201050282E0,9.022050858E0,9.959718578E0
1.129766351E0,3.870000243E-1,4.162050247E0,9.098999977E0,1.001320288E1
1.131729791E0,4.260000288E-1,4.123950005E0,9.022050858E0,9.929040303E0
1.133693197E0,3.870000243E-1,4.201050282E0,9.022050858E0,9.959718578E0
1.135656594E0,4.260000288E-1,4.162050247E0,9.060000420E0,9.979366006E0
1.137619984E0,4.260000288E-1,4.201050282E0,9.022050858E0,9.961310213E0
1.139583367E0,3.870000243E-1,4.201050282E0,8.983950615E0,9.925218443E0
1.141546753E0,4.260000288E-1,4.201050282E0,8.983950615E0,9.926815609E0
1.143510137E0,4.260000288E-1,4.201050282E0,8.983950615E0,9.926815609E0
1.145473522E0,4.260000288E-1,4.201050282E0,9.022050858E0,9.961310213E0
1.147436705E0,4.260000288E-1,4.201050282E0,8.944950104E0,9.891533342E0
1.149399931E0,4.260000288E-1,4.201050282E0,8.983950615E0,9.926815609E0
1.151363206E0,4.639500082E-1,4.201050282E0,8.983950615E0,9.928516593E0
1.153326467E0,3.490500152E-1,4.201050282E0,8.983950615E0,9.923811165E0
1.155289514E0,3.870000243E-1,4.201050282E0,8.983950615E0,9.925218443E0
1.157252623E0,4.260000288E-1,4.162050247E0,8.944950104E0,9.875032691E0
1.159215878E0,3.870000243E-1,4.201050282E0,8.944950104E0,9.889930477E0
1.161179087E0,3.870000243E-1,4.201050282E0,8.944950104E0,9.889930477E0
1.163142321E0,4.260000288E-1,4.201050282E0,8.907000542E0,9.857228725E0
1.165105548E0,4.260000288E-1,4.162050247E0,8.944950104E0,9.875032691E0
1.167068915E0,4.260000288E-1,4.239000320E0,8.983950615E0,9.942935602E0
1.169032240E0,4.639500082E-1,4.239000320E0,8.944950104E0,9.909415002E0
1.170995506E0,4.639500082E-1,4.239000320E0,8.944950104E0,9.909415002E0
1.172958786E0,4.260000288E-1,4.201050282E0,8.944950104E0,9.891533342E0
1.174922009E0,4.639500082E-1,4.162050247E0,8.983950615E0,9.912077508E0
1.176885248E0,4.260000288E-1,4.239000320E0,9.022050858E0,9.977374475E0
1.178848432E0,3.870000243E-1,4.201050282E0,8.983950615E0,9.925218443E0
1.180811632E0,4.260000288E-1,4.201050282E0,8.983950615E0,9.926815609E0
1.182774857E0,4.639500082E-1,4.201050282E0,9.022050858E0,9.963005307E0
1.184738082E0,4.260000288E-1,4.201050282E0,9.060000420E0,9.995694428E0
1.186701314E0,4.260000288E-1,4.201050282E0,9.022050858E0,9.961310213E0
1.188664543E0,4.260000288E-1,4.201050282E0,9.060000420E0,9.995694428E0
1.190627415E0,5.020500422E-1,4.201050282E0,9.060000420E0,9.999224236E0
1.192590391E0,4.260000288E-1,4.201050282E0,9.022050858E0,9.961310213E0
1.194553530E0,4.639500082E-1,4.162050247E0,9.022050858E0,9.946623223E0
1.196516621E0,5.020500422E-1,4.162050247E0,9.060000420E0,9.982901588E0
1.198479876E0,4.639500082E-1,4.162050247E0,9.060000420E0,9.981058034E0
1.200443083E0,4.639500082E-1,4.201050282E0,9.060000420E0,9.997383692E0
1.202406318E0,4.639500082E-1,4.201050282E0,9.098999977E0,1.003274009E1
1.204369544E0,4.639500082E-1,4.123950005E0,9.060000420E0,9.965230597E0
1.206332911E0,4.639500082E-1,4.201050282E0,9.060000420E0,9.997383692E0
1.208296237E0,5.020500422E-1,4.162050247E0,9.098999977E0,1.001830909E1
1.210259812E0,4.639500082E-1,4.123950005E0,9.098999977E0,1.000070067E1
1.212223314E0,5.410500169E-1,4.085999966E0,9.098999977E0,9.988990511E0
1.214186679E0,4.639500082E-1,4.123950005E0,9.060000420E0,9.965230597E0
1.216150085E0,5.020500422E-1,4.162050247E0,9.022050858E0,9.948473158E0
1.218113299E0,5.020500422E-1,4.123950005E0,9.060000420E0,9.967077078E0
1.220076560E0,5.020500422E-1,4.162050247E0,9.060000420E0,9.982901588E0
1.222039650E0,5.020500422E-1,4.123950005E0,9.060000420E0,9.967077078E0
1.224002791E0,5.410500169E-1,4.123950005E0,9.022050858E0,9.934641435E0
1.225966532E0,4.260000288E-1,4.123950005E0,9.022050858E0,9.929040303E0
1.227930097E0,4.639500082E-1,4.162050247E0,9.060000420E0,9.981058034E0
1.229893462E0,4.260000288E-1,4.162050247E0,9.022050858E0,9.944925337E0
1.231856878E0,4.260000288E-1,4.162050247E0,9.022050858E0,9.944925337E0
1.233820257E0,5.020500422E-1,4.162050247E0,8.983950615E0,9.913933889E0
1.235783647E0,5.020500422E-1,4.162050247E0,9.022050858E0,9.948473158E0
1.237746851E0,4.260000288E-1,4.123950005E0,8.983950615E0,9.894433198E0
1.239710109E0,4.639500082E-1,4.201050282E0,8.983950615E0,9.928516593E0
1.241673150E0,4.639500082E-1,4.201050282E0,8.983950615E0,9.928516593E0
1.243636258E0,4.639500082E-1,4.162050247E0,8.983950615E0,9.912077508E0
1.245599734E0,5.020500422E-1,4.201050282E0,8.983950615E0,9.930369901E0
1.247563102E0,4.639500082E-1,4.201050282E0,8.983950615E0,9.928516593E0
1.249526310E0,5.020500422E-1,4.162050247E0,9.022050858E0,9.948473158E0
1.251489565E0,4.639500082E-1,4.162050247E0,8.983950615E0,9.912077508E0
1.253452742E0,4.260000288E-1,4.162050247E0,9.022050858E0,9.944925337E0
1.255415945E0,4.260000288E-1,4.162050247E0,8.944950104E0,9.875032691E0
1.257379405E0,4.260000288E-1,4.162050247E0,8.983950615E0,9.910373703E0
1.259342789E0,4.260000288E-1,4.123950005E0,8.983950615E0,9.894433198E0
1.261305950E0,4.639500082E-1,4.123950005E0,8.944950104E0,9.860747721E0
1.263269176E0,5.020500422E-1,4.123950005E0,8.983950615E0,9.897999118E0
1.265232092E0,4.639500082E-1,4.123950005E0,9.022050858E0,9.930740905E0
1.267195099E0,4.639500082E-1,4.162050247E0,8.983950615E0,9.912077508E0
1.269158367E0,3.870000243E-1,4.162050247E0,8.983950615E0,9.908773886E0
1.271121558E0,4.639500082E-1,4.162050247E0,9.022050858E0,9.946623223E0
1.273084751E0,5.020500422E-1,4.123950005E0,9.022050858E0,9.932593798E0
1.275047943E0,5.020500422E-1,4.085999966E0,9.060000420E0,9.951434950E0
1.277011152E0,5.020500422E-1,4.123950005E0,9.022050858E0,9.932593798E0
1.278974376E0,4.639500082E-1,4.162050247E0,9.136950493E0,1.005095897E1
1.280937608E0,4.639500082E-1,4.162050247E0,9.098999977E0,1.001647206E1
1.282900837E0,5.410500169E-1,4.123950005E0,9.136950493E0,1.003910171E1
1.284863889E0,5.020500422E-1,4.162050247E0,9.136950493E0,1.005278970E1
1.286826993E0,5.020500422E-1,4.162050247E0,9.136950493E0,1.005278970E1
1.288789704E0,4.639500082E-1,4.201050282E0,9.098999977E0,1.003274009E1
1.290752531E0,4.639500082E-1,4.162050247E0,9.175050735E0,1.008560697E1
1.292715470E0,4.260000288E-1,4.123950005E0,9.175050735E0,1.006826677E1
1.294678376E0,3.870000243E-1,4.162050247E0,9.098999977E0,1.001320288E1
1.296641527E0,4.260000288E-1,4.201050282E0,9.098999977E0,1.003105678E1
1.298604606E0,3.870000243E-1,4.162050247E0,9.136950493E0,1.004770101E1
1.300567877E0,3.490500152E-1,4.201050282E0,9.060000420E0,9.992710693E0
1.302531082E0,3.870000243E-1,4.201050282E0,9.136950493E0,1.006391856E1
1.304494318E0,4.260000288E-1,4.162050247E0,9.060000420E0,9.979366006E0
1.306457544E0,3.870000243E-1,4.201050282E0,9.098999977E0,1.002947621E1
1.308420596E0,3.870000243E-1,4.201050282E0,9.098999977E0,1.002947621E1
1.310383699E0,4.260000288E-1,4.201050282E0,9.060000420E0,9.995694428E0
1.312346892E0,4.260000288E-1,4.201050282E0,9.060000420E0,9.995694428E0
1.314310068E0,3.870000243E-1,4.201050282E0,9.098999977E0,1.002947621E1
1.316272994E0,3.870000243E-1,4.239000320E0,9.060000420E0,1.001011990E1
1.318235993E0,4.260000288E-1,4.201050282E0,9.060000420E0,9.995694428E0
1.320199082E0,3.870000243E-1,4.239000320E0,9.098999977E0,1.004543147E1
1.322162145E0,4.639500082E-1,4.201050282E0,9.060000420E0,9.997383692E0
1.324125209E0,4.639500082E-1,4.162050247E0,9.022050858E0,9.946623223E0
1.326088284E0,4.260000288E-1,4.201050282E0,9.060000420E0,9.995694428E0
1.328051541E0,4.639500082E-1,4.162050247E0,8.983950615E0,9.912077508E0
1.330014745E0,4.639500082E-1,4.162050247E0,8.983950615E0,9.912077508E0
1.331977937E0,4.260000288E-1,4.201050282E0,9.022050858E0,9.961310213E0
1.333941132E0,4.639500082E-1,4.162050247E0,8.944950104E0,9.876742592E0
1.335904039E0,4.639500082E-1,4.162050247E0,8.983950615E0,9.912077508E0
1.337867041E0,4.639500082E-1,4.201050282E0,9.022050858E0,9.963005307E0
1.339830130E0,4.260000288E-1,4.201050282E0,9.060000420E0,9.995694428E0
1.341793193E0,4.639500082E-1,4.123950005E0,8.983950615E0,9.896139747E0
1.343756408E0,5.020500422E-1,4.201050282E0,8.983950615E0,9.930369901E0
1.345719578E0,5.020500422E-1,4.201050282E0,9.022050858E0,9.964852201E0
1.347683049E0,5.020500422E-1,4.201050282E0,9.060000420E0,9.999224236E0
1.349646429E0,4.260000288E-1,4.162050247E0,8.944950104E0,9.875032691E0
1.351609455E0,4.260000288E-1,4.201050282E0,9.022050858E0,9.961310213E0
1.353572585E0,4.639500082E-1,4.201050282E0,9.022050858E0,9.963005307E0
1.355535832E0,4.260000288E-1,4.201050282E0,8.944950104E0,9.891533342E0
1.357499044E0,4.639500082E-1,4.239000320E0,9.022050858E0,9.979066840E0
1.359462408E0,4.639500082E-1,4.201050282E0,8.944950104E0,9.893240391E0
1.361425731E0,4.639500082E-1,4.201050282E0,8.983950615E0,9.928516593E0
1.363388632E0,4.260000288E-1,4.201050282E0,9.060000420E0,9.995694428E0
1.365351656E0,4.260000288E-1,4.239000320E0,8.944950104E0,9.907710740E0
1.367314562E0,4.639500082E-1,4.239000320E0,9.022050858E0,9.979066840E0
1.369277503E0,4.260000288E-1,4.239000320E0,9.022050858E0,9.977374475E0
1.371240931E0,3.870000243E-1,4.239000320E0,9.022050858E0,9.975785403E0
1.373204207E0,4.260000288E-1,4.239000320E0,9.022050858E0,9.977374475E0
1.375167296E0,4.260000288E-1,4.239000320E0,9.022050858E0,9.977374475E0
1.377130440E0,3.870000243E-1,4.239000320E0,9.060000420E0,1.001011990E1
1.379093505E0,3.870000243E-1,4.239000320E0,9.098999977E0,1.004543147E1
1.381056594E0,3.870000243E-1,4.239000320E0,9.098999977E0,1.004543147E1
1.383019658E0,3.870000243E-1,4.239000320E0,9.098999977E0,1.004543147E1
1.384982737E0,3.870000243E-1,4.276950359E0,9.098999977E0,1.006150456E1
1.386945768E0,3.490500152E-1,4.276950359E0,9.136950493E0,1.009445415E1
1.388908814E0,3.490500152E-1,4.239000320E0,9.060000420E0,1.000872456E1
1.390871895E0,3.109500110E-1,4.276950359E0,9.022050858E0,9.989314089E0
1.392834966E0,3.490500152E-1,4.239000320E0,9.098999977E0,1.004404103E1
1.394798265E0,3.490500152E-1,4.239000320E0,9.060000420E0,1.000872456E1
1.396761500E0,3.490500152E-1,4.276950359E0,9.098999977E0,1.006011634E1
1.398724371E0,4.260000288E-1,4.201050282E0,9.060000420E0,9.995694428E0
1.400687348E0,3.490500152E-1,4.201050282E0,9.060000420E0,9.992710693E0
1.402650576E0,3.870000243E-1,4.239000320E0,9.060000420E0,1.001011990E1
1.404613731E0,3.870000243E-1,4.201050282E0,9.098999977E0,1.002947621E1
1.406576645E0,4.260000288E-1,4.239000320E0,9.098999977E0,1.004700952E1
1.408539641E0,3.870000243E-1,4.201050282E0,9.098999977E0,1.002947621E1
1.410502730E0,3.870000243E-1,4.201050282E0,9.098999977E0,1.002947621E1
1.412465792E0,3.490500152E-1,4.201050282E0,9.098999977E0,1.002808356E1
1.414429007E0,4.260000288E-1,4.162050247E0,9.098999977E0,1.001478601E1
1.416392177E0,4.260000288E-1,4.201050282E0,9.022050858E0,9.961310213E0
1.418355419E0,4.260000288E-1,4.162050247E0,9.060000420E0,9.979366006E0
1.420318639E0,4.260000288E-1,4.162050247E0,9.060000420E0,9.979366006E0
1.422281557E0,4.260000288E-1,4.162050247E0,9.098999977E0,1.001478601E1
1.424244564E0,4.260000288E-1,4.201050282E0,9.060000420E0,9.995694428E0
1.426208012E0,4.260000288E-1,4.162050247E0,9.060000420E0,9.979366006E0
1.428171331E0,3.870000243E-1,4.162050247E0,9.022050858E0,9.943331079E0
1.430134706E0,3.870000243E-1,4.162050247E0,9.022050858E0,9.943331079E0
1.432098047E0,4.260000288E-1,4.201050282E0,8.983950615E0,9.926815609E0
1.434061125E0,4.260000288E-1,4.162050247E0,9.060000420E0,9.979366006E0
1.436024280E0,4.260000288E-1,4.123950005E0,8.983950615E0,9.894433198E0
1.437987163E0,3.490500152E-1,4.123950005E0,8.944950104E0,9.856009939E0
1.439950126E0,4.260000288E-1,4.123950005E0,8.983950615E0,9.894433198E0
1.441913372E0,4.639500082E-1,4.123950005E0,8.983950615E0,9.896139747E0
1.443876524E0,3.870000243E-1,4.123950005E0,8.983950615E0,9.892830804E0
1.445839454E0,3.870000243E-1,4.162050247E0,8.907000542E0,9.839059403E0
1.447802449E0,3.870000243E-1,4.162050247E0,8.983950615E0,9.908773886E0
1.449765854E0,4.260000288E-1,4.085999966E0,8.983950615E0,9.878676045E0
1.451729139E0,4.639500082E-1,4.123950005E0,8.907000542E0,9.826335629E0
1.453692357E0,4.639500082E-1,4.123950005E0,8.944950104E0,9.860747721E0
1.455655598E0,4.260000288E-1,4.162050247E0,8.944950104E0,9.875032691E0
1.457618647E0,4.260000288E-1,4.162050247E0,8.907000542E0,9.840670553E0
1.459581752E0,4.639500082E-1,4.162050247E0,8.944950104E0,9.876742592E0
1.461544689E0,4.639500082E-1,4.123950005E0,8.944950104E0,9.860747721E0
1.463507675E0,3.490500152E-1,4.162050247E0,8.944950104E0,9.872012486E0
1.465470911E0,4.260000288E-1,4.162050247E0,8.944950104E0,9.875032691E0
1.467434067E0,4.260000288E-1,4.162050247E0,8.907000542E0,9.840670553E0
1.469397536E0,4.639500082E-1,4.201050282E0,8.907000542E0,9.858941714E0
1.471360914E0,5.020500422E-1,4.162050247E0,8.983950615E0,9.913933889E0
1.473323895E0,4.260000288E-1,4.162050247E0,8.944950104E0,9.875032691E0
1.475286992E0,4.260000288E-1,4.162050247E0,8.907000542E0,9.840670553E0
1.477250304E0,4.260000288E-1,4.201050282E0,8.907000542E0,9.857228725E0
1.479213543E0,4.260000288E-1,4.201050282E0,8.983950615E0,9.926815609E0
1.481176773E0,4.639500082E-1,4.162050247E0,8.983950615E0,9.912077508E0
1.483140006E0,4.639500082E-1,4.201050282E0,9.022050858E0,9.963005307E0
1.485103237E0,4.639500082E-1,4.162050247E0,9.022050858E0,9.946623223E0
1.487066468E0,4.260000288E-1,4.201050282E0,8.944950104E0,9.891533342E0
1.489029675E0,4.260000288E-1,4.162050247E0,9.022050858E0,9.944925337E0
1.490992906E0,4.639500082E-1,4.162050247E0,8.983950615E0,9.912077508E0
1.492956316E0,4.260000288E-1,4.162050247E0,9.060000420E0,9.979366006E0
1.494919673E0,3.870000243E-1,4.162050247E0,8.983950615E0,9.908773886E0
1.496882703E0,4.260000288E-1,4.162050247E0,9.022050858E0,9.944925337E0
1.498845829E0,4.260000288E-1,4.201050282E0,9.060000420E0,9.995694428E0
1.500809076E0,4.260000288E-1,4.239000320E0,9.060000420E0,1.001170352E1
1.502772288E0,3.870000243E-1,4.239000320E0,9.022050858E0,9.975785403E0
1.504735478E0,4.260000288E-1,4.201050282E0,9.098999977E0,1.003105678E1
1.506698675E0,3.870000243E-1,4.239000320E0,9.060000420E0,1.001011990E1
1.508661776E0,4.260000288E-1,4.201050282E0,9.098999977E0,1.003105678E1
1.510624906E0,3.870000243E-1,4.239000320E0,9.098999977E0,1.004543147E1
1.512588113E0,4.260000288E-1,4.239000320E0,9.136950493E0,1.008139197E1
1.514551293E0,4.260000288E-1,4.201050282E0,9.098999977E0,1.003105678E1
1.516514218E0,3.870000243E-1,4.239000320E0,9.098999977E0,1.004543147E1
1.518477218E0,3.870000243E-1,4.201050282E0,9.136950493E0,1.006391856E1
1.520440442E0,4.260000288E-1,4.201050282E0,9.136950493E0,1.006549372E1
1.522403601E0,3.870000243E-1,4.201050282E0,9.136950493E0,1.006391856E1
1.524366700E0,4.260000288E-1,4.239000320E0,9.098999977E0,1.004700952E1
1.526329824E0,4.260000288E-1,4.162050247E0,9.060000420E0,9.979366006E0
1.528292893E0,4.639500082E-1,4.162050247E0,9.136950493E0,1.005095897E1
1.530255978E0,3.870000243E-1,4.162050247E0,9.098999977E0,1.001320288E1
1.532219232E0,5.020500422E-1,4.201050282E0,9.098999977E0,1.003457415E1
1.534182437E0,4.260000288E-1,4.162050247E0,9.098999977E0,1.001478601E1
1.536145647E0,4.639500082E-1,4.162050247E0,9.136950493E0,1.005095897E1
1.538108843E0,4.639500082E-1,4.162050247E0,9.136950493E0,1.005095897E1
1.540071719E0,4.639500082E-1,4.162050247E0,9.136950493E0,1.005095897E1
1.542034689E0,4.639500082E-1,4.162050247E0,9.098999977E0,1.001647206E1
1.543997783E0,4.639500082E-1,4.162050247E0,9.136950493E0,1.005095897E1
1.545960841E0,4.639500082E-1,4.123950005E0,9.022050858E0,9.930740905E0
1.547923966E0,5.020500422E-1,4.047000408E0,9.098999977E0,9.971061485E0
1.549887072E0,5.410500169E-1,4.123950005E0,9.098999977E0,1.000457392E1
1.551850459E0,4.639500082E-1,4.123950005E0,9.098999977E0,1.000070067E1
1.553813764E0,4.260000288E-1,4.123950005E0,9.098999977E0,9.999011964E0
1.555776848E0,4.260000288E-1,4.123950005E0,9.060000420E0,9.963535882E0
1.557739997E0,4.639500082E-1,4.085999966E0,9.060000420E0,9.949585566E0
1.559703176E0,5.020500422E-1,4.123950005E0,9.022050858E0,9.932593798E0
1.561666360E0,4.639500082E-1,4.162050247E0,9.060000420E0,9.981058034E0
1.563629284E0,5.020500422E-1,4.162050247E0,9.022050858E0,9.948473158E0
1.565592285E0,5.020500422E-1,4.162050247E0,8.944950104E0,9.878605613E0
1.567555554E0,4.639500082E-1,4.123950005E0,8.983950615E0,9.896139747E0
1.569518745E0,4.639500082E-1,4.162050247E0,8.944950104E0,9.876742592E0
1.571481809E0,4.639500082E-1,4.123950005E0,8.944950104E0,9.860747721E0
1.573444906E0,5.020500422E-1,4.123950005E0,8.983950615E0,9.897999118E0
1.575407934E0,5.020500422E-1,4.123950005E0,8.983950615E0,9.897999118E0
1.577370983E0,4.639500082E-1,4.123950005E0,8.983950615E0,9.896139747E0
1.579334108E0,4.639500082E-1,4.123950005E0,8.983950615E0,9.896139747E0
1.581297211E0,4.639500082E-1,4.123950005E0,8.983950615E0,9.896139747E0
1.583260250E0,4.639500082E-1,4.123950005E0,8.944950104E0,9.860747721E0
1.585223300E0,4.639500082E-1,4.162050247E0,8.944950104E0,9.876742592E0
1.587186426E0,5.020500422E-1,4.201050282E0,9.022050858E0,9.964852201E0
1.589149529E0,5.020500422E-1,4.162050247E0,8.983950615E0,9.913933889E0
1.591112422E0,5.020500422E-1,4.162050247E0,9.022050858E0,9.948473158E0
1.593075377E0,5.410500169E-1,4.123950005E0,8.983950615E0,9.900053910E0
1.595038452E0,4.639500082E-1,4.123950005E0,9.022050858E0,9.930740905E0
1.597001475E0,4.639500082E-1,4.123950005E0,8.983950615E0,9.896139747E0
1.598964561E0,5.020500422E-1,4.201050282E0,8.983950615E0,9.930369901E0
1.600927629E0,5.020500422E-1,4.123950005E0,8.983950615E0,9.897999118E0
1.602890528E0,5.020500422E-1,4.162050247E0,8.983950615E0,9.913933889E0
1.604853477E0,5.020500422E-1,4.201050282E0,9.060000420E0,9.999224236E0
1.606816610E0,4.260000288E-1,4.162050247E0,9.022050858E0,9.944925337E0
1.608779696E0,5.020500422E-1,4.162050247E0,9.022050858E0,9.948473158E0
1.610742727E0,5.020500422E-1,4.201050282E0,9.022050858E0,9.964852201E0
1.612705775E0,5.410500169E-1,4.162050247E0,9.098999977E0,1.002033921E1
1.614668901E0,5.020500422E-1,4.201050282E0,8.983950615E0,9.930369901E0
1.616632004E0,4.260000288E-1,4.201050282E0,9.098999977E0,1.003105678E1
1.618595015E0,4.260000288E-1,4.239000320E0,9.060000420E0,1.001170352E1
1.620558065E0,5.020500422E-1,4.201050282E0,9.060000420E0,9.999224236E0
1.622521325E0,5.020500422E-1,4.239000320E0,9.022050858E0,9.980910762E0
1.624484524E0,5.020500422E-1,4.201050282E0,8.983950615E0,9.930369901E0
1.626447626E0,4.260000288E-1,4.201050282E0,9.060000420E0,9.995694428E0
1.628410757E0,4.260000288E-1,4.201050282E0,8.983950615E0,9.926815609E0
1.630373925E0,4.260000288E-1,4.201050282E0,8.983950615E0,9.926815609E0
1.632337106E0,4.639500082E-1,4.239000320E0,8.983950615E0,9.944633828E0
1.634300031E0,4.260000288E-1,4.239000320E0,8.944950104E0,9.907710740E0
1.636263031E0,3.870000243E-1,4.201050282E0,9.022050858E0,9.959718578E0
1.638226616E0,3.870000243E-1,4.239000320E0,8.983950615E0,9.941341026E0
1.640190029E0,4.260000288E-1,4.276950359E0,8.944950104E0,9.924006890E0
1.642153234E0,3.870000243E-1,4.239000320E0,8.944950104E0,9.906110493E0
1.644116497E0,4.639500082E-1,4.239000320E0,9.022050858E0,9.979066840E0
1.646079542E0,4.260000288E-1,4.239000320E0,9.022050858E0,9.977374475E0
1.648042651E0,4.260000288E-1,4.239000320E0,8.983950615E0,9.942935602E0
1.650005542E0,4.639500082E-1,4.201050282E0,8.983950615E0,9.928516593E0
1.651968497E0,5.020500422E-1,4.239000320E0,8.944950104E0,9.911271882E0
1.653931483E0,4.639500082E-1,4.239000320E0,9.022050858E0,9.979066840E0
1.655894442E0,4.260000288E-1,4.239000320E0,9.060000420E0,1.001170352E1
1.657857855E0,4.260000288E-1,4.201050282E0,9.060000420E0,9.995694428E0
1.659821135E0,4.639500082E-1,4.239000320E0,9.060000420E0,1.001339008E1
1.661784178E0,4.260000288E-1,4.239000320E0,9.060000420E0,1.001170352E1
1.663747291E0,4.260000288E-1,4.201050282E0,9.060000420E0,9.995694428E0
1.665710596E0,4.639500082E-1,4.201050282E0,9.022050858E0,9.963005307E0
1.667673837E0,3.870000243E-1,4.239000320E0,9.022050858E0,9.975785403E0
1.669636842E0,3.870000243E-1,4.239000320E0,9.022050858E0,9.975785403E0
1.671599916E0,4.260000288E-1,4.201050282E0,9.060000420E0,9.995694428E0
1.673562858E0,4.260000288E-1,4.239000320E0,9.060000420E0,1.001170352E1
1.675525839E0,4.260000288E-1,4.239000320E0,9.022050858E0,9.977374475E0
1.677489062E0,4.260000288E-1,4.201050282E0,9.022050858E0,9.961310213E0
1.679452217E0,4.260000288E-1,4.201050282E0,9.060000420E0,9.995694428E0
1.681415461E0,4.260000288E-1,4.239000320E0,9.060000420E0,1.001170352E1
1.683378678E0,4.260000288E-1,4.201050282E0,9.022050858E0,9.961310213E0
1.685341911E0,4.260000288E-1,4.201050282E0,9.060000420E0,9.995694428E0
1.687305140E0,3.870000243E-1,4.201050282E0,9.060000420E0,9.994108269E0
1.689268187E0,3.870000243E-1,4.162050247E0,9.098999977E0,1.001320288E1
1.691231291E0,4.260000288E-1,4.201050282E0,9.060000420E0,9.995694428E0
1.693194183E0,3.870000243E-1,4.201050282E0,9.098999977E0,1.002947621E1
1.695157137E0,3.870000243E-1,4.201050282E0,9.022050858E0,9.959718578E0
1.697120234E0,4.260000288E-1,4.201050282E0,9.060000420E0,9.995694428E0
1.699083289E0,3.490500152E-1,4.201050282E0,9.022050858E0,9.958316176E0
1.701046181E0,3.490500152E-1,4.201050282E0,9.136950493E0,1.006253068E1
1.703009128E0,3.870000243E-1,4.201050282E0,9.060000420E0,9.994108269E0
1.704972091E0,4.260000288E-1,4.201050282E0,9.098999977E0,1.003105678E1
1.706935049E0,4.260000288E-1,4.201050282E0,9.060000420E0,9.995694428E0
1.708898326E0,3.870000243E-1,4.201050282E0,9.060000420E0,9.994108269E0
1.710861510E0,4.260000288E-1,4.162050247E0,9.022050858E0,9.944925337E0
1.712824768E0,4.260000288E-1,4.201050282E0,9.022050858E0,9.961310213E0
1.714787991E0,4.639500082E-1,4.123950005E0,9.098999977E0,1.000070067E1
1.716750864E0,4.260000288E-1,4.162050247E0,9.060000420E0,9.979366006E0
1.718713839E0,3.870000243E-1,4.162050247E0,9.022050858E0,9.943331079E0
1.720676753E0,4.260000288E-1,4.123950005E0,9.022050858E0,9.929040303E0
1.722639685E0,4.639500082E-1,4.201050282E0,9.022050858E0,9.963005307E0
1.724602916E0,4.639500082E-1,4.123950005E0,9.022050858E0,9.930740905E0
1.726566063E0,3.870000243E-1,4.123950005E0,8.983950615E0,9.892830804E0
1.728529353E0,4.639500082E-1,4.123950005E0,8.944950104E0,9.860747721E0
1.730492601E0,5.020500422E-1,4.123950005E0,8.983950615E0,9.897999118E0
1.732455830E0,5.020500422E-1,4.123950005E0,8.983950615E0,9.897999118E0
1.734419065E0,4.639500082E-1,4.123950005E0,8.944950104E0,9.860747721E0
1.736382300E0,4.639500082E-1,4.123950005E0,8.983950615E0,9.896139747E0
1.738345532E0,3.870000243E-1,4.162050247E0,8.983950615E0,9.908773886E0
1.740308762E0,4.639500082E-1,4.123950005E0,8.944950104E0,9.860747721E0
1.742271993E0,4.639500082E-1,4.123950005E0,8.944950104E0,9.860747721E0
1.744235043E0,4.639500082E-1,4.123950005E0,8.983950615E0,9.896139747E0
1.746198147E0,4.260000288E-1,4.123950005E0,9.060000420E0,9.963535882E0
1.748160891E0,4.639500082E-1,4.162050247E0,8.983950615E0,9.912077508E0
1.750123718E0,4.260000288E-1,4.123950005E0,8.983950615E0,9.894433198E0
1.752087017E0,4.260000288E-1,4.123950005E0,8.983950615E0,9.894433198E0
1.754050178E0,4.639500082E-1,4.085999966E0,8.983950615E0,9.880385315E0
1.756013376E0,4.260000288E-1,4.123950005E0,9.022050858E0,9.929040303E0
1.757976563E0,4.260000288E-1,4.162050247E0,8.983950615E0,9.910373703E0
1.759939672E0,3.870000243E-1,4.162050247E0,8.983950615E0,9.908773886E0
1.761902800E0,4.260000288E-1,4.162050247E0,8.983950615E0,9.910373703E0
1.763866228E0,4.639500082E-1,4.162050247E0,9.022050858E0,9.946623223E0
1.765829568E0,4.260000288E-1,4.123950005E0,9.022050858E0,9.929040303E0
1.767792781E0,4.260000288E-1,4.162050247E0,9.022050858E0,9.944925337E0
1.769756031E0,4.639500082E-1,4.201050282E0,8.983950615E0,9.928516593E0
1.771719373E0,4.639500082E-1,4.201050282E0,9.098999977E0,1.003274009E1
1.773682702E0,4.260000288E-1,4.239000320E0,9.022050858E0,9.977374475E0
1.775645557E0,4.639500082E-1,4.162050247E0,9.060000420E0,9.981058034E0
1.777608551E0,4.639500082E-1,4.201050282E0,9.098999977E0,1.003274009E1
1.779571507E0,4.260000288E-1,4.201050282E0,9.060000420E0,9.995694428E0
1.781534474E0,4.260000288E-1,4.201050282E0,9.098999977E0,1.003105678E1
1.783497725E0,4.260000288E-1,4.201050282E0,9.022050858E0,9.961310213E0
1.785460909E0,4.639500082E-1,4.162050247E0,9.060000420E0,9.981058034E0
1.787424283E0,4.260000288E-1,4.162050247E0,9.098999977E0,1.001478601E1
1.789387602E0,5.020500422E-1,4.123950005E0,9.022050858E0,9.932593798E0
1.791350683E0,3.870000243E-1,4.162050247E0,9.022050858E0,9.943331079E0
1.793313834E0,4.260000288E-1,4.162050247E0,9.060000420E0,9.979366006E0
1.795276908E0,4.260000288E-1,4.201050282E0,9.022050858E0,9.961310213E0
1.797239998E0,4.639500082E-1,4.162050247E0,9.022050858E0,9.946623223E0
1.799203207E0,4.260000288E-1,4.201050282E0,9.098999977E0,1.003105678E1
1.801166381E0,4.260000288E-1,4.162050247E0,9.098999977E0,1.001478601E1
1.803129488E0,4.639500082E-1,4.085999966E0,9.060000420E0,9.949585566E0
1.805092614E0,4.260000288E-1,4.123950005E0,9.060000420E0,9.963535882E0
1.807056011E0,4.260000288E-1,4.201050282E0,9.060000420E0,9.995694428E0
1.809019318E0,4.639500082E-1,4.162050247E0,9.022050858E0,9.946623223E0
1.810982536E0,4.260000288E-1,4.123950005E0,9.098999977E0,9.999011964E0
1.812945781E0,4.260000288E-1,4.123950005E0,9.136950493E0,1.003355889E1
1.814909010E0,4.260000288E-1,4.085999966E0,9.098999977E0,9.983419871E0
1.816872243E0,3.870000243E-1,4.162050247E0,9.136950493E0,1.004770101E1
1.818835536E0,3.870000243E-1,4.123950005E0,9.060000420E0,9.961944602E0
1.820798798E0,4.260000288E-1,4.162050247E0,9.098999977E0,1.001478601E1
1.822762204E0,4.260000288E-1,4.085999966E0,9.136950493E0,1.001802057E1
1.824725568E0,4.260000288E-1,4.085999966E0,9.175050735E0,1.005278209E1
1.826688912E0,4.260000288E-1,4.162050247E0,9.175050735E0,1.008393248E1
1.828652262E0,4.639500082E-1,4.123950005E0,9.136950493E0,1.003524178E1
1.830615518E0,3.870000243E-1,4.123950005E0,9.175050735E0,1.006669204E1
1.832578801E0,4.639500082E-1,4.123950005E0,9.136950493E0,1.003524178E1
1.834542382E0,5.020500422E-1,4.123950005E0,9.175050735E0,1.007177114E1
1.836505875E0,4.260000288E-1,4.123950005E0,9.136950493E0,1.003355889E1
1.838469062E0,4.260000288E-1,4.123950005E0,9.175050735E0,1.006826677E1
1.840432339E0,4.639500082E-1,4.123950005E0,9.214050293E0,1.010549039E1
1.842395707E0,5.020500422E-1,4.123950005E0,9.136950493E0,1.003707538E1
1.844359072E0,4.260000288E-1,4.123950005E0,9.136950493E0,1.003355889E1
1.846322101E0,5.020500422E-1,4.123950005E0,9.175050735E0,1.007177114E1
1.848285228E0,4.260000288E-1,4.085999966E0,9.136950493E0,1.001802057E1
1.850248610E0,5.020500422E-1,4.123950005E0,9.136950493E0,1.003707538E1
1.852211918E0,5.020500422E-1,4.123950005E0,9.175050735E0,1.007177114E1
1.854175173E0,4.260000288E-1,4.123950005E0,9.136950493E0,1.003355889E1
1.856138450E0,5.020500422E-1,4.123950005E0,9.214050293E0,1.010731125E1
1.858101807E0,4.260000288E-1,4.085999966E0,9.175050735E0,1.005278209E1
1.860065140E0,5.020500422E-1,4.123950005E0,9.136950493E0,1.003707538E1
1.862028355E0,4.639500082E-1,4.123950005E0,9.136950493E0,1.003524178E1
1.863991604E0,4.639500082E-1,4.123950005E0,9.136950493E0,1.003524178E1
1.865955035E0,4.639500082E-1,4.085999966E0,9.175050735E0,1.005446176E1
1.867918395E0,5.020500422E-1,4.123950005E0,9.098999977E0,1.000254060E1
1.869882009E0,5.020500422E-1,4.085999966E0,9.060000420E0,9.951434950E0
1.871845549E0,4.639500082E-1,4.085999966E0,9.136950493E0,1.001970607E1
1.873808908E0,4.639500082E-1,4.162050247E0,9.022050858E0,9.946623223E0
1.875772320E0,4.639500082E-1,4.085999966E0,9.136950493E0,1.001970607E1
1.877735505E0,5.020500422E-1,4.123950005E0,9.098999977E0,1.000254060E1
1.879698767E0,4.639500082E-1,4.123950005E0,9.098999977E0,1.000070067E1
1.881662171E0,4.639500082E-1,4.123950005E0,9.060000420E0,9.965230597E0
1.883625534E0,4.260000288E-1,4.123950005E0,9.136950493E0,1.003355889E1
1.885588922E0,4.639500082E-1,4.085999966E0,9.136950493E0,1.001970607E1
1.887552303E0,4.260000288E-1,4.123950005E0,9.098999977E0,9.999011964E0
1.889515474E0,4.639500082E-1,4.123950005E0,9.060000420E0,9.965230597E0
1.891478700E0,4.639500082E-1,4.123950005E0,9.022050858E0,9.930740905E0
1.893441975E0,4.639500082E-1,4.085999966E0,9.098999977E0,9.985111212E0
1.895405236E0,5.020500422E-1,4.085999966E0,9.022050858E0,9.916897279E0
1.897368463E0,5.020500422E-1,4.123950005E0,9.060000420E0,9.967077078E0
1.899331700E0,4.639500082E-1,4.123950005E0,9.060000420E0,9.965230597E0
1.901295104E0,4.639500082E-1,4.123950005E0,9.060000420E0,9.965230597E0
1.903258462E0,5.020500422E-1,4.123950005E0,9.022050858E0,9.932593798E0
1.905221447E0,4.639500082E-1,4.123950005E0,9.098999977E0,1.000070067E1
1.907184541E0,5.020500422E-1,4.123950005E0,9.060000420E0,9.967077078E0
1.909147299E0,5.020500422E-1,4.085999966E0,9.060000420E0,9.951434950E0
1.911110156E0,5.020500422E-1,4.123950005E0,9.060000420E0,9.967077078E0
1.913073230E0,4.639500082E-1,4.085999966E0,8.983950615E0,9.880385315E0
1.915036236E0,4.639500082E-1,4.047000408E0,9.098999977E0,9.969215741E0
1.916999731E0,5.020500422E-1,4.085999966E0,9.098999977E0,9.986954018E0
1.918963082E0,4.260000288E-1,4.123950005E0,9.060000420E0,9.963535882E0
1.920926429E0,4.639500082E-1,4.162050247E0,9.098999977E0,1.001647206E1
1.922889777E0,4.639500082E-1,4.123950005E0,9.136950493E0,1.003524178E1
1.924853152E0,5.020500422E-1,4.123950005E0,9.098999977E0,1.000254060E1
1.926816529E0,5.020500422E-1,4.123950005E0,9.060000420E0,9.967077078E0
1.928779601E0,4.639500082E-1,4.085999966E0,9.136950493E0,1.001970607E1
1.930742762E0,5.020500422E-1,4.162050247E0,9.098999977E0,1.001830909E1
1.932706184E0,4.639500082E-1,4.085999966E0,9.098999977E0,9.985111212E0
1.934669529E0,5.410500169E-1,4.085999966E0,9.060000420E0,9.953478711E0
1.936632663E0,5.020500422E-1,4.123950005E0,9.098999977E0,1.000254060E1
1.938595883E0,5.020500422E-1,4.162050247E0,9.136950493E0,1.005278970E1
1.940559340E0,4.639500082E-1,4.162050247E0,9.098999977E0,1.001647206E1
1.942522727E0,4.639500082E-1,4.123950005E0,9.098999977E0,1.000070067E1
1.944485752E0,4.639500082E-1,4.123950005E0,9.098999977E0,1.000070067E1
1.946448883E0,5.020500422E-1,4.162050247E0,9.098999977E0,1.001830909E1
1.948412274E0,4.639500082E-1,4.123950005E0,9.098999977E0,1.000070067E1
1.950375582E0,4.639500082E-1,4.123950005E0,9.098999977E0,1.000070067E1
1.952338845E0,4.260000288E-1,4.201050282E0,9.060000420E0,9.995694428E0
1.954302122E0,4.639500082E-1,4.123950005E0,9.060000420E0,9.965230597E0
1.956265300E0,4.639500082E-1,4.162050247E0,9.060000420E0,9.981058034E0
1.958228507E0,4.260000288E-1,4.201050282E0,8.983950615E0,9.926815609E0
1.960191626E0,3.870000243E-1,4.162050247E0,9.022050858E0,9.943331079E0
1.962154757E0,4.260000288E-1,4.162050247E0,9.022050858E0,9.944925337E0
1.964117599E0,4.260000288E-1,4.162050247E0,9.022050858E0,9.944925337E0
1.966080526E0,4.260000288E-1,4.201050282E0,9.022050858E0,9.961310213E0
1.968043673E0,4.260000288E-1,4.162050247E0,8.983950615E0,9.910373703E0
1.970006755E0,3.870000243E-1,4.239000320E0,8.983950615E0,9.941341026E0
1.971970021E0,4.639500082E-1,4.201050282E0,8.983950615E0,9.928516593E0
1.973933226E0,4.639500082E-1,4.162050247E0,9.022050858E0,9.946623223E0
1.975896642E0,4.260000288E-1,4.162050247E0,8.983950615E0,9.910373703E0
1.977859996E0,5.020500422E-1,4.162050247E0,8.983950615E0,9.913933889E0
1.979823161E0,3.870000243E-1,4.162050247E0,9.022050858E0,9.943331079E0
1.981786382E0,4.260000288E-1,4.162050247E0,8.983950615E0,9.910373703E0
1.983749673E0,5.020500422E-1,4.162050247E0,9.060000420E0,9.982901588E0
1.985712933E0,5.020500422E-1,4.123950005E0,9.022050858E0,9.932593798E0
1.987676114E0,5.020500422E-1,4.123950005E0,9.022050858E0,9.932593798E0
1.989639319E0,4.639500082E-1,4.162050247E0,9.022050858E0,9.946623223E0
1.991602598E0,5.020500422E-1,4.162050247E0,9.060000420E0,9.982901588E0
1.993565856E0,4.639500082E-1,4.123950005E0,9.098999977E0,1.000070067E1
1.995529213E0,4.639500082E-1,4.123950005E0,9.060000420E0,9.965230597E0
1.997492544E0,4.639500082E-1,4.123950005E0,9.022050858E0,9.930740905E0
1.999455759E0,4.639500082E-1,4.123950005E0,9.060000420E0,9.965230597E0
2.001419008E0,4.260000288E-1,4.085999966E0,9.060000420E0,9.947888185E0
2.003382055E0,4.639500082E-1,4.162050247E0,9.060000420E0,9.981058034E0
2.005345162E0,4.639500082E-1,4.123950005E0,9.098999977E0,1.000070067E1
2.007308408E0,4.260000288E-1,4.162050247E0,9.060000420E0,9.979366006E0
2.009271616E0,3.870000243E-1,4.162050247E0,9.060000420E0,9.977777252E0
2.011234851E0,3.870000243E-1,4.162050247E0,9.098999977E0,1.001320288E1
2.013198078E0,3.490500152E-1,4.201050282E0,9.098999977E0,1.002808356E1
2.015160995E0,4.260000288E-1,4.201050282E0,9.060000420E0,9.995694428E0
2.017124003E0,3.870000243E-1,4.201050282E0,9.022050858E0,9.959718578E0
2.019087239E0,3.490500152E-1,4.201050282E0,9.098999977E0,1.002808356E1
2.021050399E0,3.490500152E-1,4.201050282E0,9.060000420E0,9.992710693E0
2.023013508E0,3.490500152E-1,4.239000320E0,9.022050858E0,9.974385260E0
2.024976632E0,3.870000243E-1,4.201050282E0,8.983950615E0,9.925218443E0
2.026939880E0,3.870000243E-1,4.201050282E0,9.022050858E0,9.959718578E0
2.028903092E0,3.870000243E-1,4.201050282E0,8.983950615E0,9.925218443E0
2.030866117E0,3.490500152E-1,4.162050247E0,8.983950615E0,9.907364272E0
2.032829186E0,3.870000243E-1,4.239000320E0,9.022050858E0,9.975785403E0
2.034791949E0,4.260000288E-1,4.201050282E0,8.944950104E0,9.891533342E0
2.036754801E0,4.260000288E-1,4.162050247E0,8.983950615E0,9.910373703E0
2.038717870E0,4.260000288E-1,4.162050247E0,8.944950104E0,9.875032691E0
2.040680876E0,4.260000288E-1,4.162050247E0,8.907000542E0,9.840670553E0
2.042643945E0,4.639500082E-1,4.162050247E0,8.907000542E0,9.842386424E0
2.044607010E0,4.260000288E-1,4.123950005E0,8.907000542E0,9.824616955E0
2.046570089E0,5.020500422E-1,4.162050247E0,8.944950104E0,9.878605613E0
2.048533164E0,4.639500082E-1,4.123950005E0,8.983950615E0,9.896139747E0
2.050496286E0,5.020500422E-1,4.162050247E0,8.983950615E0,9.913933889E0
2.052459394E0,4.260000288E-1,4.123950005E0,8.983950615E0,9.894433198E0
2.054422616E0,4.639500082E-1,4.162050247E0,8.907000542E0,9.842386424E0
2.056385794E0,4.639500082E-1,4.162050247E0,9.022050858E0,9.946623223E0
2.058349079E0,4.639500082E-1,4.123950005E0,9.022050858E0,9.930740905E0
2.060312333E0,4.639500082E-1,4.162050247E0,8.983950615E0,9.912077508E0
2.062275380E0,5.410500169E-1,4.123950005E0,8.944950104E0,9.864675926E0
2.064238488E0,4.639500082E-1,4.162050247E0,9.022050858E0,9.946623223E0
2.066201579E0,4.639500082E-1,4.162050247E0,9.022050858E0,9.946623223E0
2.068164661E0,5.020500422E-1,4.162050247E0,8.983950615E0,9.913933889E0
2.070127692E0,4.639500082E-1,4.162050247E0,9.022050858E0,9.946623223E0
2.072090738E0,5.020500422E-1,4.162050247E0,9.060000420E0,9.982901588E0
2.074054000E0,5.020500422E-1,4.162050247E0,9.022050858E0,9.948473158E0
2.076017198E0,4.639500082E-1,4.162050247E0,9.022050858E0,9.946623223E0
2.077980479E0,5.410500169E-1,4.162050247E0,9.022050858E0,9.950517527E0
2.079943736E0,4.260000288E-1,4.162050247E0,9.098999977E0,1.001478601E1
2.081906783E0,4.639500082E-1,4.123950005E0,9.098999977E0,1.000070067E1
2.083869892E0,4.639500082E-1,4.162050247E0,9.136950493E0,1.005095897E1
2.085832918E0,4.260000288E-1,4.162050247E0,9.098999977E0,1.001478601E1
2.087795969E0,4.639500082E-1,4.162050247E0,9.136950493E0,1.005095897E1
2.089758851E0,4.260000288E-1,4.162050247E0,9.022050858E0,9.944925337E0
2.091721796E0,4.639500082E-1,4.162050247E0,9.098999977E0,1.001647206E1
2.093684895E0,4.260000288E-1,4.201050282E0,9.098999977E0,1.003105678E1
2.095647948E0,4.639500082E-1,4.162050247E0,9.098999977E0,1.001647206E1
2.097610714E0,4.639500082E-1,4.162050247E0,9.098999977E0,1.001647206E1
2.099573565E0,4.639500082E-1,4.162050247E0,9.175050735E0,1.008560697E1
2.101536606E0,4.639500082E-1,4.162050247E0,9.175050735E0,1.008560697E1
2.103499611E0,4.639500082E-1,4.123950005E0,9.136950493E0,1.003524178E1
2.105462700E0,4.639500082E-1,4.123950005E0,9.175050735E0,1.006994386E1
2.107425765E0,4.260000288E-1,4.123950005E0,9.175050735E0,1.006826677E1
2.109389025E0,4.639500082E-1,4.085999966E0,9.214050293E0,1.009006284E1
2.111352227E0,4.260000288E-1,4.123950005E0,9.252000809E0,1.013843965E1
2.113315503E0,5.020500422E-1,4.123950005E0,9.214050293E0,1.010731125E1
2.115278760E0,5.020500422E-1,4.085999966E0,9.214050293E0,1.009188648E1
2.117241943E0,5.020500422E-1,4.085999966E0,9.214050293E0,1.009188648E1
2.119205147E0,5.020500422E-1,4.123950005E0,9.252000809E0,1.014191978E1
2.121168787E0,5.020500422E-1,4.123950005E0,9.252000809E0,1.014191978E1
2.123132299E0,5.020500422E-1,4.085999966E0,9.136950493E0,1.002154251E1
2.125095307E0,5.020500422E-1,4.085999966E0,9.214050293E0,1.009188648E1
2.127058460E0,5.020500422E-1,4.123950005E0,9.214050293E0,1.010731125E1
2.129022063E0,5.020500422E-1,4.085999966E0,9.136950493E0,1.002154251E1
2.130985534E0,4.639500082E-1,4.047000408E0,9.136950493E0,1.000386556E1
2.132948725E0,5.020500422E-1,4.085999966E0,9.098999977E0,9.986954018E0
2.134911998E0,5.020500422E-1,4.047000408E0,9.098999977E0,9.971061485E0
2.136875207E0,5.020500422E-1,4.085999966E0,9.098999977E0,9.986954018E0
2.138838445E0,5.410500169E-1,4.085999966E0,9.060000420E0,9.953478711E0
2.140801674E0,5.020500422E-1,4.085999966E0,9.060000420E0,9.951434950E0
2.142764906E0,4.639500082E-1,4.047000408E0,9.022050858E0,9.899033467E0
2.144728270E0,5.020500422E-1,4.085999966E0,9.060000420E0,9.951434950E0
2.146691596E0,5.020500422E-1,4.047000408E0,9.022050858E0,9.900892294E0
2.148654793E0,5.020500422E-1,4.085999966E0,9.022050858E0,9.916897279E0
2.150618041E0,4.639500082E-1,4.123950005E0,9.060000420E0,9.965230597E0
2.152581809E0,4.639500082E-1,4.123950005E0,8.983950615E0,9.896139747E0
2.154545424E0,5.020500422E-1,4.123950005E0,9.022050858E0,9.932593798E0
2.156508274E0,5.020500422E-1,4.123950005E0,9.022050858E0,9.932593798E0
2.158471349E0,5.020500422E-1,4.123950005E0,9.022050858E0,9.932593798E0
2.160434565E0,4.639500082E-1,4.085999966E0,9.022050858E0,9.915041453E0
2.162397736E0,4.639500082E-1,4.085999966E0,8.983950615E0,9.880385315E0
2.164360798E0,5.410500169E-1,4.085999966E0,8.944950104E0,9.848871164E0
2.166323892E0,5.020500422E-1,4.123950005E0,8.983950615E0,9.897999118E0
2.168286966E0,5.020500422E-1,4.123950005E0,8.983950615E0,9.897999118E0
2.170250046E0,5.020500422E-1,4.162050247E0,9.022050858E0,9.948473158E0
2.172213278E0,4.639500082E-1,4.123950005E0,8.944950104E0,9.860747721E0
2.174176482E0,5.020500422E-1,4.162050247E0,8.983950615E0,9.913933889E0
2.176139717E0,5.410500169E-1,4.085999966E0,8.983950615E0,9.884305716E0
2.178102943E0,5.020500422E-1,4.162050247E0,8.944950104E0,9.878605613E0
2.180065996E0,5.020500422E-1,4.162050247E0,8.944950104E0,9.878605613E0
2.182029099E0,5.020500422E-1,4.123950005E0,8.944950104E0,9.862613763E0
2.183992050E0,5.410500169E-1,4.162050247E0,8.907000542E0,9.846321954E0
2.185955036E0,4.639500082E-1,4.162050247E0,8.907000542E0,9.842386424E0
2.187918308E0,4.639500082E-1,4.162050247E0,8.944950104E0,9.876742592E0
2.189881496E0,5.020500422E-1,4.162050247E0,8.869050026E0,9.809931950E0
2.191844330E0,4.639500082E-1,4.162050247E0,8.907000542E0,9.842386424E0
2.193807267E0,4.639500082E-1,4.162050247E0,8.944950104E0,9.876742592E0
2.195770237E0,4.260000288E-1,4.201050282E0,8.907000542E0,9.857228725E0
2.197733193E0,4.639500082E-1,4.162050247E0,8.907000542E0,9.842386424E0
2.199696426E0,4.639500082E-1,4.239000320E0,8.983950615E0,9.944633828E0
2.201659578E0,5.020500422E-1,4.201050282E0,8.944950104E0,9.895100306E0
2.203622688E0,5.020500422E-1,4.201050282E0,8.907000542E0,9.860808099E0
2.205585810E0,4.639500082E-1,4.162050247E0,8.944950104E0,9.876742592E0
2.207548995E0,4.260000288E-1,4.201050282E0,8.983950615E0,9.926815609E0
2.209512174E0,4.260000288E-1,4.162050247E0,8.944950104E0,9.875032691E0
2.211475280E0,4.639500082E-1,4.239000320E0,8.983950615E0,9.944633828E0
2.213438407E0,4.260000288E-1,4.162050247E0,8.983950615E0,9.910373703E0
2.215401430E0,4.260000288E-1,4.162050247E0,8.983950615E0,9.910373703E0
2.217364484E0,4.639500082E-1,4.201050282E0,9.022050858E0,9.963005307E0
2.219327603E0,4.639500082E-1,4.201050282E0,8.983950615E0,9.928516593E0
2.221290707E0,4.260000288E-1,4.162050247E0,9.022050858E0,9.944925337E0
2.223253915E0,4.260000288E-1,4.201050282E0,9.022050858E0,9.961310213E0
2.225217092E0,4.260000288E-1,4.162050247E0,9.060000420E0,9.979366006E0
2.227180198E0,4.260000288E-1,4.201050282E0,9.022050858E0,9.961310213E0
2.229143325E0,4.260000288E-1,4.201050282E0,9.060000420E0,9.995694428E0
2.231106716E0,3.870000243E-1,4.201050282E0,9.060000420E0,9.994108269E0
2.233070024E0,4.260000288E-1,4.201050282E0,9.098999977E0,1.003105678E1
2.235033467E0,4.639500082E-1,4.162050247E0,9.098999977E0,1.001647206E1
2.236996870E0,4.639500082E-1,4.162050247E0,9.136950493E0,1.005095897E1
2.238960208E0,4.639500082E-1,4.162050247E0,9.098999977E0,1.001647206E1
2.240923565E0,4.260000288E-1,4.162050247E0,9.136950493E0,1.004927871E1
2.242886765E0,4.639500082E-1,4.162050247E0,9.098999977E0,1.001647206E1
2.244850017E0,4.260000288E-1,4.201050282E0,9.098999977E0,1.003105678E1
2.246813064E0,4.639500082E-1,4.201050282E0,9.136950493E0,1.006717127E1
2.248776171E0,4.260000288E-1,4.162050247E0,9.136950493E0,1.004927871E1
2.250739107E0,4.639500082E-1,4.162050247E0,9.136950493E0,1.005095897E1
2.252702094E0,5.020500422E-1,4.162050247E0,9.136950493E0,1.005278970E1
2.254665335E0,4.639500082E-1,4.162050247E0,9.098999977E0,1.001647206E1
2.256628491E0,4.639500082E-1,4.201050282E0,9.060000420E0,9.997383692E0
2.258591556E0,4.639500082E-1,4.201050282E0,9.098999977E0,1.003274009E1
2.260554647E0,4.260000288E-1,4.123950005E0,9.022050858E0,9.929040303E0
2.262517361E0,4.639500082E-1,4.162050247E0,9.098999977E0,1.001647206E1
2.264480185E0,4.260000288E-1,4.201050282E0,9.098999977E0,1.003105678E1
2.266443164E0,4.639500082E-1,4.162050247E0,9.060000420E0,9.981058034E0
2.268406101E0,4.639500082E-1,4.162050247E0,9.098999977E0,1.001647206E1
2.270369202E0,4.639500082E-1,4.201050282E0,9.098999977E0,1.003274009E1
2.272332255E0,4.639500082E-1,4.162050247E0,9.098999977E0,1.001647206E1
2.274295336E0,4.639500082E-1,4.123950005E0,9.098999977E0,1.000070067E1
2.276258409E0,4.260000288E-1,4.123950005E0,9.098999977E0,9.999011964E0
2.278221687E0,4.639500082E-1,4.162050247E0,9.060000420E0,9.981058034E0
2.280184890E0,4.260000288E-1,4.162050247E0,9.060000420E0,9.979366006E0
2.282147946E0,4.260000288E-1,4.123950005E0,9.098999977E0,9.999011964E0
2.284111046E0,4.639500082E-1,4.123950005E0,9.098999977E0,1.000070067E1
2.286074434E0,4.639500082E-1,4.123950005E0,9.060000420E0,9.965230597E0
2.288037737E0,4.260000288E-1,4.123950005E0,9.098999977E0,9.999011964E0
2.290000776E0,4.639500082E-1,4.085999966E0,9.022050858E0,9.915041453E0
2.291963892E0,4.639500082E-1,4.123950005E0,9.022050858E0,9.930740905E0
2.293927187E0,3.870000243E-1,4.123950005E0,9.060000420E0,9.961944602E0
2.295890429E0,4.260000288E-1,4.123950005E0,9.022050858E0,9.929040303E0
2.297853614E0,5.410500169E-1,4.123950005E0,9.098999977E0,1.000457392E1
2.299816816E0,4.639500082E-1,4.085999966E0,9.098999977E0,9.985111212E0
2.301779890E0,4.639500082E-1,4.085999966E0,9.098999977E0,9.985111212E0
2.303742988E0,5.410500169E-1,4.047000408E0,9.136950493E0,1.000773759E1
2.305706105E0,5.410500169E-1,4.085999966E0,9.136950493E0,1.002357198E1
2.307669217E0,5.410500169E-1,4.085999966E0,9.175050735E0,1.005831431E1
2.309632648E0,5.410500169E-1,4.047000408E0,9.136950493E0,1.000773759E1
2.311595986E0,5.410500169E-1,4.085999966E0,9.214050293E0,1.009390180E1
2.313558969E0,5.020500422E-1,4.047000408E0,9.098999977E0,9.971061485E0
2.315522060E0,5.020500422E-1,4.047000408E0,9.098999977E0,9.971061485E0
2.317485314E0,5.020500422E-1,4.123950005E0,9.098999977E0,1.000254060E1
2.319448520E0,5.020500422E-1,4.123950005E0,9.060000420E0,9.967077078E0
2.321411215E0,5.020500422E-1,4.085999966E0,9.098999977E0,9.986954018E0
2.323374060E0,4.639500082E-1,4.085999966E0,9.098999977E0,9.985111212E0
2.325337336E0,4.639500082E-1,4.085999966E0,9.022050858E0,9.915041453E0
2.327300500E0,4.260000288E-1,4.123950005E0,9.060000420E0,9.963535882E0
2.329263563E0,4.639500082E-1,4.085999966E0,9.022050858E0,9.915041453E0
2.331226656E0,4.639500082E-1,4.162050247E0,9.022050858E0,9.946623223E0
2.333189909E0,4.260000288E-1,4.123950005E0,9.022050858E0,9.929040303E0
2.335153115E0,4.260000288E-1,4.047000408E0,9.060000420E0,9.931933142E0
2.337116355E0,5.020500422E-1,4.085999966E0,9.022050858E0,9.916897279E0
2.339079582E0,4.639500082E-1,4.123950005E0,8.983950615E0,9.896139747E0
2.341042858E0,4.260000288E-1,4.123950005E0,9.022050858E0,9.929040303E0
2.343006120E0,4.639500082E-1,4.123950005E0,9.022050858E0,9.930740905E0
2.344969706E0,4.639500082E-1,4.162050247E0,9.022050858E0,9.946623223E0
2.346933197E0,4.639500082E-1,4.162050247E0,9.022050858E0,9.946623223E0
2.348896173E0,4.639500082E-1,4.162050247E0,9.022050858E0,9.946623223E0
2.350859290E0,5.020500422E-1,4.162050247E0,9.060000420E0,9.982901588E0
2.352822225E0,5.020500422E-1,4.162050247E0,9.060000420E0,9.982901588E0
2.354785213E0,5.410500169E-1,4.123950005E0,9.060000420E0,9.969117632E0
2.356748125E0,5.020500422E-1,4.162050247E0,9.060000420E0,9.982901588E0
2.358711059E0,4.639500082E-1,4.162050247E0,9.060000420E0,9.981058034E0
2.360674109E0,4.639500082E-1,4.162050247E0,9.022050858E0,9.946623223E0
2.362637129E0,4.639500082E-1,4.162050247E0,9.022050858E0,9.946623223E0
2.364600261E0,4.639500082E-1,4.123950005E0,9.060000420E0,9.965230597E0
2.366563360E0,5.020500422E-1,4.123950005E0,9.022050858E0,9.932593798E0
2.368526794E0,5.020500422E-1,4.123950005E0,9.022050858E0,9.932593798E0
2.370490129E0,5.020500422E-1,4.162050247E0,9.022050858E0,9.948473158E0
2.372453489E0,5.020500422E-1,4.123950005E0,9.022050858E0,9.932593798E0
2.374416865E0,5.410500169E-1,4.085999966E0,9.060000420E0,9.953478711E0
2.376379847E0,5.020500422E-1,4.123950005E0,9.098999977E0,1.000254060E1
2.378342944E0,5.020500422E-1,4.162050247E0,9.060000420E0,9.982901588E0
2.380306422E0,5.020500422E-1,4.123950005E0,9.022050858E0,9.932593798E0
2.382269788E0,5.020500422E-1,4.201050282E0,9.060000420E0,9.999224236E0
2.384232817E0,5.410500169E-1,4.162050247E0,9.098999977E0,1.002033921E1
2.386195944E0,5.020500422E-1,4.162050247E0,9.060000420E0,9.982901588E0
2.388159326E0,5.020500422E-1,4.123950005E0,9.098999977E0,1.000254060E1
2.390122634E0,4.260000288E-1,4.123950005E0,9.060000420E0,9.963535882E0
2.392085718E0,4.260000288E-1,4.201050282E0,8.983950615E0,9.926815609E0
2.394048867E0,4.639500082E-1,4.162050247E0,9.098999977E0,1.001647206E1
2.396012120E0,3.870000243E-1,4.162050247E0,9.060000420E0,9.977777252E0
2.397975336E0,3.870000243E-1,4.201050282E0,9.136950493E0,1.006391856E1
2.399938526E0,3.490500152E-1,4.201050282E0,9.136950493E0,1.006253068E1
2.401901723E0,3.490500152E-1,4.201050282E0,9.060000420E0,9.992710693E0
2.403864824E0,3.870000243E-1,4.201050282E0,9.060000420E0,9.994108269E0
2.405827954E0,3.870000243E-1,4.201050282E0,9.098999977E0,1.002947621E1
2.407790826E0,3.870000243E-1,4.162050247E0,9.098999977E0,1.001320288E1
2.409753785E0,3.870000243E-1,4.201050282E0,9.060000420E0,9.994108269E0
2.411716881E0,3.490500152E-1,4.201050282E0,9.098999977E0,1.002808356E1
2.413679937E0,3.870000243E-1,4.162050247E0,9.098999977E0,1.001320288E1
2.415642974E0,3.490500152E-1,4.162050247E0,9.098999977E0,1.001180797E1
2.417606016E0,3.490500152E-1,4.201050282E0,9.060000420E0,9.992710693E0
2.419569333E0,3.870000243E-1,4.201050282E0,9.060000420E0,9.994108269E0
2.421532562E0,3.870000243E-1,4.162050247E0,9.098999977E0,1.001320288E1
2.423495973E0,3.870000243E-1,4.201050282E0,9.098999977E0,1.002947621E1
2.425459331E0,3.490500152E-1,4.162050247E0,9.098999977E0,1.001180797E1
2.427422677E0,3.870000243E-1,4.162050247E0,9.136950493E0,1.004770101E1
2.429386026E0,3.870000243E-1,4.123950005E0,9.060000420E0,9.961944602E0
2.431349087E0,3.870000243E-1,4.201050282E0,9.098999977E0,1.002947621E1
2.433312242E0,4.260000288E-1,4.123950005E0,9.022050858E0,9.929040303E0
2.435275126E0,4.260000288E-1,4.162050247E0,9.022050858E0,9.944925337E0
2.437238089E0,4.639500082E-1,4.123950005E0,9.022050858E0,9.930740905E0
2.439201364E0,4.260000288E-1,4.162050247E0,9.098999977E0,1.001478601E1
2.441164548E0,4.260000288E-1,4.123950005E0,9.060000420E0,9.963535882E0
2.443127529E0,4.639500082E-1,4.123950005E0,8.983950615E0,9.896139747E0
2.445090593E0,4.260000288E-1,4.162050247E0,9.060000420E0,9.979366006E0
2.447053671E0,4.260000288E-1,4.123950005E0,9.022050858E0,9.929040303E0
2.449016745E0,4.639500082E-1,4.123950005E0,8.983950615E0,9.896139747E0
2.450979823E0,3.870000243E-1,4.162050247E0,8.983950615E0,9.908773886E0
2.452942899E0,3.870000243E-1,4.162050247E0,8.944950104E0,9.873427148E0
2.454906337E0,4.260000288E-1,4.162050247E0,8.983950615E0,9.910373703E0
2.456869668E0,3.870000243E-1,4.162050247E0,8.944950104E0,9.873427148E0
2.458833107E0,4.260000288E-1,4.162050247E0,8.983950615E0,9.910373703E0
2.460796514E0,4.260000288E-1,4.123950005E0,9.022050858E0,9.929040303E0
2.462759535E0,4.639500082E-1,4.162050247E0,8.983950615E0,9.912077508E0
2.464722670E0,4.260000288E-1,4.162050247E0,9.022050858E0,9.944925337E0
2.466685916E0,4.639500082E-1,4.123950005E0,8.983950615E0,9.896139747E0
2.468649130E0,4.260000288E-1,4.123950005E0,9.022050858E0,9.929040303E0
2.470612363E0,4.260000288E-1,4.085999966E0,9.022050858E0,9.913338157E0
2.472575591E0,4.260000288E-1,4.162050247E0,9.022050858E0,9.944925337E0
2.474538598E0,4.260000288E-1,4.123950005E0,9.022050858E0,9.929040303E0
2.476501670E0,4.639500082E-1,4.085999966E0,9.022050858E0,9.915041453E0
2.478464977E0,4.260000288E-1,4.123950005E0,9.022050858E0,9.929040303E0
2.480428212E0,3.870000243E-1,4.047000408E0,8.983950615E0,9.861001469E0
2.482391217E0,4.639500082E-1,4.085999966E0,8.983950615E0,9.880385315E0
2.484354290E0,4.260000288E-1,4.123950005E0,9.022050858E0,9.929040303E0
2.486317727E0,3.870000243E-1,4.085999966E0,9.022050858E0,9.911738819E0
2.488281058E0,4.260000288E-1,4.123950005E0,8.983950615E0,9.894433198E0
2.490244093E0,4.260000288E-1,4.123950005E0,8.983950615E0,9.894433198E0
2.492207214E0,4.260000288E-1,4.123950005E0,9.022050858E0,9.929040303E0
2.494170328E0,4.260000288E-1,4.085999966E0,9.022050858E0,9.913338157E0
2.496133444E0,4.260000288E-1,4.123950005E0,9.060000420E0,9.963535882E0
2.498096829E0,4.639500082E-1,4.085999966E0,9.098999977E0,9.985111212E0
2.500060135E0,4.639500082E-1,4.123950005E0,9.060000420E0,9.965230597E0
2.502023597E0,4.260000288E-1,4.123950005E0,9.060000420E0,9.963535882E0
2.503987000E0,4.639500082E-1,4.123950005E0,9.060000420E0,9.965230597E0
2.505950517E0,5.020500422E-1,4.047000408E0,9.060000420E0,9.935485602E0
2.507914000E0,4.639500082E-1,4.085999966E0,9.060000420E0,9.949585566E0
2.509877188E0,4.639500082E-1,4.123950005E0,9.060000420E0,9.965230597E0
2.511840463E0,5.020500422E-1,4.085999966E0,9.060000420E0,9.951434950E0
2.513803920E0,4.639500082E-1,4.085999966E0,9.060000420E0,9.949585566E0
2.515767317E0,5.020500422E-1,4.047000408E0,9.060000420E0,9.935485602E0
2.517730294E0,5.020500422E-1,4.123950005E0,9.060000420E0,9.967077078E0
2.519693395E0,5.410500169E-1,4.123950005E0,9.098999977E0,1.000457392E1
2.521655972E0,4.260000288E-1,4.047000408E0,9.098999977E0,9.967521704E0
2.523618703E0,5.020500422E-1,4.123950005E0,9.098999977E0,1.000254060E1
2.525582153E0,5.790000558E-1,4.123950005E0,9.175050735E0,1.007589999E1
2.527545393E0,5.020500422E-1,4.085999966E0,9.098999977E0,9.986954018E0
2.529508624E0,5.020500422E-1,4.123950005E0,9.136950493E0,1.003707538E1
2.531471857E0,4.639500082E-1,4.085999966E0,9.136950493E0,1.001970607E1
2.533435132E0,4.639500082E-1,4.123950005E0,9.098999977E0,1.000070067E1
2.535398394E0,4.639500082E-1,4.162050247E0,9.136950493E0,1.005095897E1
2.537361167E0,4.639500082E-1,4.123950005E0,9.098999977E0,1.000070067E1
2.539324117E0,5.020500422E-1,4.123950005E0,9.136950493E0,1.003707538E1
2.541287215E0,5.020500422E-1,4.123950005E0,9.136950493E0,1.003707538E1
2.543250269E0,4.639500082E-1,4.085999966E0,9.136950493E0,1.001970607E1
2.545213349E0,5.020500422E-1,4.085999966E0,9.098999977E0,9.986954018E0
2.547176422E0,5.410500169E-1,4.162050247E0,9.098999977E0,1.002033921E1
2.549139371E0,5.410500169E-1,4.162050247E0,9.098999977E0,1.002033921E1
2.551102353E0,4.639500082E-1,4.123950005E0,9.136950493E0,1.003524178E1
2.553065580E0,5.410500169E-1,4.162050247E0,9.098999977E0,1.002033921E1
2.555028735E0,5.410500169E-1,4.162050247E0,9.136950493E0,1.005481286E1
2.556992159E0,4.639500082E-1,4.123950005E0,9.060000420E0,9.965230597E0
2.558955504E0,4.639500082E-1,4.123950005E0,9.136950493E0,1.003524178E1
2.560918722E0,5.410500169E-1,4.123950005E0,9.060000420E0,9.969117632E0
2.562881973E0,4.639500082E-1,4.123950005E0,9.098999977E0,1.000070067E1
2.564845065E0,5.410500169E-1,4.123950005E0,9.060000420E0,9.969117632E0
2.566808204E0,4.639500082E-1,4.123950005E0,9.098999977E0,1.000070067E1
2.568771584E0,4.639500082E-1,4.162050247E0,9.060000420E0,9.981058034E0
2.570734894E0,4.260000288E-1,4.123950005E0,9.060000420E0,9.963535882E0
2.572698089E0,5.020500422E-1,4.123950005E0,9.098999977E0,1.000254060E1
2.574661334E0,5.020500422E-1,4.162050247E0,9.060000420E0,9.982901588E0
2.576624562E0,5.410500169E-1,4.123950005E0,9.098999977E0,1.000457392E1
2.578587795E0,5.020500422E-1,4.162050247E0,9.098999977E0,1.001830909E1
2.580550665E0,5.020500422E-1,4.123950005E0,9.022050858E0,9.932593798E0
2.582513641E0,4.639500082E-1,4.162050247E0,9.060000420E0,9.981058034E0
2.584476915E0,5.020500422E-1,4.123950005E0,9.060000420E0,9.967077078E0
2.586440101E0,5.020500422E-1,4.162050247E0,9.098999977E0,1.001830909E1
2.588403025E0,4.260000288E-1,4.123950005E0,9.098999977E0,9.999011964E0
2.590366026E0,4.639500082E-1,4.085999966E0,9.060000420E0,9.949585566E0
2.592329475E0,4.639500082E-1,4.123950005E0,9.060000420E0,9.965230597E0
2.594292793E0,5.020500422E-1,4.162050247E0,9.060000420E0,9.982901588E0
2.596255970E0,5.020500422E-1,4.123950005E0,9.022050858E0,9.932593798E0
2.598219185E0,5.020500422E-1,4.123950005E0,9.060000420E0,9.967077078E0
2.600182417E0,5.020500422E-1,4.162050247E0,9.060000420E0,9.982901588E0
2.602145644E0,4.260000288E-1,4.123950005E0,9.098999977E0,9.999011964E0
2.604108921E0,4.639500082E-1,4.123950005E0,9.060000420E0,9.965230597E0
2.606072183E0,4.639500082E-1,4.123950005E0,9.098999977E0,1.000070067E1
2.608035528E0,4.639500082E-1,4.123950005E0,9.098999977E0,1.000070067E1
2.609998860E0,5.410500169E-1,4.201050282E0,9.098999977E0,1.003660098E1
2.611962120E0,5.020500422E-1,4.162050247E0,9.060000420E0,9.982901588E0
2.613925401E0,4.639500082E-1,4.162050247E0,9.060000420E0,9.981058034E0
2.615888262E0,5.020500422E-1,4.123950005E0,9.098999977E0,1.000254060E1
2.617851247E0,4.639500082E-1,4.162050247E0,9.060000420E0,9.981058034E0
2.619814514E0,5.020500422E-1,4.123950005E0,9.098999977E0,1.000254060E1
2.621777701E0,5.410500169E-1,4.162050247E0,9.060000420E0,9.984938907E0
2.623740895E0,5.020500422E-1,4.123950005E0,9.060000420E0,9.967077078E0
2.625704086E0,4.639500082E-1,4.123950005E0,9.060000420E0,9.965230597E0
2.627667368E0,4.639500082E-1,4.123950005E0,9.060000420E0,9.965230597E0
2.629630624E0,5.020500422E-1,4.123950005E0,9.060000420E0,9.967077078E0
2.631593695E0,4.639500082E-1,4.162050247E0,9.060000420E0,9.981058034E0
2.633556804E0,4.639500082E-1,4.162050247E0,9.098999977E0,1.001647206E1
2.635519830E0,4.639500082E-1,4.162050247E0,9.022050858E0,9.946623223E0
2.637482881E0,4.639500082E-1,4.162050247E0,9.022050858E0,9.946623223E0
2.639446322E0,4.639500082E-1,4.123950005E0,9.022050858E0,9.930740905E0
2.641409648E0,4.639500082E-1,4.162050247E0,9.060000420E0,9.981058034E0
2.643372914E0,4.639500082E-1,4.162050247E0,9.060000420E0,9.981058034E0
2.645336194E0,4.260000288E-1,4.162050247E0,9.022050858E0,9.944925337E0
2.647299550E0,3.870000243E-1,4.201050282E0,9.022050858E0,9.959718578E0
2.649262884E0,4.639500082E-1,4.201050282E0,8.983950615E0,9.928516593E0
2.651226277E0,4.260000288E-1,4.162050247E0,8.983950615E0,9.910373703E0
2.653189653E0,4.639500082E-1,4.162050247E0,8.983950615E0,9.912077508E0
2.655152850E0,4.260000288E-1,4.162050247E0,8.983950615E0,9.910373703E0
2.657116107E0,4.260000288E-1,4.162050247E0,9.022050858E0,9.944925337E0
2.659079333E0,3.870000243E-1,4.162050247E0,9.022050858E0,9.943331079E0
2.661042569E0,4.260000288E-1,4.201050282E0,8.983950615E0,9.926815609E0
2.663006023E0,3.490500152E-1,4.201050282E0,9.022050858E0,9.958316176E0
2.664969413E0,3.870000243E-1,4.162050247E0,8.983950615E0,9.908773886E0
2.666932763E0,4.260000288E-1,4.162050247E0,8.983950615E0,9.910373703E0
2.668896117E0,4.260000288E-1,4.201050282E0,8.983950615E0,9.926815609E0
2.670859327E0,3.870000243E-1,4.162050247E0,8.983950615E0,9.908773886E0
2.672822579E0,4.260000288E-1,4.201050282E0,8.983950615E0,9.926815609E0
2.674785670E0,3.870000243E-1,4.162050247E0,8.983950615E0,9.908773886E0
2.676748809E0,3.870000243E-1,4.201050282E0,9.022050858E0,9.959718578E0
2.678712204E0,3.870000243E-1,4.201050282E0,9.022050858E0,9.959718578E0
2.680675514E0,3.870000243E-1,4.201050282E0,9.022050858E0,9.959718578E0
2.682638732E0,4.260000288E-1,4.162050247E0,9.060000420E0,9.979366006E0
2.684601977E0,4.260000288E-1,4.162050247E0,9.098999977E0,1.001478601E1
2.686565384E0,3.490500152E-1,4.162050247E0,9.098999977E0,1.001180797E1
2.688528744E0,3.870000243E-1,4.162050247E0,9.022050858E0,9.943331079E0
2.690491805E0,3.870000243E-1,4.201050282E0,9.098999977E0,1.002947621E1
2.692454963E0,3.870000243E-1,4.162050247E0,9.098999977E0,1.001320288E1
2.694418160E0,3.870000243E-1,4.201050282E0,9.098999977E0,1.002947621E1
2.696381346E0,4.260000288E-1,4.162050247E0,9.098999977E0,1.001478601E1
2.698344810E0,4.260000288E-1,4.162050247E0,9.022050858E0,9.944925337E0
2.700308192E0,3.870000243E-1,4.201050282E0,9.060000420E0,9.994108269E0
2.702271398E0,4.260000288E-1,4.201050282E0,9.022050858E0,9.961310213E0
2.704234656E0,4.260000288E-1,4.201050282E0,9.022050858E0,9.961310213E0
2.706197837E0,4.260000288E-1,4.162050247E0,9.022050858E0,9.944925337E0
2.708161040E0,4.639500082E-1,4.162050247E0,9.022050858E0,9.946623223E0
2.710124095E0,4.260000288E-1,4.201050282E0,9.098999977E0,1.003105678E1
2.712087194E0,4.260000288E-1,4.201050282E0,9.098999977E0,1.003105678E1
2.714050132E0,4.639500082E-1,4.201050282E0,9.098999977E0,1.003274009E1
2.716013117E0,4.260000288E-1,4.201050282E0,9.098999977E0,1.003105678E1
2.717975984E0,4.639500082E-1,4.123950005E0,9.136950493E0,1.003524178E1
2.719938886E0,4.260000288E-1,4.162050247E0,9.098999977E0,1.001478601E1
2.721901992E0,5.020500422E-1,4.162050247E0,9.136950493E0,1.005278970E1
2.723865038E0,4.260000288E-1,4.162050247E0,9.136950493E0,1.004927871E1
2.725828199E0,4.639500082E-1,4.162050247E0,9.098999977E0,1.001647206E1
2.727791302E0,4.260000288E-1,4.201050282E0,9.098999977E0,1.003105678E1
2.729754690E0,4.260000288E-1,4.239000320E0,9.098999977E0,1.004700952E1
2.731717994E0,4.260000288E-1,4.123950005E0,9.060000420E0,9.963535882E0
2.733681393E0,4.260000288E-1,4.085999966E0,9.098999977E0,9.983419871E0
2.735644764E0,5.410500169E-1,4.162050247E0,9.098999977E0,1.002033921E1
2.737608180E0,4.639500082E-1,4.162050247E0,9.060000420E0,9.981058034E0
2.739571562E0,5.020500422E-1,4.162050247E0,9.022050858E0,9.948473158E0
2.741534633E0,4.639500082E-1,4.162050247E0,9.060000420E0,9.981058034E0
2.743497795E0,5.020500422E-1,4.123950005E0,9.098999977E0,1.000254060E1
2.745461171E0,5.020500422E-1,4.123950005E0,9.060000420E0,9.967077078E0
2.747424485E0,5.020500422E-1,4.123950005E0,9.098999977E0,1.000254060E1
2.749387587E0,5.410500169E-1,4.085999966E0,9.098999977E0,9.988990511E0
2.751350737E0,5.020500422E-1,4.123950005E0,9.060000420E0,9.967077078E0
2.753314296E0,4.639500082E-1,4.123950005E0,9.098999977E0,1.000070067E1
2.755277735E0,5.410500169E-1,4.162050247E0,9.060000420E0,9.984938907E0
2.757240210E0,5.410500169E-1,4.123950005E0,9.098999977E0,1.000457392E1
2.759202968E0,5.020500422E-1,4.162050247E0,9.060000420E0,9.982901588E0
2.761166708E0,5.790000558E-1,4.123950005E0,9.022050858E0,9.936780484E0
2.763130143E0,5.790000558E-1,4.123950005E0,9.022050858E0,9.936780484E0
2.765092259E0,5.410500169E-1,4.085999966E0,8.983950615E0,9.884305716E0
2.767054761E0,5.410500169E-1,4.123950005E0,9.060000420E0,9.969117632E0
2.769018251E0,5.410500169E-1,4.085999966E0,8.944950104E0,9.848871164E0
2.770981451E0,5.410500169E-1,4.085999966E0,9.022050858E0,9.918948156E0
2.772944549E0,5.020500422E-1,4.085999966E0,9.022050858E0,9.916897279E0
2.774907680E0,5.020500422E-1,4.123950005E0,8.983950615E0,9.897999118E0
2.776870926E0,4.639500082E-1,4.123950005E0,8.983950615E0,9.896139747E0
2.778834139E0,4.639500082E-1,4.123950005E0,8.983950615E0,9.896139747E0
2.780797329E0,4.260000288E-1,4.162050247E0,8.983950615E0,9.910373703E0
2.782760526E0,5.020500422E-1,4.162050247E0,8.983950615E0,9.913933889E0
2.784723569E0,4.639500082E-1,4.123950005E0,9.022050858E0,9.930740905E0
2.786686699E0,4.639500082E-1,4.162050247E0,9.022050858E0,9.946623223E0
2.788649767E0,3.870000243E-1,4.162050247E0,8.983950615E0,9.908773886E0
2.790612853E0,3.490500152E-1,4.201050282E0,8.944950104E0,9.888518177E0
2.792575928E0,3.870000243E-1,4.162050247E0,8.944950104E0,9.873427148E0
2.794539007E0,4.260000288E-1,4.162050247E0,8.983950615E0,9.910373703E0
2.796502092E0,4.260000288E-1,4.201050282E0,9.022050858E0,9.961310213E0
2.798465169E0,3.870000243E-1,4.162050247E0,8.944950104E0,9.873427148E0
2.800428561E0,4.639500082E-1,4.162050247E0,8.944950104E0,9.876742592E0
2.802391860E0,4.639500082E-1,4.162050247E0,8.944950104E0,9.876742592E0
2.804355125E0,5.020500422E-1,4.201050282E0,8.944950104E0,9.895100306E0
2.806318400E0,5.020500422E-1,4.201050282E0,8.944950104E0,9.895100306E0
2.808281559E0,4.260000288E-1,4.162050247E0,8.944950104E0,9.875032691E0
2.810244766E0,4.260000288E-1,4.123950005E0,8.944950104E0,9.859035045E0
2.812207866E0,5.020500422E-1,4.162050247E0,8.869050026E0,9.809931950E0
2.814170997E0,5.020500422E-1,4.123950005E0,8.907000542E0,9.828208206E0
2.816134064E0,5.020500422E-1,4.162050247E0,8.907000542E0,9.844255947E0
2.818097150E0,4.260000288E-1,4.123950005E0,8.869050026E0,9.790224105E0
2.820060220E0,5.020500422E-1,4.123950005E0,8.869050026E0,9.793827967E0
2.822023299E0,4.639500082E-1,4.085999966E0,8.869050026E0,9.776026478E0
2.823986555E0,5.020500422E-1,4.085999966E0,8.944950104E0,9.846805691E0
2.825949759E0,5.020500422E-1,4.123950005E0,8.983950615E0,9.897999118E0
2.827912815E0,5.410500169E-1,4.123950005E0,8.983950615E0,9.900053910E0
2.829875915E0,5.020500422E-1,4.085999966E0,8.983950615E0,9.882247650E0
2.831839163E0,4.260000288E-1,4.123950005E0,9.022050858E0,9.929040303E0
2.833802370E0,5.020500422E-1,4.123950005E0,9.022050858E0,9.932593798E0
2.835765920E0,5.020500422E-1,4.123950005E0,8.983950615E0,9.897999118E0
2.837729370E0,4.639500082E-1,4.162050247E0,9.060000420E0,9.981058034E0
2.839692744E0,5.410500169E-1,4.162050247E0,9.022050858E0,9.950517527E0
2.841656141E0,5.410500169E-1,4.162050247E0,9.060000420E0,9.984938907E0
2.843619158E0,5.020500422E-1,4.162050247E0,9.022050858E0,9.948473158E0
2.845582290E0,5.020500422E-1,4.162050247E0,9.060000420E0,9.982901588E0
2.847545717E0,5.020500422E-1,4.123950005E0,9.060000420E0,9.967077078E0
2.849509058E0,5.020500422E-1,4.123950005E0,9.098999977E0,1.000254060E1
2.851472271E0,5.020500422E-1,4.123950005E0,9.136950493E0,1.003707538E1
2.853435521E0,4.639500082E-1,4.162050247E0,9.060000420E0,9.981058034E0
2.855398954E0,4.639500082E-1,4.162050247E0,9.060000420E0,9.981058034E0
2.857362346E0,4.260000288E-1,4.201050282E0,9.098999977E0,1.003105678E1
2.859326045E0,5.790000558E-1,4.162050247E0,9.060000420E0,9.987067184E0
2.861289654E0,5.410500169E-1,4.162050247E0,9.060000420E0,9.984938907E0
2.863252686E0,5.020500422E-1,4.162050247E0,9.098999977E0,1.001830909E1
2.865215887E0,4.639500082E-1,4.162050247E0,9.060000420E0,9.981058034E0
2.867179101E0,5.020500422E-1,4.162050247E0,9.098999977E0,1.001830909E1
2.869142326E0,4.639500082E-1,4.201050282E0,9.136950493E0,1.006717127E1
2.871105739E0,4.639500082E-1,4.201050282E0,9.136950493E0,1.006717127E1
2.873069096E0,4.260000288E-1,4.201050282E0,9.098999977E0,1.003105678E1
2.875032125E0,4.639500082E-1,4.201050282E0,9.175050735E0,1.010176366E1
2.876995251E0,4.260000288E-1,4.201050282E0,9.136950493E0,1.006549372E1
2.878958509E0,4.260000288E-1,4.239000320E0,9.136950493E0,1.008139197E1
2.880921721E0,3.870000243E-1,4.162050247E0,9.175050735E0,1.008236020E1
2.882884776E0,3.870000243E-1,4.201050282E0,9.175050735E0,1.009852209E1
2.884847877E0,3.870000243E-1,4.162050247E0,9.136950493E0,1.004770101E1
2.886811084E0,4.260000288E-1,4.201050282E0,9.136950493E0,1.006549372E1
2.888774259E0,3.870000243E-1,4.162050247E0,9.136950493E0,1.004770101E1
2.890737700E0,4.260000288E-1,4.201050282E0,9.175050735E0,1.010009186E1
2.892701049E0,4.260000288E-1,4.201050282E0,9.136950493E0,1.006549372E1
2.894664620E0,4.639500082E-1,4.123950005E0,9.098999977E0,1.000070067E1
2.896628126E0,4.639500082E-1,4.162050247E0,9.136950493E0,1.005095897E1
2.898591355E0,4.639500082E-1,4.201050282E0,9.136950493E0,1.006717127E1
2.900554666E0,4.260000288E-1,4.162050247E0,9.136950493E0,1.004927871E1
2.902517867E0,4.260000288E-1,4.162050247E0,9.098999977E0,1.001478601E1
2.904481080E0,4.639500082E-1,4.162050247E0,9.060000420E0,9.981058034E0
2.906444312E0,4.260000288E-1,4.085999966E0,9.098999977E0,9.983419871E0
2.908407539E0,4.260000288E-1,4.123950005E0,9.098999977E0,9.999011964E0
2.910370636E0,4.260000288E-1,4.123950005E0,9.098999977E0,9.999011964E0
2.912333772E0,4.260000288E-1,4.123950005E0,9.136950493E0,1.003355889E1
2.914296839E0,4.260000288E-1,4.085999966E0,9.136950493E0,1.001802057E1
2.916259926E0,4.639500082E-1,4.123950005E0,9.098999977E0,1.000070067E1
2.918223136E0,3.870000243E-1,4.085999966E0,9.060000420E0,9.946294403E0
2.920186309E0,4.260000288E-1,4.123950005E0,9.060000420E0,9.963535882E0
2.922149775E0,4.260000288E-1,4.123950005E0,9.098999977E0,9.999011964E0
2.924113155E0,4.639500082E-1,4.162050247E0,9.098999977E0,1.001647206E1
2.926076841E0,4.260000288E-1,4.162050247E0,9.098999977E0,1.001478601E1
2.928040447E0,4.260000288E-1,4.123950005E0,9.060000420E0,9.963535882E0
2.930003795E0,5.020500422E-1,4.123950005E0,9.098999977E0,1.000254060E1
2.931967219E0,4.639500082E-1,4.123950005E0,9.136950493E0,1.003524178E1
2.933930956E0,4.260000288E-1,4.123950005E0,9.060000420E0,9.963535882E0
2.935894601E0,5.020500422E-1,4.162050247E0,9.060000420E0,9.982901588E0
2.937857983E0,4.639500082E-1,4.162050247E0,9.098999977E0,1.001647206E1
2.939821445E0,4.639500082E-1,4.162050247E0,9.098999977E0,1.001647206E1
2.941785176E0,4.639500082E-1,4.162050247E0,9.060000420E0,9.981058034E0
2.943748828E0,4.639500082E-1,4.123950005E0,9.060000420E0,9.965230597E0
2.945712168E0,4.639500082E-1,4.162050247E0,9.022050858E0,9.946623223E0
2.947675599E0,4.639500082E-1,4.201050282E0,9.060000420E0,9.997383692E0
2.949638791E0,5.020500422E-1,4.123950005E0,9.022050858E0,9.932593798E0
2.951602056E0,5.020500422E-1,4.123950005E0,9.022050858E0,9.932593798E0
2.953565595E0,5.020500422E-1,4.162050247E0,8.983950615E0,9.913933889E0
2.955529054E0,5.020500422E-1,4.123950005E0,8.983950615E0,9.897999118E0
2.957492427E0,5.410500169E-1,4.162050247E0,8.983950615E0,9.915985379E0
2.959455825E0,5.020500422E-1,4.123950005E0,9.022050858E0,9.932593798E0
2.961419241E0,5.410500169E-1,4.201050282E0,9.060000420E0,1.000125823E1
2.963382659E0,5.020500422E-1,4.162050247E0,9.022050858E0,9.948473158E0
2.965345633E0,5.020500422E-1,4.162050247E0,9.022050858E0,9.948473158E0
2.967308738E0,4.639500082E-1,4.162050247E0,8.944950104E0,9.876742592E0
2.969271990E0,4.639500082E-1,4.123950005E0,8.983950615E0,9.896139747E0
2.971235198E0,4.639500082E-1,4.162050247E0,8.944950104E0,9.876742592E0
2.973198666E0,4.639500082E-1,4.162050247E0,8.944950104E0,9.876742592E0
2.975162020E0,5.020500422E-1,4.162050247E0,8.983950615E0,9.913933889E0
2.977125276E0,4.260000288E-1,4.123950005E0,9.022050858E0,9.929040303E0
2.979088560E0,4.639500082E-1,4.201050282E0,9.022050858E0,9.963005307E0
2.981052817E0,4.639500082E-1,4.162050247E0,9.022050858E0,9.946623223E0
2.983016789E0,5.410500169E-1,4.162050247E0,8.983950615E0,9.915985379E0
2.984979163E0,5.020500422E-1,4.201050282E0,9.060000420E0,9.999224236E0
2.986942012E0,5.020500422E-1,4.201050282E0,9.022050858E0,9.964852201E0
2.988906028E0,5.020500422E-1,4.201050282E0,9.060000420E0,9.999224236E0
2.990869702E0,5.410500169E-1,4.123950005E0,9.136950493E0,1.003910171E1
2.992832317E0,5.410500169E-1,4.162050247E0,9.060000420E0,9.984938907E0
2.994795243E0,4.260000288E-1,4.123950005E0,9.060000420E0,9.963535882E0
2.996758970E0,5.410500169E-1,4.162050247E0,9.060000420E0,9.984938907E0
2.998722434E0,5.410500169E-1,4.162050247E0,9.022050858E0,9.950517527E0
3.000685940E0,5.410500169E-1,4.123950005E0,9.060000420E0,9.969117632E0
3.002649434E0,5.410500169E-1,4.123950005E0,9.060000420E0,9.969117632E0
3.004612980E0,5.410500169E-1,4.123950005E0,9.060000420E0,9.969117632E0
3.006576511E0,5.410500169E-1,4.123950005E0,9.060000420E0,9.969117632E0
3.008540290E0,5.790000558E-1,4.162050247E0,9.060000420E0,9.987067184E0
3.010503986E0,5.410500169E-1,4.123950005E0,9.060000420E0,9.969117632E0
3.012467634E0,5.020500422E-1,4.162050247E0,9.098999977E0,1.001830909E1
3.014431296E0,5.410500169E-1,4.123950005E0,9.022050858E0,9.934641435E0
3.016393777E0,5.020500422E-1,4.162050247E0,9.022050858E0,9.948473158E0
3.018356604E0,4.639500082E-1,4.162050247E0,9.022050858E0,9.946623223E0
3.020320073E0,5.410500169E-1,4.162050247E0,9.022050858E0,9.950517527E0
3.022283361E0,5.020500422E-1,4.123950005E0,9.060000420E0,9.967077078E0
3.024246717E0,5.410500169E-1,4.123950005E0,8.983950615E0,9.900053910E0
3.026210053E0,5.020500422E-1,4.201050282E0,8.983950615E0,9.930369901E0
3.028173312E0,5.410500169E-1,4.162050247E0,9.022050858E0,9.950517527E0
3.030136594E0,5.410500169E-1,4.162050247E0,8.983950615E0,9.915985379E0
3.032099989E0,5.020500422E-1,4.123950005E0,9.022050858E0,9.932593798E0
3.034063323E0,5.020500422E-1,4.123950005E0,9.060000420E0,9.967077078E0
3.036026537E0,5.790000558E-1,4.162050247E0,8.983950615E0,9.918128451E0
3.037989786E0,5.410500169E-1,4.162050247E0,8.983950615E0,9.915985379E0
3.039953058E0,5.020500422E-1,4.162050247E0,9.022050858E0,9.948473158E0
3.041916323E0,5.020500422E-1,4.162050247E0,9.022050858E0,9.948473158E0
3.043879309E0,5.410500169E-1,4.085999966E0,9.060000420E0,9.953478711E0
3.045842387E0,5.020500422E-1,4.162050247E0,9.060000420E0,9.982901588E0
3.047805464E0,4.260000288E-1,4.123950005E0,9.060000420E0,9.963535882E0
3.049768541E0,4.639500082E-1,4.123950005E0,9.022050858E0,9.930740905E0
3.051731842E0,5.020500422E-1,4.162050247E0,9.060000420E0,9.982901588E0
3.053695077E0,5.020500422E-1,4.201050282E0,9.022050858E0,9.964852201E0
3.055658254E0,5.020500422E-1,4.123950005E0,9.022050858E0,9.932593798E0
3.057621455E0,4.639500082E-1,4.123950005E0,9.060000420E0,9.965230597E0
3.059584735E0,5.020500422E-1,4.162050247E0,9.022050858E0,9.948473158E0
3.061547991E0,4.639500082E-1,4.123950005E0,9.060000420E0,9.965230597E0
3.063511038E0,4.639500082E-1,4.123950005E0,9.060000420E0,9.965230597E0
3.065474147E0,4.260000288E-1,4.123950005E0,9.060000420E0,9.963535882E0
3.067437353E0,5.020500422E-1,4.123950005E0,9.098999977E0,1.000254060E1
3.069400530E0,5.020500422E-1,4.123950005E0,9.136950493E0,1.003707538E1
3.071364356E0,5.020500422E-1,4.085999966E0,9.098999977E0,9.986954018E0
3.073327991E0,5.790000558E-1,4.123950005E0,9.098999977E0,1.000669802E1
3.075290568E0,4.639500082E-1,4.085999966E0,9.136950493E0,1.001970607E1
3.077253455E0,5.020500422E-1,4.085999966E0,9.098999977E0,9.986954018E0
3.079216588E0,5.020500422E-1,4.085999966E0,9.136950493E0,1.002154251E1
3.081179663E0,5.020500422E-1,4.085999966E0,9.136950493E0,1.002154251E1
3.083142920E0,5.020500422E-1,4.085999966E0,9.136950493E0,1.002154251E1
3.085106124E0,5.020500422E-1,4.085999966E0,9.136950493E0,1.002154251E1
3.087069135E0,4.639500082E-1,4.123950005E0,9.136950493E0,1.003524178E1
3.089032203E0,5.020500422E-1,4.047000408E0,9.060000420E0,9.935485602E0
3.090995293E0,3.870000243E-1,4.123950005E0,9.136950493E0,1.003197872E1
3.092958399E0,5.020500422E-1,4.123950005E0,9.136950493E0,1.003707538E1
3.094921292E0,4.260000288E-1,4.085999966E0,9.060000420E0,9.947888185E0
3.096884247E0,4.639500082E-1,4.162050247E0,9.136950493E0,1.005095897E1
3.098847164E0,4.260000288E-1,4.162050247E0,9.098999977E0,1.001478601E1
3.100810093E0,4.260000288E-1,4.085999966E0,9.098999977E0,9.983419871E0
3.102773311E0,4.260000288E-1,4.162050247E0,9.022050858E0,9.944925337E0
3.104736457E0,4.639500082E-1,4.123950005E0,9.022050858E0,9.930740905E0
3.106699883E0,4.639500082E-1,4.162050247E0,9.022050858E0,9.946623223E0
3.108663226E0,4.260000288E-1,4.201050282E0,8.983950615E0,9.926815609E0
3.110626439E0,5.020500422E-1,4.162050247E0,9.022050858E0,9.948473158E0
3.112589690E0,4.639500082E-1,4.123950005E0,8.983950615E0,9.896139747E0
3.114552936E0,4.260000288E-1,4.162050247E0,8.983950615E0,9.910373703E0
3.116516170E0,4.260000288E-1,4.162050247E0,8.983950615E0,9.910373703E0
3.118479624E0,4.260000288E-1,4.201050282E0,8.983950615E0,9.926815609E0
3.120443014E0,4.260000288E-1,4.201050282E0,8.944950104E0,9.891533342E0
3.122405993E0,5.020500422E-1,4.201050282E0,8.983950615E0,9.930369901E0
3.124369093E0,4.639500082E-1,4.162050247E0,8.983950615E0,9.912077508E0
3.126332345E0,4.639500082E-1,4.201050282E0,9.022050858E0,9.963005307E0
3.128295553E0,4.260000288E-1,4.201050282E0,8.983950615E0,9.926815609E0
3.130258787E0,4.639500082E-1,4.162050247E0,9.022050858E0,9.946623223E0
3.132222014E0,5.020500422E-1,4.201050282E0,9.022050858E0,9.964852201E0
3.134184931E0,4.260000288E-1,4.201050282E0,9.022050858E0,9.961310213E0
3.136147939E0,4.639500082E-1,4.201050282E0,8.983950615E0,9.928516593E0
3.138111192E0,4.639500082E-1,4.162050247E0,8.983950615E0,9.912077508E0
3.140074384E0,5.410500169E-1,4.201050282E0,8.983950615E0,9.932417996E0
3.142037577E0,5.020500422E-1,4.201050282E0,9.022050858E0,9.964852201E0
3.144000769E0,4.639500082E-1,4.201050282E0,8.983950615E0,9.928516593E0
3.145964006E0,4.639500082E-1,4.201050282E0,8.983950615E0,9.928516593E0
3.147927230E0,5.020500422E-1,4.201050282E0,9.022050858E0,9.964852201E0
3.149890298E0,5.020500422E-1,4.201050282E0,8.983950615E0,9.930369901E0
3.151853401E0,5.020500422E-1,4.201050282E0,8.983950615E0,9.930369901E0
3.153816833E0,4.639500082E-1,4.162050247E0,8.944950104E0,9.876742592E0
3.155780168E0,5.020500422E-1,4.201050282E0,8.944950104E0,9.895100306E0
3.157743561E0,4.639500082E-1,4.201050282E0,9.022050858E0,9.963005307E0
3.159706937E0,5.020500422E-1,4.162050247E0,8.907000542E0,9.844255947E0
3.161670172E0,5.020500422E-1,4.162050247E0,8.983950615E0,9.913933889E0
3.163633429E0,4.260000288E-1,4.239000320E0,8.944950104E0,9.907710740E0
3.165596879E0,4.639500082E-1,4.201050282E0,8.983950615E0,9.928516593E0
3.167560273E0,4.639500082E-1,4.201050282E0,9.022050858E0,9.963005307E0
3.169523657E0,4.260000288E-1,4.201050282E0,9.060000420E0,9.995694428E0
3.171487044E0,3.870000243E-1,4.201050282E0,8.983950615E0,9.925218443E0
3.173450767E0,3.870000243E-1,4.239000320E0,8.944950104E0,9.906110493E0
3.175414374E0,3.870000243E-1,4.201050282E0,9.060000420E0,9.994108269E0
3.177377721E0,3.870000243E-1,4.201050282E0,9.022050858E0,9.959718578E0
3.179341145E0,4.260000288E-1,4.162050247E0,9.022050858E0,9.944925337E0
3.181304207E0,3.870000243E-1,4.239000320E0,9.060000420E0,1.001011990E1
3.183267376E0,3.870000243E-1,4.239000320E0,9.060000420E0,1.001011990E1
3.185230928E0,3.490500152E-1,4.201050282E0,9.022050858E0,9.958316176E0
3.187194370E0,3.870000243E-1,4.239000320E0,9.060000420E0,1.001011990E1
3.189157611E0,3.870000243E-1,4.201050282E0,9.060000420E0,9.994108269E0
3.191120911E0,3.490500152E-1,4.162050247E0,9.022050858E0,9.941926365E0
3.193084444E0,3.870000243E-1,4.201050282E0,9.098999977E0,1.002947621E1
3.195047909E0,3.870000243E-1,4.201050282E0,9.060000420E0,9.994108269E0
3.197010905E0,3.490500152E-1,4.162050247E0,9.060000420E0,9.976377387E0
3.198974049E0,3.490500152E-1,4.201050282E0,9.098999977E0,1.002808356E1
3.200937160E0,4.260000288E-1,4.162050247E0,9.175050735E0,1.008393248E1
3.202900280E0,3.870000243E-1,4.162050247E0,9.175050735E0,1.008236020E1
3.204863304E0,3.870000243E-1,4.123950005E0,9.136950493E0,1.003197872E1
3.206826357E0,4.260000288E-1,4.162050247E0,9.136950493E0,1.004927871E1
3.208789511E0,3.870000243E-1,4.201050282E0,9.136950493E0,1.006391856E1
3.210752615E0,4.260000288E-1,4.162050247E0,9.175050735E0,1.008393248E1
3.212716003E0,4.260000288E-1,4.162050247E0,9.098999977E0,1.001478601E1
3.214679307E0,3.870000243E-1,4.162050247E0,9.098999977E0,1.001320288E1
3.216642751E0,4.639500082E-1,4.123950005E0,9.136950493E0,1.003524178E1
3.218606153E0,4.260000288E-1,4.123950005E0,9.098999977E0,9.999011964E0
3.220569273E0,4.639500082E-1,4.123950005E0,9.136950493E0,1.003524178E1
3.222532502E0,5.020500422E-1,4.123950005E0,9.136950493E0,1.003707538E1
3.224495418E0,4.260000288E-1,4.085999966E0,9.098999977E0,9.983419871E0
3.226458425E0,4.639500082E-1,4.162050247E0,9.098999977E0,1.001647206E1
3.228421648E0,4.260000288E-1,4.123950005E0,9.098999977E0,9.999011964E0
3.230384808E0,5.020500422E-1,4.123950005E0,9.060000420E0,9.967077078E0
3.232347900E0,5.020500422E-1,4.123950005E0,9.098999977E0,1.000254060E1
3.234310992E0,5.020500422E-1,4.085999966E0,9.098999977E0,9.986954018E0
3.236274066E0,4.639500082E-1,4.123950005E0,9.098999977E0,1.000070067E1
3.238237145E0,5.020500422E-1,4.047000408E0,9.060000420E0,9.935485602E0
3.240199906E0,4.639500082E-1,4.123950005E0,9.060000420E0,9.965230597E0
3.242162761E0,4.639500082E-1,4.123950005E0,9.022050858E0,9.930740905E0
3.244125811E0,5.410500169E-1,4.085999966E0,9.060000420E0,9.953478711E0
3.246088817E0,5.020500422E-1,4.085999966E0,9.022050858E0,9.916897279E0
3.248051906E0,5.020500422E-1,4.123950005E0,9.022050858E0,9.932593798E0
3.250014971E0,5.410500169E-1,4.123950005E0,8.944950104E0,9.864675926E0
3.251978095E0,4.639500082E-1,4.123950005E0,8.983950615E0,9.896139747E0
3.253941201E0,5.020500422E-1,4.123950005E0,9.022050858E0,9.932593798E0
3.255904760E0,4.639500082E-1,4.162050247E0,9.022050858E0,9.946623223E0
3.257868192E0,4.639500082E-1,4.123950005E0,8.983950615E0,9.896139747E0
3.259831749E0,4.260000288E-1,4.123950005E0,8.983950615E0,9.894433198E0
3.261795269E0,4.639500082E-1,4.123950005E0,8.944950104E0,9.860747721E0
3.263758497E0,4.260000288E-1,4.162050247E0,9.022050858E0,9.944925337E0
3.265721810E0,4.639500082E-1,4.123950005E0,8.983950615E0,9.896139747E0
3.267685041E0,4.639500082E-1,4.123950005E0,8.983950615E0,9.896139747E0
3.269648286E0,5.020500422E-1,4.201050282E0,8.983950615E0,9.930369901E0
3.271611694E0,5.020500422E-1,4.162050247E0,8.983950615E0,9.913933889E0
3.273575054E0,5.020500422E-1,4.123950005E0,8.983950615E0,9.897999118E0
3.275538578E0,4.639500082E-1,4.162050247E0,8.983950615E0,9.912077508E0
3.277502054E0,4.639500082E-1,4.162050247E0,8.944950104E0,9.876742592E0
3.279465474E0,5.020500422E-1,4.123950005E0,8.983950615E0,9.897999118E0
3.281428907E0,5.020500422E-1,4.162050247E0,9.060000420E0,9.982901588E0
3.283392417E0,5.410500169E-1,4.123950005E0,9.060000420E0,9.969117632E0
3.285355905E0,4.639500082E-1,4.201050282E0,9.060000420E0,9.997383692E0
3.287318913E0,5.410500169E-1,4.123950005E0,9.022050858E0,9.934641435E0
3.289282061E0,4.639500082E-1,4.123950005E0,9.098999977E0,1.000070067E1
3.291245266E0,5.410500169E-1,4.162050247E0,9.098999977E0,1.002033921E1
3.293208481E0,5.410500169E-1,4.201050282E0,9.098999977E0,1.003660098E1
3.295171535E0,5.020500422E-1,4.201050282E0,9.060000420E0,9.999224236E0
3.297134637E0,5.410500169E-1,4.239000320E0,9.060000420E0,1.001725843E1
3.299098249E0,4.639500082E-1,4.123950005E0,9.060000420E0,9.965230597E0
3.301061712E0,4.639500082E-1,4.162050247E0,9.060000420E0,9.981058034E0
3.303025091E0,5.020500422E-1,4.162050247E0,9.060000420E0,9.982901588E0
3.304988522E0,4.639500082E-1,4.162050247E0,9.060000420E0,9.981058034E0
3.306951898E0,4.639500082E-1,4.162050247E0,9.060000420E0,9.981058034E0
3.308915291E0,4.260000288E-1,4.162050247E0,9.060000420E0,9.979366006E0
3.310878675E0,4.639500082E-1,4.162050247E0,9.022050858E0,9.946623223E0
3.312842061E0,4.639500082E-1,4.162050247E0,9.060000420E0,9.981058034E0
3.314804894E0,5.020500422E-1,4.162050247E0,9.060000420E0,9.982901588E0
3.316767897E0,4.639500082E-1,4.201050282E0,9.098999977E0,1.003274009E1
3.318731301E0,4.639500082E-1,4.123950005E0,9.060000420E0,9.965230597E0
3.320694587E0,5.020500422E-1,4.201050282E0,9.098999977E0,1.003457415E1
3.322657855E0,4.639500082E-1,4.162050247E0,9.060000420E0,9.981058034E0
3.324621128E0,4.639500082E-1,4.201050282E0,9.060000420E0,9.997383692E0
3.326584321E0,4.639500082E-1,4.162050247E0,9.060000420E0,9.981058034E0
3.328547527E0,4.639500082E-1,4.162050247E0,9.060000420E0,9.981058034E0
