"Time (s)","Acceleration x (m/s^2)","Acceleration y (m/s^2)","Acceleration z (m/s^2)","Absolute acceleration (m/s^2)"
3.453011800E-2,3.490500152E-1,4.468950272E0,8.907000542E0,9.971359541E0
3.649273700E-2,3.490500152E-1,4.431000233E0,8.869050026E0,9.920466085E0
3.845781000E-2,3.870000243E-1,4.431000233E0,8.907000542E0,9.955811907E0
4.042113000E-2,3.870000243E-1,4.468950272E0,8.869050026E0,9.938879912E0
4.238496400E-2,3.490500152E-1,4.431000233E0,8.869050026E0,9.920466085E0
4.434871400E-2,4.639500082E-1,4.431000233E0,8.830050468E0,9.890338920E0
4.631252600E-2,4.260000288E-1,4.431000233E0,8.830050468E0,9.888631370E0
4.827601700E-2,4.260000288E-1,4.431000233E0,8.830050468E0,9.888631370E0
5.023960300E-2,4.260000288E-1,4.392000198E0,8.869050026E0,9.906118823E0
5.220317800E-2,4.639500082E-1,4.392000198E0,8.830050468E0,9.872927966E0
5.416675700E-2,4.639500082E-1,4.431000233E0,8.830050468E0,9.890338920E0
5.613040400E-2,5.020500422E-1,4.392000198E0,8.869050026E0,9.909680537E0
5.809404400E-2,4.639500082E-1,4.431000233E0,8.791950226E0,9.856338136E0
6.005743100E-2,5.020500422E-1,4.392000198E0,8.830050468E0,9.874791707E0
6.202089200E-2,4.639500082E-1,4.392000198E0,8.791950226E0,9.838867014E0
6.398421800E-2,4.639500082E-1,4.392000198E0,8.830050468E0,9.872927966E0
6.594758400E-2,5.020500422E-1,4.392000198E0,8.754000664E0,9.806846976E0
6.791099600E-2,4.639500082E-1,4.431000233E0,8.830050468E0,9.890338920E0
6.987440800E-2,5.020500422E-1,4.392000198E0,8.791950226E0,9.840737206E0
7.183796800E-2,4.260000288E-1,4.392000198E0,8.791950226E0,9.837150530E0
7.380148500E-2,5.020500422E-1,4.431000233E0,8.830050468E0,9.892199380E0
7.576484800E-2,4.639500082E-1,4.392000198E0,8.869050026E0,9.907823359E0
7.772825700E-2,4.260000288E-1,4.431000233E0,8.830050468E0,9.888631370E0
7.969176700E-2,4.639500082E-1,4.392000198E0,8.830050468E0,9.872927966E0
8.165525000E-2,4.260000288E-1,4.431000233E0,8.830050468E0,9.888631370E0
8.361830300E-2,3.870000243E-1,4.431000233E0,8.907000542E0,9.955811907E0
8.558148200E-2,4.260000288E-1,4.431000233E0,8.907000542E0,9.957404167E0
8.754544200E-2,4.260000288E-1,4.468950272E0,8.944950104E0,1.000825284E1
8.950917300E-2,4.260000288E-1,4.392000198E0,8.944950104E0,9.974130244E0
9.147247500E-2,3.870000243E-1,4.431000233E0,8.944950104E0,9.989777998E0
9.343592000E-2,4.260000288E-1,4.431000233E0,8.983950615E0,1.002629581E1
9.539960900E-2,4.260000288E-1,4.431000233E0,8.944950104E0,9.991364844E0
9.736322600E-2,4.639500082E-1,4.392000198E0,8.983950615E0,1.001080836E1
9.932693100E-2,3.870000243E-1,4.431000233E0,8.983950615E0,1.002471450E1
1.012906100E-1,4.260000288E-1,4.431000233E0,8.983950615E0,1.002629581E1
1.032539070E-1,3.870000243E-1,4.392000198E0,8.983950615E0,1.000753733E1
1.052173430E-1,4.260000288E-1,4.431000233E0,8.944950104E0,9.991364844E0
1.071807640E-1,4.260000288E-1,4.431000233E0,8.983950615E0,1.002629581E1
1.091441890E-1,4.260000288E-1,4.431000233E0,8.983950615E0,1.002629581E1
1.111078810E-1,4.639500082E-1,4.431000233E0,8.983950615E0,1.002797992E1
1.130714940E-1,4.260000288E-1,4.468950272E0,8.983950615E0,1.004312507E1
1.150350420E-1,3.870000243E-1,4.431000233E0,8.983950615E0,1.002471450E1
1.169986260E-1,4.639500082E-1,4.431000233E0,9.022050858E0,1.006212772E1
1.189619320E-1,4.260000288E-1,4.468950272E0,8.983950615E0,1.004312507E1
1.209253190E-1,4.639500082E-1,4.431000233E0,8.944950104E0,9.993054840E0
1.228890620E-1,4.260000288E-1,4.392000198E0,8.983950615E0,1.000912136E1
1.248527010E-1,4.260000288E-1,4.431000233E0,8.983950615E0,1.002629581E1
1.268158790E-1,4.260000288E-1,4.468950272E0,8.907000542E0,9.974349663E0
1.287792130E-1,4.260000288E-1,4.468950272E0,8.907000542E0,9.974349663E0
1.307426050E-1,4.639500082E-1,4.468950272E0,8.907000542E0,9.976042541E0
1.327059800E-1,3.870000243E-1,4.431000233E0,8.983950615E0,1.002471450E1
1.346693220E-1,3.870000243E-1,4.431000233E0,8.869050026E0,9.921873837E0
1.366326740E-1,3.870000243E-1,4.431000233E0,8.907000542E0,9.955811907E0
1.385960300E-1,3.490500152E-1,4.468950272E0,8.907000542E0,9.971359541E0
1.405594080E-1,3.870000243E-1,4.468950272E0,8.944950104E0,1.000666867E1
1.425228390E-1,3.870000243E-1,4.431000233E0,8.983950615E0,1.002471450E1
1.444862550E-1,3.870000243E-1,4.507050037E0,8.869050026E0,9.956069376E0
1.464498150E-1,3.870000243E-1,4.507050037E0,8.944950104E0,1.002374189E1
1.484133320E-1,4.260000288E-1,4.468950272E0,8.944950104E0,1.000825284E1
1.503765180E-1,3.870000243E-1,4.431000233E0,8.944950104E0,9.989777998E0
1.523397990E-1,3.870000243E-1,4.468950272E0,8.944950104E0,1.000666867E1
1.543035160E-1,3.870000243E-1,4.468950272E0,8.983950615E0,1.004154640E1
1.562671050E-1,3.870000243E-1,4.507050037E0,8.983950615E0,1.005856042E1
1.582304550E-1,3.870000243E-1,4.468950272E0,8.907000542E0,9.972760109E0
1.601938760E-1,3.490500152E-1,4.431000233E0,8.869050026E0,9.920466085E0
1.621574600E-1,3.870000243E-1,4.468950272E0,8.869050026E0,9.938879912E0
1.641210090E-1,4.260000288E-1,4.468950272E0,8.869050026E0,9.940474884E0
1.660845470E-1,4.260000288E-1,4.431000233E0,8.907000542E0,9.957404167E0
1.680480880E-1,4.260000288E-1,4.468950272E0,8.907000542E0,9.974349663E0
1.700115810E-1,3.490500152E-1,4.431000233E0,8.907000542E0,9.954408954E0
1.719750880E-1,3.870000243E-1,4.507050037E0,8.907000542E0,9.989891276E0
1.739384460E-1,3.870000243E-1,4.468950272E0,8.907000542E0,9.972760109E0
1.759018520E-1,3.490500152E-1,4.392000198E0,8.907000542E0,9.937110259E0
1.778652330E-1,3.490500152E-1,4.431000233E0,8.907000542E0,9.954408954E0
1.798286210E-1,3.870000243E-1,4.468950272E0,8.944950104E0,1.000666867E1
1.817920500E-1,3.870000243E-1,4.468950272E0,8.869050026E0,9.938879912E0
1.837554660E-1,3.870000243E-1,4.431000233E0,8.944950104E0,9.989777998E0
1.857187720E-1,3.870000243E-1,4.468950272E0,8.907000542E0,9.972760109E0
1.876821310E-1,3.490500152E-1,4.468950272E0,8.907000542E0,9.971359541E0
1.896455190E-1,3.109500110E-1,4.507050037E0,8.944950104E0,1.002109387E1
1.916088980E-1,3.109500110E-1,4.468950272E0,8.907000542E0,9.970098550E0
1.935723290E-1,3.490500152E-1,4.507050037E0,8.907000542E0,9.988493110E0
1.955357440E-1,3.109500110E-1,4.468950272E0,8.907000542E0,9.970098550E0
1.974990800E-1,3.490500152E-1,4.507050037E0,8.983950615E0,1.005717180E1
1.994624390E-1,3.490500152E-1,4.507050037E0,8.944950104E0,1.002234844E1
2.014258270E-1,3.490500152E-1,4.468950272E0,8.907000542E0,9.971359541E0
2.033892060E-1,3.109500110E-1,4.507050037E0,8.907000542E0,9.987234282E0
2.053527720E-1,3.490500152E-1,4.545000076E0,8.944950104E0,1.003947180E1
2.073162830E-1,3.109500110E-1,4.545000076E0,8.907000542E0,1.000441774E1
2.092792830E-1,2.719500065E-1,4.507050037E0,8.983950615E0,1.005479117E1
2.112424670E-1,3.109500110E-1,4.507050037E0,8.983950615E0,1.005592157E1
2.132055260E-1,3.109500110E-1,4.468950272E0,8.907000542E0,9.970098550E0
2.151686210E-1,3.490500152E-1,4.507050037E0,8.944950104E0,1.002234844E1
2.171323700E-1,2.719500065E-1,4.507050037E0,8.944950104E0,1.001995954E1
2.190959270E-1,3.109500110E-1,4.468950272E0,8.869050026E0,9.936209277E0
2.210596380E-1,3.490500152E-1,4.468950272E0,8.944950104E0,1.000527285E1
2.230233070E-1,3.870000243E-1,4.468950272E0,8.907000542E0,9.972760109E0
2.249866440E-1,3.490500152E-1,4.507050037E0,8.944950104E0,1.002234844E1
2.269500780E-1,3.109500110E-1,4.468950272E0,8.944950104E0,1.000401613E1
2.289132730E-1,3.870000243E-1,4.468950272E0,8.907000542E0,9.972760109E0
2.308765390E-1,3.870000243E-1,4.468950272E0,8.907000542E0,9.972760109E0
2.328395970E-1,3.490500152E-1,4.468950272E0,8.944950104E0,1.000527285E1
2.348027070E-1,3.490500152E-1,4.431000233E0,8.907000542E0,9.954408954E0
2.367659580E-1,3.109500110E-1,4.431000233E0,8.944950104E0,9.987120973E0
2.387291670E-1,3.870000243E-1,4.431000233E0,8.907000542E0,9.955811907E0
2.406925820E-1,3.490500152E-1,4.431000233E0,8.830050468E0,9.885615320E0
2.426559360E-1,3.870000243E-1,4.431000233E0,8.907000542E0,9.955811907E0
2.446197560E-1,3.870000243E-1,4.431000233E0,8.869050026E0,9.921873837E0
2.465834220E-1,3.490500152E-1,4.468950272E0,8.907000542E0,9.971359541E0
2.485467590E-1,3.870000243E-1,4.431000233E0,8.944950104E0,9.989777998E0
2.505101930E-1,3.109500110E-1,4.431000233E0,8.907000542E0,9.953145815E0
2.524735690E-1,3.490500152E-1,4.507050037E0,8.869050026E0,9.954666459E0
2.544369620E-1,3.490500152E-1,4.468950272E0,8.907000542E0,9.971359541E0
2.564004600E-1,3.490500152E-1,4.468950272E0,8.907000542E0,9.971359541E0
2.583639410E-1,3.870000243E-1,4.507050037E0,8.869050026E0,9.956069376E0
2.603274890E-1,3.109500110E-1,4.507050037E0,8.869050026E0,9.953403353E0
2.622910180E-1,3.109500110E-1,4.507050037E0,8.869050026E0,9.953403353E0
2.642542440E-1,3.109500110E-1,4.468950272E0,8.791950226E0,9.867451303E0
2.662175590E-1,3.490500152E-1,4.507050037E0,8.830050468E0,9.919935848E0
2.681810950E-1,3.109500110E-1,4.507050037E0,8.830050468E0,9.918668319E0
2.701445620E-1,2.719500065E-1,4.507050037E0,8.791950226E0,9.883615008E0
2.721079330E-1,2.719500065E-1,4.545000076E0,8.869050026E0,9.969505046E0
2.740713330E-1,3.109500110E-1,4.545000076E0,8.830050468E0,9.935970354E0
2.760347590E-1,2.719500065E-1,4.545000076E0,8.791950226E0,9.900978299E0
2.779981770E-1,3.109500110E-1,4.545000076E0,8.830050468E0,9.935970354E0
2.799615660E-1,2.719500065E-1,4.545000076E0,8.791950226E0,9.900978299E0
2.819249570E-1,3.109500110E-1,4.545000076E0,8.754000664E0,9.868446850E0
2.838887000E-1,2.719500065E-1,4.507050037E0,8.754000664E0,9.849872307E0
2.858523400E-1,2.719500065E-1,4.507050037E0,8.754000664E0,9.849872307E0
2.878158170E-1,3.490500152E-1,4.545000076E0,8.715000153E0,9.835145615E0
2.897793420E-1,3.490500152E-1,4.507050037E0,8.754000664E0,9.852302450E0
2.917425390E-1,3.490500152E-1,4.545000076E0,8.791950226E0,9.903395901E0
2.937058520E-1,3.870000243E-1,4.507050037E0,8.754000664E0,9.853719941E0
2.956692030E-1,3.490500152E-1,4.507050037E0,8.754000664E0,9.852302450E0
2.976325430E-1,3.490500152E-1,4.507050037E0,8.754000664E0,9.852302450E0
2.995958010E-1,3.870000243E-1,4.507050037E0,8.754000664E0,9.853719941E0
3.015590830E-1,3.490500152E-1,4.468950272E0,8.754000664E0,9.834931625E0
3.035224840E-1,3.490500152E-1,4.468950272E0,8.754000664E0,9.834931625E0
3.054858500E-1,3.870000243E-1,4.468950272E0,8.754000664E0,9.836351619E0
3.074494180E-1,3.870000243E-1,4.507050037E0,8.754000664E0,9.853719941E0
3.094129270E-1,3.490500152E-1,4.431000233E0,8.715000153E0,9.782986591E0
3.113762920E-1,3.870000243E-1,4.431000233E0,8.830050468E0,9.887028035E0
3.133396990E-1,3.870000243E-1,4.468950272E0,8.791950226E0,9.870140542E0
3.153033890E-1,4.260000288E-1,4.468950272E0,8.791950226E0,9.871746620E0
3.172669990E-1,4.260000288E-1,4.468950272E0,8.791950226E0,9.871746620E0
3.192305710E-1,4.260000288E-1,4.431000233E0,8.830050468E0,9.888631370E0
3.211941550E-1,4.260000288E-1,4.468950272E0,8.830050468E0,9.905694515E0
3.231572800E-1,4.260000288E-1,4.468950272E0,8.830050468E0,9.905694515E0
3.251205400E-1,4.260000288E-1,4.468950272E0,8.830050468E0,9.905694515E0
3.270839520E-1,4.260000288E-1,4.468950272E0,8.830050468E0,9.905694515E0
3.290473460E-1,4.639500082E-1,4.468950272E0,8.830050468E0,9.907399125E0
3.310109090E-1,4.639500082E-1,4.468950272E0,8.830050468E0,9.907399125E0
3.329744230E-1,3.870000243E-1,4.431000233E0,8.869050026E0,9.921873837E0
3.349379220E-1,4.639500082E-1,4.431000233E0,8.907000542E0,9.959099925E0
3.369014250E-1,4.260000288E-1,4.468950272E0,8.869050026E0,9.940474884E0
3.388648340E-1,3.870000243E-1,4.468950272E0,8.907000542E0,9.972760109E0
3.408282710E-1,3.870000243E-1,4.431000233E0,8.869050026E0,9.921873837E0
3.427917810E-1,3.870000243E-1,4.468950272E0,8.944950104E0,1.000666867E1
3.447552690E-1,4.260000288E-1,4.468950272E0,8.907000542E0,9.974349663E0
3.467188610E-1,3.870000243E-1,4.468950272E0,8.907000542E0,9.972760109E0
3.486824230E-1,3.870000243E-1,4.507050037E0,8.944950104E0,1.002374189E1
3.506459180E-1,4.260000288E-1,4.507050037E0,8.907000542E0,9.991478105E0
3.526094300E-1,3.870000243E-1,4.468950272E0,8.944950104E0,1.000666867E1
3.545727930E-1,4.260000288E-1,4.468950272E0,8.983950615E0,1.004312507E1
3.565361990E-1,4.260000288E-1,4.468950272E0,8.944950104E0,1.000825284E1
3.584995800E-1,3.490500152E-1,4.468950272E0,8.944950104E0,1.000527285E1
3.604629680E-1,3.870000243E-1,4.468950272E0,8.944950104E0,1.000666867E1
3.624259580E-1,3.870000243E-1,4.431000233E0,9.022050858E0,1.005887338E1
3.643890880E-1,4.260000288E-1,4.468950272E0,9.060000420E0,1.011121161E1
3.663525150E-1,3.490500152E-1,4.507050037E0,9.060000420E0,1.012516388E1
3.683158550E-1,3.490500152E-1,4.468950272E0,9.022050858E0,1.007426196E1
3.702789330E-1,3.870000243E-1,4.468950272E0,8.983950615E0,1.004154640E1
3.722420880E-1,4.260000288E-1,4.431000233E0,9.060000420E0,1.009449586E1
3.742053170E-1,3.490500152E-1,4.431000233E0,8.983950615E0,1.002332119E1
3.761685340E-1,3.109500110E-1,4.431000233E0,9.022050858E0,1.005623462E1
3.781321280E-1,3.870000243E-1,4.431000233E0,9.060000420E0,1.009292523E1
3.800956110E-1,3.490500152E-1,4.392000198E0,9.060000420E0,1.007447811E1
3.820593390E-1,3.870000243E-1,4.431000233E0,9.022050858E0,1.005887338E1
3.840229950E-1,3.870000243E-1,4.392000198E0,9.098999977E0,1.011094631E1
3.859864450E-1,3.490500152E-1,4.392000198E0,9.060000420E0,1.007447811E1
3.879499730E-1,4.260000288E-1,4.392000198E0,9.060000420E0,1.007743764E1
3.899133780E-1,3.870000243E-1,4.392000198E0,9.060000420E0,1.007586435E1
3.918768190E-1,4.260000288E-1,4.354050159E0,9.060000420E0,1.006095604E1
3.938405080E-1,4.639500082E-1,4.392000198E0,9.060000420E0,1.007911320E1
3.958041250E-1,4.260000288E-1,4.392000198E0,9.060000420E0,1.007743764E1
3.977674960E-1,3.870000243E-1,4.354050159E0,9.060000420E0,1.005938017E1
3.997309530E-1,4.260000288E-1,4.354050159E0,9.022050858E0,1.002679562E1
4.016942800E-1,4.260000288E-1,4.392000198E0,8.983950615E0,1.000912136E1
4.036576460E-1,3.490500152E-1,4.354050159E0,9.022050858E0,1.002382115E1
4.056212130E-1,3.870000243E-1,4.392000198E0,9.022050858E0,1.004175465E1
4.075847210E-1,3.870000243E-1,4.392000198E0,8.983950615E0,1.000753733E1
4.095483090E-1,4.260000288E-1,4.431000233E0,8.983950615E0,1.002629581E1
4.115118740E-1,3.870000243E-1,4.354050159E0,8.944950104E0,9.955885404E0
4.134751840E-1,4.260000288E-1,4.392000198E0,9.022050858E0,1.004333328E1
4.154385690E-1,3.870000243E-1,4.354050159E0,8.983950615E0,9.990940419E0
4.174021330E-1,4.260000288E-1,4.354050159E0,8.983950615E0,9.992527081E0
4.193656440E-1,4.260000288E-1,4.392000198E0,8.944950104E0,9.974130244E0
4.213288640E-1,4.260000288E-1,4.392000198E0,8.944950104E0,9.974130244E0
4.232921750E-1,4.639500082E-1,4.354050159E0,8.869050026E0,9.891059133E0
4.252553920E-1,4.260000288E-1,4.354050159E0,8.907000542E0,9.923401003E0
4.272186370E-1,3.870000243E-1,4.354050159E0,8.907000542E0,9.921803287E0
4.291820440E-1,4.260000288E-1,4.392000198E0,8.907000542E0,9.940110684E0
4.311454040E-1,4.260000288E-1,4.392000198E0,8.869050026E0,9.906118823E0
4.331087830E-1,5.020500422E-1,4.431000233E0,8.907000542E0,9.960947543E0
4.350721630E-1,4.639500082E-1,4.431000233E0,8.830050468E0,9.890338920E0
4.370353700E-1,4.260000288E-1,4.392000198E0,8.869050026E0,9.906118823E0
4.389986270E-1,4.639500082E-1,4.431000233E0,8.830050468E0,9.890338920E0
4.409619870E-1,5.020500422E-1,4.392000198E0,8.830050468E0,9.874791707E0
4.429253170E-1,4.639500082E-1,4.431000233E0,8.830050468E0,9.890338920E0
4.448889100E-1,5.020500422E-1,4.431000233E0,8.830050468E0,9.892199380E0
4.468524130E-1,4.639500082E-1,4.431000233E0,8.791950226E0,9.856338136E0
4.488157780E-1,4.639500082E-1,4.431000233E0,8.791950226E0,9.856338136E0
4.507791840E-1,5.020500422E-1,4.468950272E0,8.754000664E0,9.841549593E0
4.527423850E-1,4.639500082E-1,4.431000233E0,8.869050026E0,9.925173098E0
4.547056460E-1,4.639500082E-1,4.468950272E0,8.830050468E0,9.907399125E0
4.566687510E-1,4.260000288E-1,4.468950272E0,8.830050468E0,9.905694515E0
4.586318920E-1,4.260000288E-1,4.468950272E0,8.791950226E0,9.871746620E0
4.605950920E-1,4.639500082E-1,4.507050037E0,8.830050468E0,9.924643113E0
4.625582740E-1,4.260000288E-1,4.507050037E0,8.754000664E0,9.855328695E0
4.645213340E-1,3.870000243E-1,4.545000076E0,8.791950226E0,9.904806080E0
4.664844300E-1,3.870000243E-1,4.545000076E0,8.754000664E0,9.871135818E0
4.684476880E-1,3.490500152E-1,4.507050037E0,8.791950226E0,9.886036856E0
4.704108950E-1,3.490500152E-1,4.507050037E0,8.791950226E0,9.886036856E0
4.723739950E-1,4.260000288E-1,4.545000076E0,8.754000664E0,9.872741734E0
4.743371270E-1,4.260000288E-1,4.507050037E0,8.830050468E0,9.922941466E0
4.763007340E-1,3.870000243E-1,4.545000076E0,8.869050026E0,9.973306527E0
4.782642020E-1,3.870000243E-1,4.545000076E0,8.791950226E0,9.904806080E0
4.802279070E-1,3.870000243E-1,4.545000076E0,8.830050468E0,9.938641053E0
4.821915290E-1,3.490500152E-1,4.507050037E0,8.869050026E0,9.954666459E0
4.841552340E-1,3.109500110E-1,4.545000076E0,8.869050026E0,9.970645113E0
4.861189140E-1,3.870000243E-1,4.545000076E0,8.869050026E0,9.973306527E0
4.880824290E-1,3.870000243E-1,4.507050037E0,8.907000542E0,9.989891276E0
4.900459930E-1,3.490500152E-1,4.545000076E0,8.830050468E0,9.937235676E0
4.920093970E-1,3.870000243E-1,4.545000076E0,8.869050026E0,9.973306527E0
4.939728440E-1,3.109500110E-1,4.545000076E0,8.907000542E0,1.000441774E1
4.959365320E-1,3.490500152E-1,4.507050037E0,8.869050026E0,9.954666459E0
4.979001490E-1,3.870000243E-1,4.507050037E0,8.907000542E0,9.989891276E0
4.998635400E-1,3.490500152E-1,4.545000076E0,8.944950104E0,1.003947180E1
5.018269980E-1,3.490500152E-1,4.507050037E0,8.907000542E0,9.988493110E0
5.037901930E-1,3.490500152E-1,4.507050037E0,8.869050026E0,9.954666459E0
5.057534630E-1,3.490500152E-1,4.468950272E0,8.869050026E0,9.937474569E0
5.077168210E-1,3.490500152E-1,4.468950272E0,8.907000542E0,9.971359541E0
5.096801530E-1,3.490500152E-1,4.507050037E0,8.869050026E0,9.954666459E0
5.116434130E-1,3.490500152E-1,4.507050037E0,8.869050026E0,9.954666459E0
5.136066940E-1,3.490500152E-1,4.507050037E0,8.907000542E0,9.988493110E0
5.155702690E-1,3.490500152E-1,4.468950272E0,8.869050026E0,9.937474569E0
5.175337310E-1,3.870000243E-1,4.468950272E0,8.907000542E0,9.972760109E0
5.194973280E-1,3.490500152E-1,4.468950272E0,8.907000542E0,9.971359541E0
5.214608850E-1,3.490500152E-1,4.507050037E0,8.907000542E0,9.988493110E0
5.234241960E-1,3.490500152E-1,4.545000076E0,8.907000542E0,1.000567440E1
5.253875790E-1,3.490500152E-1,4.507050037E0,8.944950104E0,1.002234844E1
5.273513500E-1,4.260000288E-1,4.468950272E0,8.907000542E0,9.974349663E0
5.293150200E-1,3.490500152E-1,4.468950272E0,8.944950104E0,1.000527285E1
5.312784920E-1,3.490500152E-1,4.507050037E0,8.907000542E0,9.988493110E0
5.332420220E-1,3.490500152E-1,4.468950272E0,8.869050026E0,9.937474569E0
5.352057410E-1,3.490500152E-1,4.468950272E0,8.907000542E0,9.971359541E0
5.371694040E-1,3.490500152E-1,4.468950272E0,8.907000542E0,9.971359541E0
5.391329020E-1,3.490500152E-1,4.431000233E0,8.830050468E0,9.885615320E0
5.410964630E-1,3.490500152E-1,4.431000233E0,8.869050026E0,9.920466085E0
5.430596820E-1,3.490500152E-1,4.468950272E0,8.907000542E0,9.971359541E0
5.450230020E-1,4.260000288E-1,4.468950272E0,8.869050026E0,9.940474884E0
5.469865770E-1,3.490500152E-1,4.468950272E0,8.907000542E0,9.971359541E0
5.489500770E-1,3.490500152E-1,4.468950272E0,8.907000542E0,9.971359541E0
5.509136610E-1,4.260000288E-1,4.468950272E0,8.907000542E0,9.974349663E0
5.528771930E-1,3.490500152E-1,4.431000233E0,8.907000542E0,9.954408954E0
5.548405530E-1,3.490500152E-1,4.431000233E0,8.907000542E0,9.954408954E0
5.568039640E-1,4.260000288E-1,4.431000233E0,8.869050026E0,9.923471542E0
5.587678380E-1,4.260000288E-1,4.431000233E0,8.907000542E0,9.957404167E0
5.607315770E-1,4.260000288E-1,4.392000198E0,8.944950104E0,9.974130244E0
5.626951220E-1,4.260000288E-1,4.468950272E0,8.869050026E0,9.940474884E0
5.646587280E-1,3.870000243E-1,4.431000233E0,8.869050026E0,9.921873837E0
5.666222550E-1,3.870000243E-1,4.392000198E0,8.869050026E0,9.904518319E0
5.685858050E-1,4.260000288E-1,4.392000198E0,8.944950104E0,9.974130244E0
5.705492960E-1,3.870000243E-1,4.392000198E0,8.907000542E0,9.938515654E0
5.725128050E-1,4.260000288E-1,4.431000233E0,8.907000542E0,9.957404167E0
5.744764020E-1,4.260000288E-1,4.392000198E0,8.907000542E0,9.940110684E0
5.764399660E-1,4.260000288E-1,4.431000233E0,8.907000542E0,9.957404167E0
5.784035010E-1,5.020500422E-1,4.431000233E0,8.907000542E0,9.960947543E0
5.803670450E-1,4.260000288E-1,4.392000198E0,8.869050026E0,9.906118823E0
5.823304020E-1,4.260000288E-1,4.392000198E0,8.869050026E0,9.906118823E0
5.842938140E-1,4.639500082E-1,4.354050159E0,8.907000542E0,9.925102571E0
5.862572090E-1,5.020500422E-1,4.431000233E0,8.869050026E0,9.927027031E0
5.882205980E-1,4.260000288E-1,4.431000233E0,8.907000542E0,9.957404167E0
5.901841160E-1,4.639500082E-1,4.392000198E0,8.869050026E0,9.907823359E0
5.921475960E-1,4.260000288E-1,4.431000233E0,8.830050468E0,9.888631370E0
5.941108300E-1,4.260000288E-1,4.392000198E0,8.830050468E0,9.871217404E0
5.960741370E-1,4.260000288E-1,4.431000233E0,8.869050026E0,9.923471542E0
5.980376590E-1,3.870000243E-1,4.392000198E0,8.869050026E0,9.904518319E0
6.000011250E-1,4.260000288E-1,4.431000233E0,8.869050026E0,9.923471542E0
6.019644970E-1,4.260000288E-1,4.468950272E0,8.830050468E0,9.905694515E0
6.039278960E-1,4.260000288E-1,4.431000233E0,8.830050468E0,9.888631370E0
6.058912780E-1,4.639500082E-1,4.507050037E0,8.869050026E0,9.959357309E0
6.078546650E-1,5.020500422E-1,4.468950272E0,8.869050026E0,9.944024293E0
6.098177340E-1,4.639500082E-1,4.468950272E0,8.907000542E0,9.976042541E0
6.117808960E-1,4.260000288E-1,4.507050037E0,8.869050026E0,9.957661594E0
6.137443180E-1,4.260000288E-1,4.507050037E0,8.830050468E0,9.922941466E0
6.157076630E-1,4.639500082E-1,4.468950272E0,8.869050026E0,9.942173530E0
6.176710540E-1,3.870000243E-1,4.507050037E0,8.830050468E0,9.921343676E0
6.196344320E-1,3.870000243E-1,4.507050037E0,8.830050468E0,9.921343676E0
6.215979530E-1,3.870000243E-1,4.507050037E0,8.869050026E0,9.956069376E0
6.235614320E-1,3.870000243E-1,4.545000076E0,8.907000542E0,1.000707017E1
6.255250260E-1,3.870000243E-1,4.507050037E0,8.907000542E0,9.989891276E0
6.274885860E-1,3.870000243E-1,4.507050037E0,8.869050026E0,9.956069376E0
6.294519420E-1,3.870000243E-1,4.507050037E0,8.869050026E0,9.956069376E0
6.314153580E-1,3.870000243E-1,4.507050037E0,8.907000542E0,9.989891276E0
6.333784970E-1,3.490500152E-1,4.468950272E0,8.869050026E0,9.937474569E0
6.353417280E-1,3.490500152E-1,4.468950272E0,8.944950104E0,1.000527285E1
6.373050030E-1,3.490500152E-1,4.507050037E0,8.907000542E0,9.988493110E0
6.392682650E-1,3.109500110E-1,4.507050037E0,8.907000542E0,9.987234282E0
6.412316250E-1,3.109500110E-1,4.545000076E0,8.869050026E0,9.970645113E0
6.431949570E-1,3.109500110E-1,4.507050037E0,8.983950615E0,1.005592157E1
6.451583760E-1,3.109500110E-1,4.468950272E0,8.983950615E0,1.003890308E1
6.471217830E-1,3.490500152E-1,4.468950272E0,9.022050858E0,1.007426196E1
6.490851200E-1,3.109500110E-1,4.507050037E0,8.983950615E0,1.005592157E1
6.510484770E-1,3.109500110E-1,4.468950272E0,9.022050858E0,1.007301385E1
6.530119110E-1,3.109500110E-1,4.468950272E0,9.022050858E0,1.007301385E1
6.549753220E-1,3.109500110E-1,4.468950272E0,9.022050858E0,1.007301385E1
6.569390520E-1,3.109500110E-1,4.468950272E0,9.098999977E0,1.014199226E1
6.589026960E-1,3.109500110E-1,4.468950272E0,9.022050858E0,1.007301385E1
6.608662170E-1,3.109500110E-1,4.468950272E0,9.060000420E0,1.010701806E1
6.628297750E-1,3.109500110E-1,4.431000233E0,9.060000420E0,1.009029537E1
6.647934440E-1,3.109500110E-1,4.431000233E0,9.098999977E0,1.012532733E1
6.667570810E-1,3.490500152E-1,4.431000233E0,9.060000420E0,1.009154134E1
6.687204320E-1,3.490500152E-1,4.392000198E0,9.098999977E0,1.010956489E1
6.706838610E-1,3.109500110E-1,4.431000233E0,9.060000420E0,1.009029537E1
6.726470580E-1,3.109500110E-1,4.392000198E0,9.022050858E0,1.003911138E1
6.746103230E-1,2.719500065E-1,4.392000198E0,9.022050858E0,1.003797909E1
6.765739520E-1,3.109500110E-1,4.431000233E0,9.060000420E0,1.009029537E1
6.785374750E-1,3.109500110E-1,4.392000198E0,9.060000420E0,1.007323003E1
6.805008020E-1,3.109500110E-1,4.431000233E0,9.022050858E0,1.005623462E1
6.824641790E-1,3.490500152E-1,4.431000233E0,9.022050858E0,1.005748481E1
6.844276090E-1,3.109500110E-1,4.431000233E0,9.022050858E0,1.005623462E1
6.863910230E-1,3.490500152E-1,4.468950272E0,9.022050858E0,1.007426196E1
6.883543580E-1,3.870000243E-1,4.468950272E0,9.022050858E0,1.007564823E1
6.903177170E-1,3.870000243E-1,4.392000198E0,8.944950104E0,9.972540655E0
6.922810860E-1,3.870000243E-1,4.431000233E0,8.983950615E0,1.002471450E1
6.942444660E-1,3.490500152E-1,4.468950272E0,8.944950104E0,1.000527285E1
6.962073570E-1,3.870000243E-1,4.431000233E0,8.907000542E0,9.955811907E0
6.981703910E-1,3.109500110E-1,4.392000198E0,8.983950615E0,1.000488502E1
7.001336090E-1,3.490500152E-1,4.431000233E0,8.869050026E0,9.920466085E0
7.020967730E-1,4.260000288E-1,4.392000198E0,8.944950104E0,9.974130244E0
7.040598270E-1,3.490500152E-1,4.431000233E0,8.907000542E0,9.954408954E0
7.060229200E-1,4.260000288E-1,4.431000233E0,8.869050026E0,9.923471542E0
7.079861740E-1,3.490500152E-1,4.431000233E0,8.869050026E0,9.920466085E0
7.099493800E-1,3.870000243E-1,4.431000233E0,8.907000542E0,9.955811907E0
7.119129760E-1,3.870000243E-1,4.431000233E0,8.869050026E0,9.921873837E0
7.138764570E-1,4.260000288E-1,4.431000233E0,8.869050026E0,9.923471542E0
7.158398800E-1,4.260000288E-1,4.431000233E0,8.869050026E0,9.923471542E0
7.178033140E-1,4.260000288E-1,4.431000233E0,8.869050026E0,9.923471542E0
7.197668690E-1,4.260000288E-1,4.431000233E0,8.869050026E0,9.923471542E0
7.217303890E-1,4.260000288E-1,4.468950272E0,8.869050026E0,9.940474884E0
7.236935710E-1,3.870000243E-1,4.431000233E0,8.830050468E0,9.887028035E0
7.256568520E-1,3.870000243E-1,4.431000233E0,8.830050468E0,9.887028035E0
7.276200060E-1,3.870000243E-1,4.431000233E0,8.830050468E0,9.887028035E0
7.295832140E-1,4.260000288E-1,4.431000233E0,8.791950226E0,9.854624694E0
7.315462680E-1,4.639500082E-1,4.431000233E0,8.791950226E0,9.856338136E0
7.335093680E-1,4.260000288E-1,4.431000233E0,8.830050468E0,9.888631370E0
7.354724850E-1,3.870000243E-1,4.468950272E0,8.869050026E0,9.938879912E0
7.374355970E-1,3.870000243E-1,4.468950272E0,8.791950226E0,9.870140542E0
7.393990180E-1,4.260000288E-1,4.468950272E0,8.830050468E0,9.905694515E0
7.413623560E-1,4.260000288E-1,4.468950272E0,8.869050026E0,9.940474884E0
7.433257030E-1,4.260000288E-1,4.431000233E0,8.830050468E0,9.888631370E0
7.452890480E-1,4.260000288E-1,4.468950272E0,8.869050026E0,9.940474884E0
7.472522610E-1,4.639500082E-1,4.392000198E0,8.869050026E0,9.907823359E0
7.492155120E-1,4.639500082E-1,4.468950272E0,8.830050468E0,9.907399125E0
7.511787780E-1,4.260000288E-1,4.431000233E0,8.869050026E0,9.923471542E0
7.531420430E-1,4.639500082E-1,4.468950272E0,8.791950226E0,9.873457090E0
7.551054030E-1,3.870000243E-1,4.468950272E0,8.907000542E0,9.972760109E0
7.570687350E-1,4.260000288E-1,4.468950272E0,8.944950104E0,1.000825284E1
7.590321740E-1,4.639500082E-1,4.431000233E0,8.869050026E0,9.925173098E0
7.609955820E-1,5.020500422E-1,4.468950272E0,8.907000542E0,9.977887022E0
7.629591030E-1,4.260000288E-1,4.468950272E0,8.869050026E0,9.940474884E0
7.649225870E-1,5.020500422E-1,4.468950272E0,8.869050026E0,9.944024293E0
7.668861350E-1,4.639500082E-1,4.468950272E0,8.869050026E0,9.942173530E0
7.688496640E-1,4.639500082E-1,4.468950272E0,8.907000542E0,9.976042541E0
7.708130250E-1,4.260000288E-1,4.468950272E0,8.907000542E0,9.974349663E0
7.727764350E-1,4.639500082E-1,4.431000233E0,8.907000542E0,9.959099925E0
7.747402330E-1,4.260000288E-1,4.468950272E0,8.907000542E0,9.974349663E0
7.767039080E-1,4.639500082E-1,4.468950272E0,8.869050026E0,9.942173530E0
7.786673790E-1,4.639500082E-1,4.507050037E0,8.907000542E0,9.993168081E0
7.806309100E-1,4.260000288E-1,4.468950272E0,8.869050026E0,9.940474884E0
7.825944490E-1,4.260000288E-1,4.468950272E0,8.907000542E0,9.974349663E0
7.845579850E-1,4.260000288E-1,4.431000233E0,8.907000542E0,9.957404167E0
7.865212200E-1,4.260000288E-1,4.431000233E0,8.907000542E0,9.957404167E0
7.884845360E-1,4.260000288E-1,4.431000233E0,8.869050026E0,9.923471542E0
7.904480660E-1,4.639500082E-1,4.431000233E0,8.869050026E0,9.925173098E0
7.924115340E-1,5.020500422E-1,4.431000233E0,8.907000542E0,9.960947543E0
7.943749050E-1,4.260000288E-1,4.431000233E0,8.869050026E0,9.923471542E0
7.963383050E-1,3.870000243E-1,4.468950272E0,8.907000542E0,9.972760109E0
7.983019010E-1,4.260000288E-1,4.468950272E0,8.944950104E0,1.000825284E1
8.002654470E-1,4.260000288E-1,4.431000233E0,8.907000542E0,9.957404167E0
8.022287600E-1,4.260000288E-1,4.468950272E0,8.944950104E0,1.000825284E1
8.041921410E-1,3.870000243E-1,4.431000233E0,8.983950615E0,1.002471450E1
8.061557050E-1,3.870000243E-1,4.392000198E0,8.944950104E0,9.972540655E0
8.081192160E-1,4.639500082E-1,4.431000233E0,8.944950104E0,9.993054840E0
8.100825460E-1,4.260000288E-1,4.431000233E0,8.944950104E0,9.991364844E0
8.120459530E-1,4.260000288E-1,4.431000233E0,8.907000542E0,9.957404167E0
8.140095130E-1,4.639500082E-1,4.431000233E0,8.907000542E0,9.959099925E0
8.159730280E-1,4.260000288E-1,4.431000233E0,8.944950104E0,9.991364844E0
8.179365710E-1,3.870000243E-1,4.431000233E0,8.907000542E0,9.955811907E0
8.199001050E-1,4.260000288E-1,4.392000198E0,8.944950104E0,9.974130244E0
8.218638210E-1,4.260000288E-1,4.431000233E0,8.944950104E0,9.991364844E0
8.238274860E-1,4.639500082E-1,4.431000233E0,8.944950104E0,9.993054840E0
8.257910490E-1,4.260000288E-1,4.392000198E0,8.944950104E0,9.974130244E0
8.277546420E-1,4.260000288E-1,4.431000233E0,8.907000542E0,9.957404167E0
8.297181710E-1,3.870000243E-1,4.392000198E0,8.907000542E0,9.938515654E0
8.316817190E-1,4.260000288E-1,4.431000233E0,8.944950104E0,9.991364844E0
8.336450890E-1,3.870000243E-1,4.468950272E0,8.869050026E0,9.938879912E0
8.356085020E-1,3.870000243E-1,4.431000233E0,8.869050026E0,9.921873837E0
8.375720610E-1,3.870000243E-1,4.468950272E0,8.907000542E0,9.972760109E0
8.395355770E-1,3.490500152E-1,4.431000233E0,8.907000542E0,9.954408954E0
8.414992540E-1,3.490500152E-1,4.468950272E0,8.869050026E0,9.937474569E0
8.434628840E-1,3.870000243E-1,4.468950272E0,8.983950615E0,1.004154640E1
8.454262780E-1,3.870000243E-1,4.431000233E0,8.944950104E0,9.989777998E0
8.473897380E-1,3.490500152E-1,4.431000233E0,8.869050026E0,9.920466085E0
8.493528840E-1,3.490500152E-1,4.468950272E0,8.907000542E0,9.971359541E0
8.513161220E-1,3.870000243E-1,4.468950272E0,8.907000542E0,9.972760109E0
8.532793520E-1,3.870000243E-1,4.468950272E0,8.869050026E0,9.938879912E0
8.552425840E-1,3.870000243E-1,4.431000233E0,8.944950104E0,9.989777998E0
8.572061450E-1,3.490500152E-1,4.431000233E0,8.907000542E0,9.954408954E0
8.591696300E-1,3.870000243E-1,4.507050037E0,8.944950104E0,1.002374189E1
8.611333580E-1,4.260000288E-1,4.468950272E0,8.907000542E0,9.974349663E0
8.630970140E-1,3.870000243E-1,4.468950272E0,8.869050026E0,9.938879912E0
8.650607130E-1,3.490500152E-1,4.507050037E0,8.907000542E0,9.988493110E0
8.670243990E-1,3.490500152E-1,4.431000233E0,8.907000542E0,9.954408954E0
8.689879530E-1,4.260000288E-1,4.468950272E0,8.869050026E0,9.940474884E0
8.709515500E-1,3.870000243E-1,4.468950272E0,8.907000542E0,9.972760109E0
8.729150780E-1,3.870000243E-1,4.468950272E0,8.830050468E0,9.904093943E0
8.748786270E-1,3.490500152E-1,4.468950272E0,8.907000542E0,9.971359541E0
8.768421640E-1,3.490500152E-1,4.507050037E0,8.791950226E0,9.886036856E0
8.788057040E-1,3.870000243E-1,4.468950272E0,8.907000542E0,9.972760109E0
8.807692570E-1,3.870000243E-1,4.507050037E0,8.869050026E0,9.956069376E0
8.827327960E-1,3.870000243E-1,4.468950272E0,8.830050468E0,9.904093943E0
8.846963340E-1,3.870000243E-1,4.507050037E0,8.830050468E0,9.921343676E0
8.866598730E-1,3.490500152E-1,4.545000076E0,8.830050468E0,9.937235676E0
8.886235900E-1,3.490500152E-1,4.468950272E0,8.869050026E0,9.937474569E0
8.905872550E-1,3.490500152E-1,4.507050037E0,8.830050468E0,9.919935848E0
8.925509560E-1,3.870000243E-1,4.545000076E0,8.869050026E0,9.973306527E0
8.945146440E-1,3.490500152E-1,4.507050037E0,8.869050026E0,9.954666459E0
8.964784720E-1,3.490500152E-1,4.468950272E0,8.869050026E0,9.937474569E0
8.984422590E-1,3.109500110E-1,4.507050037E0,8.869050026E0,9.953403353E0
9.004059360E-1,3.490500152E-1,4.545000076E0,8.869050026E0,9.971906035E0
9.023696460E-1,3.870000243E-1,4.507050037E0,8.907000542E0,9.989891276E0
9.043333790E-1,3.870000243E-1,4.507050037E0,8.869050026E0,9.956069376E0
9.062971050E-1,3.870000243E-1,4.507050037E0,8.869050026E0,9.956069376E0
9.082605670E-1,3.870000243E-1,4.507050037E0,8.869050026E0,9.956069376E0
9.102241070E-1,3.870000243E-1,4.507050037E0,8.907000542E0,9.989891276E0
9.121874650E-1,3.870000243E-1,4.507050037E0,8.907000542E0,9.989891276E0
9.141508770E-1,3.490500152E-1,4.507050037E0,8.907000542E0,9.988493110E0
9.161144650E-1,3.490500152E-1,4.545000076E0,8.907000542E0,1.000567440E1
9.180779810E-1,3.870000243E-1,4.545000076E0,8.983950615E0,1.007562223E1
9.200413890E-1,3.870000243E-1,4.545000076E0,8.907000542E0,1.000707017E1
9.220048290E-1,4.639500082E-1,4.468950272E0,8.907000542E0,9.976042541E0
9.239682040E-1,3.490500152E-1,4.468950272E0,8.944950104E0,1.000527285E1
9.259315980E-1,4.260000288E-1,4.507050037E0,8.869050026E0,9.957661594E0
9.278950960E-1,3.490500152E-1,4.468950272E0,8.944950104E0,1.000527285E1
9.298585770E-1,3.490500152E-1,4.468950272E0,8.944950104E0,1.000527285E1
9.318216310E-1,3.490500152E-1,4.468950272E0,8.944950104E0,1.000527285E1
9.337848100E-1,3.870000243E-1,4.507050037E0,8.944950104E0,1.002374189E1
9.357481840E-1,3.870000243E-1,4.468950272E0,8.944950104E0,1.000666867E1
9.377115000E-1,3.870000243E-1,4.431000233E0,8.944950104E0,9.989777998E0
9.396747370E-1,4.260000288E-1,4.468950272E0,8.944950104E0,1.000825284E1
9.416379830E-1,3.490500152E-1,4.468950272E0,8.983950615E0,1.004015543E1
9.436017500E-1,3.109500110E-1,4.431000233E0,8.907000542E0,9.953145815E0
9.455653650E-1,3.109500110E-1,4.468950272E0,8.907000542E0,9.970098550E0
9.475288910E-1,4.260000288E-1,4.468950272E0,8.983950615E0,1.004312507E1
9.494924440E-1,3.490500152E-1,4.392000198E0,8.944950104E0,9.971140056E0
9.514556150E-1,4.260000288E-1,4.431000233E0,8.944950104E0,9.991364844E0
9.534189010E-1,4.260000288E-1,4.431000233E0,8.983950615E0,1.002629581E1
9.553824820E-1,4.260000288E-1,4.431000233E0,8.983950615E0,1.002629581E1
9.573459760E-1,4.260000288E-1,4.392000198E0,8.983950615E0,1.000912136E1
9.593095670E-1,3.870000243E-1,4.392000198E0,8.944950104E0,9.972540655E0
9.612731300E-1,4.260000288E-1,4.392000198E0,8.907000542E0,9.940110684E0
9.632366410E-1,4.260000288E-1,4.431000233E0,8.983950615E0,1.002629581E1
9.652001840E-1,3.870000243E-1,4.431000233E0,8.983950615E0,1.002471450E1
9.671637220E-1,4.260000288E-1,4.431000233E0,8.944950104E0,9.991364844E0
9.691272610E-1,3.490500152E-1,4.431000233E0,8.907000542E0,9.954408954E0
9.710907990E-1,3.490500152E-1,4.431000233E0,8.907000542E0,9.954408954E0
9.730543380E-1,3.870000243E-1,4.431000233E0,8.907000542E0,9.955811907E0
9.750180610E-1,3.490500152E-1,4.468950272E0,8.907000542E0,9.971359541E0
9.769817260E-1,3.109500110E-1,4.431000233E0,8.869050026E0,9.919198624E0
9.789453790E-1,3.870000243E-1,4.507050037E0,8.869050026E0,9.956069376E0
9.809090360E-1,3.490500152E-1,4.468950272E0,8.907000542E0,9.971359541E0
9.828724190E-1,3.490500152E-1,4.468950272E0,8.830050468E0,9.902683662E0
9.848358820E-1,3.870000243E-1,4.431000233E0,8.907000542E0,9.955811907E0
9.867998170E-1,3.109500110E-1,4.507050037E0,8.791950226E0,9.884764981E0
9.887635960E-1,3.870000243E-1,4.545000076E0,8.830050468E0,9.938641053E0
9.907270490E-1,3.870000243E-1,4.545000076E0,8.869050026E0,9.973306527E0
9.926905980E-1,3.870000243E-1,4.507050037E0,8.791950226E0,9.887449511E0
9.946541790E-1,3.870000243E-1,4.507050037E0,8.830050468E0,9.921343676E0
9.966177500E-1,3.490500152E-1,4.507050037E0,8.791950226E0,9.886036856E0
9.985813130E-1,3.870000243E-1,4.507050037E0,8.869050026E0,9.956069376E0
1.000544858E0,3.870000243E-1,4.507050037E0,8.791950226E0,9.887449511E0
1.002507990E0,3.490500152E-1,4.468950272E0,8.830050468E0,9.902683662E0
1.004471243E0,3.870000243E-1,4.468950272E0,8.830050468E0,9.904093943E0
1.006435190E0,4.260000288E-1,4.507050037E0,8.791950226E0,9.889052778E0
1.008398933E0,4.260000288E-1,4.431000233E0,8.754000664E0,9.820782388E0
1.010362271E0,4.260000288E-1,4.431000233E0,8.791950226E0,9.854624694E0
1.012325718E0,3.870000243E-1,4.468950272E0,8.830050468E0,9.904093943E0
1.014289092E0,4.260000288E-1,4.392000198E0,8.791950226E0,9.837150530E0
1.016252487E0,4.639500082E-1,4.468950272E0,8.754000664E0,9.839679556E0
1.018216049E0,4.260000288E-1,4.468950272E0,8.791950226E0,9.871746620E0
1.020179562E0,4.260000288E-1,4.468950272E0,8.754000664E0,9.837963213E0
1.022142931E0,3.870000243E-1,4.431000233E0,8.754000664E0,9.819167974E0
1.024106339E0,4.260000288E-1,4.431000233E0,8.791950226E0,9.854624694E0
1.026069943E0,4.639500082E-1,4.431000233E0,8.754000664E0,9.822501733E0
1.028033490E0,4.260000288E-1,4.431000233E0,8.791950226E0,9.854624694E0
1.029997162E0,3.870000243E-1,4.468950272E0,8.830050468E0,9.904093943E0
1.031960798E0,4.260000288E-1,4.431000233E0,8.830050468E0,9.888631370E0
1.033924186E0,5.020500422E-1,4.468950272E0,8.830050468E0,9.909256382E0
1.035887646E0,4.260000288E-1,4.468950272E0,8.791950226E0,9.871746620E0
1.037850973E0,3.870000243E-1,4.507050037E0,8.830050468E0,9.921343676E0
1.039814339E0,3.870000243E-1,4.468950272E0,8.791950226E0,9.870140542E0
1.041777726E0,4.260000288E-1,4.468950272E0,8.869050026E0,9.940474884E0
1.043741106E0,4.260000288E-1,4.431000233E0,8.791950226E0,9.854624694E0
1.045704885E0,3.870000243E-1,4.468950272E0,8.830050468E0,9.904093943E0
1.047668523E0,3.870000243E-1,4.507050037E0,8.830050468E0,9.921343676E0
1.049632270E0,3.870000243E-1,4.507050037E0,8.869050026E0,9.956069376E0
1.051595985E0,3.870000243E-1,4.507050037E0,8.869050026E0,9.956069376E0
1.053559494E0,3.870000243E-1,4.507050037E0,8.830050468E0,9.921343676E0
1.055523064E0,3.490500152E-1,4.545000076E0,8.830050468E0,9.937235676E0
1.057486524E0,3.870000243E-1,4.507050037E0,8.869050026E0,9.956069376E0
1.059450036E0,3.490500152E-1,4.545000076E0,8.830050468E0,9.937235676E0
1.061413578E0,3.490500152E-1,4.545000076E0,8.830050468E0,9.937235676E0
1.063377111E0,3.870000243E-1,4.507050037E0,8.869050026E0,9.956069376E0
1.065340471E0,3.870000243E-1,4.545000076E0,8.869050026E0,9.973306527E0
1.067303882E0,3.870000243E-1,4.507050037E0,8.830050468E0,9.921343676E0
1.069267441E0,3.109500110E-1,4.545000076E0,8.944950104E0,1.003821936E1
1.071230957E0,3.109500110E-1,4.507050037E0,8.907000542E0,9.987234282E0
1.073194320E0,3.870000243E-1,4.507050037E0,8.907000542E0,9.989891276E0
1.075157728E0,4.260000288E-1,4.507050037E0,8.983950615E0,1.006013642E1
1.077121108E0,3.109500110E-1,4.507050037E0,8.983950615E0,1.005592157E1
1.079084497E0,3.109500110E-1,4.507050037E0,8.944950104E0,1.002109387E1
1.081048060E0,3.870000243E-1,4.507050037E0,8.983950615E0,1.005856042E1
1.083011572E0,3.490500152E-1,4.545000076E0,8.944950104E0,1.003947180E1
1.084975341E0,3.490500152E-1,4.507050037E0,9.022050858E0,1.009122082E1
1.086939034E0,3.870000243E-1,4.507050037E0,8.983950615E0,1.005856042E1
1.088902502E0,3.870000243E-1,4.468950272E0,9.022050858E0,1.007564823E1
1.090866036E0,3.490500152E-1,4.431000233E0,8.983950615E0,1.002332119E1
1.092829430E0,3.490500152E-1,4.468950272E0,8.983950615E0,1.004015543E1
1.094792872E0,3.109500110E-1,4.392000198E0,8.983950615E0,1.000488502E1
1.096756381E0,3.490500152E-1,4.431000233E0,9.022050858E0,1.005748481E1
1.098719870E0,3.490500152E-1,4.468950272E0,9.022050858E0,1.007426196E1
1.100683462E0,3.490500152E-1,4.431000233E0,8.983950615E0,1.002332119E1
1.102647024E0,3.490500152E-1,4.431000233E0,8.983950615E0,1.002332119E1
1.104610528E0,3.109500110E-1,4.431000233E0,9.022050858E0,1.005623462E1
1.106574040E0,3.870000243E-1,4.431000233E0,9.060000420E0,1.009292523E1
1.108537582E0,3.490500152E-1,4.468950272E0,9.022050858E0,1.007426196E1
1.110501115E0,3.490500152E-1,4.431000233E0,9.022050858E0,1.005748481E1
1.112464700E0,3.490500152E-1,4.431000233E0,9.060000420E0,1.009154134E1
1.114428269E0,3.490500152E-1,4.431000233E0,9.022050858E0,1.005748481E1
1.116391962E0,4.260000288E-1,4.392000198E0,9.022050858E0,1.004333328E1
1.118355601E0,3.109500110E-1,4.392000198E0,9.022050858E0,1.003911138E1
1.120318808E0,3.870000243E-1,4.392000198E0,9.022050858E0,1.004175465E1
1.122282141E0,4.260000288E-1,4.431000233E0,9.060000420E0,1.009449586E1
1.124245714E0,3.870000243E-1,4.392000198E0,9.022050858E0,1.004175465E1
1.126209216E0,4.260000288E-1,4.392000198E0,8.983950615E0,1.000912136E1
1.128172717E0,4.260000288E-1,4.354050159E0,9.022050858E0,1.002679562E1
1.130136218E0,3.870000243E-1,4.431000233E0,8.983950615E0,1.002471450E1
1.132099402E0,4.260000288E-1,4.392000198E0,9.022050858E0,1.004333328E1
1.134062679E0,3.870000243E-1,4.392000198E0,8.983950615E0,1.000753733E1
1.136026306E0,4.260000288E-1,4.392000198E0,8.983950615E0,1.000912136E1
1.137989831E0,3.870000243E-1,4.392000198E0,8.944950104E0,9.972540655E0
1.139953363E0,4.260000288E-1,4.392000198E0,8.944950104E0,9.974130244E0
1.141916899E0,3.870000243E-1,4.354050159E0,8.944950104E0,9.955885404E0
1.143880754E0,3.870000243E-1,4.392000198E0,8.983950615E0,1.000753733E1
1.145844515E0,3.870000243E-1,4.392000198E0,8.983950615E0,1.000753733E1
1.147808196E0,3.870000243E-1,4.354050159E0,8.944950104E0,9.955885404E0
1.149771901E0,4.260000288E-1,4.354050159E0,8.983950615E0,9.992527081E0
1.151735415E0,4.260000288E-1,4.354050159E0,8.944950104E0,9.957477651E0
1.153698982E0,4.260000288E-1,4.392000198E0,8.907000542E0,9.940110684E0
1.155662516E0,4.639500082E-1,4.392000198E0,8.983950615E0,1.001080836E1
1.157626059E0,4.260000288E-1,4.392000198E0,8.983950615E0,1.000912136E1
1.159589597E0,3.870000243E-1,4.431000233E0,8.983950615E0,1.002471450E1
1.161553136E0,3.870000243E-1,4.392000198E0,8.907000542E0,9.938515654E0
1.163516821E0,3.870000243E-1,4.431000233E0,8.944950104E0,9.989777998E0
1.165480486E0,3.870000243E-1,4.431000233E0,8.944950104E0,9.989777998E0
1.167444228E0,3.870000243E-1,4.392000198E0,8.944950104E0,9.972540655E0
1.169407947E0,3.870000243E-1,4.431000233E0,8.944950104E0,9.989777998E0
1.171371275E0,3.870000243E-1,4.431000233E0,8.983950615E0,1.002471450E1
1.173334718E0,3.870000243E-1,4.431000233E0,8.944950104E0,9.989777998E0
1.175298203E0,4.260000288E-1,4.431000233E0,8.944950104E0,9.991364844E0
1.177261692E0,4.260000288E-1,4.431000233E0,8.944950104E0,9.991364844E0
1.179224880E0,3.490500152E-1,4.431000233E0,8.944950104E0,9.988379815E0
1.181188156E0,4.260000288E-1,4.431000233E0,8.983950615E0,1.002629581E1
1.183151738E0,4.260000288E-1,4.431000233E0,8.944950104E0,9.991364844E0
1.185115231E0,3.870000243E-1,4.431000233E0,8.944950104E0,9.989777998E0
1.187078643E0,4.260000288E-1,4.468950272E0,8.907000542E0,9.974349663E0
1.189042079E0,4.260000288E-1,4.392000198E0,8.944950104E0,9.974130244E0
1.191005589E0,3.870000243E-1,4.468950272E0,8.907000542E0,9.972760109E0
1.192969077E0,3.870000243E-1,4.431000233E0,8.907000542E0,9.955811907E0
1.194932624E0,4.639500082E-1,4.468950272E0,8.907000542E0,9.976042541E0
1.196896154E0,3.870000243E-1,4.468950272E0,8.869050026E0,9.938879912E0
1.198859370E0,3.870000243E-1,4.431000233E0,8.869050026E0,9.921873837E0
1.200822685E0,3.870000243E-1,4.468950272E0,8.830050468E0,9.904093943E0
1.202786035E0,4.260000288E-1,4.507050037E0,8.869050026E0,9.957661594E0
1.204749375E0,4.260000288E-1,4.468950272E0,8.907000542E0,9.974349663E0
1.206713353E0,4.260000288E-1,4.468950272E0,8.869050026E0,9.940474884E0
1.208677144E0,4.260000288E-1,4.468950272E0,8.869050026E0,9.940474884E0
1.210641121E0,3.870000243E-1,4.468950272E0,8.791950226E0,9.870140542E0
1.212605053E0,3.870000243E-1,4.507050037E0,8.791950226E0,9.887449511E0
1.214568705E0,4.260000288E-1,4.468950272E0,8.791950226E0,9.871746620E0
1.216532440E0,3.870000243E-1,4.468950272E0,8.791950226E0,9.870140542E0
1.218495990E0,3.870000243E-1,4.507050037E0,8.791950226E0,9.887449511E0
1.220459594E0,3.870000243E-1,4.507050037E0,8.754000664E0,9.853719941E0
1.222423419E0,3.870000243E-1,4.468950272E0,8.830050468E0,9.904093943E0
1.224387191E0,4.260000288E-1,4.468950272E0,8.830050468E0,9.905694515E0
1.226350916E0,4.639500082E-1,4.507050037E0,8.754000664E0,9.857042014E0
1.228314655E0,4.260000288E-1,4.468950272E0,8.791950226E0,9.871746620E0
1.230278654E0,4.260000288E-1,4.468950272E0,8.830050468E0,9.905694515E0
1.232242576E0,4.639500082E-1,4.507050037E0,8.830050468E0,9.924643113E0
1.234206410E0,3.870000243E-1,4.468950272E0,8.715000153E0,9.801658697E0
1.236170270E0,4.260000288E-1,4.507050037E0,8.830050468E0,9.922941466E0
1.238133798E0,4.260000288E-1,4.468950272E0,8.830050468E0,9.905694515E0
1.240097424E0,4.639500082E-1,4.431000233E0,8.791950226E0,9.856338136E0
1.242061126E0,4.260000288E-1,4.507050037E0,8.791950226E0,9.889052778E0
1.244024806E0,3.870000243E-1,4.468950272E0,8.830050468E0,9.904093943E0
1.245988516E0,4.639500082E-1,4.468950272E0,8.791950226E0,9.873457090E0
1.247952206E0,4.260000288E-1,4.507050037E0,8.791950226E0,9.889052778E0
1.249915899E0,4.260000288E-1,4.507050037E0,8.715000153E0,9.820702812E0
1.251879591E0,3.490500152E-1,4.507050037E0,8.754000664E0,9.852302450E0
1.253843599E0,4.260000288E-1,4.507050037E0,8.791950226E0,9.889052778E0
1.255807514E0,3.490500152E-1,4.507050037E0,8.830050468E0,9.919935848E0
1.257771194E0,4.260000288E-1,4.545000076E0,8.830050468E0,9.940236063E0
1.259734957E0,3.490500152E-1,4.507050037E0,8.791950226E0,9.886036856E0
1.261698592E0,3.870000243E-1,4.507050037E0,8.791950226E0,9.887449511E0
1.263662265E0,3.490500152E-1,4.545000076E0,8.830050468E0,9.937235676E0
1.265625960E0,3.490500152E-1,4.545000076E0,8.830050468E0,9.937235676E0
1.267589648E0,3.490500152E-1,4.507050037E0,8.830050468E0,9.919935848E0
1.269553332E0,3.870000243E-1,4.545000076E0,8.830050468E0,9.938641053E0
1.271517023E0,3.870000243E-1,4.507050037E0,8.907000542E0,9.989891276E0
1.273480896E0,3.490500152E-1,4.507050037E0,8.869050026E0,9.954666459E0
1.275444716E0,3.870000243E-1,4.507050037E0,8.791950226E0,9.887449511E0
1.277408387E0,4.260000288E-1,4.468950272E0,8.869050026E0,9.940474884E0
1.279372102E0,3.870000243E-1,4.468950272E0,8.869050026E0,9.938879912E0
1.281335480E0,3.870000243E-1,4.468950272E0,8.869050026E0,9.938879912E0
1.283298953E0,3.490500152E-1,4.468950272E0,8.907000542E0,9.971359541E0
1.285262682E0,4.260000288E-1,4.468950272E0,8.944950104E0,1.000825284E1
1.287226336E0,3.870000243E-1,4.431000233E0,8.907000542E0,9.955811907E0
1.289190035E0,3.870000243E-1,4.468950272E0,8.944950104E0,1.000666867E1
1.291153721E0,3.490500152E-1,4.431000233E0,8.944950104E0,9.988379815E0
1.293117595E0,3.490500152E-1,4.468950272E0,8.907000542E0,9.971359541E0
1.295081413E0,3.870000243E-1,4.431000233E0,9.022050858E0,1.005887338E1
1.297045399E0,3.870000243E-1,4.468950272E0,8.944950104E0,1.000666867E1
1.299009336E0,4.260000288E-1,4.431000233E0,9.022050858E0,1.006044933E1
1.300973167E0,3.870000243E-1,4.431000233E0,8.983950615E0,1.002471450E1
1.302937030E0,4.260000288E-1,4.431000233E0,8.983950615E0,1.002629581E1
1.304900533E0,4.260000288E-1,4.431000233E0,9.022050858E0,1.006044933E1
1.306864159E0,4.260000288E-1,4.431000233E0,9.022050858E0,1.006044933E1
1.308827457E0,3.870000243E-1,4.431000233E0,8.983950615E0,1.002471450E1
1.310790852E0,3.490500152E-1,4.431000233E0,8.983950615E0,1.002332119E1
1.312754414E0,3.870000243E-1,4.431000233E0,8.983950615E0,1.002471450E1
1.314717927E0,3.490500152E-1,4.431000233E0,8.983950615E0,1.002332119E1
1.316681821E0,3.870000243E-1,4.431000233E0,8.983950615E0,1.002471450E1
1.318645610E0,3.490500152E-1,4.431000233E0,8.983950615E0,1.002332119E1
1.320609332E0,3.870000243E-1,4.431000233E0,8.983950615E0,1.002471450E1
1.322573073E0,3.870000243E-1,4.431000233E0,8.944950104E0,9.989777998E0
1.324536577E0,3.870000243E-1,4.468950272E0,8.944950104E0,1.000666867E1
1.326500150E0,3.870000243E-1,4.431000233E0,8.944950104E0,9.989777998E0
1.328463992E0,3.490500152E-1,4.468950272E0,8.944950104E0,1.000527285E1
1.330427759E0,3.870000243E-1,4.431000233E0,8.983950615E0,1.002471450E1
1.332391259E0,3.870000243E-1,4.431000233E0,8.944950104E0,9.989777998E0
1.334354838E0,3.490500152E-1,4.468950272E0,8.944950104E0,1.000527285E1
1.336318548E0,3.870000243E-1,4.468950272E0,8.983950615E0,1.004154640E1
1.338282220E0,3.870000243E-1,4.468950272E0,8.983950615E0,1.004154640E1
1.340245747E0,4.260000288E-1,4.468950272E0,8.907000542E0,9.974349663E0
1.342209309E0,3.870000243E-1,4.507050037E0,8.983950615E0,1.005856042E1
1.344173023E0,4.639500082E-1,4.431000233E0,8.944950104E0,9.993054840E0
1.346136692E0,4.260000288E-1,4.468950272E0,8.983950615E0,1.004312507E1
1.348100388E0,4.260000288E-1,4.468950272E0,8.944950104E0,1.000825284E1
1.350064076E0,3.870000243E-1,4.468950272E0,8.907000542E0,9.972760109E0
1.352027308E0,4.260000288E-1,4.507050037E0,8.944950104E0,1.002532336E1
1.353990650E0,3.870000243E-1,4.468950272E0,8.907000542E0,9.972760109E0
1.355954581E0,4.260000288E-1,4.468950272E0,8.907000542E0,9.974349663E0
1.357918340E0,3.870000243E-1,4.507050037E0,8.907000542E0,9.989891276E0
1.359881842E0,4.260000288E-1,4.507050037E0,8.907000542E0,9.991478105E0
1.361845419E0,4.260000288E-1,4.468950272E0,8.869050026E0,9.940474884E0
1.363808930E0,3.870000243E-1,4.468950272E0,8.791950226E0,9.870140542E0
1.365772443E0,3.870000243E-1,4.468950272E0,8.869050026E0,9.938879912E0
1.367735671E0,4.260000288E-1,4.468950272E0,8.869050026E0,9.940474884E0
1.369698982E0,3.870000243E-1,4.507050037E0,8.869050026E0,9.956069376E0
1.371662513E0,3.870000243E-1,4.468950272E0,8.869050026E0,9.938879912E0
1.373625980E0,3.870000243E-1,4.507050037E0,8.869050026E0,9.956069376E0
1.375589351E0,3.490500152E-1,4.507050037E0,8.830050468E0,9.919935848E0
1.377552751E0,3.490500152E-1,4.507050037E0,8.869050026E0,9.954666459E0
1.379516357E0,3.490500152E-1,4.545000076E0,8.869050026E0,9.971906035E0
1.381479903E0,3.490500152E-1,4.507050037E0,8.869050026E0,9.954666459E0
1.383443575E0,3.490500152E-1,4.468950272E0,8.869050026E0,9.937474569E0
1.385407210E0,3.109500110E-1,4.507050037E0,8.869050026E0,9.953403353E0
1.387370743E0,3.490500152E-1,4.468950272E0,8.869050026E0,9.937474569E0
1.389334299E0,3.490500152E-1,4.507050037E0,8.907000542E0,9.988493110E0
1.391298059E0,3.490500152E-1,4.468950272E0,8.907000542E0,9.971359541E0
1.393261759E0,3.870000243E-1,4.507050037E0,8.907000542E0,9.989891276E0
1.395225585E0,3.490500152E-1,4.507050037E0,8.907000542E0,9.988493110E0
1.397189374E0,3.490500152E-1,4.468950272E0,8.907000542E0,9.971359541E0
1.399153110E0,3.490500152E-1,4.507050037E0,8.907000542E0,9.988493110E0
1.401116852E0,3.490500152E-1,4.468950272E0,8.907000542E0,9.971359541E0
1.403080535E0,3.490500152E-1,4.431000233E0,8.907000542E0,9.954408954E0
1.405044236E0,3.490500152E-1,4.507050037E0,8.869050026E0,9.954666459E0
1.407007927E0,3.870000243E-1,4.431000233E0,8.869050026E0,9.921873837E0
1.408971621E0,4.260000288E-1,4.431000233E0,8.869050026E0,9.923471542E0
1.410935138E0,3.870000243E-1,4.431000233E0,8.869050026E0,9.921873837E0
1.412898703E0,3.870000243E-1,4.468950272E0,8.869050026E0,9.938879912E0
1.414862011E0,3.109500110E-1,4.468950272E0,8.869050026E0,9.936209277E0
1.416825395E0,3.870000243E-1,4.468950272E0,8.869050026E0,9.938879912E0
1.418788419E0,3.870000243E-1,4.431000233E0,8.907000542E0,9.955811907E0
1.420751549E0,3.870000243E-1,4.431000233E0,8.907000542E0,9.955811907E0
1.422715187E0,4.260000288E-1,4.431000233E0,8.907000542E0,9.957404167E0
1.424678686E0,4.260000288E-1,4.431000233E0,8.944950104E0,9.991364844E0
1.426642231E0,3.870000243E-1,4.431000233E0,8.907000542E0,9.955811907E0
1.428605763E0,4.260000288E-1,4.468950272E0,8.944950104E0,1.000825284E1
1.430569303E0,4.260000288E-1,4.431000233E0,8.907000542E0,9.957404167E0
1.432532840E0,4.260000288E-1,4.392000198E0,8.869050026E0,9.906118823E0
1.434496534E0,4.260000288E-1,4.431000233E0,8.907000542E0,9.957404167E0
1.436460168E0,3.870000243E-1,4.392000198E0,8.869050026E0,9.904518319E0
1.438423870E0,4.260000288E-1,4.392000198E0,8.869050026E0,9.906118823E0
1.440387552E0,4.260000288E-1,4.392000198E0,8.907000542E0,9.940110684E0
1.442351067E0,3.870000243E-1,4.431000233E0,8.869050026E0,9.921873837E0
1.444314631E0,4.260000288E-1,4.392000198E0,8.907000542E0,9.940110684E0
1.446278193E0,4.260000288E-1,4.431000233E0,8.907000542E0,9.957404167E0
1.448241736E0,4.639500082E-1,4.354050159E0,8.869050026E0,9.891059133E0
1.450204958E0,4.260000288E-1,4.392000198E0,8.907000542E0,9.940110684E0
1.452168275E0,4.260000288E-1,4.431000233E0,8.907000542E0,9.957404167E0
1.454132030E0,3.870000243E-1,4.392000198E0,8.944950104E0,9.972540655E0
1.456095657E0,4.639500082E-1,4.392000198E0,8.907000542E0,9.941809393E0
1.458059357E0,4.260000288E-1,4.354050159E0,8.907000542E0,9.923401003E0
1.460023038E0,4.639500082E-1,4.392000198E0,8.944950104E0,9.975823160E0
1.461986328E0,4.260000288E-1,4.431000233E0,8.869050026E0,9.923471542E0
1.463949732E0,4.260000288E-1,4.468950272E0,8.907000542E0,9.974349663E0
1.465913113E0,4.260000288E-1,4.431000233E0,8.944950104E0,9.991364844E0
1.467876501E0,3.870000243E-1,4.431000233E0,8.907000542E0,9.955811907E0
1.469840063E0,4.260000288E-1,4.431000233E0,8.944950104E0,9.991364844E0
1.471803575E0,4.639500082E-1,4.468950272E0,8.869050026E0,9.942173530E0
1.473766804E0,4.639500082E-1,4.431000233E0,8.944950104E0,9.993054840E0
1.475730116E0,4.260000288E-1,4.392000198E0,8.907000542E0,9.940110684E0
1.477693467E0,4.639500082E-1,4.431000233E0,8.907000542E0,9.959099925E0
1.479656806E0,4.260000288E-1,4.468950272E0,8.907000542E0,9.974349663E0
1.481620041E0,4.639500082E-1,4.468950272E0,8.869050026E0,9.942173530E0
1.483583323E0,5.020500422E-1,4.392000198E0,8.907000542E0,9.943660223E0
1.485546859E0,4.639500082E-1,4.431000233E0,8.869050026E0,9.925173098E0
1.487510321E0,4.639500082E-1,4.468950272E0,8.907000542E0,9.976042541E0
1.489473917E0,4.639500082E-1,4.431000233E0,8.869050026E0,9.925173098E0
1.491437474E0,4.639500082E-1,4.392000198E0,8.944950104E0,9.975823160E0
1.493400809E0,4.639500082E-1,4.431000233E0,8.869050026E0,9.925173098E0
1.495364193E0,4.639500082E-1,4.431000233E0,8.869050026E0,9.925173098E0
1.497327577E0,4.260000288E-1,4.431000233E0,8.907000542E0,9.957404167E0
1.499290961E0,4.639500082E-1,4.431000233E0,8.907000542E0,9.959099925E0
1.501254166E0,4.639500082E-1,4.431000233E0,8.869050026E0,9.925173098E0
1.503217424E0,4.260000288E-1,4.431000233E0,8.869050026E0,9.923471542E0
1.505180865E0,4.260000288E-1,4.431000233E0,8.869050026E0,9.923471542E0
1.507144259E0,3.870000243E-1,4.431000233E0,8.907000542E0,9.955811907E0
1.509107463E0,4.639500082E-1,4.431000233E0,8.944950104E0,9.993054840E0
1.511070722E0,4.639500082E-1,4.431000233E0,8.907000542E0,9.959099925E0
1.513034128E0,4.639500082E-1,4.468950272E0,8.944950104E0,1.000993998E1
1.514997490E0,4.260000288E-1,4.431000233E0,8.944950104E0,9.991364844E0
1.516960897E0,4.260000288E-1,4.431000233E0,8.907000542E0,9.957404167E0
1.518924278E0,4.260000288E-1,4.431000233E0,8.944950104E0,9.991364844E0
1.520887844E0,4.260000288E-1,4.468950272E0,8.907000542E0,9.974349663E0
1.522851355E0,4.639500082E-1,4.468950272E0,8.944950104E0,1.000993998E1
1.524814898E0,4.260000288E-1,4.431000233E0,8.944950104E0,9.991364844E0
1.526778432E0,4.639500082E-1,4.431000233E0,8.907000542E0,9.959099925E0
1.528741733E0,4.639500082E-1,4.392000198E0,8.907000542E0,9.941809393E0
1.530705112E0,4.639500082E-1,4.392000198E0,8.869050026E0,9.907823359E0
1.532668496E0,4.260000288E-1,4.431000233E0,8.869050026E0,9.923471542E0
1.534631879E0,4.260000288E-1,4.431000233E0,8.907000542E0,9.957404167E0
1.536595309E0,4.260000288E-1,4.431000233E0,8.869050026E0,9.923471542E0
1.538558725E0,4.639500082E-1,4.431000233E0,8.907000542E0,9.959099925E0
1.540521920E0,4.639500082E-1,4.431000233E0,8.907000542E0,9.959099925E0
1.542485184E0,4.260000288E-1,4.392000198E0,8.907000542E0,9.940110684E0
1.544448904E0,4.639500082E-1,4.431000233E0,8.907000542E0,9.959099925E0
1.546412490E0,4.260000288E-1,4.392000198E0,8.907000542E0,9.940110684E0
1.548375661E0,4.260000288E-1,4.431000233E0,8.944950104E0,9.991364844E0
1.550338953E0,4.639500082E-1,4.392000198E0,8.869050026E0,9.907823359E0
1.552302382E0,4.260000288E-1,4.468950272E0,8.907000542E0,9.974349663E0
1.554265782E0,4.260000288E-1,4.431000233E0,8.907000542E0,9.957404167E0
1.556229166E0,4.639500082E-1,4.392000198E0,8.907000542E0,9.941809393E0
1.558192554E0,4.639500082E-1,4.431000233E0,8.907000542E0,9.959099925E0
1.560155938E0,4.260000288E-1,4.431000233E0,8.944950104E0,9.991364844E0
1.562119323E0,4.260000288E-1,4.392000198E0,8.907000542E0,9.940110684E0
1.564082993E0,4.260000288E-1,4.392000198E0,8.907000542E0,9.940110684E0
1.566046600E0,4.639500082E-1,4.392000198E0,8.907000542E0,9.941809393E0
1.568009948E0,4.260000288E-1,4.431000233E0,8.869050026E0,9.923471542E0
1.569973372E0,3.870000243E-1,4.392000198E0,8.944950104E0,9.972540655E0
1.571936795E0,4.639500082E-1,4.431000233E0,8.907000542E0,9.959099925E0
1.573900218E0,4.260000288E-1,4.468950272E0,8.869050026E0,9.940474884E0
1.575863555E0,3.870000243E-1,4.431000233E0,8.869050026E0,9.921873837E0
1.577826914E0,3.870000243E-1,4.468950272E0,8.907000542E0,9.972760109E0
1.579790527E0,3.870000243E-1,4.468950272E0,8.869050026E0,9.938879912E0
1.581754066E0,4.260000288E-1,4.431000233E0,8.907000542E0,9.957404167E0
1.583717425E0,4.260000288E-1,4.431000233E0,8.869050026E0,9.923471542E0
1.585680837E0,4.260000288E-1,4.468950272E0,8.869050026E0,9.940474884E0
1.587644351E0,3.870000243E-1,4.468950272E0,8.907000542E0,9.972760109E0
1.589607835E0,4.260000288E-1,4.431000233E0,8.907000542E0,9.957404167E0
1.591570888E0,3.870000243E-1,4.468950272E0,8.907000542E0,9.972760109E0
1.593534068E0,4.260000288E-1,4.468950272E0,8.869050026E0,9.940474884E0
1.595497802E0,3.870000243E-1,4.507050037E0,8.907000542E0,9.989891276E0
1.597461374E0,3.490500152E-1,4.468950272E0,8.907000542E0,9.971359541E0
1.599424752E0,4.639500082E-1,4.507050037E0,8.907000542E0,9.993168081E0
1.601388170E0,3.870000243E-1,4.468950272E0,8.907000542E0,9.972760109E0
1.603351549E0,4.260000288E-1,4.468950272E0,8.907000542E0,9.974349663E0
1.605314939E0,4.260000288E-1,4.507050037E0,8.869050026E0,9.957661594E0
1.607278188E0,4.260000288E-1,4.431000233E0,8.907000542E0,9.957404167E0
1.609241478E0,4.639500082E-1,4.468950272E0,8.907000542E0,9.976042541E0
1.611205383E0,4.260000288E-1,4.468950272E0,8.907000542E0,9.974349663E0
1.613169101E0,4.260000288E-1,4.507050037E0,8.907000542E0,9.991478105E0
1.615132834E0,4.260000288E-1,4.431000233E0,8.907000542E0,9.957404167E0
1.617096563E0,4.260000288E-1,4.468950272E0,8.907000542E0,9.974349663E0
1.619059844E0,4.260000288E-1,4.507050037E0,8.907000542E0,9.991478105E0
1.621023257E0,3.870000243E-1,4.507050037E0,8.869050026E0,9.956069376E0
1.622986837E0,3.870000243E-1,4.468950272E0,8.869050026E0,9.938879912E0
1.624950385E0,4.260000288E-1,4.507050037E0,8.869050026E0,9.957661594E0
1.626913923E0,4.260000288E-1,4.507050037E0,8.869050026E0,9.957661594E0
1.628877464E0,4.260000288E-1,4.507050037E0,8.869050026E0,9.957661594E0
1.630841002E0,3.490500152E-1,4.507050037E0,8.869050026E0,9.954666459E0
1.632804541E0,3.870000243E-1,4.468950272E0,8.869050026E0,9.938879912E0
1.634768029E0,3.870000243E-1,4.507050037E0,8.869050026E0,9.956069376E0
1.636731536E0,3.870000243E-1,4.468950272E0,8.830050468E0,9.904093943E0
1.638694764E0,3.870000243E-1,4.507050037E0,8.869050026E0,9.956069376E0
1.640658074E0,3.490500152E-1,4.507050037E0,8.869050026E0,9.954666459E0
1.642621291E0,4.260000288E-1,4.468950272E0,8.830050468E0,9.905694515E0
1.644584536E0,4.260000288E-1,4.468950272E0,8.907000542E0,9.974349663E0
1.646548084E0,4.260000288E-1,4.507050037E0,8.907000542E0,9.991478105E0
1.648511539E0,4.260000288E-1,4.468950272E0,8.869050026E0,9.940474884E0
1.650474912E0,3.490500152E-1,4.468950272E0,8.907000542E0,9.971359541E0
1.652438310E0,3.870000243E-1,4.468950272E0,8.869050026E0,9.938879912E0
1.654401872E0,3.870000243E-1,4.431000233E0,8.869050026E0,9.921873837E0
1.656365385E0,3.870000243E-1,4.468950272E0,8.907000542E0,9.972760109E0
1.658329333E0,4.260000288E-1,4.431000233E0,8.907000542E0,9.957404167E0
1.660293154E0,4.260000288E-1,4.468950272E0,8.907000542E0,9.974349663E0
1.662256826E0,4.639500082E-1,4.431000233E0,8.944950104E0,9.993054840E0
1.664220541E0,4.639500082E-1,4.392000198E0,8.944950104E0,9.975823160E0
1.666184184E0,4.260000288E-1,4.392000198E0,8.907000542E0,9.940110684E0
1.668147849E0,4.260000288E-1,4.392000198E0,8.907000542E0,9.940110684E0
1.670111370E0,4.639500082E-1,4.392000198E0,8.907000542E0,9.941809393E0
1.672074930E0,4.639500082E-1,4.431000233E0,8.983950615E0,1.002797992E1
1.674038509E0,4.260000288E-1,4.431000233E0,8.944950104E0,9.991364844E0
1.676002082E0,4.260000288E-1,4.392000198E0,8.944950104E0,9.974130244E0
1.677965930E0,4.260000288E-1,4.392000198E0,8.983950615E0,1.000912136E1
1.679929698E0,4.260000288E-1,4.392000198E0,8.944950104E0,9.974130244E0
1.681893193E0,4.260000288E-1,4.431000233E0,8.983950615E0,1.002629581E1
1.683856772E0,4.260000288E-1,4.392000198E0,8.944950104E0,9.974130244E0
1.685820482E0,4.260000288E-1,4.431000233E0,8.944950104E0,9.991364844E0
1.687784154E0,3.870000243E-1,4.507050037E0,8.944950104E0,1.002374189E1
1.689748031E0,3.490500152E-1,4.468950272E0,8.944950104E0,1.000527285E1
1.691711847E0,3.490500152E-1,4.468950272E0,8.944950104E0,1.000527285E1
1.693675383E0,3.490500152E-1,4.507050037E0,8.944950104E0,1.002234844E1
1.695639002E0,3.870000243E-1,4.468950272E0,8.944950104E0,1.000666867E1
1.697602661E0,3.109500110E-1,4.507050037E0,8.869050026E0,9.953403353E0
1.699566308E0,3.490500152E-1,4.468950272E0,8.944950104E0,1.000527285E1
1.701529829E0,2.719500065E-1,4.507050037E0,8.907000542E0,9.986096109E0
1.703493387E0,3.109500110E-1,4.468950272E0,8.869050026E0,9.936209277E0
1.705457096E0,2.719500065E-1,4.468950272E0,8.869050026E0,9.935065259E0
1.707420765E0,3.109500110E-1,4.507050037E0,8.907000542E0,9.987234282E0
1.709384461E0,3.490500152E-1,4.507050037E0,8.907000542E0,9.988493110E0
1.711348149E0,3.870000243E-1,4.468950272E0,8.869050026E0,9.938879912E0
1.713311528E0,3.490500152E-1,4.468950272E0,8.907000542E0,9.971359541E0
1.715274997E0,3.109500110E-1,4.507050037E0,8.907000542E0,9.987234282E0
1.717238701E0,3.870000243E-1,4.431000233E0,8.869050026E0,9.921873837E0
1.719202322E0,3.490500152E-1,4.431000233E0,8.907000542E0,9.954408954E0
1.721165532E0,3.870000243E-1,4.431000233E0,8.907000542E0,9.955811907E0
1.723128863E0,3.870000243E-1,4.392000198E0,8.907000542E0,9.938515654E0
1.725092391E0,3.870000243E-1,4.431000233E0,8.907000542E0,9.955811907E0
1.727055861E0,3.870000243E-1,4.431000233E0,8.869050026E0,9.921873837E0
1.729019237E0,4.260000288E-1,4.392000198E0,8.907000542E0,9.940110684E0
1.730982637E0,4.260000288E-1,4.431000233E0,8.983950615E0,1.002629581E1
1.732946019E0,3.870000243E-1,4.392000198E0,8.944950104E0,9.972540655E0
1.734909406E0,3.870000243E-1,4.392000198E0,8.983950615E0,1.000753733E1
1.736872610E0,3.870000243E-1,4.392000198E0,8.983950615E0,1.000753733E1
1.738835868E0,4.260000288E-1,4.431000233E0,8.944950104E0,9.991364844E0
1.740799332E0,4.639500082E-1,4.431000233E0,8.944950104E0,9.993054840E0
1.742762726E0,4.260000288E-1,4.431000233E0,8.907000542E0,9.957404167E0
1.744726289E0,3.870000243E-1,4.431000233E0,8.944950104E0,9.989777998E0
1.746689803E0,3.870000243E-1,4.431000233E0,8.944950104E0,9.989777998E0
1.748653526E0,4.260000288E-1,4.431000233E0,8.907000542E0,9.957404167E0
1.750617187E0,3.870000243E-1,4.392000198E0,8.944950104E0,9.972540655E0
1.752580510E0,3.870000243E-1,4.392000198E0,8.944950104E0,9.972540655E0
1.754543911E0,4.260000288E-1,4.468950272E0,8.944950104E0,1.000825284E1
1.756507652E0,4.260000288E-1,4.468950272E0,8.869050026E0,9.940474884E0
1.758471293E0,3.870000243E-1,4.468950272E0,8.830050468E0,9.904093943E0
1.760434635E0,4.260000288E-1,4.468950272E0,8.907000542E0,9.974349663E0
1.762398065E0,3.490500152E-1,4.468950272E0,8.869050026E0,9.937474569E0
1.764361437E0,3.870000243E-1,4.468950272E0,8.869050026E0,9.938879912E0
1.766324829E0,3.870000243E-1,4.507050037E0,8.869050026E0,9.956069376E0
1.768288077E0,3.870000243E-1,4.507050037E0,8.869050026E0,9.956069376E0
1.770251367E0,3.870000243E-1,4.545000076E0,8.869050026E0,9.973306527E0
1.772215082E0,3.870000243E-1,4.507050037E0,8.907000542E0,9.989891276E0
1.774178673E0,3.870000243E-1,4.545000076E0,8.830050468E0,9.938641053E0
1.776142235E0,3.870000243E-1,4.507050037E0,8.907000542E0,9.989891276E0
1.778105815E0,3.870000243E-1,4.507050037E0,8.869050026E0,9.956069376E0
1.780069121E0,3.870000243E-1,4.545000076E0,8.869050026E0,9.973306527E0
1.782032507E0,3.490500152E-1,4.584000111E0,8.907000542E0,1.002345008E1
1.783996071E0,3.490500152E-1,4.545000076E0,8.907000542E0,1.000567440E1
1.785959582E0,3.490500152E-1,4.507050037E0,8.907000542E0,9.988493110E0
1.787922916E0,3.870000243E-1,4.545000076E0,8.907000542E0,1.000707017E1
1.789886323E0,3.490500152E-1,4.545000076E0,8.944950104E0,1.003947180E1
1.791849928E0,3.490500152E-1,4.507050037E0,8.907000542E0,9.988493110E0
1.793813475E0,3.870000243E-1,4.507050037E0,8.869050026E0,9.956069376E0
1.795776968E0,3.870000243E-1,4.468950272E0,8.944950104E0,1.000666867E1
1.797740477E0,3.870000243E-1,4.507050037E0,8.869050026E0,9.956069376E0
1.799703899E0,3.870000243E-1,4.545000076E0,8.907000542E0,1.000707017E1
1.801667337E0,3.490500152E-1,4.507050037E0,8.869050026E0,9.954666459E0
1.803630892E0,3.870000243E-1,4.468950272E0,8.907000542E0,9.972760109E0
1.805594412E0,3.870000243E-1,4.468950272E0,8.907000542E0,9.972760109E0
1.807557595E0,3.490500152E-1,4.468950272E0,8.869050026E0,9.937474569E0
1.809520876E0,3.870000243E-1,4.468950272E0,8.869050026E0,9.938879912E0
1.811484218E0,4.260000288E-1,4.468950272E0,8.869050026E0,9.940474884E0
1.813447552E0,3.870000243E-1,4.468950272E0,8.907000542E0,9.972760109E0
1.815410945E0,4.260000288E-1,4.468950272E0,8.907000542E0,9.974349663E0
1.817374321E0,3.870000243E-1,4.431000233E0,8.869050026E0,9.921873837E0
1.819337887E0,3.870000243E-1,4.431000233E0,8.907000542E0,9.955811907E0
1.821301398E0,4.260000288E-1,4.468950272E0,8.907000542E0,9.974349663E0
1.823264757E0,4.260000288E-1,4.468950272E0,8.983950615E0,1.004312507E1
1.825228165E0,4.260000288E-1,4.431000233E0,8.907000542E0,9.957404167E0
1.827191410E0,4.260000288E-1,4.431000233E0,8.907000542E0,9.957404167E0
1.829154703E0,4.260000288E-1,4.392000198E0,8.907000542E0,9.940110684E0
1.831118102E0,4.260000288E-1,4.392000198E0,8.944950104E0,9.974130244E0
1.833081470E0,4.260000288E-1,4.392000198E0,8.907000542E0,9.940110684E0
1.835044809E0,3.870000243E-1,4.392000198E0,8.944950104E0,9.972540655E0
1.837008160E0,4.260000288E-1,4.392000198E0,8.907000542E0,9.940110684E0
1.838971415E0,3.870000243E-1,4.392000198E0,8.944950104E0,9.972540655E0
1.840934698E0,4.260000288E-1,4.392000198E0,8.944950104E0,9.974130244E0
1.842898099E0,3.490500152E-1,4.354050159E0,8.907000542E0,9.920395524E0
1.844861465E0,3.870000243E-1,4.392000198E0,8.907000542E0,9.938515654E0
1.846825195E0,4.260000288E-1,4.354050159E0,8.944950104E0,9.957477651E0
1.848788831E0,4.260000288E-1,4.392000198E0,8.944950104E0,9.974130244E0
1.850752128E0,4.260000288E-1,4.392000198E0,8.869050026E0,9.906118823E0
1.852715525E0,4.260000288E-1,4.392000198E0,8.869050026E0,9.906118823E0
1.854678773E0,4.260000288E-1,4.431000233E0,8.944950104E0,9.991364844E0
1.856642064E0,4.260000288E-1,4.392000198E0,8.907000542E0,9.940110684E0
1.858605613E0,3.870000243E-1,4.431000233E0,8.869050026E0,9.921873837E0
1.860569076E0,4.260000288E-1,4.431000233E0,8.907000542E0,9.957404167E0
1.862532628E0,4.260000288E-1,4.431000233E0,8.907000542E0,9.957404167E0
1.864496153E0,4.260000288E-1,4.431000233E0,8.907000542E0,9.957404167E0
1.866459379E0,4.260000288E-1,4.392000198E0,8.869050026E0,9.906118823E0
1.868422693E0,4.260000288E-1,4.431000233E0,8.830050468E0,9.888631370E0
1.870386029E0,4.639500082E-1,4.431000233E0,8.907000542E0,9.959099925E0
1.872349369E0,3.490500152E-1,4.431000233E0,8.869050026E0,9.920466085E0
1.874312762E0,3.870000243E-1,4.431000233E0,8.869050026E0,9.921873837E0
1.876276139E0,3.870000243E-1,4.431000233E0,8.869050026E0,9.921873837E0
1.878239705E0,4.260000288E-1,4.431000233E0,8.830050468E0,9.888631370E0
1.880203216E0,4.639500082E-1,4.431000233E0,8.869050026E0,9.925173098E0
1.882166944E0,4.260000288E-1,4.392000198E0,8.907000542E0,9.940110684E0
1.884130605E0,4.260000288E-1,4.468950272E0,8.907000542E0,9.974349663E0
1.886093988E0,3.870000243E-1,4.468950272E0,8.944950104E0,1.000666867E1
1.888057453E0,4.639500082E-1,4.431000233E0,8.907000542E0,9.959099925E0
1.890021183E0,4.639500082E-1,4.468950272E0,8.907000542E0,9.976042541E0
1.891984836E0,4.639500082E-1,4.392000198E0,8.907000542E0,9.941809393E0
1.893948494E0,4.639500082E-1,4.431000233E0,8.907000542E0,9.959099925E0
1.895912148E0,4.260000288E-1,4.431000233E0,8.907000542E0,9.957404167E0
1.897875532E0,4.260000288E-1,4.468950272E0,8.869050026E0,9.940474884E0
1.899838996E0,4.639500082E-1,4.431000233E0,8.869050026E0,9.925173098E0
1.901802367E0,4.260000288E-1,4.468950272E0,8.869050026E0,9.940474884E0
1.903765765E0,4.639500082E-1,4.468950272E0,8.869050026E0,9.942173530E0
1.905729322E0,4.639500082E-1,4.468950272E0,8.869050026E0,9.942173530E0
1.907692835E0,4.260000288E-1,4.468950272E0,8.869050026E0,9.940474884E0
1.909656513E0,4.260000288E-1,4.507050037E0,8.869050026E0,9.957661594E0
1.911620143E0,3.870000243E-1,4.507050037E0,8.869050026E0,9.956069376E0
1.913583486E0,4.260000288E-1,4.507050037E0,8.869050026E0,9.957661594E0
1.915546914E0,3.870000243E-1,4.468950272E0,8.907000542E0,9.972760109E0
1.917510296E0,4.260000288E-1,4.468950272E0,8.907000542E0,9.974349663E0
1.919473688E0,4.639500082E-1,4.507050037E0,8.869050026E0,9.959357309E0
1.921437431E0,3.870000243E-1,4.507050037E0,8.869050026E0,9.956069376E0
1.923401071E0,4.260000288E-1,4.507050037E0,8.830050468E0,9.922941466E0
1.925364817E0,4.260000288E-1,4.468950272E0,8.869050026E0,9.940474884E0
1.927328532E0,4.260000288E-1,4.507050037E0,8.830050468E0,9.922941466E0
1.929292177E0,3.490500152E-1,4.507050037E0,8.830050468E0,9.919935848E0
1.931255842E0,3.870000243E-1,4.507050037E0,8.830050468E0,9.921343676E0
1.933219359E0,4.639500082E-1,4.507050037E0,8.944950104E0,1.002700763E1
1.935182919E0,3.870000243E-1,4.468950272E0,8.869050026E0,9.938879912E0
1.937146454E0,4.260000288E-1,4.507050037E0,8.907000542E0,9.991478105E0
1.939109996E0,4.260000288E-1,4.507050037E0,8.830050468E0,9.922941466E0
1.941073043E0,3.870000243E-1,4.468950272E0,8.869050026E0,9.938879912E0
1.943036232E0,4.260000288E-1,4.468950272E0,8.907000542E0,9.974349663E0
1.944999604E0,3.870000243E-1,4.468950272E0,8.869050026E0,9.938879912E0
1.946962922E0,4.639500082E-1,4.468950272E0,8.907000542E0,9.976042541E0
1.948926184E0,3.870000243E-1,4.468950272E0,8.907000542E0,9.972760109E0
1.950889463E0,3.870000243E-1,4.468950272E0,8.869050026E0,9.938879912E0
1.952852981E0,4.260000288E-1,4.468950272E0,8.944950104E0,1.000825284E1
1.954816442E0,3.870000243E-1,4.468950272E0,8.869050026E0,9.938879912E0
1.956779860E0,3.870000243E-1,4.468950272E0,8.907000542E0,9.972760109E0
1.958743290E0,3.870000243E-1,4.431000233E0,8.907000542E0,9.955811907E0
1.960706846E0,4.260000288E-1,4.468950272E0,8.907000542E0,9.974349663E0
1.962670365E0,4.260000288E-1,4.468950272E0,8.907000542E0,9.974349663E0
1.964633921E0,4.260000288E-1,4.392000198E0,9.022050858E0,1.004333328E1
1.966597456E0,3.870000243E-1,4.468950272E0,8.907000542E0,9.972760109E0
1.968560995E0,4.260000288E-1,4.468950272E0,8.944950104E0,1.000825284E1
1.970524533E0,4.260000288E-1,4.431000233E0,8.907000542E0,9.957404167E0
1.972488071E0,3.870000243E-1,4.431000233E0,8.944950104E0,9.989777998E0
1.974451609E0,4.260000288E-1,4.431000233E0,8.907000542E0,9.957404167E0
1.976415288E0,3.870000243E-1,4.431000233E0,8.944950104E0,9.989777998E0
1.978378922E0,3.490500152E-1,4.431000233E0,8.944950104E0,9.988379815E0
1.980342265E0,3.490500152E-1,4.431000233E0,8.944950104E0,9.988379815E0
1.982305693E0,4.639500082E-1,4.431000233E0,8.983950615E0,1.002797992E1
1.984268935E0,3.870000243E-1,4.431000233E0,8.944950104E0,9.989777998E0
1.986232232E0,3.870000243E-1,4.431000233E0,8.983950615E0,1.002471450E1
1.988195575E0,4.639500082E-1,4.392000198E0,8.944950104E0,9.975823160E0
1.990158912E0,4.260000288E-1,4.468950272E0,8.944950104E0,1.000825284E1
1.992122305E0,3.870000243E-1,4.431000233E0,8.983950615E0,1.002471450E1
1.994085681E0,4.260000288E-1,4.431000233E0,8.944950104E0,9.991364844E0
1.996049113E0,3.870000243E-1,4.431000233E0,8.944950104E0,9.989777998E0
1.998012528E0,3.870000243E-1,4.392000198E0,8.944950104E0,9.972540655E0
1.999976437E0,3.870000243E-1,4.468950272E0,8.944950104E0,1.000666867E1
2.001940177E0,3.870000243E-1,4.392000198E0,9.022050858E0,1.004175465E1
2.003904041E0,3.870000243E-1,4.431000233E0,8.983950615E0,1.002471450E1
2.005867869E0,3.490500152E-1,4.431000233E0,8.944950104E0,9.988379815E0
2.007831404E0,3.870000243E-1,4.468950272E0,8.944950104E0,1.000666867E1
2.009795025E0,4.260000288E-1,4.431000233E0,8.983950615E0,1.002629581E1
2.011758679E0,3.490500152E-1,4.431000233E0,8.944950104E0,9.988379815E0
2.013722326E0,3.870000243E-1,4.468950272E0,8.983950615E0,1.004154640E1
2.015685847E0,3.870000243E-1,4.468950272E0,8.907000542E0,9.972760109E0
2.017649405E0,3.870000243E-1,4.468950272E0,8.944950104E0,1.000666867E1
2.019612940E0,4.260000288E-1,4.431000233E0,8.944950104E0,9.991364844E0
2.021576482E0,3.870000243E-1,4.468950272E0,8.907000542E0,9.972760109E0
2.023540044E0,3.870000243E-1,4.431000233E0,8.907000542E0,9.955811907E0
2.025503583E0,3.870000243E-1,4.431000233E0,8.907000542E0,9.955811907E0
2.027467300E0,4.260000288E-1,4.468950272E0,8.907000542E0,9.974349663E0
2.029430965E0,3.870000243E-1,4.468950272E0,8.869050026E0,9.938879912E0
2.031394528E0,4.260000288E-1,4.468950272E0,8.869050026E0,9.940474884E0
2.033358121E0,4.260000288E-1,4.431000233E0,8.830050468E0,9.888631370E0
2.035321660E0,3.870000243E-1,4.507050037E0,8.869050026E0,9.956069376E0
2.037285208E0,3.870000243E-1,4.507050037E0,8.830050468E0,9.921343676E0
2.039248924E0,4.260000288E-1,4.507050037E0,8.830050468E0,9.922941466E0
2.041212591E0,3.870000243E-1,4.507050037E0,8.830050468E0,9.921343676E0
2.043176423E0,3.870000243E-1,4.507050037E0,8.791950226E0,9.887449511E0
2.045140206E0,3.870000243E-1,4.507050037E0,8.791950226E0,9.887449511E0
2.047103704E0,4.260000288E-1,4.507050037E0,8.791950226E0,9.889052778E0
2.049067285E0,3.490500152E-1,4.507050037E0,8.830050468E0,9.919935848E0
2.051030636E0,3.870000243E-1,4.507050037E0,8.791950226E0,9.887449511E0
2.052994054E0,4.639500082E-1,4.468950272E0,8.754000664E0,9.839679556E0
2.054957433E0,4.260000288E-1,4.507050037E0,8.830050468E0,9.922941466E0
2.056920824E0,4.260000288E-1,4.468950272E0,8.830050468E0,9.905694515E0
2.058884235E0,4.260000288E-1,4.507050037E0,8.791950226E0,9.889052778E0
2.060847621E0,3.870000243E-1,4.507050037E0,8.830050468E0,9.921343676E0
2.062811049E0,4.260000288E-1,4.507050037E0,8.830050468E0,9.922941466E0
2.064774465E0,3.870000243E-1,4.507050037E0,8.830050468E0,9.921343676E0
2.066738160E0,3.870000243E-1,4.507050037E0,8.907000542E0,9.989891276E0
2.068701773E0,4.260000288E-1,4.468950272E0,8.830050468E0,9.905694515E0
2.070665529E0,3.870000243E-1,4.468950272E0,8.907000542E0,9.972760109E0
2.072629239E0,3.870000243E-1,4.468950272E0,8.869050026E0,9.938879912E0
2.074592884E0,3.870000243E-1,4.468950272E0,8.869050026E0,9.938879912E0
2.076556549E0,3.870000243E-1,4.468950272E0,8.830050468E0,9.904093943E0
2.078519885E0,3.870000243E-1,4.468950272E0,8.830050468E0,9.904093943E0
2.080483318E0,3.870000243E-1,4.507050037E0,8.907000542E0,9.989891276E0
2.082446874E0,3.870000243E-1,4.507050037E0,8.869050026E0,9.956069376E0
2.084410393E0,3.490500152E-1,4.468950272E0,8.907000542E0,9.971359541E0
2.086373801E0,3.490500152E-1,4.468950272E0,8.907000542E0,9.971359541E0
2.088337241E0,3.870000243E-1,4.468950272E0,8.869050026E0,9.938879912E0
2.090300750E0,3.490500152E-1,4.468950272E0,8.907000542E0,9.971359541E0
2.092264239E0,3.490500152E-1,4.431000233E0,8.830050468E0,9.885615320E0
2.094227772E0,3.490500152E-1,4.507050037E0,8.869050026E0,9.954666459E0
2.096191302E0,3.490500152E-1,4.507050037E0,8.907000542E0,9.988493110E0
2.098154708E0,3.870000243E-1,4.507050037E0,8.907000542E0,9.989891276E0
2.100118150E0,3.490500152E-1,4.468950272E0,8.907000542E0,9.971359541E0
2.102081345E0,3.490500152E-1,4.468950272E0,8.907000542E0,9.971359541E0
2.104044612E0,3.490500152E-1,4.507050037E0,8.907000542E0,9.988493110E0
2.106008151E0,3.490500152E-1,4.468950272E0,8.944950104E0,1.000527285E1
2.107971610E0,3.490500152E-1,4.468950272E0,8.944950104E0,1.000527285E1
2.109934847E0,3.870000243E-1,4.507050037E0,8.907000542E0,9.989891276E0
2.111898150E0,3.490500152E-1,4.468950272E0,8.944950104E0,1.000527285E1
2.113861369E0,3.490500152E-1,4.468950272E0,8.907000542E0,9.971359541E0
2.115824612E0,3.870000243E-1,4.468950272E0,8.907000542E0,9.972760109E0
2.117788015E0,3.109500110E-1,4.468950272E0,8.944950104E0,1.000401613E1
2.119751374E0,3.490500152E-1,4.507050037E0,8.944950104E0,1.002234844E1
2.121714539E0,3.490500152E-1,4.468950272E0,8.944950104E0,1.000527285E1
2.123677761E0,3.870000243E-1,4.507050037E0,8.907000542E0,9.989891276E0
2.125641533E0,3.870000243E-1,4.468950272E0,8.944950104E0,1.000666867E1
2.127605143E0,3.490500152E-1,4.468950272E0,8.944950104E0,1.000527285E1
2.129568541E0,4.260000288E-1,4.431000233E0,8.944950104E0,9.991364844E0
2.131531997E0,3.870000243E-1,4.468950272E0,8.944950104E0,1.000666867E1
2.133495683E0,3.490500152E-1,4.392000198E0,8.944950104E0,9.971140056E0
2.135459302E0,3.490500152E-1,4.431000233E0,8.944950104E0,9.988379815E0
2.137422828E0,3.490500152E-1,4.392000198E0,8.983950615E0,1.000614163E1
2.139386381E0,4.260000288E-1,4.431000233E0,8.983950615E0,1.002629581E1
2.141349761E0,3.490500152E-1,4.431000233E0,8.983950615E0,1.002332119E1
2.143313174E0,3.490500152E-1,4.392000198E0,8.944950104E0,9.971140056E0
2.145276554E0,4.260000288E-1,4.431000233E0,8.907000542E0,9.957404167E0
2.147239944E0,3.870000243E-1,4.392000198E0,8.944950104E0,9.972540655E0
2.149202832E0,3.490500152E-1,4.431000233E0,8.944950104E0,9.988379815E0
2.151165867E0,3.490500152E-1,4.354050159E0,8.983950615E0,9.989542400E0
2.153129279E0,3.870000243E-1,4.392000198E0,8.944950104E0,9.972540655E0
2.155092571E0,3.870000243E-1,4.431000233E0,9.022050858E0,1.005887338E1
2.157056152E0,3.870000243E-1,4.392000198E0,9.022050858E0,1.004175465E1
2.159019648E0,3.870000243E-1,4.431000233E0,8.944950104E0,9.989777998E0
2.160983194E0,3.870000243E-1,4.392000198E0,9.022050858E0,1.004175465E1
2.162946725E0,4.260000288E-1,4.431000233E0,8.983950615E0,1.002629581E1
2.164910147E0,4.260000288E-1,4.468950272E0,8.983950615E0,1.004312507E1
2.166873589E0,3.870000243E-1,4.392000198E0,8.907000542E0,9.938515654E0
2.168837143E0,4.260000288E-1,4.354050159E0,8.907000542E0,9.923401003E0
2.170800664E0,4.260000288E-1,4.392000198E0,8.944950104E0,9.974130244E0
2.172764341E0,4.260000288E-1,4.354050159E0,8.983950615E0,9.992527081E0
2.174727972E0,4.639500082E-1,4.468950272E0,8.944950104E0,1.000993998E1
2.176691281E0,4.639500082E-1,4.431000233E0,8.907000542E0,9.959099925E0
2.178654709E0,4.260000288E-1,4.392000198E0,8.907000542E0,9.940110684E0
2.180617906E0,4.260000288E-1,4.431000233E0,8.907000542E0,9.957404167E0
2.182581171E0,4.639500082E-1,4.431000233E0,8.944950104E0,9.993054840E0
2.184544755E0,4.260000288E-1,4.468950272E0,8.944950104E0,1.000825284E1
2.186508245E0,4.260000288E-1,4.431000233E0,8.907000542E0,9.957404167E0
2.188471627E0,4.260000288E-1,4.431000233E0,8.907000542E0,9.957404167E0
2.190435031E0,4.260000288E-1,4.431000233E0,8.907000542E0,9.957404167E0
2.192398637E0,4.639500082E-1,4.431000233E0,8.869050026E0,9.925173098E0
2.194362183E0,4.639500082E-1,4.431000233E0,8.907000542E0,9.959099925E0
2.196325541E0,4.639500082E-1,4.468950272E0,8.869050026E0,9.942173530E0
2.198288954E0,4.639500082E-1,4.431000233E0,8.830050468E0,9.890338920E0
2.200252158E0,3.870000243E-1,4.431000233E0,8.907000542E0,9.955811907E0
2.202215420E0,4.260000288E-1,4.431000233E0,8.869050026E0,9.923471542E0
2.204178600E0,4.260000288E-1,4.431000233E0,8.869050026E0,9.923471542E0
2.206141805E0,4.260000288E-1,4.468950272E0,8.869050026E0,9.940474884E0
2.208104905E0,4.639500082E-1,4.468950272E0,8.830050468E0,9.907399125E0
2.210068036E0,5.020500422E-1,4.431000233E0,8.944950104E0,9.994896181E0
2.212031213E0,4.639500082E-1,4.431000233E0,8.830050468E0,9.890338920E0
2.213994394E0,4.639500082E-1,4.468950272E0,8.869050026E0,9.942173530E0
2.215958039E0,5.020500422E-1,4.468950272E0,8.869050026E0,9.944024293E0
2.217921548E0,4.639500082E-1,4.468950272E0,8.830050468E0,9.907399125E0
2.219884732E0,5.020500422E-1,4.431000233E0,8.907000542E0,9.960947543E0
2.221848012E0,4.639500082E-1,4.468950272E0,8.869050026E0,9.942173530E0
2.223811563E0,4.260000288E-1,4.507050037E0,8.791950226E0,9.889052778E0
2.225775024E0,5.410500169E-1,4.468950272E0,8.830050468E0,9.911308840E0
2.227738081E0,4.260000288E-1,4.468950272E0,8.869050026E0,9.940474884E0
2.229701257E0,4.260000288E-1,4.468950272E0,8.830050468E0,9.905694515E0
2.231664676E0,4.260000288E-1,4.431000233E0,8.791950226E0,9.854624694E0
2.233628024E0,4.260000288E-1,4.468950272E0,8.830050468E0,9.905694515E0
2.235591581E0,4.260000288E-1,4.468950272E0,8.830050468E0,9.905694515E0
2.237555087E0,4.639500082E-1,4.468950272E0,8.830050468E0,9.907399125E0
2.239518407E0,4.260000288E-1,4.431000233E0,8.907000542E0,9.957404167E0
2.241481781E0,3.870000243E-1,4.468950272E0,8.869050026E0,9.938879912E0
2.243444852E0,4.260000288E-1,4.507050037E0,8.907000542E0,9.991478105E0
2.245408012E0,4.260000288E-1,4.468950272E0,8.869050026E0,9.940474884E0
2.247371571E0,4.639500082E-1,4.468950272E0,8.869050026E0,9.942173530E0
2.249335044E0,4.260000288E-1,4.468950272E0,8.944950104E0,1.000825284E1
2.251298234E0,4.260000288E-1,4.468950272E0,8.869050026E0,9.940474884E0
2.253261507E0,4.260000288E-1,4.468950272E0,8.869050026E0,9.940474884E0
2.255225090E0,4.639500082E-1,4.468950272E0,8.944950104E0,1.000993998E1
2.257188582E0,4.260000288E-1,4.431000233E0,8.907000542E0,9.957404167E0
2.259152439E0,3.870000243E-1,4.431000233E0,8.907000542E0,9.955811907E0
2.261116193E0,4.260000288E-1,4.468950272E0,8.907000542E0,9.974349663E0
2.263079560E0,4.639500082E-1,4.431000233E0,8.907000542E0,9.959099925E0
2.265043041E0,4.260000288E-1,4.392000198E0,8.944950104E0,9.974130244E0
2.267006183E0,3.870000243E-1,4.431000233E0,8.944950104E0,9.989777998E0
2.268969425E0,3.870000243E-1,4.431000233E0,8.907000542E0,9.955811907E0
2.270933013E0,3.870000243E-1,4.468950272E0,8.944950104E0,1.000666867E1
2.272896500E0,4.260000288E-1,4.392000198E0,8.869050026E0,9.906118823E0
2.274859913E0,4.260000288E-1,4.431000233E0,8.944950104E0,9.991364844E0
2.276823348E0,3.870000243E-1,4.431000233E0,8.907000542E0,9.955811907E0
2.278787038E0,3.870000243E-1,4.468950272E0,8.907000542E0,9.972760109E0
2.280750654E0,4.260000288E-1,4.431000233E0,8.907000542E0,9.957404167E0
2.282714194E0,4.260000288E-1,4.431000233E0,8.869050026E0,9.923471542E0
2.284677747E0,4.260000288E-1,4.468950272E0,8.944950104E0,1.000825284E1
2.286640923E0,4.260000288E-1,4.431000233E0,8.944950104E0,9.991364844E0
2.288604209E0,4.260000288E-1,4.431000233E0,8.907000542E0,9.957404167E0
2.290567790E0,4.260000288E-1,4.392000198E0,8.869050026E0,9.906118823E0
2.292531284E0,3.870000243E-1,4.468950272E0,8.907000542E0,9.972760109E0
2.294494136E0,4.260000288E-1,4.431000233E0,8.944950104E0,9.991364844E0
2.296457190E0,4.260000288E-1,4.431000233E0,8.907000542E0,9.957404167E0
2.298420585E0,4.639500082E-1,4.431000233E0,8.907000542E0,9.959099925E0
2.300383880E0,4.260000288E-1,4.468950272E0,8.869050026E0,9.940474884E0
2.302347325E0,4.639500082E-1,4.431000233E0,8.869050026E0,9.925173098E0
2.304310726E0,4.639500082E-1,4.431000233E0,8.907000542E0,9.959099925E0
2.306273953E0,4.639500082E-1,4.431000233E0,8.944950104E0,9.993054840E0
2.308237214E0,4.260000288E-1,4.507050037E0,8.907000542E0,9.991478105E0
2.310200799E0,4.639500082E-1,4.468950272E0,8.907000542E0,9.976042541E0
2.312164289E0,3.870000243E-1,4.431000233E0,8.944950104E0,9.989777998E0
2.314127971E0,3.870000243E-1,4.468950272E0,8.907000542E0,9.972760109E0
2.316091596E0,4.639500082E-1,4.468950272E0,8.869050026E0,9.942173530E0
2.318054981E0,4.260000288E-1,4.431000233E0,8.944950104E0,9.991364844E0
2.320018440E0,3.870000243E-1,4.431000233E0,8.907000542E0,9.955811907E0
2.321982351E0,4.260000288E-1,4.468950272E0,8.944950104E0,1.000825284E1
2.323946130E0,4.260000288E-1,4.468950272E0,8.907000542E0,9.974349663E0
2.325909448E0,4.260000288E-1,4.507050037E0,8.907000542E0,9.991478105E0
2.327872901E0,4.260000288E-1,4.507050037E0,8.907000542E0,9.991478105E0
2.329836438E0,4.260000288E-1,4.468950272E0,8.869050026E0,9.940474884E0
2.331799961E0,4.260000288E-1,4.507050037E0,8.907000542E0,9.991478105E0
2.333763458E0,4.639500082E-1,4.507050037E0,8.869050026E0,9.959357309E0
2.335726963E0,4.260000288E-1,4.468950272E0,8.869050026E0,9.940474884E0
2.337690372E0,3.870000243E-1,4.507050037E0,8.830050468E0,9.921343676E0
2.339653809E0,4.639500082E-1,4.507050037E0,8.869050026E0,9.959357309E0
2.341617170E0,4.639500082E-1,4.507050037E0,8.830050468E0,9.924643113E0
2.343580564E0,4.260000288E-1,4.507050037E0,8.907000542E0,9.991478105E0
2.345544126E0,3.870000243E-1,4.468950272E0,8.907000542E0,9.972760109E0
2.347507639E0,4.260000288E-1,4.507050037E0,8.869050026E0,9.957661594E0
2.349471317E0,4.260000288E-1,4.507050037E0,8.944950104E0,1.002532336E1
2.351434947E0,4.260000288E-1,4.468950272E0,8.907000542E0,9.974349663E0
2.353398455E0,3.870000243E-1,4.468950272E0,8.907000542E0,9.972760109E0
2.355362010E0,4.260000288E-1,4.507050037E0,8.869050026E0,9.957661594E0
2.357325410E0,4.260000288E-1,4.507050037E0,8.944950104E0,1.002532336E1
2.359288856E0,3.870000243E-1,4.468950272E0,8.944950104E0,1.000666867E1
2.361252409E0,4.260000288E-1,4.507050037E0,8.907000542E0,9.991478105E0
2.363215931E0,4.639500082E-1,4.507050037E0,8.944950104E0,1.002700763E1
2.365179308E0,4.639500082E-1,4.507050037E0,8.907000542E0,9.993168081E0
2.367142717E0,4.260000288E-1,4.468950272E0,8.869050026E0,9.940474884E0
2.369106053E0,4.260000288E-1,4.468950272E0,8.907000542E0,9.974349663E0
2.371069410E0,4.260000288E-1,4.507050037E0,8.983950615E0,1.006013642E1
2.373033158E0,3.870000243E-1,4.468950272E0,8.944950104E0,1.000666867E1
2.374996792E0,4.260000288E-1,4.507050037E0,8.983950615E0,1.006013642E1
2.376960151E0,3.870000243E-1,4.431000233E0,8.944950104E0,9.989777998E0
2.378923611E0,4.639500082E-1,4.468950272E0,8.907000542E0,9.976042541E0
2.380887117E0,4.260000288E-1,4.468950272E0,8.944950104E0,1.000825284E1
2.382850609E0,4.260000288E-1,4.468950272E0,8.983950615E0,1.004312507E1
2.384814516E0,4.260000288E-1,4.431000233E0,8.907000542E0,9.957404167E0
2.386778302E0,4.639500082E-1,4.431000233E0,8.944950104E0,9.993054840E0
2.388741829E0,4.260000288E-1,4.431000233E0,8.907000542E0,9.957404167E0
2.390705443E0,5.020500422E-1,4.392000198E0,8.907000542E0,9.943660223E0
2.392668923E0,4.639500082E-1,4.431000233E0,8.907000542E0,9.959099925E0
2.394632443E0,3.870000243E-1,4.392000198E0,8.944950104E0,9.972540655E0
2.396595669E0,4.260000288E-1,4.431000233E0,8.983950615E0,1.002629581E1
2.398558981E0,4.639500082E-1,4.431000233E0,8.983950615E0,1.002797992E1
2.400522168E0,4.639500082E-1,4.392000198E0,8.983950615E0,1.001080836E1
2.402485381E0,4.639500082E-1,4.431000233E0,8.944950104E0,9.993054840E0
2.404448794E0,4.639500082E-1,4.392000198E0,8.944950104E0,9.975823160E0
2.406412148E0,4.639500082E-1,4.431000233E0,8.944950104E0,9.993054840E0
2.408375538E0,3.490500152E-1,4.431000233E0,8.944950104E0,9.988379815E0
2.410338917E0,4.639500082E-1,4.392000198E0,8.944950104E0,9.975823160E0
2.412302298E0,3.870000243E-1,4.431000233E0,8.983950615E0,1.002471450E1
2.414265681E0,3.870000243E-1,4.431000233E0,8.944950104E0,9.989777998E0
2.416229066E0,3.870000243E-1,4.468950272E0,8.944950104E0,1.000666867E1
2.418192451E0,3.490500152E-1,4.431000233E0,8.944950104E0,9.988379815E0
2.420155836E0,3.870000243E-1,4.468950272E0,8.944950104E0,1.000666867E1
2.422119221E0,3.870000243E-1,4.431000233E0,8.983950615E0,1.002471450E1
2.424082660E0,3.870000243E-1,4.507050037E0,8.944950104E0,1.002374189E1
2.426046076E0,3.490500152E-1,4.507050037E0,8.907000542E0,9.988493110E0
2.428009590E0,3.870000243E-1,4.468950272E0,8.907000542E0,9.972760109E0
2.429973076E0,3.490500152E-1,4.507050037E0,8.983950615E0,1.005717180E1
2.431936669E0,3.490500152E-1,4.468950272E0,8.944950104E0,1.000527285E1
2.433900230E0,3.109500110E-1,4.507050037E0,8.907000542E0,9.987234282E0
2.435863799E0,3.870000243E-1,4.507050037E0,8.907000542E0,9.989891276E0
2.437827342E0,3.870000243E-1,4.507050037E0,8.907000542E0,9.989891276E0
2.439791059E0,3.490500152E-1,4.507050037E0,8.869050026E0,9.954666459E0
2.441754725E0,3.870000243E-1,4.468950272E0,8.869050026E0,9.938879912E0
2.443718198E0,3.870000243E-1,4.507050037E0,8.869050026E0,9.956069376E0
2.445681727E0,3.870000243E-1,4.431000233E0,8.944950104E0,9.989777998E0
2.447645265E0,4.260000288E-1,4.468950272E0,8.869050026E0,9.940474884E0
2.449608801E0,3.870000243E-1,4.507050037E0,8.830050468E0,9.921343676E0
2.451572206E0,4.260000288E-1,4.431000233E0,8.869050026E0,9.923471542E0
2.453535650E0,3.870000243E-1,4.468950272E0,8.830050468E0,9.904093943E0
2.455499204E0,4.260000288E-1,4.431000233E0,8.830050468E0,9.888631370E0
2.457462725E0,3.870000243E-1,4.431000233E0,8.791950226E0,9.853015825E0
2.459426068E0,4.260000288E-1,4.468950272E0,8.830050468E0,9.905694515E0
2.461389477E0,4.260000288E-1,4.431000233E0,8.791950226E0,9.854624694E0
2.463352992E0,3.870000243E-1,4.431000233E0,8.791950226E0,9.853015825E0
2.465316475E0,3.870000243E-1,4.431000233E0,8.791950226E0,9.853015825E0
2.467280023E0,4.639500082E-1,4.468950272E0,8.830050468E0,9.907399125E0
2.469243552E0,4.639500082E-1,4.431000233E0,8.830050468E0,9.890338920E0
2.471207102E0,4.260000288E-1,4.468950272E0,8.869050026E0,9.940474884E0
2.473170639E0,4.260000288E-1,4.507050037E0,8.830050468E0,9.922941466E0
2.475134178E0,4.260000288E-1,4.468950272E0,8.830050468E0,9.905694515E0
2.477097716E0,3.870000243E-1,4.468950272E0,8.869050026E0,9.938879912E0
2.479061435E0,3.870000243E-1,4.468950272E0,8.830050468E0,9.904093943E0
2.481025100E0,3.870000243E-1,4.507050037E0,8.791950226E0,9.887449511E0
2.482988497E0,4.639500082E-1,4.507050037E0,8.869050026E0,9.959357309E0
2.484951962E0,4.260000288E-1,4.468950272E0,8.791950226E0,9.871746620E0
2.486915692E0,3.870000243E-1,4.507050037E0,8.869050026E0,9.956069376E0
2.488879345E0,3.490500152E-1,4.545000076E0,8.830050468E0,9.937235676E0
2.490843179E0,3.870000243E-1,4.507050037E0,8.791950226E0,9.887449511E0
2.492806960E0,4.639500082E-1,4.507050037E0,8.830050468E0,9.924643113E0
2.494770794E0,3.870000243E-1,4.545000076E0,8.791950226E0,9.904806080E0
2.496734629E0,3.490500152E-1,4.545000076E0,8.830050468E0,9.937235676E0
2.498698163E0,3.870000243E-1,4.507050037E0,8.869050026E0,9.956069376E0
2.500661785E0,3.870000243E-1,4.545000076E0,8.791950226E0,9.904806080E0
2.502625443E0,3.870000243E-1,4.545000076E0,8.830050468E0,9.938641053E0
2.504589090E0,3.870000243E-1,4.545000076E0,8.830050468E0,9.938641053E0
2.506552771E0,4.260000288E-1,4.545000076E0,8.907000542E0,1.000865427E1
2.508516456E0,3.870000243E-1,4.507050037E0,8.869050026E0,9.956069376E0
2.510480194E0,4.260000288E-1,4.507050037E0,8.869050026E0,9.957661594E0
2.512443917E0,4.260000288E-1,4.507050037E0,8.869050026E0,9.957661594E0
2.514407920E0,4.260000288E-1,4.507050037E0,8.907000542E0,9.991478105E0
2.516371841E0,3.490500152E-1,4.507050037E0,8.944950104E0,1.002234844E1
2.518335373E0,3.870000243E-1,4.468950272E0,8.944950104E0,1.000666867E1
2.520299010E0,3.870000243E-1,4.507050037E0,8.983950615E0,1.005856042E1
2.522262666E0,4.260000288E-1,4.507050037E0,8.983950615E0,1.006013642E1
2.524226316E0,3.870000243E-1,4.507050037E0,8.983950615E0,1.005856042E1
2.526189882E0,4.260000288E-1,4.468950272E0,9.060000420E0,1.011121161E1
2.528153472E0,4.260000288E-1,4.468950272E0,9.022050858E0,1.007722155E1
2.530116983E0,4.260000288E-1,4.468950272E0,9.022050858E0,1.007722155E1
2.532080530E0,3.870000243E-1,4.468950272E0,8.983950615E0,1.004154640E1
2.534044426E0,3.870000243E-1,4.468950272E0,8.983950615E0,1.004154640E1
2.536008220E0,4.260000288E-1,4.431000233E0,8.983950615E0,1.002629581E1
2.537971851E0,3.870000243E-1,4.431000233E0,8.944950104E0,9.989777998E0
2.539935530E0,3.490500152E-1,4.431000233E0,8.944950104E0,9.988379815E0
2.541898740E0,3.870000243E-1,4.392000198E0,8.983950615E0,1.000753733E1
2.543862079E0,4.260000288E-1,4.431000233E0,8.944950104E0,9.991364844E0
2.545825786E0,4.260000288E-1,4.392000198E0,8.983950615E0,1.000912136E1
2.547789385E0,3.870000243E-1,4.392000198E0,9.022050858E0,1.004175465E1
2.549752914E0,4.260000288E-1,4.392000198E0,8.944950104E0,9.974130244E0
2.551716464E0,4.260000288E-1,4.431000233E0,8.983950615E0,1.002629581E1
2.553680000E0,4.260000288E-1,4.431000233E0,8.907000542E0,9.957404167E0
2.555643541E0,4.260000288E-1,4.392000198E0,8.983950615E0,1.000912136E1
2.557607123E0,3.870000243E-1,4.392000198E0,8.944950104E0,9.972540655E0
2.559570693E0,4.260000288E-1,4.392000198E0,8.907000542E0,9.940110684E0
2.561534361E0,3.870000243E-1,4.392000198E0,8.944950104E0,9.972540655E0
2.563498000E0,3.490500152E-1,4.392000198E0,9.022050858E0,1.004036371E1
2.565461421E0,4.260000288E-1,4.392000198E0,8.944950104E0,9.974130244E0
2.567424882E0,3.490500152E-1,4.392000198E0,8.983950615E0,1.000614163E1
2.569388433E0,4.260000288E-1,4.431000233E0,8.907000542E0,9.957404167E0
2.571351957E0,4.260000288E-1,4.354050159E0,8.944950104E0,9.957477651E0
2.573315498E0,4.639500082E-1,4.392000198E0,8.944950104E0,9.975823160E0
2.575279034E0,4.639500082E-1,4.431000233E0,8.983950615E0,1.002797992E1
2.577242524E0,4.639500082E-1,4.431000233E0,8.944950104E0,9.993054840E0
2.579206031E0,4.260000288E-1,4.392000198E0,8.907000542E0,9.940110684E0
2.581169799E0,4.260000288E-1,4.392000198E0,8.944950104E0,9.974130244E0
2.583133490E0,4.639500082E-1,4.392000198E0,8.907000542E0,9.941809393E0
2.585096958E0,5.020500422E-1,4.468950272E0,8.869050026E0,9.944024293E0
2.587060492E0,5.410500169E-1,4.431000233E0,8.869050026E0,9.929075815E0
2.589024197E0,4.639500082E-1,4.468950272E0,8.869050026E0,9.942173530E0
2.590987861E0,4.639500082E-1,4.431000233E0,8.869050026E0,9.925173098E0
2.592952144E0,4.639500082E-1,4.431000233E0,8.869050026E0,9.925173098E0
2.594916245E0,5.410500169E-1,4.468950272E0,8.830050468E0,9.911308840E0
2.596878922E0,4.639500082E-1,4.468950272E0,8.791950226E0,9.873457090E0
2.598842017E0,4.260000288E-1,4.468950272E0,8.869050026E0,9.940474884E0
2.600805675E0,4.639500082E-1,4.507050037E0,8.791950226E0,9.890760255E0
2.602769168E0,4.639500082E-1,4.468950272E0,8.791950226E0,9.873457090E0
2.604732490E0,4.639500082E-1,4.468950272E0,8.830050468E0,9.907399125E0
2.606695863E0,4.260000288E-1,4.507050037E0,8.830050468E0,9.922941466E0
2.608659293E0,3.870000243E-1,4.468950272E0,8.791950226E0,9.870140542E0
2.610622707E0,3.870000243E-1,4.468950272E0,8.830050468E0,9.904093943E0
2.612586617E0,3.870000243E-1,4.468950272E0,8.830050468E0,9.904093943E0
2.614550389E0,3.870000243E-1,4.507050037E0,8.830050468E0,9.921343676E0
2.616514069E0,4.260000288E-1,4.468950272E0,8.830050468E0,9.905694515E0
2.618477776E0,3.870000243E-1,4.507050037E0,8.869050026E0,9.956069376E0
2.620441421E0,3.870000243E-1,4.507050037E0,8.830050468E0,9.921343676E0
2.622405084E0,3.490500152E-1,4.507050037E0,8.869050026E0,9.954666459E0
2.624368761E0,3.870000243E-1,4.507050037E0,8.869050026E0,9.956069376E0
2.626332447E0,3.870000243E-1,4.545000076E0,8.830050468E0,9.938641053E0
2.628295961E0,3.870000243E-1,4.507050037E0,8.869050026E0,9.956069376E0
2.630259526E0,3.870000243E-1,4.468950272E0,8.869050026E0,9.938879912E0
2.632223284E0,3.870000243E-1,4.468950272E0,8.944950104E0,1.000666867E1
2.634186986E0,3.870000243E-1,4.507050037E0,8.869050026E0,9.956069376E0
2.636150682E0,3.870000243E-1,4.507050037E0,8.869050026E0,9.956069376E0
2.638114377E0,4.260000288E-1,4.468950272E0,8.944950104E0,1.000825284E1
2.640078248E0,3.870000243E-1,4.468950272E0,8.907000542E0,9.972760109E0
2.642042068E0,3.870000243E-1,4.468950272E0,8.869050026E0,9.938879912E0
2.644005694E0,4.260000288E-1,4.507050037E0,8.907000542E0,9.991478105E0
2.645969377E0,3.490500152E-1,4.468950272E0,8.907000542E0,9.971359541E0
2.647932955E0,4.260000288E-1,4.468950272E0,8.869050026E0,9.940474884E0
2.649896550E0,4.260000288E-1,4.507050037E0,8.869050026E0,9.957661594E0
2.651860213E0,4.260000288E-1,4.468950272E0,8.907000542E0,9.974349663E0
2.653823856E0,3.870000243E-1,4.507050037E0,8.907000542E0,9.989891276E0
2.655787602E0,4.639500082E-1,4.468950272E0,8.869050026E0,9.942173530E0
2.657751317E0,4.260000288E-1,4.468950272E0,8.907000542E0,9.974349663E0
2.659714983E0,4.260000288E-1,4.431000233E0,8.907000542E0,9.957404167E0
2.661678680E0,4.260000288E-1,4.431000233E0,8.907000542E0,9.957404167E0
2.663642372E0,3.870000243E-1,4.431000233E0,8.944950104E0,9.989777998E0
2.665606065E0,3.870000243E-1,4.431000233E0,8.944950104E0,9.989777998E0
2.667569396E0,4.639500082E-1,4.468950272E0,8.944950104E0,1.000993998E1
2.669532834E0,3.870000243E-1,4.431000233E0,8.944950104E0,9.989777998E0
2.671497060E0,4.639500082E-1,4.431000233E0,8.944950104E0,9.993054840E0
2.673461058E0,3.870000243E-1,4.468950272E0,8.944950104E0,1.000666867E1
2.675424383E0,3.870000243E-1,4.468950272E0,8.907000542E0,9.972760109E0
2.677387906E0,3.870000243E-1,4.392000198E0,8.907000542E0,9.938515654E0
2.679351446E0,4.260000288E-1,4.507050037E0,8.983950615E0,1.006013642E1
2.681314981E0,3.870000243E-1,4.431000233E0,8.944950104E0,9.989777998E0
2.683278691E0,3.870000243E-1,4.431000233E0,8.907000542E0,9.955811907E0
2.685242356E0,3.870000243E-1,4.468950272E0,8.907000542E0,9.972760109E0
2.687205829E0,4.260000288E-1,4.468950272E0,8.907000542E0,9.974349663E0
2.689169358E0,3.490500152E-1,4.468950272E0,8.944950104E0,1.000527285E1
2.691132583E0,3.870000243E-1,4.468950272E0,8.869050026E0,9.938879912E0
2.693095897E0,3.490500152E-1,4.431000233E0,8.907000542E0,9.954408954E0
2.695059608E0,3.870000243E-1,4.468950272E0,8.907000542E0,9.972760109E0
2.697023203E0,3.490500152E-1,4.468950272E0,8.869050026E0,9.937474569E0
2.698986777E0,3.870000243E-1,4.468950272E0,8.907000542E0,9.972760109E0
2.700950358E0,3.490500152E-1,4.468950272E0,8.983950615E0,1.004015543E1
2.702914023E0,3.870000243E-1,4.431000233E0,8.944950104E0,9.989777998E0
2.704877664E0,3.870000243E-1,4.507050037E0,9.022050858E0,1.009260475E1
2.706841001E0,3.870000243E-1,4.507050037E0,8.944950104E0,1.002374189E1
2.708804430E0,3.490500152E-1,4.507050037E0,8.944950104E0,1.002234844E1
2.710767672E0,4.639500082E-1,4.468950272E0,8.944950104E0,1.000993998E1
2.712730969E0,3.490500152E-1,4.431000233E0,8.944950104E0,9.988379815E0
2.714694548E0,3.870000243E-1,4.507050037E0,8.944950104E0,1.002374189E1
2.716658044E0,4.260000288E-1,4.431000233E0,9.022050858E0,1.006044933E1
2.718621574E0,4.639500082E-1,4.468950272E0,8.944950104E0,1.000993998E1
2.720585073E0,4.260000288E-1,4.468950272E0,8.944950104E0,1.000825284E1
2.722548484E0,4.639500082E-1,4.468950272E0,8.944950104E0,1.000993998E1
2.724511921E0,4.639500082E-1,4.468950272E0,8.983950615E0,1.004480636E1
2.726475431E0,4.260000288E-1,4.468950272E0,8.907000542E0,9.974349663E0
2.728438919E0,4.260000288E-1,4.468950272E0,8.944950104E0,1.000825284E1
2.730402636E0,4.260000288E-1,4.468950272E0,8.907000542E0,9.974349663E0
2.732366293E0,4.639500082E-1,4.468950272E0,8.944950104E0,1.000993998E1
2.734329857E0,4.260000288E-1,4.468950272E0,8.907000542E0,9.974349663E0
2.736293448E0,4.260000288E-1,4.431000233E0,8.944950104E0,9.991364844E0
2.738257112E0,4.260000288E-1,4.468950272E0,8.907000542E0,9.974349663E0
2.740220754E0,3.870000243E-1,4.507050037E0,8.907000542E0,9.989891276E0
2.742184436E0,4.260000288E-1,4.468950272E0,8.869050026E0,9.940474884E0
2.744148120E0,3.870000243E-1,4.507050037E0,8.907000542E0,9.989891276E0
2.746111994E0,4.639500082E-1,4.468950272E0,8.907000542E0,9.976042541E0
2.748075812E0,4.260000288E-1,4.507050037E0,8.869050026E0,9.957661594E0
2.750039484E0,3.870000243E-1,4.468950272E0,8.907000542E0,9.972760109E0
2.752003199E0,4.260000288E-1,4.468950272E0,8.869050026E0,9.940474884E0
2.753966718E0,4.260000288E-1,4.468950272E0,8.830050468E0,9.905694515E0
2.755930319E0,4.639500082E-1,4.468950272E0,8.791950226E0,9.873457090E0
2.757893980E0,4.260000288E-1,4.507050037E0,8.830050468E0,9.922941466E0
2.759857624E0,3.870000243E-1,4.507050037E0,8.791950226E0,9.887449511E0
2.761821325E0,3.870000243E-1,4.507050037E0,8.791950226E0,9.887449511E0
2.763785009E0,3.490500152E-1,4.507050037E0,8.791950226E0,9.886036856E0
2.765748907E0,4.260000288E-1,4.507050037E0,8.791950226E0,9.889052778E0
2.767712725E0,4.639500082E-1,4.507050037E0,8.791950226E0,9.890760255E0
2.769676036E0,4.260000288E-1,4.507050037E0,8.754000664E0,9.855328695E0
2.771639496E0,4.260000288E-1,4.468950272E0,8.754000664E0,9.837963213E0
2.773603047E0,4.639500082E-1,4.545000076E0,8.791950226E0,9.908111025E0
2.775566571E0,3.870000243E-1,4.507050037E0,8.791950226E0,9.887449511E0
2.777529992E0,4.260000288E-1,4.507050037E0,8.791950226E0,9.889052778E0
2.779493434E0,3.870000243E-1,4.507050037E0,8.830050468E0,9.921343676E0
2.781456987E0,4.260000288E-1,4.545000076E0,8.830050468E0,9.940236063E0
2.783420508E0,4.639500082E-1,4.507050037E0,8.830050468E0,9.924643113E0
2.785384050E0,4.639500082E-1,4.507050037E0,8.869050026E0,9.959357309E0
2.787347585E0,4.260000288E-1,4.507050037E0,8.869050026E0,9.957661594E0
2.789311251E0,5.020500422E-1,4.431000233E0,8.830050468E0,9.892199380E0
2.791274884E0,4.639500082E-1,4.507050037E0,8.830050468E0,9.924643113E0
2.793238452E0,4.260000288E-1,4.507050037E0,8.830050468E0,9.922941466E0
2.795202040E0,5.020500422E-1,4.507050037E0,8.830050468E0,9.926497144E0
2.797165704E0,4.639500082E-1,4.507050037E0,8.830050468E0,9.924643113E0
2.799129346E0,4.639500082E-1,4.545000076E0,8.830050468E0,9.941934750E0
2.801092937E0,4.260000288E-1,4.507050037E0,8.869050026E0,9.957661594E0
2.803056526E0,4.639500082E-1,4.507050037E0,8.869050026E0,9.959357309E0
2.805020370E0,4.260000288E-1,4.468950272E0,8.869050026E0,9.940474884E0
2.806984139E0,4.260000288E-1,4.507050037E0,8.869050026E0,9.957661594E0
2.808947684E0,3.870000243E-1,4.507050037E0,8.907000542E0,9.989891276E0
2.810911295E0,4.260000288E-1,4.507050037E0,8.907000542E0,9.991478105E0
2.812874974E0,4.260000288E-1,4.507050037E0,8.907000542E0,9.991478105E0
2.814838619E0,4.639500082E-1,4.468950272E0,8.907000542E0,9.976042541E0
2.816802006E0,3.870000243E-1,4.468950272E0,8.907000542E0,9.972760109E0
2.818765468E0,4.260000288E-1,4.468950272E0,8.869050026E0,9.940474884E0
2.820729019E0,4.639500082E-1,4.507050037E0,8.869050026E0,9.959357309E0
2.822692543E0,3.490500152E-1,4.468950272E0,8.983950615E0,1.004015543E1
2.824655855E0,3.870000243E-1,4.468950272E0,8.907000542E0,9.972760109E0
2.826619232E0,4.260000288E-1,4.468950272E0,8.944950104E0,1.000825284E1
2.828582662E0,4.260000288E-1,4.431000233E0,8.944950104E0,9.991364844E0
2.830546076E0,3.490500152E-1,4.468950272E0,8.907000542E0,9.971359541E0
2.832509771E0,4.260000288E-1,4.468950272E0,8.907000542E0,9.974349663E0
2.834473384E0,4.260000288E-1,4.431000233E0,8.983950615E0,1.002629581E1
2.836436531E0,3.870000243E-1,4.468950272E0,8.983950615E0,1.004154640E1
2.838399828E0,3.870000243E-1,4.468950272E0,9.022050858E0,1.007564823E1
2.840363227E0,3.870000243E-1,4.431000233E0,8.983950615E0,1.002471450E1
2.842326596E0,3.870000243E-1,4.392000198E0,8.983950615E0,1.000753733E1
2.844290028E0,3.490500152E-1,4.431000233E0,8.983950615E0,1.002332119E1
2.846253442E0,3.870000243E-1,4.431000233E0,9.022050858E0,1.005887338E1
2.848216967E0,4.260000288E-1,4.468950272E0,8.944950104E0,1.000825284E1
2.850180452E0,3.870000243E-1,4.431000233E0,8.983950615E0,1.002471450E1
2.852144225E0,3.870000243E-1,4.431000233E0,8.983950615E0,1.002471450E1
2.854107913E0,3.870000243E-1,4.468950272E0,9.022050858E0,1.007564823E1
2.856071606E0,3.490500152E-1,4.431000233E0,8.983950615E0,1.002332119E1
2.858035298E0,3.870000243E-1,4.468950272E0,8.944950104E0,1.000666867E1
2.859998820E0,3.870000243E-1,4.431000233E0,8.983950615E0,1.002471450E1
2.861962386E0,4.260000288E-1,4.431000233E0,8.944950104E0,9.991364844E0
2.863925739E0,4.260000288E-1,4.431000233E0,9.022050858E0,1.006044933E1
2.865889155E0,4.260000288E-1,4.392000198E0,8.944950104E0,9.974130244E0
2.867852713E0,3.870000243E-1,4.431000233E0,8.983950615E0,1.002471450E1
2.869816230E0,4.260000288E-1,4.392000198E0,8.944950104E0,9.974130244E0
2.871779753E0,3.870000243E-1,4.431000233E0,8.983950615E0,1.002471450E1
2.873743288E0,3.870000243E-1,4.392000198E0,8.983950615E0,1.000753733E1
2.875706963E0,3.870000243E-1,4.392000198E0,8.983950615E0,1.000753733E1
2.877670596E0,4.639500082E-1,4.431000233E0,8.944950104E0,9.993054840E0
2.879634119E0,4.260000288E-1,4.431000233E0,8.907000542E0,9.957404167E0
2.881597675E0,4.260000288E-1,4.392000198E0,8.983950615E0,1.000912136E1
2.883561439E0,4.260000288E-1,4.431000233E0,8.944950104E0,9.991364844E0
2.885525139E0,4.260000288E-1,4.392000198E0,8.907000542E0,9.940110684E0
2.887488965E0,3.870000243E-1,4.431000233E0,8.944950104E0,9.989777998E0
2.889452754E0,4.260000288E-1,4.392000198E0,8.983950615E0,1.000912136E1
2.891416116E0,4.639500082E-1,4.431000233E0,8.907000542E0,9.959099925E0
2.893379603E0,4.260000288E-1,4.431000233E0,8.944950104E0,9.991364844E0
2.895342970E0,4.260000288E-1,4.431000233E0,8.907000542E0,9.957404167E0
2.897306372E0,3.870000243E-1,4.431000233E0,8.983950615E0,1.002471450E1
2.899270068E0,3.870000243E-1,4.431000233E0,8.944950104E0,9.989777998E0
2.901233678E0,4.260000288E-1,4.392000198E0,8.907000542E0,9.940110684E0
2.903197250E0,4.260000288E-1,4.468950272E0,8.944950104E0,1.000825284E1
2.905160833E0,4.260000288E-1,4.468950272E0,8.907000542E0,9.974349663E0
2.907124473E0,4.260000288E-1,4.431000233E0,8.907000542E0,9.957404167E0
2.909088114E0,4.639500082E-1,4.392000198E0,8.907000542E0,9.941809393E0
2.911051681E0,5.020500422E-1,4.431000233E0,8.944950104E0,9.994896181E0
2.913015270E0,4.639500082E-1,4.431000233E0,8.830050468E0,9.890338920E0
2.914978979E0,4.639500082E-1,4.431000233E0,8.869050026E0,9.925173098E0
2.916942653E0,4.260000288E-1,4.431000233E0,8.869050026E0,9.923471542E0
2.918906180E0,4.639500082E-1,4.468950272E0,8.907000542E0,9.976042541E0
2.920869743E0,4.260000288E-1,4.431000233E0,8.869050026E0,9.923471542E0
2.922833052E0,4.639500082E-1,4.431000233E0,8.907000542E0,9.959099925E0
2.924796435E0,4.260000288E-1,4.431000233E0,8.907000542E0,9.957404167E0
2.926759999E0,4.260000288E-1,4.431000233E0,8.907000542E0,9.957404167E0
2.928723510E0,4.639500082E-1,4.431000233E0,8.830050468E0,9.890338920E0
2.930686957E0,4.639500082E-1,4.431000233E0,8.907000542E0,9.959099925E0
2.932650396E0,4.639500082E-1,4.468950272E0,8.830050468E0,9.907399125E0
2.934613726E0,3.870000243E-1,4.468950272E0,8.869050026E0,9.938879912E0
2.936577088E0,4.260000288E-1,4.431000233E0,8.944950104E0,9.991364844E0
2.938540342E0,4.260000288E-1,4.468950272E0,8.907000542E0,9.974349663E0
2.940503627E0,3.870000243E-1,4.468950272E0,8.907000542E0,9.972760109E0
2.942467407E0,4.639500082E-1,4.468950272E0,8.869050026E0,9.942173530E0
2.944431028E0,4.260000288E-1,4.468950272E0,8.907000542E0,9.974349663E0
2.946394868E0,4.260000288E-1,4.468950272E0,8.907000542E0,9.974349663E0
2.948358644E0,4.639500082E-1,4.468950272E0,8.944950104E0,1.000993998E1
2.950322188E0,3.870000243E-1,4.468950272E0,8.944950104E0,1.000666867E1
2.952285800E0,4.260000288E-1,4.507050037E0,8.907000542E0,9.991478105E0
2.954249640E0,4.260000288E-1,4.468950272E0,8.944950104E0,1.000825284E1
2.956213413E0,3.870000243E-1,4.507050037E0,8.944950104E0,1.002374189E1
2.958177138E0,3.870000243E-1,4.507050037E0,8.983950615E0,1.005856042E1
2.960140877E0,3.870000243E-1,4.468950272E0,8.983950615E0,1.004154640E1
2.962104381E0,3.870000243E-1,4.468950272E0,8.944950104E0,1.000666867E1
2.964067954E0,3.490500152E-1,4.507050037E0,8.907000542E0,9.988493110E0
2.966031792E0,3.490500152E-1,4.468950272E0,8.944950104E0,1.000527285E1
2.967995558E0,3.490500152E-1,4.507050037E0,8.944950104E0,1.002234844E1
2.969959418E0,4.260000288E-1,4.468950272E0,8.944950104E0,1.000825284E1
2.971923250E0,4.260000288E-1,4.507050037E0,8.869050026E0,9.957661594E0
2.973886920E0,4.260000288E-1,4.468950272E0,8.907000542E0,9.974349663E0
2.975850637E0,3.490500152E-1,4.507050037E0,8.869050026E0,9.954666459E0
2.977814379E0,3.870000243E-1,4.468950272E0,8.869050026E0,9.938879912E0
2.979778106E0,3.490500152E-1,4.468950272E0,8.830050468E0,9.902683662E0
2.981741794E0,3.870000243E-1,4.468950272E0,8.869050026E0,9.938879912E0
2.983705493E0,3.870000243E-1,4.507050037E0,8.791950226E0,9.887449511E0
2.985669318E0,3.870000243E-1,4.507050037E0,8.907000542E0,9.989891276E0
2.987633106E0,4.639500082E-1,4.507050037E0,8.830050468E0,9.924643113E0
2.989596233E0,3.870000243E-1,4.545000076E0,8.830050468E0,9.938641053E0
2.991559560E0,4.260000288E-1,4.507050037E0,8.869050026E0,9.957661594E0
2.993522819E0,3.870000243E-1,4.468950272E0,8.869050026E0,9.938879912E0
2.995486098E0,4.260000288E-1,4.545000076E0,8.791950226E0,9.906406538E0
2.997449860E0,4.639500082E-1,4.507050037E0,8.830050468E0,9.924643113E0
2.999413481E0,3.870000243E-1,4.507050037E0,8.869050026E0,9.956069376E0
3.001376776E0,4.260000288E-1,4.431000233E0,8.830050468E0,9.888631370E0
3.003340170E0,4.260000288E-1,4.507050037E0,8.791950226E0,9.889052778E0
3.005303777E0,4.260000288E-1,4.468950272E0,8.791950226E0,9.871746620E0
3.007267322E0,4.260000288E-1,4.468950272E0,8.869050026E0,9.940474884E0
3.009230995E0,4.260000288E-1,4.507050037E0,8.791950226E0,9.889052778E0
3.011194630E0,4.639500082E-1,4.431000233E0,8.791950226E0,9.856338136E0
3.013158037E0,4.639500082E-1,4.468950272E0,8.830050468E0,9.907399125E0
3.015121497E0,4.260000288E-1,4.468950272E0,8.869050026E0,9.940474884E0
3.017084689E0,4.639500082E-1,4.468950272E0,8.791950226E0,9.873457090E0
3.019047959E0,4.639500082E-1,4.468950272E0,8.869050026E0,9.942173530E0
3.021011362E0,4.639500082E-1,4.468950272E0,8.869050026E0,9.942173530E0
3.022974726E0,5.020500422E-1,4.431000233E0,8.830050468E0,9.892199380E0
3.024938249E0,4.639500082E-1,4.431000233E0,8.869050026E0,9.925173098E0
3.026901726E0,4.260000288E-1,4.431000233E0,8.830050468E0,9.888631370E0
3.028865096E0,4.639500082E-1,4.468950272E0,8.791950226E0,9.873457090E0
3.030828497E0,4.260000288E-1,4.468950272E0,8.869050026E0,9.940474884E0
3.032792103E0,5.020500422E-1,4.468950272E0,8.869050026E0,9.944024293E0
3.034755649E0,4.260000288E-1,4.468950272E0,8.907000542E0,9.974349663E0
3.036718827E0,4.260000288E-1,4.468950272E0,8.869050026E0,9.940474884E0
3.038682113E0,4.260000288E-1,4.468950272E0,8.869050026E0,9.940474884E0
3.040645468E0,4.639500082E-1,4.468950272E0,8.869050026E0,9.942173530E0
3.042608803E0,4.260000288E-1,4.468950272E0,8.869050026E0,9.940474884E0
3.044572377E0,4.260000288E-1,4.468950272E0,8.907000542E0,9.974349663E0
3.046535880E0,4.639500082E-1,4.468950272E0,8.869050026E0,9.942173530E0
3.048499231E0,3.870000243E-1,4.468950272E0,8.830050468E0,9.904093943E0
3.050462637E0,4.639500082E-1,4.468950272E0,8.869050026E0,9.942173530E0
3.052426378E0,4.639500082E-1,4.431000233E0,8.944950104E0,9.993054840E0
3.054390020E0,4.260000288E-1,4.468950272E0,8.907000542E0,9.974349663E0
3.056353587E0,4.639500082E-1,4.431000233E0,8.907000542E0,9.959099925E0
3.058317176E0,4.639500082E-1,4.431000233E0,8.944950104E0,9.993054840E0
3.060281049E0,4.260000288E-1,4.468950272E0,8.944950104E0,1.000825284E1
3.062244818E0,4.639500082E-1,4.431000233E0,8.944950104E0,9.993054840E0
3.064208363E0,5.020500422E-1,4.431000233E0,8.944950104E0,9.994896181E0
3.066171974E0,4.639500082E-1,4.431000233E0,8.983950615E0,1.002797992E1
3.068135679E0,4.639500082E-1,4.431000233E0,8.944950104E0,9.993054840E0
3.070099356E0,4.639500082E-1,4.431000233E0,8.944950104E0,9.993054840E0
3.072063196E0,4.260000288E-1,4.468950272E0,8.944950104E0,1.000825284E1
3.074026981E0,5.020500422E-1,4.468950272E0,8.983950615E0,1.004663822E1
3.075990523E0,4.639500082E-1,4.431000233E0,8.944950104E0,9.993054840E0
3.077954137E0,4.639500082E-1,4.431000233E0,8.944950104E0,9.993054840E0
3.079917841E0,4.260000288E-1,4.392000198E0,8.944950104E0,9.974130244E0
3.081881519E0,4.639500082E-1,4.431000233E0,8.983950615E0,1.002797992E1
3.083845339E0,5.020500422E-1,4.468950272E0,8.944950104E0,1.001177822E1
3.085809125E0,4.639500082E-1,4.431000233E0,8.983950615E0,1.002797992E1
3.087772487E0,4.639500082E-1,4.431000233E0,8.944950104E0,9.993054840E0
3.089735973E0,5.020500422E-1,4.431000233E0,8.983950615E0,1.002981485E1
3.091699474E0,4.639500082E-1,4.431000233E0,9.022050858E0,1.006212772E1
3.093662971E0,4.639500082E-1,4.431000233E0,8.907000542E0,9.959099925E0
3.095626397E0,5.020500422E-1,4.392000198E0,8.944950104E0,9.977667681E0
3.097589834E0,5.410500169E-1,4.392000198E0,8.983950615E0,1.001467770E1
3.099553704E0,4.639500082E-1,4.468950272E0,9.022050858E0,1.007889715E1
3.101517447E0,4.639500082E-1,4.431000233E0,8.944950104E0,9.993054840E0
3.103481536E0,5.410500169E-1,4.431000233E0,8.907000542E0,9.962989352E0
3.105445524E0,5.410500169E-1,4.468950272E0,8.907000542E0,9.979925365E0
3.107409331E0,5.020500422E-1,4.468950272E0,8.983950615E0,1.004663822E1
3.109373203E0,4.639500082E-1,4.468950272E0,8.907000542E0,9.976042541E0
3.111337359E0,5.020500422E-1,4.468950272E0,8.907000542E0,9.977887022E0
3.113301431E0,4.639500082E-1,4.468950272E0,8.944950104E0,1.000993998E1
3.115264924E0,5.020500422E-1,4.431000233E0,8.907000542E0,9.960947543E0
3.117228587E0,4.639500082E-1,4.468950272E0,8.907000542E0,9.976042541E0
3.119192225E0,5.020500422E-1,4.507050037E0,8.907000542E0,9.995009401E0
3.121155881E0,4.639500082E-1,4.468950272E0,8.907000542E0,9.976042541E0
3.123119624E0,5.020500422E-1,4.468950272E0,8.907000542E0,9.977887022E0
3.125083341E0,5.020500422E-1,4.468950272E0,8.944950104E0,1.001177822E1
3.127047209E0,4.260000288E-1,4.431000233E0,8.907000542E0,9.957404167E0
3.129011033E0,5.020500422E-1,4.431000233E0,8.869050026E0,9.927027031E0
3.130974869E0,5.020500422E-1,4.468950272E0,8.869050026E0,9.944024293E0
3.132938711E0,4.639500082E-1,4.468950272E0,8.869050026E0,9.942173530E0
3.134902379E0,4.639500082E-1,4.468950272E0,8.944950104E0,1.000993998E1
3.136866098E0,4.639500082E-1,4.468950272E0,8.907000542E0,9.976042541E0
3.138830145E0,4.260000288E-1,4.468950272E0,8.907000542E0,9.974349663E0
3.140794096E0,4.639500082E-1,4.431000233E0,8.869050026E0,9.925173098E0
3.142757860E0,4.639500082E-1,4.431000233E0,8.869050026E0,9.925173098E0
3.144721693E0,4.639500082E-1,4.431000233E0,8.907000542E0,9.959099925E0
3.146685226E0,4.639500082E-1,4.431000233E0,8.907000542E0,9.959099925E0
3.148648847E0,4.260000288E-1,4.468950272E0,8.907000542E0,9.974349663E0
3.150612551E0,4.260000288E-1,4.431000233E0,8.944950104E0,9.991364844E0
3.152576230E0,4.639500082E-1,4.431000233E0,8.944950104E0,9.993054840E0
3.154539909E0,4.639500082E-1,4.468950272E0,8.907000542E0,9.976042541E0
3.156503568E0,4.260000288E-1,4.431000233E0,8.907000542E0,9.957404167E0
3.158467086E0,4.260000288E-1,4.431000233E0,8.907000542E0,9.957404167E0
3.160430645E0,4.260000288E-1,4.468950272E0,8.944950104E0,1.000825284E1
3.162394224E0,4.260000288E-1,4.468950272E0,8.907000542E0,9.974349663E0
3.164357797E0,4.260000288E-1,4.468950272E0,8.907000542E0,9.974349663E0
3.166321844E0,3.490500152E-1,4.545000076E0,8.944950104E0,1.003947180E1
3.168285739E0,3.870000243E-1,4.468950272E0,8.907000542E0,9.972760109E0
3.170249757E0,3.490500152E-1,4.507050037E0,8.944950104E0,1.002234844E1
3.172213739E0,3.490500152E-1,4.545000076E0,8.907000542E0,1.000567440E1
3.174177202E0,3.870000243E-1,4.545000076E0,8.869050026E0,9.973306527E0
3.176140818E0,3.109500110E-1,4.507050037E0,8.907000542E0,9.987234282E0
3.178104752E0,3.109500110E-1,4.545000076E0,8.869050026E0,9.970645113E0
3.180068590E0,3.490500152E-1,4.507050037E0,8.830050468E0,9.919935848E0
3.182032259E0,3.109500110E-1,4.584000111E0,8.869050026E0,9.988483132E0
3.183995977E0,3.109500110E-1,4.545000076E0,8.830050468E0,9.935970354E0
3.185959799E0,3.490500152E-1,4.584000111E0,8.869050026E0,9.989741803E0
3.187923590E0,3.490500152E-1,4.545000076E0,8.830050468E0,9.937235676E0
3.189887317E0,3.490500152E-1,4.545000076E0,8.791950226E0,9.903395901E0
3.191851059E0,3.490500152E-1,4.507050037E0,8.791950226E0,9.886036856E0
3.193814743E0,3.490500152E-1,4.545000076E0,8.791950226E0,9.903395901E0
3.195778444E0,3.870000243E-1,4.507050037E0,8.754000664E0,9.853719941E0
3.197742809E0,3.490500152E-1,4.507050037E0,8.791950226E0,9.886036856E0
3.199706980E0,3.490500152E-1,4.507050037E0,8.791950226E0,9.886036856E0
3.201670577E0,3.870000243E-1,4.507050037E0,8.754000664E0,9.853719941E0
3.203634353E0,3.490500152E-1,4.507050037E0,8.754000664E0,9.852302450E0
3.205598031E0,3.490500152E-1,4.507050037E0,8.754000664E0,9.852302450E0
3.207561737E0,3.870000243E-1,4.507050037E0,8.791950226E0,9.887449511E0
3.209525471E0,3.870000243E-1,4.507050037E0,8.791950226E0,9.887449511E0
3.211489197E0,3.870000243E-1,4.468950272E0,8.754000664E0,9.836351619E0
3.213453014E0,3.870000243E-1,4.468950272E0,8.754000664E0,9.836351619E0
3.215416807E0,3.870000243E-1,4.507050037E0,8.791950226E0,9.887449511E0
3.217380168E0,4.639500082E-1,4.507050037E0,8.754000664E0,9.857042014E0
3.219343655E0,4.639500082E-1,4.507050037E0,8.791950226E0,9.890760255E0
3.221307201E0,5.020500422E-1,4.431000233E0,8.791950226E0,9.858205013E0
3.223270730E0,4.260000288E-1,4.468950272E0,8.791950226E0,9.871746620E0
3.225234226E0,4.639500082E-1,4.507050037E0,8.830050468E0,9.924643113E0
3.227197732E0,4.260000288E-1,4.468950272E0,8.830050468E0,9.905694515E0
3.229161681E0,4.639500082E-1,4.468950272E0,8.791950226E0,9.873457090E0
3.231125500E0,5.020500422E-1,4.507050037E0,8.830050468E0,9.926497144E0
3.233088991E0,4.639500082E-1,4.431000233E0,8.869050026E0,9.925173098E0
3.235052579E0,4.639500082E-1,4.507050037E0,8.830050468E0,9.924643113E0
3.237016073E0,4.260000288E-1,4.507050037E0,8.830050468E0,9.922941466E0
3.238979588E0,4.260000288E-1,4.507050037E0,8.869050026E0,9.957661594E0
3.240942950E0,4.639500082E-1,4.468950272E0,8.830050468E0,9.907399125E0
3.242906357E0,4.260000288E-1,4.507050037E0,8.907000542E0,9.991478105E0
3.244870142E0,4.639500082E-1,4.507050037E0,8.869050026E0,9.959357309E0
3.246833816E0,4.260000288E-1,4.507050037E0,8.907000542E0,9.991478105E0
3.248797332E0,4.260000288E-1,4.468950272E0,8.869050026E0,9.940474884E0
3.250760895E0,4.639500082E-1,4.507050037E0,8.907000542E0,9.993168081E0
3.252724564E0,3.870000243E-1,4.545000076E0,8.944950104E0,1.004086286E1
3.254688201E0,4.639500082E-1,4.468950272E0,8.944950104E0,1.000993998E1
3.256651588E0,4.639500082E-1,4.507050037E0,8.907000542E0,9.993168081E0
3.258615049E0,4.260000288E-1,4.507050037E0,8.907000542E0,9.991478105E0
3.260578725E0,4.260000288E-1,4.468950272E0,8.983950615E0,1.004312507E1
3.262542345E0,4.639500082E-1,4.507050037E0,8.944950104E0,1.002700763E1
3.264506049E0,3.870000243E-1,4.468950272E0,8.983950615E0,1.004154640E1
3.266469729E0,3.870000243E-1,4.468950272E0,8.983950615E0,1.004154640E1
3.268433110E0,4.260000288E-1,4.468950272E0,8.983950615E0,1.004312507E1
3.270396578E0,3.870000243E-1,4.468950272E0,8.983950615E0,1.004154640E1
3.272360469E0,4.260000288E-1,4.507050037E0,9.022050858E0,1.009417544E1
3.274324249E0,4.260000288E-1,4.468950272E0,9.022050858E0,1.007722155E1
3.276288422E0,3.870000243E-1,4.507050037E0,9.060000420E0,1.012654317E1
3.278252480E0,4.260000288E-1,4.468950272E0,9.060000420E0,1.011121161E1
3.280216336E0,4.260000288E-1,4.431000233E0,9.022050858E0,1.006044933E1
3.282180251E0,4.260000288E-1,4.431000233E0,9.022050858E0,1.006044933E1
3.284144085E0,3.870000243E-1,4.431000233E0,9.022050858E0,1.005887338E1
3.286107943E0,3.870000243E-1,4.392000198E0,8.983950615E0,1.000753733E1
3.288071742E0,4.639500082E-1,4.392000198E0,9.022050858E0,1.004501454E1
3.290035559E0,4.260000288E-1,4.431000233E0,8.983950615E0,1.002629581E1
3.291999589E0,4.260000288E-1,4.431000233E0,9.022050858E0,1.006044933E1
3.293963557E0,4.260000288E-1,4.392000198E0,9.060000420E0,1.007743764E1
3.295927398E0,4.639500082E-1,4.431000233E0,9.022050858E0,1.006212772E1
3.297891266E0,3.870000243E-1,4.431000233E0,8.983950615E0,1.002471450E1
3.299855468E0,4.639500082E-1,4.392000198E0,9.022050858E0,1.004501454E1
3.301819572E0,4.260000288E-1,4.392000198E0,9.022050858E0,1.004333328E1
3.303783600E0,4.260000288E-1,4.392000198E0,8.983950615E0,1.000912136E1
3.305747651E0,5.020500422E-1,4.392000198E0,8.983950615E0,1.001264644E1
3.307711281E0,4.260000288E-1,4.431000233E0,8.983950615E0,1.002629581E1
3.309675035E0,4.260000288E-1,4.392000198E0,8.983950615E0,1.000912136E1
3.311638851E0,4.639500082E-1,4.354050159E0,8.944950104E0,9.959173397E0
3.313602649E0,4.639500082E-1,4.392000198E0,8.983950615E0,1.001080836E1
3.315566503E0,4.639500082E-1,4.392000198E0,8.983950615E0,1.001080836E1
3.317530341E0,5.020500422E-1,4.315950394E0,8.944950104E0,9.944426298E0
3.319494193E0,4.260000288E-1,4.354050159E0,8.907000542E0,9.923401003E0
3.321458038E0,4.260000288E-1,4.354050159E0,8.869050026E0,9.889351707E0
3.323421751E0,5.020500422E-1,4.354050159E0,8.869050026E0,9.892919458E0
3.325385502E0,4.639500082E-1,4.354050159E0,8.907000542E0,9.925102571E0
3.327349184E0,5.410500169E-1,4.392000198E0,8.907000542E0,9.945705581E0
3.329312886E0,4.639500082E-1,4.354050159E0,8.907000542E0,9.925102571E0
3.331277076E0,5.020500422E-1,4.392000198E0,8.869050026E0,9.909680537E0
3.333241120E0,5.020500422E-1,4.431000233E0,8.869050026E0,9.927027031E0
