"Time (s)","Acceleration x (m/s^2)","Acceleration y (m/s^2)","Acceleration z (m/s^2)","Absolute acceleration (m/s^2)"
3.719991200E-2,3.490500152E-1,4.354050159E0,8.791950226E0,9.817228605E0
3.916170900E-2,3.490500152E-1,4.354050159E0,8.791950226E0,9.817228605E0
4.112606600E-2,3.109500110E-1,4.354050159E0,8.791950226E0,9.815947813E0
4.308905800E-2,3.490500152E-1,4.354050159E0,8.830050468E0,9.851364371E0
4.505245000E-2,3.109500110E-1,4.354050159E0,8.754000664E0,9.781971699E0
4.701530900E-2,3.490500152E-1,4.392000198E0,8.791950226E0,9.834118691E0
4.897834400E-2,3.490500152E-1,4.354050159E0,8.869050026E0,9.886335877E0
5.094124800E-2,3.490500152E-1,4.354050159E0,8.830050468E0,9.851364371E0
5.290419100E-2,3.490500152E-1,4.392000198E0,8.907000542E0,9.937110259E0
5.486728900E-2,3.490500152E-1,4.392000198E0,8.869050026E0,9.903108099E0
5.683034200E-2,3.490500152E-1,4.354050159E0,8.907000542E0,9.920395524E0
5.879357500E-2,3.109500110E-1,4.392000198E0,8.907000542E0,9.935844921E0
6.075677500E-2,3.490500152E-1,4.354050159E0,8.869050026E0,9.886335877E0
6.272014600E-2,3.109500110E-1,4.354050159E0,8.907000542E0,9.919128054E0
6.468346700E-2,3.490500152E-1,4.354050159E0,8.907000542E0,9.920395524E0
6.664654800E-2,3.109500110E-1,4.354050159E0,8.869050026E0,9.885064039E0
6.860970000E-2,3.490500152E-1,4.276950359E0,8.944950104E0,9.921001595E0
7.057294800E-2,3.870000243E-1,4.315950394E0,8.907000542E0,9.905142880E0
7.253616500E-2,3.109500110E-1,4.315950394E0,8.944950104E0,9.936611599E0
7.449921900E-2,3.490500152E-1,4.315950394E0,8.944950104E0,9.937876839E0
7.646232100E-2,3.490500152E-1,4.276950359E0,8.983950615E0,9.956179435E0
7.842539300E-2,3.490500152E-1,4.315950394E0,8.944950104E0,9.937876839E0
8.038847400E-2,3.870000243E-1,4.276950359E0,8.944950104E0,9.922409272E0
8.235152100E-2,3.490500152E-1,4.315950394E0,8.983950615E0,9.972995155E0
8.431459900E-2,3.870000243E-1,4.315950394E0,8.983950615E0,9.974395494E0
8.627745000E-2,3.870000243E-1,4.239000320E0,8.983950615E0,9.941341026E0
8.824036800E-2,3.490500152E-1,4.239000320E0,8.944950104E0,9.904700500E0
9.020369700E-2,3.109500110E-1,4.239000320E0,8.944950104E0,9.903431021E0
9.216690500E-2,3.490500152E-1,4.276950359E0,9.022050858E0,9.990572655E0
9.412994200E-2,3.109500110E-1,4.276950359E0,8.983950615E0,9.954916521E0
9.609304200E-2,3.109500110E-1,4.276950359E0,9.060000420E0,1.002360224E1
9.805624900E-2,2.719500065E-1,4.239000320E0,8.983950615E0,9.937527317E0
1.000194240E-1,3.490500152E-1,4.315950394E0,8.983950615E0,9.972995155E0
1.019825300E-1,2.719500065E-1,4.276950359E0,8.983950615E0,9.953774653E0
1.039456570E-1,3.490500152E-1,4.276950359E0,9.060000420E0,1.002485650E1
1.059089910E-1,3.109500110E-1,4.276950359E0,9.022050858E0,9.989314089E0
1.078722990E-1,2.340000123E-1,4.276950359E0,8.983950615E0,9.952810107E0
1.098355170E-1,3.109500110E-1,4.315950394E0,9.022050858E0,1.000607412E1
1.117987620E-1,3.109500110E-1,4.239000320E0,9.022050858E0,9.973124651E0
1.137620350E-1,2.719500065E-1,4.276950359E0,8.983950615E0,9.953774653E0
1.157252990E-1,3.490500152E-1,4.276950359E0,9.022050858E0,9.990572655E0
1.176887190E-1,3.490500152E-1,4.276950359E0,8.983950615E0,9.956179435E0
1.196520830E-1,2.719500065E-1,4.276950359E0,9.060000420E0,1.002246820E1
1.216156520E-1,3.109500110E-1,4.239000320E0,9.022050858E0,9.973124651E0
1.235791600E-1,3.490500152E-1,4.239000320E0,9.022050858E0,9.974385260E0
1.255425240E-1,3.109500110E-1,4.239000320E0,9.022050858E0,9.973124651E0
1.275059310E-1,3.109500110E-1,4.239000320E0,9.022050858E0,9.973124651E0
1.294686820E-1,3.870000243E-1,4.276950359E0,9.060000420E0,1.002624960E1
1.314316560E-1,3.109500110E-1,4.239000320E0,9.022050858E0,9.973124651E0
1.333949300E-1,3.490500152E-1,4.315950394E0,8.983950615E0,9.972995155E0
1.353581160E-1,3.109500110E-1,4.239000320E0,9.022050858E0,9.973124651E0
1.373210400E-1,3.109500110E-1,4.276950359E0,9.060000420E0,1.002360224E1
1.392840410E-1,2.719500065E-1,4.239000320E0,9.098999977E0,1.004165729E1
1.412472320E-1,3.109500110E-1,4.201050282E0,9.022050858E0,9.957053533E0
1.432103900E-1,3.490500152E-1,4.239000320E0,9.060000420E0,1.000872456E1
1.451738140E-1,3.870000243E-1,4.239000320E0,9.098999977E0,1.004543147E1
1.471371600E-1,3.490500152E-1,4.239000320E0,9.098999977E0,1.004404103E1
1.491004170E-1,3.490500152E-1,4.276950359E0,9.060000420E0,1.002485650E1
1.510637000E-1,3.870000243E-1,4.239000320E0,9.060000420E0,1.001011990E1
1.530268930E-1,4.260000288E-1,4.276950359E0,9.098999977E0,1.006308009E1
1.549901330E-1,4.639500082E-1,4.239000320E0,9.060000420E0,1.001339008E1
1.569535410E-1,3.870000243E-1,4.239000320E0,9.060000420E0,1.001011990E1
1.589169000E-1,3.870000243E-1,4.276950359E0,9.060000420E0,1.002624960E1
1.608802890E-1,3.870000243E-1,4.315950394E0,9.022050858E0,1.000872612E1
1.628436690E-1,3.490500152E-1,4.276950359E0,9.022050858E0,9.990572655E0
1.648068010E-1,3.870000243E-1,4.276950359E0,8.983950615E0,9.957582139E0
1.667700270E-1,3.870000243E-1,4.276950359E0,8.983950615E0,9.957582139E0
1.687334380E-1,3.870000243E-1,4.276950359E0,8.907000542E0,9.888211772E0
1.706967940E-1,3.870000243E-1,4.276950359E0,8.944950104E0,9.922409272E0
1.726600500E-1,3.870000243E-1,4.315950394E0,8.944950104E0,9.939282126E0
1.746233350E-1,3.490500152E-1,4.315950394E0,8.907000542E0,9.903732749E0
1.765866700E-1,3.490500152E-1,4.354050159E0,8.944950104E0,9.954482461E0
1.785500050E-1,3.870000243E-1,4.276950359E0,8.944950104E0,9.922409272E0
1.805132190E-1,3.490500152E-1,4.354050159E0,8.944950104E0,9.954482461E0
1.824764680E-1,3.109500110E-1,4.354050159E0,8.907000542E0,9.919128054E0
1.844395150E-1,3.490500152E-1,4.315950394E0,8.944950104E0,9.937876839E0
1.864026220E-1,3.490500152E-1,4.315950394E0,8.983950615E0,9.972995155E0
1.883656410E-1,3.490500152E-1,4.315950394E0,8.983950615E0,9.972995155E0
1.903287230E-1,3.109500110E-1,4.315950394E0,8.983950615E0,9.971734371E0
1.922917990E-1,3.490500152E-1,4.354050159E0,8.983950615E0,9.989542400E0
1.942548770E-1,3.109500110E-1,4.354050159E0,8.983950615E0,9.988283704E0
1.962181330E-1,3.109500110E-1,4.354050159E0,8.944950104E0,9.953219331E0
1.981813370E-1,3.870000243E-1,4.354050159E0,9.022050858E0,1.002521439E1
2.001444100E-1,3.490500152E-1,4.354050159E0,8.944950104E0,9.954482461E0
2.021075410E-1,3.109500110E-1,4.315950394E0,8.983950615E0,9.971734371E0
2.040702480E-1,3.109500110E-1,4.315950394E0,9.022050858E0,1.000607412E1
2.060330800E-1,3.109500110E-1,4.276950359E0,8.983950615E0,9.954916521E0
2.079963330E-1,3.109500110E-1,4.315950394E0,9.060000420E0,1.004030504E1
2.099594620E-1,2.719500065E-1,4.276950359E0,9.060000420E0,1.002246820E1
2.119227030E-1,3.109500110E-1,4.315950394E0,8.983950615E0,9.971734371E0
2.138859480E-1,3.490500152E-1,4.315950394E0,9.060000420E0,1.004155722E1
2.158491770E-1,3.490500152E-1,4.315950394E0,9.060000420E0,1.004155722E1
2.178124110E-1,3.490500152E-1,4.315950394E0,9.060000420E0,1.004155722E1
2.197755960E-1,3.109500110E-1,4.315950394E0,9.098999977E0,1.007551082E1
2.217387960E-1,3.109500110E-1,4.315950394E0,9.098999977E0,1.007551082E1
2.237018520E-1,3.109500110E-1,4.315950394E0,9.060000420E0,1.004030504E1
2.256649500E-1,2.719500065E-1,4.315950394E0,9.060000420E0,1.003917288E1
2.276282020E-1,2.719500065E-1,4.354050159E0,9.060000420E0,1.005561123E1
2.295914090E-1,2.719500065E-1,4.315950394E0,9.098999977E0,1.007438262E1
2.315541500E-1,2.340000123E-1,4.315950394E0,9.136950493E0,1.010772220E1
2.335170270E-1,2.719500065E-1,4.315950394E0,9.098999977E0,1.007438262E1
2.354801220E-1,2.719500065E-1,4.354050159E0,9.060000420E0,1.005561123E1
2.374431640E-1,2.719500065E-1,4.354050159E0,9.098999977E0,1.009076361E1
2.394063820E-1,2.719500065E-1,4.354050159E0,9.098999977E0,1.009076361E1
2.413695480E-1,2.719500065E-1,4.315950394E0,9.060000420E0,1.003917288E1
2.433326560E-1,2.719500065E-1,4.315950394E0,9.022050858E0,1.000493809E1
2.452957810E-1,2.719500065E-1,4.354050159E0,9.022050858E0,1.002143260E1
2.472588450E-1,2.340000123E-1,4.354050159E0,9.098999977E0,1.008981216E1
2.492219300E-1,2.719500065E-1,4.315950394E0,9.060000420E0,1.003917288E1
2.511853200E-1,2.340000123E-1,4.354050159E0,9.022050858E0,1.002047456E1
2.531486200E-1,3.109500110E-1,4.315950394E0,9.022050858E0,1.000607412E1
2.551122000E-1,2.340000123E-1,4.354050159E0,9.022050858E0,1.002047456E1
2.570756970E-1,2.719500065E-1,4.315950394E0,8.944950104E0,9.935467627E0
2.590390730E-1,2.719500065E-1,4.354050159E0,8.944950104E0,9.952077268E0
2.610024780E-1,3.109500110E-1,4.354050159E0,8.983950615E0,9.988283704E0
2.629658590E-1,2.719500065E-1,4.354050159E0,8.983950615E0,9.987145651E0
2.649292480E-1,2.719500065E-1,4.315950394E0,8.983950615E0,9.970594429E0
2.668923160E-1,2.719500065E-1,4.315950394E0,8.944950104E0,9.935467627E0
2.688554780E-1,2.719500065E-1,4.354050159E0,8.983950615E0,9.987145651E0
2.708186940E-1,2.340000123E-1,4.315950394E0,8.983950615E0,9.969631511E0
2.727818800E-1,2.719500065E-1,4.354050159E0,8.944950104E0,9.952077268E0
2.747451190E-1,2.340000123E-1,4.315950394E0,8.944950104E0,9.934501304E0
2.767083420E-1,2.719500065E-1,4.315950394E0,8.907000542E0,9.901315229E0
2.786717540E-1,3.109500110E-1,4.315950394E0,8.944950104E0,9.936611599E0
2.806351110E-1,3.490500152E-1,4.315950394E0,8.944950104E0,9.937876839E0
2.825983400E-1,2.719500065E-1,4.354050159E0,8.944950104E0,9.952077268E0
2.845615930E-1,3.109500110E-1,4.315950394E0,8.907000542E0,9.902463146E0
2.865246400E-1,3.490500152E-1,4.276950359E0,8.944950104E0,9.921001595E0
2.884877470E-1,3.490500152E-1,4.315950394E0,8.907000542E0,9.903732749E0
2.904510430E-1,3.870000243E-1,4.276950359E0,8.944950104E0,9.922409272E0
2.924142840E-1,3.490500152E-1,4.315950394E0,8.944950104E0,9.937876839E0
2.943778630E-1,3.109500110E-1,4.276950359E0,8.944950104E0,9.919734202E0
2.963413180E-1,3.490500152E-1,4.315950394E0,8.907000542E0,9.903732749E0
2.983046910E-1,3.109500110E-1,4.315950394E0,8.907000542E0,9.902463146E0
3.002680890E-1,3.490500152E-1,4.315950394E0,8.907000542E0,9.903732749E0
3.022311560E-1,3.490500152E-1,4.315950394E0,8.944950104E0,9.937876839E0
3.041943200E-1,3.490500152E-1,4.276950359E0,8.944950104E0,9.921001595E0
3.061577260E-1,3.109500110E-1,4.354050159E0,8.907000542E0,9.919128054E0
3.081210720E-1,3.490500152E-1,4.315950394E0,8.944950104E0,9.937876839E0
3.100841040E-1,3.490500152E-1,4.315950394E0,8.944950104E0,9.937876839E0
3.120472280E-1,3.490500152E-1,4.315950394E0,8.944950104E0,9.937876839E0
3.140102520E-1,3.870000243E-1,4.354050159E0,8.944950104E0,9.955885404E0
3.159733050E-1,3.490500152E-1,4.354050159E0,8.907000542E0,9.920395524E0
3.179364300E-1,3.490500152E-1,4.354050159E0,8.907000542E0,9.920395524E0
3.198995340E-1,3.109500110E-1,4.315950394E0,8.907000542E0,9.902463146E0
3.218627860E-1,3.490500152E-1,4.315950394E0,8.907000542E0,9.903732749E0
3.238259950E-1,3.870000243E-1,4.354050159E0,8.869050026E0,9.887748489E0
3.257891860E-1,3.490500152E-1,4.315950394E0,8.869050026E0,9.869615599E0
3.277523820E-1,3.870000243E-1,4.354050159E0,8.907000542E0,9.921803287E0
3.297154290E-1,3.109500110E-1,4.315950394E0,8.907000542E0,9.902463146E0
3.316785270E-1,3.490500152E-1,4.354050159E0,8.907000542E0,9.920395524E0
3.336416440E-1,3.490500152E-1,4.276950359E0,8.869050026E0,9.852623440E0
3.356047550E-1,3.490500152E-1,4.315950394E0,8.869050026E0,9.869615599E0
3.375681420E-1,3.109500110E-1,4.315950394E0,8.869050026E0,9.868341607E0
3.395314480E-1,3.870000243E-1,4.276950359E0,8.869050026E0,9.854040885E0
3.414944960E-1,3.490500152E-1,4.354050159E0,8.907000542E0,9.920395524E0
3.434576130E-1,3.490500152E-1,4.315950394E0,8.944950104E0,9.937876839E0
3.454208620E-1,3.490500152E-1,4.276950359E0,8.983950615E0,9.956179435E0
3.473840720E-1,3.490500152E-1,4.276950359E0,8.944950104E0,9.921001595E0
3.493471720E-1,3.870000243E-1,4.315950394E0,8.944950104E0,9.939282126E0
3.513103050E-1,4.260000288E-1,4.315950394E0,8.944950104E0,9.940877033E0
3.532734820E-1,3.870000243E-1,4.276950359E0,8.983950615E0,9.957582139E0
3.552366630E-1,3.490500152E-1,4.239000320E0,9.022050858E0,9.974385260E0
3.571995890E-1,3.490500152E-1,4.315950394E0,8.944950104E0,9.937876839E0
3.591625890E-1,3.870000243E-1,4.276950359E0,8.944950104E0,9.922409272E0
3.611256780E-1,3.870000243E-1,4.315950394E0,8.983950615E0,9.974395494E0
3.630887400E-1,3.490500152E-1,4.276950359E0,9.022050858E0,9.990572655E0
3.650518100E-1,3.870000243E-1,4.315950394E0,8.983950615E0,9.974395494E0
3.670148840E-1,3.490500152E-1,4.315950394E0,8.983950615E0,9.972995155E0
3.689783220E-1,3.870000243E-1,4.354050159E0,8.983950615E0,9.990940419E0
3.709416540E-1,3.870000243E-1,4.276950359E0,8.983950615E0,9.957582139E0
3.729048680E-1,3.490500152E-1,4.276950359E0,8.983950615E0,9.956179435E0
3.748681170E-1,3.490500152E-1,4.276950359E0,9.022050858E0,9.990572655E0
3.768313390E-1,3.870000243E-1,4.276950359E0,8.983950615E0,9.957582139E0
3.787945410E-1,4.260000288E-1,4.276950359E0,8.983950615E0,9.959174115E0
3.807578200E-1,3.870000243E-1,4.315950394E0,8.983950615E0,9.974395494E0
3.827210770E-1,3.870000243E-1,4.276950359E0,9.022050858E0,9.991970530E0
3.846844380E-1,3.490500152E-1,4.315950394E0,8.983950615E0,9.972995155E0
3.866477690E-1,3.490500152E-1,4.354050159E0,8.983950615E0,9.989542400E0
3.886111680E-1,3.870000243E-1,4.315950394E0,9.022050858E0,1.000872612E1
3.905745440E-1,3.870000243E-1,4.315950394E0,9.022050858E0,1.000872612E1
3.925377510E-1,3.490500152E-1,4.315950394E0,9.022050858E0,1.000733058E1
3.945010070E-1,3.870000243E-1,4.276950359E0,8.944950104E0,9.922409272E0
3.964642340E-1,3.870000243E-1,4.315950394E0,8.944950104E0,9.939282126E0
3.984274690E-1,4.639500082E-1,4.315950394E0,9.022050858E0,1.001199676E1
4.003910380E-1,3.870000243E-1,4.315950394E0,8.983950615E0,9.974395494E0
4.023545240E-1,3.870000243E-1,4.276950359E0,8.983950615E0,9.957582139E0
4.043175320E-1,4.260000288E-1,4.315950394E0,8.983950615E0,9.975984787E0
4.062806800E-1,3.490500152E-1,4.276950359E0,8.983950615E0,9.956179435E0
4.082439690E-1,3.490500152E-1,4.276950359E0,8.983950615E0,9.956179435E0
4.102072160E-1,4.260000288E-1,4.276950359E0,8.983950615E0,9.959174115E0
4.121702560E-1,3.490500152E-1,4.276950359E0,8.983950615E0,9.956179435E0
4.141333630E-1,4.260000288E-1,4.276950359E0,8.944950104E0,9.924006890E0
4.160964350E-1,4.260000288E-1,4.276950359E0,8.944950104E0,9.924006890E0
4.180595170E-1,3.490500152E-1,4.239000320E0,8.983950615E0,9.939936030E0
4.200227270E-1,4.260000288E-1,4.276950359E0,8.944950104E0,9.924006890E0
4.219858990E-1,4.260000288E-1,4.239000320E0,8.944950104E0,9.907710740E0
4.239489850E-1,4.639500082E-1,4.276950359E0,8.944950104E0,9.925708355E0
4.259120790E-1,4.260000288E-1,4.239000320E0,8.907000542E0,9.873462330E0
4.278753780E-1,4.260000288E-1,4.276950359E0,8.983950615E0,9.959174115E0
4.298386160E-1,3.870000243E-1,4.276950359E0,8.944950104E0,9.922409272E0
4.318016210E-1,4.639500082E-1,4.239000320E0,8.944950104E0,9.909415002E0
4.337646950E-1,4.260000288E-1,4.276950359E0,8.944950104E0,9.924006890E0
4.357274660E-1,4.260000288E-1,4.276950359E0,8.944950104E0,9.924006890E0
4.376903190E-1,4.260000288E-1,4.239000320E0,8.944950104E0,9.907710740E0
4.396534330E-1,3.870000243E-1,4.239000320E0,8.983950615E0,9.941341026E0
4.416164710E-1,4.260000288E-1,4.276950359E0,8.944950104E0,9.924006890E0
4.435795550E-1,3.870000243E-1,4.276950359E0,8.983950615E0,9.957582139E0
4.455426250E-1,3.870000243E-1,4.239000320E0,9.022050858E0,9.975785403E0
4.475056700E-1,3.490500152E-1,4.276950359E0,9.022050858E0,9.990572655E0
4.494687460E-1,3.490500152E-1,4.315950394E0,8.983950615E0,9.972995155E0
4.514318230E-1,4.260000288E-1,4.239000320E0,8.944950104E0,9.907710740E0
4.533949000E-1,3.870000243E-1,4.276950359E0,8.983950615E0,9.957582139E0
4.553576170E-1,3.870000243E-1,4.276950359E0,9.060000420E0,1.002624960E1
4.573204400E-1,3.490500152E-1,4.276950359E0,8.983950615E0,9.956179435E0
4.592837300E-1,3.870000243E-1,4.239000320E0,8.983950615E0,9.941341026E0
4.612468900E-1,3.870000243E-1,4.276950359E0,9.022050858E0,9.991970530E0
4.632100880E-1,4.260000288E-1,4.315950394E0,9.022050858E0,1.001030996E1
4.651732740E-1,3.870000243E-1,4.276950359E0,8.983950615E0,9.957582139E0
4.671361530E-1,3.490500152E-1,4.276950359E0,8.983950615E0,9.956179435E0
4.690991220E-1,3.490500152E-1,4.276950359E0,8.983950615E0,9.956179435E0
4.710620770E-1,3.870000243E-1,4.315950394E0,8.983950615E0,9.974395494E0
4.730250400E-1,3.490500152E-1,4.276950359E0,8.983950615E0,9.956179435E0
4.749882710E-1,3.490500152E-1,4.315950394E0,8.983950615E0,9.972995155E0
4.769514230E-1,3.490500152E-1,4.315950394E0,8.944950104E0,9.937876839E0
4.789144880E-1,3.109500110E-1,4.276950359E0,8.983950615E0,9.954916521E0
4.808775790E-1,3.870000243E-1,4.315950394E0,8.944950104E0,9.939282126E0
4.828404590E-1,3.490500152E-1,4.276950359E0,9.022050858E0,9.990572655E0
4.848034110E-1,3.109500110E-1,4.276950359E0,8.983950615E0,9.954916521E0
4.867663730E-1,3.490500152E-1,4.315950394E0,8.983950615E0,9.972995155E0
4.887293320E-1,3.109500110E-1,4.315950394E0,8.983950615E0,9.971734371E0
4.906923840E-1,3.490500152E-1,4.315950394E0,8.944950104E0,9.937876839E0
4.926554090E-1,3.490500152E-1,4.354050159E0,8.944950104E0,9.954482461E0
4.946179950E-1,3.490500152E-1,4.276950359E0,8.907000542E0,9.886799226E0
4.965807140E-1,3.490500152E-1,4.354050159E0,8.944950104E0,9.954482461E0
4.985436260E-1,3.109500110E-1,4.315950394E0,8.944950104E0,9.936611599E0
5.005064810E-1,3.109500110E-1,4.315950394E0,8.907000542E0,9.902463146E0
5.024694160E-1,3.490500152E-1,4.315950394E0,8.907000542E0,9.903732749E0
5.044323270E-1,3.109500110E-1,4.354050159E0,8.907000542E0,9.919128054E0
5.063954870E-1,3.109500110E-1,4.315950394E0,8.944950104E0,9.936611599E0
5.083585670E-1,3.490500152E-1,4.354050159E0,8.869050026E0,9.886335877E0
5.103219590E-1,3.490500152E-1,4.354050159E0,8.907000542E0,9.920395524E0
5.122852590E-1,3.490500152E-1,4.315950394E0,8.944950104E0,9.937876839E0
5.142481640E-1,3.870000243E-1,4.315950394E0,8.944950104E0,9.939282126E0
5.162111840E-1,3.490500152E-1,4.315950394E0,8.944950104E0,9.937876839E0
5.181744250E-1,3.870000243E-1,4.315950394E0,8.944950104E0,9.939282126E0
5.201375870E-1,3.870000243E-1,4.315950394E0,8.944950104E0,9.939282126E0
5.221005150E-1,4.260000288E-1,4.315950394E0,8.944950104E0,9.940877033E0
5.240635120E-1,3.490500152E-1,4.354050159E0,8.944950104E0,9.954482461E0
5.260267370E-1,3.870000243E-1,4.315950394E0,8.907000542E0,9.905142880E0
5.279898950E-1,3.490500152E-1,4.354050159E0,8.944950104E0,9.954482461E0
5.299533320E-1,3.490500152E-1,4.354050159E0,8.907000542E0,9.920395524E0
5.319166780E-1,3.109500110E-1,4.315950394E0,8.907000542E0,9.902463146E0
5.338800690E-1,3.490500152E-1,4.354050159E0,8.944950104E0,9.954482461E0
5.358434470E-1,3.490500152E-1,4.354050159E0,8.907000542E0,9.920395524E0
5.378066990E-1,3.109500110E-1,4.354050159E0,8.944950104E0,9.953219331E0
5.397699880E-1,3.109500110E-1,4.392000198E0,8.907000542E0,9.935844921E0
5.417332020E-1,3.490500152E-1,4.354050159E0,8.907000542E0,9.920395524E0
5.436964110E-1,3.109500110E-1,4.354050159E0,8.907000542E0,9.919128054E0
5.456596450E-1,3.490500152E-1,4.392000198E0,8.983950615E0,1.000614163E1
5.476228710E-1,3.109500110E-1,4.392000198E0,8.907000542E0,9.935844921E0
5.495856080E-1,2.719500065E-1,4.392000198E0,8.944950104E0,9.968738882E0
5.515484880E-1,3.109500110E-1,4.431000233E0,8.983950615E0,1.002206673E1
5.535117710E-1,2.719500065E-1,4.392000198E0,8.944950104E0,9.968738882E0
5.554749090E-1,2.340000123E-1,4.354050159E0,8.907000542E0,9.917014039E0
5.574379770E-1,2.719500065E-1,4.392000198E0,8.944950104E0,9.968738882E0
5.594010650E-1,2.719500065E-1,4.431000233E0,8.907000542E0,9.952003744E0
5.613640050E-1,3.109500110E-1,4.354050159E0,8.944950104E0,9.953219331E0
5.633269880E-1,2.719500065E-1,4.392000198E0,8.907000542E0,9.934700861E0
5.652896910E-1,3.109500110E-1,4.392000198E0,8.944950104E0,9.969879037E0
5.672524970E-1,3.109500110E-1,4.392000198E0,8.907000542E0,9.935844921E0
5.692155740E-1,3.109500110E-1,4.392000198E0,8.944950104E0,9.969879037E0
5.711785720E-1,2.719500065E-1,4.392000198E0,8.907000542E0,9.934700861E0
5.731416630E-1,3.109500110E-1,4.354050159E0,8.907000542E0,9.919128054E0
5.751047260E-1,3.109500110E-1,4.354050159E0,8.907000542E0,9.919128054E0
5.770676060E-1,3.109500110E-1,4.354050159E0,8.869050026E0,9.885064039E0
5.790305540E-1,3.870000243E-1,4.276950359E0,8.944950104E0,9.922409272E0
5.809931570E-1,3.490500152E-1,4.354050159E0,8.869050026E0,9.886335877E0
5.829558620E-1,3.490500152E-1,4.354050159E0,8.907000542E0,9.920395524E0
5.849188210E-1,3.870000243E-1,4.315950394E0,8.907000542E0,9.905142880E0
5.868817060E-1,3.870000243E-1,4.315950394E0,8.944950104E0,9.939282126E0
5.888448050E-1,3.870000243E-1,4.354050159E0,8.983950615E0,9.990940419E0
5.908078170E-1,3.490500152E-1,4.315950394E0,8.907000542E0,9.903732749E0
5.927709500E-1,3.490500152E-1,4.239000320E0,8.907000542E0,9.870441646E0
5.947340480E-1,3.109500110E-1,4.315950394E0,8.907000542E0,9.902463146E0
5.966972560E-1,3.490500152E-1,4.315950394E0,8.944950104E0,9.937876839E0
5.986604320E-1,3.490500152E-1,4.315950394E0,8.944950104E0,9.937876839E0
6.006235020E-1,3.490500152E-1,4.315950394E0,8.983950615E0,9.972995155E0
6.025865970E-1,3.870000243E-1,4.315950394E0,8.983950615E0,9.974395494E0
6.045496710E-1,4.260000288E-1,4.354050159E0,8.944950104E0,9.957477651E0
6.065127510E-1,4.260000288E-1,4.315950394E0,8.983950615E0,9.975984787E0
6.084760070E-1,4.260000288E-1,4.276950359E0,9.022050858E0,9.993557028E0
6.104392110E-1,3.870000243E-1,4.276950359E0,8.983950615E0,9.957582139E0
6.124025940E-1,3.870000243E-1,4.315950394E0,9.022050858E0,1.000872612E1
6.143659470E-1,4.260000288E-1,4.354050159E0,8.983950615E0,9.992527081E0
6.163291580E-1,3.870000243E-1,4.354050159E0,9.060000420E0,1.005938017E1
6.182924100E-1,4.260000288E-1,4.354050159E0,9.060000420E0,1.006095604E1
6.202558620E-1,3.490500152E-1,4.315950394E0,9.060000420E0,1.004155722E1
6.222192550E-1,3.870000243E-1,4.315950394E0,8.983950615E0,9.974395494E0
6.241824490E-1,4.260000288E-1,4.354050159E0,9.022050858E0,1.002679562E1
6.261457080E-1,4.260000288E-1,4.315950394E0,9.022050858E0,1.001030996E1
6.281090680E-1,3.870000243E-1,4.354050159E0,9.060000420E0,1.005938017E1
6.300723980E-1,3.490500152E-1,4.354050159E0,9.022050858E0,1.002382115E1
6.320354780E-1,3.490500152E-1,4.354050159E0,9.098999977E0,1.009313575E1
6.339986310E-1,3.490500152E-1,4.354050159E0,9.022050858E0,1.002382115E1
6.359618140E-1,3.490500152E-1,4.354050159E0,9.098999977E0,1.009313575E1
6.379249990E-1,3.109500110E-1,4.392000198E0,9.060000420E0,1.007323003E1
6.398882370E-1,3.490500152E-1,4.354050159E0,9.060000420E0,1.005799166E1
6.418514600E-1,3.490500152E-1,4.354050159E0,9.060000420E0,1.005799166E1
6.438145580E-1,3.490500152E-1,4.392000198E0,9.060000420E0,1.007447811E1
6.457776930E-1,3.490500152E-1,4.354050159E0,9.098999977E0,1.009313575E1
6.477409090E-1,2.340000123E-1,4.354050159E0,9.098999977E0,1.008981216E1
6.497040910E-1,3.109500110E-1,4.315950394E0,9.098999977E0,1.007551082E1
6.516670160E-1,2.719500065E-1,4.315950394E0,9.060000420E0,1.003917288E1
6.536300160E-1,3.109500110E-1,4.354050159E0,9.098999977E0,1.009188998E1
6.555932850E-1,3.109500110E-1,4.354050159E0,9.098999977E0,1.009188998E1
6.575564750E-1,3.109500110E-1,4.354050159E0,9.136950493E0,1.012612004E1
6.595196580E-1,2.719500065E-1,4.315950394E0,9.098999977E0,1.007438262E1
6.614828500E-1,3.109500110E-1,4.315950394E0,9.060000420E0,1.004030504E1
6.634457280E-1,3.109500110E-1,4.315950394E0,9.098999977E0,1.007551082E1
6.654086980E-1,3.109500110E-1,4.276950359E0,9.022050858E0,9.989314089E0
6.673714330E-1,3.490500152E-1,4.276950359E0,9.098999977E0,1.006011634E1
6.693342370E-1,2.719500065E-1,4.276950359E0,9.060000420E0,1.002246820E1
6.712974190E-1,3.109500110E-1,4.315950394E0,9.060000420E0,1.004030504E1
6.732604800E-1,3.490500152E-1,4.315950394E0,9.060000420E0,1.004155722E1
6.752235160E-1,3.490500152E-1,4.276950359E0,9.098999977E0,1.006011634E1
6.771865590E-1,3.870000243E-1,4.276950359E0,9.022050858E0,9.991970530E0
6.791496410E-1,3.870000243E-1,4.276950359E0,8.983950615E0,9.957582139E0
6.811127110E-1,3.490500152E-1,4.201050282E0,9.060000420E0,9.992710693E0
6.830757840E-1,3.490500152E-1,4.239000320E0,9.022050858E0,9.974385260E0
6.850388600E-1,3.870000243E-1,4.276950359E0,8.944950104E0,9.922409272E0
6.870019820E-1,3.870000243E-1,4.239000320E0,8.983950615E0,9.941341026E0
6.889650910E-1,3.870000243E-1,4.276950359E0,8.944950104E0,9.922409272E0
6.909282980E-1,3.490500152E-1,4.276950359E0,8.944950104E0,9.921001595E0
6.928914760E-1,4.260000288E-1,4.239000320E0,8.944950104E0,9.907710740E0
6.948548960E-1,3.870000243E-1,4.201050282E0,8.944950104E0,9.889930477E0
6.968182450E-1,3.490500152E-1,4.276950359E0,8.869050026E0,9.852623440E0
6.987818160E-1,4.260000288E-1,4.239000320E0,8.907000542E0,9.873462330E0
7.007453220E-1,3.870000243E-1,4.239000320E0,8.869050026E0,9.837628835E0
7.027086870E-1,3.870000243E-1,4.239000320E0,8.830050468E0,9.802483563E0
7.046720930E-1,4.260000288E-1,4.276950359E0,8.944950104E0,9.924006890E0
7.066352780E-1,3.870000243E-1,4.276950359E0,8.869050026E0,9.854040885E0
7.085985390E-1,3.490500152E-1,4.276950359E0,8.830050468E0,9.817531847E0
7.105616290E-1,4.260000288E-1,4.276950359E0,8.869050026E0,9.855649586E0
7.125247700E-1,4.260000288E-1,4.276950359E0,8.869050026E0,9.855649586E0
7.144881510E-1,3.870000243E-1,4.315950394E0,8.869050026E0,9.871030604E0
7.164514610E-1,3.870000243E-1,4.315950394E0,8.830050468E0,9.836004682E0
7.184145590E-1,4.260000288E-1,4.315950394E0,8.830050468E0,9.837616332E0
7.203777080E-1,4.260000288E-1,4.315950394E0,8.869050026E0,9.872636537E0
7.223410870E-1,3.870000243E-1,4.315950394E0,8.830050468E0,9.836004682E0
7.243043990E-1,4.639500082E-1,4.315950394E0,8.830050468E0,9.839332736E0
7.262676170E-1,4.260000288E-1,4.315950394E0,8.830050468E0,9.837616332E0
7.282308620E-1,4.260000288E-1,4.315950394E0,8.830050468E0,9.837616332E0
7.301939070E-1,4.260000288E-1,4.315950394E0,8.830050468E0,9.837616332E0
7.321570450E-1,3.870000243E-1,4.354050159E0,8.791950226E0,9.818651159E0
7.341206060E-1,3.870000243E-1,4.354050159E0,8.830050468E0,9.852781997E0
7.360840430E-1,3.870000243E-1,4.354050159E0,8.869050026E0,9.887748489E0
7.380472840E-1,3.490500152E-1,4.354050159E0,8.869050026E0,9.886335877E0
7.400105830E-1,4.260000288E-1,4.354050159E0,8.869050026E0,9.889351707E0
7.419737230E-1,3.870000243E-1,4.354050159E0,8.830050468E0,9.852781997E0
7.439369340E-1,3.870000243E-1,4.354050159E0,8.869050026E0,9.887748489E0
7.459001670E-1,3.490500152E-1,4.354050159E0,8.869050026E0,9.886335877E0
7.478633940E-1,3.490500152E-1,4.392000198E0,8.830050468E0,9.868196032E0
7.498268060E-1,3.870000243E-1,4.354050159E0,8.869050026E0,9.887748489E0
7.517901630E-1,3.870000243E-1,4.392000198E0,8.869050026E0,9.904518319E0
7.537532380E-1,3.109500110E-1,4.354050159E0,8.907000542E0,9.919128054E0
7.557163960E-1,2.719500065E-1,4.354050159E0,8.907000542E0,9.917982065E0
7.576798180E-1,2.719500065E-1,4.354050159E0,8.907000542E0,9.917982065E0
7.596431630E-1,3.109500110E-1,4.392000198E0,8.907000542E0,9.935844921E0
7.616066900E-1,2.719500065E-1,4.392000198E0,8.907000542E0,9.934700861E0
7.635701630E-1,3.109500110E-1,4.392000198E0,8.907000542E0,9.935844921E0
7.655335990E-1,3.109500110E-1,4.354050159E0,8.983950615E0,9.988283704E0
7.674970310E-1,3.109500110E-1,4.354050159E0,9.022050858E0,1.002256676E1
7.694604070E-1,3.109500110E-1,4.392000198E0,8.944950104E0,9.969879037E0
7.714238000E-1,3.490500152E-1,4.354050159E0,8.944950104E0,9.954482461E0
7.733867780E-1,3.490500152E-1,4.354050159E0,8.983950615E0,9.989542400E0
7.753498770E-1,3.109500110E-1,4.354050159E0,8.983950615E0,9.988283704E0
7.773131510E-1,3.109500110E-1,4.392000198E0,8.983950615E0,1.000488502E1
7.792763900E-1,3.109500110E-1,4.354050159E0,8.944950104E0,9.953219331E0
7.812396200E-1,3.109500110E-1,4.315950394E0,8.983950615E0,9.971734371E0
7.832028530E-1,3.490500152E-1,4.315950394E0,8.983950615E0,9.972995155E0
7.851660840E-1,3.490500152E-1,4.315950394E0,8.983950615E0,9.972995155E0
7.871293150E-1,3.109500110E-1,4.315950394E0,8.944950104E0,9.936611599E0
7.890927340E-1,3.109500110E-1,4.276950359E0,9.022050858E0,9.989314089E0
7.910560910E-1,3.490500152E-1,4.315950394E0,8.983950615E0,9.972995155E0
7.930192560E-1,3.109500110E-1,4.315950394E0,8.983950615E0,9.971734371E0
7.949824780E-1,3.490500152E-1,4.315950394E0,9.022050858E0,1.000733058E1
7.969455750E-1,3.490500152E-1,4.315950394E0,9.022050858E0,1.000733058E1
7.989087080E-1,3.109500110E-1,4.315950394E0,8.983950615E0,9.971734371E0
8.008722990E-1,3.490500152E-1,4.276950359E0,9.022050858E0,9.990572655E0
8.028357350E-1,3.490500152E-1,4.354050159E0,9.022050858E0,1.002382115E1
8.047987510E-1,3.490500152E-1,4.276950359E0,9.022050858E0,9.990572655E0
8.067618910E-1,3.490500152E-1,4.315950394E0,9.060000420E0,1.004155722E1
8.087251370E-1,3.490500152E-1,4.276950359E0,9.022050858E0,9.990572655E0
8.106883510E-1,3.870000243E-1,4.276950359E0,9.022050858E0,9.991970530E0
8.126514750E-1,3.490500152E-1,4.315950394E0,8.983950615E0,9.972995155E0
8.146146080E-1,3.109500110E-1,4.276950359E0,9.022050858E0,9.989314089E0
8.165778540E-1,3.490500152E-1,4.276950359E0,8.983950615E0,9.956179435E0
8.185410670E-1,3.490500152E-1,4.315950394E0,9.060000420E0,1.004155722E1
8.205041220E-1,3.109500110E-1,4.315950394E0,8.983950615E0,9.971734371E0
8.224672230E-1,3.490500152E-1,4.239000320E0,9.022050858E0,9.974385260E0
8.244303250E-1,3.109500110E-1,4.276950359E0,8.944950104E0,9.919734202E0
8.263934060E-1,3.870000243E-1,4.276950359E0,8.983950615E0,9.957582139E0
8.283566170E-1,3.490500152E-1,4.239000320E0,9.022050858E0,9.974385260E0
8.303197890E-1,3.490500152E-1,4.276950359E0,8.983950615E0,9.956179435E0
8.322830300E-1,3.109500110E-1,4.276950359E0,8.983950615E0,9.954916521E0
8.342462500E-1,3.490500152E-1,4.276950359E0,8.983950615E0,9.956179435E0
8.362094780E-1,3.490500152E-1,4.276950359E0,8.907000542E0,9.886799226E0
8.381727070E-1,3.870000243E-1,4.315950394E0,9.022050858E0,1.000872612E1
8.401358040E-1,3.490500152E-1,4.315950394E0,8.983950615E0,9.972995155E0
8.420989390E-1,3.490500152E-1,4.276950359E0,8.983950615E0,9.956179435E0
8.440621400E-1,3.490500152E-1,4.315950394E0,8.944950104E0,9.937876839E0
8.460253220E-1,3.870000243E-1,4.276950359E0,8.983950615E0,9.957582139E0
8.479883970E-1,4.260000288E-1,4.276950359E0,8.983950615E0,9.959174115E0
8.499514930E-1,3.109500110E-1,4.315950394E0,8.983950615E0,9.971734371E0
8.519146110E-1,3.870000243E-1,4.276950359E0,8.983950615E0,9.957582139E0
8.538777220E-1,3.490500152E-1,4.315950394E0,8.983950615E0,9.972995155E0
8.558407940E-1,3.490500152E-1,4.276950359E0,9.022050858E0,9.990572655E0
8.578038780E-1,3.870000243E-1,4.276950359E0,9.022050858E0,9.991970530E0
8.597670670E-1,4.260000288E-1,4.315950394E0,8.983950615E0,9.975984787E0
8.617302400E-1,3.870000243E-1,4.315950394E0,8.983950615E0,9.974395494E0
8.636936610E-1,3.870000243E-1,4.315950394E0,9.022050858E0,1.000872612E1
8.656570090E-1,3.870000243E-1,4.315950394E0,8.983950615E0,9.974395494E0
8.676202210E-1,3.870000243E-1,4.276950359E0,9.022050858E0,9.991970530E0
8.695834730E-1,4.260000288E-1,4.276950359E0,8.983950615E0,9.959174115E0
8.715467540E-1,4.260000288E-1,4.276950359E0,8.983950615E0,9.959174115E0
8.735100190E-1,3.870000243E-1,4.315950394E0,8.944950104E0,9.939282126E0
8.754733800E-1,4.639500082E-1,4.276950359E0,9.022050858E0,9.995246653E0
8.774367120E-1,4.260000288E-1,4.315950394E0,9.022050858E0,1.001030996E1
8.793997910E-1,4.260000288E-1,4.276950359E0,8.983950615E0,9.959174115E0
8.813629450E-1,3.870000243E-1,4.276950359E0,8.983950615E0,9.957582139E0
8.833261420E-1,4.260000288E-1,4.315950394E0,8.944950104E0,9.940877033E0
8.852893270E-1,4.260000288E-1,4.354050159E0,8.944950104E0,9.957477651E0
8.872523870E-1,4.639500082E-1,4.354050159E0,8.907000542E0,9.925102571E0
8.892154830E-1,3.870000243E-1,4.315950394E0,8.944950104E0,9.939282126E0
8.911787360E-1,3.870000243E-1,4.354050159E0,8.944950104E0,9.955885404E0
8.931419430E-1,3.490500152E-1,4.354050159E0,8.944950104E0,9.954482461E0
8.951051730E-1,4.260000288E-1,4.392000198E0,8.944950104E0,9.974130244E0
8.970683990E-1,3.490500152E-1,4.354050159E0,8.944950104E0,9.954482461E0
8.990316760E-1,3.490500152E-1,4.354050159E0,8.907000542E0,9.920395524E0
9.009949380E-1,3.870000243E-1,4.354050159E0,8.983950615E0,9.990940419E0
9.029578040E-1,3.490500152E-1,4.392000198E0,8.907000542E0,9.937110259E0
9.049207860E-1,3.490500152E-1,4.315950394E0,8.944950104E0,9.937876839E0
9.068840290E-1,3.490500152E-1,4.315950394E0,8.944950104E0,9.937876839E0
9.088472160E-1,3.109500110E-1,4.354050159E0,8.944950104E0,9.953219331E0
9.108104100E-1,3.490500152E-1,4.315950394E0,8.983950615E0,9.972995155E0
9.127736010E-1,3.490500152E-1,4.392000198E0,8.944950104E0,9.971140056E0
9.147367050E-1,3.109500110E-1,4.392000198E0,8.944950104E0,9.969879037E0
9.166998340E-1,3.109500110E-1,4.354050159E0,8.983950615E0,9.988283704E0
9.186629020E-1,3.490500152E-1,4.354050159E0,8.983950615E0,9.989542400E0
9.206259880E-1,3.490500152E-1,4.354050159E0,8.983950615E0,9.989542400E0
9.225892420E-1,3.109500110E-1,4.392000198E0,8.983950615E0,1.000488502E1
9.245524470E-1,3.490500152E-1,4.354050159E0,8.983950615E0,9.989542400E0
9.265158620E-1,3.490500152E-1,4.354050159E0,8.983950615E0,9.989542400E0
9.284792160E-1,3.490500152E-1,4.354050159E0,8.944950104E0,9.954482461E0
9.304424460E-1,3.109500110E-1,4.354050159E0,9.060000420E0,1.005674154E1
9.324056990E-1,3.490500152E-1,4.354050159E0,8.944950104E0,9.954482461E0
9.343687460E-1,2.719500065E-1,4.315950394E0,8.983950615E0,9.970594429E0
9.363318530E-1,3.109500110E-1,4.354050159E0,8.983950615E0,9.988283704E0
9.382952390E-1,3.109500110E-1,4.392000198E0,8.944950104E0,9.969879037E0
9.402585430E-1,3.490500152E-1,4.315950394E0,8.944950104E0,9.937876839E0
9.422219600E-1,3.109500110E-1,4.354050159E0,8.944950104E0,9.953219331E0
9.441853310E-1,3.109500110E-1,4.392000198E0,8.944950104E0,9.969879037E0
9.461483590E-1,3.109500110E-1,4.354050159E0,8.944950104E0,9.953219331E0
9.481114870E-1,3.109500110E-1,4.315950394E0,8.944950104E0,9.936611599E0
9.500744200E-1,3.490500152E-1,4.354050159E0,8.983950615E0,9.989542400E0
9.520374100E-1,3.490500152E-1,4.315950394E0,8.907000542E0,9.903732749E0
9.540001220E-1,3.109500110E-1,4.315950394E0,8.944950104E0,9.936611599E0
9.559629290E-1,3.109500110E-1,4.315950394E0,8.944950104E0,9.936611599E0
9.579258710E-1,3.109500110E-1,4.315950394E0,8.983950615E0,9.971734371E0
9.598887730E-1,2.719500065E-1,4.354050159E0,8.907000542E0,9.917982065E0
9.618516560E-1,2.719500065E-1,4.315950394E0,8.907000542E0,9.901315229E0
9.638145440E-1,3.109500110E-1,4.315950394E0,8.944950104E0,9.936611599E0
9.657775320E-1,3.109500110E-1,4.354050159E0,8.944950104E0,9.953219331E0
9.677404800E-1,3.109500110E-1,4.315950394E0,8.907000542E0,9.902463146E0
9.697034000E-1,3.109500110E-1,4.315950394E0,8.907000542E0,9.902463146E0
9.716663280E-1,3.490500152E-1,4.315950394E0,8.944950104E0,9.937876839E0
9.736294290E-1,3.490500152E-1,4.315950394E0,8.907000542E0,9.903732749E0
9.755924800E-1,3.490500152E-1,4.315950394E0,8.944950104E0,9.937876839E0
9.775555620E-1,3.490500152E-1,4.315950394E0,8.907000542E0,9.903732749E0
9.795186340E-1,3.490500152E-1,4.315950394E0,8.907000542E0,9.903732749E0
9.814818470E-1,3.109500110E-1,4.354050159E0,8.907000542E0,9.919128054E0
9.834450190E-1,3.490500152E-1,4.354050159E0,8.869050026E0,9.886335877E0
9.854077650E-1,3.490500152E-1,4.315950394E0,8.944950104E0,9.937876839E0
9.873706360E-1,3.870000243E-1,4.315950394E0,8.869050026E0,9.871030604E0
9.893336920E-1,3.490500152E-1,4.315950394E0,8.907000542E0,9.903732749E0
9.912967010E-1,3.109500110E-1,4.315950394E0,8.907000542E0,9.902463146E0
9.932596550E-1,3.870000243E-1,4.354050159E0,8.907000542E0,9.921803287E0
9.952226260E-1,3.870000243E-1,4.315950394E0,8.907000542E0,9.905142880E0
9.971858550E-1,3.870000243E-1,4.354050159E0,8.907000542E0,9.921803287E0
9.991490090E-1,3.490500152E-1,4.354050159E0,8.944950104E0,9.954482461E0
1.001111850E0,3.490500152E-1,4.315950394E0,8.869050026E0,9.869615599E0
1.003074814E0,3.870000243E-1,4.315950394E0,8.907000542E0,9.905142880E0
1.005037909E0,3.490500152E-1,4.354050159E0,8.944950104E0,9.954482461E0
1.007000966E0,3.490500152E-1,4.354050159E0,8.869050026E0,9.886335877E0
1.008963912E0,3.109500110E-1,4.315950394E0,8.944950104E0,9.936611599E0
1.010926891E0,3.870000243E-1,4.354050159E0,8.944950104E0,9.955885404E0
1.012889939E0,3.490500152E-1,4.354050159E0,8.907000542E0,9.920395524E0
1.014852966E0,3.490500152E-1,4.315950394E0,8.907000542E0,9.903732749E0
1.016815737E0,3.490500152E-1,4.315950394E0,8.983950615E0,9.972995155E0
1.018778583E0,3.870000243E-1,4.276950359E0,8.944950104E0,9.922409272E0
1.020741653E0,3.490500152E-1,4.315950394E0,8.907000542E0,9.903732749E0
1.022704658E0,3.490500152E-1,4.315950394E0,8.944950104E0,9.937876839E0
1.024667718E0,3.490500152E-1,4.315950394E0,8.983950615E0,9.972995155E0
1.026630783E0,3.870000243E-1,4.315950394E0,9.022050858E0,1.000872612E1
1.028593728E0,4.260000288E-1,4.276950359E0,9.022050858E0,9.993557028E0
1.030556708E0,4.260000288E-1,4.276950359E0,8.983950615E0,9.959174115E0
1.032519801E0,3.490500152E-1,4.276950359E0,9.022050858E0,9.990572655E0
1.034482860E0,3.870000243E-1,4.276950359E0,9.022050858E0,9.991970530E0
1.036445940E0,4.260000288E-1,4.315950394E0,9.022050858E0,1.001030996E1
1.038409014E0,3.870000243E-1,4.276950359E0,9.022050858E0,9.991970530E0
1.040372407E0,3.870000243E-1,4.276950359E0,9.060000420E0,1.002624960E1
1.042335706E0,3.490500152E-1,4.276950359E0,9.022050858E0,9.990572655E0
1.044298972E0,4.260000288E-1,4.276950359E0,8.983950615E0,9.959174115E0
1.046262247E0,3.870000243E-1,4.276950359E0,9.022050858E0,9.991970530E0
1.048225470E0,3.870000243E-1,4.315950394E0,9.022050858E0,1.000872612E1
1.050188708E0,4.639500082E-1,4.315950394E0,9.098999977E0,1.008139266E1
1.052151938E0,3.870000243E-1,4.276950359E0,9.136950493E0,1.009583764E1
1.054115170E0,3.870000243E-1,4.276950359E0,9.098999977E0,1.006150456E1
1.056078040E0,3.870000243E-1,4.276950359E0,9.060000420E0,1.002624960E1
1.058041016E0,3.490500152E-1,4.315950394E0,9.022050858E0,1.000733058E1
1.060004239E0,3.490500152E-1,4.276950359E0,9.098999977E0,1.006011634E1
1.061967393E0,3.490500152E-1,4.315950394E0,9.060000420E0,1.004155722E1
1.063930637E0,3.490500152E-1,4.239000320E0,9.098999977E0,1.004404103E1
1.065893855E0,3.109500110E-1,4.276950359E0,9.136950493E0,1.009320854E1
1.067856774E0,3.490500152E-1,4.315950394E0,9.022050858E0,1.000733058E1
1.069819780E0,3.870000243E-1,4.276950359E0,9.060000420E0,1.002624960E1
1.071783188E0,3.490500152E-1,4.276950359E0,9.060000420E0,1.002485650E1
1.073746475E0,3.490500152E-1,4.276950359E0,9.098999977E0,1.006011634E1
1.075709877E0,3.490500152E-1,4.315950394E0,9.022050858E0,1.000733058E1
1.077673245E0,3.870000243E-1,4.315950394E0,9.022050858E0,1.000872612E1
1.079636498E0,3.870000243E-1,4.276950359E0,9.060000420E0,1.002624960E1
1.081599785E0,4.260000288E-1,4.276950359E0,9.060000420E0,1.002783067E1
1.083563551E0,3.490500152E-1,4.239000320E0,9.022050858E0,9.974385260E0
1.085527173E0,3.870000243E-1,4.276950359E0,9.022050858E0,9.991970530E0
1.087490473E0,3.870000243E-1,4.315950394E0,9.060000420E0,1.004294799E1
1.089453867E0,4.260000288E-1,4.276950359E0,9.060000420E0,1.002783067E1
1.091416754E0,3.870000243E-1,4.276950359E0,9.022050858E0,9.991970530E0
1.093379790E0,4.260000288E-1,4.276950359E0,8.983950615E0,9.959174115E0
1.095342882E0,4.260000288E-1,4.315950394E0,8.983950615E0,9.975984787E0
1.097305951E0,4.260000288E-1,4.315950394E0,8.983950615E0,9.975984787E0
1.099269029E0,4.260000288E-1,4.276950359E0,8.983950615E0,9.959174115E0
1.101232105E0,3.870000243E-1,4.315950394E0,8.944950104E0,9.939282126E0
1.103195317E0,4.260000288E-1,4.276950359E0,8.983950615E0,9.959174115E0
1.105158489E0,4.260000288E-1,4.315950394E0,8.944950104E0,9.940877033E0
1.107121745E0,4.260000288E-1,4.276950359E0,8.944950104E0,9.924006890E0
1.109084966E0,4.260000288E-1,4.315950394E0,8.983950615E0,9.975984787E0
1.111048379E0,4.260000288E-1,4.315950394E0,8.944950104E0,9.940877033E0
1.113011735E0,4.260000288E-1,4.315950394E0,8.944950104E0,9.940877033E0
1.114974765E0,4.639500082E-1,4.315950394E0,8.907000542E0,9.908447712E0
1.116937891E0,4.260000288E-1,4.276950359E0,8.944950104E0,9.924006890E0
1.118901304E0,3.870000243E-1,4.315950394E0,8.944950104E0,9.939282126E0
1.120864643E0,3.870000243E-1,4.315950394E0,8.944950104E0,9.939282126E0
1.122827721E0,4.260000288E-1,4.276950359E0,8.907000542E0,9.889814915E0
1.124790876E0,3.870000243E-1,4.315950394E0,8.944950104E0,9.939282126E0
1.126753940E0,4.260000288E-1,4.315950394E0,8.869050026E0,9.872636537E0
1.128717030E0,4.260000288E-1,4.315950394E0,8.907000542E0,9.906743283E0
1.130680275E0,4.639500082E-1,4.315950394E0,8.944950104E0,9.942575610E0
1.132643481E0,4.639500082E-1,4.315950394E0,8.907000542E0,9.908447712E0
1.134606672E0,3.870000243E-1,4.354050159E0,8.944950104E0,9.955885404E0
1.136569867E0,3.490500152E-1,4.315950394E0,8.944950104E0,9.937876839E0
1.138532924E0,3.870000243E-1,4.354050159E0,8.869050026E0,9.887748489E0
1.140496021E0,3.870000243E-1,4.354050159E0,8.907000542E0,9.921803287E0
1.142459143E0,3.870000243E-1,4.354050159E0,8.907000542E0,9.921803287E0
1.144422254E0,3.870000243E-1,4.315950394E0,8.907000542E0,9.905142880E0
1.146385505E0,4.260000288E-1,4.354050159E0,8.869050026E0,9.889351707E0
1.148348715E0,3.870000243E-1,4.276950359E0,8.907000542E0,9.888211772E0
1.150311770E0,4.260000288E-1,4.315950394E0,8.944950104E0,9.940877033E0
1.152274871E0,4.260000288E-1,4.354050159E0,8.907000542E0,9.923401003E0
1.154238088E0,4.260000288E-1,4.315950394E0,8.907000542E0,9.906743283E0
1.156201264E0,3.870000243E-1,4.354050159E0,8.907000542E0,9.921803287E0
1.158164145E0,3.490500152E-1,4.315950394E0,8.944950104E0,9.937876839E0
1.160127112E0,3.870000243E-1,4.315950394E0,8.869050026E0,9.871030604E0
1.162090207E0,3.109500110E-1,4.315950394E0,8.869050026E0,9.868341607E0
1.164053264E0,3.490500152E-1,4.315950394E0,8.869050026E0,9.869615599E0
1.166015959E0,3.870000243E-1,4.315950394E0,8.907000542E0,9.905142880E0
1.167978810E0,3.490500152E-1,4.354050159E0,8.869050026E0,9.886335877E0
1.169941880E0,3.490500152E-1,4.354050159E0,8.869050026E0,9.886335877E0
1.171904885E0,3.490500152E-1,4.315950394E0,8.907000542E0,9.903732749E0
1.173867840E0,3.870000243E-1,4.354050159E0,8.907000542E0,9.921803287E0
1.175830810E0,3.490500152E-1,4.354050159E0,8.944950104E0,9.954482461E0
1.177794234E0,3.490500152E-1,4.315950394E0,8.907000542E0,9.903732749E0
1.179757515E0,3.490500152E-1,4.276950359E0,8.907000542E0,9.886799226E0
1.181720378E0,3.490500152E-1,4.354050159E0,8.907000542E0,9.920395524E0
1.183683363E0,3.490500152E-1,4.354050159E0,8.944950104E0,9.954482461E0
1.185646635E0,3.490500152E-1,4.315950394E0,8.907000542E0,9.903732749E0
1.187609822E0,3.870000243E-1,4.354050159E0,8.869050026E0,9.887748489E0
1.189573144E0,3.490500152E-1,4.315950394E0,8.944950104E0,9.937876839E0
1.191536399E0,3.870000243E-1,4.392000198E0,8.944950104E0,9.972540655E0
1.193499401E0,3.870000243E-1,4.315950394E0,8.944950104E0,9.939282126E0
1.195462478E0,3.870000243E-1,4.354050159E0,8.944950104E0,9.955885404E0
1.197425734E0,3.870000243E-1,4.315950394E0,8.907000542E0,9.905142880E0
1.199388937E0,3.490500152E-1,4.354050159E0,8.944950104E0,9.954482461E0
1.201352048E0,3.870000243E-1,4.354050159E0,8.907000542E0,9.921803287E0
1.203315179E0,4.260000288E-1,4.354050159E0,8.907000542E0,9.923401003E0
1.205278606E0,4.260000288E-1,4.354050159E0,8.944950104E0,9.957477651E0
1.207241946E0,3.870000243E-1,4.354050159E0,8.983950615E0,9.990940419E0
1.209205114E0,3.870000243E-1,4.354050159E0,8.944950104E0,9.955885404E0
1.211168333E0,4.260000288E-1,4.354050159E0,8.944950104E0,9.957477651E0
1.213131410E0,3.870000243E-1,4.354050159E0,8.983950615E0,9.990940419E0
1.215094511E0,3.870000243E-1,4.315950394E0,8.983950615E0,9.974395494E0
1.217057627E0,3.490500152E-1,4.354050159E0,8.944950104E0,9.954482461E0
1.219020739E0,3.870000243E-1,4.315950394E0,8.983950615E0,9.974395494E0
1.220983766E0,3.490500152E-1,4.315950394E0,8.983950615E0,9.972995155E0
1.222946818E0,3.490500152E-1,4.315950394E0,8.983950615E0,9.972995155E0
1.224909719E0,3.870000243E-1,4.315950394E0,8.944950104E0,9.939282126E0
1.226872665E0,3.490500152E-1,4.354050159E0,8.983950615E0,9.989542400E0
1.228835808E0,3.490500152E-1,4.315950394E0,9.022050858E0,1.000733058E1
1.230798893E0,3.109500110E-1,4.354050159E0,8.983950615E0,9.988283704E0
1.232761925E0,3.490500152E-1,4.354050159E0,8.983950615E0,9.989542400E0
1.234724972E0,3.490500152E-1,4.315950394E0,8.983950615E0,9.972995155E0
1.236688103E0,3.490500152E-1,4.354050159E0,8.983950615E0,9.989542400E0
1.238651206E0,3.109500110E-1,4.315950394E0,8.983950615E0,9.971734371E0
1.240614099E0,3.490500152E-1,4.315950394E0,9.022050858E0,1.000733058E1
1.242577054E0,3.490500152E-1,4.315950394E0,9.060000420E0,1.004155722E1
1.244539971E0,3.870000243E-1,4.354050159E0,9.098999977E0,1.009451942E1
1.246502900E0,3.870000243E-1,4.315950394E0,9.060000420E0,1.004294799E1
1.248465946E0,3.870000243E-1,4.276950359E0,9.060000420E0,1.002624960E1
1.250428965E0,3.870000243E-1,4.276950359E0,9.098999977E0,1.006150456E1
1.252392052E0,4.260000288E-1,4.276950359E0,9.136950493E0,1.009740782E1
1.254355119E0,3.490500152E-1,4.239000320E0,9.098999977E0,1.004404103E1
1.256318198E0,3.870000243E-1,4.276950359E0,9.136950493E0,1.009583764E1
1.258281273E0,3.870000243E-1,4.276950359E0,9.098999977E0,1.006150456E1
1.260244507E0,4.260000288E-1,4.239000320E0,9.098999977E0,1.004700952E1
1.262207711E0,3.870000243E-1,4.276950359E0,9.175050735E0,1.013033215E1
1.264170946E0,4.260000288E-1,4.276950359E0,9.136950493E0,1.009740782E1
1.266134172E0,3.109500110E-1,4.276950359E0,9.060000420E0,1.002360224E1
1.268097089E0,3.490500152E-1,4.276950359E0,9.098999977E0,1.006011634E1
1.270060097E0,3.490500152E-1,4.239000320E0,9.175050735E0,1.011298747E1
1.272023564E0,3.109500110E-1,4.239000320E0,9.098999977E0,1.004278916E1
1.273986883E0,3.870000243E-1,4.239000320E0,9.136950493E0,1.007981930E1
1.275950055E0,3.109500110E-1,4.276950359E0,9.136950493E0,1.009320854E1
1.277913270E0,3.109500110E-1,4.315950394E0,9.098999977E0,1.007551082E1
1.279876368E0,3.490500152E-1,4.315950394E0,9.060000420E0,1.004155722E1
1.281839501E0,2.719500065E-1,4.315950394E0,9.060000420E0,1.003917288E1
1.283802928E0,3.109500110E-1,4.315950394E0,9.098999977E0,1.007551082E1
1.285766268E0,3.109500110E-1,4.354050159E0,9.060000420E0,1.005674154E1
1.287729301E0,2.719500065E-1,4.354050159E0,9.060000420E0,1.005561123E1
1.289692424E0,2.340000123E-1,4.354050159E0,9.022050858E0,1.002047456E1
1.291655267E0,2.719500065E-1,4.354050159E0,9.060000420E0,1.005561123E1
1.293618193E0,2.719500065E-1,4.354050159E0,9.022050858E0,1.002143260E1
1.295580977E0,2.719500065E-1,4.354050159E0,9.060000420E0,1.005561123E1
1.297543805E0,2.719500065E-1,4.354050159E0,9.022050858E0,1.002143260E1
1.299507058E0,3.109500110E-1,4.354050159E0,8.983950615E0,9.988283704E0
1.301470187E0,2.719500065E-1,4.392000198E0,9.022050858E0,1.003797909E1
1.303433301E0,2.719500065E-1,4.315950394E0,8.944950104E0,9.935467627E0
1.305396420E0,3.490500152E-1,4.354050159E0,8.983950615E0,9.989542400E0
1.307359784E0,3.109500110E-1,4.392000198E0,8.907000542E0,9.935844921E0
1.309323090E0,3.109500110E-1,4.354050159E0,8.944950104E0,9.953219331E0
1.311286129E0,3.109500110E-1,4.354050159E0,8.907000542E0,9.919128054E0
1.313249246E0,3.109500110E-1,4.354050159E0,8.944950104E0,9.953219331E0
1.315212675E0,3.109500110E-1,4.315950394E0,8.944950104E0,9.936611599E0
1.317176013E0,3.490500152E-1,4.354050159E0,8.907000542E0,9.920395524E0
1.319139242E0,3.109500110E-1,4.354050159E0,8.907000542E0,9.919128054E0
1.321102492E0,3.490500152E-1,4.315950394E0,8.944950104E0,9.937876839E0
1.323065584E0,3.109500110E-1,4.315950394E0,8.944950104E0,9.936611599E0
1.325028723E0,3.490500152E-1,4.315950394E0,8.869050026E0,9.869615599E0
1.326991923E0,3.490500152E-1,4.276950359E0,8.944950104E0,9.921001595E0
1.328955105E0,3.490500152E-1,4.315950394E0,8.944950104E0,9.937876839E0
1.330918210E0,3.490500152E-1,4.315950394E0,8.944950104E0,9.937876839E0
1.332881338E0,3.490500152E-1,4.276950359E0,8.907000542E0,9.886799226E0
1.334844720E0,3.870000243E-1,4.315950394E0,8.983950615E0,9.974395494E0
1.336808028E0,3.870000243E-1,4.315950394E0,8.983950615E0,9.974395494E0
1.338771247E0,3.490500152E-1,4.239000320E0,8.907000542E0,9.870441646E0
1.340734492E0,3.870000243E-1,4.276950359E0,8.944950104E0,9.922409272E0
1.342697561E0,3.870000243E-1,4.276950359E0,8.944950104E0,9.922409272E0
1.344660699E0,4.260000288E-1,4.315950394E0,8.907000542E0,9.906743283E0
1.346624080E0,4.260000288E-1,4.315950394E0,8.907000542E0,9.906743283E0
1.348587389E0,4.260000288E-1,4.276950359E0,8.907000542E0,9.889814915E0
1.350550247E0,3.870000243E-1,4.276950359E0,8.944950104E0,9.922409272E0
1.352513237E0,4.260000288E-1,4.276950359E0,8.983950615E0,9.959174115E0
1.354476395E0,4.260000288E-1,4.276950359E0,8.907000542E0,9.889814915E0
1.356439456E0,3.870000243E-1,4.276950359E0,8.907000542E0,9.888211772E0
1.358402536E0,3.870000243E-1,4.315950394E0,8.869050026E0,9.871030604E0
1.360365610E0,4.260000288E-1,4.315950394E0,8.869050026E0,9.872636537E0
1.362328733E0,3.490500152E-1,4.315950394E0,8.907000542E0,9.903732749E0
1.364291841E0,3.870000243E-1,4.354050159E0,8.907000542E0,9.921803287E0
1.366255023E0,3.870000243E-1,4.354050159E0,8.907000542E0,9.921803287E0
1.368218201E0,4.260000288E-1,4.354050159E0,8.907000542E0,9.923401003E0
1.370181307E0,3.870000243E-1,4.392000198E0,8.907000542E0,9.938515654E0
1.372144434E0,3.490500152E-1,4.354050159E0,8.907000542E0,9.920395524E0
1.374107322E0,3.870000243E-1,4.392000198E0,8.869050026E0,9.904518319E0
1.376070280E0,3.490500152E-1,4.354050159E0,8.907000542E0,9.920395524E0
1.378033307E0,3.490500152E-1,4.392000198E0,8.907000542E0,9.937110259E0
1.379996331E0,3.490500152E-1,4.392000198E0,8.944950104E0,9.971140056E0
1.381959283E0,3.490500152E-1,4.392000198E0,8.944950104E0,9.971140056E0
1.383922256E0,3.109500110E-1,4.392000198E0,9.022050858E0,1.003911138E1
1.385885170E0,3.490500152E-1,4.354050159E0,8.983950615E0,9.989542400E0
1.387848102E0,3.490500152E-1,4.315950394E0,8.944950104E0,9.937876839E0
1.389811148E0,3.490500152E-1,4.354050159E0,8.983950615E0,9.989542400E0
1.391774167E0,3.490500152E-1,4.354050159E0,8.944950104E0,9.954482461E0
1.393736940E0,3.870000243E-1,4.354050159E0,8.983950615E0,9.990940419E0
1.395699785E0,3.490500152E-1,4.354050159E0,8.983950615E0,9.989542400E0
1.397662901E0,3.490500152E-1,4.392000198E0,9.022050858E0,1.004036371E1
1.399625937E0,3.870000243E-1,4.315950394E0,8.944950104E0,9.939282126E0
1.401589395E0,3.490500152E-1,4.354050159E0,8.944950104E0,9.954482461E0
1.403552720E0,3.490500152E-1,4.354050159E0,8.983950615E0,9.989542400E0
1.405515935E0,3.870000243E-1,4.315950394E0,8.944950104E0,9.939282126E0
1.407479183E0,3.870000243E-1,4.315950394E0,8.944950104E0,9.939282126E0
1.409442231E0,3.109500110E-1,4.276950359E0,9.022050858E0,9.989314089E0
1.411405337E0,3.490500152E-1,4.276950359E0,8.983950615E0,9.956179435E0
1.413368225E0,3.490500152E-1,4.276950359E0,9.022050858E0,9.990572655E0
1.415331179E0,3.109500110E-1,4.276950359E0,8.944950104E0,9.919734202E0
1.417294276E0,3.490500152E-1,4.276950359E0,8.983950615E0,9.956179435E0
1.419257331E0,3.870000243E-1,4.276950359E0,9.022050858E0,9.991970530E0
1.421220188E0,3.870000243E-1,4.239000320E0,8.983950615E0,9.941341026E0
1.423183103E0,3.490500152E-1,4.276950359E0,8.983950615E0,9.956179435E0
1.425146382E0,3.109500110E-1,4.276950359E0,9.022050858E0,9.989314089E0
1.427109557E0,3.490500152E-1,4.239000320E0,8.983950615E0,9.939936030E0
1.429072303E0,3.870000243E-1,4.201050282E0,8.944950104E0,9.889930477E0
1.431035175E0,3.870000243E-1,4.239000320E0,8.944950104E0,9.906110493E0
1.432998240E0,3.490500152E-1,4.239000320E0,8.944950104E0,9.904700500E0
1.434961249E0,3.870000243E-1,4.239000320E0,8.983950615E0,9.941341026E0
1.436924213E0,4.260000288E-1,4.239000320E0,8.944950104E0,9.907710740E0
1.438887184E0,4.260000288E-1,4.239000320E0,8.907000542E0,9.873462330E0
1.440850232E0,3.490500152E-1,4.239000320E0,8.944950104E0,9.904700500E0
1.442813258E0,3.870000243E-1,4.276950359E0,8.907000542E0,9.888211772E0
1.444776210E0,3.870000243E-1,4.276950359E0,8.907000542E0,9.888211772E0
1.446739184E0,3.870000243E-1,4.276950359E0,8.907000542E0,9.888211772E0
1.448702603E0,4.260000288E-1,4.315950394E0,8.907000542E0,9.906743283E0
1.450665884E0,3.490500152E-1,4.276950359E0,8.869050026E0,9.852623440E0
1.452628972E0,3.490500152E-1,4.276950359E0,8.907000542E0,9.886799226E0
1.454592117E0,4.260000288E-1,4.315950394E0,8.907000542E0,9.906743283E0
1.456555182E0,4.260000288E-1,4.315950394E0,8.907000542E0,9.906743283E0
1.458518271E0,3.870000243E-1,4.354050159E0,8.907000542E0,9.921803287E0
1.460481480E0,4.260000288E-1,4.315950394E0,8.944950104E0,9.940877033E0
1.462444653E0,3.490500152E-1,4.276950359E0,8.944950104E0,9.921001595E0
1.464407715E0,3.870000243E-1,4.315950394E0,8.944950104E0,9.939282126E0
1.466370809E0,3.870000243E-1,4.276950359E0,8.907000542E0,9.888211772E0
1.468333927E0,3.490500152E-1,4.315950394E0,8.907000542E0,9.903732749E0
1.470297038E0,3.870000243E-1,4.354050159E0,8.907000542E0,9.921803287E0
1.472259920E0,3.490500152E-1,4.354050159E0,8.944950104E0,9.954482461E0
1.474222876E0,3.490500152E-1,4.354050159E0,8.944950104E0,9.954482461E0
1.476185928E0,3.109500110E-1,4.315950394E0,8.944950104E0,9.936611599E0
1.478148951E0,3.109500110E-1,4.354050159E0,8.944950104E0,9.953219331E0
1.480111858E0,3.109500110E-1,4.392000198E0,8.983950615E0,1.000488502E1
1.482074799E0,3.490500152E-1,4.392000198E0,8.944950104E0,9.971140056E0
1.484037889E0,2.719500065E-1,4.392000198E0,8.983950615E0,1.000374886E1
1.486000942E0,3.109500110E-1,4.392000198E0,8.944950104E0,9.969879037E0
1.487964068E0,2.719500065E-1,4.392000198E0,9.022050858E0,1.003797909E1
1.489927173E0,3.109500110E-1,4.354050159E0,8.983950615E0,9.988283704E0
1.491890201E0,3.109500110E-1,4.392000198E0,8.983950615E0,1.000488502E1
1.493853252E0,3.109500110E-1,4.392000198E0,9.060000420E0,1.007323003E1
1.495816590E0,3.109500110E-1,4.392000198E0,9.022050858E0,1.003911138E1
1.497779821E0,2.719500065E-1,4.392000198E0,9.098999977E0,1.010719660E1
1.499742873E0,3.490500152E-1,4.392000198E0,9.060000420E0,1.007447811E1
1.501705977E0,3.109500110E-1,4.392000198E0,9.136950493E0,1.014249575E1
1.503669049E0,2.719500065E-1,4.354050159E0,9.060000420E0,1.005561123E1
1.505632131E0,2.719500065E-1,4.354050159E0,9.098999977E0,1.009076361E1
1.507595008E0,3.109500110E-1,4.354050159E0,9.022050858E0,1.002256676E1
1.509557958E0,3.490500152E-1,4.354050159E0,9.022050858E0,1.002382115E1
1.511521056E0,3.870000243E-1,4.354050159E0,9.022050858E0,1.002521439E1
1.513484110E0,3.109500110E-1,4.315950394E0,9.060000420E0,1.004030504E1
1.515447326E0,3.109500110E-1,4.354050159E0,9.060000420E0,1.005674154E1
1.517410494E0,3.109500110E-1,4.315950394E0,9.022050858E0,1.000607412E1
1.519373972E0,3.490500152E-1,4.315950394E0,8.983950615E0,9.972995155E0
1.521337352E0,3.490500152E-1,4.315950394E0,9.060000420E0,1.004155722E1
1.523300558E0,3.490500152E-1,4.354050159E0,9.022050858E0,1.002382115E1
1.525263815E0,3.109500110E-1,4.315950394E0,9.022050858E0,1.000607412E1
1.527226681E0,3.109500110E-1,4.315950394E0,9.060000420E0,1.004030504E1
1.529189661E0,3.109500110E-1,4.354050159E0,9.098999977E0,1.009188998E1
1.531153064E0,3.109500110E-1,4.315950394E0,9.022050858E0,1.000607412E1
1.533116347E0,3.490500152E-1,4.276950359E0,9.022050858E0,9.990572655E0
1.535079254E0,3.109500110E-1,4.315950394E0,9.060000420E0,1.004030504E1
1.537042272E0,3.490500152E-1,4.315950394E0,9.022050858E0,1.000733058E1
1.539005493E0,3.870000243E-1,4.276950359E0,9.060000420E0,1.002624960E1
1.540968654E0,3.490500152E-1,4.315950394E0,9.022050858E0,1.000733058E1
1.542931758E0,4.260000288E-1,4.315950394E0,9.060000420E0,1.004452644E1
1.544894882E0,4.260000288E-1,4.276950359E0,9.060000420E0,1.002783067E1
1.546858445E0,3.870000243E-1,4.276950359E0,8.983950615E0,9.957582139E0
1.548821880E0,4.260000288E-1,4.239000320E0,9.022050858E0,9.977374475E0
1.550785122E0,3.490500152E-1,4.276950359E0,8.983950615E0,9.956179435E0
1.552748421E0,4.260000288E-1,4.239000320E0,9.060000420E0,1.001170352E1
1.554711784E0,4.260000288E-1,4.276950359E0,8.983950615E0,9.959174115E0
1.556675121E0,4.260000288E-1,4.276950359E0,8.944950104E0,9.924006890E0
1.558638200E0,3.870000243E-1,4.239000320E0,8.983950615E0,9.941341026E0
1.560601354E0,4.639500082E-1,4.276950359E0,8.983950615E0,9.960869572E0
1.562564777E0,4.260000288E-1,4.276950359E0,8.944950104E0,9.924006890E0
1.564528121E0,4.260000288E-1,4.276950359E0,8.944950104E0,9.924006890E0
1.566491537E0,4.260000288E-1,4.315950394E0,8.944950104E0,9.940877033E0
1.568454914E0,3.870000243E-1,4.239000320E0,8.983950615E0,9.941341026E0
1.570418256E0,4.260000288E-1,4.239000320E0,9.022050858E0,9.977374475E0
1.572381608E0,4.260000288E-1,4.239000320E0,8.944950104E0,9.907710740E0
1.574344998E0,4.260000288E-1,4.276950359E0,8.944950104E0,9.924006890E0
1.576308376E0,3.870000243E-1,4.276950359E0,8.983950615E0,9.957582139E0
1.578271617E0,4.639500082E-1,4.276950359E0,8.983950615E0,9.960869572E0
1.580234906E0,4.260000288E-1,4.276950359E0,8.983950615E0,9.959174115E0
1.582198127E0,3.870000243E-1,4.201050282E0,8.944950104E0,9.889930477E0
1.584161368E0,3.490500152E-1,4.276950359E0,8.944950104E0,9.921001595E0
1.586124552E0,3.870000243E-1,4.315950394E0,8.944950104E0,9.939282126E0
1.588087752E0,3.870000243E-1,4.239000320E0,8.944950104E0,9.906110493E0
1.590050843E0,3.490500152E-1,4.239000320E0,8.983950615E0,9.939936030E0
1.592013973E0,4.260000288E-1,4.276950359E0,8.983950615E0,9.959174115E0
1.593977400E0,3.870000243E-1,4.239000320E0,8.983950615E0,9.941341026E0
1.595940740E0,3.870000243E-1,4.239000320E0,8.983950615E0,9.941341026E0
1.597903728E0,4.260000288E-1,4.315950394E0,8.983950615E0,9.975984787E0
1.599866819E0,4.260000288E-1,4.276950359E0,8.983950615E0,9.959174115E0
1.601829899E0,3.870000243E-1,4.276950359E0,8.944950104E0,9.922409272E0
1.603792978E0,3.490500152E-1,4.276950359E0,8.944950104E0,9.921001595E0
1.605755919E0,3.870000243E-1,4.276950359E0,8.944950104E0,9.922409272E0
1.607718901E0,3.870000243E-1,4.315950394E0,8.944950104E0,9.939282126E0
1.609681993E0,3.870000243E-1,4.276950359E0,8.944950104E0,9.922409272E0
1.611645053E0,3.490500152E-1,4.276950359E0,8.983950615E0,9.956179435E0
1.613608493E0,3.870000243E-1,4.315950394E0,8.907000542E0,9.905142880E0
1.615571822E0,3.870000243E-1,4.315950394E0,8.869050026E0,9.871030604E0
1.617534992E0,3.870000243E-1,4.315950394E0,8.907000542E0,9.905142880E0
1.619498209E0,4.260000288E-1,4.315950394E0,8.907000542E0,9.906743283E0
1.621461307E0,3.870000243E-1,4.315950394E0,8.869050026E0,9.871030604E0
1.623424440E0,4.260000288E-1,4.315950394E0,8.907000542E0,9.906743283E0
1.625387467E0,3.109500110E-1,4.354050159E0,8.869050026E0,9.885064039E0
1.627350522E0,3.490500152E-1,4.354050159E0,8.869050026E0,9.886335877E0
1.629313602E0,3.490500152E-1,4.354050159E0,8.869050026E0,9.886335877E0
1.631276674E0,3.490500152E-1,4.392000198E0,8.907000542E0,9.937110259E0
1.633239932E0,3.490500152E-1,4.392000198E0,8.907000542E0,9.937110259E0
1.635203135E0,3.490500152E-1,4.354050159E0,8.869050026E0,9.886335877E0
1.637166218E0,3.109500110E-1,4.354050159E0,8.830050468E0,9.850088019E0
1.639129349E0,3.490500152E-1,4.354050159E0,8.907000542E0,9.920395524E0
1.641092595E0,3.109500110E-1,4.392000198E0,8.830050468E0,9.866921857E0
1.643055808E0,3.490500152E-1,4.392000198E0,8.830050468E0,9.868196032E0
1.645019402E0,3.870000243E-1,4.354050159E0,8.830050468E0,9.852781997E0
1.646982885E0,3.490500152E-1,4.392000198E0,8.830050468E0,9.868196032E0
1.648946189E0,3.490500152E-1,4.392000198E0,8.830050468E0,9.868196032E0
1.650909560E0,3.490500152E-1,4.431000233E0,8.830050468E0,9.885615320E0
1.652872586E0,3.109500110E-1,4.431000233E0,8.869050026E0,9.919198624E0
1.654835714E0,3.109500110E-1,4.392000198E0,8.907000542E0,9.935844921E0
1.656798827E0,3.490500152E-1,4.431000233E0,8.907000542E0,9.954408954E0
1.658761944E0,3.870000243E-1,4.431000233E0,8.907000542E0,9.955811907E0
1.660725029E0,3.109500110E-1,4.392000198E0,8.907000542E0,9.935844921E0
1.662688113E0,3.109500110E-1,4.392000198E0,8.907000542E0,9.935844921E0
1.664651008E0,3.109500110E-1,4.354050159E0,8.869050026E0,9.885064039E0
1.666613959E0,3.490500152E-1,4.392000198E0,8.944950104E0,9.971140056E0
1.668577372E0,3.109500110E-1,4.392000198E0,8.944950104E0,9.969879037E0
1.670540650E0,2.719500065E-1,4.431000233E0,8.944950104E0,9.985982787E0
1.672503952E0,3.109500110E-1,4.392000198E0,8.944950104E0,9.969879037E0
1.674467223E0,2.719500065E-1,4.354050159E0,8.944950104E0,9.952077268E0
1.676430267E0,3.109500110E-1,4.392000198E0,8.983950615E0,1.000488502E1
1.678393377E0,2.719500065E-1,4.392000198E0,9.022050858E0,1.003797909E1
1.680356403E0,3.109500110E-1,4.354050159E0,9.022050858E0,1.002256676E1
1.682319454E0,3.109500110E-1,4.354050159E0,8.944950104E0,9.953219331E0
1.684282565E0,2.719500065E-1,4.392000198E0,9.022050858E0,1.003797909E1
1.686245669E0,2.719500065E-1,4.315950394E0,8.983950615E0,9.970594429E0
1.688208697E0,2.340000123E-1,4.392000198E0,9.060000420E0,1.007114836E1
1.690171748E0,3.109500110E-1,4.354050159E0,9.022050858E0,1.002256676E1
1.692134694E0,2.719500065E-1,4.392000198E0,9.060000420E0,1.007210158E1
1.694097671E0,2.719500065E-1,4.392000198E0,9.060000420E0,1.007210158E1
1.696060540E0,2.719500065E-1,4.315950394E0,9.060000420E0,1.003917288E1
1.698023440E0,2.340000123E-1,4.315950394E0,9.060000420E0,1.003821655E1
1.699986546E0,2.340000123E-1,4.354050159E0,9.060000420E0,1.005465645E1
1.701949592E0,2.719500065E-1,4.354050159E0,9.098999977E0,1.009076361E1
1.703912899E0,2.340000123E-1,4.354050159E0,9.060000420E0,1.005465645E1
1.705876130E0,2.719500065E-1,4.354050159E0,9.098999977E0,1.009076361E1
1.707839317E0,2.340000123E-1,4.315950394E0,9.060000420E0,1.003821655E1
1.709802517E0,2.719500065E-1,4.276950359E0,9.060000420E0,1.002246820E1
1.711765932E0,2.719500065E-1,4.276950359E0,9.060000420E0,1.002246820E1
1.713729284E0,2.719500065E-1,4.354050159E0,8.983950615E0,9.987145651E0
1.715692540E0,2.719500065E-1,4.315950394E0,9.098999977E0,1.007438262E1
1.717655825E0,3.109500110E-1,4.276950359E0,9.098999977E0,1.005886648E1
1.719619213E0,3.109500110E-1,4.315950394E0,9.060000420E0,1.004030504E1
1.721582548E0,3.490500152E-1,4.315950394E0,9.060000420E0,1.004155722E1
1.723545401E0,3.490500152E-1,4.276950359E0,9.022050858E0,9.990572655E0
1.725508396E0,2.719500065E-1,4.276950359E0,9.022050858E0,9.988176153E0
1.727471307E0,3.870000243E-1,4.315950394E0,8.983950615E0,9.974395494E0
1.729434242E0,3.490500152E-1,4.276950359E0,8.983950615E0,9.956179435E0
1.731397568E0,3.870000243E-1,4.276950359E0,9.022050858E0,9.991970530E0
1.733360779E0,3.490500152E-1,4.276950359E0,8.983950615E0,9.956179435E0
1.735323789E0,4.260000288E-1,4.315950394E0,8.983950615E0,9.975984787E0
1.737286858E0,4.260000288E-1,4.315950394E0,8.944950104E0,9.940877033E0
1.739249980E0,3.870000243E-1,4.276950359E0,8.983950615E0,9.957582139E0
1.741213086E0,4.260000288E-1,4.315950394E0,8.944950104E0,9.940877033E0
1.743176293E0,3.870000243E-1,4.276950359E0,8.944950104E0,9.922409272E0
1.745139471E0,3.870000243E-1,4.276950359E0,8.907000542E0,9.888211772E0
1.747102532E0,3.870000243E-1,4.276950359E0,8.944950104E0,9.922409272E0
1.749065627E0,4.260000288E-1,4.276950359E0,8.983950615E0,9.959174115E0
1.751028745E0,4.260000288E-1,4.276950359E0,8.944950104E0,9.924006890E0
1.752991856E0,3.870000243E-1,4.276950359E0,8.907000542E0,9.888211772E0
1.754954715E0,4.639500082E-1,4.315950394E0,8.983950615E0,9.977677388E0
1.756917671E0,3.870000243E-1,4.315950394E0,8.907000542E0,9.905142880E0
1.758880948E0,3.870000243E-1,4.276950359E0,8.944950104E0,9.922409272E0
1.760844130E0,3.870000243E-1,4.315950394E0,8.983950615E0,9.974395494E0
1.762807324E0,4.639500082E-1,4.315950394E0,8.983950615E0,9.977677388E0
1.764770515E0,4.260000288E-1,4.239000320E0,8.983950615E0,9.942935602E0
1.766733253E0,4.260000288E-1,4.276950359E0,8.944950104E0,9.924006890E0
1.768696127E0,4.260000288E-1,4.315950394E0,8.944950104E0,9.940877033E0
1.770659058E0,4.260000288E-1,4.276950359E0,8.907000542E0,9.889814915E0
1.772621972E0,4.639500082E-1,4.276950359E0,8.907000542E0,9.891522261E0
1.774585076E0,4.260000288E-1,4.276950359E0,8.983950615E0,9.959174115E0
1.776548125E0,4.260000288E-1,4.276950359E0,8.983950615E0,9.959174115E0
1.778511323E0,3.870000243E-1,4.315950394E0,8.983950615E0,9.974395494E0
1.780474491E0,3.870000243E-1,4.315950394E0,8.983950615E0,9.974395494E0
1.782437553E0,4.260000288E-1,4.315950394E0,8.983950615E0,9.975984787E0
1.784400647E0,4.260000288E-1,4.315950394E0,9.022050858E0,1.001030996E1
1.786363900E0,4.260000288E-1,4.315950394E0,8.944950104E0,9.940877033E0
1.788327106E0,3.870000243E-1,4.315950394E0,8.983950615E0,9.974395494E0
1.790290187E0,4.260000288E-1,4.315950394E0,8.983950615E0,9.975984787E0
1.792253319E0,4.260000288E-1,4.276950359E0,9.022050858E0,9.993557028E0
1.794216161E0,4.260000288E-1,4.315950394E0,8.983950615E0,9.975984787E0
1.796179088E0,3.870000243E-1,4.354050159E0,9.022050858E0,1.002521439E1
1.798142190E0,4.639500082E-1,4.315950394E0,8.983950615E0,9.977677388E0
1.800105240E0,4.639500082E-1,4.315950394E0,9.022050858E0,1.001199676E1
1.802068171E0,4.260000288E-1,4.276950359E0,8.944950104E0,9.924006890E0
1.804031117E0,4.260000288E-1,4.315950394E0,9.022050858E0,1.001030996E1
1.805993721E0,4.639500082E-1,4.276950359E0,8.983950615E0,9.960869572E0
1.807956425E0,4.639500082E-1,4.276950359E0,9.022050858E0,9.995246653E0
1.809919205E0,4.639500082E-1,4.276950359E0,9.022050858E0,9.995246653E0
1.811881962E0,4.260000288E-1,4.276950359E0,9.022050858E0,9.993557028E0
1.813844699E0,3.870000243E-1,4.276950359E0,9.022050858E0,9.991970530E0
1.815807435E0,4.260000288E-1,4.276950359E0,9.022050858E0,9.993557028E0
1.817770254E0,4.260000288E-1,4.276950359E0,8.983950615E0,9.959174115E0
1.819733049E0,4.260000288E-1,4.315950394E0,8.983950615E0,9.975984787E0
1.821695770E0,3.870000243E-1,4.276950359E0,8.944950104E0,9.922409272E0
1.823658512E0,4.260000288E-1,4.276950359E0,8.944950104E0,9.924006890E0
1.825621664E0,4.260000288E-1,4.315950394E0,8.944950104E0,9.940877033E0
1.827584683E0,4.260000288E-1,4.315950394E0,8.983950615E0,9.975984787E0
1.829547591E0,3.490500152E-1,4.315950394E0,8.944950104E0,9.937876839E0
1.831510531E0,3.490500152E-1,4.354050159E0,8.944950104E0,9.954482461E0
1.833473451E0,4.260000288E-1,4.239000320E0,9.022050858E0,9.977374475E0
1.835436377E0,3.870000243E-1,4.276950359E0,8.983950615E0,9.957582139E0
1.837399484E0,3.490500152E-1,4.315950394E0,8.983950615E0,9.972995155E0
1.839362534E0,3.870000243E-1,4.315950394E0,8.944950104E0,9.939282126E0
1.841325436E0,3.870000243E-1,4.315950394E0,8.944950104E0,9.939282126E0
1.843288382E0,4.260000288E-1,4.276950359E0,9.022050858E0,9.993557028E0
1.845251345E0,3.870000243E-1,4.276950359E0,9.022050858E0,9.991970530E0
1.847214303E0,4.260000288E-1,4.276950359E0,8.983950615E0,9.959174115E0
1.849177000E0,3.870000243E-1,4.315950394E0,8.944950104E0,9.939282126E0
1.851139771E0,4.260000288E-1,4.276950359E0,9.022050858E0,9.993557028E0
1.853102540E0,4.260000288E-1,4.276950359E0,9.022050858E0,9.993557028E0
1.855065309E0,4.260000288E-1,4.315950394E0,8.983950615E0,9.975984787E0
1.857028123E0,3.870000243E-1,4.315950394E0,8.944950104E0,9.939282126E0
1.858990923E0,3.490500152E-1,4.315950394E0,8.944950104E0,9.937876839E0
1.860954048E0,4.260000288E-1,4.315950394E0,8.907000542E0,9.906743283E0
1.862917077E0,3.870000243E-1,4.315950394E0,8.944950104E0,9.939282126E0
1.864880162E0,3.870000243E-1,4.315950394E0,8.944950104E0,9.939282126E0
1.866843231E0,3.870000243E-1,4.276950359E0,8.944950104E0,9.922409272E0
1.868806444E0,4.260000288E-1,4.315950394E0,8.907000542E0,9.906743283E0
1.870769615E0,3.870000243E-1,4.354050159E0,8.944950104E0,9.955885404E0
1.872732542E0,3.490500152E-1,4.315950394E0,8.983950615E0,9.972995155E0
1.874695540E0,3.870000243E-1,4.276950359E0,8.944950104E0,9.922409272E0
1.876658765E0,3.870000243E-1,4.315950394E0,8.944950104E0,9.939282126E0
1.878621923E0,3.870000243E-1,4.315950394E0,8.944950104E0,9.939282126E0
1.880584852E0,3.109500110E-1,4.315950394E0,8.944950104E0,9.936611599E0
1.882547848E0,3.870000243E-1,4.354050159E0,8.983950615E0,9.990940419E0
1.884510908E0,3.870000243E-1,4.354050159E0,8.944950104E0,9.955885404E0
1.886473938E0,3.870000243E-1,4.354050159E0,8.907000542E0,9.921803287E0
1.888437248E0,3.490500152E-1,4.354050159E0,8.944950104E0,9.954482461E0
1.890400476E0,3.109500110E-1,4.354050159E0,8.907000542E0,9.919128054E0
1.892363483E0,3.870000243E-1,4.315950394E0,8.983950615E0,9.974395494E0
1.894326555E0,3.109500110E-1,4.354050159E0,8.944950104E0,9.953219331E0
1.896289666E0,3.109500110E-1,4.354050159E0,8.944950104E0,9.953219331E0
1.898252773E0,3.490500152E-1,4.315950394E0,8.944950104E0,9.937876839E0
1.900215801E0,3.490500152E-1,4.315950394E0,8.907000542E0,9.903732749E0
1.902178852E0,3.109500110E-1,4.315950394E0,8.944950104E0,9.936611599E0
1.904141932E0,3.109500110E-1,4.315950394E0,8.944950104E0,9.936611599E0
1.906105004E0,3.109500110E-1,4.315950394E0,8.907000542E0,9.902463146E0
1.908068068E0,3.109500110E-1,4.315950394E0,8.944950104E0,9.936611599E0
1.910031144E0,3.109500110E-1,4.354050159E0,8.907000542E0,9.919128054E0
1.911994087E0,3.109500110E-1,4.354050159E0,8.944950104E0,9.953219331E0
1.913957069E0,3.109500110E-1,4.354050159E0,8.944950104E0,9.953219331E0
1.915919982E0,3.109500110E-1,4.354050159E0,8.907000542E0,9.919128054E0
1.917882915E0,3.109500110E-1,4.315950394E0,8.907000542E0,9.902463146E0
1.919845966E0,2.719500065E-1,4.392000198E0,8.944950104E0,9.968738882E0
1.921808985E0,3.109500110E-1,4.315950394E0,8.907000542E0,9.902463146E0
1.923771938E0,2.719500065E-1,4.354050159E0,8.907000542E0,9.917982065E0
1.925734910E0,3.109500110E-1,4.392000198E0,8.983950615E0,1.000488502E1
1.927697825E0,3.109500110E-1,4.354050159E0,9.022050858E0,1.002256676E1
1.929660756E0,3.490500152E-1,4.392000198E0,8.983950615E0,1.000614163E1
1.931623673E0,3.109500110E-1,4.354050159E0,8.983950615E0,9.988283704E0
1.933586597E0,2.719500065E-1,4.354050159E0,9.022050858E0,1.002143260E1
1.935549699E0,3.109500110E-1,4.392000198E0,8.983950615E0,1.000488502E1
1.937512749E0,3.109500110E-1,4.354050159E0,9.022050858E0,1.002256676E1
1.939475651E0,3.109500110E-1,4.354050159E0,8.983950615E0,9.988283704E0
1.941438597E0,3.490500152E-1,4.354050159E0,9.022050858E0,1.002382115E1
1.943401664E0,3.109500110E-1,4.354050159E0,9.060000420E0,1.005674154E1
1.945364686E0,3.490500152E-1,4.315950394E0,9.060000420E0,1.004155722E1
1.947327458E0,3.490500152E-1,4.354050159E0,9.022050858E0,1.002382115E1
1.949290304E0,3.109500110E-1,4.354050159E0,9.022050858E0,1.002256676E1
1.951253374E0,3.109500110E-1,4.354050159E0,9.022050858E0,1.002256676E1
1.953216379E0,3.109500110E-1,4.354050159E0,9.022050858E0,1.002256676E1
1.955179488E0,3.490500152E-1,4.315950394E0,9.060000420E0,1.004155722E1
1.957142552E0,3.490500152E-1,4.354050159E0,9.060000420E0,1.005799166E1
1.959105272E0,3.109500110E-1,4.315950394E0,9.060000420E0,1.004030504E1
1.961068093E0,2.719500065E-1,4.276950359E0,9.060000420E0,1.002246820E1
1.963031032E0,3.490500152E-1,4.315950394E0,9.060000420E0,1.004155722E1
1.964993937E0,3.870000243E-1,4.354050159E0,9.060000420E0,1.005938017E1
1.966956757E0,2.719500065E-1,4.315950394E0,9.098999977E0,1.007438262E1
1.968919582E0,3.870000243E-1,4.315950394E0,9.060000420E0,1.004294799E1
1.970882836E0,3.490500152E-1,4.276950359E0,9.136950493E0,1.009445415E1
1.972845965E0,3.109500110E-1,4.276950359E0,9.098999977E0,1.005886648E1
1.974808854E0,3.490500152E-1,4.354050159E0,9.022050858E0,1.002382115E1
1.976771813E0,3.490500152E-1,4.276950359E0,9.022050858E0,9.990572655E0
1.978734610E0,3.490500152E-1,4.315950394E0,9.060000420E0,1.004155722E1
1.980697444E0,3.870000243E-1,4.276950359E0,9.060000420E0,1.002624960E1
1.982660517E0,3.490500152E-1,4.276950359E0,9.098999977E0,1.006011634E1
1.984623519E0,3.870000243E-1,4.276950359E0,9.022050858E0,9.991970530E0
1.986586430E0,3.490500152E-1,4.315950394E0,9.060000420E0,1.004155722E1
1.988549367E0,3.870000243E-1,4.315950394E0,9.060000420E0,1.004294799E1
1.990512137E0,3.490500152E-1,4.315950394E0,9.098999977E0,1.007675862E1
1.992474967E0,3.490500152E-1,4.315950394E0,9.136950493E0,1.011103991E1
1.994438085E0,3.870000243E-1,4.276950359E0,9.060000420E0,1.002624960E1
1.996401119E0,3.490500152E-1,4.315950394E0,9.022050858E0,1.000733058E1
1.998364203E0,3.490500152E-1,4.315950394E0,9.098999977E0,1.007675862E1
2.000327273E0,3.870000243E-1,4.354050159E0,9.098999977E0,1.009451942E1
2.002289982E0,3.870000243E-1,4.276950359E0,9.022050858E0,9.991970530E0
2.004252804E0,3.870000243E-1,4.315950394E0,9.022050858E0,1.000872612E1
2.006215924E0,4.260000288E-1,4.315950394E0,9.098999977E0,1.007971748E1
2.008178956E0,3.870000243E-1,4.315950394E0,9.022050858E0,1.000872612E1
2.010142357E0,3.870000243E-1,4.315950394E0,8.983950615E0,9.974395494E0
2.012105649E0,3.870000243E-1,4.315950394E0,8.983950615E0,9.974395494E0
2.014068524E0,4.260000288E-1,4.315950394E0,8.983950615E0,9.975984787E0
2.016031511E0,4.260000288E-1,4.315950394E0,8.944950104E0,9.940877033E0
2.017994243E0,3.870000243E-1,4.315950394E0,8.983950615E0,9.974395494E0
2.019957049E0,3.870000243E-1,4.315950394E0,8.983950615E0,9.974395494E0
2.021920397E0,3.490500152E-1,4.276950359E0,8.944950104E0,9.921001595E0
2.023883586E0,4.260000288E-1,4.315950394E0,8.944950104E0,9.940877033E0
2.025846779E0,4.260000288E-1,4.315950394E0,8.944950104E0,9.940877033E0
2.027809970E0,4.260000288E-1,4.276950359E0,8.907000542E0,9.889814915E0
2.029772713E0,4.260000288E-1,4.315950394E0,8.907000542E0,9.906743283E0
2.031735588E0,4.260000288E-1,4.276950359E0,8.869050026E0,9.855649586E0
2.033698473E0,3.870000243E-1,4.276950359E0,8.907000542E0,9.888211772E0
2.035661355E0,4.639500082E-1,4.315950394E0,8.869050026E0,9.874346853E0
2.037624501E0,5.020500422E-1,4.315950394E0,8.907000542E0,9.910304773E0
2.039587576E0,4.639500082E-1,4.315950394E0,8.944950104E0,9.942575610E0
2.041550474E0,4.639500082E-1,4.276950359E0,8.869050026E0,9.857362850E0
2.043513424E0,4.260000288E-1,4.276950359E0,8.907000542E0,9.889814915E0
2.045476656E0,4.639500082E-1,4.276950359E0,8.944950104E0,9.925708355E0
2.047439806E0,3.870000243E-1,4.276950359E0,8.869050026E0,9.854040885E0
2.049402737E0,4.260000288E-1,4.315950394E0,8.907000542E0,9.906743283E0
2.051365732E0,4.260000288E-1,4.276950359E0,8.907000542E0,9.889814915E0
2.053328643E0,4.639500082E-1,4.276950359E0,8.907000542E0,9.891522261E0
2.055291578E0,3.870000243E-1,4.315950394E0,8.944950104E0,9.939282126E0
2.057254633E0,3.870000243E-1,4.315950394E0,8.944950104E0,9.939282126E0
2.059217653E0,4.260000288E-1,4.315950394E0,8.869050026E0,9.872636537E0
2.061180901E0,4.639500082E-1,4.276950359E0,8.907000542E0,9.891522261E0
2.063144095E0,3.870000243E-1,4.315950394E0,8.907000542E0,9.905142880E0
2.065107018E0,4.260000288E-1,4.354050159E0,8.869050026E0,9.889351707E0
2.067070020E0,3.870000243E-1,4.315950394E0,8.869050026E0,9.871030604E0
2.069033109E0,3.870000243E-1,4.354050159E0,8.869050026E0,9.887748489E0
2.070996172E0,3.490500152E-1,4.354050159E0,8.830050468E0,9.851364371E0
2.072959058E0,3.870000243E-1,4.354050159E0,8.830050468E0,9.852781997E0
2.074922006E0,3.490500152E-1,4.354050159E0,8.869050026E0,9.886335877E0
2.076885104E0,3.109500110E-1,4.354050159E0,8.869050026E0,9.885064039E0
2.078848158E0,3.490500152E-1,4.354050159E0,8.791950226E0,9.817228605E0
2.080811554E0,3.490500152E-1,4.392000198E0,8.830050468E0,9.868196032E0
2.082774850E0,3.490500152E-1,4.354050159E0,8.791950226E0,9.817228605E0
2.084737951E0,3.490500152E-1,4.354050159E0,8.830050468E0,9.851364371E0
2.086701098E0,3.490500152E-1,4.392000198E0,8.791950226E0,9.834118691E0
2.088664657E0,3.109500110E-1,4.354050159E0,8.830050468E0,9.850088019E0
2.090628096E0,3.490500152E-1,4.354050159E0,8.830050468E0,9.851364371E0
2.092591472E0,3.490500152E-1,4.354050159E0,8.830050468E0,9.851364371E0
2.094554867E0,3.109500110E-1,4.354050159E0,8.869050026E0,9.885064039E0
2.096518115E0,3.490500152E-1,4.354050159E0,8.830050468E0,9.851364371E0
2.098481406E0,3.490500152E-1,4.354050159E0,8.869050026E0,9.886335877E0
2.100444760E0,3.870000243E-1,4.392000198E0,8.830050468E0,9.869611240E0
2.102408096E0,3.109500110E-1,4.354050159E0,8.869050026E0,9.885064039E0
2.104371175E0,3.870000243E-1,4.354050159E0,8.907000542E0,9.921803287E0
2.106334329E0,3.490500152E-1,4.392000198E0,8.869050026E0,9.903108099E0
2.108297766E0,4.260000288E-1,4.315950394E0,8.907000542E0,9.906743283E0
2.110261110E0,3.490500152E-1,4.354050159E0,8.907000542E0,9.920395524E0
2.112224457E0,3.870000243E-1,4.354050159E0,8.944950104E0,9.955885404E0
2.114187803E0,3.490500152E-1,4.354050159E0,8.907000542E0,9.920395524E0
2.116150834E0,3.870000243E-1,4.354050159E0,8.907000542E0,9.921803287E0
2.118113958E0,3.870000243E-1,4.315950394E0,8.983950615E0,9.974395494E0
2.120077211E0,3.870000243E-1,4.315950394E0,8.983950615E0,9.974395494E0
2.122040423E0,3.490500152E-1,4.315950394E0,8.983950615E0,9.972995155E0
2.124003298E0,3.490500152E-1,4.354050159E0,8.983950615E0,9.989542400E0
2.125966271E0,3.109500110E-1,4.315950394E0,8.983950615E0,9.971734371E0
2.127929545E0,3.490500152E-1,4.354050159E0,9.022050858E0,1.002382115E1
2.129892731E0,3.109500110E-1,4.315950394E0,8.983950615E0,9.971734371E0
2.131855988E0,3.490500152E-1,4.392000198E0,8.983950615E0,1.000614163E1
2.133819211E0,3.109500110E-1,4.354050159E0,8.983950615E0,9.988283704E0
2.135782443E0,3.109500110E-1,4.354050159E0,9.022050858E0,1.002256676E1
2.137745673E0,3.109500110E-1,4.354050159E0,8.983950615E0,9.988283704E0
2.139708904E0,3.109500110E-1,4.354050159E0,9.022050858E0,1.002256676E1
2.141672134E0,2.719500065E-1,4.392000198E0,9.022050858E0,1.003797909E1
2.143635167E0,2.719500065E-1,4.392000198E0,9.022050858E0,1.003797909E1
2.145598271E0,3.109500110E-1,4.354050159E0,9.060000420E0,1.005674154E1
2.147561387E0,3.490500152E-1,4.354050159E0,9.060000420E0,1.005799166E1
2.149524500E0,2.719500065E-1,4.315950394E0,9.060000420E0,1.003917288E1
2.151487706E0,2.719500065E-1,4.315950394E0,9.060000420E0,1.003917288E1
2.153450885E0,2.719500065E-1,4.315950394E0,9.060000420E0,1.003917288E1
2.155413781E0,3.109500110E-1,4.354050159E0,9.136950493E0,1.012612004E1
2.157376781E0,2.719500065E-1,4.354050159E0,9.098999977E0,1.009076361E1
2.159339691E0,2.719500065E-1,4.354050159E0,9.175050735E0,1.015939297E1
2.161302627E0,2.340000123E-1,4.354050159E0,9.175050735E0,1.015844795E1
2.163265548E0,2.719500065E-1,4.315950394E0,9.175050735E0,1.014312282E1
2.165228473E0,3.109500110E-1,4.315950394E0,9.136950493E0,1.010979634E1
2.167191575E0,3.109500110E-1,4.315950394E0,9.098999977E0,1.007551082E1
2.169154625E0,3.109500110E-1,4.315950394E0,9.060000420E0,1.004030504E1
2.171117527E0,3.109500110E-1,4.276950359E0,9.175050735E0,1.012771200E1
2.173080473E0,3.490500152E-1,4.276950359E0,9.175050735E0,1.012895337E1
2.175043526E0,3.490500152E-1,4.276950359E0,9.136950493E0,1.009445415E1
2.177006548E0,3.870000243E-1,4.315950394E0,9.098999977E0,1.007814454E1
2.178969640E0,3.870000243E-1,4.276950359E0,9.060000420E0,1.002624960E1
2.180932707E0,3.490500152E-1,4.276950359E0,9.098999977E0,1.006011634E1
2.182895651E0,3.870000243E-1,4.315950394E0,9.060000420E0,1.004294799E1
2.184858632E0,3.490500152E-1,4.276950359E0,9.022050858E0,9.990572655E0
2.186821679E0,3.870000243E-1,4.315950394E0,9.060000420E0,1.004294799E1
2.188784707E0,3.490500152E-1,4.276950359E0,9.060000420E0,1.002485650E1
2.190747948E0,3.870000243E-1,4.239000320E0,9.022050858E0,9.975785403E0
2.192711144E0,4.260000288E-1,4.239000320E0,9.022050858E0,9.977374475E0
2.194673841E0,3.870000243E-1,4.276950359E0,8.983950615E0,9.957582139E0
2.196636685E0,3.870000243E-1,4.239000320E0,8.944950104E0,9.906110493E0
2.198599981E0,3.490500152E-1,4.239000320E0,8.983950615E0,9.939936030E0
2.200563144E0,3.870000243E-1,4.276950359E0,8.944950104E0,9.922409272E0
2.202526252E0,3.490500152E-1,4.276950359E0,8.944950104E0,9.921001595E0
2.204489377E0,4.260000288E-1,4.276950359E0,8.907000542E0,9.889814915E0
2.206452580E0,3.870000243E-1,4.276950359E0,8.944950104E0,9.922409272E0
2.208415760E0,3.870000243E-1,4.276950359E0,8.983950615E0,9.957582139E0
2.210378685E0,4.260000288E-1,4.239000320E0,8.983950615E0,9.942935602E0
2.212341685E0,4.260000288E-1,4.239000320E0,8.907000542E0,9.873462330E0
2.214304923E0,4.260000288E-1,4.239000320E0,8.944950104E0,9.907710740E0
2.216268082E0,3.870000243E-1,4.239000320E0,8.983950615E0,9.941341026E0
2.218231191E0,4.639500082E-1,4.239000320E0,8.983950615E0,9.944633828E0
2.220194314E0,4.260000288E-1,4.276950359E0,8.944950104E0,9.924006890E0
2.222157743E0,4.639500082E-1,4.276950359E0,8.944950104E0,9.925708355E0
2.224121082E0,4.639500082E-1,4.239000320E0,9.022050858E0,9.979066840E0
2.226084286E0,4.260000288E-1,4.201050282E0,8.983950615E0,9.926815609E0
2.228047536E0,4.260000288E-1,4.276950359E0,8.944950104E0,9.924006890E0
2.230010942E0,4.260000288E-1,4.239000320E0,8.907000542E0,9.873462330E0
2.231974303E0,4.260000288E-1,4.276950359E0,8.944950104E0,9.924006890E0
2.233937468E0,4.260000288E-1,4.276950359E0,8.944950104E0,9.924006890E0
2.235900690E0,4.260000288E-1,4.315950394E0,8.869050026E0,9.872636537E0
2.237863772E0,4.260000288E-1,4.315950394E0,8.944950104E0,9.940877033E0
2.239826906E0,4.260000288E-1,4.315950394E0,8.944950104E0,9.940877033E0
2.241789973E0,3.870000243E-1,4.315950394E0,8.907000542E0,9.905142880E0
2.243753060E0,3.870000243E-1,4.354050159E0,8.869050026E0,9.887748489E0
2.245716135E0,3.870000243E-1,4.354050159E0,8.869050026E0,9.887748489E0
2.247679213E0,3.109500110E-1,4.315950394E0,8.791950226E0,9.799107433E0
2.249642488E0,3.870000243E-1,4.354050159E0,8.869050026E0,9.887748489E0
2.251605692E0,3.870000243E-1,4.392000198E0,8.869050026E0,9.904518319E0
2.253568928E0,3.490500152E-1,4.315950394E0,8.907000542E0,9.903732749E0
2.255532154E0,3.490500152E-1,4.354050159E0,8.907000542E0,9.920395524E0
2.257495521E0,3.490500152E-1,4.392000198E0,8.907000542E0,9.937110259E0
2.259458846E0,3.870000243E-1,4.354050159E0,8.869050026E0,9.887748489E0
2.261422061E0,3.490500152E-1,4.392000198E0,8.944950104E0,9.971140056E0
2.263385309E0,3.490500152E-1,4.392000198E0,8.944950104E0,9.971140056E0
2.265348222E0,3.490500152E-1,4.392000198E0,8.907000542E0,9.937110259E0
2.267311233E0,3.109500110E-1,4.392000198E0,8.944950104E0,9.969879037E0
2.269274455E0,3.109500110E-1,4.392000198E0,8.944950104E0,9.969879037E0
2.271237615E0,3.490500152E-1,4.392000198E0,8.983950615E0,1.000614163E1
2.273200675E0,3.490500152E-1,4.392000198E0,8.944950104E0,9.971140056E0
2.275163767E0,3.109500110E-1,4.354050159E0,8.944950104E0,9.953219331E0
2.277127381E0,3.109500110E-1,4.392000198E0,8.907000542E0,9.935844921E0
2.279090842E0,3.109500110E-1,4.315950394E0,8.907000542E0,9.902463146E0
2.281054034E0,3.490500152E-1,4.392000198E0,8.907000542E0,9.937110259E0
2.283017305E0,3.109500110E-1,4.354050159E0,8.944950104E0,9.953219331E0
2.284980569E0,3.109500110E-1,4.315950394E0,8.944950104E0,9.936611599E0
2.286943839E0,3.109500110E-1,4.354050159E0,8.944950104E0,9.953219331E0
2.288907018E0,3.109500110E-1,4.354050159E0,9.022050858E0,1.002256676E1
2.290870224E0,3.870000243E-1,4.354050159E0,8.944950104E0,9.955885404E0
2.292833143E0,3.490500152E-1,4.354050159E0,8.944950104E0,9.954482461E0
2.294796147E0,3.490500152E-1,4.431000233E0,8.944950104E0,9.988379815E0
2.296759556E0,3.490500152E-1,4.354050159E0,8.983950615E0,9.989542400E0
2.298722842E0,3.109500110E-1,4.392000198E0,8.983950615E0,1.000488502E1
2.300686109E0,3.490500152E-1,4.354050159E0,8.944950104E0,9.954482461E0
2.302649382E0,3.490500152E-1,4.354050159E0,8.983950615E0,9.989542400E0
2.304612785E0,3.109500110E-1,4.354050159E0,9.022050858E0,1.002256676E1
2.306576150E0,3.490500152E-1,4.392000198E0,8.983950615E0,1.000614163E1
2.308539373E0,3.870000243E-1,4.392000198E0,8.983950615E0,1.000753733E1
2.310502627E0,3.490500152E-1,4.354050159E0,9.022050858E0,1.002382115E1
2.312465313E0,3.109500110E-1,4.392000198E0,8.983950615E0,1.000488502E1
2.314428166E0,3.490500152E-1,4.354050159E0,8.944950104E0,9.954482461E0
2.316391460E0,3.109500110E-1,4.392000198E0,9.022050858E0,1.003911138E1
2.318354625E0,3.490500152E-1,4.354050159E0,8.983950615E0,9.989542400E0
2.320317807E0,3.870000243E-1,4.354050159E0,8.983950615E0,9.990940419E0
2.322280995E0,3.490500152E-1,4.315950394E0,9.022050858E0,1.000733058E1
2.324244099E0,3.870000243E-1,4.315950394E0,8.944950104E0,9.939282126E0
2.326207228E0,3.870000243E-1,4.315950394E0,8.944950104E0,9.939282126E0
2.328170475E0,3.870000243E-1,4.315950394E0,9.022050858E0,1.000872612E1
2.330133687E0,3.490500152E-1,4.276950359E0,9.022050858E0,9.990572655E0
2.332097062E0,3.109500110E-1,4.315950394E0,9.022050858E0,1.000607412E1
2.334060385E0,3.870000243E-1,4.276950359E0,8.983950615E0,9.957582139E0
2.336022925E0,3.870000243E-1,4.276950359E0,9.022050858E0,9.991970530E0
2.337985694E0,3.490500152E-1,4.315950394E0,8.983950615E0,9.972995155E0
2.339948463E0,3.490500152E-1,4.276950359E0,8.983950615E0,9.956179435E0
2.341911232E0,3.870000243E-1,4.276950359E0,9.022050858E0,9.991970530E0
2.343874520E0,3.870000243E-1,4.315950394E0,8.983950615E0,9.974395494E0
2.345837639E0,3.490500152E-1,4.276950359E0,8.983950615E0,9.956179435E0
2.347800755E0,3.109500110E-1,4.315950394E0,8.983950615E0,9.971734371E0
2.349763872E0,3.490500152E-1,4.315950394E0,9.022050858E0,1.000733058E1
2.351727076E0,3.490500152E-1,4.276950359E0,9.022050858E0,9.990572655E0
2.353690255E0,4.260000288E-1,4.276950359E0,9.060000420E0,1.002783067E1
2.355653680E0,3.490500152E-1,4.276950359E0,9.060000420E0,1.002485650E1
2.357617029E0,3.490500152E-1,4.276950359E0,9.022050858E0,9.990572655E0
2.359579925E0,3.490500152E-1,4.276950359E0,9.022050858E0,9.990572655E0
2.361542954E0,3.870000243E-1,4.239000320E0,9.022050858E0,9.975785403E0
2.363506173E0,3.870000243E-1,4.239000320E0,8.944950104E0,9.906110493E0
2.365469337E0,3.490500152E-1,4.276950359E0,8.983950615E0,9.956179435E0
2.367432234E0,3.870000243E-1,4.276950359E0,9.022050858E0,9.991970530E0
2.369395199E0,4.260000288E-1,4.276950359E0,9.022050858E0,9.993557028E0
2.371358294E0,3.490500152E-1,4.315950394E0,9.022050858E0,1.000733058E1
2.373321351E0,3.490500152E-1,4.315950394E0,8.983950615E0,9.972995155E0
2.375284432E0,4.260000288E-1,4.315950394E0,9.022050858E0,1.001030996E1
2.377247505E0,3.870000243E-1,4.276950359E0,9.022050858E0,9.991970530E0
2.379210632E0,3.870000243E-1,4.239000320E0,8.983950615E0,9.941341026E0
2.381173740E0,4.260000288E-1,4.239000320E0,9.022050858E0,9.977374475E0
2.383137173E0,4.260000288E-1,4.276950359E0,8.983950615E0,9.959174115E0
2.385100510E0,3.870000243E-1,4.276950359E0,9.022050858E0,9.991970530E0
2.387063678E0,3.490500152E-1,4.315950394E0,8.944950104E0,9.937876839E0
2.389026896E0,3.870000243E-1,4.276950359E0,8.983950615E0,9.957582139E0
2.390989994E0,3.870000243E-1,4.276950359E0,8.944950104E0,9.922409272E0
2.392953127E0,3.870000243E-1,4.315950394E0,8.944950104E0,9.939282126E0
2.394916508E0,3.870000243E-1,4.354050159E0,8.944950104E0,9.955885404E0
2.396879817E0,3.490500152E-1,4.354050159E0,8.944950104E0,9.954482461E0
2.398842855E0,3.870000243E-1,4.276950359E0,8.907000542E0,9.888211772E0
2.400805973E0,3.490500152E-1,4.354050159E0,8.907000542E0,9.920395524E0
2.402769579E0,3.870000243E-1,4.354050159E0,8.907000542E0,9.921803287E0
2.404733044E0,3.490500152E-1,4.354050159E0,8.944950104E0,9.954482461E0
2.406696416E0,3.870000243E-1,4.354050159E0,8.869050026E0,9.887748489E0
2.408659815E0,3.109500110E-1,4.392000198E0,8.869050026E0,9.901838416E0
2.410623017E0,3.490500152E-1,4.315950394E0,8.944950104E0,9.937876839E0
2.412586277E0,4.260000288E-1,4.392000198E0,8.907000542E0,9.940110684E0
2.414549530E0,3.870000243E-1,4.354050159E0,8.944950104E0,9.955885404E0
2.416512766E0,3.870000243E-1,4.354050159E0,8.869050026E0,9.887748489E0
2.418476221E0,3.490500152E-1,4.392000198E0,8.869050026E0,9.903108099E0
2.420439611E0,3.490500152E-1,4.354050159E0,8.907000542E0,9.920395524E0
2.422402951E0,3.870000243E-1,4.392000198E0,8.907000542E0,9.938515654E0
2.424366305E0,4.260000288E-1,4.354050159E0,8.907000542E0,9.923401003E0
2.426329568E0,3.870000243E-1,4.354050159E0,8.907000542E0,9.921803287E0
2.428292852E0,3.490500152E-1,4.354050159E0,8.907000542E0,9.920395524E0
2.430256208E0,3.870000243E-1,4.392000198E0,8.869050026E0,9.904518319E0
2.432219543E0,3.870000243E-1,4.354050159E0,8.907000542E0,9.921803287E0
2.434182757E0,3.490500152E-1,4.392000198E0,8.944950104E0,9.971140056E0
2.436146006E0,3.870000243E-1,4.315950394E0,8.907000542E0,9.905142880E0
2.438109589E0,3.870000243E-1,4.392000198E0,8.983950615E0,1.000753733E1
2.440073077E0,3.490500152E-1,4.354050159E0,8.944950104E0,9.954482461E0
2.442036310E0,3.490500152E-1,4.392000198E0,8.907000542E0,9.937110259E0
2.443999618E0,3.490500152E-1,4.354050159E0,8.944950104E0,9.954482461E0
2.445962790E0,3.490500152E-1,4.354050159E0,8.944950104E0,9.954482461E0
2.447926002E0,3.870000243E-1,4.354050159E0,8.983950615E0,9.990940419E0
2.449889253E0,3.490500152E-1,4.392000198E0,8.944950104E0,9.971140056E0
2.451852480E0,3.490500152E-1,4.392000198E0,8.944950104E0,9.971140056E0
2.453815711E0,3.490500152E-1,4.354050159E0,9.060000420E0,1.005799166E1
2.455778941E0,3.109500110E-1,4.354050159E0,8.983950615E0,9.988283704E0
2.457742217E0,3.870000243E-1,4.354050159E0,9.022050858E0,1.002521439E1
2.459705480E0,3.490500152E-1,4.354050159E0,8.983950615E0,9.989542400E0
2.461668502E0,3.490500152E-1,4.392000198E0,9.022050858E0,1.004036371E1
2.463631580E0,3.109500110E-1,4.354050159E0,8.983950615E0,9.988283704E0
2.465595016E0,3.109500110E-1,4.354050159E0,8.983950615E0,9.988283704E0
2.467558347E0,3.490500152E-1,4.315950394E0,9.060000420E0,1.004155722E1
2.469521562E0,2.719500065E-1,4.354050159E0,9.022050858E0,1.002143260E1
2.471484811E0,2.719500065E-1,4.354050159E0,9.022050858E0,1.002143260E1
2.473448208E0,3.490500152E-1,4.354050159E0,9.022050858E0,1.002382115E1
2.475411568E0,3.109500110E-1,4.354050159E0,9.022050858E0,1.002256676E1
2.477374777E0,2.719500065E-1,4.315950394E0,8.983950615E0,9.970594429E0
2.479338031E0,3.109500110E-1,4.315950394E0,9.060000420E0,1.004030504E1
2.481301482E0,2.719500065E-1,4.354050159E0,8.983950615E0,9.987145651E0
2.483264875E0,3.109500110E-1,4.315950394E0,9.022050858E0,1.000607412E1
2.485228408E0,3.109500110E-1,4.315950394E0,9.060000420E0,1.004030504E1
2.487191890E0,3.109500110E-1,4.315950394E0,8.983950615E0,9.971734371E0
2.489155259E0,2.719500065E-1,4.354050159E0,8.983950615E0,9.987145651E0
2.491118661E0,3.109500110E-1,4.315950394E0,9.060000420E0,1.004030504E1
2.493082087E0,3.490500152E-1,4.354050159E0,8.983950615E0,9.989542400E0
2.495045505E0,3.109500110E-1,4.315950394E0,9.022050858E0,1.000607412E1
2.497009050E0,2.719500065E-1,4.315950394E0,8.983950615E0,9.970594429E0
2.498972568E0,3.490500152E-1,4.276950359E0,8.944950104E0,9.921001595E0
2.500935886E0,3.109500110E-1,4.276950359E0,8.944950104E0,9.919734202E0
2.502899262E0,3.490500152E-1,4.315950394E0,8.983950615E0,9.972995155E0
2.504862513E0,3.490500152E-1,4.276950359E0,8.983950615E0,9.956179435E0
2.506825801E0,3.109500110E-1,4.315950394E0,9.022050858E0,1.000607412E1
2.508788957E0,3.870000243E-1,4.315950394E0,8.944950104E0,9.939282126E0
2.510752166E0,3.490500152E-1,4.276950359E0,8.983950615E0,9.956179435E0
2.512715445E0,3.870000243E-1,4.315950394E0,8.983950615E0,9.974395494E0
2.514678703E0,3.870000243E-1,4.276950359E0,8.944950104E0,9.922409272E0
2.516641885E0,3.490500152E-1,4.315950394E0,8.983950615E0,9.972995155E0
2.518605089E0,3.109500110E-1,4.276950359E0,9.022050858E0,9.989314089E0
2.520568189E0,3.870000243E-1,4.315950394E0,8.944950104E0,9.939282126E0
2.522531320E0,3.870000243E-1,4.239000320E0,8.983950615E0,9.941341026E0
2.524494388E0,4.260000288E-1,4.239000320E0,8.983950615E0,9.942935602E0
2.526457474E0,3.490500152E-1,4.276950359E0,8.944950104E0,9.921001595E0
2.528420729E0,3.490500152E-1,4.315950394E0,8.983950615E0,9.972995155E0
2.530383934E0,3.490500152E-1,4.315950394E0,8.944950104E0,9.937876839E0
2.532347304E0,3.870000243E-1,4.276950359E0,8.983950615E0,9.957582139E0
2.534310626E0,3.490500152E-1,4.315950394E0,8.983950615E0,9.972995155E0
2.536273887E0,3.870000243E-1,4.276950359E0,8.983950615E0,9.957582139E0
2.538237166E0,4.260000288E-1,4.276950359E0,8.983950615E0,9.959174115E0
2.540200568E0,3.490500152E-1,4.354050159E0,8.944950104E0,9.954482461E0
2.542163934E0,4.639500082E-1,4.315950394E0,8.983950615E0,9.977677388E0
2.544127268E0,3.870000243E-1,4.276950359E0,8.944950104E0,9.922409272E0
2.546090618E0,3.490500152E-1,4.276950359E0,8.983950615E0,9.956179435E0
2.548054007E0,4.260000288E-1,4.239000320E0,8.944950104E0,9.907710740E0
2.550017385E0,3.870000243E-1,4.315950394E0,8.944950104E0,9.939282126E0
2.551980951E0,3.870000243E-1,4.276950359E0,8.944950104E0,9.922409272E0
2.553944462E0,3.870000243E-1,4.276950359E0,8.907000542E0,9.888211772E0
2.555908021E0,3.870000243E-1,4.276950359E0,8.907000542E0,9.888211772E0
2.557871587E0,4.260000288E-1,4.315950394E0,8.907000542E0,9.906743283E0
2.559835077E0,3.870000243E-1,4.315950394E0,8.983950615E0,9.974395494E0
2.561798589E0,4.260000288E-1,4.315950394E0,8.944950104E0,9.940877033E0
2.563761997E0,3.870000243E-1,4.315950394E0,8.907000542E0,9.905142880E0
2.565725435E0,3.870000243E-1,4.276950359E0,8.907000542E0,9.888211772E0
2.567688775E0,3.870000243E-1,4.315950394E0,8.907000542E0,9.905142880E0
2.569652137E0,4.260000288E-1,4.315950394E0,8.983950615E0,9.975984787E0
2.571615705E0,3.870000243E-1,4.276950359E0,8.907000542E0,9.888211772E0
2.573579212E0,4.260000288E-1,4.315950394E0,8.907000542E0,9.906743283E0
2.575542577E0,3.490500152E-1,4.315950394E0,8.907000542E0,9.903732749E0
2.577505984E0,4.260000288E-1,4.315950394E0,8.944950104E0,9.940877033E0
2.579469229E0,3.870000243E-1,4.354050159E0,8.907000542E0,9.921803287E0
2.581432522E0,3.870000243E-1,4.315950394E0,8.983950615E0,9.974395494E0
2.583395921E0,3.870000243E-1,4.354050159E0,8.907000542E0,9.921803287E0
2.585359289E0,3.870000243E-1,4.354050159E0,8.944950104E0,9.955885404E0
2.587322992E0,4.639500082E-1,4.315950394E0,8.907000542E0,9.908447712E0
2.589286597E0,3.490500152E-1,4.354050159E0,8.944950104E0,9.954482461E0
2.591249999E0,3.490500152E-1,4.354050159E0,8.944950104E0,9.954482461E0
2.593213454E0,3.870000243E-1,4.354050159E0,8.944950104E0,9.955885404E0
2.595177006E0,3.870000243E-1,4.315950394E0,8.983950615E0,9.974395494E0
2.597140529E0,3.870000243E-1,4.354050159E0,8.944950104E0,9.955885404E0
2.599103666E0,3.490500152E-1,4.354050159E0,8.983950615E0,9.989542400E0
2.601066916E0,3.490500152E-1,4.354050159E0,8.944950104E0,9.954482461E0
2.603030322E0,3.490500152E-1,4.354050159E0,8.944950104E0,9.954482461E0
2.604993683E0,3.870000243E-1,4.315950394E0,8.944950104E0,9.939282126E0
2.606956757E0,3.490500152E-1,4.354050159E0,8.983950615E0,9.989542400E0
2.608919916E0,3.490500152E-1,4.315950394E0,8.983950615E0,9.972995155E0
2.610883113E0,3.490500152E-1,4.354050159E0,8.983950615E0,9.989542400E0
2.612846298E0,3.490500152E-1,4.354050159E0,8.983950615E0,9.989542400E0
2.614809703E0,3.490500152E-1,4.315950394E0,8.983950615E0,9.972995155E0
2.616773054E0,3.109500110E-1,4.315950394E0,8.944950104E0,9.936611599E0
2.618736130E0,3.109500110E-1,4.315950394E0,8.983950615E0,9.971734371E0
2.620699286E0,3.490500152E-1,4.354050159E0,9.022050858E0,1.002382115E1
2.622662529E0,3.870000243E-1,4.354050159E0,8.983950615E0,9.990940419E0
2.624625746E0,3.870000243E-1,4.354050159E0,9.022050858E0,1.002521439E1
2.626589178E0,3.870000243E-1,4.354050159E0,9.022050858E0,1.002521439E1
2.628552534E0,3.490500152E-1,4.315950394E0,9.060000420E0,1.004155722E1
2.630515519E0,3.490500152E-1,4.315950394E0,8.983950615E0,9.972995155E0
2.632478613E0,3.490500152E-1,4.354050159E0,9.022050858E0,1.002382115E1
2.634441731E0,3.490500152E-1,4.315950394E0,8.983950615E0,9.972995155E0
2.636404842E0,3.490500152E-1,4.354050159E0,8.983950615E0,9.989542400E0
2.638368043E0,3.490500152E-1,4.354050159E0,8.944950104E0,9.954482461E0
2.640331221E0,3.870000243E-1,4.315950394E0,8.983950615E0,9.974395494E0
2.642294327E0,3.870000243E-1,4.315950394E0,8.983950615E0,9.974395494E0
2.644257454E0,3.870000243E-1,4.354050159E0,8.983950615E0,9.990940419E0
2.646220342E0,3.870000243E-1,4.354050159E0,8.983950615E0,9.990940419E0
2.648183300E0,3.870000243E-1,4.354050159E0,8.944950104E0,9.955885404E0
2.650146547E0,3.870000243E-1,4.354050159E0,8.944950104E0,9.955885404E0
2.652109730E0,3.490500152E-1,4.354050159E0,8.983950615E0,9.989542400E0
2.654073104E0,3.490500152E-1,4.315950394E0,8.944950104E0,9.937876839E0
2.656036422E0,3.870000243E-1,4.276950359E0,9.022050858E0,9.991970530E0
2.657999639E0,3.870000243E-1,4.354050159E0,8.944950104E0,9.955885404E0
2.659962886E0,3.490500152E-1,4.315950394E0,8.983950615E0,9.972995155E0
2.661925970E0,3.870000243E-1,4.315950394E0,8.983950615E0,9.974395494E0
2.663889108E0,3.490500152E-1,4.315950394E0,8.944950104E0,9.937876839E0
2.665852174E0,3.490500152E-1,4.276950359E0,8.944950104E0,9.921001595E0
2.667815261E0,3.109500110E-1,4.315950394E0,9.022050858E0,1.000607412E1
2.669778336E0,3.870000243E-1,4.315950394E0,8.983950615E0,9.974395494E0
2.671741415E0,3.870000243E-1,4.315950394E0,8.944950104E0,9.939282126E0
2.673704417E0,4.260000288E-1,4.276950359E0,8.944950104E0,9.924006890E0
2.675667463E0,3.870000243E-1,4.276950359E0,9.022050858E0,9.991970530E0
2.677630544E0,3.870000243E-1,4.315950394E0,8.983950615E0,9.974395494E0
2.679593615E0,3.870000243E-1,4.276950359E0,9.022050858E0,9.991970530E0
2.681556693E0,3.870000243E-1,4.276950359E0,8.983950615E0,9.957582139E0
2.683519769E0,3.870000243E-1,4.315950394E0,8.983950615E0,9.974395494E0
2.685483027E0,3.870000243E-1,4.239000320E0,8.983950615E0,9.941341026E0
2.687446231E0,4.260000288E-1,4.276950359E0,9.022050858E0,9.993557028E0
2.689409466E0,4.639500082E-1,4.315950394E0,8.944950104E0,9.942575610E0
2.691372692E0,3.870000243E-1,4.276950359E0,8.944950104E0,9.922409272E0
2.693335745E0,3.870000243E-1,4.276950359E0,8.944950104E0,9.922409272E0
2.695298848E0,3.490500152E-1,4.315950394E0,8.944950104E0,9.937876839E0
2.697261939E0,3.870000243E-1,4.315950394E0,8.944950104E0,9.939282126E0
2.699225021E0,3.870000243E-1,4.315950394E0,8.944950104E0,9.939282126E0
2.701188321E0,4.260000288E-1,4.354050159E0,8.944950104E0,9.957477651E0
2.703151557E0,3.870000243E-1,4.276950359E0,8.983950615E0,9.957582139E0
2.705114923E0,3.490500152E-1,4.315950394E0,8.944950104E0,9.937876839E0
2.707078250E0,3.490500152E-1,4.354050159E0,8.944950104E0,9.954482461E0
2.709041294E0,4.260000288E-1,4.315950394E0,8.944950104E0,9.940877033E0
2.711004414E0,3.870000243E-1,4.276950359E0,8.907000542E0,9.888211772E0
2.712967484E0,3.870000243E-1,4.276950359E0,8.944950104E0,9.922409272E0
2.714930568E0,3.870000243E-1,4.315950394E0,8.907000542E0,9.905142880E0
2.716893688E0,3.490500152E-1,4.354050159E0,8.907000542E0,9.920395524E0
2.718856797E0,3.490500152E-1,4.392000198E0,8.944950104E0,9.971140056E0
2.720819659E0,4.260000288E-1,4.315950394E0,8.983950615E0,9.975984787E0
2.722782583E0,3.870000243E-1,4.315950394E0,8.907000542E0,9.905142880E0
2.724745866E0,3.490500152E-1,4.354050159E0,8.944950104E0,9.954482461E0
2.726709043E0,3.490500152E-1,4.315950394E0,8.944950104E0,9.937876839E0
2.728672104E0,4.260000288E-1,4.354050159E0,8.944950104E0,9.957477651E0
2.730635199E0,3.870000243E-1,4.315950394E0,8.907000542E0,9.905142880E0
2.732598123E0,3.870000243E-1,4.315950394E0,8.944950104E0,9.939282126E0
2.734561107E0,4.260000288E-1,4.392000198E0,8.944950104E0,9.974130244E0
2.736524019E0,3.870000243E-1,4.354050159E0,8.944950104E0,9.955885404E0
2.738486953E0,3.870000243E-1,4.354050159E0,8.944950104E0,9.955885404E0
2.740450008E0,3.490500152E-1,4.315950394E0,8.944950104E0,9.937876839E0
2.742413028E0,3.490500152E-1,4.354050159E0,8.944950104E0,9.954482461E0
2.744375800E0,3.490500152E-1,4.354050159E0,8.907000542E0,9.920395524E0
2.746338645E0,3.490500152E-1,4.315950394E0,8.944950104E0,9.937876839E0
2.748301536E0,3.490500152E-1,4.354050159E0,8.907000542E0,9.920395524E0
2.750264413E0,3.490500152E-1,4.315950394E0,8.983950615E0,9.972995155E0
2.752227389E0,3.490500152E-1,4.354050159E0,8.944950104E0,9.954482461E0
2.754190336E0,3.490500152E-1,4.315950394E0,8.907000542E0,9.903732749E0
2.756153575E0,3.490500152E-1,4.354050159E0,8.944950104E0,9.954482461E0
2.758116725E0,3.870000243E-1,4.354050159E0,8.944950104E0,9.955885404E0
2.760079791E0,3.870000243E-1,4.354050159E0,8.944950104E0,9.955885404E0
2.762042881E0,3.109500110E-1,4.354050159E0,8.907000542E0,9.919128054E0
2.764005775E0,3.490500152E-1,4.354050159E0,8.944950104E0,9.954482461E0
2.765968727E0,3.870000243E-1,4.354050159E0,8.907000542E0,9.921803287E0
2.767931864E0,3.490500152E-1,4.392000198E0,8.944950104E0,9.971140056E0
2.769894951E0,3.490500152E-1,4.354050159E0,8.907000542E0,9.920395524E0
2.771858027E0,3.109500110E-1,4.392000198E0,8.944950104E0,9.969879037E0
2.773821107E0,3.109500110E-1,4.392000198E0,8.944950104E0,9.969879037E0
2.775783823E0,3.109500110E-1,4.392000198E0,8.907000542E0,9.935844921E0
2.777746645E0,3.490500152E-1,4.315950394E0,8.869050026E0,9.869615599E0
2.779709715E0,3.490500152E-1,4.392000198E0,8.944950104E0,9.971140056E0
2.781672715E0,3.490500152E-1,4.392000198E0,8.944950104E0,9.971140056E0
2.783635805E0,3.109500110E-1,4.354050159E0,8.907000542E0,9.919128054E0
2.785598869E0,3.490500152E-1,4.354050159E0,8.907000542E0,9.920395524E0
2.787562129E0,3.490500152E-1,4.392000198E0,8.944950104E0,9.971140056E0
2.789525331E0,3.490500152E-1,4.392000198E0,8.944950104E0,9.971140056E0
2.791488593E0,3.870000243E-1,4.354050159E0,8.983950615E0,9.990940419E0
2.793451850E0,3.490500152E-1,4.315950394E0,8.983950615E0,9.972995155E0
2.795415211E0,3.870000243E-1,4.354050159E0,8.944950104E0,9.955885404E0
2.797378542E0,3.870000243E-1,4.392000198E0,8.983950615E0,1.000753733E1
2.799341397E0,3.109500110E-1,4.354050159E0,8.983950615E0,9.988283704E0
2.801304391E0,3.490500152E-1,4.315950394E0,9.060000420E0,1.004155722E1
2.803267536E0,3.490500152E-1,4.315950394E0,8.983950615E0,9.972995155E0
2.805230629E0,3.490500152E-1,4.354050159E0,8.983950615E0,9.989542400E0
2.807193659E0,3.109500110E-1,4.392000198E0,8.944950104E0,9.969879037E0
2.809156708E0,3.490500152E-1,4.392000198E0,8.983950615E0,1.000614163E1
2.811119654E0,3.490500152E-1,4.354050159E0,8.944950104E0,9.954482461E0
2.813082631E0,3.109500110E-1,4.354050159E0,8.983950615E0,9.988283704E0
2.815045485E0,3.490500152E-1,4.354050159E0,8.983950615E0,9.989542400E0
2.817008386E0,3.109500110E-1,4.354050159E0,8.944950104E0,9.953219331E0
2.818971537E0,3.490500152E-1,4.315950394E0,8.944950104E0,9.937876839E0
2.820934614E0,3.109500110E-1,4.315950394E0,9.022050858E0,1.000607412E1
2.822897512E0,3.490500152E-1,4.315950394E0,8.944950104E0,9.937876839E0
2.824860463E0,3.870000243E-1,4.315950394E0,8.944950104E0,9.939282126E0
2.826823381E0,3.490500152E-1,4.354050159E0,8.983950615E0,9.989542400E0
2.828786309E0,3.870000243E-1,4.354050159E0,8.983950615E0,9.990940419E0
2.830749365E0,3.490500152E-1,4.276950359E0,8.944950104E0,9.921001595E0
2.832712384E0,3.490500152E-1,4.315950394E0,9.022050858E0,1.000733058E1
2.834675337E0,3.870000243E-1,4.315950394E0,9.022050858E0,1.000872612E1
2.836638309E0,4.260000288E-1,4.354050159E0,9.022050858E0,1.002679562E1
2.838601418E0,3.870000243E-1,4.354050159E0,8.983950615E0,9.990940419E0
2.840564476E0,3.870000243E-1,4.276950359E0,8.983950615E0,9.957582139E0
2.842527736E0,3.490500152E-1,4.315950394E0,9.022050858E0,1.000733058E1
2.844490937E0,3.870000243E-1,4.315950394E0,9.022050858E0,1.000872612E1
2.846453994E0,3.490500152E-1,4.276950359E0,9.060000420E0,1.002485650E1
2.848417093E0,3.870000243E-1,4.276950359E0,9.060000420E0,1.002624960E1
2.850380186E0,3.870000243E-1,4.276950359E0,9.060000420E0,1.002624960E1
2.852343267E0,3.870000243E-1,4.276950359E0,9.060000420E0,1.002624960E1
2.854306657E0,3.870000243E-1,4.276950359E0,8.983950615E0,9.957582139E0
2.856269957E0,3.490500152E-1,4.315950394E0,9.060000420E0,1.004155722E1
2.858232816E0,3.870000243E-1,4.315950394E0,9.022050858E0,1.000872612E1
2.860195805E0,4.260000288E-1,4.315950394E0,8.983950615E0,9.975984787E0
2.862158746E0,3.870000243E-1,4.354050159E0,8.944950104E0,9.955885404E0
2.864121681E0,3.490500152E-1,4.315950394E0,8.983950615E0,9.972995155E0
2.866084602E0,3.870000243E-1,4.315950394E0,8.944950104E0,9.939282126E0
2.868047527E0,3.490500152E-1,4.354050159E0,8.944950104E0,9.954482461E0
2.870010674E0,3.490500152E-1,4.315950394E0,8.944950104E0,9.937876839E0
2.871973755E0,3.490500152E-1,4.354050159E0,8.944950104E0,9.954482461E0
2.873936786E0,3.490500152E-1,4.315950394E0,8.907000542E0,9.903732749E0
2.875899833E0,2.719500065E-1,4.315950394E0,8.944950104E0,9.935467627E0
2.877863275E0,3.870000243E-1,4.315950394E0,8.907000542E0,9.905142880E0
2.879826601E0,3.490500152E-1,4.354050159E0,8.907000542E0,9.920395524E0
2.881790041E0,3.490500152E-1,4.354050159E0,8.907000542E0,9.920395524E0
2.883753447E0,3.870000243E-1,4.315950394E0,8.907000542E0,9.905142880E0
2.885716613E0,3.870000243E-1,4.315950394E0,8.944950104E0,9.939282126E0
2.887679843E0,3.490500152E-1,4.354050159E0,8.983950615E0,9.989542400E0
2.889642714E0,3.490500152E-1,4.354050159E0,8.907000542E0,9.920395524E0
2.891605690E0,3.870000243E-1,4.315950394E0,8.869050026E0,9.871030604E0
2.893568828E0,3.109500110E-1,4.315950394E0,8.944950104E0,9.936611599E0
2.895531918E0,3.490500152E-1,4.315950394E0,8.907000542E0,9.903732749E0
2.897494999E0,3.870000243E-1,4.315950394E0,8.907000542E0,9.905142880E0
2.899458079E0,3.870000243E-1,4.315950394E0,8.907000542E0,9.905142880E0
2.901420975E0,4.260000288E-1,4.315950394E0,8.869050026E0,9.872636537E0
2.903383925E0,3.870000243E-1,4.276950359E0,8.944950104E0,9.922409272E0
2.905347023E0,3.870000243E-1,4.354050159E0,8.907000542E0,9.921803287E0
2.907310077E0,3.490500152E-1,4.315950394E0,8.944950104E0,9.937876839E0
2.909273099E0,3.870000243E-1,4.276950359E0,8.944950104E0,9.922409272E0
2.911236141E0,4.260000288E-1,4.239000320E0,8.983950615E0,9.942935602E0
2.913199223E0,3.870000243E-1,4.276950359E0,8.983950615E0,9.957582139E0
2.915162293E0,3.870000243E-1,4.276950359E0,8.944950104E0,9.922409272E0
2.917125371E0,3.870000243E-1,4.315950394E0,8.907000542E0,9.905142880E0
2.919088447E0,4.260000288E-1,4.276950359E0,8.944950104E0,9.924006890E0
2.921051589E0,3.870000243E-1,4.276950359E0,8.983950615E0,9.957582139E0
2.923014698E0,4.260000288E-1,4.315950394E0,8.944950104E0,9.940877033E0
2.924977545E0,4.260000288E-1,4.315950394E0,8.944950104E0,9.940877033E0
2.926940469E0,3.870000243E-1,4.315950394E0,8.944950104E0,9.939282126E0
2.928903751E0,3.870000243E-1,4.315950394E0,8.944950104E0,9.939282126E0
2.930866928E0,4.639500082E-1,4.276950359E0,8.944950104E0,9.925708355E0
2.932829674E0,3.870000243E-1,4.354050159E0,8.944950104E0,9.955885404E0
2.934792546E0,4.260000288E-1,4.392000198E0,8.983950615E0,1.000912136E1
2.936755792E0,3.870000243E-1,4.392000198E0,8.944950104E0,9.972540655E0
2.938718929E0,3.870000243E-1,4.354050159E0,8.983950615E0,9.990940419E0
2.940681861E0,3.490500152E-1,4.392000198E0,8.983950615E0,1.000614163E1
2.942644854E0,3.490500152E-1,4.392000198E0,8.907000542E0,9.937110259E0
2.944607875E0,3.870000243E-1,4.354050159E0,8.983950615E0,9.990940419E0
2.946570905E0,3.490500152E-1,4.354050159E0,8.983950615E0,9.989542400E0
2.948533856E0,3.870000243E-1,4.392000198E0,8.983950615E0,1.000753733E1
2.950496830E0,3.490500152E-1,4.392000198E0,8.983950615E0,1.000614163E1
2.952459878E0,3.490500152E-1,4.392000198E0,8.983950615E0,1.000614163E1
2.954422905E0,3.490500152E-1,4.354050159E0,9.022050858E0,1.002382115E1
2.956385811E0,3.109500110E-1,4.392000198E0,9.060000420E0,1.007323003E1
2.958348753E0,3.109500110E-1,4.354050159E0,9.022050858E0,1.002256676E1
2.960311537E0,3.109500110E-1,4.392000198E0,9.022050858E0,1.003911138E1
2.962274368E0,3.490500152E-1,4.392000198E0,9.022050858E0,1.004036371E1
2.964237441E0,3.109500110E-1,4.354050159E0,9.060000420E0,1.005674154E1
2.966200443E0,3.109500110E-1,4.354050159E0,9.060000420E0,1.005674154E1
2.968163573E0,3.109500110E-1,4.354050159E0,9.060000420E0,1.005674154E1
2.970126669E0,2.719500065E-1,4.354050159E0,9.136950493E0,1.012499748E1
2.972089518E0,3.109500110E-1,4.354050159E0,9.098999977E0,1.009188998E1
2.974052440E0,3.490500152E-1,4.315950394E0,9.136950493E0,1.011103991E1
2.976015407E0,3.490500152E-1,4.354050159E0,9.098999977E0,1.009313575E1
2.977978361E0,3.109500110E-1,4.354050159E0,9.098999977E0,1.009188998E1
2.979941216E0,3.490500152E-1,4.315950394E0,9.060000420E0,1.004155722E1
2.981904113E0,3.109500110E-1,4.315950394E0,9.136950493E0,1.010979634E1
2.983867265E0,3.109500110E-1,4.276950359E0,9.098999977E0,1.005886648E1
2.985830342E0,3.109500110E-1,4.276950359E0,9.098999977E0,1.005886648E1
2.987793554E0,3.109500110E-1,4.315950394E0,9.060000420E0,1.004030504E1
2.989756727E0,3.490500152E-1,4.276950359E0,9.060000420E0,1.002485650E1
2.991719819E0,3.490500152E-1,4.315950394E0,9.098999977E0,1.007675862E1
2.993682945E0,3.490500152E-1,4.276950359E0,9.060000420E0,1.002485650E1
2.995645833E0,3.109500110E-1,4.239000320E0,9.060000420E0,1.000746827E1
2.997608791E0,3.109500110E-1,4.276950359E0,9.060000420E0,1.002360224E1
2.999571842E0,3.490500152E-1,4.239000320E0,9.060000420E0,1.000872456E1
3.001534866E0,3.490500152E-1,4.239000320E0,9.022050858E0,9.974385260E0
3.003498307E0,3.870000243E-1,4.276950359E0,9.060000420E0,1.002624960E1
3.005461630E0,3.490500152E-1,4.201050282E0,9.022050858E0,9.958316176E0
3.007424891E0,4.260000288E-1,4.276950359E0,9.022050858E0,9.993557028E0
3.009388170E0,3.490500152E-1,4.239000320E0,9.022050858E0,9.974385260E0
3.011351212E0,3.490500152E-1,4.276950359E0,9.022050858E0,9.990572655E0
3.013314324E0,3.490500152E-1,4.276950359E0,8.944950104E0,9.921001595E0
3.015277505E0,4.260000288E-1,4.276950359E0,8.983950615E0,9.959174115E0
3.017240683E0,3.490500152E-1,4.276950359E0,8.944950104E0,9.921001595E0
3.019203923E0,3.870000243E-1,4.276950359E0,8.983950615E0,9.957582139E0
3.021167144E0,4.260000288E-1,4.276950359E0,8.983950615E0,9.959174115E0
3.023130062E0,3.870000243E-1,4.276950359E0,8.944950104E0,9.922409272E0
3.025093069E0,3.870000243E-1,4.276950359E0,8.944950104E0,9.922409272E0
3.027056458E0,4.260000288E-1,4.276950359E0,8.944950104E0,9.924006890E0
3.029019745E0,4.639500082E-1,4.276950359E0,8.869050026E0,9.857362850E0
3.030983327E0,4.260000288E-1,4.276950359E0,8.869050026E0,9.855649586E0
3.032946822E0,4.260000288E-1,4.315950394E0,8.869050026E0,9.872636537E0
3.034910008E0,4.639500082E-1,4.276950359E0,8.869050026E0,9.857362850E0
3.036873285E0,4.260000288E-1,4.276950359E0,8.869050026E0,9.855649586E0
3.038836382E0,4.260000288E-1,4.354050159E0,8.907000542E0,9.923401003E0
3.040799525E0,3.870000243E-1,4.392000198E0,8.907000542E0,9.938515654E0
3.042762591E0,3.870000243E-1,4.315950394E0,8.869050026E0,9.871030604E0
3.044725679E0,3.490500152E-1,4.315950394E0,8.907000542E0,9.903732749E0
3.046688754E0,3.490500152E-1,4.354050159E0,8.907000542E0,9.920395524E0
3.048651833E0,4.260000288E-1,4.392000198E0,8.944950104E0,9.974130244E0
3.050615195E0,3.870000243E-1,4.354050159E0,8.907000542E0,9.921803287E0
3.052578494E0,3.870000243E-1,4.354050159E0,8.944950104E0,9.955885404E0
3.054541579E0,3.870000243E-1,4.315950394E0,8.869050026E0,9.871030604E0
3.056504727E0,3.870000243E-1,4.392000198E0,8.944950104E0,9.972540655E0
3.058467792E0,4.260000288E-1,4.392000198E0,8.944950104E0,9.974130244E0
3.060430881E0,4.260000288E-1,4.354050159E0,8.907000542E0,9.923401003E0
3.062393745E0,4.260000288E-1,4.354050159E0,8.983950615E0,9.992527081E0
3.064356665E0,4.639500082E-1,4.354050159E0,8.944950104E0,9.959173397E0
3.066319948E0,3.870000243E-1,4.354050159E0,8.944950104E0,9.955885404E0
3.068283125E0,3.490500152E-1,4.276950359E0,9.022050858E0,9.990572655E0
3.070246365E0,3.870000243E-1,4.354050159E0,8.983950615E0,9.990940419E0
3.072209586E0,3.870000243E-1,4.354050159E0,8.983950615E0,9.990940419E0
3.074172610E0,3.870000243E-1,4.392000198E0,8.983950615E0,1.000753733E1
3.076135713E0,3.490500152E-1,4.354050159E0,9.022050858E0,1.002382115E1
3.078099145E0,3.490500152E-1,4.315950394E0,8.983950615E0,9.972995155E0
3.080062480E0,3.870000243E-1,4.276950359E0,9.022050858E0,9.991970530E0
3.082025739E0,3.870000243E-1,4.315950394E0,8.944950104E0,9.939282126E0
3.083989021E0,3.490500152E-1,4.354050159E0,8.983950615E0,9.989542400E0
3.085952233E0,3.490500152E-1,4.315950394E0,8.944950104E0,9.937876839E0
3.087915472E0,3.109500110E-1,4.315950394E0,8.944950104E0,9.936611599E0
3.089878656E0,3.490500152E-1,4.315950394E0,8.907000542E0,9.903732749E0
3.091841857E0,3.490500152E-1,4.354050159E0,8.983950615E0,9.989542400E0
3.093805272E0,3.870000243E-1,4.354050159E0,8.944950104E0,9.955885404E0
3.095768624E0,3.109500110E-1,4.354050159E0,8.983950615E0,9.988283704E0
3.097731996E0,3.490500152E-1,4.354050159E0,8.944950104E0,9.954482461E0
3.099695375E0,3.490500152E-1,4.354050159E0,8.944950104E0,9.954482461E0
3.101658761E0,3.490500152E-1,4.354050159E0,8.944950104E0,9.954482461E0
3.103622145E0,3.490500152E-1,4.354050159E0,8.983950615E0,9.989542400E0
3.105585575E0,3.109500110E-1,4.354050159E0,8.944950104E0,9.953219331E0
3.107548991E0,3.490500152E-1,4.354050159E0,8.983950615E0,9.989542400E0
3.109512361E0,3.870000243E-1,4.354050159E0,8.944950104E0,9.955885404E0
3.111475752E0,3.490500152E-1,4.354050159E0,9.022050858E0,1.002382115E1
3.113439270E0,4.260000288E-1,4.315950394E0,8.907000542E0,9.906743283E0
3.115402750E0,3.870000243E-1,4.354050159E0,8.944950104E0,9.955885404E0
3.117366119E0,3.490500152E-1,4.315950394E0,8.944950104E0,9.937876839E0
3.119329521E0,3.870000243E-1,4.354050159E0,8.983950615E0,9.990940419E0
3.121293277E0,3.870000243E-1,4.354050159E0,8.944950104E0,9.955885404E0
3.123256919E0,3.870000243E-1,4.315950394E0,8.983950615E0,9.974395494E0
3.125220620E0,4.260000288E-1,4.354050159E0,8.907000542E0,9.923401003E0
3.127184303E0,4.260000288E-1,4.276950359E0,8.907000542E0,9.889814915E0
3.129147683E0,3.870000243E-1,4.315950394E0,8.907000542E0,9.905142880E0
3.131111152E0,3.870000243E-1,4.315950394E0,8.944950104E0,9.939282126E0
3.133074549E0,3.870000243E-1,4.315950394E0,8.907000542E0,9.905142880E0
3.135037948E0,4.260000288E-1,4.315950394E0,8.944950104E0,9.940877033E0
3.137001150E0,3.870000243E-1,4.315950394E0,8.944950104E0,9.939282126E0
3.138964409E0,4.639500082E-1,4.354050159E0,8.907000542E0,9.925102571E0
3.140927815E0,3.870000243E-1,4.315950394E0,8.869050026E0,9.871030604E0
3.142891177E0,4.260000288E-1,4.315950394E0,8.907000542E0,9.906743283E0
3.144854386E0,4.260000288E-1,4.315950394E0,8.907000542E0,9.906743283E0
3.146817640E0,4.260000288E-1,4.315950394E0,8.907000542E0,9.906743283E0
3.148780641E0,4.639500082E-1,4.315950394E0,8.944950104E0,9.942575610E0
3.150743717E0,4.260000288E-1,4.315950394E0,8.944950104E0,9.940877033E0
3.152707153E0,4.260000288E-1,4.354050159E0,8.983950615E0,9.992527081E0
3.154670484E0,4.639500082E-1,4.276950359E0,8.907000542E0,9.891522261E0
3.156633690E0,4.639500082E-1,4.315950394E0,8.944950104E0,9.942575610E0
3.158596939E0,3.870000243E-1,4.315950394E0,8.944950104E0,9.939282126E0
3.160560210E0,3.870000243E-1,4.315950394E0,8.907000542E0,9.905142880E0
3.162523475E0,3.870000243E-1,4.315950394E0,8.983950615E0,9.974395494E0
3.164486881E0,3.870000243E-1,4.276950359E0,8.944950104E0,9.922409272E0
3.166450245E0,4.260000288E-1,4.276950359E0,8.907000542E0,9.889814915E0
3.168413666E0,4.260000288E-1,4.276950359E0,8.944950104E0,9.924006890E0
3.170377047E0,4.260000288E-1,4.276950359E0,8.944950104E0,9.924006890E0
3.172340792E0,3.870000243E-1,4.276950359E0,8.907000542E0,9.888211772E0
3.174304431E0,4.260000288E-1,4.315950394E0,8.944950104E0,9.940877033E0
3.176267953E0,4.260000288E-1,4.315950394E0,8.944950104E0,9.940877033E0
3.178231510E0,4.260000288E-1,4.276950359E0,8.983950615E0,9.959174115E0
3.180195024E0,3.870000243E-1,4.276950359E0,8.983950615E0,9.957582139E0
3.182158534E0,4.639500082E-1,4.276950359E0,8.944950104E0,9.925708355E0
3.184121762E0,4.260000288E-1,4.276950359E0,8.944950104E0,9.924006890E0
3.186085073E0,4.639500082E-1,4.315950394E0,8.944950104E0,9.942575610E0
3.188048290E0,4.260000288E-1,4.315950394E0,8.944950104E0,9.940877033E0
3.190011534E0,3.870000243E-1,4.276950359E0,8.944950104E0,9.922409272E0
3.191974912E0,4.260000288E-1,4.315950394E0,8.983950615E0,9.975984787E0
3.193938240E0,3.870000243E-1,4.354050159E0,9.022050858E0,1.002521439E1
3.195901455E0,4.639500082E-1,4.315950394E0,8.944950104E0,9.942575610E0
3.197864703E0,4.260000288E-1,4.315950394E0,8.983950615E0,9.975984787E0
3.199828110E0,4.260000288E-1,4.354050159E0,8.944950104E0,9.957477651E0
3.201791471E0,4.260000288E-1,4.354050159E0,8.983950615E0,9.992527081E0
3.203754754E0,3.870000243E-1,4.354050159E0,8.983950615E0,9.990940419E0
3.205718040E0,4.639500082E-1,4.354050159E0,8.944950104E0,9.959173397E0
3.207681216E0,3.870000243E-1,4.354050159E0,8.983950615E0,9.990940419E0
3.209644425E0,4.260000288E-1,4.354050159E0,8.983950615E0,9.992527081E0
3.211607884E0,4.260000288E-1,4.354050159E0,8.944950104E0,9.957477651E0
3.213571269E0,3.870000243E-1,4.315950394E0,8.944950104E0,9.939282126E0
3.215534474E0,4.260000288E-1,4.315950394E0,8.944950104E0,9.940877033E0
3.217497732E0,3.870000243E-1,4.392000198E0,9.022050858E0,1.004175465E1
3.219460913E0,3.490500152E-1,4.392000198E0,8.983950615E0,1.000614163E1
3.221424117E0,3.870000243E-1,4.392000198E0,8.944950104E0,9.972540655E0
3.223387172E0,3.870000243E-1,4.354050159E0,8.983950615E0,9.990940419E0
3.225350271E0,3.490500152E-1,4.354050159E0,8.944950104E0,9.954482461E0
3.227313154E0,3.870000243E-1,4.354050159E0,8.983950615E0,9.990940419E0
3.229276107E0,3.490500152E-1,4.354050159E0,9.022050858E0,1.002382115E1
3.231239385E0,3.870000243E-1,4.354050159E0,8.983950615E0,9.990940419E0
3.233202567E0,3.870000243E-1,4.392000198E0,9.060000420E0,1.007586435E1
3.235165986E0,3.490500152E-1,4.354050159E0,8.983950615E0,9.989542400E0
3.237129336E0,3.870000243E-1,4.354050159E0,9.022050858E0,1.002521439E1
3.239092412E0,3.490500152E-1,4.315950394E0,9.098999977E0,1.007675862E1
3.241055569E0,3.109500110E-1,4.354050159E0,9.022050858E0,1.002256676E1
3.243018991E0,3.490500152E-1,4.354050159E0,9.098999977E0,1.009313575E1
3.244982336E0,3.870000243E-1,4.315950394E0,9.022050858E0,1.000872612E1
3.246945503E0,3.490500152E-1,4.315950394E0,9.060000420E0,1.004155722E1
3.248908722E0,3.490500152E-1,4.354050159E0,9.060000420E0,1.005799166E1
3.250872129E0,3.109500110E-1,4.315950394E0,9.136950493E0,1.010979634E1
3.252835485E0,3.490500152E-1,4.315950394E0,9.098999977E0,1.007675862E1
3.254798740E0,3.109500110E-1,4.392000198E0,9.060000420E0,1.007323003E1
3.256762025E0,3.109500110E-1,4.315950394E0,9.136950493E0,1.010979634E1
3.258725561E0,3.109500110E-1,4.315950394E0,9.098999977E0,1.007551082E1
3.260689023E0,3.109500110E-1,4.315950394E0,9.060000420E0,1.004030504E1
3.262652114E0,3.109500110E-1,4.315950394E0,9.098999977E0,1.007551082E1
3.264615290E0,3.490500152E-1,4.315950394E0,9.060000420E0,1.004155722E1
3.266579025E0,2.719500065E-1,4.315950394E0,9.098999977E0,1.007438262E1
3.268542596E0,2.719500065E-1,4.315950394E0,9.098999977E0,1.007438262E1
3.270505995E0,2.719500065E-1,4.315950394E0,9.060000420E0,1.003917288E1
3.272469444E0,2.719500065E-1,4.354050159E0,9.060000420E0,1.005561123E1
3.274432802E0,2.719500065E-1,4.354050159E0,9.060000420E0,1.005561123E1
3.276396198E0,3.109500110E-1,4.354050159E0,9.060000420E0,1.005674154E1
3.278359401E0,3.109500110E-1,4.354050159E0,9.060000420E0,1.005674154E1
3.280322660E0,3.109500110E-1,4.354050159E0,9.060000420E0,1.005674154E1
3.282285886E0,3.109500110E-1,4.354050159E0,9.022050858E0,1.002256676E1
3.284249121E0,3.109500110E-1,4.354050159E0,8.983950615E0,9.988283704E0
3.286212311E0,2.719500065E-1,4.315950394E0,9.022050858E0,1.000493809E1
3.288175511E0,3.490500152E-1,4.354050159E0,9.022050858E0,1.002382115E1
3.290138791E0,3.109500110E-1,4.315950394E0,8.944950104E0,9.936611599E0
3.292102047E0,3.109500110E-1,4.392000198E0,9.022050858E0,1.003911138E1
3.294065409E0,2.719500065E-1,4.315950394E0,8.983950615E0,9.970594429E0
3.296028740E0,3.109500110E-1,4.354050159E0,8.944950104E0,9.953219331E0
3.297992158E0,3.109500110E-1,4.354050159E0,8.944950104E0,9.953219331E0
3.299955533E0,3.109500110E-1,4.392000198E0,8.907000542E0,9.935844921E0
3.301918380E0,3.109500110E-1,4.354050159E0,8.983950615E0,9.988283704E0
3.303881381E0,3.490500152E-1,4.392000198E0,8.944950104E0,9.971140056E0
3.305844875E0,3.870000243E-1,4.354050159E0,8.944950104E0,9.955885404E0
3.307808225E0,3.490500152E-1,4.315950394E0,8.983950615E0,9.972995155E0
3.309771583E0,3.109500110E-1,4.354050159E0,8.944950104E0,9.953219331E0
3.311734961E0,3.490500152E-1,4.315950394E0,8.944950104E0,9.937876839E0
3.313698123E0,3.490500152E-1,4.276950359E0,8.944950104E0,9.921001595E0
3.315661348E0,3.490500152E-1,4.354050159E0,8.944950104E0,9.954482461E0
3.317624759E0,4.260000288E-1,4.392000198E0,8.944950104E0,9.974130244E0
3.319588115E0,3.870000243E-1,4.354050159E0,8.907000542E0,9.921803287E0
3.321551499E0,3.870000243E-1,4.315950394E0,8.907000542E0,9.905142880E0
3.323514879E0,3.490500152E-1,4.315950394E0,8.907000542E0,9.903732749E0
3.325478445E0,4.260000288E-1,4.315950394E0,8.907000542E0,9.906743283E0
3.327441956E0,3.490500152E-1,4.315950394E0,8.944950104E0,9.937876839E0
3.329405185E0,3.870000243E-1,4.276950359E0,8.907000542E0,9.888211772E0
3.331368497E0,4.260000288E-1,4.276950359E0,8.869050026E0,9.855649586E0
3.333332077E0,4.260000288E-1,4.276950359E0,8.907000542E0,9.889814915E0
3.335295576E0,3.870000243E-1,4.315950394E0,8.869050026E0,9.871030604E0
