"Time (s)","Acceleration x (m/s^2)","Acceleration y (m/s^2)","Acceleration z (m/s^2)","Absolute acceleration (m/s^2)"
3.778351200E-2,3.490500152E-1,4.468950272E0,8.791950226E0,9.868725410E0
3.974561200E-2,3.109500110E-1,4.468950272E0,8.754000664E0,9.833653139E0
4.171028200E-2,3.870000243E-1,4.507050037E0,8.791950226E0,9.887449511E0
4.367313000E-2,3.490500152E-1,4.545000076E0,8.791950226E0,9.903395901E0
4.563651200E-2,3.490500152E-1,4.507050037E0,8.791950226E0,9.886036856E0
4.759969800E-2,3.870000243E-1,4.507050037E0,8.754000664E0,9.853719941E0
4.956295500E-2,3.490500152E-1,4.468950272E0,8.754000664E0,9.834931625E0
5.152613600E-2,3.870000243E-1,4.468950272E0,8.754000664E0,9.836351619E0
5.348933900E-2,3.109500110E-1,4.507050037E0,8.791950226E0,9.884764981E0
5.545261900E-2,3.109500110E-1,4.468950272E0,8.754000664E0,9.833653139E0
5.741587600E-2,3.490500152E-1,4.468950272E0,8.754000664E0,9.834931625E0
5.937886900E-2,2.719500065E-1,4.468950272E0,8.791950226E0,9.866299312E0
6.134197800E-2,3.109500110E-1,4.507050037E0,8.754000664E0,9.851026219E0
6.330504900E-2,3.490500152E-1,4.468950272E0,8.754000664E0,9.834931625E0
6.526813200E-2,3.490500152E-1,4.507050037E0,8.754000664E0,9.852302450E0
6.723138700E-2,3.109500110E-1,4.468950272E0,8.791950226E0,9.867451303E0
6.919459100E-2,3.490500152E-1,4.468950272E0,8.715000153E0,9.800233676E0
7.115763800E-2,3.109500110E-1,4.468950272E0,8.715000153E0,9.798950663E0
7.312073800E-2,3.109500110E-1,4.431000233E0,8.754000664E0,9.816464771E0
7.508381100E-2,3.109500110E-1,4.431000233E0,8.715000153E0,9.781701316E0
7.704689200E-2,3.490500152E-1,4.431000233E0,8.754000664E0,9.817745495E0
7.900996800E-2,3.870000243E-1,4.392000198E0,8.830050468E0,9.869611240E0
8.097304600E-2,3.870000243E-1,4.354050159E0,8.754000664E0,9.784684432E0
8.293593200E-2,3.490500152E-1,4.431000233E0,8.754000664E0,9.817745495E0
8.489888200E-2,3.490500152E-1,4.392000198E0,8.791950226E0,9.834118691E0
8.686193500E-2,3.490500152E-1,4.431000233E0,8.791950226E0,9.851598233E0
8.882495700E-2,3.870000243E-1,4.431000233E0,8.830050468E0,9.887028035E0
9.078786400E-2,3.490500152E-1,4.392000198E0,8.754000664E0,9.800205573E0
9.275080500E-2,3.490500152E-1,4.392000198E0,8.869050026E0,9.903108099E0
9.471393400E-2,3.490500152E-1,4.354050159E0,8.907000542E0,9.920395524E0
9.667701900E-2,4.260000288E-1,4.354050159E0,8.907000542E0,9.923401003E0
9.864041000E-2,3.870000243E-1,4.354050159E0,8.944950104E0,9.955885404E0
1.006037110E-1,3.870000243E-1,4.392000198E0,8.944950104E0,9.972540655E0
1.025669760E-1,3.870000243E-1,4.354050159E0,8.907000542E0,9.921803287E0
1.045302520E-1,3.490500152E-1,4.431000233E0,8.983950615E0,1.002332119E1
1.064934220E-1,3.870000243E-1,4.392000198E0,8.983950615E0,1.000753733E1
1.084566600E-1,3.870000243E-1,4.431000233E0,9.022050858E0,1.005887338E1
1.104197090E-1,3.870000243E-1,4.431000233E0,8.983950615E0,1.002471450E1
1.123828140E-1,4.260000288E-1,4.392000198E0,9.022050858E0,1.004333328E1
1.143464260E-1,3.870000243E-1,4.431000233E0,9.060000420E0,1.009292523E1
1.163098890E-1,3.109500110E-1,4.431000233E0,8.983950615E0,1.002206673E1
1.182731730E-1,3.490500152E-1,4.431000233E0,8.944950104E0,9.988379815E0
1.202365400E-1,3.490500152E-1,4.392000198E0,9.022050858E0,1.004036371E1
1.221994320E-1,3.490500152E-1,4.431000233E0,9.022050858E0,1.005748481E1
1.241624630E-1,3.870000243E-1,4.468950272E0,8.983950615E0,1.004154640E1
1.261257270E-1,3.490500152E-1,4.392000198E0,9.022050858E0,1.004036371E1
1.280889230E-1,3.870000243E-1,4.431000233E0,8.983950615E0,1.002471450E1
1.300524320E-1,3.109500110E-1,4.431000233E0,8.983950615E0,1.002206673E1
1.320158800E-1,2.719500065E-1,4.431000233E0,8.983950615E0,1.002093252E1
1.339791190E-1,3.490500152E-1,4.431000233E0,8.983950615E0,1.002332119E1
1.359424200E-1,2.719500065E-1,4.468950272E0,8.983950615E0,1.003777077E1
1.379058180E-1,2.719500065E-1,4.468950272E0,8.944950104E0,1.000287987E1
1.398691880E-1,3.109500110E-1,4.468950272E0,8.983950615E0,1.003890308E1
1.418329350E-1,3.109500110E-1,4.468950272E0,9.022050858E0,1.007301385E1
1.437965720E-1,2.719500065E-1,4.468950272E0,8.983950615E0,1.003777077E1
1.457595540E-1,3.109500110E-1,4.431000233E0,8.983950615E0,1.002206673E1
1.477227280E-1,2.340000123E-1,4.507050037E0,9.022050858E0,1.008789660E1
1.496859680E-1,3.109500110E-1,4.468950272E0,9.022050858E0,1.007301385E1
1.516491880E-1,2.340000123E-1,4.468950272E0,9.022050858E0,1.007093214E1
1.536127470E-1,3.109500110E-1,4.431000233E0,9.022050858E0,1.005623462E1
1.555762310E-1,3.109500110E-1,4.431000233E0,9.098999977E0,1.012532733E1
1.575392390E-1,2.719500065E-1,4.468950272E0,9.060000420E0,1.010589338E1
1.595023860E-1,3.109500110E-1,4.468950272E0,9.022050858E0,1.007301385E1
1.614656300E-1,3.109500110E-1,4.468950272E0,9.060000420E0,1.010701806E1
1.634288460E-1,3.490500152E-1,4.431000233E0,9.098999977E0,1.012656899E1
1.653920930E-1,3.109500110E-1,4.431000233E0,9.098999977E0,1.012532733E1
1.673553210E-1,2.719500065E-1,4.431000233E0,9.098999977E0,1.012420468E1
1.693183730E-1,3.109500110E-1,4.468950272E0,9.060000420E0,1.010701806E1
1.712814770E-1,3.490500152E-1,4.431000233E0,9.060000420E0,1.009154134E1
1.732448640E-1,3.490500152E-1,4.431000233E0,9.098999977E0,1.012656899E1
1.752081680E-1,3.109500110E-1,4.431000233E0,8.983950615E0,1.002206673E1
1.771715830E-1,3.490500152E-1,4.431000233E0,8.983950615E0,1.002332119E1
1.791349850E-1,2.719500065E-1,4.431000233E0,9.022050858E0,1.005510425E1
1.810983220E-1,2.719500065E-1,4.431000233E0,9.022050858E0,1.005510425E1
1.830616790E-1,3.109500110E-1,4.392000198E0,9.022050858E0,1.003911138E1
1.850248880E-1,3.109500110E-1,4.431000233E0,9.022050858E0,1.005623462E1
1.869881410E-1,3.870000243E-1,4.431000233E0,8.944950104E0,9.989777998E0
1.889512030E-1,3.109500110E-1,4.431000233E0,8.983950615E0,1.002206673E1
1.909143420E-1,3.490500152E-1,4.468950272E0,8.983950615E0,1.004015543E1
1.928775430E-1,3.109500110E-1,4.468950272E0,8.944950104E0,1.000401613E1
1.948407250E-1,3.109500110E-1,4.468950272E0,8.907000542E0,9.970098550E0
1.968039640E-1,3.109500110E-1,4.468950272E0,8.944950104E0,1.000401613E1
1.987671870E-1,2.719500065E-1,4.431000233E0,8.907000542E0,9.952003744E0
2.007303810E-1,3.490500152E-1,4.507050037E0,8.907000542E0,9.988493110E0
2.026936100E-1,3.109500110E-1,4.468950272E0,8.907000542E0,9.970098550E0
2.046568410E-1,3.109500110E-1,4.431000233E0,8.907000542E0,9.953145815E0
2.066200720E-1,3.109500110E-1,4.431000233E0,8.907000542E0,9.953145815E0
2.085833030E-1,3.109500110E-1,4.468950272E0,8.944950104E0,1.000401613E1
2.105465340E-1,2.719500065E-1,4.507050037E0,8.907000542E0,9.986096109E0
2.125099400E-1,3.109500110E-1,4.468950272E0,8.907000542E0,9.970098550E0
2.144732980E-1,2.719500065E-1,4.468950272E0,8.869050026E0,9.935065259E0
2.164368670E-1,2.340000123E-1,4.468950272E0,8.830050468E0,9.899296127E0
2.184003740E-1,3.490500152E-1,4.468950272E0,8.907000542E0,9.971359541E0
2.203637390E-1,3.490500152E-1,4.468950272E0,8.869050026E0,9.937474569E0
2.223271460E-1,3.109500110E-1,4.431000233E0,8.907000542E0,9.953145815E0
2.242907060E-1,3.490500152E-1,4.468950272E0,8.869050026E0,9.937474569E0
2.262542210E-1,3.870000243E-1,4.468950272E0,8.830050468E0,9.904093943E0
2.282174490E-1,3.870000243E-1,4.468950272E0,8.830050468E0,9.904093943E0
2.301807610E-1,3.490500152E-1,4.468950272E0,8.869050026E0,9.937474569E0
2.321439330E-1,3.490500152E-1,4.468950272E0,8.791950226E0,9.868725410E0
2.341071460E-1,3.870000243E-1,4.507050037E0,8.830050468E0,9.921343676E0
2.360707290E-1,3.870000243E-1,4.468950272E0,8.791950226E0,9.870140542E0
2.380342110E-1,3.870000243E-1,4.431000233E0,8.830050468E0,9.887028035E0
2.399973990E-1,3.490500152E-1,4.468950272E0,8.791950226E0,9.868725410E0
2.419606740E-1,3.490500152E-1,4.468950272E0,8.754000664E0,9.834931625E0
2.439237620E-1,3.490500152E-1,4.468950272E0,8.791950226E0,9.868725410E0
2.458869050E-1,3.109500110E-1,4.468950272E0,8.830050468E0,9.901413925E0
2.478499590E-1,3.490500152E-1,4.468950272E0,8.791950226E0,9.868725410E0
2.498130160E-1,3.490500152E-1,4.468950272E0,8.830050468E0,9.902683662E0
2.517761400E-1,3.490500152E-1,4.507050037E0,8.830050468E0,9.919935848E0
2.537392450E-1,3.490500152E-1,4.507050037E0,8.830050468E0,9.919935848E0
2.557024970E-1,3.109500110E-1,4.507050037E0,8.830050468E0,9.918668319E0
2.576657060E-1,3.490500152E-1,4.468950272E0,8.830050468E0,9.902683662E0
2.596291210E-1,3.109500110E-1,4.507050037E0,8.830050468E0,9.918668319E0
2.615924750E-1,3.109500110E-1,4.468950272E0,8.830050468E0,9.901413925E0
2.635558210E-1,3.109500110E-1,4.507050037E0,8.830050468E0,9.918668319E0
2.655191700E-1,2.719500065E-1,4.507050037E0,8.791950226E0,9.883615008E0
2.674822450E-1,3.109500110E-1,4.507050037E0,8.869050026E0,9.953403353E0
2.694454010E-1,3.109500110E-1,4.507050037E0,8.791950226E0,9.884764981E0
2.714086430E-1,3.109500110E-1,4.507050037E0,8.869050026E0,9.953403353E0
2.733718600E-1,3.109500110E-1,4.468950272E0,8.830050468E0,9.901413925E0
2.753349140E-1,3.109500110E-1,4.507050037E0,8.907000542E0,9.987234282E0
2.772980160E-1,2.719500065E-1,4.468950272E0,8.869050026E0,9.935065259E0
2.792614030E-1,3.490500152E-1,4.507050037E0,8.830050468E0,9.919935848E0
2.812247060E-1,3.109500110E-1,4.507050037E0,8.869050026E0,9.953403353E0
2.831879760E-1,2.719500065E-1,4.468950272E0,8.869050026E0,9.935065259E0
2.851512520E-1,3.109500110E-1,4.468950272E0,8.907000542E0,9.970098550E0
2.871146090E-1,3.109500110E-1,4.507050037E0,8.830050468E0,9.918668319E0
2.890779420E-1,3.109500110E-1,4.507050037E0,8.869050026E0,9.953403353E0
2.910411570E-1,3.109500110E-1,4.507050037E0,8.830050468E0,9.918668319E0
2.930044060E-1,3.490500152E-1,4.468950272E0,8.869050026E0,9.937474569E0
2.949676910E-1,3.109500110E-1,4.468950272E0,8.907000542E0,9.970098550E0
2.969309560E-1,3.109500110E-1,4.468950272E0,8.830050468E0,9.901413925E0
2.988943160E-1,3.109500110E-1,4.468950272E0,8.830050468E0,9.901413925E0
3.008576480E-1,3.109500110E-1,4.507050037E0,8.907000542E0,9.987234282E0
3.028206820E-1,3.490500152E-1,4.507050037E0,8.869050026E0,9.954666459E0
3.047838040E-1,2.719500065E-1,4.468950272E0,8.907000542E0,9.968958420E0
3.067467270E-1,3.109500110E-1,4.431000233E0,8.907000542E0,9.953145815E0
3.087096840E-1,3.109500110E-1,4.431000233E0,8.907000542E0,9.953145815E0
3.106726460E-1,3.109500110E-1,4.468950272E0,8.907000542E0,9.970098550E0
3.126356060E-1,3.109500110E-1,4.468950272E0,8.869050026E0,9.936209277E0
3.145991990E-1,3.490500152E-1,4.468950272E0,8.907000542E0,9.971359541E0
3.165626060E-1,3.490500152E-1,4.468950272E0,8.869050026E0,9.937474569E0
3.185256910E-1,3.109500110E-1,4.507050037E0,8.869050026E0,9.953403353E0
3.204888570E-1,3.109500110E-1,4.468950272E0,8.907000542E0,9.970098550E0
3.224520980E-1,3.490500152E-1,4.468950272E0,8.830050468E0,9.902683662E0
3.244153170E-1,3.109500110E-1,4.468950272E0,8.869050026E0,9.936209277E0
3.263785500E-1,2.719500065E-1,4.507050037E0,8.907000542E0,9.986096109E0
3.283417780E-1,3.109500110E-1,4.468950272E0,8.869050026E0,9.936209277E0
3.303051160E-1,3.490500152E-1,4.468950272E0,8.869050026E0,9.937474569E0
3.322684420E-1,3.490500152E-1,4.468950272E0,8.869050026E0,9.937474569E0
3.342318370E-1,3.109500110E-1,4.468950272E0,8.830050468E0,9.901413925E0
3.361952110E-1,3.490500152E-1,4.431000233E0,8.869050026E0,9.920466085E0
3.381582830E-1,3.490500152E-1,4.431000233E0,8.869050026E0,9.920466085E0
3.401214440E-1,2.719500065E-1,4.468950272E0,8.907000542E0,9.968958420E0
3.420848660E-1,3.490500152E-1,4.468950272E0,8.907000542E0,9.971359541E0
3.440482110E-1,3.109500110E-1,4.468950272E0,8.907000542E0,9.970098550E0
3.460114240E-1,3.490500152E-1,4.468950272E0,8.907000542E0,9.971359541E0
3.479746750E-1,3.870000243E-1,4.507050037E0,8.830050468E0,9.921343676E0
3.499379020E-1,3.490500152E-1,4.468950272E0,8.907000542E0,9.971359541E0
3.519011360E-1,3.490500152E-1,4.507050037E0,8.907000542E0,9.988493110E0
3.538643510E-1,3.109500110E-1,4.468950272E0,8.907000542E0,9.970098550E0
3.558275830E-1,3.490500152E-1,4.431000233E0,8.830050468E0,9.885615320E0
3.577909930E-1,3.870000243E-1,4.468950272E0,8.907000542E0,9.972760109E0
3.597543500E-1,3.490500152E-1,4.431000233E0,8.907000542E0,9.954408954E0
3.617179200E-1,3.490500152E-1,4.392000198E0,8.907000542E0,9.937110259E0
3.636814270E-1,3.490500152E-1,4.392000198E0,8.907000542E0,9.937110259E0
3.656449270E-1,4.260000288E-1,4.431000233E0,8.907000542E0,9.957404167E0
3.676084290E-1,4.260000288E-1,4.468950272E0,8.907000542E0,9.974349663E0
3.695716130E-1,3.490500152E-1,4.431000233E0,8.907000542E0,9.954408954E0
3.715348900E-1,4.260000288E-1,4.431000233E0,8.944950104E0,9.991364844E0
3.734981130E-1,3.870000243E-1,4.431000233E0,8.944950104E0,9.989777998E0
3.754613520E-1,4.260000288E-1,4.431000233E0,8.907000542E0,9.957404167E0
3.774245770E-1,3.870000243E-1,4.431000233E0,8.869050026E0,9.921873837E0
3.793878090E-1,3.870000243E-1,4.392000198E0,8.944950104E0,9.972540655E0
3.813512190E-1,4.260000288E-1,4.392000198E0,8.944950104E0,9.974130244E0
3.833145770E-1,4.260000288E-1,4.431000233E0,8.944950104E0,9.991364844E0
3.852781920E-1,3.870000243E-1,4.431000233E0,8.944950104E0,9.989777998E0
3.872417310E-1,3.490500152E-1,4.468950272E0,8.944950104E0,1.000527285E1
3.892050850E-1,3.490500152E-1,4.431000233E0,8.944950104E0,9.988379815E0
3.911684970E-1,3.870000243E-1,4.468950272E0,8.869050026E0,9.938879912E0
3.931320110E-1,3.870000243E-1,4.392000198E0,8.830050468E0,9.869611240E0
3.950954950E-1,3.870000243E-1,4.392000198E0,8.944950104E0,9.972540655E0
3.970590430E-1,3.490500152E-1,4.468950272E0,8.944950104E0,1.000527285E1
3.990225720E-1,3.870000243E-1,4.431000233E0,8.907000542E0,9.955811907E0
4.009859350E-1,3.490500152E-1,4.431000233E0,8.869050026E0,9.920466085E0
4.029493770E-1,3.870000243E-1,4.392000198E0,8.907000542E0,9.938515654E0
4.049130660E-1,4.260000288E-1,4.468950272E0,8.869050026E0,9.940474884E0
4.068766830E-1,3.490500152E-1,4.431000233E0,8.830050468E0,9.885615320E0
4.088400740E-1,3.870000243E-1,4.468950272E0,8.869050026E0,9.938879912E0
4.108035310E-1,3.870000243E-1,4.507050037E0,8.869050026E0,9.956069376E0
4.127669310E-1,4.260000288E-1,4.431000233E0,8.907000542E0,9.957404167E0
4.147303280E-1,3.490500152E-1,4.507050037E0,8.830050468E0,9.919935848E0
4.166935300E-1,3.490500152E-1,4.468950272E0,8.907000542E0,9.971359541E0
4.186567900E-1,3.490500152E-1,4.468950272E0,8.869050026E0,9.937474569E0
4.206201500E-1,3.490500152E-1,4.468950272E0,8.907000542E0,9.971359541E0
4.225834800E-1,3.490500152E-1,4.431000233E0,8.830050468E0,9.885615320E0
4.245465300E-1,3.490500152E-1,4.468950272E0,8.869050026E0,9.937474569E0
4.265096510E-1,3.490500152E-1,4.468950272E0,8.907000542E0,9.971359541E0
4.284727200E-1,3.109500110E-1,4.468950272E0,8.907000542E0,9.970098550E0
4.304358050E-1,3.109500110E-1,4.468950272E0,8.830050468E0,9.901413925E0
4.323988800E-1,3.870000243E-1,4.507050037E0,8.907000542E0,9.989891276E0
4.343619580E-1,3.490500152E-1,4.431000233E0,8.907000542E0,9.954408954E0
4.363251990E-1,3.490500152E-1,4.468950272E0,8.907000542E0,9.971359541E0
4.382884030E-1,3.490500152E-1,4.507050037E0,8.869050026E0,9.954666459E0
4.402516390E-1,3.490500152E-1,4.507050037E0,8.869050026E0,9.954666459E0
4.422148650E-1,3.490500152E-1,4.507050037E0,8.907000542E0,9.988493110E0
4.441781410E-1,3.490500152E-1,4.507050037E0,8.907000542E0,9.988493110E0
4.461414030E-1,3.870000243E-1,4.468950272E0,8.944950104E0,1.000666867E1
4.481047780E-1,3.109500110E-1,4.468950272E0,8.944950104E0,1.000401613E1
4.500681100E-1,3.109500110E-1,4.468950272E0,8.907000542E0,9.970098550E0
4.520311890E-1,3.490500152E-1,4.468950272E0,8.944950104E0,1.000527285E1
4.539943430E-1,3.490500152E-1,4.468950272E0,8.944950104E0,1.000527285E1
4.559577660E-1,3.109500110E-1,4.468950272E0,8.944950104E0,1.000401613E1
4.579211100E-1,2.719500065E-1,4.468950272E0,8.944950104E0,1.000287987E1
4.598842580E-1,3.109500110E-1,4.507050037E0,8.907000542E0,9.987234282E0
4.618474770E-1,3.109500110E-1,4.468950272E0,8.869050026E0,9.936209277E0
4.638107090E-1,3.870000243E-1,4.507050037E0,8.944950104E0,1.002374189E1
4.657739370E-1,3.109500110E-1,4.468950272E0,8.869050026E0,9.936209277E0
4.677369890E-1,3.109500110E-1,4.507050037E0,8.944950104E0,1.002109387E1
4.697000920E-1,3.490500152E-1,4.545000076E0,8.907000542E0,1.000567440E1
4.716634050E-1,3.109500110E-1,4.507050037E0,8.944950104E0,1.002109387E1
4.736266450E-1,3.490500152E-1,4.507050037E0,8.869050026E0,9.954666459E0
4.755898750E-1,3.109500110E-1,4.507050037E0,8.907000542E0,9.987234282E0
4.775531080E-1,3.490500152E-1,4.468950272E0,8.869050026E0,9.937474569E0
4.795162930E-1,3.109500110E-1,4.431000233E0,8.907000542E0,9.953145815E0
4.814794930E-1,3.109500110E-1,4.431000233E0,8.907000542E0,9.953145815E0
4.834431340E-1,3.109500110E-1,4.468950272E0,8.869050026E0,9.936209277E0
4.854066450E-1,2.719500065E-1,4.468950272E0,8.907000542E0,9.968958420E0
4.873703240E-1,3.109500110E-1,4.468950272E0,8.869050026E0,9.936209277E0
4.893339530E-1,3.109500110E-1,4.468950272E0,8.869050026E0,9.936209277E0
4.912973420E-1,3.109500110E-1,4.468950272E0,8.869050026E0,9.936209277E0
4.932608010E-1,3.109500110E-1,4.468950272E0,8.907000542E0,9.970098550E0
4.952241770E-1,3.490500152E-1,4.468950272E0,8.944950104E0,1.000527285E1
4.971875740E-1,3.109500110E-1,4.431000233E0,8.869050026E0,9.919198624E0
4.991509110E-1,3.109500110E-1,4.468950272E0,8.869050026E0,9.936209277E0
5.011142660E-1,3.490500152E-1,4.431000233E0,8.944950104E0,9.988379815E0
5.030772950E-1,3.490500152E-1,4.431000233E0,8.944950104E0,9.988379815E0
5.050404200E-1,3.490500152E-1,4.431000233E0,8.944950104E0,9.988379815E0
5.070040330E-1,3.109500110E-1,4.392000198E0,8.907000542E0,9.935844921E0
5.089675000E-1,2.719500065E-1,4.392000198E0,8.944950104E0,9.968738882E0
5.109307370E-1,3.109500110E-1,4.392000198E0,8.869050026E0,9.901838416E0
5.128940410E-1,3.109500110E-1,4.468950272E0,8.944950104E0,1.000401613E1
5.148572140E-1,3.490500152E-1,4.392000198E0,8.944950104E0,9.971140056E0
5.168204250E-1,3.490500152E-1,4.431000233E0,8.907000542E0,9.954408954E0
5.187831550E-1,3.490500152E-1,4.431000233E0,8.907000542E0,9.954408954E0
5.207460320E-1,3.490500152E-1,4.431000233E0,8.944950104E0,9.988379815E0
5.227089620E-1,3.490500152E-1,4.392000198E0,8.944950104E0,9.971140056E0
5.246718760E-1,3.490500152E-1,4.431000233E0,8.869050026E0,9.920466085E0
5.266353410E-1,3.490500152E-1,4.431000233E0,8.907000542E0,9.954408954E0
5.285986450E-1,3.490500152E-1,4.468950272E0,8.907000542E0,9.971359541E0
5.305618890E-1,3.109500110E-1,4.468950272E0,8.869050026E0,9.936209277E0
5.325251330E-1,3.109500110E-1,4.468950272E0,8.907000542E0,9.970098550E0
5.344883160E-1,3.109500110E-1,4.468950272E0,8.907000542E0,9.970098550E0
5.364515170E-1,2.719500065E-1,4.507050037E0,8.869050026E0,9.952261311E0
5.384147970E-1,3.109500110E-1,4.392000198E0,8.907000542E0,9.935844921E0
5.403780540E-1,2.719500065E-1,4.431000233E0,8.869050026E0,9.918052643E0
5.423412360E-1,3.490500152E-1,4.468950272E0,8.907000542E0,9.971359541E0
5.443044400E-1,3.490500152E-1,4.468950272E0,8.869050026E0,9.937474569E0
5.462676750E-1,3.490500152E-1,4.431000233E0,8.869050026E0,9.920466085E0
5.482309000E-1,3.490500152E-1,4.507050037E0,8.869050026E0,9.954666459E0
5.501943120E-1,3.109500110E-1,4.468950272E0,8.830050468E0,9.901413925E0
5.521576690E-1,3.490500152E-1,4.468950272E0,8.869050026E0,9.937474569E0
5.541210880E-1,3.490500152E-1,4.468950272E0,8.830050468E0,9.902683662E0
5.560845000E-1,3.490500152E-1,4.468950272E0,8.869050026E0,9.937474569E0
5.580481960E-1,3.109500110E-1,4.468950272E0,8.869050026E0,9.936209277E0
5.600118080E-1,3.490500152E-1,4.468950272E0,8.907000542E0,9.971359541E0
5.619750190E-1,3.109500110E-1,4.468950272E0,8.830050468E0,9.901413925E0
5.639383480E-1,3.490500152E-1,4.468950272E0,8.869050026E0,9.937474569E0
5.659015810E-1,3.490500152E-1,4.468950272E0,8.907000542E0,9.971359541E0
5.678648290E-1,3.870000243E-1,4.468950272E0,8.830050468E0,9.904093943E0
5.698276510E-1,3.490500152E-1,4.468950272E0,8.869050026E0,9.937474569E0
5.717905980E-1,3.490500152E-1,4.431000233E0,8.869050026E0,9.920466085E0
5.737538770E-1,3.870000243E-1,4.431000233E0,8.869050026E0,9.921873837E0
5.757170580E-1,3.109500110E-1,4.468950272E0,8.869050026E0,9.936209277E0
5.776803620E-1,3.490500152E-1,4.468950272E0,8.869050026E0,9.937474569E0
5.796436160E-1,3.490500152E-1,4.468950272E0,8.869050026E0,9.937474569E0
5.816066190E-1,3.870000243E-1,4.431000233E0,8.907000542E0,9.955811907E0
5.835696950E-1,3.490500152E-1,4.431000233E0,8.907000542E0,9.954408954E0
5.855328160E-1,3.490500152E-1,4.468950272E0,8.907000542E0,9.971359541E0
5.874959240E-1,3.490500152E-1,4.431000233E0,8.869050026E0,9.920466085E0
5.894589710E-1,3.870000243E-1,4.468950272E0,8.907000542E0,9.972760109E0
5.914220220E-1,3.490500152E-1,4.468950272E0,8.869050026E0,9.937474569E0
5.933851470E-1,3.490500152E-1,4.468950272E0,8.869050026E0,9.937474569E0
5.953482510E-1,3.490500152E-1,4.468950272E0,8.830050468E0,9.902683662E0
5.973110990E-1,3.109500110E-1,4.431000233E0,8.869050026E0,9.919198624E0
5.992740220E-1,3.490500152E-1,4.468950272E0,8.907000542E0,9.971359541E0
6.012369500E-1,3.490500152E-1,4.468950272E0,8.830050468E0,9.902683662E0
6.031999040E-1,3.109500110E-1,4.507050037E0,8.830050468E0,9.918668319E0
6.051630020E-1,3.870000243E-1,4.431000233E0,8.869050026E0,9.921873837E0
6.071260580E-1,3.109500110E-1,4.468950272E0,8.869050026E0,9.936209277E0
6.090892730E-1,3.109500110E-1,4.468950272E0,8.907000542E0,9.970098550E0
6.110524420E-1,2.719500065E-1,4.507050037E0,8.869050026E0,9.952261311E0
6.130157240E-1,3.490500152E-1,4.468950272E0,8.869050026E0,9.937474569E0
6.149789760E-1,3.490500152E-1,4.468950272E0,8.907000542E0,9.971359541E0
6.169421590E-1,3.490500152E-1,4.468950272E0,8.907000542E0,9.971359541E0
6.189053620E-1,3.109500110E-1,4.507050037E0,8.944950104E0,1.002109387E1
6.208682830E-1,3.490500152E-1,4.468950272E0,8.869050026E0,9.937474569E0
6.228312860E-1,2.719500065E-1,4.468950272E0,8.907000542E0,9.968958420E0
6.247943700E-1,3.490500152E-1,4.468950272E0,8.907000542E0,9.971359541E0
6.267574330E-1,3.109500110E-1,4.468950272E0,8.907000542E0,9.970098550E0
6.287208280E-1,2.719500065E-1,4.431000233E0,8.869050026E0,9.918052643E0
6.306841260E-1,3.109500110E-1,4.468950272E0,8.907000542E0,9.970098550E0
6.326473460E-1,3.490500152E-1,4.468950272E0,8.907000542E0,9.971359541E0
6.346105890E-1,2.719500065E-1,4.507050037E0,8.944950104E0,1.001995954E1
6.365734870E-1,3.490500152E-1,4.468950272E0,8.869050026E0,9.937474569E0
6.385364970E-1,3.109500110E-1,4.507050037E0,8.907000542E0,9.987234282E0
6.404999000E-1,2.719500065E-1,4.545000076E0,8.907000542E0,1.000328152E1
6.424631880E-1,3.109500110E-1,4.507050037E0,8.907000542E0,9.987234282E0
6.444262300E-1,3.109500110E-1,4.507050037E0,8.907000542E0,9.987234282E0
6.463893440E-1,2.340000123E-1,4.507050037E0,8.869050026E0,9.951296619E0
6.483528290E-1,3.109500110E-1,4.507050037E0,8.907000542E0,9.987234282E0
6.503161980E-1,3.109500110E-1,4.507050037E0,8.944950104E0,1.002109387E1
6.522794060E-1,3.109500110E-1,4.545000076E0,8.944950104E0,1.003821936E1
6.542426610E-1,2.340000123E-1,4.507050037E0,8.907000542E0,9.985134686E0
6.562060220E-1,2.719500065E-1,4.507050037E0,8.907000542E0,9.986096109E0
6.581693520E-1,3.109500110E-1,4.468950272E0,8.944950104E0,1.000401613E1
6.601325960E-1,3.109500110E-1,4.507050037E0,8.869050026E0,9.953403353E0
6.620958760E-1,2.719500065E-1,4.507050037E0,8.944950104E0,1.001995954E1
6.640592320E-1,2.340000123E-1,4.507050037E0,8.944950104E0,1.001900137E1
6.660225660E-1,2.340000123E-1,4.507050037E0,8.907000542E0,9.985134686E0
6.679857800E-1,2.719500065E-1,4.468950272E0,8.944950104E0,1.000287987E1
6.699490300E-1,2.719500065E-1,4.507050037E0,8.944950104E0,1.001995954E1
6.719121420E-1,3.109500110E-1,4.507050037E0,8.907000542E0,9.987234282E0
6.738752810E-1,3.109500110E-1,4.507050037E0,8.907000542E0,9.987234282E0
6.758387070E-1,3.109500110E-1,4.468950272E0,8.944950104E0,1.000401613E1
6.778020480E-1,3.109500110E-1,4.468950272E0,8.944950104E0,1.000401613E1
6.797658010E-1,2.719500065E-1,4.468950272E0,8.944950104E0,1.000287987E1
6.817294330E-1,3.490500152E-1,4.507050037E0,8.944950104E0,1.002234844E1
6.836927760E-1,3.109500110E-1,4.431000233E0,8.944950104E0,9.987120973E0
6.856562040E-1,3.109500110E-1,4.431000233E0,8.944950104E0,9.987120973E0
6.876193550E-1,3.109500110E-1,4.468950272E0,8.944950104E0,1.000401613E1
6.895825880E-1,3.490500152E-1,4.468950272E0,8.944950104E0,1.000527285E1
6.915461780E-1,3.490500152E-1,4.431000233E0,8.983950615E0,1.002332119E1
6.935096630E-1,3.490500152E-1,4.431000233E0,8.907000542E0,9.954408954E0
6.954726370E-1,3.490500152E-1,4.431000233E0,8.944950104E0,9.988379815E0
6.974357850E-1,3.490500152E-1,4.468950272E0,8.907000542E0,9.971359541E0
6.993990290E-1,3.490500152E-1,4.468950272E0,8.907000542E0,9.971359541E0
7.013622450E-1,3.490500152E-1,4.468950272E0,8.907000542E0,9.971359541E0
7.033253440E-1,3.490500152E-1,4.468950272E0,8.907000542E0,9.971359541E0
7.052884780E-1,3.490500152E-1,4.431000233E0,8.944950104E0,9.988379815E0
7.072520210E-1,3.490500152E-1,4.468950272E0,8.907000542E0,9.971359541E0
7.092154570E-1,3.109500110E-1,4.507050037E0,8.869050026E0,9.953403353E0
7.111786980E-1,3.109500110E-1,4.468950272E0,8.869050026E0,9.936209277E0
7.131419970E-1,3.870000243E-1,4.468950272E0,8.830050468E0,9.904093943E0
7.151050360E-1,3.490500152E-1,4.468950272E0,8.907000542E0,9.971359541E0
7.170681510E-1,3.109500110E-1,4.468950272E0,8.869050026E0,9.936209277E0
7.190313900E-1,3.870000243E-1,4.468950272E0,8.907000542E0,9.972760109E0
7.209946000E-1,3.490500152E-1,4.468950272E0,8.907000542E0,9.971359541E0
7.229577910E-1,3.490500152E-1,4.507050037E0,8.907000542E0,9.988493110E0
7.249209870E-1,3.870000243E-1,4.468950272E0,8.907000542E0,9.972760109E0
7.268845830E-1,3.109500110E-1,4.468950272E0,8.869050026E0,9.936209277E0
7.288480620E-1,3.490500152E-1,4.431000233E0,8.869050026E0,9.920466085E0
7.308116370E-1,3.870000243E-1,4.431000233E0,8.869050026E0,9.921873837E0
7.327751970E-1,3.490500152E-1,4.431000233E0,8.907000542E0,9.954408954E0
7.347383720E-1,3.870000243E-1,4.468950272E0,8.907000542E0,9.972760109E0
7.367016600E-1,3.870000243E-1,4.468950272E0,8.869050026E0,9.938879912E0
7.386654210E-1,3.490500152E-1,4.431000233E0,8.830050468E0,9.885615320E0
7.406290430E-1,3.490500152E-1,4.431000233E0,8.830050468E0,9.885615320E0
7.425925320E-1,3.870000243E-1,4.392000198E0,8.869050026E0,9.904518319E0
7.445560540E-1,3.870000243E-1,4.431000233E0,8.869050026E0,9.921873837E0
7.465192350E-1,3.870000243E-1,4.392000198E0,8.869050026E0,9.904518319E0
7.484825160E-1,4.260000288E-1,4.431000233E0,8.869050026E0,9.923471542E0
7.504457380E-1,3.870000243E-1,4.468950272E0,8.907000542E0,9.972760109E0
7.524089770E-1,3.109500110E-1,4.468950272E0,8.907000542E0,9.970098550E0
7.543722610E-1,3.490500152E-1,4.431000233E0,8.907000542E0,9.954408954E0
7.563355240E-1,3.870000243E-1,4.431000233E0,8.869050026E0,9.921873837E0
7.582987050E-1,3.870000243E-1,4.392000198E0,8.907000542E0,9.938515654E0
7.602619100E-1,3.109500110E-1,4.468950272E0,8.869050026E0,9.936209277E0
7.622251440E-1,3.870000243E-1,4.431000233E0,8.869050026E0,9.921873837E0
7.641883700E-1,3.490500152E-1,4.468950272E0,8.869050026E0,9.937474569E0
7.661517960E-1,3.490500152E-1,4.392000198E0,8.907000542E0,9.937110259E0
7.681151530E-1,4.260000288E-1,4.431000233E0,8.869050026E0,9.923471542E0
7.700785420E-1,3.490500152E-1,4.468950272E0,8.869050026E0,9.937474569E0
7.720419220E-1,3.870000243E-1,4.468950272E0,8.907000542E0,9.972760109E0
7.740053520E-1,4.260000288E-1,4.468950272E0,8.869050026E0,9.940474884E0
7.759687680E-1,3.490500152E-1,4.431000233E0,8.869050026E0,9.920466085E0
7.779319230E-1,3.870000243E-1,4.431000233E0,8.830050468E0,9.887028035E0
7.798951550E-1,3.490500152E-1,4.431000233E0,8.907000542E0,9.954408954E0
7.818586100E-1,3.870000243E-1,4.431000233E0,8.869050026E0,9.921873837E0
7.838219990E-1,3.870000243E-1,4.431000233E0,8.907000542E0,9.955811907E0
7.857853390E-1,3.490500152E-1,4.431000233E0,8.944950104E0,9.988379815E0
7.877486940E-1,3.490500152E-1,4.431000233E0,8.907000542E0,9.954408954E0
7.897119320E-1,3.490500152E-1,4.431000233E0,8.869050026E0,9.920466085E0
7.916751840E-1,3.490500152E-1,4.431000233E0,8.907000542E0,9.954408954E0
7.936380960E-1,3.490500152E-1,4.431000233E0,8.944950104E0,9.988379815E0
7.956011070E-1,3.490500152E-1,4.468950272E0,8.907000542E0,9.971359541E0
7.975645540E-1,3.490500152E-1,4.468950272E0,8.907000542E0,9.971359541E0
7.995278740E-1,3.109500110E-1,4.468950272E0,8.944950104E0,1.000401613E1
8.014912560E-1,3.109500110E-1,4.468950272E0,8.944950104E0,1.000401613E1
8.034546300E-1,3.490500152E-1,4.468950272E0,8.907000542E0,9.971359541E0
8.054178370E-1,3.490500152E-1,4.507050037E0,8.907000542E0,9.988493110E0
8.073810930E-1,3.870000243E-1,4.431000233E0,8.869050026E0,9.921873837E0
8.093442750E-1,3.109500110E-1,4.468950272E0,8.907000542E0,9.970098550E0
8.113074780E-1,3.109500110E-1,4.468950272E0,8.907000542E0,9.970098550E0
8.132708930E-1,2.719500065E-1,4.468950272E0,8.907000542E0,9.968958420E0
8.152342450E-1,3.490500152E-1,4.507050037E0,8.869050026E0,9.954666459E0
8.171978610E-1,3.109500110E-1,4.468950272E0,8.907000542E0,9.970098550E0
8.191613990E-1,3.109500110E-1,4.468950272E0,8.869050026E0,9.936209277E0
8.211247130E-1,3.109500110E-1,4.431000233E0,8.907000542E0,9.953145815E0
8.230880930E-1,3.490500152E-1,4.431000233E0,8.907000542E0,9.954408954E0
8.250513380E-1,2.719500065E-1,4.507050037E0,8.944950104E0,1.001995954E1
8.270146270E-1,3.490500152E-1,4.507050037E0,8.907000542E0,9.988493110E0
8.289776680E-1,3.490500152E-1,4.507050037E0,8.907000542E0,9.988493110E0
8.309407810E-1,3.490500152E-1,4.507050037E0,8.907000542E0,9.988493110E0
8.329041660E-1,3.490500152E-1,4.468950272E0,8.869050026E0,9.937474569E0
8.348674710E-1,3.109500110E-1,4.507050037E0,8.907000542E0,9.987234282E0
8.368309140E-1,3.490500152E-1,4.507050037E0,8.869050026E0,9.954666459E0
8.387943170E-1,3.109500110E-1,4.507050037E0,8.869050026E0,9.953403353E0
8.407578340E-1,3.490500152E-1,4.468950272E0,8.869050026E0,9.937474569E0
8.427213170E-1,3.870000243E-1,4.468950272E0,8.869050026E0,9.938879912E0
8.446848650E-1,3.490500152E-1,4.468950272E0,8.907000542E0,9.971359541E0
8.466483940E-1,3.109500110E-1,4.468950272E0,8.869050026E0,9.936209277E0
8.486119340E-1,3.490500152E-1,4.431000233E0,8.791950226E0,9.851598233E0
8.505754710E-1,3.490500152E-1,4.468950272E0,8.830050468E0,9.902683662E0
8.525386950E-1,3.490500152E-1,4.468950272E0,8.907000542E0,9.971359541E0
8.545020110E-1,3.870000243E-1,4.468950272E0,8.869050026E0,9.938879912E0
8.564654070E-1,3.109500110E-1,4.468950272E0,8.791950226E0,9.867451303E0
8.584287790E-1,3.870000243E-1,4.468950272E0,8.869050026E0,9.938879912E0
8.603919860E-1,3.490500152E-1,4.468950272E0,8.754000664E0,9.834931625E0
8.623552420E-1,3.490500152E-1,4.468950272E0,8.830050468E0,9.902683662E0
8.643187830E-1,3.490500152E-1,4.468950272E0,8.830050468E0,9.902683662E0
8.662822400E-1,4.260000288E-1,4.468950272E0,8.791950226E0,9.871746620E0
8.682456130E-1,3.490500152E-1,4.468950272E0,8.830050468E0,9.902683662E0
8.702090110E-1,3.109500110E-1,4.431000233E0,8.830050468E0,9.884343390E0
8.721721740E-1,3.490500152E-1,4.431000233E0,8.830050468E0,9.885615320E0
8.741354340E-1,3.490500152E-1,4.431000233E0,8.791950226E0,9.851598233E0
8.760987030E-1,3.870000243E-1,4.468950272E0,8.830050468E0,9.904093943E0
8.780619700E-1,3.490500152E-1,4.468950272E0,8.791950226E0,9.868725410E0
8.800256900E-1,3.109500110E-1,4.468950272E0,8.869050026E0,9.936209277E0
8.819892780E-1,3.109500110E-1,4.507050037E0,8.830050468E0,9.918668319E0
8.839527030E-1,2.340000123E-1,4.468950272E0,8.830050468E0,9.899296127E0
8.859161550E-1,3.109500110E-1,4.507050037E0,8.869050026E0,9.953403353E0
8.878796620E-1,2.719500065E-1,4.545000076E0,8.907000542E0,1.000328152E1
8.898431530E-1,2.719500065E-1,4.468950272E0,8.791950226E0,9.866299312E0
8.918063400E-1,3.109500110E-1,4.507050037E0,8.907000542E0,9.987234282E0
8.937696170E-1,2.719500065E-1,4.507050037E0,8.830050468E0,9.917522277E0
8.957331070E-1,3.490500152E-1,4.468950272E0,8.830050468E0,9.902683662E0
8.976965040E-1,3.490500152E-1,4.507050037E0,8.830050468E0,9.919935848E0
8.996598870E-1,2.719500065E-1,4.507050037E0,8.791950226E0,9.883615008E0
9.016232750E-1,2.719500065E-1,4.507050037E0,8.830050468E0,9.917522277E0
9.035867930E-1,2.719500065E-1,4.507050037E0,8.869050026E0,9.952261311E0
9.055502730E-1,3.109500110E-1,4.507050037E0,8.830050468E0,9.918668319E0
9.075136370E-1,2.340000123E-1,4.545000076E0,8.907000542E0,1.000232175E1
9.094770390E-1,3.109500110E-1,4.507050037E0,8.869050026E0,9.953403353E0
9.114404650E-1,2.719500065E-1,4.507050037E0,8.869050026E0,9.952261311E0
9.134038840E-1,3.490500152E-1,4.468950272E0,8.830050468E0,9.902683662E0
9.153672640E-1,3.109500110E-1,4.431000233E0,8.830050468E0,9.884343390E0
9.173306550E-1,3.490500152E-1,4.507050037E0,8.869050026E0,9.954666459E0
9.192940530E-1,3.109500110E-1,4.468950272E0,8.869050026E0,9.936209277E0
9.212574390E-1,3.109500110E-1,4.468950272E0,8.791950226E0,9.867451303E0
9.232204630E-1,3.109500110E-1,4.431000233E0,8.869050026E0,9.919198624E0
9.251835930E-1,3.490500152E-1,4.431000233E0,8.869050026E0,9.920466085E0
9.271470200E-1,3.490500152E-1,4.431000233E0,8.907000542E0,9.954408954E0
9.291103600E-1,3.490500152E-1,4.392000198E0,8.869050026E0,9.903108099E0
9.310738930E-1,3.490500152E-1,4.431000233E0,8.907000542E0,9.954408954E0
9.330373650E-1,3.870000243E-1,4.431000233E0,8.869050026E0,9.921873837E0
9.350007360E-1,3.490500152E-1,4.431000233E0,8.869050026E0,9.920466085E0
9.369641360E-1,3.490500152E-1,4.431000233E0,8.907000542E0,9.954408954E0
9.389275180E-1,3.870000243E-1,4.431000233E0,8.944950104E0,9.989777998E0
9.408909060E-1,3.870000243E-1,4.468950272E0,8.907000542E0,9.972760109E0
9.428541390E-1,3.490500152E-1,4.468950272E0,8.944950104E0,1.000527285E1
9.448174290E-1,3.490500152E-1,4.431000233E0,8.869050026E0,9.920466085E0
9.467809640E-1,3.870000243E-1,4.431000233E0,8.944950104E0,9.989777998E0
9.487444270E-1,3.490500152E-1,4.431000233E0,8.944950104E0,9.988379815E0
9.507076190E-1,3.490500152E-1,4.468950272E0,8.944950104E0,1.000527285E1
9.526708910E-1,3.109500110E-1,4.431000233E0,8.944950104E0,9.987120973E0
9.546343540E-1,3.490500152E-1,4.468950272E0,8.983950615E0,1.004015543E1
9.565977500E-1,3.490500152E-1,4.468950272E0,8.944950104E0,1.000527285E1
9.585609530E-1,3.870000243E-1,4.545000076E0,8.907000542E0,1.000707017E1
9.605242130E-1,3.870000243E-1,4.468950272E0,8.907000542E0,9.972760109E0
9.624874390E-1,3.109500110E-1,4.468950272E0,8.983950615E0,1.003890308E1
9.644506750E-1,3.490500152E-1,4.468950272E0,8.944950104E0,1.000527285E1
9.664137080E-1,3.109500110E-1,4.468950272E0,8.944950104E0,1.000401613E1
9.683767800E-1,3.109500110E-1,4.507050037E0,8.944950104E0,1.002109387E1
9.703394970E-1,2.719500065E-1,4.507050037E0,8.983950615E0,1.005479117E1
9.723023180E-1,3.109500110E-1,4.468950272E0,9.022050858E0,1.007301385E1
9.742654830E-1,3.490500152E-1,4.545000076E0,8.983950615E0,1.007423596E1
9.762285470E-1,3.109500110E-1,4.507050037E0,9.022050858E0,1.008997481E1
9.781914330E-1,3.109500110E-1,4.507050037E0,9.022050858E0,1.008997481E1
9.801543810E-1,3.870000243E-1,4.468950272E0,8.983950615E0,1.004154640E1
9.821174790E-1,3.109500110E-1,4.468950272E0,9.022050858E0,1.007301385E1
9.840805330E-1,3.490500152E-1,4.431000233E0,9.022050858E0,1.005748481E1
9.860437940E-1,3.490500152E-1,4.507050037E0,9.022050858E0,1.009122082E1
9.880069950E-1,2.719500065E-1,4.468950272E0,9.060000420E0,1.010589338E1
9.899702310E-1,3.109500110E-1,4.468950272E0,8.983950615E0,1.003890308E1
9.919334560E-1,3.109500110E-1,4.468950272E0,9.022050858E0,1.007301385E1
9.938966880E-1,3.490500152E-1,4.468950272E0,9.060000420E0,1.010826197E1
9.958599180E-1,3.870000243E-1,4.468950272E0,9.022050858E0,1.007564823E1
9.978232840E-1,3.870000243E-1,4.507050037E0,9.022050858E0,1.009260475E1
9.997866100E-1,3.490500152E-1,4.431000233E0,9.022050858E0,1.005748481E1
1.001749840E0,3.490500152E-1,4.431000233E0,9.022050858E0,1.005748481E1
1.003713088E0,3.490500152E-1,4.468950272E0,9.022050858E0,1.007426196E1
1.005676315E0,3.490500152E-1,4.431000233E0,8.983950615E0,1.002332119E1
1.007639549E0,3.490500152E-1,4.431000233E0,9.022050858E0,1.005748481E1
1.009602779E0,3.490500152E-1,4.468950272E0,9.022050858E0,1.007426196E1
1.011566011E0,3.870000243E-1,4.431000233E0,8.983950615E0,1.002471450E1
1.013529426E0,3.490500152E-1,4.468950272E0,8.983950615E0,1.004015543E1
1.015492783E0,3.490500152E-1,4.431000233E0,8.983950615E0,1.002332119E1
1.017456172E0,3.109500110E-1,4.468950272E0,8.983950615E0,1.003890308E1
1.019419552E0,3.109500110E-1,4.468950272E0,8.983950615E0,1.003890308E1
1.021382938E0,3.870000243E-1,4.431000233E0,8.983950615E0,1.002471450E1
1.023346322E0,3.490500152E-1,4.431000233E0,8.944950104E0,9.988379815E0
1.025309712E0,3.870000243E-1,4.431000233E0,8.983950615E0,1.002471450E1
1.027273096E0,3.109500110E-1,4.431000233E0,8.983950615E0,1.002206673E1
1.029236346E0,3.870000243E-1,4.431000233E0,8.944950104E0,9.989777998E0
1.031199636E0,3.490500152E-1,4.431000233E0,8.983950615E0,1.002332119E1
1.033163171E0,3.870000243E-1,4.431000233E0,8.944950104E0,9.989777998E0
1.035126634E0,3.490500152E-1,4.431000233E0,8.907000542E0,9.954408954E0
1.037090186E0,3.490500152E-1,4.431000233E0,8.907000542E0,9.954408954E0
1.039053711E0,3.490500152E-1,4.431000233E0,8.907000542E0,9.954408954E0
1.041017252E0,3.490500152E-1,4.431000233E0,8.907000542E0,9.954408954E0
1.042980788E0,3.870000243E-1,4.431000233E0,8.907000542E0,9.955811907E0
1.044944193E0,3.490500152E-1,4.431000233E0,8.907000542E0,9.954408954E0
1.046907636E0,3.490500152E-1,4.431000233E0,8.907000542E0,9.954408954E0
1.048870951E0,3.870000243E-1,4.431000233E0,8.869050026E0,9.921873837E0
1.050834314E0,3.490500152E-1,4.431000233E0,8.869050026E0,9.920466085E0
1.052797567E0,3.490500152E-1,4.431000233E0,8.869050026E0,9.920466085E0
1.054760852E0,3.870000243E-1,4.431000233E0,8.830050468E0,9.887028035E0
1.056724252E0,3.490500152E-1,4.431000233E0,8.869050026E0,9.920466085E0
1.058687619E0,3.870000243E-1,4.468950272E0,8.907000542E0,9.972760109E0
1.060651216E0,3.490500152E-1,4.431000233E0,8.869050026E0,9.920466085E0
1.062614725E0,3.870000243E-1,4.468950272E0,8.907000542E0,9.972760109E0
1.064578225E0,3.490500152E-1,4.431000233E0,8.830050468E0,9.885615320E0
1.066541727E0,3.870000243E-1,4.392000198E0,8.830050468E0,9.869611240E0
1.068505136E0,4.260000288E-1,4.392000198E0,8.869050026E0,9.906118823E0
1.070468573E0,3.870000243E-1,4.354050159E0,8.830050468E0,9.852781997E0
1.072431755E0,4.260000288E-1,4.431000233E0,8.830050468E0,9.888631370E0
1.074395021E0,4.260000288E-1,4.392000198E0,8.830050468E0,9.871217404E0
1.076358246E0,4.260000288E-1,4.392000198E0,8.830050468E0,9.871217404E0
1.078321483E0,4.260000288E-1,4.431000233E0,8.830050468E0,9.888631370E0
1.080284712E0,3.870000243E-1,4.392000198E0,8.830050468E0,9.869611240E0
1.082247944E0,3.490500152E-1,4.431000233E0,8.791950226E0,9.851598233E0
1.084211358E0,3.490500152E-1,4.431000233E0,8.754000664E0,9.817745495E0
1.086174715E0,3.490500152E-1,4.431000233E0,8.791950226E0,9.851598233E0
1.088137925E0,3.870000243E-1,4.431000233E0,8.791950226E0,9.853015825E0
1.090101179E0,3.870000243E-1,4.468950272E0,8.830050468E0,9.904093943E0
1.092064540E0,4.260000288E-1,4.468950272E0,8.830050468E0,9.905694515E0
1.094027869E0,4.260000288E-1,4.468950272E0,8.830050468E0,9.905694515E0
1.095991268E0,3.870000243E-1,4.431000233E0,8.869050026E0,9.921873837E0
1.097954643E0,4.260000288E-1,4.468950272E0,8.830050468E0,9.905694515E0
1.099918075E0,3.870000243E-1,4.468950272E0,8.830050468E0,9.904093943E0
1.101881490E0,4.260000288E-1,4.468950272E0,8.830050468E0,9.905694515E0
1.103844510E0,3.490500152E-1,4.431000233E0,8.830050468E0,9.885615320E0
1.105807645E0,3.490500152E-1,4.468950272E0,8.830050468E0,9.902683662E0
1.107770901E0,3.490500152E-1,4.431000233E0,8.830050468E0,9.885615320E0
1.109734115E0,3.870000243E-1,4.468950272E0,8.830050468E0,9.904093943E0
1.111697349E0,3.490500152E-1,4.468950272E0,8.754000664E0,9.834931625E0
1.113660577E0,4.260000288E-1,4.507050037E0,8.791950226E0,9.889052778E0
1.115623943E0,3.870000243E-1,4.468950272E0,8.754000664E0,9.836351619E0
1.117587269E0,3.109500110E-1,4.468950272E0,8.754000664E0,9.833653139E0
1.119550509E0,3.490500152E-1,4.507050037E0,8.754000664E0,9.852302450E0
1.121513789E0,3.109500110E-1,4.468950272E0,8.791950226E0,9.867451303E0
1.123476966E0,3.490500152E-1,4.545000076E0,8.715000153E0,9.835145615E0
1.125440174E0,3.870000243E-1,4.468950272E0,8.754000664E0,9.836351619E0
1.127403588E0,3.870000243E-1,4.507050037E0,8.754000664E0,9.853719941E0
1.129366941E0,3.490500152E-1,4.507050037E0,8.791950226E0,9.886036856E0
1.131330202E0,3.490500152E-1,4.507050037E0,8.715000153E0,9.817665894E0
1.133293487E0,3.490500152E-1,4.507050037E0,8.754000664E0,9.852302450E0
1.135256708E0,3.109500110E-1,4.507050037E0,8.715000153E0,9.816385160E0
1.137219948E0,3.109500110E-1,4.507050037E0,8.754000664E0,9.851026219E0
1.139183356E0,3.490500152E-1,4.507050037E0,8.791950226E0,9.886036856E0
1.141146715E0,3.109500110E-1,4.545000076E0,8.715000153E0,9.833867157E0
1.143110062E0,3.109500110E-1,4.468950272E0,8.754000664E0,9.833653139E0
1.145073442E0,3.109500110E-1,4.507050037E0,8.754000664E0,9.851026219E0
1.147036783E0,3.109500110E-1,4.507050037E0,8.791950226E0,9.884764981E0
1.149000136E0,3.109500110E-1,4.507050037E0,8.791950226E0,9.884764981E0
1.150963346E0,3.109500110E-1,4.507050037E0,8.754000664E0,9.851026219E0
1.152926598E0,3.109500110E-1,4.507050037E0,8.830050468E0,9.918668319E0
1.154889975E0,3.490500152E-1,4.507050037E0,8.791950226E0,9.886036856E0
1.156853336E0,3.109500110E-1,4.507050037E0,8.791950226E0,9.884764981E0
1.158816905E0,3.490500152E-1,4.545000076E0,8.869050026E0,9.971906035E0
1.160780413E0,3.109500110E-1,4.507050037E0,8.830050468E0,9.918668319E0
1.162744002E0,3.109500110E-1,4.507050037E0,8.830050468E0,9.918668319E0
1.164707567E0,2.719500065E-1,4.468950272E0,8.869050026E0,9.935065259E0
1.166671062E0,3.109500110E-1,4.507050037E0,8.869050026E0,9.953403353E0
1.168634574E0,3.109500110E-1,4.507050037E0,8.869050026E0,9.953403353E0
1.170598341E0,2.719500065E-1,4.507050037E0,8.907000542E0,9.986096109E0
1.172562033E0,3.109500110E-1,4.545000076E0,8.944950104E0,1.003821936E1
1.174525682E0,3.109500110E-1,4.507050037E0,8.907000542E0,9.987234282E0
1.176489343E0,3.490500152E-1,4.468950272E0,8.907000542E0,9.971359541E0
1.178452690E0,3.109500110E-1,4.468950272E0,8.983950615E0,1.003890308E1
1.180416122E0,3.109500110E-1,4.431000233E0,9.022050858E0,1.005623462E1
1.182379498E0,3.109500110E-1,4.468950272E0,8.983950615E0,1.003890308E1
1.184342891E0,3.490500152E-1,4.468950272E0,8.944950104E0,1.000527285E1
1.186306318E0,3.490500152E-1,4.431000233E0,8.983950615E0,1.002332119E1
1.188269735E0,3.109500110E-1,4.468950272E0,9.022050858E0,1.007301385E1
1.190232920E0,3.870000243E-1,4.392000198E0,9.060000420E0,1.007586435E1
1.192196184E0,3.490500152E-1,4.431000233E0,8.983950615E0,1.002332119E1
1.194159588E0,3.109500110E-1,4.431000233E0,9.060000420E0,1.009029537E1
1.196122951E0,3.109500110E-1,4.431000233E0,9.022050858E0,1.005623462E1
1.198086700E0,3.490500152E-1,4.431000233E0,8.983950615E0,1.002332119E1
1.200050336E0,3.109500110E-1,4.392000198E0,8.983950615E0,1.000488502E1
1.202013669E0,3.109500110E-1,4.392000198E0,9.022050858E0,1.003911138E1
1.203977098E0,3.490500152E-1,4.392000198E0,9.022050858E0,1.004036371E1
1.205940475E0,3.490500152E-1,4.431000233E0,8.983950615E0,1.002332119E1
1.207903867E0,3.490500152E-1,4.392000198E0,9.022050858E0,1.004036371E1
1.209867745E0,3.109500110E-1,4.431000233E0,9.022050858E0,1.005623462E1
1.211831481E0,3.490500152E-1,4.392000198E0,9.022050858E0,1.004036371E1
1.213795207E0,3.109500110E-1,4.468950272E0,9.022050858E0,1.007301385E1
1.215758939E0,3.490500152E-1,4.392000198E0,8.983950615E0,1.000614163E1
1.217722444E0,3.490500152E-1,4.392000198E0,8.944950104E0,9.971140056E0
1.219686016E0,3.490500152E-1,4.431000233E0,9.022050858E0,1.005748481E1
1.221649368E0,3.870000243E-1,4.431000233E0,9.022050858E0,1.005887338E1
1.223612785E0,3.490500152E-1,4.392000198E0,8.944950104E0,9.971140056E0
1.225576174E0,3.109500110E-1,4.392000198E0,9.022050858E0,1.003911138E1
1.227539565E0,3.490500152E-1,4.468950272E0,8.944950104E0,1.000527285E1
1.229502948E0,3.490500152E-1,4.468950272E0,8.983950615E0,1.004015543E1
1.231466334E0,3.870000243E-1,4.468950272E0,9.060000420E0,1.010964357E1
1.233429358E0,3.490500152E-1,4.468950272E0,9.022050858E0,1.007426196E1
1.235392488E0,3.490500152E-1,4.468950272E0,8.983950615E0,1.004015543E1
1.237355885E0,3.490500152E-1,4.431000233E0,9.022050858E0,1.005748481E1
1.239319193E0,3.490500152E-1,4.468950272E0,9.022050858E0,1.007426196E1
1.241282816E0,4.260000288E-1,4.468950272E0,8.983950615E0,1.004312507E1
1.243246347E0,3.109500110E-1,4.468950272E0,8.983950615E0,1.003890308E1
1.245209707E0,3.490500152E-1,4.468950272E0,9.022050858E0,1.007426196E1
1.247173118E0,2.719500065E-1,4.431000233E0,8.944950104E0,9.985982787E0
1.249136502E0,3.109500110E-1,4.431000233E0,8.944950104E0,9.987120973E0
1.251099891E0,2.719500065E-1,4.468950272E0,8.983950615E0,1.003777077E1
1.253063095E0,2.719500065E-1,4.431000233E0,8.907000542E0,9.952003744E0
1.255026353E0,3.490500152E-1,4.431000233E0,8.907000542E0,9.954408954E0
1.256989713E0,3.490500152E-1,4.468950272E0,8.907000542E0,9.971359541E0
1.258953043E0,3.490500152E-1,4.507050037E0,8.944950104E0,1.002234844E1
1.260916323E0,3.870000243E-1,4.468950272E0,8.907000542E0,9.972760109E0
1.262879604E0,3.490500152E-1,4.507050037E0,8.907000542E0,9.988493110E0
1.264842781E0,3.490500152E-1,4.468950272E0,8.907000542E0,9.971359541E0
1.266805988E0,3.490500152E-1,4.507050037E0,8.869050026E0,9.954666459E0
1.268769088E0,3.870000243E-1,4.507050037E0,8.869050026E0,9.956069376E0
1.270732219E0,3.490500152E-1,4.545000076E0,8.907000542E0,1.000567440E1
1.272695411E0,3.870000243E-1,4.507050037E0,8.907000542E0,9.989891276E0
1.274658592E0,3.109500110E-1,4.507050037E0,8.869050026E0,9.953403353E0
1.276621697E0,3.490500152E-1,4.507050037E0,8.869050026E0,9.954666459E0
1.278584825E0,3.870000243E-1,4.468950272E0,8.907000542E0,9.972760109E0
1.280548252E0,3.870000243E-1,4.545000076E0,8.907000542E0,1.000707017E1
1.282511592E0,3.870000243E-1,4.507050037E0,8.907000542E0,9.989891276E0
1.284474939E0,3.490500152E-1,4.545000076E0,8.907000542E0,1.000567440E1
1.286438284E0,3.490500152E-1,4.507050037E0,8.907000542E0,9.988493110E0
1.288401361E0,3.490500152E-1,4.507050037E0,8.907000542E0,9.988493110E0
1.290364517E0,3.490500152E-1,4.507050037E0,8.944950104E0,1.002234844E1
1.292327715E0,3.870000243E-1,4.507050037E0,8.983950615E0,1.005856042E1
1.294290900E0,3.109500110E-1,4.507050037E0,8.944950104E0,1.002109387E1
1.296253769E0,3.490500152E-1,4.431000233E0,8.907000542E0,9.954408954E0
1.298216738E0,3.109500110E-1,4.545000076E0,8.944950104E0,1.003821936E1
1.300179832E0,3.490500152E-1,4.507050037E0,8.944950104E0,1.002234844E1
1.302142890E0,4.260000288E-1,4.468950272E0,8.944950104E0,1.000825284E1
1.304105970E0,3.870000243E-1,4.507050037E0,8.907000542E0,9.989891276E0
1.306069043E0,3.490500152E-1,4.431000233E0,8.944950104E0,9.988379815E0
1.308032002E0,3.490500152E-1,4.431000233E0,8.944950104E0,9.988379815E0
1.309994984E0,3.870000243E-1,4.431000233E0,8.869050026E0,9.921873837E0
1.311958076E0,3.490500152E-1,4.431000233E0,8.944950104E0,9.988379815E0
1.313921135E0,3.490500152E-1,4.431000233E0,8.944950104E0,9.988379815E0
1.315884711E0,3.490500152E-1,4.431000233E0,8.944950104E0,9.988379815E0
1.317848135E0,3.870000243E-1,4.431000233E0,8.907000542E0,9.955811907E0
1.319811360E0,3.870000243E-1,4.431000233E0,8.944950104E0,9.989777998E0
1.321774657E0,3.870000243E-1,4.431000233E0,8.907000542E0,9.955811907E0
1.323737831E0,3.870000243E-1,4.468950272E0,8.907000542E0,9.972760109E0
1.325701041E0,3.870000243E-1,4.468950272E0,8.944950104E0,1.000666867E1
1.327664275E0,3.870000243E-1,4.468950272E0,8.944950104E0,1.000666867E1
1.329627501E0,3.490500152E-1,4.431000233E0,8.944950104E0,9.988379815E0
1.331590787E0,3.490500152E-1,4.468950272E0,8.983950615E0,1.004015543E1
1.333554049E0,3.109500110E-1,4.431000233E0,8.944950104E0,9.987120973E0
1.335517455E0,3.870000243E-1,4.468950272E0,8.983950615E0,1.004154640E1
1.337480818E0,3.109500110E-1,4.431000233E0,8.944950104E0,9.987120973E0
1.339444027E0,3.490500152E-1,4.468950272E0,8.944950104E0,1.000527285E1
1.341407281E0,3.490500152E-1,4.468950272E0,8.983950615E0,1.004015543E1
1.343370478E0,3.870000243E-1,4.431000233E0,8.944950104E0,9.989777998E0
1.345333681E0,3.490500152E-1,4.392000198E0,8.869050026E0,9.903108099E0
1.347297096E0,3.490500152E-1,4.431000233E0,8.944950104E0,9.988379815E0
1.349260448E0,3.870000243E-1,4.431000233E0,8.983950615E0,1.002471450E1
1.351223659E0,3.490500152E-1,4.431000233E0,8.944950104E0,9.988379815E0
1.353186912E0,3.490500152E-1,4.431000233E0,8.869050026E0,9.920466085E0
1.355149944E0,3.490500152E-1,4.431000233E0,8.944950104E0,9.988379815E0
1.357113051E0,3.109500110E-1,4.431000233E0,8.907000542E0,9.953145815E0
1.359075987E0,3.490500152E-1,4.431000233E0,8.907000542E0,9.954408954E0
1.361038974E0,3.109500110E-1,4.392000198E0,8.869050026E0,9.901838416E0
1.363002245E0,3.490500152E-1,4.392000198E0,8.869050026E0,9.903108099E0
1.364965433E0,3.109500110E-1,4.392000198E0,8.869050026E0,9.901838416E0
1.366928851E0,3.490500152E-1,4.431000233E0,8.869050026E0,9.920466085E0
1.368892202E0,3.490500152E-1,4.431000233E0,8.869050026E0,9.920466085E0
1.370855368E0,3.870000243E-1,4.431000233E0,8.830050468E0,9.887028035E0
1.372818589E0,3.490500152E-1,4.431000233E0,8.791950226E0,9.851598233E0
1.374781686E0,3.109500110E-1,4.431000233E0,8.869050026E0,9.919198624E0
1.376744820E0,3.490500152E-1,4.431000233E0,8.830050468E0,9.885615320E0
1.378708011E0,3.490500152E-1,4.431000233E0,8.830050468E0,9.885615320E0
1.380671192E0,3.490500152E-1,4.507050037E0,8.869050026E0,9.954666459E0
1.382634072E0,3.109500110E-1,4.431000233E0,8.830050468E0,9.884343390E0
1.384597041E0,3.490500152E-1,4.468950272E0,8.830050468E0,9.902683662E0
1.386560135E0,3.870000243E-1,4.431000233E0,8.869050026E0,9.921873837E0
1.388523192E0,2.719500065E-1,4.468950272E0,8.907000542E0,9.968958420E0
1.390486278E0,3.870000243E-1,4.431000233E0,8.830050468E0,9.887028035E0
1.392449351E0,3.490500152E-1,4.431000233E0,8.869050026E0,9.920466085E0
1.394412474E0,3.870000243E-1,4.468950272E0,8.944950104E0,1.000666867E1
1.396375582E0,3.870000243E-1,4.431000233E0,8.830050468E0,9.887028035E0
1.398338834E0,3.490500152E-1,4.431000233E0,8.869050026E0,9.920466085E0
1.400302044E0,3.870000243E-1,4.431000233E0,8.869050026E0,9.921873837E0
1.402265059E0,3.490500152E-1,4.468950272E0,8.830050468E0,9.902683662E0
1.404228128E0,3.490500152E-1,4.507050037E0,8.830050468E0,9.919935848E0
1.406191205E0,3.870000243E-1,4.507050037E0,8.869050026E0,9.956069376E0
1.408154279E0,3.109500110E-1,4.431000233E0,8.830050468E0,9.884343390E0
1.410117357E0,3.109500110E-1,4.468950272E0,8.869050026E0,9.936209277E0
1.412080433E0,3.870000243E-1,4.468950272E0,8.869050026E0,9.938879912E0
1.414043555E0,3.109500110E-1,4.431000233E0,8.830050468E0,9.884343390E0
1.416006664E0,4.260000288E-1,4.468950272E0,8.830050468E0,9.905694515E0
1.417970051E0,3.109500110E-1,4.507050037E0,8.830050468E0,9.918668319E0
1.419933356E0,3.490500152E-1,4.507050037E0,8.907000542E0,9.988493110E0
1.421896395E0,3.870000243E-1,4.468950272E0,8.830050468E0,9.904093943E0
1.423859512E0,3.490500152E-1,4.468950272E0,8.791950226E0,9.868725410E0
1.425822742E0,3.490500152E-1,4.468950272E0,8.830050468E0,9.902683662E0
1.427785953E0,3.870000243E-1,4.468950272E0,8.830050468E0,9.904093943E0
1.429748828E0,3.490500152E-1,4.468950272E0,8.869050026E0,9.937474569E0
1.431711801E0,3.109500110E-1,4.507050037E0,8.830050468E0,9.918668319E0
1.433674895E0,3.870000243E-1,4.507050037E0,8.830050468E0,9.921343676E0
1.435637953E0,3.109500110E-1,4.507050037E0,8.907000542E0,9.987234282E0
1.437600738E0,3.870000243E-1,4.507050037E0,8.830050468E0,9.921343676E0
1.439563589E0,3.490500152E-1,4.468950272E0,8.830050468E0,9.902683662E0
1.441526523E0,3.490500152E-1,4.431000233E0,8.869050026E0,9.920466085E0
1.443489433E0,3.490500152E-1,4.468950272E0,8.830050468E0,9.902683662E0
1.445452359E0,3.870000243E-1,4.468950272E0,8.944950104E0,1.000666867E1
1.447415280E0,3.490500152E-1,4.468950272E0,8.944950104E0,1.000527285E1
1.449377974E0,3.490500152E-1,4.468950272E0,8.907000542E0,9.971359541E0
1.451340738E0,3.109500110E-1,4.431000233E0,8.907000542E0,9.953145815E0
1.453303552E0,3.870000243E-1,4.431000233E0,8.907000542E0,9.955811907E0
1.455266351E0,3.870000243E-1,4.431000233E0,8.907000542E0,9.955811907E0
1.457229117E0,3.870000243E-1,4.468950272E0,8.907000542E0,9.972760109E0
1.459191892E0,3.490500152E-1,4.468950272E0,8.907000542E0,9.971359541E0
1.461154780E0,3.870000243E-1,4.431000233E0,8.944950104E0,9.989777998E0
1.463117645E0,3.490500152E-1,4.431000233E0,8.983950615E0,1.002332119E1
1.465080623E0,3.870000243E-1,4.431000233E0,8.944950104E0,9.989777998E0
1.467043568E0,3.870000243E-1,4.431000233E0,8.944950104E0,9.989777998E0
1.469006444E0,3.490500152E-1,4.431000233E0,8.983950615E0,1.002332119E1
1.470969340E0,4.260000288E-1,4.431000233E0,8.944950104E0,9.991364844E0
1.472932486E0,3.870000243E-1,4.431000233E0,8.983950615E0,1.002471450E1
1.474895563E0,3.490500152E-1,4.431000233E0,8.944950104E0,9.988379815E0
1.476858956E0,3.870000243E-1,4.431000233E0,8.944950104E0,9.989777998E0
1.478822256E0,3.870000243E-1,4.431000233E0,8.907000542E0,9.955811907E0
1.480785161E0,3.490500152E-1,4.468950272E0,8.907000542E0,9.971359541E0
1.482748181E0,3.490500152E-1,4.468950272E0,8.907000542E0,9.971359541E0
1.484711271E0,3.870000243E-1,4.468950272E0,8.869050026E0,9.938879912E0
1.486674337E0,3.870000243E-1,4.468950272E0,8.907000542E0,9.972760109E0
1.488637731E0,3.490500152E-1,4.431000233E0,8.869050026E0,9.920466085E0
1.490601029E0,3.490500152E-1,4.468950272E0,8.869050026E0,9.937474569E0
1.492564294E0,3.109500110E-1,4.507050037E0,8.907000542E0,9.987234282E0
1.494527569E0,3.490500152E-1,4.507050037E0,8.907000542E0,9.988493110E0
1.496491117E0,3.109500110E-1,4.545000076E0,8.907000542E0,1.000441774E1
1.498454577E0,3.870000243E-1,4.507050037E0,8.944950104E0,1.002374189E1
1.500417770E0,3.870000243E-1,4.468950272E0,8.869050026E0,9.938879912E0
1.502381041E0,3.490500152E-1,4.507050037E0,8.869050026E0,9.954666459E0
1.504344130E0,3.109500110E-1,4.507050037E0,8.944950104E0,1.002109387E1
1.506307272E0,3.870000243E-1,4.545000076E0,8.907000542E0,1.000707017E1
1.508270536E0,3.490500152E-1,4.507050037E0,8.907000542E0,9.988493110E0
1.510233750E0,3.490500152E-1,4.468950272E0,8.907000542E0,9.971359541E0
1.512197119E0,3.490500152E-1,4.468950272E0,8.944950104E0,1.000527285E1
1.514160443E0,3.870000243E-1,4.468950272E0,8.907000542E0,9.972760109E0
1.516123704E0,3.490500152E-1,4.468950272E0,8.944950104E0,1.000527285E1
1.518086983E0,3.109500110E-1,4.468950272E0,8.944950104E0,1.000401613E1
1.520050325E0,3.870000243E-1,4.507050037E0,8.907000542E0,9.989891276E0
1.522013659E0,3.870000243E-1,4.431000233E0,8.907000542E0,9.955811907E0
1.523976873E0,3.870000243E-1,4.431000233E0,8.869050026E0,9.921873837E0
1.525940123E0,3.870000243E-1,4.468950272E0,8.907000542E0,9.972760109E0
1.527903215E0,3.870000243E-1,4.431000233E0,8.907000542E0,9.955811907E0
1.529866354E0,3.870000243E-1,4.431000233E0,8.907000542E0,9.955811907E0
1.531829734E0,3.870000243E-1,4.431000233E0,8.907000542E0,9.955811907E0
1.533793044E0,3.870000243E-1,4.468950272E0,8.907000542E0,9.972760109E0
1.535755947E0,3.870000243E-1,4.468950272E0,8.907000542E0,9.972760109E0
1.537718969E0,3.870000243E-1,4.431000233E0,8.869050026E0,9.921873837E0
1.539682235E0,3.870000243E-1,4.431000233E0,8.907000542E0,9.955811907E0
1.541645429E0,3.490500152E-1,4.431000233E0,8.944950104E0,9.988379815E0
1.543608500E0,4.260000288E-1,4.507050037E0,8.944950104E0,1.002532336E1
1.545571598E0,3.870000243E-1,4.468950272E0,8.944950104E0,1.000666867E1
1.547534986E0,4.260000288E-1,4.507050037E0,8.944950104E0,1.002532336E1
1.549498289E0,3.870000243E-1,4.468950272E0,8.907000542E0,9.972760109E0
1.551461508E0,4.260000288E-1,4.468950272E0,8.944950104E0,1.000825284E1
1.553424752E0,3.870000243E-1,4.507050037E0,8.907000542E0,9.989891276E0
1.555387952E0,3.870000243E-1,4.507050037E0,8.944950104E0,1.002374189E1
1.557351185E0,4.260000288E-1,4.468950272E0,8.907000542E0,9.974349663E0
1.559314100E0,3.870000243E-1,4.468950272E0,8.944950104E0,1.000666867E1
1.561277108E0,3.490500152E-1,4.468950272E0,8.944950104E0,1.000527285E1
1.563240331E0,3.490500152E-1,4.431000233E0,8.907000542E0,9.954408954E0
1.565203491E0,4.260000288E-1,4.468950272E0,8.907000542E0,9.974349663E0
1.567166249E0,3.870000243E-1,4.468950272E0,8.907000542E0,9.972760109E0
1.569129118E0,3.870000243E-1,4.468950272E0,8.944950104E0,1.000666867E1
1.571092184E0,4.260000288E-1,4.468950272E0,8.944950104E0,1.000825284E1
1.573055193E0,3.870000243E-1,4.431000233E0,8.907000542E0,9.955811907E0
1.575018147E0,3.870000243E-1,4.431000233E0,8.907000542E0,9.955811907E0
1.576981118E0,3.870000243E-1,4.468950272E0,8.944950104E0,1.000666867E1
1.578944202E0,4.260000288E-1,4.468950272E0,8.907000542E0,9.974349663E0
1.580907260E0,4.260000288E-1,4.507050037E0,8.944950104E0,1.002532336E1
1.582870161E0,3.870000243E-1,4.468950272E0,8.869050026E0,9.938879912E0
1.584833108E0,3.490500152E-1,4.431000233E0,8.907000542E0,9.954408954E0
1.586796161E0,3.870000243E-1,4.468950272E0,8.944950104E0,1.000666867E1
1.588759183E0,3.870000243E-1,4.468950272E0,8.869050026E0,9.938879912E0
1.590722256E0,4.260000288E-1,4.431000233E0,8.907000542E0,9.957404167E0
1.592685323E0,3.870000243E-1,4.468950272E0,8.944950104E0,1.000666867E1
1.594648402E0,3.870000243E-1,4.468950272E0,8.907000542E0,9.972760109E0
1.596611477E0,3.490500152E-1,4.468950272E0,8.907000542E0,9.971359541E0
1.598574420E0,3.490500152E-1,4.468950272E0,8.869050026E0,9.937474569E0
1.600537402E0,3.870000243E-1,4.431000233E0,8.869050026E0,9.921873837E0
1.602500679E0,3.490500152E-1,4.507050037E0,8.869050026E0,9.954666459E0
1.604463866E0,3.870000243E-1,4.507050037E0,8.869050026E0,9.956069376E0
1.606426880E0,3.870000243E-1,4.468950272E0,8.907000542E0,9.972760109E0
1.608389945E0,3.490500152E-1,4.468950272E0,8.869050026E0,9.937474569E0
1.610353203E0,3.870000243E-1,4.468950272E0,8.869050026E0,9.938879912E0
1.612316405E0,3.109500110E-1,4.507050037E0,8.869050026E0,9.953403353E0
1.614279481E0,3.490500152E-1,4.468950272E0,8.907000542E0,9.971359541E0
1.616242580E0,3.870000243E-1,4.468950272E0,8.869050026E0,9.938879912E0
1.618205518E0,3.870000243E-1,4.468950272E0,8.830050468E0,9.904093943E0
1.620168503E0,3.870000243E-1,4.468950272E0,8.869050026E0,9.938879912E0
1.622131595E0,3.109500110E-1,4.545000076E0,8.869050026E0,9.970645113E0
1.624094655E0,3.490500152E-1,4.507050037E0,8.869050026E0,9.954666459E0
1.626057686E0,3.490500152E-1,4.468950272E0,8.830050468E0,9.902683662E0
1.628020760E0,3.490500152E-1,4.507050037E0,8.869050026E0,9.954666459E0
1.629983793E0,3.109500110E-1,4.468950272E0,8.869050026E0,9.936209277E0
1.631946839E0,3.490500152E-1,4.468950272E0,8.830050468E0,9.902683662E0
1.633910101E0,3.109500110E-1,4.545000076E0,8.830050468E0,9.935970354E0
1.635873299E0,2.719500065E-1,4.468950272E0,8.830050468E0,9.900265886E0
1.637836584E0,2.719500065E-1,4.507050037E0,8.830050468E0,9.917522277E0
1.639799841E0,3.109500110E-1,4.507050037E0,8.869050026E0,9.953403353E0
1.641763024E0,3.490500152E-1,4.545000076E0,8.830050468E0,9.937235676E0
1.643726228E0,3.490500152E-1,4.545000076E0,8.869050026E0,9.971906035E0
1.645689463E0,3.109500110E-1,4.507050037E0,8.830050468E0,9.918668319E0
1.647652688E0,2.719500065E-1,4.507050037E0,8.830050468E0,9.917522277E0
1.649615795E0,3.490500152E-1,4.507050037E0,8.791950226E0,9.886036856E0
1.651578930E0,3.870000243E-1,4.507050037E0,8.830050468E0,9.921343676E0
1.653542131E0,3.109500110E-1,4.468950272E0,8.869050026E0,9.936209277E0
1.655505313E0,3.490500152E-1,4.507050037E0,8.830050468E0,9.919935848E0
1.657468373E0,3.490500152E-1,4.507050037E0,8.830050468E0,9.919935848E0
1.659431469E0,3.490500152E-1,4.507050037E0,8.830050468E0,9.919935848E0
1.661394892E0,3.490500152E-1,4.545000076E0,8.869050026E0,9.971906035E0
1.663358226E0,3.490500152E-1,4.545000076E0,8.869050026E0,9.971906035E0
1.665321800E0,3.490500152E-1,4.545000076E0,8.869050026E0,9.971906035E0
1.667285303E0,3.490500152E-1,4.507050037E0,8.907000542E0,9.988493110E0
1.669248533E0,3.109500110E-1,4.507050037E0,8.907000542E0,9.987234282E0
1.671211843E0,3.490500152E-1,4.507050037E0,8.907000542E0,9.988493110E0
1.673175191E0,3.870000243E-1,4.545000076E0,8.907000542E0,1.000707017E1
1.675138530E0,3.109500110E-1,4.545000076E0,8.907000542E0,1.000441774E1
1.677101788E0,3.490500152E-1,4.468950272E0,8.907000542E0,9.971359541E0
1.679065070E0,3.490500152E-1,4.507050037E0,8.869050026E0,9.954666459E0
1.681028471E0,3.109500110E-1,4.507050037E0,8.869050026E0,9.953403353E0
1.682991837E0,3.109500110E-1,4.507050037E0,8.869050026E0,9.953403353E0
1.684955041E0,3.490500152E-1,4.468950272E0,8.869050026E0,9.937474569E0
1.686918296E0,3.490500152E-1,4.507050037E0,8.830050468E0,9.919935848E0
1.688881523E0,3.490500152E-1,4.507050037E0,8.869050026E0,9.954666459E0
1.690844758E0,3.109500110E-1,4.468950272E0,8.869050026E0,9.936209277E0
1.692808122E0,3.490500152E-1,4.468950272E0,8.907000542E0,9.971359541E0
1.694771448E0,3.490500152E-1,4.507050037E0,8.869050026E0,9.954666459E0
1.696734523E0,3.490500152E-1,4.468950272E0,8.869050026E0,9.937474569E0
1.698697676E0,3.490500152E-1,4.468950272E0,8.907000542E0,9.971359541E0
1.700660740E0,3.490500152E-1,4.507050037E0,8.869050026E0,9.954666459E0
1.702623830E0,3.490500152E-1,4.468950272E0,8.869050026E0,9.937474569E0
1.704586724E0,3.870000243E-1,4.507050037E0,8.830050468E0,9.921343676E0
1.706549676E0,3.490500152E-1,4.468950272E0,8.869050026E0,9.937474569E0
1.708512797E0,3.870000243E-1,4.431000233E0,8.869050026E0,9.921873837E0
1.710475852E0,3.490500152E-1,4.392000198E0,8.869050026E0,9.903108099E0
1.712439068E0,3.490500152E-1,4.431000233E0,8.830050468E0,9.885615320E0
1.714402236E0,3.490500152E-1,4.468950272E0,8.869050026E0,9.937474569E0
1.716365344E0,3.490500152E-1,4.468950272E0,8.907000542E0,9.971359541E0
1.718328469E0,3.109500110E-1,4.468950272E0,8.869050026E0,9.936209277E0
1.720291882E0,3.109500110E-1,4.468950272E0,8.869050026E0,9.936209277E0
1.722255221E0,3.490500152E-1,4.468950272E0,8.830050468E0,9.902683662E0
1.724218389E0,3.490500152E-1,4.468950272E0,8.907000542E0,9.971359541E0
1.726181608E0,2.719500065E-1,4.468950272E0,8.907000542E0,9.968958420E0
1.728144661E0,3.109500110E-1,4.507050037E0,8.869050026E0,9.953403353E0
1.730107762E0,3.109500110E-1,4.468950272E0,8.869050026E0,9.936209277E0
1.732070835E0,3.109500110E-1,4.507050037E0,8.907000542E0,9.987234282E0
1.734033916E0,3.490500152E-1,4.468950272E0,8.869050026E0,9.937474569E0
1.735996992E0,3.870000243E-1,4.468950272E0,8.869050026E0,9.938879912E0
1.737960069E0,3.490500152E-1,4.468950272E0,8.869050026E0,9.937474569E0
1.739922966E0,3.109500110E-1,4.468950272E0,8.830050468E0,9.901413925E0
1.741885916E0,3.490500152E-1,4.468950272E0,8.869050026E0,9.937474569E0
1.743849052E0,3.109500110E-1,4.545000076E0,8.869050026E0,9.970645113E0
1.745812106E0,3.109500110E-1,4.507050037E0,8.830050468E0,9.918668319E0
1.747775232E0,3.109500110E-1,4.507050037E0,8.791950226E0,9.884764981E0
1.749738337E0,3.109500110E-1,4.507050037E0,8.830050468E0,9.918668319E0
1.751701230E0,3.490500152E-1,4.507050037E0,8.791950226E0,9.886036856E0
1.753664185E0,3.109500110E-1,4.545000076E0,8.791950226E0,9.902126255E0
1.755627277E0,3.490500152E-1,4.545000076E0,8.754000664E0,9.869720828E0
1.757590332E0,3.109500110E-1,4.545000076E0,8.791950226E0,9.902126255E0
1.759553188E0,3.490500152E-1,4.507050037E0,8.791950226E0,9.886036856E0
1.761516103E0,3.490500152E-1,4.507050037E0,8.754000664E0,9.852302450E0
1.763478847E0,3.870000243E-1,4.507050037E0,8.715000153E0,9.819088385E0
1.765441642E0,3.870000243E-1,4.507050037E0,8.754000664E0,9.853719941E0
1.767404272E0,3.870000243E-1,4.507050037E0,8.715000153E0,9.819088385E0
1.769366950E0,3.109500110E-1,4.507050037E0,8.754000664E0,9.851026219E0
1.771330049E0,3.870000243E-1,4.468950272E0,8.791950226E0,9.870140542E0
1.773293025E0,4.260000288E-1,4.468950272E0,8.791950226E0,9.871746620E0
1.775256344E0,3.870000243E-1,4.468950272E0,8.754000664E0,9.836351619E0
1.777219563E0,3.870000243E-1,4.431000233E0,8.754000664E0,9.819167974E0
1.779182791E0,4.639500082E-1,4.431000233E0,8.869050026E0,9.925173098E0
1.781146020E0,4.260000288E-1,4.468950272E0,8.830050468E0,9.905694515E0
1.783108892E0,5.020500422E-1,4.431000233E0,8.791950226E0,9.858205013E0
1.785071868E0,5.020500422E-1,4.468950272E0,8.869050026E0,9.944024293E0
1.787034916E0,4.639500082E-1,4.468950272E0,8.869050026E0,9.942173530E0
1.788997943E0,4.639500082E-1,4.507050037E0,8.869050026E0,9.959357309E0
1.790960844E0,4.639500082E-1,4.468950272E0,8.830050468E0,9.907399125E0
1.792923786E0,4.639500082E-1,4.468950272E0,8.869050026E0,9.942173530E0
1.794887065E0,4.260000288E-1,4.431000233E0,8.869050026E0,9.923471542E0
1.796850245E0,3.870000243E-1,4.507050037E0,8.907000542E0,9.989891276E0
1.798813351E0,3.870000243E-1,4.431000233E0,8.830050468E0,9.887028035E0
1.800776478E0,4.260000288E-1,4.507050037E0,8.869050026E0,9.957661594E0
1.802739172E0,4.260000288E-1,4.468950272E0,8.830050468E0,9.905694515E0
1.804702003E0,3.870000243E-1,4.468950272E0,8.907000542E0,9.972760109E0
1.806664896E0,3.870000243E-1,4.507050037E0,8.907000542E0,9.989891276E0
1.808627770E0,3.870000243E-1,4.468950272E0,8.869050026E0,9.938879912E0
1.810590882E0,3.870000243E-1,4.468950272E0,8.907000542E0,9.972760109E0
1.812553924E0,4.260000288E-1,4.468950272E0,8.944950104E0,1.000825284E1
1.814517071E0,4.260000288E-1,4.507050037E0,8.830050468E0,9.922941466E0
1.816480174E0,3.870000243E-1,4.507050037E0,8.869050026E0,9.956069376E0
1.818443067E0,4.260000288E-1,4.507050037E0,8.944950104E0,1.002532336E1
1.820406022E0,4.260000288E-1,4.507050037E0,8.907000542E0,9.991478105E0
1.822369119E0,3.870000243E-1,4.468950272E0,8.907000542E0,9.972760109E0
1.824332174E0,3.490500152E-1,4.468950272E0,8.983950615E0,1.004015543E1
1.826295565E0,3.870000243E-1,4.507050037E0,8.907000542E0,9.989891276E0
1.828258861E0,3.870000243E-1,4.507050037E0,8.944950104E0,1.002374189E1
1.830221721E0,3.870000243E-1,4.468950272E0,8.983950615E0,1.004154640E1
1.832184709E0,3.870000243E-1,4.468950272E0,8.907000542E0,9.972760109E0
1.834147306E0,3.870000243E-1,4.468950272E0,8.983950615E0,1.004154640E1
1.836110017E0,3.490500152E-1,4.468950272E0,8.983950615E0,1.004015543E1
1.838073142E0,3.490500152E-1,4.507050037E0,8.944950104E0,1.002234844E1
1.840036155E0,3.490500152E-1,4.468950272E0,8.983950615E0,1.004015543E1
1.841999558E0,3.490500152E-1,4.468950272E0,8.983950615E0,1.004015543E1
1.843962847E0,3.490500152E-1,4.468950272E0,9.022050858E0,1.007426196E1
1.845925889E0,3.490500152E-1,4.507050037E0,9.022050858E0,1.009122082E1
1.847889003E0,3.490500152E-1,4.468950272E0,9.022050858E0,1.007426196E1
1.849851952E0,3.490500152E-1,4.468950272E0,9.022050858E0,1.007426196E1
1.851814940E0,3.870000243E-1,4.468950272E0,9.022050858E0,1.007564823E1
1.853778031E0,3.490500152E-1,4.468950272E0,9.060000420E0,1.010826197E1
1.855741092E0,3.490500152E-1,4.468950272E0,8.944950104E0,1.000527285E1
1.857704667E0,3.870000243E-1,4.468950272E0,8.983950615E0,1.004154640E1
1.859668092E0,3.870000243E-1,4.468950272E0,8.983950615E0,1.004154640E1
1.861631160E0,3.490500152E-1,4.507050037E0,9.022050858E0,1.009122082E1
1.863594329E0,4.260000288E-1,4.468950272E0,9.022050858E0,1.007722155E1
1.865557390E0,3.870000243E-1,4.431000233E0,8.983950615E0,1.002471450E1
1.867520483E0,3.490500152E-1,4.468950272E0,8.944950104E0,1.000527285E1
1.869483737E0,3.490500152E-1,4.468950272E0,8.983950615E0,1.004015543E1
1.871446943E0,3.870000243E-1,4.468950272E0,8.983950615E0,1.004154640E1
1.873409949E0,3.109500110E-1,4.507050037E0,8.944950104E0,1.002109387E1
1.875373017E0,3.870000243E-1,4.431000233E0,8.983950615E0,1.002471450E1
1.877335960E0,3.870000243E-1,4.468950272E0,9.022050858E0,1.007564823E1
1.879298940E0,3.490500152E-1,4.468950272E0,8.983950615E0,1.004015543E1
1.881262573E0,3.109500110E-1,4.431000233E0,9.022050858E0,1.005623462E1
1.883226015E0,3.870000243E-1,4.468950272E0,8.983950615E0,1.004154640E1
1.885189695E0,3.109500110E-1,4.431000233E0,8.907000542E0,9.953145815E0
1.887153313E0,3.109500110E-1,4.431000233E0,8.983950615E0,1.002206673E1
1.889116704E0,3.109500110E-1,4.392000198E0,8.907000542E0,9.935844921E0
1.891080161E0,3.490500152E-1,4.431000233E0,8.907000542E0,9.954408954E0
1.893043353E0,2.719500065E-1,4.468950272E0,8.983950615E0,1.003777077E1
1.895006622E0,3.870000243E-1,4.468950272E0,8.944950104E0,1.000666867E1
1.896969977E0,3.490500152E-1,4.431000233E0,8.983950615E0,1.002332119E1
1.898933309E0,3.490500152E-1,4.431000233E0,8.983950615E0,1.002332119E1
1.900896568E0,3.870000243E-1,4.468950272E0,8.944950104E0,1.000666867E1
1.902859849E0,3.490500152E-1,4.431000233E0,8.907000542E0,9.954408954E0
1.904823205E0,3.490500152E-1,4.431000233E0,8.907000542E0,9.954408954E0
1.906786539E0,3.490500152E-1,4.431000233E0,8.944950104E0,9.988379815E0
1.908749452E0,3.490500152E-1,4.468950272E0,8.907000542E0,9.971359541E0
1.910712478E0,3.870000243E-1,4.392000198E0,8.907000542E0,9.938515654E0
1.912675743E0,3.870000243E-1,4.468950272E0,8.869050026E0,9.938879912E0
1.914638938E0,4.260000288E-1,4.431000233E0,8.869050026E0,9.923471542E0
1.916602310E0,3.870000243E-1,4.468950272E0,8.869050026E0,9.938879912E0
1.918565630E0,3.870000243E-1,4.468950272E0,8.869050026E0,9.938879912E0
1.920528842E0,3.870000243E-1,4.468950272E0,8.869050026E0,9.938879912E0
1.922492089E0,3.870000243E-1,4.468950272E0,8.869050026E0,9.938879912E0
1.924455361E0,4.260000288E-1,4.431000233E0,8.830050468E0,9.888631370E0
1.926418625E0,3.870000243E-1,4.468950272E0,8.830050468E0,9.904093943E0
1.928381986E0,3.870000243E-1,4.431000233E0,8.830050468E0,9.887028035E0
1.930345318E0,4.260000288E-1,4.468950272E0,8.869050026E0,9.940474884E0
1.932308698E0,3.870000243E-1,4.468950272E0,8.907000542E0,9.972760109E0
1.934272073E0,4.260000288E-1,4.468950272E0,8.907000542E0,9.974349663E0
1.936235504E0,3.870000243E-1,4.468950272E0,8.869050026E0,9.938879912E0
1.938198919E0,3.490500152E-1,4.468950272E0,8.830050468E0,9.902683662E0
1.940162659E0,4.260000288E-1,4.507050037E0,8.869050026E0,9.957661594E0
1.942126304E0,4.260000288E-1,4.468950272E0,8.830050468E0,9.905694515E0
1.944089829E0,4.260000288E-1,4.468950272E0,8.791950226E0,9.871746620E0
1.946053387E0,4.260000288E-1,4.507050037E0,8.869050026E0,9.957661594E0
1.948016877E0,3.490500152E-1,4.507050037E0,8.907000542E0,9.988493110E0
1.949980387E0,3.870000243E-1,4.507050037E0,8.869050026E0,9.956069376E0
1.951943434E0,4.260000288E-1,4.507050037E0,8.869050026E0,9.957661594E0
1.953906617E0,4.260000288E-1,4.507050037E0,8.869050026E0,9.957661594E0
1.955869834E0,3.490500152E-1,4.468950272E0,8.907000542E0,9.971359541E0
1.957833024E0,3.870000243E-1,4.545000076E0,8.907000542E0,1.000707017E1
1.959796307E0,3.870000243E-1,4.507050037E0,8.869050026E0,9.956069376E0
1.961759562E0,3.870000243E-1,4.507050037E0,8.830050468E0,9.921343676E0
1.963722430E0,3.490500152E-1,4.545000076E0,8.869050026E0,9.971906035E0
1.965685411E0,3.490500152E-1,4.545000076E0,8.869050026E0,9.971906035E0
1.967648874E0,3.870000243E-1,4.507050037E0,8.869050026E0,9.956069376E0
1.969612188E0,3.490500152E-1,4.545000076E0,8.869050026E0,9.971906035E0
1.971575765E0,3.490500152E-1,4.545000076E0,8.869050026E0,9.971906035E0
1.973539265E0,2.719500065E-1,4.545000076E0,8.907000542E0,1.000328152E1
1.975502765E0,3.490500152E-1,4.545000076E0,8.907000542E0,1.000567440E1
1.977466265E0,3.109500110E-1,4.507050037E0,8.907000542E0,9.987234282E0
1.979429620E0,3.109500110E-1,4.545000076E0,8.907000542E0,1.000441774E1
1.981393025E0,3.490500152E-1,4.584000111E0,8.944950104E0,1.005718774E1
1.983356450E0,3.490500152E-1,4.545000076E0,8.869050026E0,9.971906035E0
1.985319869E0,2.719500065E-1,4.584000111E0,8.907000542E0,1.002106144E1
1.987283024E0,3.109500110E-1,4.545000076E0,8.907000542E0,1.000441774E1
1.989246256E0,2.719500065E-1,4.584000111E0,8.907000542E0,1.002106144E1
1.991209666E0,2.719500065E-1,4.584000111E0,8.907000542E0,1.002106144E1
1.993173023E0,3.109500110E-1,4.545000076E0,8.907000542E0,1.000441774E1
1.995136412E0,2.719500065E-1,4.584000111E0,8.869050026E0,9.987345102E0
1.997099792E0,2.340000123E-1,4.545000076E0,8.907000542E0,1.000232175E1
1.999063222E0,3.109500110E-1,4.545000076E0,8.907000542E0,1.000441774E1
2.001026638E0,2.340000123E-1,4.584000111E0,8.869050026E0,9.986383799E0
2.002989803E0,2.340000123E-1,4.545000076E0,8.907000542E0,1.000232175E1
2.004953035E0,2.719500065E-1,4.584000111E0,8.944950104E0,1.005480712E1
2.006916266E0,3.109500110E-1,4.621950150E0,8.907000542E0,1.003961014E1
2.008879497E0,1.960500032E-1,4.545000076E0,8.907000542E0,1.000150588E1
2.010842771E0,2.340000123E-1,4.545000076E0,8.907000542E0,1.000232175E1
2.012806033E0,2.340000123E-1,4.507050037E0,8.869050026E0,9.951296619E0
2.014769220E0,2.340000123E-1,4.545000076E0,8.907000542E0,1.000232175E1
2.016732425E0,3.109500110E-1,4.507050037E0,8.907000542E0,9.987234282E0
2.018695839E0,2.719500065E-1,4.507050037E0,8.983950615E0,1.005479117E1
2.020659192E0,2.719500065E-1,4.545000076E0,8.907000542E0,1.000328152E1
2.022622403E0,2.719500065E-1,4.468950272E0,8.869050026E0,9.935065259E0
2.024585656E0,2.719500065E-1,4.507050037E0,8.907000542E0,9.986096109E0
2.026548780E0,3.109500110E-1,4.468950272E0,8.944950104E0,1.000401613E1
2.028511919E0,3.109500110E-1,4.507050037E0,8.907000542E0,9.987234282E0
2.030475300E0,3.109500110E-1,4.468950272E0,8.907000542E0,9.970098550E0
2.032438610E0,3.490500152E-1,4.468950272E0,8.869050026E0,9.937474569E0
2.034401648E0,3.490500152E-1,4.507050037E0,8.907000542E0,9.988493110E0
2.036364765E0,3.109500110E-1,4.468950272E0,8.869050026E0,9.936209277E0
2.038328250E0,3.490500152E-1,4.431000233E0,8.869050026E0,9.920466085E0
2.040291620E0,3.490500152E-1,4.431000233E0,8.907000542E0,9.954408954E0
2.042254828E0,3.870000243E-1,4.468950272E0,8.869050026E0,9.938879912E0
2.044218083E0,3.870000243E-1,4.431000233E0,8.869050026E0,9.921873837E0
2.046181310E0,3.490500152E-1,4.468950272E0,8.830050468E0,9.902683662E0
2.048144545E0,3.490500152E-1,4.431000233E0,8.830050468E0,9.885615320E0
2.050108129E0,3.870000243E-1,4.431000233E0,8.830050468E0,9.887028035E0
2.052071615E0,4.260000288E-1,4.468950272E0,8.869050026E0,9.940474884E0
2.054034623E0,3.870000243E-1,4.468950272E0,8.869050026E0,9.938879912E0
2.055997771E0,3.870000243E-1,4.431000233E0,8.830050468E0,9.887028035E0
2.057961195E0,4.260000288E-1,4.468950272E0,8.830050468E0,9.905694515E0
2.059924538E0,3.870000243E-1,4.507050037E0,8.830050468E0,9.921343676E0
2.061888065E0,4.260000288E-1,4.468950272E0,8.869050026E0,9.940474884E0
2.063851538E0,3.870000243E-1,4.468950272E0,8.830050468E0,9.904093943E0
2.065815088E0,3.870000243E-1,4.468950272E0,8.830050468E0,9.904093943E0
2.067778615E0,4.260000288E-1,4.507050037E0,8.830050468E0,9.922941466E0
2.069741841E0,4.639500082E-1,4.468950272E0,8.791950226E0,9.873457090E0
2.071705155E0,4.260000288E-1,4.431000233E0,8.830050468E0,9.888631370E0
2.073668541E0,4.260000288E-1,4.468950272E0,8.791950226E0,9.871746620E0
2.075631912E0,4.260000288E-1,4.468950272E0,8.754000664E0,9.837963213E0
2.077595434E0,4.639500082E-1,4.468950272E0,8.791950226E0,9.873457090E0
2.079558912E0,4.260000288E-1,4.468950272E0,8.791950226E0,9.871746620E0
2.081522327E0,4.260000288E-1,4.431000233E0,8.791950226E0,9.854624694E0
2.083485761E0,3.870000243E-1,4.468950272E0,8.830050468E0,9.904093943E0
2.085449097E0,3.870000243E-1,4.431000233E0,8.869050026E0,9.921873837E0
2.087412458E0,3.870000243E-1,4.507050037E0,8.830050468E0,9.921343676E0
2.089375666E0,4.260000288E-1,4.545000076E0,8.754000664E0,9.872741734E0
2.091338919E0,3.870000243E-1,4.468950272E0,8.830050468E0,9.904093943E0
2.093302190E0,4.260000288E-1,4.468950272E0,8.830050468E0,9.905694515E0
2.095265456E0,3.870000243E-1,4.468950272E0,8.830050468E0,9.904093943E0
2.097228991E0,3.870000243E-1,4.545000076E0,8.830050468E0,9.938641053E0
2.099192451E0,3.870000243E-1,4.507050037E0,8.830050468E0,9.921343676E0
2.101155463E0,3.870000243E-1,4.431000233E0,8.830050468E0,9.887028035E0
2.103118607E0,3.490500152E-1,4.507050037E0,8.830050468E0,9.919935848E0
2.105081718E0,3.490500152E-1,4.468950272E0,8.830050468E0,9.902683662E0
2.107044838E0,3.490500152E-1,4.468950272E0,8.791950226E0,9.868725410E0
2.109008286E0,3.490500152E-1,4.507050037E0,8.869050026E0,9.954666459E0
2.110971624E0,3.490500152E-1,4.507050037E0,8.869050026E0,9.954666459E0
2.112934612E0,3.490500152E-1,4.507050037E0,8.907000542E0,9.988493110E0
2.114897703E0,2.719500065E-1,4.545000076E0,8.869050026E0,9.969505046E0
2.116860417E0,3.490500152E-1,4.468950272E0,8.907000542E0,9.971359541E0
2.118823241E0,3.490500152E-1,4.507050037E0,8.907000542E0,9.988493110E0
2.120786401E0,3.109500110E-1,4.507050037E0,8.907000542E0,9.987234282E0
2.122749466E0,2.719500065E-1,4.507050037E0,8.944950104E0,1.001995954E1
2.124712860E0,3.109500110E-1,4.507050037E0,8.944950104E0,1.002109387E1
2.126676158E0,3.109500110E-1,4.468950272E0,8.944950104E0,1.000401613E1
2.128639424E0,3.870000243E-1,4.468950272E0,8.983950615E0,1.004154640E1
2.130602699E0,3.109500110E-1,4.507050037E0,8.944950104E0,1.002109387E1
2.132565701E0,3.109500110E-1,4.468950272E0,8.907000542E0,9.970098550E0
2.134528780E0,3.109500110E-1,4.468950272E0,8.983950615E0,1.003890308E1
2.136491721E0,3.870000243E-1,4.507050037E0,8.907000542E0,9.989891276E0
2.138454703E0,3.490500152E-1,4.507050037E0,8.983950615E0,1.005717180E1
2.140417975E0,3.109500110E-1,4.468950272E0,8.944950104E0,1.000401613E1
2.142381162E0,3.490500152E-1,4.507050037E0,8.944950104E0,1.002234844E1
2.144343866E0,3.109500110E-1,4.507050037E0,8.983950615E0,1.005592157E1
2.146306708E0,3.490500152E-1,4.468950272E0,8.983950615E0,1.004015543E1
2.148269959E0,2.719500065E-1,4.507050037E0,8.944950104E0,1.001995954E1
2.150233090E0,3.109500110E-1,4.468950272E0,9.022050858E0,1.007301385E1
2.152196024E0,2.719500065E-1,4.507050037E0,8.983950615E0,1.005479117E1
2.154159016E0,3.109500110E-1,4.507050037E0,8.944950104E0,1.002109387E1
2.156122237E0,2.719500065E-1,4.545000076E0,8.944950104E0,1.003708697E1
2.158085394E0,2.719500065E-1,4.468950272E0,8.944950104E0,1.000287987E1
2.160048503E0,2.719500065E-1,4.507050037E0,8.944950104E0,1.001995954E1
2.162011627E0,2.340000123E-1,4.468950272E0,8.983950615E0,1.003681429E1
2.163974651E0,2.719500065E-1,4.468950272E0,8.907000542E0,9.968958420E0
2.165937704E0,2.719500065E-1,4.468950272E0,8.907000542E0,9.968958420E0
2.167900964E0,2.340000123E-1,4.545000076E0,8.944950104E0,1.003613043E1
2.169864163E0,2.719500065E-1,4.468950272E0,8.983950615E0,1.003777077E1
2.171827400E0,2.719500065E-1,4.507050037E0,8.944950104E0,1.001995954E1
2.173790625E0,2.719500065E-1,4.507050037E0,8.907000542E0,9.986096109E0
2.175753857E0,2.340000123E-1,4.507050037E0,8.944950104E0,1.001900137E1
2.177717087E0,3.109500110E-1,4.507050037E0,8.944950104E0,1.002109387E1
2.179680137E0,3.109500110E-1,4.468950272E0,8.983950615E0,1.003890308E1
2.181643241E0,3.109500110E-1,4.507050037E0,8.983950615E0,1.005592157E1
2.183606538E0,3.109500110E-1,4.468950272E0,8.944950104E0,1.000401613E1
2.185569778E0,3.490500152E-1,4.468950272E0,8.983950615E0,1.004015543E1
2.187532648E0,3.109500110E-1,4.468950272E0,8.944950104E0,1.000401613E1
2.189495626E0,3.109500110E-1,4.431000233E0,8.944950104E0,9.987120973E0
2.191458724E0,3.870000243E-1,4.468950272E0,8.983950615E0,1.004154640E1
2.193421783E0,3.490500152E-1,4.468950272E0,8.907000542E0,9.971359541E0
2.195385178E0,3.490500152E-1,4.431000233E0,8.907000542E0,9.954408954E0
2.197348475E0,3.870000243E-1,4.431000233E0,8.907000542E0,9.955811907E0
2.199311741E0,3.870000243E-1,4.431000233E0,8.907000542E0,9.955811907E0
2.201275016E0,3.870000243E-1,4.431000233E0,8.907000542E0,9.955811907E0
2.203238024E0,3.490500152E-1,4.468950272E0,8.944950104E0,1.000527285E1
2.205201103E0,3.870000243E-1,4.468950272E0,8.907000542E0,9.972760109E0
2.207164179E0,3.870000243E-1,4.431000233E0,8.869050026E0,9.921873837E0
2.209127256E0,3.490500152E-1,4.468950272E0,8.869050026E0,9.937474569E0
2.211090512E0,4.260000288E-1,4.507050037E0,8.907000542E0,9.991478105E0
2.213053716E0,3.870000243E-1,4.431000233E0,8.830050468E0,9.887028035E0
2.215016627E0,3.870000243E-1,4.468950272E0,8.830050468E0,9.904093943E0
2.216979631E0,3.490500152E-1,4.507050037E0,8.907000542E0,9.988493110E0
2.218942540E0,4.260000288E-1,4.431000233E0,8.830050468E0,9.888631370E0
2.220905477E0,3.870000243E-1,4.468950272E0,8.830050468E0,9.904093943E0
2.222868893E0,3.870000243E-1,4.468950272E0,8.830050468E0,9.904093943E0
2.224832168E0,4.260000288E-1,4.468950272E0,8.830050468E0,9.905694515E0
2.226795378E0,4.260000288E-1,4.468950272E0,8.791950226E0,9.871746620E0
2.228758617E0,4.260000288E-1,4.468950272E0,8.791950226E0,9.871746620E0
2.230721666E0,4.260000288E-1,4.468950272E0,8.830050468E0,9.905694515E0
2.232684771E0,4.639500082E-1,4.468950272E0,8.791950226E0,9.873457090E0
2.234647843E0,4.260000288E-1,4.468950272E0,8.830050468E0,9.905694515E0
2.236610925E0,4.260000288E-1,4.468950272E0,8.830050468E0,9.905694515E0
2.238574035E0,4.260000288E-1,4.507050037E0,8.791950226E0,9.889052778E0
2.240537144E0,4.260000288E-1,4.507050037E0,8.791950226E0,9.889052778E0
2.242500171E0,3.870000243E-1,4.507050037E0,8.791950226E0,9.887449511E0
2.244463223E0,3.870000243E-1,4.468950272E0,8.791950226E0,9.870140542E0
2.246426169E0,4.260000288E-1,4.431000233E0,8.754000664E0,9.820782388E0
2.248389146E0,3.870000243E-1,4.507050037E0,8.715000153E0,9.819088385E0
2.250351879E0,3.870000243E-1,4.468950272E0,8.830050468E0,9.904093943E0
2.252314684E0,3.870000243E-1,4.468950272E0,8.754000664E0,9.836351619E0
2.254277626E0,3.870000243E-1,4.468950272E0,8.754000664E0,9.836351619E0
2.256240528E0,3.870000243E-1,4.468950272E0,8.791950226E0,9.870140542E0
2.258203590E0,4.260000288E-1,4.507050037E0,8.791950226E0,9.889052778E0
2.260166605E0,3.870000243E-1,4.507050037E0,8.791950226E0,9.887449511E0
2.262129413E0,4.260000288E-1,4.507050037E0,8.830050468E0,9.922941466E0
2.264092257E0,3.490500152E-1,4.468950272E0,8.869050026E0,9.937474569E0
2.266055508E0,3.870000243E-1,4.507050037E0,8.791950226E0,9.887449511E0
2.268018639E0,4.260000288E-1,4.507050037E0,8.791950226E0,9.889052778E0
2.269981573E0,3.870000243E-1,4.468950272E0,8.830050468E0,9.904093943E0
2.271944564E0,4.260000288E-1,4.584000111E0,8.791950226E0,9.924360020E0
2.273907465E0,3.870000243E-1,4.507050037E0,8.791950226E0,9.887449511E0
2.275870400E0,4.260000288E-1,4.468950272E0,8.791950226E0,9.871746620E0
2.277833321E0,3.870000243E-1,4.545000076E0,8.830050468E0,9.938641053E0
2.279796247E0,3.870000243E-1,4.468950272E0,8.791950226E0,9.870140542E0
2.281759529E0,3.870000243E-1,4.507050037E0,8.791950226E0,9.887449511E0
2.283722706E0,4.639500082E-1,4.507050037E0,8.791950226E0,9.890760255E0
2.285685887E0,4.260000288E-1,4.507050037E0,8.830050468E0,9.922941466E0
2.287649077E0,3.870000243E-1,4.468950272E0,8.830050468E0,9.904093943E0
2.289612360E0,3.870000243E-1,4.545000076E0,8.869050026E0,9.973306527E0
2.291575615E0,3.870000243E-1,4.507050037E0,8.830050468E0,9.921343676E0
2.293538798E0,3.870000243E-1,4.468950272E0,8.869050026E0,9.938879912E0
2.295502002E0,3.870000243E-1,4.507050037E0,8.869050026E0,9.956069376E0
2.297465276E0,3.870000243E-1,4.545000076E0,8.907000542E0,1.000707017E1
2.299428533E0,4.260000288E-1,4.507050037E0,8.791950226E0,9.889052778E0
2.301391580E0,3.870000243E-1,4.507050037E0,8.869050026E0,9.956069376E0
2.303354689E0,4.260000288E-1,4.468950272E0,8.869050026E0,9.940474884E0
2.305317895E0,3.490500152E-1,4.507050037E0,8.869050026E0,9.954666459E0
2.307281072E0,3.490500152E-1,4.507050037E0,8.830050468E0,9.919935848E0
2.309244183E0,3.490500152E-1,4.507050037E0,8.944950104E0,1.002234844E1
2.311207310E0,3.870000243E-1,4.507050037E0,8.907000542E0,9.989891276E0
2.313170692E0,3.490500152E-1,4.507050037E0,8.907000542E0,9.988493110E0
2.315134000E0,3.870000243E-1,4.507050037E0,8.907000542E0,9.989891276E0
2.317097038E0,3.870000243E-1,4.507050037E0,8.907000542E0,9.989891276E0
2.319060156E0,3.870000243E-1,4.507050037E0,8.944950104E0,1.002374189E1
2.321022910E0,4.260000288E-1,4.545000076E0,8.907000542E0,1.000865427E1
2.322985771E0,3.870000243E-1,4.507050037E0,8.907000542E0,9.989891276E0
2.324949199E0,4.260000288E-1,4.507050037E0,8.907000542E0,9.991478105E0
2.326912461E0,3.870000243E-1,4.545000076E0,8.944950104E0,1.004086286E1
2.328875732E0,3.490500152E-1,4.507050037E0,8.944950104E0,1.002234844E1
2.330839000E0,3.490500152E-1,4.507050037E0,8.907000542E0,9.988493110E0
2.332802211E0,3.870000243E-1,4.545000076E0,8.907000542E0,1.000707017E1
2.334765449E0,3.870000243E-1,4.507050037E0,8.907000542E0,9.989891276E0
2.336728633E0,3.870000243E-1,4.507050037E0,8.830050468E0,9.921343676E0
2.338691833E0,3.490500152E-1,4.545000076E0,8.830050468E0,9.937235676E0
2.340654934E0,3.490500152E-1,4.507050037E0,8.869050026E0,9.954666459E0
2.342618064E0,3.870000243E-1,4.507050037E0,8.869050026E0,9.956069376E0
2.344581506E0,3.490500152E-1,4.507050037E0,8.830050468E0,9.919935848E0
2.346544846E0,3.870000243E-1,4.507050037E0,8.869050026E0,9.956069376E0
2.348508059E0,3.870000243E-1,4.545000076E0,8.830050468E0,9.938641053E0
2.350471310E0,3.870000243E-1,4.545000076E0,8.869050026E0,9.973306527E0
2.352434492E0,3.490500152E-1,4.545000076E0,8.869050026E0,9.971906035E0
2.354397694E0,3.490500152E-1,4.468950272E0,8.830050468E0,9.902683662E0
2.356360629E0,3.490500152E-1,4.545000076E0,8.791950226E0,9.903395901E0
2.358323632E0,3.870000243E-1,4.545000076E0,8.907000542E0,1.000707017E1
2.360287036E0,3.490500152E-1,4.545000076E0,8.907000542E0,1.000567440E1
2.362250323E0,4.260000288E-1,4.507050037E0,8.869050026E0,9.957661594E0
2.364213410E0,4.260000288E-1,4.545000076E0,8.830050468E0,9.940236063E0
2.366176556E0,4.260000288E-1,4.468950272E0,8.830050468E0,9.905694515E0
2.368139765E0,4.260000288E-1,4.545000076E0,8.869050026E0,9.974895993E0
2.370102948E0,3.870000243E-1,4.507050037E0,8.869050026E0,9.956069376E0
2.372066053E0,4.260000288E-1,4.507050037E0,8.907000542E0,9.991478105E0
2.374029181E0,4.260000288E-1,4.507050037E0,8.869050026E0,9.957661594E0
2.375992383E0,3.870000243E-1,4.507050037E0,8.907000542E0,9.989891276E0
2.377955564E0,4.260000288E-1,4.507050037E0,8.907000542E0,9.991478105E0
2.379918847E0,3.870000243E-1,4.507050037E0,8.907000542E0,9.989891276E0
2.381882101E0,3.870000243E-1,4.468950272E0,8.907000542E0,9.972760109E0
2.383845104E0,4.260000288E-1,4.468950272E0,8.907000542E0,9.974349663E0
2.385808180E0,4.260000288E-1,4.507050037E0,8.869050026E0,9.957661594E0
2.387771481E0,3.490500152E-1,4.468950272E0,8.907000542E0,9.971359541E0
2.389734716E0,3.870000243E-1,4.507050037E0,8.907000542E0,9.989891276E0
2.391697878E0,3.870000243E-1,4.468950272E0,8.907000542E0,9.972760109E0
2.393661079E0,3.870000243E-1,4.507050037E0,8.907000542E0,9.989891276E0
2.395624494E0,3.870000243E-1,4.468950272E0,8.869050026E0,9.938879912E0
2.397587846E0,4.260000288E-1,4.468950272E0,8.944950104E0,1.000825284E1
2.399550742E0,3.870000243E-1,4.507050037E0,8.869050026E0,9.956069376E0
2.401513771E0,3.870000243E-1,4.507050037E0,8.944950104E0,1.002374189E1
2.403476791E0,4.260000288E-1,4.468950272E0,8.907000542E0,9.974349663E0
2.405439827E0,3.870000243E-1,4.468950272E0,8.869050026E0,9.938879912E0
2.407402956E0,3.490500152E-1,4.468950272E0,8.944950104E0,1.000527285E1
2.409366058E0,3.490500152E-1,4.468950272E0,8.907000542E0,9.971359541E0
2.411329311E0,3.870000243E-1,4.468950272E0,8.944950104E0,1.000666867E1
2.413292520E0,3.490500152E-1,4.468950272E0,8.944950104E0,1.000527285E1
2.415255729E0,3.870000243E-1,4.468950272E0,8.907000542E0,9.972760109E0
2.417218925E0,3.870000243E-1,4.507050037E0,8.944950104E0,1.002374189E1
2.419181981E0,3.490500152E-1,4.468950272E0,8.944950104E0,1.000527285E1
2.421145079E0,3.870000243E-1,4.507050037E0,8.869050026E0,9.956069376E0
2.423108017E0,3.490500152E-1,4.545000076E0,8.907000542E0,1.000567440E1
2.425071002E0,3.490500152E-1,4.507050037E0,8.907000542E0,9.988493110E0
2.427034224E0,3.490500152E-1,4.507050037E0,8.907000542E0,9.988493110E0
2.428997380E0,3.490500152E-1,4.507050037E0,8.869050026E0,9.954666459E0
2.430960623E0,3.490500152E-1,4.468950272E0,8.869050026E0,9.937474569E0
2.432923841E0,3.870000243E-1,4.507050037E0,8.869050026E0,9.956069376E0
2.434887255E0,3.490500152E-1,4.468950272E0,8.830050468E0,9.902683662E0
2.436850611E0,3.490500152E-1,4.507050037E0,8.869050026E0,9.954666459E0
2.438813701E0,3.490500152E-1,4.468950272E0,8.869050026E0,9.937474569E0
2.440776858E0,3.109500110E-1,4.507050037E0,8.869050026E0,9.953403353E0
2.442739921E0,3.870000243E-1,4.507050037E0,8.869050026E0,9.956069376E0
2.444703012E0,3.870000243E-1,4.468950272E0,8.830050468E0,9.904093943E0
2.446666087E0,3.490500152E-1,4.507050037E0,8.907000542E0,9.988493110E0
2.448629166E0,3.870000243E-1,4.507050037E0,8.830050468E0,9.921343676E0
2.450592228E0,3.870000243E-1,4.507050037E0,8.907000542E0,9.989891276E0
2.452555305E0,3.870000243E-1,4.545000076E0,8.869050026E0,9.973306527E0
2.454518561E0,3.109500110E-1,4.507050037E0,8.869050026E0,9.953403353E0
2.456481764E0,3.870000243E-1,4.507050037E0,8.830050468E0,9.921343676E0
2.458445316E0,3.490500152E-1,4.507050037E0,8.907000542E0,9.988493110E0
2.460408765E0,3.490500152E-1,4.468950272E0,8.907000542E0,9.971359541E0
2.462372176E0,3.870000243E-1,4.507050037E0,8.869050026E0,9.956069376E0
2.464335604E0,3.490500152E-1,4.507050037E0,8.830050468E0,9.919935848E0
2.466298936E0,3.870000243E-1,4.468950272E0,8.830050468E0,9.904093943E0
2.468262296E0,3.870000243E-1,4.507050037E0,8.830050468E0,9.921343676E0
2.470225505E0,3.870000243E-1,4.507050037E0,8.869050026E0,9.956069376E0
2.472188758E0,3.870000243E-1,4.507050037E0,8.869050026E0,9.956069376E0
2.474152058E0,4.260000288E-1,4.468950272E0,8.869050026E0,9.940474884E0
2.476115323E0,4.260000288E-1,4.507050037E0,8.830050468E0,9.922941466E0
2.478078324E0,4.260000288E-1,4.431000233E0,8.907000542E0,9.957404167E0
2.480041402E0,3.870000243E-1,4.468950272E0,8.869050026E0,9.938879912E0
2.482004343E0,3.870000243E-1,4.468950272E0,8.944950104E0,1.000666867E1
2.483967325E0,4.260000288E-1,4.468950272E0,8.944950104E0,1.000825284E1
2.485930583E0,4.260000288E-1,4.431000233E0,8.944950104E0,9.991364844E0
2.487893770E0,4.260000288E-1,4.431000233E0,8.907000542E0,9.957404167E0
2.489857008E0,3.870000243E-1,4.468950272E0,8.907000542E0,9.972760109E0
2.491820231E0,3.870000243E-1,4.468950272E0,8.869050026E0,9.938879912E0
2.493783284E0,3.490500152E-1,4.468950272E0,8.907000542E0,9.971359541E0
2.495746387E0,3.870000243E-1,4.468950272E0,8.907000542E0,9.972760109E0
2.497709769E0,3.870000243E-1,4.507050037E0,8.869050026E0,9.956069376E0
2.499673072E0,3.870000243E-1,4.468950272E0,8.907000542E0,9.972760109E0
2.501636337E0,3.490500152E-1,4.507050037E0,8.907000542E0,9.988493110E0
2.503599613E0,3.109500110E-1,4.468950272E0,8.869050026E0,9.936209277E0
2.505562475E0,2.719500065E-1,4.507050037E0,8.907000542E0,9.986096109E0
2.507525459E0,2.719500065E-1,4.545000076E0,8.830050468E0,9.934826308E0
2.509488357E0,2.719500065E-1,4.545000076E0,8.907000542E0,1.000328152E1
2.511451291E0,2.719500065E-1,4.545000076E0,8.869050026E0,9.969505046E0
2.513414527E0,2.719500065E-1,4.545000076E0,8.869050026E0,9.969505046E0
2.515377674E0,2.719500065E-1,4.507050037E0,8.869050026E0,9.952261311E0
2.517340919E0,2.340000123E-1,4.545000076E0,8.830050468E0,9.933859923E0
2.519304135E0,2.719500065E-1,4.621950150E0,8.869050026E0,1.000482026E1
2.521267044E0,2.340000123E-1,4.545000076E0,8.830050468E0,9.933859923E0
2.523230050E0,2.719500065E-1,4.545000076E0,8.830050468E0,9.934826308E0
2.525193138E0,3.109500110E-1,4.584000111E0,8.830050468E0,9.953870513E0
2.527156202E0,2.719500065E-1,4.584000111E0,8.830050468E0,9.952728525E0
2.529119417E0,2.719500065E-1,4.584000111E0,8.791950226E0,9.918941607E0
2.531082587E0,3.490500152E-1,4.545000076E0,8.791950226E0,9.903395901E0
2.533045649E0,3.490500152E-1,4.545000076E0,8.830050468E0,9.937235676E0
2.535008743E0,3.109500110E-1,4.584000111E0,8.830050468E0,9.953870513E0
2.536971637E0,3.490500152E-1,4.545000076E0,8.754000664E0,9.869720828E0
2.538934589E0,3.490500152E-1,4.584000111E0,8.754000664E0,9.887740922E0
2.540897686E0,3.490500152E-1,4.545000076E0,8.791950226E0,9.903395901E0
2.542860741E0,3.870000243E-1,4.507050037E0,8.754000664E0,9.853719941E0
2.544823673E0,3.490500152E-1,4.507050037E0,8.754000664E0,9.852302450E0
2.546786651E0,3.490500152E-1,4.507050037E0,8.791950226E0,9.886036856E0
2.548749879E0,3.870000243E-1,4.507050037E0,8.791950226E0,9.887449511E0
2.550713033E0,3.870000243E-1,4.507050037E0,8.791950226E0,9.887449511E0
2.552676143E0,3.490500152E-1,4.545000076E0,8.754000664E0,9.869720828E0
2.554639266E0,3.490500152E-1,4.468950272E0,8.754000664E0,9.834931625E0
2.556602330E0,3.870000243E-1,4.507050037E0,8.791950226E0,9.887449511E0
2.558565415E0,3.490500152E-1,4.507050037E0,8.791950226E0,9.886036856E0
2.560528625E0,4.260000288E-1,4.468950272E0,8.791950226E0,9.871746620E0
2.562491798E0,3.870000243E-1,4.507050037E0,8.791950226E0,9.887449511E0
2.564454904E0,3.870000243E-1,4.507050037E0,8.830050468E0,9.921343676E0
2.566418030E0,3.490500152E-1,4.468950272E0,8.869050026E0,9.937474569E0
2.568381038E0,3.870000243E-1,4.507050037E0,8.791950226E0,9.887449511E0
2.570344092E0,3.870000243E-1,4.545000076E0,8.791950226E0,9.904806080E0
2.572307217E0,3.870000243E-1,4.468950272E0,8.754000664E0,9.836351619E0
2.574270321E0,3.490500152E-1,4.507050037E0,8.830050468E0,9.919935848E0
2.576233529E0,3.870000243E-1,4.468950272E0,8.830050468E0,9.904093943E0
2.578196706E0,3.870000243E-1,4.468950272E0,8.830050468E0,9.904093943E0
2.580159812E0,3.490500152E-1,4.507050037E0,8.830050468E0,9.919935848E0
2.582122939E0,3.870000243E-1,4.468950272E0,8.869050026E0,9.938879912E0
2.584086502E0,3.490500152E-1,4.507050037E0,8.869050026E0,9.954666459E0
2.586049937E0,3.109500110E-1,4.507050037E0,8.869050026E0,9.953403353E0
2.588013133E0,3.490500152E-1,4.468950272E0,8.907000542E0,9.971359541E0
2.589976400E0,3.109500110E-1,4.507050037E0,8.944950104E0,1.002109387E1
2.591939804E0,3.109500110E-1,4.507050037E0,8.869050026E0,9.953403353E0
2.593903167E0,3.490500152E-1,4.507050037E0,8.944950104E0,1.002234844E1
2.595866601E0,3.490500152E-1,4.507050037E0,8.944950104E0,1.002234844E1
2.597830014E0,3.109500110E-1,4.468950272E0,8.983950615E0,1.003890308E1
2.599793574E0,3.109500110E-1,4.507050037E0,8.983950615E0,1.005592157E1
2.601757090E0,3.109500110E-1,4.468950272E0,8.944950104E0,1.000401613E1
2.603720416E0,3.490500152E-1,4.507050037E0,8.944950104E0,1.002234844E1
2.605683824E0,3.109500110E-1,4.468950272E0,8.983950615E0,1.003890308E1
2.607647024E0,3.109500110E-1,4.468950272E0,8.983950615E0,1.003890308E1
2.609610285E0,3.109500110E-1,4.468950272E0,8.983950615E0,1.003890308E1
2.611573330E0,3.109500110E-1,4.507050037E0,9.022050858E0,1.008997481E1
2.613536439E0,3.490500152E-1,4.468950272E0,9.022050858E0,1.007426196E1
2.615499709E0,4.260000288E-1,4.431000233E0,8.944950104E0,9.991364844E0
2.617462918E0,3.490500152E-1,4.468950272E0,8.944950104E0,1.000527285E1
2.619426333E0,3.490500152E-1,4.468950272E0,8.983950615E0,1.004015543E1
2.621389687E0,3.490500152E-1,4.468950272E0,8.983950615E0,1.004015543E1
2.623353033E0,4.260000288E-1,4.507050037E0,8.983950615E0,1.006013642E1
2.625316381E0,3.870000243E-1,4.431000233E0,8.983950615E0,1.002471450E1
2.627279608E0,3.109500110E-1,4.507050037E0,8.983950615E0,1.005592157E1
2.629242891E0,3.870000243E-1,4.507050037E0,8.983950615E0,1.005856042E1
2.631206112E0,3.109500110E-1,4.468950272E0,8.944950104E0,1.000401613E1
2.633169352E0,3.490500152E-1,4.468950272E0,8.944950104E0,1.000527285E1
2.635132581E0,3.870000243E-1,4.468950272E0,8.944950104E0,1.000666867E1
2.637095814E0,3.870000243E-1,4.507050037E0,8.944950104E0,1.002374189E1
2.639059178E0,3.870000243E-1,4.468950272E0,8.944950104E0,1.000666867E1
2.641022504E0,3.109500110E-1,4.507050037E0,8.907000542E0,9.987234282E0
2.642985899E0,3.490500152E-1,4.431000233E0,8.907000542E0,9.954408954E0
2.644949273E0,3.490500152E-1,4.431000233E0,8.944950104E0,9.988379815E0
2.646912660E0,3.490500152E-1,4.431000233E0,8.907000542E0,9.954408954E0
2.648876043E0,3.109500110E-1,4.468950272E0,8.869050026E0,9.936209277E0
2.650839068E0,3.490500152E-1,4.468950272E0,8.869050026E0,9.937474569E0
2.652802198E0,3.870000243E-1,4.431000233E0,8.907000542E0,9.955811907E0
2.654765445E0,3.490500152E-1,4.431000233E0,8.907000542E0,9.954408954E0
2.656728658E0,3.109500110E-1,4.431000233E0,8.907000542E0,9.953145815E0
2.658691892E0,3.109500110E-1,4.468950272E0,8.869050026E0,9.936209277E0
2.660655120E0,3.490500152E-1,4.431000233E0,8.907000542E0,9.954408954E0
2.662618222E0,3.870000243E-1,4.431000233E0,8.907000542E0,9.955811907E0
2.664581357E0,3.490500152E-1,4.431000233E0,8.907000542E0,9.954408954E0
2.666544784E0,3.490500152E-1,4.431000233E0,8.869050026E0,9.920466085E0
2.668508125E0,3.490500152E-1,4.431000233E0,8.869050026E0,9.920466085E0
2.670471338E0,4.260000288E-1,4.431000233E0,8.907000542E0,9.957404167E0
2.672434588E0,3.870000243E-1,4.431000233E0,8.907000542E0,9.955811907E0
2.674397835E0,3.870000243E-1,4.468950272E0,8.907000542E0,9.972760109E0
2.676361069E0,3.490500152E-1,4.468950272E0,8.869050026E0,9.937474569E0
2.678324478E0,3.490500152E-1,4.468950272E0,8.907000542E0,9.971359541E0
2.680287836E0,3.490500152E-1,4.468950272E0,8.944950104E0,1.000527285E1
2.682251181E0,3.870000243E-1,4.468950272E0,8.944950104E0,1.000666867E1
2.684214530E0,3.870000243E-1,4.507050037E0,8.907000542E0,9.989891276E0
2.686177944E0,3.490500152E-1,4.468950272E0,8.944950104E0,1.000527285E1
2.688141321E0,3.490500152E-1,4.431000233E0,8.944950104E0,9.988379815E0
2.690104753E0,4.260000288E-1,4.468950272E0,8.869050026E0,9.940474884E0
2.692068168E0,3.490500152E-1,4.431000233E0,8.907000542E0,9.954408954E0
2.694031368E0,3.870000243E-1,4.468950272E0,8.869050026E0,9.938879912E0
2.695994631E0,3.870000243E-1,4.468950272E0,8.907000542E0,9.972760109E0
2.697958114E0,3.870000243E-1,4.468950272E0,8.907000542E0,9.972760109E0
2.699921572E0,3.870000243E-1,4.431000233E0,8.907000542E0,9.955811907E0
2.701884585E0,3.490500152E-1,4.468950272E0,8.830050468E0,9.902683662E0
2.703847728E0,3.870000243E-1,4.507050037E0,8.869050026E0,9.956069376E0
2.705810794E0,4.260000288E-1,4.468950272E0,8.869050026E0,9.940474884E0
2.707773882E0,4.260000288E-1,4.468950272E0,8.869050026E0,9.940474884E0
2.709736971E0,3.870000243E-1,4.507050037E0,8.869050026E0,9.956069376E0
2.711700050E0,3.490500152E-1,4.468950272E0,8.869050026E0,9.937474569E0
2.713663127E0,3.870000243E-1,4.468950272E0,8.791950226E0,9.870140542E0
2.715626204E0,3.870000243E-1,4.468950272E0,8.830050468E0,9.904093943E0
2.717589280E0,3.870000243E-1,4.507050037E0,8.830050468E0,9.921343676E0
2.719552357E0,3.490500152E-1,4.507050037E0,8.830050468E0,9.919935848E0
2.721515249E0,3.109500110E-1,4.507050037E0,8.830050468E0,9.918668319E0
2.723478199E0,3.870000243E-1,4.507050037E0,8.830050468E0,9.921343676E0
2.725441117E0,3.109500110E-1,4.545000076E0,8.754000664E0,9.868446850E0
2.727404045E0,3.109500110E-1,4.507050037E0,8.830050468E0,9.918668319E0
2.729367192E0,3.490500152E-1,4.545000076E0,8.830050468E0,9.937235676E0
2.731330274E0,3.870000243E-1,4.507050037E0,8.715000153E0,9.819088385E0
2.733293705E0,3.490500152E-1,4.545000076E0,8.791950226E0,9.903395901E0
2.735257038E0,3.490500152E-1,4.545000076E0,8.791950226E0,9.903395901E0
2.737219892E0,3.490500152E-1,4.584000111E0,8.830050468E0,9.955133560E0
2.739182886E0,3.490500152E-1,4.545000076E0,8.791950226E0,9.903395901E0
2.741146291E0,3.109500110E-1,4.584000111E0,8.791950226E0,9.920087484E0
2.743109576E0,3.109500110E-1,4.584000111E0,8.830050468E0,9.953870513E0
2.745073033E0,3.109500110E-1,4.507050037E0,8.869050026E0,9.953403353E0
2.747036432E0,3.109500110E-1,4.584000111E0,8.830050468E0,9.953870513E0
2.748999995E0,3.109500110E-1,4.545000076E0,8.830050468E0,9.935970354E0
2.750963509E0,3.109500110E-1,4.507050037E0,8.869050026E0,9.953403353E0
2.752926873E0,3.109500110E-1,4.545000076E0,8.907000542E0,1.000441774E1
2.754890281E0,3.490500152E-1,4.545000076E0,8.869050026E0,9.971906035E0
2.756853514E0,3.490500152E-1,4.584000111E0,8.944950104E0,1.005718774E1
2.758816775E0,3.490500152E-1,4.545000076E0,8.869050026E0,9.971906035E0
2.760779820E0,2.719500065E-1,4.545000076E0,8.869050026E0,9.969505046E0
2.762742929E0,2.719500065E-1,4.584000111E0,8.869050026E0,9.987345102E0
2.764706180E0,2.719500065E-1,4.545000076E0,8.830050468E0,9.934826308E0
2.766669389E0,2.719500065E-1,4.584000111E0,8.830050468E0,9.952728525E0
2.768632459E0,3.109500110E-1,4.545000076E0,8.830050468E0,9.935970354E0
2.770595559E0,3.109500110E-1,4.584000111E0,8.830050468E0,9.953870513E0
2.772558766E0,2.719500065E-1,4.545000076E0,8.830050468E0,9.934826308E0
2.774521942E0,3.490500152E-1,4.584000111E0,8.830050468E0,9.955133560E0
2.776485048E0,3.490500152E-1,4.545000076E0,8.830050468E0,9.937235676E0
2.778448175E0,2.719500065E-1,4.545000076E0,8.869050026E0,9.969505046E0
2.780411382E0,3.109500110E-1,4.584000111E0,8.907000542E0,1.002219565E1
2.782374562E0,2.719500065E-1,4.545000076E0,8.869050026E0,9.969505046E0
2.784337668E0,2.340000123E-1,4.545000076E0,8.869050026E0,9.968542023E0
2.786300795E0,2.719500065E-1,4.545000076E0,8.869050026E0,9.969505046E0
2.788263818E0,3.109500110E-1,4.545000076E0,8.869050026E0,9.970645113E0
2.790226872E0,2.719500065E-1,4.507050037E0,8.907000542E0,9.986096109E0
2.792189777E0,2.719500065E-1,4.545000076E0,8.907000542E0,1.000328152E1
2.794152723E0,2.719500065E-1,4.507050037E0,8.869050026E0,9.952261311E0
2.796116047E0,3.490500152E-1,4.545000076E0,8.869050026E0,9.971906035E0
2.798079260E0,2.719500065E-1,4.584000111E0,8.944950104E0,1.005480712E1
2.800042809E0,2.719500065E-1,4.545000076E0,8.869050026E0,9.969505046E0
2.802006260E0,2.719500065E-1,4.545000076E0,8.907000542E0,1.000328152E1
2.803969314E0,2.719500065E-1,4.584000111E0,8.830050468E0,9.952728525E0
2.805932488E0,3.109500110E-1,4.468950272E0,8.907000542E0,9.970098550E0
2.807895548E0,3.109500110E-1,4.468950272E0,8.869050026E0,9.936209277E0
2.809858641E0,3.109500110E-1,4.468950272E0,8.869050026E0,9.936209277E0
2.811821849E0,3.870000243E-1,4.468950272E0,8.830050468E0,9.904093943E0
2.813785024E0,3.109500110E-1,4.507050037E0,8.907000542E0,9.987234282E0
2.815748509E0,2.719500065E-1,4.507050037E0,8.830050468E0,9.917522277E0
2.817711889E0,3.490500152E-1,4.507050037E0,8.907000542E0,9.988493110E0
2.819675231E0,3.490500152E-1,4.468950272E0,8.907000542E0,9.971359541E0
2.821638584E0,3.490500152E-1,4.507050037E0,8.907000542E0,9.988493110E0
2.823601793E0,3.490500152E-1,4.468950272E0,8.907000542E0,9.971359541E0
2.825565045E0,3.490500152E-1,4.431000233E0,8.907000542E0,9.954408954E0
2.827528417E0,3.490500152E-1,4.431000233E0,8.983950615E0,1.002332119E1
2.829491778E0,3.870000243E-1,4.431000233E0,8.944950104E0,9.989777998E0
2.831455033E0,4.260000288E-1,4.468950272E0,8.907000542E0,9.974349663E0
2.833418319E0,4.260000288E-1,4.431000233E0,8.907000542E0,9.957404167E0
2.835381719E0,3.870000243E-1,4.431000233E0,8.907000542E0,9.955811907E0
2.837345086E0,3.490500152E-1,4.468950272E0,8.907000542E0,9.971359541E0
2.839308245E0,3.490500152E-1,4.468950272E0,8.869050026E0,9.937474569E0
2.841271468E0,3.490500152E-1,4.431000233E0,8.830050468E0,9.885615320E0
2.843234564E0,4.260000288E-1,4.507050037E0,8.907000542E0,9.991478105E0
2.845197698E0,3.109500110E-1,4.468950272E0,8.869050026E0,9.936209277E0
2.847160899E0,3.870000243E-1,4.468950272E0,8.907000542E0,9.972760109E0
2.849124081E0,3.870000243E-1,4.507050037E0,8.830050468E0,9.921343676E0
2.851087291E0,3.490500152E-1,4.507050037E0,8.869050026E0,9.954666459E0
2.853050514E0,3.490500152E-1,4.507050037E0,8.830050468E0,9.919935848E0
2.855013971E0,3.870000243E-1,4.507050037E0,8.869050026E0,9.956069376E0
2.856977360E0,4.260000288E-1,4.507050037E0,8.830050468E0,9.922941466E0
2.858940700E0,3.870000243E-1,4.507050037E0,8.830050468E0,9.921343676E0
2.860904054E0,3.490500152E-1,4.507050037E0,8.869050026E0,9.954666459E0
2.862867295E0,3.870000243E-1,4.507050037E0,8.869050026E0,9.956069376E0
2.864830579E0,3.870000243E-1,4.507050037E0,8.907000542E0,9.989891276E0
2.866793755E0,3.490500152E-1,4.468950272E0,8.907000542E0,9.971359541E0
2.868756963E0,3.870000243E-1,4.468950272E0,8.869050026E0,9.938879912E0
2.870720017E0,3.490500152E-1,4.507050037E0,8.830050468E0,9.919935848E0
2.872683117E0,4.260000288E-1,4.545000076E0,8.907000542E0,1.000865427E1
2.874646166E0,3.870000243E-1,4.468950272E0,8.869050026E0,9.938879912E0
2.876609247E0,3.870000243E-1,4.545000076E0,8.907000542E0,1.000707017E1
2.878572502E0,3.870000243E-1,4.507050037E0,8.907000542E0,9.989891276E0
2.880535706E0,3.870000243E-1,4.468950272E0,8.907000542E0,9.972760109E0
2.882498987E0,4.260000288E-1,4.507050037E0,8.907000542E0,9.991478105E0
2.884462245E0,3.870000243E-1,4.468950272E0,8.907000542E0,9.972760109E0
2.886425150E0,3.490500152E-1,4.507050037E0,8.944950104E0,1.002234844E1
2.888388131E0,3.109500110E-1,4.507050037E0,8.907000542E0,9.987234282E0
2.890351539E0,3.870000243E-1,4.468950272E0,8.907000542E0,9.972760109E0
2.892314821E0,3.870000243E-1,4.545000076E0,8.907000542E0,1.000707017E1
2.894278044E0,3.870000243E-1,4.468950272E0,8.944950104E0,1.000666867E1
2.896241285E0,4.260000288E-1,4.507050037E0,8.944950104E0,1.002532336E1
2.898204549E0,3.490500152E-1,4.507050037E0,8.907000542E0,9.988493110E0
2.900167812E0,3.870000243E-1,4.468950272E0,8.944950104E0,1.000666867E1
2.902131173E0,3.870000243E-1,4.507050037E0,8.944950104E0,1.002374189E1
2.904094505E0,3.109500110E-1,4.507050037E0,8.944950104E0,1.002109387E1
2.906057539E0,3.870000243E-1,4.468950272E0,8.944950104E0,1.000666867E1
2.908020661E0,3.870000243E-1,4.507050037E0,8.983950615E0,1.005856042E1
2.909983599E0,3.870000243E-1,4.507050037E0,8.907000542E0,9.989891276E0
2.911946588E0,3.870000243E-1,4.468950272E0,8.944950104E0,1.000666867E1
2.913909859E0,3.870000243E-1,4.468950272E0,8.907000542E0,9.972760109E0
2.915873047E0,4.260000288E-1,4.468950272E0,8.944950104E0,1.000825284E1
2.917835881E0,3.490500152E-1,4.468950272E0,8.944950104E0,1.000527285E1
2.919798818E0,3.490500152E-1,4.545000076E0,8.907000542E0,1.000567440E1
2.921761939E0,3.109500110E-1,4.507050037E0,8.983950615E0,1.005592157E1
2.923724991E0,3.490500152E-1,4.507050037E0,8.944950104E0,1.002234844E1
2.925688253E0,3.109500110E-1,4.507050037E0,8.907000542E0,9.987234282E0
2.927651453E0,3.870000243E-1,4.468950272E0,8.983950615E0,1.004154640E1
2.929614734E0,3.870000243E-1,4.507050037E0,8.944950104E0,1.002374189E1
2.931577991E0,4.260000288E-1,4.507050037E0,8.983950615E0,1.006013642E1
2.933541563E0,3.870000243E-1,4.468950272E0,8.944950104E0,1.000666867E1
2.935505053E0,3.490500152E-1,4.507050037E0,8.907000542E0,9.988493110E0
2.937468196E0,2.719500065E-1,4.468950272E0,8.983950615E0,1.003777077E1
2.939431440E0,3.490500152E-1,4.507050037E0,8.907000542E0,9.988493110E0
2.941394353E0,3.490500152E-1,4.507050037E0,8.869050026E0,9.954666459E0
2.943357363E0,3.490500152E-1,4.507050037E0,8.907000542E0,9.988493110E0
2.945320400E0,3.490500152E-1,4.507050037E0,8.869050026E0,9.954666459E0
2.947283433E0,3.490500152E-1,4.468950272E0,8.869050026E0,9.937474569E0
2.949246697E0,3.490500152E-1,4.507050037E0,8.907000542E0,9.988493110E0
2.951209894E0,3.109500110E-1,4.468950272E0,8.944950104E0,1.000401613E1
2.953172997E0,3.109500110E-1,4.468950272E0,8.869050026E0,9.936209277E0
2.955136127E0,3.490500152E-1,4.431000233E0,8.869050026E0,9.920466085E0
2.957099525E0,3.490500152E-1,4.468950272E0,8.869050026E0,9.937474569E0
2.959062833E0,3.490500152E-1,4.507050037E0,8.869050026E0,9.954666459E0
2.961026096E0,3.490500152E-1,4.468950272E0,8.869050026E0,9.937474569E0
2.962989373E0,3.490500152E-1,4.468950272E0,8.869050026E0,9.937474569E0
2.964952551E0,3.870000243E-1,4.507050037E0,8.830050468E0,9.921343676E0
2.966915758E0,3.490500152E-1,4.507050037E0,8.791950226E0,9.886036856E0
2.968878837E0,3.490500152E-1,4.468950272E0,8.830050468E0,9.902683662E0
2.970841968E0,3.490500152E-1,4.468950272E0,8.830050468E0,9.902683662E0
2.972805036E0,3.490500152E-1,4.468950272E0,8.830050468E0,9.902683662E0
2.974768122E0,3.870000243E-1,4.507050037E0,8.869050026E0,9.956069376E0
2.976731152E0,3.870000243E-1,4.468950272E0,8.830050468E0,9.904093943E0
2.978694199E0,3.490500152E-1,4.468950272E0,8.869050026E0,9.937474569E0
2.980657116E0,3.490500152E-1,4.468950272E0,8.830050468E0,9.902683662E0
2.982620060E0,3.870000243E-1,4.468950272E0,8.830050468E0,9.904093943E0
2.984583023E0,3.870000243E-1,4.507050037E0,8.830050468E0,9.921343676E0
2.986545981E0,3.870000243E-1,4.431000233E0,8.830050468E0,9.887028035E0
2.988509079E0,3.870000243E-1,4.507050037E0,8.830050468E0,9.921343676E0
2.990472135E0,4.260000288E-1,4.507050037E0,8.830050468E0,9.922941466E0
2.992435360E0,3.870000243E-1,4.507050037E0,8.830050468E0,9.921343676E0
2.994398529E0,4.260000288E-1,4.507050037E0,8.791950226E0,9.889052778E0
2.996361815E0,4.260000288E-1,4.468950272E0,8.830050468E0,9.905694515E0
2.998325067E0,4.260000288E-1,4.468950272E0,8.830050468E0,9.905694515E0
3.000288430E0,3.870000243E-1,4.468950272E0,8.830050468E0,9.904093943E0
3.002251760E0,4.260000288E-1,4.507050037E0,8.830050468E0,9.922941466E0
3.004214581E0,4.260000288E-1,4.468950272E0,8.791950226E0,9.871746620E0
3.006177575E0,4.260000288E-1,4.468950272E0,8.791950226E0,9.871746620E0
3.008140486E0,3.490500152E-1,4.431000233E0,8.754000664E0,9.817745495E0
3.010103421E0,4.639500082E-1,4.431000233E0,8.791950226E0,9.856338136E0
3.012066747E0,4.260000288E-1,4.431000233E0,8.830050468E0,9.888631370E0
3.014029958E0,4.260000288E-1,4.468950272E0,8.791950226E0,9.871746620E0
3.015993216E0,3.870000243E-1,4.468950272E0,8.791950226E0,9.870140542E0
3.017956443E0,3.490500152E-1,4.431000233E0,8.791950226E0,9.851598233E0
3.019919495E0,4.260000288E-1,4.468950272E0,8.830050468E0,9.905694515E0
3.021882599E0,3.490500152E-1,4.468950272E0,8.830050468E0,9.902683662E0
3.023845671E0,3.870000243E-1,4.468950272E0,8.791950226E0,9.870140542E0
3.025808753E0,3.870000243E-1,4.468950272E0,8.791950226E0,9.870140542E0
3.027771609E0,3.490500152E-1,4.468950272E0,8.869050026E0,9.937474569E0
3.029734527E0,3.490500152E-1,4.507050037E0,8.791950226E0,9.886036856E0
3.031697450E0,3.870000243E-1,4.507050037E0,8.791950226E0,9.887449511E0
3.033660371E0,3.490500152E-1,4.507050037E0,8.830050468E0,9.919935848E0
3.035623475E0,3.870000243E-1,4.468950272E0,8.830050468E0,9.904093943E0
3.037586525E0,3.490500152E-1,4.507050037E0,8.830050468E0,9.919935848E0
3.039549486E0,3.490500152E-1,4.507050037E0,8.830050468E0,9.919935848E0
3.041512464E0,3.870000243E-1,4.468950272E0,8.830050468E0,9.904093943E0
3.043475332E0,3.490500152E-1,4.507050037E0,8.869050026E0,9.954666459E0
3.045438233E0,3.490500152E-1,4.468950272E0,8.791950226E0,9.868725410E0
3.047401339E0,3.490500152E-1,4.507050037E0,8.830050468E0,9.919935848E0
3.049364385E0,3.109500110E-1,4.507050037E0,8.869050026E0,9.953403353E0
3.051327328E0,3.490500152E-1,4.507050037E0,8.869050026E0,9.954666459E0
3.053290305E0,3.490500152E-1,4.468950272E0,8.830050468E0,9.902683662E0
3.055253533E0,2.719500065E-1,4.507050037E0,8.830050468E0,9.917522277E0
3.057216688E0,3.490500152E-1,4.545000076E0,8.869050026E0,9.971906035E0
3.059179572E0,3.109500110E-1,4.507050037E0,8.869050026E0,9.953403353E0
3.061142536E0,3.490500152E-1,4.507050037E0,8.791950226E0,9.886036856E0
3.063105502E0,3.109500110E-1,4.507050037E0,8.869050026E0,9.953403353E0
3.065068464E0,3.109500110E-1,4.468950272E0,8.907000542E0,9.970098550E0
3.067031695E0,3.109500110E-1,4.507050037E0,8.869050026E0,9.953403353E0
3.068994847E0,3.490500152E-1,4.507050037E0,8.907000542E0,9.988493110E0
3.070958271E0,2.719500065E-1,4.507050037E0,8.907000542E0,9.986096109E0
3.072921616E0,3.870000243E-1,4.507050037E0,8.907000542E0,9.989891276E0
3.074884727E0,3.490500152E-1,4.468950272E0,8.907000542E0,9.971359541E0
3.076847883E0,3.109500110E-1,4.507050037E0,8.869050026E0,9.953403353E0
3.078810946E0,2.719500065E-1,4.545000076E0,8.944950104E0,1.003708697E1
3.080774037E0,3.109500110E-1,4.507050037E0,8.869050026E0,9.953403353E0
3.082737066E0,3.109500110E-1,4.507050037E0,8.944950104E0,1.002109387E1
3.084700114E0,2.719500065E-1,4.507050037E0,8.944950104E0,1.001995954E1
3.086663051E0,2.719500065E-1,4.507050037E0,8.944950104E0,1.001995954E1
3.088626027E0,3.109500110E-1,4.507050037E0,8.983950615E0,1.005592157E1
3.090588941E0,3.109500110E-1,4.507050037E0,8.983950615E0,1.005592157E1
3.092551873E0,3.109500110E-1,4.507050037E0,8.944950104E0,1.002109387E1
3.094514794E0,3.109500110E-1,4.545000076E0,8.983950615E0,1.007298785E1
3.096477719E0,3.109500110E-1,4.507050037E0,8.907000542E0,9.987234282E0
3.098440771E0,2.719500065E-1,4.507050037E0,8.944950104E0,1.001995954E1
3.100403789E0,3.490500152E-1,4.468950272E0,8.983950615E0,1.004015543E1
3.102366921E0,3.109500110E-1,4.545000076E0,8.983950615E0,1.007298785E1
3.104330020E0,3.490500152E-1,4.545000076E0,8.944950104E0,1.003947180E1
3.106293049E0,3.109500110E-1,4.545000076E0,8.983950615E0,1.007298785E1
3.108256099E0,3.109500110E-1,4.507050037E0,8.983950615E0,1.005592157E1
3.110219238E0,3.870000243E-1,4.507050037E0,8.869050026E0,9.956069376E0
3.112182341E0,3.870000243E-1,4.468950272E0,8.983950615E0,1.004154640E1
3.114145594E0,3.109500110E-1,4.545000076E0,8.944950104E0,1.003821936E1
3.116108803E0,3.490500152E-1,4.507050037E0,8.983950615E0,1.005717180E1
3.118071994E0,3.490500152E-1,4.468950272E0,8.944950104E0,1.000527285E1
3.120035190E0,3.109500110E-1,4.507050037E0,8.907000542E0,9.987234282E0
3.121998261E0,3.490500152E-1,4.468950272E0,8.907000542E0,9.971359541E0
3.123961358E0,3.490500152E-1,4.468950272E0,8.944950104E0,1.000527285E1
3.125924476E0,3.109500110E-1,4.468950272E0,8.907000542E0,9.970098550E0
3.127887587E0,3.109500110E-1,4.507050037E0,8.907000542E0,9.987234282E0
3.129850614E0,3.109500110E-1,4.468950272E0,8.944950104E0,1.000401613E1
3.131813666E0,3.490500152E-1,4.507050037E0,8.907000542E0,9.988493110E0
3.133776358E0,3.490500152E-1,4.545000076E0,8.907000542E0,1.000567440E1
3.135739176E0,3.870000243E-1,4.468950272E0,8.907000542E0,9.972760109E0
3.137701982E0,3.490500152E-1,4.468950272E0,8.944950104E0,1.000527285E1
3.139664791E0,3.490500152E-1,4.507050037E0,8.944950104E0,1.002234844E1
3.141627868E0,3.490500152E-1,4.468950272E0,8.944950104E0,1.000527285E1
3.143590866E0,3.870000243E-1,4.468950272E0,8.944950104E0,1.000666867E1
3.145553942E0,3.490500152E-1,4.468950272E0,8.907000542E0,9.971359541E0
3.147517005E0,3.109500110E-1,4.507050037E0,8.983950615E0,1.005592157E1
3.149479950E0,3.870000243E-1,4.507050037E0,8.907000542E0,9.989891276E0
3.151442930E0,3.870000243E-1,4.468950272E0,8.907000542E0,9.972760109E0
3.153406158E0,3.870000243E-1,4.468950272E0,8.944950104E0,1.000666867E1
3.155369313E0,3.870000243E-1,4.468950272E0,8.907000542E0,9.972760109E0
3.157332572E0,3.490500152E-1,4.468950272E0,8.830050468E0,9.902683662E0
3.159295789E0,3.490500152E-1,4.468950272E0,8.869050026E0,9.937474569E0
3.161259202E0,4.260000288E-1,4.468950272E0,8.907000542E0,9.974349663E0
3.163222558E0,3.870000243E-1,4.507050037E0,8.830050468E0,9.921343676E0
3.165185814E0,3.870000243E-1,4.431000233E0,8.830050468E0,9.887028035E0
3.167149099E0,4.260000288E-1,4.468950272E0,8.869050026E0,9.940474884E0
3.169112320E0,3.870000243E-1,4.468950272E0,8.869050026E0,9.938879912E0
3.171075560E0,4.260000288E-1,4.507050037E0,8.869050026E0,9.957661594E0
3.173038564E0,4.260000288E-1,4.468950272E0,8.869050026E0,9.940474884E0
3.175001637E0,4.260000288E-1,4.507050037E0,8.869050026E0,9.957661594E0
3.176964759E0,3.870000243E-1,4.468950272E0,8.830050468E0,9.904093943E0
3.178927866E0,3.870000243E-1,4.468950272E0,8.830050468E0,9.904093943E0
3.180891113E0,4.260000288E-1,4.468950272E0,8.869050026E0,9.940474884E0
3.182854323E0,3.870000243E-1,4.468950272E0,8.830050468E0,9.904093943E0
3.184817557E0,3.870000243E-1,4.507050037E0,8.869050026E0,9.956069376E0
3.186780784E0,4.639500082E-1,4.431000233E0,8.830050468E0,9.890338920E0
3.188744196E0,4.260000288E-1,4.507050037E0,8.869050026E0,9.957661594E0
3.190707553E0,4.260000288E-1,4.468950272E0,8.830050468E0,9.905694515E0
3.192670782E0,4.260000288E-1,4.431000233E0,8.830050468E0,9.888631370E0
3.194634036E0,3.490500152E-1,4.468950272E0,8.869050026E0,9.937474569E0
3.196597397E0,4.639500082E-1,4.431000233E0,8.869050026E0,9.925173098E0
3.198560726E0,4.260000288E-1,4.468950272E0,8.830050468E0,9.905694515E0
3.200523626E0,3.870000243E-1,4.468950272E0,8.907000542E0,9.972760109E0
3.202486651E0,4.260000288E-1,4.431000233E0,8.869050026E0,9.923471542E0
3.204449881E0,3.870000243E-1,4.468950272E0,8.869050026E0,9.938879912E0
3.206413044E0,4.260000288E-1,4.468950272E0,8.944950104E0,1.000825284E1
3.208376287E0,4.260000288E-1,4.468950272E0,8.907000542E0,9.974349663E0
3.210339506E0,4.260000288E-1,4.468950272E0,8.869050026E0,9.940474884E0
3.212302604E0,3.870000243E-1,4.468950272E0,8.869050026E0,9.938879912E0
3.214265738E0,3.870000243E-1,4.468950272E0,8.907000542E0,9.972760109E0
3.216228800E0,4.260000288E-1,4.468950272E0,8.869050026E0,9.940474884E0
3.218191887E0,3.870000243E-1,4.468950272E0,8.869050026E0,9.938879912E0
3.220154917E0,3.870000243E-1,4.468950272E0,8.944950104E0,1.000666867E1
3.222117964E0,4.260000288E-1,4.468950272E0,8.869050026E0,9.940474884E0
3.224081271E0,4.639500082E-1,4.468950272E0,8.869050026E0,9.942173530E0
3.226044501E0,4.260000288E-1,4.468950272E0,8.869050026E0,9.940474884E0
3.228007502E0,4.260000288E-1,4.468950272E0,8.830050468E0,9.905694515E0
3.229970574E0,3.870000243E-1,4.468950272E0,8.869050026E0,9.938879912E0
3.231933831E0,3.870000243E-1,4.468950272E0,8.907000542E0,9.972760109E0
3.233897034E0,4.260000288E-1,4.468950272E0,8.830050468E0,9.905694515E0
3.235859955E0,3.870000243E-1,4.468950272E0,8.791950226E0,9.870140542E0
3.237822959E0,3.490500152E-1,4.468950272E0,8.869050026E0,9.937474569E0
3.239786363E0,3.870000243E-1,4.507050037E0,8.830050468E0,9.921343676E0
3.241749649E0,3.870000243E-1,4.507050037E0,8.869050026E0,9.956069376E0
3.243712376E0,3.870000243E-1,4.507050037E0,8.869050026E0,9.956069376E0
3.245675267E0,3.870000243E-1,4.468950272E0,8.791950226E0,9.870140542E0
3.247638330E0,3.870000243E-1,4.507050037E0,8.830050468E0,9.921343676E0
3.249601342E0,3.490500152E-1,4.468950272E0,8.830050468E0,9.902683662E0
3.251564129E0,3.870000243E-1,4.468950272E0,8.830050468E0,9.904093943E0
3.253526973E0,3.490500152E-1,4.507050037E0,8.830050468E0,9.919935848E0
3.255490224E0,3.490500152E-1,4.507050037E0,8.791950226E0,9.886036856E0
3.257453356E0,3.490500152E-1,4.507050037E0,8.869050026E0,9.954666459E0
3.259416244E0,3.109500110E-1,4.545000076E0,8.830050468E0,9.935970354E0
3.261379204E0,3.109500110E-1,4.507050037E0,8.830050468E0,9.918668319E0
3.263341985E0,3.490500152E-1,4.507050037E0,8.869050026E0,9.954666459E0
3.265304819E0,3.109500110E-1,4.507050037E0,8.869050026E0,9.953403353E0
3.267267712E0,3.109500110E-1,4.468950272E0,8.830050468E0,9.901413925E0
3.269230587E0,3.109500110E-1,4.468950272E0,8.944950104E0,1.000401613E1
3.271193563E0,3.490500152E-1,4.507050037E0,8.907000542E0,9.988493110E0
3.273156510E0,3.109500110E-1,4.507050037E0,8.944950104E0,1.002109387E1
3.275119440E0,2.719500065E-1,4.545000076E0,8.869050026E0,9.969505046E0
3.277082368E0,3.109500110E-1,4.545000076E0,8.907000542E0,1.000441774E1
3.279045469E0,3.109500110E-1,4.545000076E0,8.907000542E0,1.000441774E1
3.281008520E0,2.719500065E-1,4.545000076E0,8.907000542E0,1.000328152E1
3.282971917E0,3.490500152E-1,4.545000076E0,8.907000542E0,1.000567440E1
3.284935212E0,3.490500152E-1,4.545000076E0,8.944950104E0,1.003947180E1
3.286898418E0,2.719500065E-1,4.584000111E0,8.907000542E0,1.002106144E1
3.288861661E0,2.719500065E-1,4.545000076E0,8.907000542E0,1.000328152E1
3.290824709E0,2.719500065E-1,4.545000076E0,8.869050026E0,9.969505046E0
3.292787814E0,2.340000123E-1,4.584000111E0,8.869050026E0,9.986383799E0
3.294750930E0,2.340000123E-1,4.545000076E0,8.907000542E0,1.000232175E1
3.296714043E0,2.340000123E-1,4.545000076E0,8.869050026E0,9.968542023E0
3.298677235E0,2.340000123E-1,4.507050037E0,8.830050468E0,9.916554206E0
3.300640414E0,2.719500065E-1,4.545000076E0,8.830050468E0,9.934826308E0
3.302602979E0,2.719500065E-1,4.584000111E0,8.791950226E0,9.918941607E0
3.304565724E0,2.719500065E-1,4.584000111E0,8.791950226E0,9.918941607E0
3.306528676E0,2.340000123E-1,4.545000076E0,8.830050468E0,9.933859923E0
3.308491568E0,2.719500065E-1,4.507050037E0,8.830050468E0,9.917522277E0
3.310454477E0,1.960500032E-1,4.545000076E0,8.830050468E0,9.933038436E0
3.312417395E0,2.719500065E-1,4.584000111E0,8.830050468E0,9.952728525E0
3.314380094E0,2.719500065E-1,4.545000076E0,8.791950226E0,9.900978299E0
3.316342858E0,3.109500110E-1,4.507050037E0,8.869050026E0,9.953403353E0
3.318305852E0,3.109500110E-1,4.507050037E0,8.830050468E0,9.918668319E0
3.320268779E0,3.490500152E-1,4.507050037E0,8.830050468E0,9.919935848E0
3.322231891E0,3.109500110E-1,4.507050037E0,8.869050026E0,9.953403353E0
3.324194942E0,3.870000243E-1,4.468950272E0,8.869050026E0,9.938879912E0
3.326157800E0,3.109500110E-1,4.468950272E0,8.869050026E0,9.936209277E0
3.328120714E0,3.109500110E-1,4.468950272E0,8.869050026E0,9.936209277E0
3.330083637E0,3.870000243E-1,4.468950272E0,8.869050026E0,9.938879912E0
3.332046558E0,3.490500152E-1,4.468950272E0,8.869050026E0,9.937474569E0
3.334009863E0,3.109500110E-1,4.468950272E0,8.869050026E0,9.936209277E0
3.335973072E0,3.490500152E-1,4.431000233E0,8.869050026E0,9.920466085E0
