"Time (s)","Acceleration x (m/s^2)","Acceleration y (m/s^2)","Acceleration z (m/s^2)","Absolute acceleration (m/s^2)"
3.398122500E-2,3.490500152E-1,4.276950359E0,8.983950615E0,9.956179435E0
3.594270400E-2,3.490500152E-1,4.276950359E0,8.983950615E0,9.956179435E0
3.790676400E-2,3.870000243E-1,4.315950394E0,8.944950104E0,9.939282126E0
3.986949200E-2,3.870000243E-1,4.315950394E0,8.983950615E0,9.974395494E0
4.183261000E-2,3.490500152E-1,4.239000320E0,8.907000542E0,9.870441646E0
4.379569100E-2,3.870000243E-1,4.276950359E0,8.944950104E0,9.922409272E0
4.575880700E-2,3.870000243E-1,4.276950359E0,8.907000542E0,9.888211772E0
4.772201100E-2,3.870000243E-1,4.276950359E0,8.907000542E0,9.888211772E0
4.968518900E-2,4.260000288E-1,4.239000320E0,8.869050026E0,9.839240220E0
5.164811400E-2,4.639500082E-1,4.276950359E0,8.944950104E0,9.925708355E0
5.361111400E-2,3.490500152E-1,4.276950359E0,8.907000542E0,9.886799226E0
5.557398500E-2,4.260000288E-1,4.239000320E0,8.907000542E0,9.873462330E0
5.753692100E-2,3.870000243E-1,4.239000320E0,8.907000542E0,9.871856532E0
5.950002100E-2,3.870000243E-1,4.239000320E0,8.907000542E0,9.871856532E0
6.146307300E-2,4.260000288E-1,4.276950359E0,8.907000542E0,9.889814915E0
6.342593000E-2,4.260000288E-1,4.276950359E0,8.944950104E0,9.924006890E0
6.538884400E-2,4.260000288E-1,4.276950359E0,8.907000542E0,9.889814915E0
6.735162300E-2,4.260000288E-1,4.276950359E0,8.944950104E0,9.924006890E0
6.931444900E-2,4.639500082E-1,4.239000320E0,8.944950104E0,9.909415002E0
7.127752300E-2,4.260000288E-1,4.239000320E0,8.907000542E0,9.873462330E0
7.324052400E-2,4.639500082E-1,4.276950359E0,8.907000542E0,9.891522261E0
7.520343500E-2,4.639500082E-1,4.239000320E0,8.907000542E0,9.875172504E0
7.716637200E-2,4.639500082E-1,4.276950359E0,8.944950104E0,9.925708355E0
7.912930400E-2,4.260000288E-1,4.276950359E0,8.907000542E0,9.889814915E0
8.109226000E-2,4.639500082E-1,4.276950359E0,8.907000542E0,9.891522261E0
8.305499900E-2,4.260000288E-1,4.276950359E0,8.907000542E0,9.889814915E0
8.501780100E-2,4.260000288E-1,4.239000320E0,8.944950104E0,9.907710740E0
8.698110400E-2,4.260000288E-1,4.315950394E0,8.944950104E0,9.940877033E0
8.894426000E-2,3.870000243E-1,4.276950359E0,8.907000542E0,9.888211772E0
9.090741100E-2,4.260000288E-1,4.276950359E0,8.983950615E0,9.959174115E0
9.287059700E-2,4.260000288E-1,4.276950359E0,8.944950104E0,9.924006890E0
9.483383500E-2,3.870000243E-1,4.276950359E0,8.944950104E0,9.922409272E0
9.679705800E-2,4.260000288E-1,4.276950359E0,8.983950615E0,9.959174115E0
9.876029000E-2,4.260000288E-1,4.276950359E0,8.983950615E0,9.959174115E0
1.007235200E-1,3.870000243E-1,4.315950394E0,8.983950615E0,9.974395494E0
1.026867770E-1,4.260000288E-1,4.315950394E0,9.022050858E0,1.001030996E1
1.046500390E-1,4.260000288E-1,4.276950359E0,8.983950615E0,9.959174115E0
1.066134450E-1,4.260000288E-1,4.315950394E0,8.944950104E0,9.940877033E0
1.085768090E-1,4.260000288E-1,4.315950394E0,8.983950615E0,9.975984787E0
1.105396120E-1,4.260000288E-1,4.276950359E0,8.983950615E0,9.959174115E0
1.125025800E-1,3.870000243E-1,4.276950359E0,8.983950615E0,9.957582139E0
1.144658760E-1,3.870000243E-1,4.276950359E0,8.983950615E0,9.957582139E0
1.164290920E-1,3.870000243E-1,4.276950359E0,8.944950104E0,9.922409272E0
1.183919660E-1,3.490500152E-1,4.276950359E0,8.907000542E0,9.886799226E0
1.203549400E-1,3.870000243E-1,4.276950359E0,8.907000542E0,9.888211772E0
1.223181690E-1,3.870000243E-1,4.276950359E0,8.944950104E0,9.922409272E0
1.242813230E-1,3.109500110E-1,4.276950359E0,8.944950104E0,9.919734202E0
1.262444280E-1,3.490500152E-1,4.315950394E0,8.983950615E0,9.972995155E0
1.282075510E-1,3.870000243E-1,4.276950359E0,8.983950615E0,9.957582139E0
1.301706200E-1,3.490500152E-1,4.276950359E0,8.944950104E0,9.921001595E0
1.321337050E-1,3.109500110E-1,4.315950394E0,8.944950104E0,9.936611599E0
1.340969140E-1,3.490500152E-1,4.354050159E0,8.983950615E0,9.989542400E0
1.360600870E-1,3.490500152E-1,4.315950394E0,8.983950615E0,9.972995155E0
1.380233870E-1,3.490500152E-1,4.315950394E0,8.983950615E0,9.972995155E0
1.399866400E-1,4.260000288E-1,4.315950394E0,8.983950615E0,9.975984787E0
1.419498680E-1,3.490500152E-1,4.315950394E0,9.022050858E0,1.000733058E1
1.439131030E-1,3.490500152E-1,4.276950359E0,9.022050858E0,9.990572655E0
1.458761530E-1,3.870000243E-1,4.276950359E0,9.022050858E0,9.991970530E0
1.478392570E-1,3.490500152E-1,4.315950394E0,9.022050858E0,1.000733058E1
1.498019210E-1,3.490500152E-1,4.354050159E0,9.022050858E0,1.002382115E1
1.517647480E-1,3.490500152E-1,4.315950394E0,9.022050858E0,1.000733058E1
1.537278660E-1,3.109500110E-1,4.315950394E0,9.060000420E0,1.004030504E1
1.556908990E-1,3.109500110E-1,4.315950394E0,9.022050858E0,1.000607412E1
1.576541190E-1,3.490500152E-1,4.315950394E0,9.060000420E0,1.004155722E1
1.596172840E-1,3.870000243E-1,4.315950394E0,9.060000420E0,1.004294799E1
1.615803540E-1,3.490500152E-1,4.315950394E0,9.060000420E0,1.004155722E1
1.635434790E-1,3.870000243E-1,4.315950394E0,9.060000420E0,1.004294799E1
1.655063220E-1,3.490500152E-1,4.354050159E0,9.098999977E0,1.009313575E1
1.674692480E-1,3.490500152E-1,4.354050159E0,9.175050735E0,1.016174910E1
1.694321700E-1,3.870000243E-1,4.315950394E0,9.098999977E0,1.007814454E1
1.713950940E-1,2.719500065E-1,4.354050159E0,9.060000420E0,1.005561123E1
1.733583570E-1,3.490500152E-1,4.315950394E0,9.022050858E0,1.000733058E1
1.753215340E-1,3.109500110E-1,4.315950394E0,9.098999977E0,1.007551082E1
1.772844600E-1,2.719500065E-1,4.315950394E0,9.022050858E0,1.000493809E1
1.792474590E-1,3.109500110E-1,4.315950394E0,9.060000420E0,1.004030504E1
1.812105030E-1,3.109500110E-1,4.354050159E0,9.098999977E0,1.009188998E1
1.831735340E-1,2.719500065E-1,4.354050159E0,9.022050858E0,1.002143260E1
1.851364560E-1,2.719500065E-1,4.315950394E0,9.060000420E0,1.003917288E1
1.870994300E-1,3.109500110E-1,4.354050159E0,9.060000420E0,1.005674154E1
1.890621190E-1,2.719500065E-1,4.354050159E0,8.983950615E0,9.987145651E0
1.910248910E-1,2.719500065E-1,4.354050159E0,8.944950104E0,9.952077268E0
1.929877040E-1,2.340000123E-1,4.354050159E0,8.983950615E0,9.986184329E0
1.949505050E-1,2.340000123E-1,4.354050159E0,8.983950615E0,9.986184329E0
1.969132050E-1,2.719500065E-1,4.392000198E0,8.983950615E0,1.000374886E1
1.988759490E-1,2.719500065E-1,4.354050159E0,8.983950615E0,9.987145651E0
2.008389020E-1,2.719500065E-1,4.315950394E0,8.983950615E0,9.970594429E0
2.028017940E-1,3.109500110E-1,4.315950394E0,8.983950615E0,9.971734371E0
2.047645880E-1,3.109500110E-1,4.315950394E0,8.983950615E0,9.971734371E0
2.067274110E-1,2.719500065E-1,4.354050159E0,8.983950615E0,9.987145651E0
2.086901040E-1,3.490500152E-1,4.354050159E0,8.983950615E0,9.989542400E0
2.106528820E-1,3.109500110E-1,4.315950394E0,9.022050858E0,1.000607412E1
2.126160090E-1,3.490500152E-1,4.354050159E0,9.022050858E0,1.002382115E1
2.145790340E-1,3.490500152E-1,4.354050159E0,8.983950615E0,9.989542400E0
2.165415800E-1,3.490500152E-1,4.315950394E0,8.983950615E0,9.972995155E0
2.185042670E-1,3.109500110E-1,4.315950394E0,8.983950615E0,9.971734371E0
2.204672030E-1,3.490500152E-1,4.315950394E0,8.983950615E0,9.972995155E0
2.224300530E-1,3.870000243E-1,4.315950394E0,8.983950615E0,9.974395494E0
2.243929890E-1,3.109500110E-1,4.315950394E0,8.983950615E0,9.971734371E0
2.263558990E-1,3.109500110E-1,4.315950394E0,8.983950615E0,9.971734371E0
2.283188700E-1,3.490500152E-1,4.315950394E0,9.022050858E0,1.000733058E1
2.302818230E-1,3.109500110E-1,4.276950359E0,8.944950104E0,9.919734202E0
2.322445710E-1,3.870000243E-1,4.315950394E0,8.944950104E0,9.939282126E0
2.342073720E-1,3.490500152E-1,4.276950359E0,8.944950104E0,9.921001595E0
2.361700910E-1,3.490500152E-1,4.315950394E0,8.944950104E0,9.937876839E0
2.381328340E-1,3.490500152E-1,4.276950359E0,8.944950104E0,9.921001595E0
2.400956510E-1,3.109500110E-1,4.276950359E0,8.907000542E0,9.885527449E0
2.420584470E-1,3.870000243E-1,4.315950394E0,8.907000542E0,9.905142880E0
2.440213430E-1,3.490500152E-1,4.315950394E0,8.869050026E0,9.869615599E0
2.459842120E-1,3.490500152E-1,4.276950359E0,8.907000542E0,9.886799226E0
2.479473250E-1,3.490500152E-1,4.276950359E0,8.907000542E0,9.886799226E0
2.499103660E-1,3.490500152E-1,4.276950359E0,8.907000542E0,9.886799226E0
2.518731350E-1,3.490500152E-1,4.276950359E0,8.907000542E0,9.886799226E0
2.538359830E-1,3.490500152E-1,4.276950359E0,8.869050026E0,9.852623440E0
2.557990280E-1,3.870000243E-1,4.276950359E0,8.944950104E0,9.922409272E0
2.577620330E-1,3.490500152E-1,4.276950359E0,8.869050026E0,9.852623440E0
2.597249440E-1,3.490500152E-1,4.315950394E0,8.869050026E0,9.869615599E0
2.616878820E-1,3.490500152E-1,4.315950394E0,8.907000542E0,9.903732749E0
2.636511620E-1,3.490500152E-1,4.276950359E0,8.907000542E0,9.886799226E0
2.656143410E-1,3.490500152E-1,4.315950394E0,8.907000542E0,9.903732749E0
2.675772160E-1,3.870000243E-1,4.315950394E0,8.907000542E0,9.905142880E0
2.695401840E-1,3.490500152E-1,4.315950394E0,8.944950104E0,9.937876839E0
2.715031440E-1,3.490500152E-1,4.315950394E0,8.944950104E0,9.937876839E0
2.734661070E-1,3.490500152E-1,4.315950394E0,8.944950104E0,9.937876839E0
2.754289790E-1,3.109500110E-1,4.315950394E0,8.944950104E0,9.936611599E0
2.773918770E-1,3.490500152E-1,4.315950394E0,8.944950104E0,9.937876839E0
2.793546330E-1,3.870000243E-1,4.315950394E0,8.983950615E0,9.974395494E0
2.813174240E-1,3.490500152E-1,4.276950359E0,8.907000542E0,9.886799226E0
2.832804140E-1,3.870000243E-1,4.239000320E0,8.944950104E0,9.906110493E0
2.852433450E-1,3.870000243E-1,4.315950394E0,8.983950615E0,9.974395494E0
2.872060880E-1,3.490500152E-1,4.276950359E0,8.944950104E0,9.921001595E0
2.891688860E-1,3.109500110E-1,4.276950359E0,8.944950104E0,9.919734202E0
2.911318150E-1,3.870000243E-1,4.276950359E0,8.983950615E0,9.957582139E0
2.930947160E-1,3.490500152E-1,4.276950359E0,8.944950104E0,9.921001595E0
2.950576430E-1,3.870000243E-1,4.315950394E0,8.944950104E0,9.939282126E0
2.970205620E-1,3.870000243E-1,4.315950394E0,8.944950104E0,9.939282126E0
2.989831270E-1,3.870000243E-1,4.315950394E0,8.944950104E0,9.939282126E0
3.009457950E-1,3.870000243E-1,4.276950359E0,8.907000542E0,9.888211772E0
3.029087800E-1,3.870000243E-1,4.276950359E0,8.983950615E0,9.957582139E0
3.048716580E-1,3.490500152E-1,4.276950359E0,9.022050858E0,9.990572655E0
3.068344090E-1,3.870000243E-1,4.315950394E0,8.944950104E0,9.939282126E0
3.087971980E-1,3.490500152E-1,4.315950394E0,8.944950104E0,9.937876839E0
3.107605040E-1,3.490500152E-1,4.276950359E0,8.983950615E0,9.956179435E0
3.127236580E-1,3.490500152E-1,4.276950359E0,9.022050858E0,9.990572655E0
3.146867040E-1,3.870000243E-1,4.315950394E0,8.944950104E0,9.939282126E0
3.166497950E-1,4.260000288E-1,4.276950359E0,8.983950615E0,9.959174115E0
3.186126890E-1,3.109500110E-1,4.276950359E0,8.944950104E0,9.919734202E0
3.205756410E-1,3.490500152E-1,4.354050159E0,8.983950615E0,9.989542400E0
3.225388740E-1,3.490500152E-1,4.315950394E0,8.983950615E0,9.972995155E0
3.245020240E-1,3.109500110E-1,4.354050159E0,8.983950615E0,9.988283704E0
3.264649200E-1,3.109500110E-1,4.315950394E0,8.983950615E0,9.971734371E0
3.284279150E-1,3.490500152E-1,4.315950394E0,8.983950615E0,9.972995155E0
3.303906000E-1,3.490500152E-1,4.276950359E0,8.983950615E0,9.956179435E0
3.323533760E-1,3.490500152E-1,4.276950359E0,8.983950615E0,9.956179435E0
3.343163230E-1,3.490500152E-1,4.276950359E0,8.983950615E0,9.956179435E0
3.362792200E-1,3.870000243E-1,4.276950359E0,9.022050858E0,9.991970530E0
3.382423330E-1,3.490500152E-1,4.276950359E0,9.022050858E0,9.990572655E0
3.402053790E-1,3.870000243E-1,4.315950394E0,9.022050858E0,1.000872612E1
3.421681470E-1,3.870000243E-1,4.315950394E0,8.983950615E0,9.974395494E0
3.441309970E-1,3.490500152E-1,4.276950359E0,8.983950615E0,9.956179435E0
3.460937520E-1,3.490500152E-1,4.315950394E0,9.022050858E0,1.000733058E1
3.480565350E-1,3.870000243E-1,4.315950394E0,8.907000542E0,9.905142880E0
3.500190960E-1,3.490500152E-1,4.315950394E0,8.983950615E0,9.972995155E0
3.519817080E-1,3.109500110E-1,4.276950359E0,8.944950104E0,9.919734202E0
3.539445480E-1,3.490500152E-1,4.276950359E0,9.022050858E0,9.990572655E0
3.559073210E-1,3.490500152E-1,4.315950394E0,8.944950104E0,9.937876839E0
3.578700460E-1,3.490500152E-1,4.276950359E0,8.983950615E0,9.956179435E0
3.598327850E-1,3.109500110E-1,4.315950394E0,8.944950104E0,9.936611599E0
3.617955480E-1,3.109500110E-1,4.315950394E0,8.944950104E0,9.936611599E0
3.637583110E-1,2.719500065E-1,4.276950359E0,8.944950104E0,9.918588284E0
3.657209470E-1,3.109500110E-1,4.354050159E0,8.907000542E0,9.919128054E0
3.676836210E-1,3.109500110E-1,4.315950394E0,8.907000542E0,9.902463146E0
3.696463610E-1,3.490500152E-1,4.315950394E0,8.907000542E0,9.903732749E0
3.716090810E-1,3.490500152E-1,4.354050159E0,8.907000542E0,9.920395524E0
3.735720300E-1,3.109500110E-1,4.354050159E0,8.907000542E0,9.919128054E0
3.755349180E-1,3.490500152E-1,4.354050159E0,8.907000542E0,9.920395524E0
3.774978470E-1,3.109500110E-1,4.315950394E0,8.907000542E0,9.902463146E0
3.794607640E-1,3.109500110E-1,4.354050159E0,8.944950104E0,9.953219331E0
3.814235090E-1,3.490500152E-1,4.354050159E0,8.944950104E0,9.954482461E0
3.833863040E-1,3.109500110E-1,4.392000198E0,8.944950104E0,9.969879037E0
3.853491220E-1,3.109500110E-1,4.354050159E0,8.983950615E0,9.988283704E0
3.873119270E-1,3.109500110E-1,4.354050159E0,8.944950104E0,9.953219331E0
3.892750510E-1,3.109500110E-1,4.354050159E0,8.944950104E0,9.953219331E0
3.912380810E-1,3.490500152E-1,4.392000198E0,8.944950104E0,9.971140056E0
3.932011210E-1,3.109500110E-1,4.354050159E0,8.907000542E0,9.919128054E0
3.951641580E-1,2.719500065E-1,4.354050159E0,8.907000542E0,9.917982065E0
3.971267710E-1,3.109500110E-1,4.392000198E0,8.944950104E0,9.969879037E0
3.990894910E-1,3.490500152E-1,4.354050159E0,9.022050858E0,1.002382115E1
4.010522680E-1,3.109500110E-1,4.354050159E0,8.944950104E0,9.953219331E0
4.030150280E-1,3.490500152E-1,4.392000198E0,8.944950104E0,9.971140056E0
4.049777990E-1,3.109500110E-1,4.354050159E0,8.907000542E0,9.919128054E0
4.069405660E-1,3.109500110E-1,4.354050159E0,8.944950104E0,9.953219331E0
4.089033120E-1,3.109500110E-1,4.354050159E0,8.944950104E0,9.953219331E0
4.108660810E-1,3.109500110E-1,4.354050159E0,8.907000542E0,9.919128054E0
4.128292110E-1,3.109500110E-1,4.354050159E0,8.944950104E0,9.953219331E0
4.147922350E-1,3.109500110E-1,4.392000198E0,8.907000542E0,9.935844921E0
4.167551420E-1,2.719500065E-1,4.315950394E0,8.944950104E0,9.935467627E0
4.187180830E-1,3.109500110E-1,4.354050159E0,8.907000542E0,9.919128054E0
4.206813170E-1,3.490500152E-1,4.392000198E0,8.983950615E0,1.000614163E1
4.226444650E-1,3.490500152E-1,4.354050159E0,8.907000542E0,9.920395524E0
4.246072160E-1,3.109500110E-1,4.354050159E0,8.944950104E0,9.953219331E0
4.265700830E-1,3.490500152E-1,4.354050159E0,8.944950104E0,9.954482461E0
4.285329690E-1,3.490500152E-1,4.392000198E0,8.944950104E0,9.971140056E0
4.304958500E-1,3.870000243E-1,4.354050159E0,8.907000542E0,9.921803287E0
4.324588200E-1,3.109500110E-1,4.315950394E0,8.983950615E0,9.971734371E0
4.344217680E-1,3.490500152E-1,4.315950394E0,8.983950615E0,9.972995155E0
4.363848220E-1,3.109500110E-1,4.354050159E0,8.983950615E0,9.988283704E0
4.383478450E-1,3.109500110E-1,4.392000198E0,8.944950104E0,9.969879037E0
4.403105720E-1,3.109500110E-1,4.392000198E0,8.944950104E0,9.969879037E0
4.422733850E-1,3.490500152E-1,4.315950394E0,8.983950615E0,9.972995155E0
4.442361880E-1,3.109500110E-1,4.392000198E0,8.983950615E0,1.000488502E1
4.461989970E-1,3.109500110E-1,4.354050159E0,8.944950104E0,9.953219331E0
4.481620740E-1,3.109500110E-1,4.354050159E0,8.983950615E0,9.988283704E0
4.501250720E-1,3.109500110E-1,4.315950394E0,8.944950104E0,9.936611599E0
4.520878480E-1,3.109500110E-1,4.354050159E0,8.907000542E0,9.919128054E0
4.540506890E-1,3.490500152E-1,4.315950394E0,8.944950104E0,9.937876839E0
4.560132660E-1,3.109500110E-1,4.315950394E0,8.983950615E0,9.971734371E0
4.579759200E-1,3.490500152E-1,4.315950394E0,8.944950104E0,9.937876839E0
4.599388430E-1,3.490500152E-1,4.315950394E0,8.983950615E0,9.972995155E0
4.619016870E-1,3.870000243E-1,4.315950394E0,8.944950104E0,9.939282126E0
4.638648490E-1,3.870000243E-1,4.315950394E0,8.983950615E0,9.974395494E0
4.658279180E-1,3.870000243E-1,4.276950359E0,8.944950104E0,9.922409272E0
4.677908120E-1,3.870000243E-1,4.276950359E0,8.944950104E0,9.922409272E0
4.697537610E-1,3.490500152E-1,4.315950394E0,8.944950104E0,9.937876839E0
4.717168590E-1,3.870000243E-1,4.354050159E0,8.944950104E0,9.955885404E0
4.736799130E-1,3.870000243E-1,4.315950394E0,9.022050858E0,1.000872612E1
4.756428150E-1,3.490500152E-1,4.315950394E0,8.983950615E0,9.972995155E0
4.776057610E-1,4.260000288E-1,4.276950359E0,8.983950615E0,9.959174115E0
4.795688090E-1,3.870000243E-1,4.276950359E0,8.944950104E0,9.922409272E0
4.815318310E-1,3.870000243E-1,4.276950359E0,9.022050858E0,9.991970530E0
4.834950980E-1,3.490500152E-1,4.276950359E0,8.983950615E0,9.956179435E0
4.854582930E-1,4.260000288E-1,4.239000320E0,9.022050858E0,9.977374475E0
4.874213500E-1,3.870000243E-1,4.276950359E0,8.983950615E0,9.957582139E0
4.893844480E-1,3.870000243E-1,4.315950394E0,9.022050858E0,1.000872612E1
4.913475070E-1,3.870000243E-1,4.276950359E0,8.983950615E0,9.957582139E0
4.933105880E-1,3.870000243E-1,4.276950359E0,8.944950104E0,9.922409272E0
4.952734840E-1,4.260000288E-1,4.276950359E0,9.022050858E0,9.993557028E0
4.972364350E-1,3.870000243E-1,4.315950394E0,8.907000542E0,9.905142880E0
4.991991730E-1,3.870000243E-1,4.276950359E0,9.022050858E0,9.991970530E0
5.011619730E-1,3.870000243E-1,4.276950359E0,8.869050026E0,9.854040885E0
5.031249800E-1,4.260000288E-1,4.239000320E0,8.983950615E0,9.942935602E0
5.050879130E-1,4.260000288E-1,4.276950359E0,9.022050858E0,9.993557028E0
5.070511950E-1,4.260000288E-1,4.239000320E0,9.022050858E0,9.977374475E0
5.090143750E-1,3.870000243E-1,4.239000320E0,8.983950615E0,9.941341026E0
5.109772550E-1,3.870000243E-1,4.239000320E0,8.983950615E0,9.941341026E0
5.129402230E-1,4.260000288E-1,4.239000320E0,8.983950615E0,9.942935602E0
5.149033270E-1,3.870000243E-1,4.276950359E0,8.944950104E0,9.922409272E0
5.168663840E-1,4.639500082E-1,4.276950359E0,8.983950615E0,9.960869572E0
5.188294200E-1,4.260000288E-1,4.276950359E0,8.944950104E0,9.924006890E0
5.207924630E-1,4.260000288E-1,4.239000320E0,8.983950615E0,9.942935602E0
5.227557250E-1,4.260000288E-1,4.239000320E0,8.944950104E0,9.907710740E0
5.247189220E-1,4.260000288E-1,4.239000320E0,8.944950104E0,9.907710740E0
5.266820540E-1,3.870000243E-1,4.276950359E0,9.022050858E0,9.991970530E0
5.286451840E-1,4.639500082E-1,4.276950359E0,8.944950104E0,9.925708355E0
5.306084310E-1,4.260000288E-1,4.239000320E0,8.983950615E0,9.942935602E0
5.325716430E-1,3.870000243E-1,4.315950394E0,8.944950104E0,9.939282126E0
5.345346980E-1,3.490500152E-1,4.276950359E0,8.983950615E0,9.956179435E0
5.364977990E-1,3.870000243E-1,4.239000320E0,8.983950615E0,9.941341026E0
5.384610060E-1,3.870000243E-1,4.276950359E0,9.022050858E0,9.991970530E0
5.404241820E-1,3.870000243E-1,4.276950359E0,8.983950615E0,9.957582139E0
5.423874220E-1,3.870000243E-1,4.276950359E0,8.983950615E0,9.957582139E0
5.443506430E-1,3.870000243E-1,4.276950359E0,9.022050858E0,9.991970530E0
5.463135620E-1,3.490500152E-1,4.315950394E0,9.060000420E0,1.004155722E1
5.482765690E-1,3.109500110E-1,4.315950394E0,9.022050858E0,1.000607412E1
5.502392470E-1,3.490500152E-1,4.315950394E0,9.022050858E0,1.000733058E1
5.522020250E-1,3.490500152E-1,4.315950394E0,9.022050858E0,1.000733058E1
5.541651520E-1,3.490500152E-1,4.315950394E0,8.983950615E0,9.972995155E0
5.561281770E-1,3.490500152E-1,4.354050159E0,9.022050858E0,1.002382115E1
5.580912630E-1,3.109500110E-1,4.315950394E0,9.060000420E0,1.004030504E1
5.600543310E-1,3.109500110E-1,4.354050159E0,8.944950104E0,9.953219331E0
5.620172350E-1,3.109500110E-1,4.392000198E0,8.983950615E0,1.000488502E1
5.639801840E-1,3.490500152E-1,4.276950359E0,8.907000542E0,9.886799226E0
5.659435070E-1,3.109500110E-1,4.354050159E0,8.944950104E0,9.953219331E0
5.679067200E-1,3.109500110E-1,4.315950394E0,8.944950104E0,9.936611599E0
5.698701350E-1,3.109500110E-1,4.354050159E0,8.944950104E0,9.953219331E0
5.718334900E-1,3.109500110E-1,4.315950394E0,8.907000542E0,9.902463146E0
5.737965010E-1,3.109500110E-1,4.315950394E0,8.907000542E0,9.902463146E0
5.757596270E-1,3.490500152E-1,4.354050159E0,8.907000542E0,9.920395524E0
5.777224700E-1,2.719500065E-1,4.315950394E0,8.907000542E0,9.901315229E0
5.796853960E-1,3.490500152E-1,4.315950394E0,8.869050026E0,9.869615599E0
5.816485430E-1,3.109500110E-1,4.315950394E0,8.869050026E0,9.868341607E0
5.836116250E-1,3.109500110E-1,4.276950359E0,8.907000542E0,9.885527449E0
5.855749770E-1,3.490500152E-1,4.315950394E0,8.907000542E0,9.903732749E0
5.875382780E-1,3.870000243E-1,4.354050159E0,8.907000542E0,9.921803287E0
5.895016770E-1,3.109500110E-1,4.354050159E0,8.907000542E0,9.919128054E0
5.914650470E-1,3.490500152E-1,4.315950394E0,8.907000542E0,9.903732749E0
5.934282550E-1,3.870000243E-1,4.315950394E0,8.907000542E0,9.905142880E0
5.953915110E-1,3.870000243E-1,4.315950394E0,8.907000542E0,9.905142880E0
5.973544370E-1,3.870000243E-1,4.354050159E0,8.944950104E0,9.955885404E0
5.993174490E-1,3.490500152E-1,4.315950394E0,8.944950104E0,9.937876839E0
6.012803120E-1,3.490500152E-1,4.315950394E0,8.983950615E0,9.972995155E0
6.032432180E-1,3.490500152E-1,4.354050159E0,9.022050858E0,1.002382115E1
6.052061430E-1,3.490500152E-1,4.315950394E0,8.983950615E0,9.972995155E0
6.071690620E-1,3.490500152E-1,4.354050159E0,9.060000420E0,1.005799166E1
6.091318360E-1,3.490500152E-1,4.392000198E0,9.022050858E0,1.004036371E1
6.110946320E-1,3.870000243E-1,4.315950394E0,8.944950104E0,9.939282126E0
6.130576210E-1,3.490500152E-1,4.354050159E0,9.022050858E0,1.002382115E1
6.150205530E-1,3.870000243E-1,4.392000198E0,8.983950615E0,1.000753733E1
6.169838350E-1,3.490500152E-1,4.392000198E0,9.060000420E0,1.007447811E1
6.189470140E-1,3.109500110E-1,4.354050159E0,9.060000420E0,1.005674154E1
6.209102230E-1,3.109500110E-1,4.354050159E0,8.983950615E0,9.988283704E0
6.228734130E-1,3.109500110E-1,4.392000198E0,8.983950615E0,1.000488502E1
6.248366960E-1,2.719500065E-1,4.354050159E0,9.022050858E0,1.002143260E1
6.267999510E-1,3.490500152E-1,4.354050159E0,8.983950615E0,9.989542400E0
6.287629990E-1,2.719500065E-1,4.354050159E0,8.983950615E0,9.987145651E0
6.307261070E-1,2.719500065E-1,4.354050159E0,9.022050858E0,1.002143260E1
6.326893130E-1,3.109500110E-1,4.354050159E0,8.983950615E0,9.988283704E0
6.346524900E-1,2.719500065E-1,4.431000233E0,9.022050858E0,1.005510425E1
6.366157300E-1,2.340000123E-1,4.392000198E0,9.022050858E0,1.003702264E1
6.385789510E-1,2.719500065E-1,4.392000198E0,9.022050858E0,1.003797909E1
6.405421840E-1,2.340000123E-1,4.392000198E0,9.022050858E0,1.003702264E1
6.425054130E-1,2.340000123E-1,4.431000233E0,9.022050858E0,1.005414943E1
6.444687030E-1,2.340000123E-1,4.392000198E0,8.983950615E0,1.000278913E1
6.464319650E-1,2.340000123E-1,4.392000198E0,9.060000420E0,1.007114836E1
6.483951470E-1,3.109500110E-1,4.392000198E0,9.022050858E0,1.003911138E1
6.503583520E-1,1.960500032E-1,4.431000233E0,8.944950104E0,9.984204076E0
6.523214070E-1,1.960500032E-1,4.354050159E0,8.983950615E0,9.985367146E0
6.542845060E-1,2.340000123E-1,4.468950272E0,9.022050858E0,1.007093214E1
6.562477630E-1,1.960500032E-1,4.392000198E0,9.022050858E0,1.003620959E1
6.582109700E-1,2.340000123E-1,4.392000198E0,9.060000420E0,1.007114836E1
6.601738910E-1,1.960500032E-1,4.392000198E0,9.022050858E0,1.003620959E1
6.621368960E-1,2.340000123E-1,4.392000198E0,9.060000420E0,1.007114836E1
6.640999840E-1,2.719500065E-1,4.392000198E0,8.983950615E0,1.000374886E1
6.660630470E-1,2.340000123E-1,4.392000198E0,9.022050858E0,1.003702264E1
6.680261450E-1,2.340000123E-1,4.392000198E0,9.098999977E0,1.010624670E1
6.699892200E-1,2.340000123E-1,4.354050159E0,9.098999977E0,1.008981216E1
6.719526580E-1,2.719500065E-1,4.354050159E0,9.022050858E0,1.002143260E1
6.739159890E-1,2.719500065E-1,4.354050159E0,9.060000420E0,1.005561123E1
6.758791590E-1,3.109500110E-1,4.354050159E0,9.022050858E0,1.002256676E1
6.778423760E-1,2.719500065E-1,4.392000198E0,9.022050858E0,1.003797909E1
6.798052390E-1,2.719500065E-1,4.315950394E0,9.022050858E0,1.000493809E1
6.817682130E-1,2.719500065E-1,4.315950394E0,9.060000420E0,1.003917288E1
6.837314870E-1,3.109500110E-1,4.354050159E0,9.022050858E0,1.002256676E1
6.856946730E-1,2.719500065E-1,4.315950394E0,8.983950615E0,9.970594429E0
6.876579110E-1,3.109500110E-1,4.315950394E0,9.060000420E0,1.004030504E1
6.896211340E-1,3.109500110E-1,4.276950359E0,8.944950104E0,9.919734202E0
6.915843970E-1,3.490500152E-1,4.315950394E0,8.944950104E0,9.937876839E0
6.935476580E-1,2.719500065E-1,4.315950394E0,8.944950104E0,9.935467627E0
6.955108840E-1,2.719500065E-1,4.315950394E0,8.944950104E0,9.935467627E0
6.974741210E-1,3.109500110E-1,4.315950394E0,8.907000542E0,9.902463146E0
6.994377100E-1,3.490500152E-1,4.276950359E0,8.907000542E0,9.886799226E0
7.014011960E-1,3.109500110E-1,4.276950359E0,8.983950615E0,9.954916521E0
7.033643800E-1,3.490500152E-1,4.276950359E0,8.944950104E0,9.921001595E0
7.053276560E-1,3.490500152E-1,4.276950359E0,8.907000542E0,9.886799226E0
7.072908790E-1,3.870000243E-1,4.315950394E0,8.907000542E0,9.905142880E0
7.092541170E-1,3.490500152E-1,4.239000320E0,8.830050468E0,9.801058662E0
7.112173470E-1,3.490500152E-1,4.276950359E0,8.869050026E0,9.852623440E0
7.131805790E-1,3.870000243E-1,4.276950359E0,8.869050026E0,9.854040885E0
7.151437360E-1,3.870000243E-1,4.239000320E0,8.869050026E0,9.837628835E0
7.171069350E-1,3.490500152E-1,4.276950359E0,8.869050026E0,9.852623440E0
7.190702150E-1,3.490500152E-1,4.276950359E0,8.869050026E0,9.852623440E0
7.210334710E-1,3.490500152E-1,4.315950394E0,8.869050026E0,9.869615599E0
7.229964730E-1,3.870000243E-1,4.276950359E0,8.869050026E0,9.854040885E0
7.249595500E-1,3.490500152E-1,4.276950359E0,8.907000542E0,9.886799226E0
7.269226710E-1,3.870000243E-1,4.239000320E0,8.907000542E0,9.871856532E0
7.288857790E-1,3.870000243E-1,4.239000320E0,8.869050026E0,9.837628835E0
7.308489850E-1,3.870000243E-1,4.276950359E0,8.944950104E0,9.922409272E0
7.328121630E-1,3.870000243E-1,4.239000320E0,8.944950104E0,9.906110493E0
7.347752240E-1,3.870000243E-1,4.276950359E0,8.869050026E0,9.854040885E0
7.367383190E-1,3.490500152E-1,4.315950394E0,8.869050026E0,9.869615599E0
7.387014460E-1,3.870000243E-1,4.276950359E0,8.869050026E0,9.854040885E0
7.406645570E-1,3.870000243E-1,4.276950359E0,8.907000542E0,9.888211772E0
7.426277640E-1,4.260000288E-1,4.276950359E0,8.869050026E0,9.855649586E0
7.445909420E-1,5.020500422E-1,4.276950359E0,8.869050026E0,9.859229533E0
7.465542270E-1,4.260000288E-1,4.315950394E0,8.869050026E0,9.872636537E0
7.485174800E-1,4.639500082E-1,4.276950359E0,8.869050026E0,9.857362850E0
7.504805470E-1,4.260000288E-1,4.315950394E0,8.869050026E0,9.872636537E0
7.524436550E-1,4.260000288E-1,4.315950394E0,8.830050468E0,9.837616332E0
7.544066810E-1,3.490500152E-1,4.276950359E0,8.830050468E0,9.817531847E0
7.563697320E-1,4.260000288E-1,4.354050159E0,8.830050468E0,9.854390904E0
7.583329920E-1,4.260000288E-1,4.315950394E0,8.830050468E0,9.837616332E0
7.602961910E-1,4.260000288E-1,4.276950359E0,8.869050026E0,9.855649586E0
7.622592480E-1,4.260000288E-1,4.315950394E0,8.869050026E0,9.872636537E0
7.642223470E-1,3.870000243E-1,4.354050159E0,8.907000542E0,9.921803287E0
7.661854200E-1,3.870000243E-1,4.276950359E0,8.869050026E0,9.854040885E0
7.681485010E-1,3.870000243E-1,4.354050159E0,8.869050026E0,9.887748489E0
7.701116210E-1,3.870000243E-1,4.354050159E0,8.907000542E0,9.921803287E0
7.720747300E-1,3.490500152E-1,4.392000198E0,8.907000542E0,9.937110259E0
7.740379420E-1,3.870000243E-1,4.392000198E0,8.907000542E0,9.938515654E0
7.760011200E-1,4.260000288E-1,4.392000198E0,8.869050026E0,9.906118823E0
7.779643600E-1,3.870000243E-1,4.354050159E0,8.907000542E0,9.921803287E0
7.799275810E-1,3.490500152E-1,4.354050159E0,8.907000542E0,9.920395524E0
7.818908140E-1,3.870000243E-1,4.354050159E0,8.907000542E0,9.921803287E0
7.838540430E-1,4.260000288E-1,4.354050159E0,8.907000542E0,9.923401003E0
7.858169650E-1,3.870000243E-1,4.354050159E0,8.944950104E0,9.955885404E0
7.877799730E-1,3.870000243E-1,4.354050159E0,8.944950104E0,9.955885404E0
7.897430160E-1,3.870000243E-1,4.392000198E0,8.944950104E0,9.972540655E0
7.917060480E-1,3.870000243E-1,4.354050159E0,8.944950104E0,9.955885404E0
7.936693130E-1,3.490500152E-1,4.392000198E0,8.983950615E0,1.000614163E1
7.956325090E-1,4.260000288E-1,4.354050159E0,8.944950104E0,9.957477651E0
7.975955330E-1,3.490500152E-1,4.392000198E0,8.944950104E0,9.971140056E0
7.995586310E-1,3.490500152E-1,4.392000198E0,8.944950104E0,9.971140056E0
8.015215240E-1,3.490500152E-1,4.431000233E0,8.983950615E0,1.002332119E1
8.034844770E-1,3.490500152E-1,4.392000198E0,8.983950615E0,1.000614163E1
8.054474390E-1,3.490500152E-1,4.392000198E0,8.944950104E0,9.971140056E0
8.074103980E-1,3.490500152E-1,4.354050159E0,8.907000542E0,9.920395524E0
8.093732810E-1,3.490500152E-1,4.354050159E0,8.944950104E0,9.954482461E0
8.113361800E-1,3.490500152E-1,4.392000198E0,8.983950615E0,1.000614163E1
8.132993310E-1,3.109500110E-1,4.392000198E0,8.944950104E0,9.969879037E0
8.152624080E-1,3.109500110E-1,4.354050159E0,8.944950104E0,9.953219331E0
8.172253060E-1,3.490500152E-1,4.392000198E0,8.944950104E0,9.971140056E0
8.191882570E-1,3.109500110E-1,4.354050159E0,8.983950615E0,9.988283704E0
8.211515490E-1,3.490500152E-1,4.354050159E0,8.983950615E0,9.989542400E0
8.231147310E-1,3.490500152E-1,4.392000198E0,9.022050858E0,1.004036371E1
8.250776110E-1,3.490500152E-1,4.392000198E0,8.983950615E0,1.000614163E1
8.270405790E-1,3.109500110E-1,4.392000198E0,8.944950104E0,9.969879037E0
8.290038090E-1,2.719500065E-1,4.392000198E0,8.907000542E0,9.934700861E0
8.309669620E-1,3.109500110E-1,4.354050159E0,8.944950104E0,9.953219331E0
8.329300720E-1,3.109500110E-1,4.354050159E0,8.944950104E0,9.953219331E0
8.348931950E-1,3.109500110E-1,4.354050159E0,8.983950615E0,9.988283704E0
8.368562630E-1,3.109500110E-1,4.354050159E0,8.907000542E0,9.919128054E0
8.388193480E-1,3.490500152E-1,4.315950394E0,8.907000542E0,9.903732749E0
8.407821990E-1,3.490500152E-1,4.392000198E0,8.907000542E0,9.937110259E0
8.427451180E-1,3.870000243E-1,4.315950394E0,8.907000542E0,9.905142880E0
8.447084460E-1,3.109500110E-1,4.354050159E0,8.907000542E0,9.919128054E0
8.466716540E-1,3.109500110E-1,4.354050159E0,8.869050026E0,9.885064039E0
8.486347100E-1,3.490500152E-1,4.315950394E0,8.907000542E0,9.903732749E0
8.505978100E-1,3.490500152E-1,4.315950394E0,8.907000542E0,9.903732749E0
8.525611970E-1,3.870000243E-1,4.315950394E0,8.907000542E0,9.905142880E0
8.545245000E-1,3.490500152E-1,4.315950394E0,8.907000542E0,9.903732749E0
8.564875790E-1,3.109500110E-1,4.354050159E0,8.869050026E0,9.885064039E0
8.584507280E-1,3.490500152E-1,4.315950394E0,8.869050026E0,9.869615599E0
8.604137470E-1,3.109500110E-1,4.315950394E0,8.907000542E0,9.902463146E0
8.623768050E-1,3.490500152E-1,4.315950394E0,8.907000542E0,9.903732749E0
8.643399290E-1,3.490500152E-1,4.315950394E0,8.944950104E0,9.937876839E0
8.663030340E-1,3.490500152E-1,4.315950394E0,8.907000542E0,9.903732749E0
8.682661120E-1,3.490500152E-1,4.354050159E0,8.944950104E0,9.954482461E0
8.702291950E-1,3.870000243E-1,4.315950394E0,8.907000542E0,9.905142880E0
8.721922260E-1,3.870000243E-1,4.276950359E0,8.869050026E0,9.854040885E0
8.741552720E-1,3.490500152E-1,4.276950359E0,8.869050026E0,9.852623440E0
8.761180380E-1,3.870000243E-1,4.315950394E0,8.907000542E0,9.905142880E0
8.780808870E-1,3.490500152E-1,4.276950359E0,8.907000542E0,9.886799226E0
8.800440160E-1,3.870000243E-1,4.276950359E0,8.944950104E0,9.922409272E0
8.820070530E-1,3.870000243E-1,4.315950394E0,8.907000542E0,9.905142880E0
8.839703170E-1,3.490500152E-1,4.276950359E0,8.907000542E0,9.886799226E0
8.859335140E-1,3.490500152E-1,4.354050159E0,8.907000542E0,9.920395524E0
8.878965710E-1,3.490500152E-1,4.315950394E0,8.944950104E0,9.937876839E0
8.898596700E-1,3.490500152E-1,4.354050159E0,8.907000542E0,9.920395524E0
8.918230490E-1,3.490500152E-1,4.354050159E0,8.983950615E0,9.989542400E0
8.937863520E-1,3.490500152E-1,4.354050159E0,8.944950104E0,9.954482461E0
8.957492110E-1,3.490500152E-1,4.354050159E0,8.907000542E0,9.920395524E0
8.977122000E-1,3.109500110E-1,4.354050159E0,8.944950104E0,9.953219331E0
8.996753360E-1,3.109500110E-1,4.392000198E0,8.944950104E0,9.969879037E0
9.016384290E-1,3.109500110E-1,4.354050159E0,8.907000542E0,9.919128054E0
9.036018180E-1,3.490500152E-1,4.354050159E0,8.983950615E0,9.989542400E0
9.055651210E-1,3.109500110E-1,4.354050159E0,8.944950104E0,9.953219331E0
9.075279800E-1,2.719500065E-1,4.392000198E0,8.983950615E0,1.000374886E1
9.094909690E-1,2.719500065E-1,4.354050159E0,8.944950104E0,9.952077268E0
9.114537450E-1,3.490500152E-1,4.354050159E0,9.022050858E0,1.002382115E1
9.134165840E-1,3.109500110E-1,4.392000198E0,9.022050858E0,1.003911138E1
9.153796960E-1,2.719500065E-1,4.392000198E0,8.983950615E0,1.000374886E1
9.173427310E-1,3.109500110E-1,4.315950394E0,8.983950615E0,9.971734371E0
9.193059960E-1,3.109500110E-1,4.431000233E0,8.944950104E0,9.987120973E0
9.212691930E-1,3.109500110E-1,4.354050159E0,8.983950615E0,9.988283704E0
9.232324290E-1,3.109500110E-1,4.354050159E0,8.983950615E0,9.988283704E0
9.251956540E-1,2.719500065E-1,4.392000198E0,8.944950104E0,9.968738882E0
9.271586620E-1,2.719500065E-1,4.392000198E0,9.060000420E0,1.007210158E1
9.291217330E-1,2.719500065E-1,4.392000198E0,8.983950615E0,1.000374886E1
9.310848550E-1,3.490500152E-1,4.392000198E0,8.983950615E0,1.000614163E1
9.330479620E-1,2.719500065E-1,4.354050159E0,9.022050858E0,1.002143260E1
9.350112140E-1,2.719500065E-1,4.392000198E0,9.060000420E0,1.007210158E1
9.369744240E-1,2.340000123E-1,4.392000198E0,9.060000420E0,1.007114836E1
9.389374790E-1,2.719500065E-1,4.354050159E0,9.022050858E0,1.002143260E1
9.409005790E-1,2.719500065E-1,4.354050159E0,9.022050858E0,1.002143260E1
9.428636070E-1,2.340000123E-1,4.392000198E0,9.060000420E0,1.007114836E1
9.448266560E-1,2.719500065E-1,4.392000198E0,9.022050858E0,1.003797909E1
9.467896030E-1,2.719500065E-1,4.392000198E0,9.098999977E0,1.010719660E1
9.487525800E-1,2.340000123E-1,4.392000198E0,8.983950615E0,1.000278913E1
9.507154440E-1,2.340000123E-1,4.431000233E0,9.098999977E0,1.012325638E1
9.526783440E-1,2.719500065E-1,4.354050159E0,9.098999977E0,1.009076361E1
9.546411360E-1,2.719500065E-1,4.354050159E0,9.022050858E0,1.002143260E1
9.566039590E-1,3.109500110E-1,4.354050159E0,9.098999977E0,1.009188998E1
9.585668980E-1,3.490500152E-1,4.354050159E0,9.022050858E0,1.002382115E1
9.605298030E-1,3.109500110E-1,4.392000198E0,9.060000420E0,1.007323003E1
9.624925450E-1,2.340000123E-1,4.354050159E0,9.060000420E0,1.005465645E1
9.644553390E-1,2.719500065E-1,4.392000198E0,9.098999977E0,1.010719660E1
9.664184180E-1,2.719500065E-1,4.392000198E0,9.098999977E0,1.010719660E1
9.683814140E-1,3.109500110E-1,4.354050159E0,9.136950493E0,1.012612004E1
9.703447300E-1,3.109500110E-1,4.354050159E0,9.098999977E0,1.009188998E1
9.723079520E-1,2.719500065E-1,4.354050159E0,9.060000420E0,1.005561123E1
9.742714810E-1,3.109500110E-1,4.315950394E0,9.136950493E0,1.010979634E1
9.762349330E-1,3.109500110E-1,4.315950394E0,9.098999977E0,1.007551082E1
9.781979920E-1,3.109500110E-1,4.315950394E0,9.060000420E0,1.004030504E1
9.801611660E-1,3.109500110E-1,4.315950394E0,9.060000420E0,1.004030504E1
9.821242260E-1,3.490500152E-1,4.354050159E0,9.060000420E0,1.005799166E1
9.840873200E-1,3.109500110E-1,4.315950394E0,9.060000420E0,1.004030504E1
9.860505420E-1,3.109500110E-1,4.315950394E0,9.022050858E0,1.000607412E1
9.880137160E-1,3.109500110E-1,4.315950394E0,9.060000420E0,1.004030504E1
9.899768230E-1,3.490500152E-1,4.315950394E0,9.022050858E0,1.000733058E1
9.919399490E-1,3.870000243E-1,4.315950394E0,9.022050858E0,1.000872612E1
9.939028370E-1,3.490500152E-1,4.315950394E0,8.983950615E0,9.972995155E0
9.958657950E-1,3.490500152E-1,4.315950394E0,8.983950615E0,9.972995155E0
9.978290580E-1,3.870000243E-1,4.276950359E0,8.944950104E0,9.922409272E0
9.997922410E-1,3.109500110E-1,4.315950394E0,8.944950104E0,9.936611599E0
1.001755435E0,3.109500110E-1,4.315950394E0,8.944950104E0,9.936611599E0
1.003718626E0,3.490500152E-1,4.315950394E0,8.983950615E0,9.972995155E0
1.005681863E0,3.490500152E-1,4.315950394E0,8.944950104E0,9.937876839E0
1.007645087E0,3.109500110E-1,4.276950359E0,8.907000542E0,9.885527449E0
1.009608009E0,3.490500152E-1,4.315950394E0,8.907000542E0,9.903732749E0
1.011571016E0,3.870000243E-1,4.315950394E0,8.907000542E0,9.905142880E0
1.013534284E0,3.490500152E-1,4.354050159E0,8.944950104E0,9.954482461E0
1.015497476E0,3.490500152E-1,4.276950359E0,8.907000542E0,9.886799226E0
1.017460849E0,3.490500152E-1,4.315950394E0,8.907000542E0,9.903732749E0
1.019424168E0,3.870000243E-1,4.315950394E0,8.907000542E0,9.905142880E0
1.021387385E0,3.490500152E-1,4.315950394E0,8.983950615E0,9.972995155E0
1.023350632E0,3.490500152E-1,4.276950359E0,8.983950615E0,9.956179435E0
1.025313724E0,4.260000288E-1,4.315950394E0,8.944950104E0,9.940877033E0
1.027276862E0,3.490500152E-1,4.315950394E0,8.907000542E0,9.903732749E0
1.029239883E0,3.870000243E-1,4.315950394E0,8.907000542E0,9.905142880E0
1.031202939E0,4.260000288E-1,4.354050159E0,8.944950104E0,9.957477651E0
1.033166185E0,3.870000243E-1,4.354050159E0,8.944950104E0,9.955885404E0
1.035129385E0,4.260000288E-1,4.276950359E0,8.907000542E0,9.889814915E0
1.037092487E0,3.870000243E-1,4.276950359E0,8.907000542E0,9.888211772E0
1.039055618E0,4.260000288E-1,4.276950359E0,8.869050026E0,9.855649586E0
1.041018686E0,4.260000288E-1,4.276950359E0,8.907000542E0,9.889814915E0
1.042981772E0,3.870000243E-1,4.315950394E0,8.944950104E0,9.939282126E0
1.044945226E0,4.260000288E-1,4.315950394E0,8.907000542E0,9.906743283E0
1.046908558E0,4.260000288E-1,4.315950394E0,8.869050026E0,9.872636537E0
1.048871727E0,3.870000243E-1,4.354050159E0,8.907000542E0,9.921803287E0
1.050834944E0,4.639500082E-1,4.276950359E0,8.869050026E0,9.857362850E0
1.052798042E0,4.260000288E-1,4.276950359E0,8.869050026E0,9.855649586E0
1.054761175E0,4.260000288E-1,4.315950394E0,8.869050026E0,9.872636537E0
1.056724372E0,3.870000243E-1,4.354050159E0,8.907000542E0,9.921803287E0
1.058687553E0,3.870000243E-1,4.315950394E0,8.869050026E0,9.871030604E0
1.060650613E0,3.870000243E-1,4.276950359E0,8.907000542E0,9.888211772E0
1.062613709E0,4.260000288E-1,4.315950394E0,8.944950104E0,9.940877033E0
1.064576826E0,4.260000288E-1,4.315950394E0,8.907000542E0,9.906743283E0
1.066539937E0,4.260000288E-1,4.276950359E0,8.944950104E0,9.924006890E0
1.068502964E0,3.870000243E-1,4.276950359E0,8.944950104E0,9.922409272E0
1.070466016E0,3.870000243E-1,4.315950394E0,8.907000542E0,9.905142880E0
1.072429277E0,3.870000243E-1,4.315950394E0,8.907000542E0,9.905142880E0
1.074392476E0,3.870000243E-1,4.315950394E0,8.944950104E0,9.939282126E0
1.076355038E0,3.490500152E-1,4.354050159E0,8.944950104E0,9.954482461E0
1.078317786E0,3.870000243E-1,4.354050159E0,8.944950104E0,9.955885404E0
1.080280582E0,3.490500152E-1,4.315950394E0,8.944950104E0,9.937876839E0
1.082243346E0,3.870000243E-1,4.354050159E0,8.907000542E0,9.921803287E0
1.084206296E0,3.490500152E-1,4.354050159E0,8.944950104E0,9.954482461E0
1.086169192E0,3.109500110E-1,4.354050159E0,8.907000542E0,9.919128054E0
1.088132076E0,3.490500152E-1,4.315950394E0,8.869050026E0,9.869615599E0
1.090094963E0,3.490500152E-1,4.315950394E0,8.907000542E0,9.903732749E0
1.092057757E0,3.870000243E-1,4.354050159E0,8.907000542E0,9.921803287E0
1.094020579E0,2.719500065E-1,4.354050159E0,8.907000542E0,9.917982065E0
1.095983339E0,3.490500152E-1,4.354050159E0,8.983950615E0,9.989542400E0
1.097946117E0,3.490500152E-1,4.354050159E0,8.944950104E0,9.954482461E0
1.099908885E0,3.109500110E-1,4.354050159E0,8.907000542E0,9.919128054E0
1.101871656E0,2.719500065E-1,4.354050159E0,8.944950104E0,9.952077268E0
1.103834255E0,3.109500110E-1,4.354050159E0,8.907000542E0,9.919128054E0
1.105796897E0,3.109500110E-1,4.392000198E0,8.983950615E0,1.000488502E1
1.107759462E0,3.109500110E-1,4.354050159E0,8.944950104E0,9.953219331E0
1.109722050E0,3.109500110E-1,4.354050159E0,8.944950104E0,9.953219331E0
1.111684895E0,3.490500152E-1,4.354050159E0,8.983950615E0,9.989542400E0
1.113647664E0,2.719500065E-1,4.354050159E0,8.983950615E0,9.987145651E0
1.115610563E0,3.490500152E-1,4.354050159E0,8.983950615E0,9.989542400E0
1.117573428E0,3.490500152E-1,4.354050159E0,9.022050858E0,1.002382115E1
1.119536227E0,3.109500110E-1,4.354050159E0,8.983950615E0,9.988283704E0
1.121499045E0,3.490500152E-1,4.392000198E0,9.060000420E0,1.007447811E1
1.123462165E0,3.490500152E-1,4.354050159E0,8.983950615E0,9.989542400E0
1.125425197E0,3.109500110E-1,4.354050159E0,8.983950615E0,9.988283704E0
1.127387737E0,2.719500065E-1,4.354050159E0,8.944950104E0,9.952077268E0
1.129350425E0,3.109500110E-1,4.315950394E0,8.983950615E0,9.971734371E0
1.131313342E0,3.490500152E-1,4.315950394E0,8.983950615E0,9.972995155E0
1.133276192E0,3.490500152E-1,4.354050159E0,8.983950615E0,9.989542400E0
1.135239173E0,2.719500065E-1,4.392000198E0,9.022050858E0,1.003797909E1
1.137202115E0,3.490500152E-1,4.315950394E0,9.022050858E0,1.000733058E1
1.139165160E0,3.109500110E-1,4.392000198E0,8.983950615E0,1.000488502E1
1.141128182E0,2.719500065E-1,4.392000198E0,8.983950615E0,1.000374886E1
1.143091134E0,3.109500110E-1,4.354050159E0,9.022050858E0,1.002256676E1
1.145054107E0,3.109500110E-1,4.354050159E0,8.983950615E0,9.988283704E0
1.147017022E0,2.719500065E-1,4.354050159E0,8.944950104E0,9.952077268E0
1.148979954E0,3.109500110E-1,4.354050159E0,8.983950615E0,9.988283704E0
1.150942904E0,3.490500152E-1,4.354050159E0,9.022050858E0,1.002382115E1
1.152905829E0,3.109500110E-1,4.354050159E0,8.944950104E0,9.953219331E0
1.154868886E0,3.109500110E-1,4.392000198E0,8.983950615E0,1.000488502E1
1.156831904E0,3.109500110E-1,4.315950394E0,9.022050858E0,1.000607412E1
1.158794676E0,3.109500110E-1,4.354050159E0,8.983950615E0,9.988283704E0
1.160757521E0,2.719500065E-1,4.354050159E0,8.983950615E0,9.987145651E0
1.162720637E0,3.109500110E-1,4.315950394E0,8.983950615E0,9.971734371E0
1.164683673E0,3.490500152E-1,4.354050159E0,8.944950104E0,9.954482461E0
1.166646578E0,3.109500110E-1,4.392000198E0,8.944950104E0,9.969879037E0
1.168609521E0,3.109500110E-1,4.315950394E0,8.944950104E0,9.936611599E0
1.170572755E0,3.870000243E-1,4.354050159E0,8.983950615E0,9.990940419E0
1.172535904E0,2.719500065E-1,4.315950394E0,8.983950615E0,9.970594429E0
1.174498595E0,3.109500110E-1,4.392000198E0,8.944950104E0,9.969879037E0
1.176461430E0,3.109500110E-1,4.354050159E0,8.983950615E0,9.988283704E0
1.178424547E0,3.109500110E-1,4.354050159E0,8.983950615E0,9.988283704E0
1.180387582E0,2.719500065E-1,4.354050159E0,8.944950104E0,9.952077268E0
1.182350307E0,3.109500110E-1,4.354050159E0,8.983950615E0,9.988283704E0
1.184313123E0,3.870000243E-1,4.354050159E0,8.983950615E0,9.990940419E0
1.186276228E0,3.870000243E-1,4.315950394E0,8.983950615E0,9.974395494E0
1.188239259E0,3.490500152E-1,4.354050159E0,8.983950615E0,9.989542400E0
1.190202344E0,3.490500152E-1,4.354050159E0,8.983950615E0,9.989542400E0
1.192165413E0,3.490500152E-1,4.354050159E0,8.944950104E0,9.954482461E0
1.194128132E0,3.870000243E-1,4.354050159E0,8.907000542E0,9.921803287E0
1.196090954E0,3.490500152E-1,4.315950394E0,8.983950615E0,9.972995155E0
1.198053680E0,3.870000243E-1,4.315950394E0,8.983950615E0,9.974395494E0
1.200016458E0,3.490500152E-1,4.354050159E0,8.944950104E0,9.954482461E0
1.201979450E0,3.490500152E-1,4.315950394E0,8.983950615E0,9.972995155E0
1.203942379E0,3.490500152E-1,4.315950394E0,8.944950104E0,9.937876839E0
1.205905481E0,3.490500152E-1,4.354050159E0,8.907000542E0,9.920395524E0
1.207868533E0,3.490500152E-1,4.354050159E0,8.907000542E0,9.920395524E0
1.209831250E0,3.490500152E-1,4.392000198E0,8.907000542E0,9.937110259E0
1.211794069E0,3.490500152E-1,4.392000198E0,8.907000542E0,9.937110259E0
1.213756964E0,3.490500152E-1,4.354050159E0,8.869050026E0,9.886335877E0
1.215719836E0,3.870000243E-1,4.315950394E0,8.907000542E0,9.905142880E0
1.217682813E0,3.109500110E-1,4.315950394E0,8.907000542E0,9.902463146E0
1.219645759E0,3.870000243E-1,4.354050159E0,8.830050468E0,9.852781997E0
1.221608837E0,3.109500110E-1,4.315950394E0,8.907000542E0,9.902463146E0
1.223571860E0,3.490500152E-1,4.315950394E0,8.907000542E0,9.903732749E0
1.225534812E0,3.490500152E-1,4.354050159E0,8.944950104E0,9.954482461E0
1.227497785E0,2.719500065E-1,4.315950394E0,8.907000542E0,9.901315229E0
1.229461014E0,3.490500152E-1,4.354050159E0,8.907000542E0,9.920395524E0
1.231424168E0,3.490500152E-1,4.354050159E0,8.944950104E0,9.954482461E0
1.233386888E0,3.870000243E-1,4.354050159E0,8.907000542E0,9.921803287E0
1.235349756E0,3.870000243E-1,4.392000198E0,8.944950104E0,9.972540655E0
1.237312463E0,3.870000243E-1,4.354050159E0,8.944950104E0,9.955885404E0
1.239275218E0,4.260000288E-1,4.354050159E0,8.944950104E0,9.957477651E0
1.241237809E0,3.870000243E-1,4.315950394E0,8.907000542E0,9.905142880E0
1.243200448E0,3.490500152E-1,4.354050159E0,8.907000542E0,9.920395524E0
1.245163239E0,3.870000243E-1,4.354050159E0,8.944950104E0,9.955885404E0
1.247125985E0,3.490500152E-1,4.354050159E0,8.907000542E0,9.920395524E0
1.249088938E0,3.870000243E-1,4.354050159E0,8.944950104E0,9.955885404E0
1.251051831E0,3.870000243E-1,4.315950394E0,8.907000542E0,9.905142880E0
1.253014400E0,3.490500152E-1,4.315950394E0,8.907000542E0,9.903732749E0
1.254977064E0,4.260000288E-1,4.276950359E0,8.907000542E0,9.889814915E0
1.256940056E0,4.260000288E-1,4.315950394E0,8.944950104E0,9.940877033E0
1.258902966E0,3.490500152E-1,4.315950394E0,8.944950104E0,9.937876839E0
1.260866206E0,3.870000243E-1,4.354050159E0,8.944950104E0,9.955885404E0
1.262829350E0,3.870000243E-1,4.315950394E0,8.907000542E0,9.905142880E0
1.264792282E0,3.870000243E-1,4.354050159E0,8.907000542E0,9.921803287E0
1.266755276E0,4.260000288E-1,4.354050159E0,8.944950104E0,9.957477651E0
1.268718310E0,3.870000243E-1,4.315950394E0,8.944950104E0,9.939282126E0
1.270681340E0,4.639500082E-1,4.315950394E0,8.944950104E0,9.942575610E0
1.272644470E0,3.870000243E-1,4.354050159E0,8.944950104E0,9.955885404E0
1.274607571E0,3.870000243E-1,4.354050159E0,8.944950104E0,9.955885404E0
1.276570645E0,3.870000243E-1,4.315950394E0,8.907000542E0,9.905142880E0
1.278533727E0,4.260000288E-1,4.315950394E0,8.944950104E0,9.940877033E0
1.280496772E0,4.260000288E-1,4.315950394E0,8.944950104E0,9.940877033E0
1.282459818E0,3.490500152E-1,4.354050159E0,8.944950104E0,9.954482461E0
1.284422720E0,3.870000243E-1,4.276950359E0,8.907000542E0,9.888211772E0
1.286385664E0,4.260000288E-1,4.276950359E0,8.944950104E0,9.924006890E0
1.288348403E0,3.490500152E-1,4.315950394E0,8.944950104E0,9.937876839E0
1.290311203E0,3.870000243E-1,4.315950394E0,8.944950104E0,9.939282126E0
1.292274371E0,3.870000243E-1,4.354050159E0,8.944950104E0,9.955885404E0
1.294237431E0,3.870000243E-1,4.315950394E0,8.944950104E0,9.939282126E0
1.296200511E0,4.639500082E-1,4.354050159E0,8.983950615E0,9.994216880E0
1.298163585E0,3.870000243E-1,4.315950394E0,8.944950104E0,9.939282126E0
1.300126798E0,3.870000243E-1,4.315950394E0,8.983950615E0,9.974395494E0
1.302089970E0,3.490500152E-1,4.276950359E0,8.944950104E0,9.921001595E0
1.304052901E0,3.490500152E-1,4.354050159E0,8.907000542E0,9.920395524E0
1.306015900E0,3.870000243E-1,4.276950359E0,8.944950104E0,9.922409272E0
1.307978989E0,3.870000243E-1,4.315950394E0,8.983950615E0,9.974395494E0
1.309942052E0,2.719500065E-1,4.354050159E0,8.983950615E0,9.987145651E0
1.311905131E0,3.109500110E-1,4.315950394E0,8.944950104E0,9.936611599E0
1.313868206E0,3.109500110E-1,4.315950394E0,8.983950615E0,9.971734371E0
1.315831590E0,3.490500152E-1,4.315950394E0,8.983950615E0,9.972995155E0
1.317794889E0,3.109500110E-1,4.354050159E0,8.983950615E0,9.988283704E0
1.319757794E0,3.109500110E-1,4.315950394E0,9.022050858E0,1.000607412E1
1.321720814E0,2.719500065E-1,4.354050159E0,8.983950615E0,9.987145651E0
1.323683855E0,2.340000123E-1,4.392000198E0,8.983950615E0,1.000278913E1
1.325646889E0,3.109500110E-1,4.431000233E0,8.983950615E0,1.002206673E1
1.327610173E0,2.719500065E-1,4.431000233E0,8.983950615E0,1.002093252E1
1.329573370E0,2.719500065E-1,4.431000233E0,8.983950615E0,1.002093252E1
1.331535931E0,2.719500065E-1,4.392000198E0,8.907000542E0,9.934700861E0
1.333498679E0,2.719500065E-1,4.392000198E0,8.944950104E0,9.968738882E0
1.335461992E0,2.719500065E-1,4.431000233E0,8.907000542E0,9.952003744E0
1.337425139E0,2.340000123E-1,4.431000233E0,8.983950615E0,1.001997444E1
1.339388564E0,2.719500065E-1,4.392000198E0,8.907000542E0,9.934700861E0
1.341351908E0,3.109500110E-1,4.354050159E0,8.944950104E0,9.953219331E0
1.343314940E0,2.719500065E-1,4.392000198E0,8.907000542E0,9.934700861E0
1.345278064E0,2.719500065E-1,4.354050159E0,8.907000542E0,9.917982065E0
1.347241088E0,2.719500065E-1,4.392000198E0,8.869050026E0,9.900690426E0
1.349204141E0,2.340000123E-1,4.354050159E0,8.907000542E0,9.917014039E0
1.351167235E0,2.719500065E-1,4.354050159E0,8.907000542E0,9.917982065E0
1.353130307E0,3.490500152E-1,4.354050159E0,8.907000542E0,9.920395524E0
1.355093610E0,3.870000243E-1,4.354050159E0,8.869050026E0,9.887748489E0
1.357056845E0,3.109500110E-1,4.354050159E0,8.869050026E0,9.885064039E0
1.359019851E0,2.719500065E-1,4.354050159E0,8.907000542E0,9.917982065E0
1.360982924E0,3.490500152E-1,4.315950394E0,8.830050468E0,9.834584637E0
1.362945836E0,3.490500152E-1,4.354050159E0,8.869050026E0,9.886335877E0
1.364908785E0,3.490500152E-1,4.315950394E0,8.907000542E0,9.903732749E0
1.366871883E0,3.490500152E-1,4.315950394E0,8.869050026E0,9.869615599E0
1.368834937E0,3.490500152E-1,4.354050159E0,8.907000542E0,9.920395524E0
1.370798063E0,3.109500110E-1,4.315950394E0,8.869050026E0,9.868341607E0
1.372761168E0,3.490500152E-1,4.354050159E0,8.907000542E0,9.920395524E0
1.374724221E0,3.490500152E-1,4.276950359E0,8.907000542E0,9.886799226E0
1.376687304E0,3.109500110E-1,4.315950394E0,8.869050026E0,9.868341607E0
1.378650514E0,3.490500152E-1,4.276950359E0,8.907000542E0,9.886799226E0
1.380613686E0,3.109500110E-1,4.315950394E0,8.907000542E0,9.902463146E0
1.382576612E0,3.490500152E-1,4.315950394E0,8.869050026E0,9.869615599E0
1.384539611E0,4.260000288E-1,4.276950359E0,8.907000542E0,9.889814915E0
1.386502931E0,3.490500152E-1,4.354050159E0,8.869050026E0,9.886335877E0
1.388466121E0,3.109500110E-1,4.315950394E0,8.907000542E0,9.902463146E0
1.390429180E0,3.109500110E-1,4.354050159E0,8.907000542E0,9.919128054E0
1.392392277E0,3.490500152E-1,4.315950394E0,8.907000542E0,9.903732749E0
1.394355529E0,4.260000288E-1,4.354050159E0,8.907000542E0,9.923401003E0
1.396318736E0,3.109500110E-1,4.354050159E0,8.944950104E0,9.953219331E0
1.398281946E0,3.109500110E-1,4.354050159E0,8.907000542E0,9.919128054E0
1.400245142E0,3.109500110E-1,4.392000198E0,8.907000542E0,9.935844921E0
1.402207703E0,3.490500152E-1,4.392000198E0,8.944950104E0,9.971140056E0
1.404170450E0,3.490500152E-1,4.392000198E0,8.983950615E0,1.000614163E1
1.406133717E0,3.490500152E-1,4.392000198E0,8.944950104E0,9.971140056E0
1.408096832E0,3.109500110E-1,4.392000198E0,8.983950615E0,1.000488502E1
1.410060059E0,3.109500110E-1,4.392000198E0,8.983950615E0,1.000488502E1
1.412023270E0,3.490500152E-1,4.392000198E0,8.983950615E0,1.000614163E1
1.413986684E0,3.490500152E-1,4.354050159E0,8.983950615E0,9.989542400E0
1.415950039E0,3.109500110E-1,4.431000233E0,8.983950615E0,1.002206673E1
1.417913069E0,3.109500110E-1,4.431000233E0,9.022050858E0,1.005623462E1
1.419876195E0,2.340000123E-1,4.354050159E0,9.022050858E0,1.002047456E1
1.421839142E0,3.490500152E-1,4.392000198E0,9.022050858E0,1.004036371E1
1.423802132E0,3.109500110E-1,4.392000198E0,9.022050858E0,1.003911138E1
1.425765223E0,3.109500110E-1,4.392000198E0,8.983950615E0,1.000488502E1
1.427728284E0,3.490500152E-1,4.354050159E0,9.060000420E0,1.005799166E1
1.429691184E0,3.109500110E-1,4.392000198E0,8.983950615E0,1.000488502E1
1.431654132E0,3.109500110E-1,4.354050159E0,9.060000420E0,1.005674154E1
1.433617051E0,3.490500152E-1,4.354050159E0,9.022050858E0,1.002382115E1
1.435579978E0,3.490500152E-1,4.392000198E0,9.022050858E0,1.004036371E1
1.437543035E0,3.490500152E-1,4.392000198E0,9.022050858E0,1.004036371E1
1.439506053E0,3.109500110E-1,4.354050159E0,9.022050858E0,1.002256676E1
1.441468961E0,3.109500110E-1,4.354050159E0,9.022050858E0,1.002256676E1
1.443431901E0,3.490500152E-1,4.354050159E0,9.022050858E0,1.002382115E1
1.445394884E0,3.490500152E-1,4.315950394E0,9.022050858E0,1.000733058E1
1.447357841E0,3.109500110E-1,4.315950394E0,8.983950615E0,9.971734371E0
1.449320894E0,3.490500152E-1,4.315950394E0,9.060000420E0,1.004155722E1
1.451283918E0,3.490500152E-1,4.276950359E0,9.022050858E0,9.990572655E0
1.453246825E0,3.870000243E-1,4.315950394E0,9.022050858E0,1.000872612E1
1.455209767E0,3.490500152E-1,4.276950359E0,9.060000420E0,1.002485650E1
1.457172736E0,3.490500152E-1,4.276950359E0,9.022050858E0,9.990572655E0
1.459135693E0,3.490500152E-1,4.239000320E0,9.060000420E0,1.000872456E1
1.461098386E0,3.870000243E-1,4.276950359E0,8.983950615E0,9.957582139E0
1.463061156E0,3.870000243E-1,4.276950359E0,9.022050858E0,9.991970530E0
1.465023969E0,3.870000243E-1,4.276950359E0,9.022050858E0,9.991970530E0
1.466986770E0,3.870000243E-1,4.239000320E0,9.060000420E0,1.001011990E1
1.468949709E0,3.870000243E-1,4.201050282E0,8.983950615E0,9.925218443E0
1.470912611E0,3.109500110E-1,4.239000320E0,9.022050858E0,9.973124651E0
1.472875494E0,3.490500152E-1,4.239000320E0,9.022050858E0,9.974385260E0
1.474838382E0,3.870000243E-1,4.239000320E0,9.022050858E0,9.975785403E0
1.476801176E0,3.870000243E-1,4.276950359E0,9.022050858E0,9.991970530E0
1.478763997E0,4.260000288E-1,4.201050282E0,9.022050858E0,9.961310213E0
1.480727072E0,3.870000243E-1,4.201050282E0,9.022050858E0,9.959718578E0
1.482690072E0,3.870000243E-1,4.239000320E0,8.983950615E0,9.941341026E0
1.484653028E0,4.260000288E-1,4.239000320E0,9.060000420E0,1.001170352E1
1.486615997E0,4.639500082E-1,4.239000320E0,9.022050858E0,9.979066840E0
1.488578732E0,3.870000243E-1,4.239000320E0,8.983950615E0,9.941341026E0
1.490541536E0,3.870000243E-1,4.239000320E0,9.060000420E0,1.001011990E1
1.492504119E0,4.260000288E-1,4.239000320E0,8.983950615E0,9.942935602E0
1.494466767E0,4.260000288E-1,4.276950359E0,8.983950615E0,9.959174115E0
1.496429691E0,4.260000288E-1,4.239000320E0,8.983950615E0,9.942935602E0
1.498392534E0,3.870000243E-1,4.276950359E0,8.983950615E0,9.957582139E0
1.500355471E0,4.260000288E-1,4.276950359E0,8.983950615E0,9.959174115E0
1.502318380E0,3.870000243E-1,4.276950359E0,8.983950615E0,9.957582139E0
1.504281315E0,4.260000288E-1,4.239000320E0,8.944950104E0,9.907710740E0
1.506244236E0,3.870000243E-1,4.276950359E0,8.983950615E0,9.957582139E0
1.508207026E0,3.490500152E-1,4.276950359E0,8.944950104E0,9.921001595E0
1.510169854E0,3.870000243E-1,4.315950394E0,8.944950104E0,9.939282126E0
1.512132747E0,3.870000243E-1,4.276950359E0,8.983950615E0,9.957582139E0
1.514095621E0,3.870000243E-1,4.276950359E0,8.944950104E0,9.922409272E0
1.516058571E0,3.870000243E-1,4.276950359E0,8.983950615E0,9.957582139E0
1.518021486E0,3.870000243E-1,4.276950359E0,8.983950615E0,9.957582139E0
1.519984276E0,3.490500152E-1,4.315950394E0,8.983950615E0,9.972995155E0
1.521947103E0,4.260000288E-1,4.276950359E0,8.907000542E0,9.889814915E0
1.523910177E0,4.260000288E-1,4.276950359E0,8.944950104E0,9.924006890E0
1.525873178E0,4.260000288E-1,4.276950359E0,8.983950615E0,9.959174115E0
1.527836100E0,4.260000288E-1,4.276950359E0,8.983950615E0,9.959174115E0
1.529799069E0,3.870000243E-1,4.276950359E0,8.944950104E0,9.922409272E0
1.531761804E0,3.870000243E-1,4.276950359E0,8.983950615E0,9.957582139E0
1.533724608E0,4.260000288E-1,4.315950394E0,9.022050858E0,1.001030996E1
1.535687371E0,4.260000288E-1,4.276950359E0,8.983950615E0,9.959174115E0
1.537650146E0,4.260000288E-1,4.315950394E0,8.983950615E0,9.975984787E0
1.539612874E0,4.260000288E-1,4.315950394E0,8.983950615E0,9.975984787E0
1.541575613E0,3.870000243E-1,4.315950394E0,8.944950104E0,9.939282126E0
1.543538431E0,3.490500152E-1,4.315950394E0,8.983950615E0,9.972995155E0
1.545501226E0,3.870000243E-1,4.354050159E0,8.983950615E0,9.990940419E0
1.547463992E0,3.870000243E-1,4.354050159E0,8.944950104E0,9.955885404E0
1.549426767E0,3.490500152E-1,4.315950394E0,8.944950104E0,9.937876839E0
1.551389836E0,3.109500110E-1,4.392000198E0,8.983950615E0,1.000488502E1
1.553352828E0,3.870000243E-1,4.354050159E0,8.907000542E0,9.921803287E0
1.555315740E0,3.109500110E-1,4.354050159E0,8.944950104E0,9.953219331E0
1.557278676E0,3.870000243E-1,4.315950394E0,8.907000542E0,9.905142880E0
1.559241641E0,3.109500110E-1,4.392000198E0,8.907000542E0,9.935844921E0
1.561204597E0,2.719500065E-1,4.392000198E0,8.944950104E0,9.968738882E0
1.563167724E0,3.109500110E-1,4.392000198E0,8.907000542E0,9.935844921E0
1.565130780E0,3.490500152E-1,4.392000198E0,8.944950104E0,9.971140056E0
1.567093501E0,3.490500152E-1,4.392000198E0,8.907000542E0,9.937110259E0
1.569056320E0,3.490500152E-1,4.392000198E0,8.907000542E0,9.937110259E0
1.571019215E0,3.109500110E-1,4.392000198E0,8.944950104E0,9.969879037E0
1.572982088E0,3.109500110E-1,4.431000233E0,8.983950615E0,1.002206673E1
1.574944805E0,3.109500110E-1,4.392000198E0,8.907000542E0,9.935844921E0
1.576907593E0,3.109500110E-1,4.392000198E0,8.983950615E0,1.000488502E1
1.578870718E0,3.490500152E-1,4.392000198E0,8.944950104E0,9.971140056E0
1.580833745E0,3.109500110E-1,4.431000233E0,8.983950615E0,1.002206673E1
1.582796651E0,3.490500152E-1,4.431000233E0,8.944950104E0,9.988379815E0
1.584759593E0,3.109500110E-1,4.315950394E0,8.944950104E0,9.936611599E0
1.586722547E0,3.109500110E-1,4.392000198E0,8.944950104E0,9.969879037E0
1.588685504E0,3.109500110E-1,4.392000198E0,8.944950104E0,9.969879037E0
1.590648242E0,3.109500110E-1,4.392000198E0,8.983950615E0,1.000488502E1
1.592611045E0,3.109500110E-1,4.392000198E0,8.983950615E0,1.000488502E1
1.594574123E0,3.109500110E-1,4.392000198E0,8.983950615E0,1.000488502E1
1.596537120E0,3.490500152E-1,4.354050159E0,8.944950104E0,9.954482461E0
1.598500220E0,2.719500065E-1,4.392000198E0,8.944950104E0,9.968738882E0
1.600463283E0,2.719500065E-1,4.392000198E0,8.907000542E0,9.934700861E0
1.602426228E0,3.109500110E-1,4.392000198E0,8.944950104E0,9.969879037E0
1.604389208E0,3.109500110E-1,4.431000233E0,8.907000542E0,9.953145815E0
1.606352255E0,2.719500065E-1,4.392000198E0,8.907000542E0,9.934700861E0
1.608315283E0,2.719500065E-1,4.431000233E0,8.907000542E0,9.952003744E0
1.610278373E0,2.719500065E-1,4.392000198E0,8.944950104E0,9.968738882E0
1.612241442E0,2.719500065E-1,4.392000198E0,8.907000542E0,9.934700861E0
1.614204026E0,3.109500110E-1,4.431000233E0,8.907000542E0,9.953145815E0
1.616166752E0,2.719500065E-1,4.392000198E0,8.983950615E0,1.000374886E1
1.618130068E0,3.109500110E-1,4.392000198E0,8.944950104E0,9.969879037E0
1.620093211E0,2.719500065E-1,4.392000198E0,8.907000542E0,9.934700861E0
1.622056302E0,2.719500065E-1,4.392000198E0,8.907000542E0,9.934700861E0
1.624019391E0,3.109500110E-1,4.354050159E0,8.944950104E0,9.953219331E0
1.625982241E0,3.109500110E-1,4.354050159E0,8.983950615E0,9.988283704E0
1.627945161E0,2.719500065E-1,4.354050159E0,8.944950104E0,9.952077268E0
1.629907949E0,3.490500152E-1,4.354050159E0,8.944950104E0,9.954482461E0
1.631870776E0,3.109500110E-1,4.315950394E0,8.907000542E0,9.902463146E0
1.633833714E0,2.340000123E-1,4.392000198E0,8.944950104E0,9.967775785E0
1.635796620E0,2.719500065E-1,4.315950394E0,8.944950104E0,9.935467627E0
1.637759142E0,3.109500110E-1,4.276950359E0,8.944950104E0,9.919734202E0
1.639721776E0,3.490500152E-1,4.315950394E0,8.983950615E0,9.972995155E0
1.641684432E0,3.870000243E-1,4.315950394E0,8.983950615E0,9.974395494E0
1.643647082E0,3.490500152E-1,4.315950394E0,8.983950615E0,9.972995155E0
1.645609886E0,3.109500110E-1,4.315950394E0,9.022050858E0,1.000607412E1
1.647572634E0,3.870000243E-1,4.276950359E0,9.060000420E0,1.002624960E1
1.649535407E0,3.490500152E-1,4.315950394E0,8.983950615E0,9.972995155E0
1.651498173E0,3.490500152E-1,4.276950359E0,8.983950615E0,9.956179435E0
1.653460943E0,3.870000243E-1,4.354050159E0,9.022050858E0,1.002521439E1
1.655423711E0,3.490500152E-1,4.315950394E0,9.022050858E0,1.000733058E1
1.657386621E0,3.870000243E-1,4.354050159E0,8.983950615E0,9.990940419E0
1.659349485E0,3.870000243E-1,4.315950394E0,8.944950104E0,9.939282126E0
1.661312419E0,3.109500110E-1,4.354050159E0,8.983950615E0,9.988283704E0
1.663275332E0,3.490500152E-1,4.354050159E0,9.022050858E0,1.002382115E1
1.665238437E0,3.490500152E-1,4.315950394E0,8.944950104E0,9.937876839E0
1.667201485E0,3.490500152E-1,4.354050159E0,8.907000542E0,9.920395524E0
1.669164732E0,3.109500110E-1,4.354050159E0,8.944950104E0,9.953219331E0
1.671127932E0,3.490500152E-1,4.354050159E0,8.907000542E0,9.920395524E0
1.673090854E0,3.109500110E-1,4.315950394E0,8.869050026E0,9.868341607E0
1.675053857E0,3.109500110E-1,4.392000198E0,8.907000542E0,9.935844921E0
1.677016901E0,3.109500110E-1,4.354050159E0,8.907000542E0,9.919128054E0
1.678979932E0,3.490500152E-1,4.354050159E0,8.907000542E0,9.920395524E0
1.680942843E0,3.490500152E-1,4.315950394E0,8.944950104E0,9.937876839E0
1.682905785E0,3.109500110E-1,4.354050159E0,8.907000542E0,9.919128054E0
1.684868525E0,3.109500110E-1,4.354050159E0,8.869050026E0,9.885064039E0
1.686831324E0,3.490500152E-1,4.392000198E0,8.944950104E0,9.971140056E0
1.688794132E0,3.109500110E-1,4.354050159E0,8.907000542E0,9.919128054E0
1.690756937E0,3.109500110E-1,4.392000198E0,8.907000542E0,9.935844921E0
1.692720016E0,3.490500152E-1,4.392000198E0,8.907000542E0,9.937110259E0
1.694683014E0,2.719500065E-1,4.354050159E0,8.907000542E0,9.917982065E0
1.696645790E0,3.490500152E-1,4.354050159E0,8.944950104E0,9.954482461E0
1.698608631E0,3.490500152E-1,4.431000233E0,8.944950104E0,9.988379815E0
1.700571388E0,2.719500065E-1,4.392000198E0,8.983950615E0,1.000374886E1
1.702534170E0,3.109500110E-1,4.392000198E0,9.022050858E0,1.003911138E1
1.704496918E0,3.490500152E-1,4.354050159E0,8.983950615E0,9.989542400E0
1.706459689E0,3.490500152E-1,4.354050159E0,8.944950104E0,9.954482461E0
1.708422817E0,3.490500152E-1,4.392000198E0,8.983950615E0,1.000614163E1
1.710385841E0,3.490500152E-1,4.315950394E0,8.983950615E0,9.972995155E0
1.712349062E0,3.490500152E-1,4.354050159E0,9.022050858E0,1.002382115E1
1.714312226E0,3.490500152E-1,4.354050159E0,9.022050858E0,1.002382115E1
1.716275506E0,3.490500152E-1,4.392000198E0,8.983950615E0,1.000614163E1
1.718238725E0,3.870000243E-1,4.354050159E0,9.022050858E0,1.002521439E1
1.720201824E0,3.490500152E-1,4.354050159E0,8.983950615E0,9.989542400E0
1.722164958E0,3.490500152E-1,4.315950394E0,8.983950615E0,9.972995155E0
1.724128205E0,3.870000243E-1,4.354050159E0,9.060000420E0,1.005938017E1
1.726091418E0,3.490500152E-1,4.354050159E0,9.022050858E0,1.002382115E1
1.728054588E0,3.490500152E-1,4.354050159E0,8.983950615E0,9.989542400E0
1.730017785E0,3.109500110E-1,4.354050159E0,9.060000420E0,1.005674154E1
1.731980886E0,3.109500110E-1,4.354050159E0,8.983950615E0,9.988283704E0
1.733944016E0,3.490500152E-1,4.315950394E0,8.944950104E0,9.937876839E0
1.735907084E0,3.870000243E-1,4.315950394E0,8.983950615E0,9.974395494E0
1.737870170E0,3.109500110E-1,4.354050159E0,9.022050858E0,1.002256676E1
1.739833259E0,3.490500152E-1,4.315950394E0,9.022050858E0,1.000733058E1
1.741796338E0,3.490500152E-1,4.315950394E0,8.983950615E0,9.972995155E0
1.743759729E0,3.490500152E-1,4.354050159E0,8.944950104E0,9.954482461E0
1.745723028E0,3.109500110E-1,4.354050159E0,8.983950615E0,9.988283704E0
1.747686068E0,3.490500152E-1,4.315950394E0,8.983950615E0,9.972995155E0
1.749649184E0,3.109500110E-1,4.315950394E0,8.983950615E0,9.971734371E0
1.751612259E0,3.490500152E-1,4.315950394E0,8.983950615E0,9.972995155E0
1.753575343E0,3.490500152E-1,4.315950394E0,8.983950615E0,9.972995155E0
1.755538463E0,3.490500152E-1,4.354050159E0,8.983950615E0,9.989542400E0
1.757501572E0,3.490500152E-1,4.315950394E0,8.983950615E0,9.972995155E0
1.759464599E0,3.870000243E-1,4.315950394E0,8.944950104E0,9.939282126E0
1.761427650E0,3.870000243E-1,4.354050159E0,8.944950104E0,9.955885404E0
1.763390976E0,3.490500152E-1,4.315950394E0,8.907000542E0,9.903732749E0
1.765354207E0,3.490500152E-1,4.276950359E0,8.983950615E0,9.956179435E0
1.767317394E0,3.870000243E-1,4.315950394E0,8.944950104E0,9.939282126E0
1.769280594E0,4.260000288E-1,4.315950394E0,8.983950615E0,9.975984787E0
1.771243694E0,3.490500152E-1,4.315950394E0,8.907000542E0,9.903732749E0
1.773206824E0,3.870000243E-1,4.315950394E0,8.907000542E0,9.905142880E0
1.775169842E0,3.870000243E-1,4.315950394E0,8.944950104E0,9.939282126E0
1.777132896E0,3.870000243E-1,4.315950394E0,8.907000542E0,9.905142880E0
1.779095976E0,3.870000243E-1,4.315950394E0,8.944950104E0,9.939282126E0
1.781059048E0,3.870000243E-1,4.315950394E0,8.944950104E0,9.939282126E0
1.783021947E0,3.490500152E-1,4.354050159E0,8.907000542E0,9.920395524E0
1.784984896E0,3.490500152E-1,4.315950394E0,8.907000542E0,9.903732749E0
1.786947999E0,3.870000243E-1,4.315950394E0,8.907000542E0,9.905142880E0
1.788911053E0,4.260000288E-1,4.315950394E0,8.944950104E0,9.940877033E0
1.790874134E0,3.870000243E-1,4.354050159E0,8.869050026E0,9.887748489E0
1.792837207E0,3.870000243E-1,4.315950394E0,8.907000542E0,9.905142880E0
1.794800150E0,3.490500152E-1,4.276950359E0,8.907000542E0,9.886799226E0
1.796763132E0,3.490500152E-1,4.315950394E0,8.944950104E0,9.937876839E0
1.798726219E0,3.870000243E-1,4.276950359E0,8.907000542E0,9.888211772E0
1.800689279E0,3.490500152E-1,4.315950394E0,8.907000542E0,9.903732749E0
1.802652359E0,4.260000288E-1,4.276950359E0,8.907000542E0,9.889814915E0
1.804615433E0,3.870000243E-1,4.276950359E0,8.944950104E0,9.922409272E0
1.806578645E0,3.490500152E-1,4.315950394E0,8.944950104E0,9.937876839E0
1.808541817E0,3.870000243E-1,4.276950359E0,8.907000542E0,9.888211772E0
1.810504845E0,4.260000288E-1,4.276950359E0,8.944950104E0,9.924006890E0
1.812467939E0,4.260000288E-1,4.276950359E0,8.983950615E0,9.959174115E0
1.814431013E0,3.870000243E-1,4.276950359E0,8.907000542E0,9.888211772E0
1.816394093E0,4.260000288E-1,4.276950359E0,8.907000542E0,9.889814915E0
1.818357034E0,3.870000243E-1,4.239000320E0,8.944950104E0,9.906110493E0
1.820320016E0,3.490500152E-1,4.276950359E0,8.907000542E0,9.886799226E0
1.822283244E0,4.260000288E-1,4.315950394E0,8.944950104E0,9.940877033E0
1.824246399E0,3.870000243E-1,4.276950359E0,8.907000542E0,9.888211772E0
1.826209328E0,4.260000288E-1,4.276950359E0,8.944950104E0,9.924006890E0
1.828172324E0,3.870000243E-1,4.354050159E0,8.907000542E0,9.921803287E0
1.830135234E0,3.490500152E-1,4.276950359E0,8.907000542E0,9.886799226E0
1.832098170E0,3.490500152E-1,4.315950394E0,8.944950104E0,9.937876839E0
1.834060842E0,3.490500152E-1,4.315950394E0,8.907000542E0,9.903732749E0
1.836023608E0,3.490500152E-1,4.354050159E0,8.907000542E0,9.920395524E0
1.837986242E0,3.490500152E-1,4.315950394E0,8.944950104E0,9.937876839E0
1.839948915E0,3.490500152E-1,4.315950394E0,8.944950104E0,9.937876839E0
1.841911835E0,3.490500152E-1,4.315950394E0,8.944950104E0,9.937876839E0
1.843874683E0,3.109500110E-1,4.354050159E0,8.907000542E0,9.919128054E0
1.845837299E0,3.490500152E-1,4.354050159E0,8.944950104E0,9.954482461E0
1.847799987E0,3.109500110E-1,4.354050159E0,8.869050026E0,9.885064039E0
1.849762905E0,3.490500152E-1,4.354050159E0,8.907000542E0,9.920395524E0
1.851725755E0,3.109500110E-1,4.315950394E0,8.907000542E0,9.902463146E0
1.853688556E0,3.490500152E-1,4.354050159E0,8.907000542E0,9.920395524E0
1.855651372E0,2.719500065E-1,4.354050159E0,8.907000542E0,9.917982065E0
1.857614429E0,3.490500152E-1,4.354050159E0,8.869050026E0,9.886335877E0
1.859577428E0,3.109500110E-1,4.354050159E0,8.907000542E0,9.919128054E0
1.861540384E0,2.719500065E-1,4.392000198E0,8.944950104E0,9.968738882E0
1.863503353E0,3.109500110E-1,4.354050159E0,8.869050026E0,9.885064039E0
1.865466268E0,3.109500110E-1,4.392000198E0,8.907000542E0,9.935844921E0
1.867429199E0,2.719500065E-1,4.354050159E0,8.944950104E0,9.952077268E0
1.869392061E0,3.109500110E-1,4.354050159E0,8.944950104E0,9.953219331E0
1.871354954E0,3.109500110E-1,4.392000198E0,8.983950615E0,1.000488502E1
1.873317881E0,2.719500065E-1,4.354050159E0,8.944950104E0,9.952077268E0
1.875280798E0,3.490500152E-1,4.392000198E0,8.983950615E0,1.000614163E1
1.877243768E0,3.109500110E-1,4.354050159E0,8.944950104E0,9.953219331E0
1.879206722E0,3.490500152E-1,4.392000198E0,8.983950615E0,1.000614163E1
1.881169400E0,3.490500152E-1,4.392000198E0,8.944950104E0,9.971140056E0
1.883132170E0,3.109500110E-1,4.392000198E0,8.983950615E0,1.000488502E1
1.885095118E0,3.109500110E-1,4.354050159E0,8.944950104E0,9.953219331E0
1.887058014E0,3.109500110E-1,4.354050159E0,9.022050858E0,1.002256676E1
1.889021167E0,3.109500110E-1,4.354050159E0,8.983950615E0,9.988283704E0
1.890984245E0,3.490500152E-1,4.354050159E0,8.944950104E0,9.954482461E0
1.892947448E0,3.109500110E-1,4.392000198E0,9.022050858E0,1.003911138E1
1.894910621E0,3.109500110E-1,4.315950394E0,8.983950615E0,9.971734371E0
1.896873547E0,3.490500152E-1,4.354050159E0,8.983950615E0,9.989542400E0
1.898836546E0,3.109500110E-1,4.315950394E0,8.983950615E0,9.971734371E0
1.900799275E0,3.109500110E-1,4.315950394E0,9.022050858E0,1.000607412E1
1.902762084E0,3.109500110E-1,4.354050159E0,8.983950615E0,9.988283704E0
1.904725020E0,3.109500110E-1,4.354050159E0,8.983950615E0,9.988283704E0
1.906687923E0,3.490500152E-1,4.354050159E0,9.022050858E0,1.002382115E1
1.908650985E0,3.109500110E-1,4.354050159E0,8.983950615E0,9.988283704E0
1.910614000E0,3.109500110E-1,4.354050159E0,9.022050858E0,1.002256676E1
1.912577133E0,3.109500110E-1,4.354050159E0,9.022050858E0,1.002256676E1
1.914540231E0,3.109500110E-1,4.354050159E0,8.983950615E0,9.988283704E0
1.916503085E0,3.109500110E-1,4.392000198E0,9.022050858E0,1.003911138E1
1.918466007E0,3.109500110E-1,4.392000198E0,8.944950104E0,9.969879037E0
1.920428795E0,2.719500065E-1,4.354050159E0,8.983950615E0,9.987145651E0
1.922391623E0,3.109500110E-1,4.392000198E0,9.022050858E0,1.003911138E1
1.924354697E0,3.109500110E-1,4.392000198E0,9.022050858E0,1.003911138E1
1.926317698E0,3.109500110E-1,4.392000198E0,8.983950615E0,1.000488502E1
1.928280630E0,3.109500110E-1,4.354050159E0,8.983950615E0,9.988283704E0
1.930243599E0,3.109500110E-1,4.354050159E0,8.944950104E0,9.953219331E0
1.932206828E0,3.109500110E-1,4.392000198E0,8.983950615E0,1.000488502E1
1.934169981E0,3.109500110E-1,4.392000198E0,8.944950104E0,9.969879037E0
1.936133271E0,2.719500065E-1,4.392000198E0,8.944950104E0,9.968738882E0
1.938096520E0,3.109500110E-1,4.392000198E0,8.944950104E0,9.969879037E0
1.940059324E0,3.490500152E-1,4.392000198E0,8.983950615E0,1.000614163E1
1.942022272E0,3.109500110E-1,4.354050159E0,8.944950104E0,9.953219331E0
1.943985191E0,3.490500152E-1,4.354050159E0,8.944950104E0,9.954482461E0
1.945948118E0,3.490500152E-1,4.354050159E0,8.907000542E0,9.920395524E0
1.947910860E0,3.109500110E-1,4.354050159E0,8.983950615E0,9.988283704E0
1.949873657E0,3.490500152E-1,4.354050159E0,8.944950104E0,9.954482461E0
1.951836580E0,3.490500152E-1,4.392000198E0,8.907000542E0,9.937110259E0
1.953799480E0,3.109500110E-1,4.354050159E0,8.944950104E0,9.953219331E0
1.955762452E0,3.109500110E-1,4.354050159E0,8.983950615E0,9.988283704E0
1.957725403E0,3.490500152E-1,4.354050159E0,8.944950104E0,9.954482461E0
1.959688457E0,3.490500152E-1,4.392000198E0,8.907000542E0,9.937110259E0
1.961651480E0,3.490500152E-1,4.354050159E0,8.944950104E0,9.954482461E0
1.963614072E0,3.870000243E-1,4.392000198E0,8.944950104E0,9.972540655E0
1.965576790E0,3.490500152E-1,4.392000198E0,8.983950615E0,1.000614163E1
1.967539567E0,3.870000243E-1,4.392000198E0,8.983950615E0,1.000753733E1
1.969502326E0,3.490500152E-1,4.354050159E0,8.944950104E0,9.954482461E0
1.971465053E0,3.870000243E-1,4.315950394E0,8.983950615E0,9.974395494E0
1.973427790E0,3.870000243E-1,4.354050159E0,8.983950615E0,9.990940419E0
1.975390559E0,3.870000243E-1,4.315950394E0,8.944950104E0,9.939282126E0
1.977353322E0,3.870000243E-1,4.315950394E0,8.983950615E0,9.974395494E0
1.979316093E0,3.490500152E-1,4.354050159E0,8.944950104E0,9.954482461E0
1.981278861E0,3.870000243E-1,4.354050159E0,8.944950104E0,9.955885404E0
1.983241675E0,3.870000243E-1,4.315950394E0,8.907000542E0,9.905142880E0
1.985204476E0,3.109500110E-1,4.315950394E0,8.944950104E0,9.936611599E0
1.987167041E0,3.870000243E-1,4.315950394E0,8.944950104E0,9.939282126E0
1.989129689E0,4.260000288E-1,4.315950394E0,8.983950615E0,9.975984787E0
1.991092478E0,4.260000288E-1,4.354050159E0,8.944950104E0,9.957477651E0
1.993055225E0,4.260000288E-1,4.315950394E0,9.022050858E0,1.001030996E1
1.995017954E0,3.870000243E-1,4.315950394E0,8.944950104E0,9.939282126E0
1.996980689E0,4.260000288E-1,4.315950394E0,8.944950104E0,9.940877033E0
1.998943303E0,3.870000243E-1,4.354050159E0,8.907000542E0,9.921803287E0
2.000905939E0,3.870000243E-1,4.315950394E0,8.983950615E0,9.974395494E0
2.002868775E0,4.260000288E-1,4.315950394E0,8.944950104E0,9.940877033E0
2.004831552E0,4.260000288E-1,4.315950394E0,8.944950104E0,9.940877033E0
2.006794276E0,4.260000288E-1,4.315950394E0,8.944950104E0,9.940877033E0
2.008757016E0,4.260000288E-1,4.354050159E0,8.907000542E0,9.923401003E0
2.010719965E0,3.870000243E-1,4.354050159E0,8.944950104E0,9.955885404E0
2.012682856E0,4.260000288E-1,4.315950394E0,8.944950104E0,9.940877033E0
2.014645650E0,3.490500152E-1,4.354050159E0,8.944950104E0,9.954482461E0
2.016608473E0,3.870000243E-1,4.239000320E0,8.907000542E0,9.871856532E0
2.018571188E0,3.870000243E-1,4.315950394E0,8.907000542E0,9.905142880E0
2.020533935E0,4.260000288E-1,4.315950394E0,8.907000542E0,9.906743283E0
2.022496766E0,3.490500152E-1,4.315950394E0,8.907000542E0,9.903732749E0
2.024459562E0,3.870000243E-1,4.315950394E0,8.907000542E0,9.905142880E0
2.026422283E0,4.260000288E-1,4.315950394E0,8.944950104E0,9.940877033E0
2.028385026E0,3.870000243E-1,4.354050159E0,8.944950104E0,9.955885404E0
2.030347979E0,3.490500152E-1,4.315950394E0,8.944950104E0,9.937876839E0
2.032310870E0,3.870000243E-1,4.315950394E0,8.907000542E0,9.905142880E0
2.034273780E0,3.870000243E-1,4.354050159E0,8.907000542E0,9.921803287E0
2.036236697E0,3.870000243E-1,4.315950394E0,8.944950104E0,9.939282126E0
2.038199487E0,4.260000288E-1,4.315950394E0,8.983950615E0,9.975984787E0
2.040162314E0,3.490500152E-1,4.354050159E0,8.944950104E0,9.954482461E0
2.042125252E0,3.870000243E-1,4.354050159E0,8.944950104E0,9.955885404E0
2.044088158E0,3.870000243E-1,4.354050159E0,8.983950615E0,9.990940419E0
2.046050749E0,3.870000243E-1,4.315950394E0,8.944950104E0,9.939282126E0
2.048013415E0,3.490500152E-1,4.354050159E0,8.944950104E0,9.954482461E0
2.049976336E0,3.109500110E-1,4.354050159E0,8.983950615E0,9.988283704E0
2.051939182E0,3.109500110E-1,4.315950394E0,8.907000542E0,9.902463146E0
2.053902164E0,3.109500110E-1,4.354050159E0,8.944950104E0,9.953219331E0
2.055865106E0,3.490500152E-1,4.315950394E0,8.907000542E0,9.903732749E0
2.057828022E0,3.870000243E-1,4.315950394E0,8.944950104E0,9.939282126E0
2.059790949E0,3.490500152E-1,4.276950359E0,8.907000542E0,9.886799226E0
2.061754006E0,3.870000243E-1,4.354050159E0,8.944950104E0,9.955885404E0
2.063717024E0,3.490500152E-1,4.354050159E0,8.907000542E0,9.920395524E0
2.065679932E0,3.490500152E-1,4.354050159E0,8.944950104E0,9.954482461E0
2.067642872E0,3.490500152E-1,4.354050159E0,8.944950104E0,9.954482461E0
2.069606196E0,3.870000243E-1,4.354050159E0,8.944950104E0,9.955885404E0
2.071569408E0,3.870000243E-1,4.315950394E0,8.907000542E0,9.905142880E0
2.073532283E0,3.870000243E-1,4.354050159E0,8.907000542E0,9.921803287E0
2.075495256E0,3.870000243E-1,4.354050159E0,8.907000542E0,9.921803287E0
2.077458126E0,3.109500110E-1,4.315950394E0,8.944950104E0,9.936611599E0
2.079421026E0,3.870000243E-1,4.354050159E0,8.983950615E0,9.990940419E0
2.081383842E0,3.109500110E-1,4.315950394E0,8.944950104E0,9.936611599E0
2.083346665E0,3.109500110E-1,4.354050159E0,8.944950104E0,9.953219331E0
2.085309965E0,3.490500152E-1,4.354050159E0,8.983950615E0,9.989542400E0
2.087273125E0,3.490500152E-1,4.315950394E0,8.944950104E0,9.937876839E0
2.089236144E0,3.109500110E-1,4.315950394E0,8.944950104E0,9.936611599E0
2.091199204E0,3.490500152E-1,4.315950394E0,8.944950104E0,9.937876839E0
2.093162154E0,3.109500110E-1,4.354050159E0,8.944950104E0,9.953219331E0
2.095125132E0,3.109500110E-1,4.392000198E0,8.944950104E0,9.969879037E0
2.097088360E0,2.719500065E-1,4.315950394E0,8.983950615E0,9.970594429E0
2.099051514E0,3.109500110E-1,4.315950394E0,9.022050858E0,1.000607412E1
2.101014803E0,3.109500110E-1,4.315950394E0,8.944950104E0,9.936611599E0
2.102978053E0,3.109500110E-1,4.354050159E0,9.022050858E0,1.002256676E1
2.104941435E0,3.490500152E-1,4.354050159E0,9.022050858E0,1.002382115E1
2.106904764E0,3.490500152E-1,4.354050159E0,8.983950615E0,9.989542400E0
2.108867979E0,3.870000243E-1,4.315950394E0,9.022050858E0,1.000872612E1
2.110831228E0,3.109500110E-1,4.276950359E0,8.983950615E0,9.954916521E0
2.112794320E0,3.490500152E-1,4.315950394E0,9.022050858E0,1.000733058E1
2.114757458E0,3.490500152E-1,4.354050159E0,9.022050858E0,1.002382115E1
2.116720503E0,3.490500152E-1,4.354050159E0,9.022050858E0,1.002382115E1
2.118683559E0,3.490500152E-1,4.315950394E0,9.022050858E0,1.000733058E1
2.120646639E0,3.870000243E-1,4.354050159E0,8.983950615E0,9.990940419E0
2.122609711E0,3.490500152E-1,4.354050159E0,8.983950615E0,9.989542400E0
2.124573014E0,3.870000243E-1,4.315950394E0,8.983950615E0,9.974395494E0
2.126536250E0,3.490500152E-1,4.354050159E0,9.022050858E0,1.002382115E1
2.128499679E0,3.490500152E-1,4.354050159E0,8.983950615E0,9.989542400E0
2.130463038E0,3.870000243E-1,4.354050159E0,8.983950615E0,9.990940419E0
2.132426562E0,3.870000243E-1,4.315950394E0,9.060000420E0,1.004294799E1
2.134390038E0,3.109500110E-1,4.315950394E0,9.022050858E0,1.000607412E1
2.136353273E0,3.109500110E-1,4.276950359E0,9.022050858E0,9.989314089E0
2.138316578E0,3.490500152E-1,4.276950359E0,9.060000420E0,1.002485650E1
2.140279451E0,3.870000243E-1,4.315950394E0,8.983950615E0,9.974395494E0
2.142242440E0,3.870000243E-1,4.354050159E0,9.060000420E0,1.005938017E1
2.144205666E0,3.109500110E-1,4.315950394E0,9.060000420E0,1.004030504E1
2.146168822E0,3.109500110E-1,4.354050159E0,9.060000420E0,1.005674154E1
2.148131526E0,3.490500152E-1,4.354050159E0,8.983950615E0,9.989542400E0
2.150094363E0,2.719500065E-1,4.315950394E0,8.983950615E0,9.970594429E0
2.152057466E0,3.109500110E-1,4.354050159E0,8.983950615E0,9.988283704E0
2.154020500E0,3.490500152E-1,4.354050159E0,8.944950104E0,9.954482461E0
2.155983451E0,3.870000243E-1,4.354050159E0,8.944950104E0,9.955885404E0
2.157946426E0,3.109500110E-1,4.354050159E0,8.983950615E0,9.988283704E0
2.159909835E0,3.109500110E-1,4.392000198E0,8.944950104E0,9.969879037E0
2.161873116E0,3.490500152E-1,4.354050159E0,8.983950615E0,9.989542400E0
2.163836553E0,3.109500110E-1,4.315950394E0,8.944950104E0,9.936611599E0
2.165799952E0,3.109500110E-1,4.315950394E0,8.907000542E0,9.902463146E0
2.167763290E0,3.109500110E-1,4.354050159E0,8.944950104E0,9.953219331E0
2.169726646E0,3.109500110E-1,4.392000198E0,8.944950104E0,9.969879037E0
2.171689675E0,3.109500110E-1,4.315950394E0,8.907000542E0,9.902463146E0
2.173652800E0,3.490500152E-1,4.354050159E0,8.869050026E0,9.886335877E0
2.175615523E0,3.870000243E-1,4.354050159E0,8.907000542E0,9.921803287E0
2.177578354E0,2.719500065E-1,4.315950394E0,8.869050026E0,9.867189720E0
2.179541472E0,3.490500152E-1,4.315950394E0,8.944950104E0,9.937876839E0
2.181504506E0,3.870000243E-1,4.315950394E0,8.907000542E0,9.905142880E0
2.183467231E0,3.490500152E-1,4.315950394E0,8.830050468E0,9.834584637E0
2.185430046E0,3.490500152E-1,4.276950359E0,8.944950104E0,9.921001595E0
2.187393157E0,3.870000243E-1,4.354050159E0,8.944950104E0,9.955885404E0
2.189356188E0,3.870000243E-1,4.315950394E0,8.907000542E0,9.905142880E0
2.191319139E0,3.870000243E-1,4.315950394E0,8.869050026E0,9.871030604E0
2.193282113E0,3.490500152E-1,4.315950394E0,8.907000542E0,9.903732749E0
2.195245207E0,3.870000243E-1,4.315950394E0,8.944950104E0,9.939282126E0
2.197208265E0,4.260000288E-1,4.315950394E0,8.907000542E0,9.906743283E0
2.199171520E0,3.870000243E-1,4.315950394E0,8.907000542E0,9.905142880E0
2.201134721E0,3.870000243E-1,4.315950394E0,8.907000542E0,9.905142880E0
2.203097913E0,3.490500152E-1,4.354050159E0,8.907000542E0,9.920395524E0
2.205061108E0,3.870000243E-1,4.315950394E0,8.944950104E0,9.939282126E0
2.207024210E0,3.109500110E-1,4.315950394E0,8.944950104E0,9.936611599E0
2.208987339E0,3.870000243E-1,4.354050159E0,8.944950104E0,9.955885404E0
2.210950227E0,3.490500152E-1,4.354050159E0,8.944950104E0,9.954482461E0
2.212913185E0,3.109500110E-1,4.392000198E0,8.907000542E0,9.935844921E0
2.214876057E0,3.490500152E-1,4.392000198E0,8.944950104E0,9.971140056E0
2.216838954E0,3.870000243E-1,4.354050159E0,8.907000542E0,9.921803287E0
2.218802061E0,3.109500110E-1,4.315950394E0,8.907000542E0,9.902463146E0
2.220765106E0,2.719500065E-1,4.392000198E0,8.907000542E0,9.934700861E0
2.222728223E0,3.109500110E-1,4.392000198E0,8.907000542E0,9.935844921E0
2.224691294E0,3.490500152E-1,4.392000198E0,8.869050026E0,9.903108099E0
2.226654238E0,3.109500110E-1,4.354050159E0,8.907000542E0,9.919128054E0
2.228617219E0,3.109500110E-1,4.354050159E0,8.944950104E0,9.953219331E0
2.230580087E0,3.490500152E-1,4.392000198E0,8.944950104E0,9.971140056E0
2.232542988E0,3.490500152E-1,4.392000198E0,8.907000542E0,9.937110259E0
2.234505544E0,3.490500152E-1,4.354050159E0,8.944950104E0,9.954482461E0
2.236468209E0,3.870000243E-1,4.392000198E0,8.983950615E0,1.000753733E1
2.238431175E0,3.109500110E-1,4.392000198E0,8.907000542E0,9.935844921E0
2.240394053E0,3.490500152E-1,4.354050159E0,8.944950104E0,9.954482461E0
2.242357029E0,3.109500110E-1,4.392000198E0,8.944950104E0,9.969879037E0
2.244319976E0,3.490500152E-1,4.354050159E0,8.944950104E0,9.954482461E0
2.246282726E0,3.490500152E-1,4.392000198E0,8.983950615E0,1.000614163E1
2.248245527E0,3.870000243E-1,4.354050159E0,8.944950104E0,9.955885404E0
2.250208605E0,3.490500152E-1,4.354050159E0,9.022050858E0,1.002382115E1
2.252171602E0,3.109500110E-1,4.354050159E0,8.983950615E0,9.988283704E0
2.254134692E0,3.490500152E-1,4.392000198E0,8.983950615E0,1.000614163E1
2.256097755E0,3.870000243E-1,4.354050159E0,9.022050858E0,1.002521439E1
2.258060819E0,3.490500152E-1,4.354050159E0,8.944950104E0,9.954482461E0
2.260023894E0,3.490500152E-1,4.354050159E0,9.022050858E0,1.002382115E1
2.261986657E0,3.490500152E-1,4.354050159E0,8.983950615E0,9.989542400E0
2.263949512E0,3.490500152E-1,4.354050159E0,9.022050858E0,1.002382115E1
2.265912400E0,4.260000288E-1,4.354050159E0,9.060000420E0,1.006095604E1
2.267875279E0,3.870000243E-1,4.315950394E0,9.060000420E0,1.004294799E1
2.269838421E0,3.490500152E-1,4.354050159E0,9.022050858E0,1.002382115E1
2.271801496E0,3.870000243E-1,4.354050159E0,9.022050858E0,1.002521439E1
2.273764349E0,3.490500152E-1,4.315950394E0,8.983950615E0,9.972995155E0
2.275727267E0,3.490500152E-1,4.315950394E0,9.022050858E0,1.000733058E1
2.277690235E0,3.490500152E-1,4.315950394E0,9.098999977E0,1.007675862E1
2.279653188E0,3.109500110E-1,4.315950394E0,9.022050858E0,1.000607412E1
2.281616467E0,3.490500152E-1,4.315950394E0,9.060000420E0,1.004155722E1
2.283579650E0,3.490500152E-1,4.354050159E0,9.098999977E0,1.009313575E1
2.285542665E0,3.490500152E-1,4.315950394E0,9.022050858E0,1.000733058E1
2.287505729E0,3.870000243E-1,4.315950394E0,8.983950615E0,9.974395494E0
2.289468852E0,3.870000243E-1,4.315950394E0,9.098999977E0,1.007814454E1
2.291431957E0,4.260000288E-1,4.315950394E0,9.022050858E0,1.001030996E1
2.293395190E0,3.490500152E-1,4.315950394E0,9.022050858E0,1.000733058E1
2.295358399E0,3.490500152E-1,4.315950394E0,9.060000420E0,1.004155722E1
2.297321633E0,3.870000243E-1,4.276950359E0,9.060000420E0,1.002624960E1
2.299284860E0,3.490500152E-1,4.315950394E0,9.022050858E0,1.000733058E1
2.301248227E0,3.490500152E-1,4.276950359E0,9.022050858E0,9.990572655E0
2.303211553E0,3.870000243E-1,4.315950394E0,8.983950615E0,9.974395494E0
2.305174768E0,3.490500152E-1,4.276950359E0,8.983950615E0,9.956179435E0
2.307138016E0,3.870000243E-1,4.276950359E0,8.983950615E0,9.957582139E0
2.309101064E0,3.870000243E-1,4.315950394E0,9.022050858E0,1.000872612E1
2.311064170E0,3.870000243E-1,4.315950394E0,9.022050858E0,1.000872612E1
2.313027286E0,3.870000243E-1,4.354050159E0,9.022050858E0,1.002521439E1
2.314990399E0,3.490500152E-1,4.315950394E0,8.944950104E0,9.937876839E0
2.316953241E0,3.109500110E-1,4.315950394E0,8.983950615E0,9.971734371E0
2.318916166E0,3.490500152E-1,4.315950394E0,8.983950615E0,9.972995155E0
2.320879268E0,3.490500152E-1,4.276950359E0,8.983950615E0,9.956179435E0
2.322842318E0,3.109500110E-1,4.276950359E0,8.983950615E0,9.954916521E0
2.324805445E0,3.490500152E-1,4.354050159E0,8.983950615E0,9.989542400E0
2.326768549E0,3.490500152E-1,4.315950394E0,8.944950104E0,9.937876839E0
2.328731456E0,3.870000243E-1,4.315950394E0,9.022050858E0,1.000872612E1
2.330694411E0,3.490500152E-1,4.315950394E0,9.022050858E0,1.000733058E1
2.332657463E0,3.870000243E-1,4.315950394E0,8.983950615E0,9.974395494E0
2.334620486E0,4.260000288E-1,4.354050159E0,8.944950104E0,9.957477651E0
2.336583258E0,3.870000243E-1,4.354050159E0,9.022050858E0,1.002521439E1
2.338546103E0,3.870000243E-1,4.315950394E0,9.022050858E0,1.000872612E1
2.340509229E0,3.870000243E-1,4.276950359E0,8.983950615E0,9.957582139E0
2.342472265E0,3.870000243E-1,4.315950394E0,8.907000542E0,9.905142880E0
2.344435349E0,4.260000288E-1,4.315950394E0,8.983950615E0,9.975984787E0
2.346398419E0,4.260000288E-1,4.315950394E0,9.022050858E0,1.001030996E1
2.348361318E0,4.260000288E-1,4.276950359E0,8.944950104E0,9.924006890E0
2.350324267E0,4.260000288E-1,4.276950359E0,8.983950615E0,9.959174115E0
2.352287500E0,3.870000243E-1,4.315950394E0,8.944950104E0,9.939282126E0
2.354250650E0,3.870000243E-1,4.276950359E0,8.944950104E0,9.922409272E0
2.356213535E0,4.260000288E-1,4.315950394E0,8.907000542E0,9.906743283E0
2.358176498E0,3.490500152E-1,4.315950394E0,8.944950104E0,9.937876839E0
2.360139234E0,3.870000243E-1,4.315950394E0,8.983950615E0,9.974395494E0
2.362102036E0,3.870000243E-1,4.276950359E0,8.944950104E0,9.922409272E0
2.364064926E0,3.870000243E-1,4.315950394E0,8.869050026E0,9.871030604E0
2.366027828E0,3.490500152E-1,4.315950394E0,8.907000542E0,9.903732749E0
2.367990575E0,3.490500152E-1,4.315950394E0,8.944950104E0,9.937876839E0
2.369953368E0,3.870000243E-1,4.315950394E0,8.907000542E0,9.905142880E0
2.371916357E0,3.870000243E-1,4.315950394E0,8.907000542E0,9.905142880E0
2.373879289E0,3.109500110E-1,4.354050159E0,8.944950104E0,9.953219331E0
2.375842415E0,3.490500152E-1,4.315950394E0,8.983950615E0,9.972995155E0
2.377805467E0,3.109500110E-1,4.315950394E0,8.907000542E0,9.902463146E0
2.379768504E0,3.490500152E-1,4.315950394E0,8.944950104E0,9.937876839E0
2.381731546E0,3.490500152E-1,4.354050159E0,8.944950104E0,9.954482461E0
2.383694494E0,3.490500152E-1,4.354050159E0,8.944950104E0,9.954482461E0
2.385657469E0,3.109500110E-1,4.354050159E0,8.944950104E0,9.953219331E0
2.387620738E0,3.490500152E-1,4.354050159E0,8.907000542E0,9.920395524E0
2.389583924E0,3.490500152E-1,4.354050159E0,8.944950104E0,9.954482461E0
2.391547162E0,3.490500152E-1,4.392000198E0,8.907000542E0,9.937110259E0
2.393510385E0,3.870000243E-1,4.354050159E0,8.944950104E0,9.955885404E0
2.395473797E0,3.490500152E-1,4.392000198E0,8.907000542E0,9.937110259E0
2.397437154E0,3.870000243E-1,4.354050159E0,8.907000542E0,9.921803287E0
2.399400660E0,3.870000243E-1,4.315950394E0,8.907000542E0,9.905142880E0
2.401364135E0,3.490500152E-1,4.354050159E0,8.869050026E0,9.886335877E0
2.403327145E0,3.490500152E-1,4.392000198E0,8.907000542E0,9.937110259E0
2.405290291E0,3.490500152E-1,4.392000198E0,8.907000542E0,9.937110259E0
2.407253041E0,3.490500152E-1,4.315950394E0,8.907000542E0,9.903732749E0
2.409215907E0,3.109500110E-1,4.392000198E0,8.907000542E0,9.935844921E0
2.411178829E0,3.490500152E-1,4.354050159E0,8.944950104E0,9.954482461E0
2.413141741E0,3.490500152E-1,4.354050159E0,8.907000542E0,9.920395524E0
2.415104801E0,3.109500110E-1,4.392000198E0,8.907000542E0,9.935844921E0
2.417067818E0,3.490500152E-1,4.354050159E0,8.907000542E0,9.920395524E0
2.419031085E0,3.870000243E-1,4.354050159E0,8.869050026E0,9.887748489E0
2.420994279E0,3.109500110E-1,4.392000198E0,8.907000542E0,9.935844921E0
2.422957549E0,3.870000243E-1,4.392000198E0,8.944950104E0,9.972540655E0
2.424920774E0,3.490500152E-1,4.392000198E0,8.944950104E0,9.971140056E0
2.426883872E0,3.109500110E-1,4.392000198E0,8.869050026E0,9.901838416E0
2.428847007E0,3.490500152E-1,4.392000198E0,8.907000542E0,9.937110259E0
2.430810029E0,3.109500110E-1,4.392000198E0,8.944950104E0,9.969879037E0
2.432773084E0,3.109500110E-1,4.315950394E0,8.907000542E0,9.902463146E0
2.434736218E0,3.490500152E-1,4.354050159E0,8.907000542E0,9.920395524E0
2.436699322E0,3.109500110E-1,4.392000198E0,8.907000542E0,9.935844921E0
2.438662171E0,3.490500152E-1,4.354050159E0,8.944950104E0,9.954482461E0
2.440625094E0,3.490500152E-1,4.354050159E0,8.869050026E0,9.886335877E0
2.442588017E0,3.109500110E-1,4.354050159E0,8.944950104E0,9.953219331E0
2.444550940E0,3.490500152E-1,4.315950394E0,8.944950104E0,9.937876839E0
2.446513922E0,2.719500065E-1,4.354050159E0,8.944950104E0,9.952077268E0
2.448476876E0,3.490500152E-1,4.315950394E0,8.944950104E0,9.937876839E0
2.450440154E0,3.490500152E-1,4.315950394E0,8.944950104E0,9.937876839E0
2.452403337E0,3.109500110E-1,4.354050159E0,8.944950104E0,9.953219331E0
2.454366891E0,3.109500110E-1,4.315950394E0,8.983950615E0,9.971734371E0
2.456330337E0,3.490500152E-1,4.315950394E0,8.983950615E0,9.972995155E0
2.458293138E0,3.109500110E-1,4.392000198E0,8.983950615E0,1.000488502E1
2.460256152E0,3.870000243E-1,4.315950394E0,8.983950615E0,9.974395494E0
2.462219283E0,3.870000243E-1,4.354050159E0,9.022050858E0,1.002521439E1
2.464182380E0,3.490500152E-1,4.392000198E0,8.983950615E0,1.000614163E1
2.466145589E0,3.490500152E-1,4.315950394E0,9.022050858E0,1.000733058E1
2.468108765E0,3.870000243E-1,4.315950394E0,9.060000420E0,1.004294799E1
2.470071990E0,3.490500152E-1,4.315950394E0,8.983950615E0,9.972995155E0
2.472035211E0,3.490500152E-1,4.276950359E0,9.060000420E0,1.002485650E1
2.473998624E0,3.870000243E-1,4.315950394E0,9.060000420E0,1.004294799E1
2.475961981E0,3.490500152E-1,4.315950394E0,9.022050858E0,1.000733058E1
2.477925191E0,3.870000243E-1,4.315950394E0,9.022050858E0,1.000872612E1
2.479888444E0,3.870000243E-1,4.315950394E0,9.060000420E0,1.004294799E1
2.481851536E0,3.109500110E-1,4.315950394E0,9.022050858E0,1.000607412E1
2.483814675E0,3.490500152E-1,4.354050159E0,8.983950615E0,9.989542400E0
2.485778101E0,3.490500152E-1,4.315950394E0,8.944950104E0,9.937876839E0
2.487741442E0,3.870000243E-1,4.315950394E0,8.983950615E0,9.974395494E0
2.489704790E0,3.490500152E-1,4.354050159E0,8.983950615E0,9.989542400E0
2.491668135E0,3.490500152E-1,4.354050159E0,8.944950104E0,9.954482461E0
2.493631028E0,3.490500152E-1,4.354050159E0,8.944950104E0,9.954482461E0
2.495594056E0,3.870000243E-1,4.315950394E0,8.907000542E0,9.905142880E0
2.497557095E0,3.490500152E-1,4.354050159E0,8.944950104E0,9.954482461E0
2.499520131E0,3.109500110E-1,4.354050159E0,8.983950615E0,9.988283704E0
2.501483260E0,3.490500152E-1,4.392000198E0,8.944950104E0,9.971140056E0
2.503446361E0,3.870000243E-1,4.354050159E0,8.869050026E0,9.887748489E0
2.505409929E0,3.109500110E-1,4.354050159E0,8.869050026E0,9.885064039E0
2.507373360E0,3.109500110E-1,4.354050159E0,8.869050026E0,9.885064039E0
2.509336558E0,3.490500152E-1,4.354050159E0,8.907000542E0,9.920395524E0
2.511299824E0,3.490500152E-1,4.354050159E0,8.907000542E0,9.920395524E0
2.513263273E0,3.870000243E-1,4.392000198E0,8.907000542E0,9.938515654E0
2.515226668E0,3.109500110E-1,4.392000198E0,8.907000542E0,9.935844921E0
2.517189853E0,3.870000243E-1,4.354050159E0,8.907000542E0,9.921803287E0
2.519153113E0,3.870000243E-1,4.315950394E0,8.944950104E0,9.939282126E0
2.521116473E0,3.109500110E-1,4.315950394E0,8.907000542E0,9.902463146E0
2.523079803E0,3.490500152E-1,4.354050159E0,8.944950104E0,9.954482461E0
2.525042838E0,3.870000243E-1,4.354050159E0,8.944950104E0,9.955885404E0
2.527005959E0,3.870000243E-1,4.354050159E0,8.983950615E0,9.990940419E0
2.528969388E0,3.870000243E-1,4.354050159E0,8.983950615E0,9.990940419E0
2.530932726E0,3.490500152E-1,4.392000198E0,8.983950615E0,1.000614163E1
2.532895940E0,3.109500110E-1,4.315950394E0,8.983950615E0,9.971734371E0
2.534859190E0,3.870000243E-1,4.392000198E0,8.983950615E0,1.000753733E1
2.536822461E0,3.490500152E-1,4.315950394E0,8.944950104E0,9.937876839E0
2.538785726E0,3.109500110E-1,4.315950394E0,8.907000542E0,9.902463146E0
2.540748967E0,3.870000243E-1,4.392000198E0,8.944950104E0,9.972540655E0
2.542712205E0,3.109500110E-1,4.354050159E0,8.983950615E0,9.988283704E0
2.544675749E0,3.109500110E-1,4.392000198E0,8.944950104E0,9.969879037E0
2.546639203E0,3.490500152E-1,4.354050159E0,8.944950104E0,9.954482461E0
2.548602441E0,3.109500110E-1,4.392000198E0,8.983950615E0,1.000488502E1
2.550565743E0,3.109500110E-1,4.354050159E0,8.907000542E0,9.919128054E0
2.552529014E0,3.490500152E-1,4.392000198E0,8.983950615E0,1.000614163E1
2.554492257E0,3.870000243E-1,4.354050159E0,8.983950615E0,9.990940419E0
2.556455665E0,2.719500065E-1,4.392000198E0,8.907000542E0,9.934700861E0
2.558419024E0,3.109500110E-1,4.392000198E0,8.944950104E0,9.969879037E0
2.560382413E0,3.109500110E-1,4.392000198E0,8.869050026E0,9.901838416E0
2.562345793E0,3.109500110E-1,4.354050159E0,8.983950615E0,9.988283704E0
2.564308990E0,2.719500065E-1,4.392000198E0,8.907000542E0,9.934700861E0
2.566272247E0,2.719500065E-1,4.354050159E0,8.944950104E0,9.952077268E0
2.568235428E0,3.109500110E-1,4.315950394E0,8.983950615E0,9.971734371E0
2.570198631E0,3.490500152E-1,4.392000198E0,8.944950104E0,9.971140056E0
2.572162046E0,3.109500110E-1,4.354050159E0,8.983950615E0,9.988283704E0
2.574125399E0,3.490500152E-1,4.354050159E0,8.983950615E0,9.989542400E0
2.576088109E0,3.109500110E-1,4.354050159E0,8.983950615E0,9.988283704E0
2.578051011E0,3.870000243E-1,4.354050159E0,9.022050858E0,1.002521439E1
2.580014117E0,3.490500152E-1,4.392000198E0,8.944950104E0,9.971140056E0
2.581977163E0,3.490500152E-1,4.354050159E0,8.983950615E0,9.989542400E0
2.583940245E0,3.109500110E-1,4.354050159E0,9.098999977E0,1.009188998E1
2.585903317E0,3.109500110E-1,4.315950394E0,9.022050858E0,1.000607412E1
2.587866564E0,3.870000243E-1,4.354050159E0,9.022050858E0,1.002521439E1
2.589829735E0,3.490500152E-1,4.354050159E0,9.022050858E0,1.002382115E1
2.591792842E0,3.109500110E-1,4.315950394E0,8.983950615E0,9.971734371E0
2.593755968E0,3.490500152E-1,4.315950394E0,8.983950615E0,9.972995155E0
2.595718856E0,3.870000243E-1,4.315950394E0,9.022050858E0,1.000872612E1
2.597681814E0,3.870000243E-1,4.276950359E0,9.022050858E0,9.991970530E0
2.599645076E0,3.870000243E-1,4.315950394E0,8.983950615E0,9.974395494E0
2.601608259E0,3.490500152E-1,4.315950394E0,9.022050858E0,1.000733058E1
2.603571274E0,3.109500110E-1,4.354050159E0,9.022050858E0,1.002256676E1
2.605534338E0,3.109500110E-1,4.315950394E0,8.983950615E0,9.971734371E0
2.607497461E0,3.870000243E-1,4.354050159E0,8.944950104E0,9.955885404E0
2.609460566E0,3.870000243E-1,4.276950359E0,8.944950104E0,9.922409272E0
2.611423607E0,3.490500152E-1,4.315950394E0,8.944950104E0,9.937876839E0
2.613386690E0,3.490500152E-1,4.315950394E0,8.907000542E0,9.903732749E0
2.615350260E0,3.870000243E-1,4.315950394E0,8.869050026E0,9.871030604E0
2.617313688E0,3.870000243E-1,4.315950394E0,8.907000542E0,9.905142880E0
2.619277067E0,3.490500152E-1,4.354050159E0,8.983950615E0,9.989542400E0
2.621240460E0,3.490500152E-1,4.315950394E0,8.944950104E0,9.937876839E0
2.623203838E0,3.870000243E-1,4.276950359E0,8.907000542E0,9.888211772E0
2.625167224E0,3.870000243E-1,4.276950359E0,8.907000542E0,9.888211772E0
2.627130473E0,3.870000243E-1,4.315950394E0,8.907000542E0,9.905142880E0
2.629093762E0,3.490500152E-1,4.315950394E0,8.907000542E0,9.903732749E0
2.631056803E0,3.490500152E-1,4.315950394E0,8.907000542E0,9.903732749E0
2.633019916E0,3.490500152E-1,4.315950394E0,8.869050026E0,9.869615599E0
2.634982801E0,3.870000243E-1,4.315950394E0,8.869050026E0,9.871030604E0
2.636945757E0,3.870000243E-1,4.315950394E0,8.907000542E0,9.905142880E0
2.638908809E0,3.870000243E-1,4.315950394E0,8.944950104E0,9.939282126E0
2.640871832E0,3.870000243E-1,4.354050159E0,8.869050026E0,9.887748489E0
2.642834604E0,3.870000243E-1,4.315950394E0,8.869050026E0,9.871030604E0
2.644797450E0,3.490500152E-1,4.354050159E0,8.869050026E0,9.886335877E0
2.646760583E0,3.870000243E-1,4.354050159E0,8.869050026E0,9.887748489E0
2.648723619E0,3.870000243E-1,4.392000198E0,8.869050026E0,9.904518319E0
2.650686703E0,4.260000288E-1,4.354050159E0,8.907000542E0,9.923401003E0
2.652649773E0,3.870000243E-1,4.315950394E0,8.944950104E0,9.939282126E0
2.654612987E0,3.870000243E-1,4.315950394E0,8.907000542E0,9.905142880E0
2.656576158E0,3.870000243E-1,4.354050159E0,8.869050026E0,9.887748489E0
2.658539252E0,3.870000243E-1,4.431000233E0,8.944950104E0,9.989777998E0
2.660502378E0,4.260000288E-1,4.315950394E0,8.907000542E0,9.906743283E0
2.662465086E0,3.870000243E-1,4.354050159E0,8.944950104E0,9.955885404E0
2.664427916E0,3.870000243E-1,4.392000198E0,8.944950104E0,9.972540655E0
2.666390989E0,4.260000288E-1,4.354050159E0,8.869050026E0,9.889351707E0
2.668353991E0,3.490500152E-1,4.315950394E0,8.907000542E0,9.903732749E0
2.670316757E0,4.260000288E-1,4.315950394E0,8.907000542E0,9.906743283E0
2.672279599E0,3.870000243E-1,4.315950394E0,8.907000542E0,9.905142880E0
2.674242490E0,4.260000288E-1,4.315950394E0,8.944950104E0,9.940877033E0
2.676205366E0,3.870000243E-1,4.315950394E0,8.944950104E0,9.939282126E0
2.678168163E0,4.260000288E-1,4.354050159E0,8.907000542E0,9.923401003E0
2.680130983E0,3.870000243E-1,4.354050159E0,8.907000542E0,9.921803287E0
2.682093882E0,3.870000243E-1,4.315950394E0,8.907000542E0,9.905142880E0
2.684056755E0,4.260000288E-1,4.354050159E0,8.944950104E0,9.957477651E0
2.686019508E0,3.870000243E-1,4.315950394E0,8.907000542E0,9.905142880E0
2.687982296E0,3.490500152E-1,4.315950394E0,8.944950104E0,9.937876839E0
2.689945286E0,3.870000243E-1,4.354050159E0,8.907000542E0,9.921803287E0
2.691908217E0,3.870000243E-1,4.315950394E0,8.907000542E0,9.905142880E0
2.693871158E0,3.490500152E-1,4.354050159E0,8.944950104E0,9.954482461E0
2.695834083E0,3.870000243E-1,4.354050159E0,8.983950615E0,9.990940419E0
2.697796826E0,3.109500110E-1,4.354050159E0,8.944950104E0,9.953219331E0
2.699759622E0,3.490500152E-1,4.354050159E0,8.944950104E0,9.954482461E0
2.701722701E0,3.870000243E-1,4.354050159E0,8.983950615E0,9.990940419E0
2.703685697E0,3.109500110E-1,4.354050159E0,8.983950615E0,9.988283704E0
2.705648802E0,3.490500152E-1,4.392000198E0,8.944950104E0,9.971140056E0
2.707611865E0,3.490500152E-1,4.392000198E0,8.944950104E0,9.971140056E0
2.709574810E0,3.870000243E-1,4.354050159E0,8.944950104E0,9.955885404E0
2.711537790E0,3.490500152E-1,4.392000198E0,9.022050858E0,1.004036371E1
2.713500883E0,3.109500110E-1,4.354050159E0,8.983950615E0,9.988283704E0
2.715463942E0,2.719500065E-1,4.354050159E0,9.022050858E0,1.002143260E1
2.717427148E0,3.490500152E-1,4.354050159E0,8.983950615E0,9.989542400E0
2.719390318E0,3.490500152E-1,4.354050159E0,8.983950615E0,9.989542400E0
2.721353560E0,3.490500152E-1,4.354050159E0,8.983950615E0,9.989542400E0
2.723316780E0,3.490500152E-1,4.354050159E0,8.983950615E0,9.989542400E0
2.725279878E0,3.490500152E-1,4.354050159E0,8.983950615E0,9.989542400E0
2.727243012E0,3.109500110E-1,4.354050159E0,8.983950615E0,9.988283704E0
2.729206088E0,3.490500152E-1,4.315950394E0,8.983950615E0,9.972995155E0
2.731169175E0,3.109500110E-1,4.392000198E0,8.983950615E0,1.000488502E1
2.733132205E0,3.109500110E-1,4.354050159E0,9.022050858E0,1.002256676E1
2.735095252E0,3.490500152E-1,4.392000198E0,8.983950615E0,1.000614163E1
2.737058378E0,3.490500152E-1,4.354050159E0,9.022050858E0,1.002382115E1
2.739021481E0,3.490500152E-1,4.392000198E0,8.983950615E0,1.000614163E1
2.740984329E0,3.109500110E-1,4.315950394E0,8.983950615E0,9.971734371E0
2.742947252E0,3.490500152E-1,4.315950394E0,8.983950615E0,9.972995155E0
2.744909995E0,3.870000243E-1,4.392000198E0,9.060000420E0,1.007586435E1
2.746872791E0,3.490500152E-1,4.354050159E0,8.983950615E0,9.989542400E0
2.748835915E0,3.490500152E-1,4.315950394E0,8.983950615E0,9.972995155E0
2.750798942E0,3.490500152E-1,4.354050159E0,8.983950615E0,9.989542400E0
2.752761880E0,3.109500110E-1,4.354050159E0,8.983950615E0,9.988283704E0
2.754724854E0,3.109500110E-1,4.315950394E0,9.022050858E0,1.000607412E1
2.756687902E0,3.109500110E-1,4.315950394E0,8.983950615E0,9.971734371E0
2.758650928E0,3.109500110E-1,4.315950394E0,8.983950615E0,9.971734371E0
2.760613519E0,3.490500152E-1,4.315950394E0,8.983950615E0,9.972995155E0
2.762576238E0,3.109500110E-1,4.315950394E0,8.983950615E0,9.971734371E0
2.764539228E0,3.109500110E-1,4.354050159E0,8.983950615E0,9.988283704E0
2.766502115E0,3.109500110E-1,4.354050159E0,8.944950104E0,9.953219331E0
2.768464820E0,3.490500152E-1,4.315950394E0,9.022050858E0,1.000733058E1
2.770427579E0,3.870000243E-1,4.354050159E0,9.022050858E0,1.002521439E1
2.772390755E0,3.870000243E-1,4.315950394E0,8.983950615E0,9.974395494E0
2.774353808E0,3.490500152E-1,4.354050159E0,8.983950615E0,9.989542400E0
2.776316821E0,3.870000243E-1,4.354050159E0,8.983950615E0,9.990940419E0
2.778279863E0,3.870000243E-1,4.315950394E0,9.022050858E0,1.000872612E1
2.780242811E0,3.490500152E-1,4.315950394E0,8.983950615E0,9.972995155E0
2.782205786E0,3.490500152E-1,4.354050159E0,9.022050858E0,1.002382115E1
2.784169014E0,3.870000243E-1,4.315950394E0,9.022050858E0,1.000872612E1
2.786132168E0,3.870000243E-1,4.276950359E0,8.944950104E0,9.922409272E0
2.788095288E0,3.870000243E-1,4.315950394E0,8.944950104E0,9.939282126E0
2.790058411E0,3.870000243E-1,4.315950394E0,8.944950104E0,9.939282126E0
2.792021614E0,3.109500110E-1,4.354050159E0,8.983950615E0,9.988283704E0
2.793984794E0,3.490500152E-1,4.354050159E0,8.983950615E0,9.989542400E0
2.795948078E0,3.870000243E-1,4.315950394E0,9.022050858E0,1.000872612E1
2.797911332E0,3.870000243E-1,4.354050159E0,8.944950104E0,9.955885404E0
2.799874565E0,3.490500152E-1,4.354050159E0,8.983950615E0,9.989542400E0
2.801837801E0,3.490500152E-1,4.315950394E0,8.944950104E0,9.937876839E0
2.803800625E0,3.870000243E-1,4.276950359E0,8.944950104E0,9.922409272E0
2.805763570E0,4.260000288E-1,4.315950394E0,8.983950615E0,9.975984787E0
2.807726714E0,3.870000243E-1,4.315950394E0,8.983950615E0,9.974395494E0
2.809689799E0,3.870000243E-1,4.354050159E0,8.944950104E0,9.955885404E0
2.811652699E0,3.490500152E-1,4.354050159E0,8.944950104E0,9.954482461E0
2.813615651E0,3.870000243E-1,4.276950359E0,8.983950615E0,9.957582139E0
2.815578748E0,3.870000243E-1,4.315950394E0,8.983950615E0,9.974395494E0
2.817541803E0,3.870000243E-1,4.315950394E0,8.983950615E0,9.974395494E0
2.819505019E0,3.490500152E-1,4.354050159E0,8.983950615E0,9.989542400E0
2.821468187E0,3.490500152E-1,4.354050159E0,8.944950104E0,9.954482461E0
2.823431439E0,3.870000243E-1,4.315950394E0,8.983950615E0,9.974395494E0
2.825394659E0,3.490500152E-1,4.354050159E0,8.944950104E0,9.954482461E0
2.827357936E0,3.490500152E-1,4.354050159E0,8.983950615E0,9.989542400E0
2.829321197E0,3.109500110E-1,4.354050159E0,8.907000542E0,9.919128054E0
2.831284424E0,3.870000243E-1,4.315950394E0,8.907000542E0,9.905142880E0
2.833247661E0,4.260000288E-1,4.392000198E0,8.907000542E0,9.940110684E0
2.835210851E0,3.490500152E-1,4.315950394E0,8.907000542E0,9.903732749E0
2.837174051E0,4.260000288E-1,4.354050159E0,8.983950615E0,9.992527081E0
2.839137151E0,3.870000243E-1,4.392000198E0,8.907000542E0,9.938515654E0
2.841100281E0,3.870000243E-1,4.392000198E0,8.944950104E0,9.972540655E0
2.843063483E0,3.870000243E-1,4.315950394E0,8.907000542E0,9.905142880E0
2.845026664E0,3.870000243E-1,4.315950394E0,8.907000542E0,9.905142880E0
2.846990103E0,4.260000288E-1,4.392000198E0,8.944950104E0,9.974130244E0
2.848953452E0,4.260000288E-1,4.315950394E0,8.944950104E0,9.940877033E0
2.850916709E0,3.490500152E-1,4.315950394E0,8.944950104E0,9.937876839E0
2.852879993E0,3.870000243E-1,4.354050159E0,8.983950615E0,9.990940419E0
2.854843169E0,3.490500152E-1,4.315950394E0,8.944950104E0,9.937876839E0
2.856806377E0,3.870000243E-1,4.315950394E0,8.983950615E0,9.974395494E0
2.858769511E0,3.870000243E-1,4.354050159E0,8.944950104E0,9.955885404E0
2.860732642E0,3.870000243E-1,4.315950394E0,8.907000542E0,9.905142880E0
2.862695889E0,3.490500152E-1,4.354050159E0,8.944950104E0,9.954482461E0
2.864659102E0,4.260000288E-1,4.315950394E0,8.907000542E0,9.906743283E0
2.866622516E0,3.490500152E-1,4.315950394E0,8.944950104E0,9.937876839E0
2.868585871E0,3.490500152E-1,4.354050159E0,8.944950104E0,9.954482461E0
2.870549085E0,3.109500110E-1,4.354050159E0,8.944950104E0,9.953219331E0
2.872512338E0,3.490500152E-1,4.354050159E0,8.907000542E0,9.920395524E0
2.874475520E0,3.109500110E-1,4.392000198E0,8.944950104E0,9.969879037E0
2.876438723E0,3.109500110E-1,4.354050159E0,8.944950104E0,9.953219331E0
2.878401598E0,3.490500152E-1,4.315950394E0,8.983950615E0,9.972995155E0
2.880364569E0,3.109500110E-1,4.392000198E0,8.907000542E0,9.935844921E0
2.882328044E0,3.490500152E-1,4.354050159E0,8.944950104E0,9.954482461E0
2.884291389E0,3.109500110E-1,4.354050159E0,8.944950104E0,9.953219331E0
2.886254556E0,3.870000243E-1,4.315950394E0,8.944950104E0,9.939282126E0
2.888217776E0,3.109500110E-1,4.354050159E0,8.983950615E0,9.988283704E0
2.890180513E0,3.109500110E-1,4.315950394E0,8.983950615E0,9.971734371E0
2.892143391E0,3.490500152E-1,4.354050159E0,8.983950615E0,9.989542400E0
2.894106492E0,3.109500110E-1,4.354050159E0,8.944950104E0,9.953219331E0
2.896069534E0,3.490500152E-1,4.315950394E0,8.944950104E0,9.937876839E0
2.898032617E0,3.490500152E-1,4.354050159E0,8.944950104E0,9.954482461E0
2.899995688E0,3.490500152E-1,4.276950359E0,8.983950615E0,9.956179435E0
2.901958722E0,3.870000243E-1,4.354050159E0,8.944950104E0,9.955885404E0
2.903921767E0,3.870000243E-1,4.354050159E0,8.944950104E0,9.955885404E0
2.905884870E0,3.109500110E-1,4.354050159E0,8.907000542E0,9.919128054E0
2.907847972E0,3.490500152E-1,4.315950394E0,8.907000542E0,9.903732749E0
2.909811001E0,3.490500152E-1,4.315950394E0,8.944950104E0,9.937876839E0
2.911774051E0,3.109500110E-1,4.354050159E0,8.944950104E0,9.953219331E0
2.913736817E0,3.870000243E-1,4.354050159E0,8.944950104E0,9.955885404E0
2.915699666E0,3.109500110E-1,4.354050159E0,8.944950104E0,9.953219331E0
2.917662712E0,3.490500152E-1,4.354050159E0,8.907000542E0,9.920395524E0
2.919625717E0,3.490500152E-1,4.354050159E0,8.944950104E0,9.954482461E0
2.921588806E0,3.870000243E-1,4.354050159E0,8.983950615E0,9.990940419E0
2.923551871E0,3.490500152E-1,4.354050159E0,8.944950104E0,9.954482461E0
2.925514635E0,3.490500152E-1,4.392000198E0,8.944950104E0,9.971140056E0
2.927477488E0,3.109500110E-1,4.392000198E0,8.944950104E0,9.969879037E0
2.929440426E0,3.490500152E-1,4.354050159E0,8.944950104E0,9.954482461E0
2.931403336E0,3.109500110E-1,4.392000198E0,8.944950104E0,9.969879037E0
2.933366442E0,3.870000243E-1,4.315950394E0,8.983950615E0,9.974395494E0
2.935329490E0,3.870000243E-1,4.354050159E0,8.983950615E0,9.990940419E0
2.937292528E0,3.490500152E-1,4.392000198E0,8.983950615E0,1.000614163E1
2.939255569E0,3.870000243E-1,4.354050159E0,8.944950104E0,9.955885404E0
2.941218532E0,3.870000243E-1,4.354050159E0,8.907000542E0,9.921803287E0
2.943181507E0,3.870000243E-1,4.315950394E0,8.983950615E0,9.974395494E0
2.945144555E0,3.870000243E-1,4.276950359E0,8.983950615E0,9.957582139E0
2.947107582E0,3.490500152E-1,4.315950394E0,8.907000542E0,9.903732749E0
2.949070354E0,3.490500152E-1,4.354050159E0,8.944950104E0,9.954482461E0
2.951033200E0,3.870000243E-1,4.315950394E0,9.022050858E0,1.000872612E1
2.952996222E0,3.490500152E-1,4.354050159E0,8.944950104E0,9.954482461E0
2.954959227E0,3.870000243E-1,4.315950394E0,8.944950104E0,9.939282126E0
2.956922002E0,3.870000243E-1,4.354050159E0,8.907000542E0,9.921803287E0
2.958884844E0,3.870000243E-1,4.354050159E0,8.907000542E0,9.921803287E0
2.960847600E0,3.870000243E-1,4.354050159E0,8.944950104E0,9.955885404E0
2.962810382E0,4.260000288E-1,4.354050159E0,8.944950104E0,9.957477651E0
2.964773528E0,4.260000288E-1,4.354050159E0,8.944950104E0,9.957477651E0
2.966736553E0,3.870000243E-1,4.354050159E0,8.944950104E0,9.955885404E0
2.968699415E0,3.490500152E-1,4.354050159E0,8.983950615E0,9.989542400E0
2.970662325E0,4.260000288E-1,4.354050159E0,8.983950615E0,9.992527081E0
2.972625249E0,3.870000243E-1,4.354050159E0,8.983950615E0,9.990940419E0
2.974588169E0,3.870000243E-1,4.354050159E0,8.983950615E0,9.990940419E0
2.976551289E0,3.870000243E-1,4.354050159E0,8.944950104E0,9.955885404E0
2.978514371E0,3.490500152E-1,4.354050159E0,8.983950615E0,9.989542400E0
2.980477627E0,3.109500110E-1,4.276950359E0,8.944950104E0,9.919734202E0
2.982440832E0,3.870000243E-1,4.315950394E0,8.944950104E0,9.939282126E0
2.984403888E0,3.490500152E-1,4.315950394E0,8.983950615E0,9.972995155E0
2.986366988E0,4.260000288E-1,4.315950394E0,8.983950615E0,9.975984787E0
2.988330190E0,3.870000243E-1,4.354050159E0,8.944950104E0,9.955885404E0
2.990293366E0,3.870000243E-1,4.315950394E0,8.983950615E0,9.974395494E0
2.992256427E0,3.870000243E-1,4.315950394E0,8.944950104E0,9.939282126E0
2.994219521E0,4.260000288E-1,4.315950394E0,8.869050026E0,9.872636537E0
2.996182774E0,3.490500152E-1,4.354050159E0,8.944950104E0,9.954482461E0
2.998145981E0,4.260000288E-1,4.315950394E0,8.983950615E0,9.975984787E0
3.000109068E0,3.870000243E-1,4.315950394E0,8.944950104E0,9.939282126E0
3.002072200E0,4.260000288E-1,4.315950394E0,8.983950615E0,9.975984787E0
3.004035401E0,3.870000243E-1,4.315950394E0,8.983950615E0,9.974395494E0
3.005998582E0,4.260000288E-1,4.239000320E0,8.944950104E0,9.907710740E0
3.007961462E0,3.870000243E-1,4.315950394E0,8.944950104E0,9.939282126E0
3.009924431E0,3.870000243E-1,4.315950394E0,8.907000542E0,9.905142880E0
3.011887729E0,3.870000243E-1,4.315950394E0,8.944950104E0,9.939282126E0
3.013850914E0,3.870000243E-1,4.276950359E0,8.944950104E0,9.922409272E0
3.015813838E0,3.870000243E-1,4.276950359E0,8.983950615E0,9.957582139E0
3.017776839E0,3.490500152E-1,4.276950359E0,8.983950615E0,9.956179435E0
3.019739883E0,3.490500152E-1,4.315950394E0,9.022050858E0,1.000733058E1
3.021702914E0,3.490500152E-1,4.276950359E0,8.944950104E0,9.921001595E0
3.023665893E0,3.490500152E-1,4.315950394E0,8.983950615E0,9.972995155E0
3.025628867E0,3.490500152E-1,4.276950359E0,8.907000542E0,9.886799226E0
3.027591915E0,3.490500152E-1,4.315950394E0,8.944950104E0,9.937876839E0
3.029554942E0,3.109500110E-1,4.392000198E0,8.983950615E0,1.000488502E1
3.031518253E0,3.490500152E-1,4.315950394E0,8.944950104E0,9.937876839E0
3.033481481E0,3.870000243E-1,4.315950394E0,8.944950104E0,9.939282126E0
3.035444524E0,3.109500110E-1,4.354050159E0,8.944950104E0,9.953219331E0
3.037407627E0,3.490500152E-1,4.354050159E0,9.022050858E0,1.002382115E1
3.039370654E0,2.719500065E-1,4.315950394E0,8.869050026E0,9.867189720E0
3.041333704E0,3.109500110E-1,4.354050159E0,8.907000542E0,9.919128054E0
3.043296785E0,3.490500152E-1,4.315950394E0,8.907000542E0,9.903732749E0
3.045259856E0,3.109500110E-1,4.354050159E0,8.907000542E0,9.919128054E0
3.047222910E0,2.340000123E-1,4.315950394E0,8.907000542E0,9.900345573E0
3.049185986E0,3.109500110E-1,4.315950394E0,8.907000542E0,9.902463146E0
3.051149063E0,2.719500065E-1,4.354050159E0,8.907000542E0,9.917982065E0
3.053112140E0,3.109500110E-1,4.354050159E0,8.869050026E0,9.885064039E0
3.055075217E0,3.109500110E-1,4.315950394E0,8.869050026E0,9.868341607E0
3.057038294E0,3.490500152E-1,4.315950394E0,8.907000542E0,9.903732749E0
3.059001070E0,3.490500152E-1,4.354050159E0,8.869050026E0,9.886335877E0
3.060963925E0,3.109500110E-1,4.315950394E0,8.869050026E0,9.868341607E0
3.062927174E0,4.260000288E-1,4.354050159E0,8.907000542E0,9.923401003E0
3.064890308E0,3.490500152E-1,4.354050159E0,8.869050026E0,9.886335877E0
3.066853241E0,3.490500152E-1,4.315950394E0,8.869050026E0,9.869615599E0
3.068816233E0,3.870000243E-1,4.315950394E0,8.869050026E0,9.871030604E0
3.070779323E0,3.870000243E-1,4.276950359E0,8.907000542E0,9.888211772E0
3.072742385E0,3.870000243E-1,4.315950394E0,8.907000542E0,9.905142880E0
3.074705465E0,3.870000243E-1,4.315950394E0,8.944950104E0,9.939282126E0
3.076668539E0,3.490500152E-1,4.315950394E0,8.907000542E0,9.903732749E0
3.078631751E0,3.870000243E-1,4.315950394E0,8.907000542E0,9.905142880E0
3.080594923E0,3.490500152E-1,4.354050159E0,8.907000542E0,9.920395524E0
3.082557854E0,3.490500152E-1,4.315950394E0,8.907000542E0,9.903732749E0
3.084520853E0,4.260000288E-1,4.315950394E0,8.907000542E0,9.906743283E0
3.086483763E0,3.870000243E-1,4.354050159E0,8.907000542E0,9.921803287E0
3.088446699E0,3.870000243E-1,4.354050159E0,8.907000542E0,9.921803287E0
3.090409620E0,3.870000243E-1,4.392000198E0,8.907000542E0,9.938515654E0
3.092372546E0,3.490500152E-1,4.392000198E0,8.907000542E0,9.937110259E0
3.094335447E0,3.490500152E-1,4.392000198E0,8.907000542E0,9.937110259E0
3.096298339E0,3.490500152E-1,4.392000198E0,8.907000542E0,9.937110259E0
3.098261132E0,3.109500110E-1,4.392000198E0,8.869050026E0,9.901838416E0
3.100223954E0,3.490500152E-1,4.431000233E0,8.869050026E0,9.920466085E0
3.102186848E0,3.109500110E-1,4.431000233E0,8.869050026E0,9.919198624E0
3.104149721E0,3.109500110E-1,4.392000198E0,8.869050026E0,9.901838416E0
3.106112653E0,3.109500110E-1,4.431000233E0,8.944950104E0,9.987120973E0
3.108075568E0,2.719500065E-1,4.354050159E0,8.907000542E0,9.917982065E0
3.110038538E0,3.109500110E-1,4.392000198E0,8.944950104E0,9.969879037E0
3.112001491E0,2.719500065E-1,4.431000233E0,8.944950104E0,9.985982787E0
3.113964724E0,2.719500065E-1,4.392000198E0,8.983950615E0,1.000374886E1
3.115927875E0,3.490500152E-1,4.431000233E0,8.944950104E0,9.988379815E0
3.117891096E0,3.109500110E-1,4.392000198E0,8.907000542E0,9.935844921E0
3.119854313E0,2.719500065E-1,4.431000233E0,8.983950615E0,1.002093252E1
3.121817546E0,3.490500152E-1,4.431000233E0,8.983950615E0,1.002332119E1
3.123780774E0,3.490500152E-1,4.392000198E0,8.944950104E0,9.971140056E0
3.125744051E0,3.109500110E-1,4.431000233E0,8.944950104E0,9.987120973E0
3.127707313E0,3.870000243E-1,4.354050159E0,9.022050858E0,1.002521439E1
3.129670490E0,3.490500152E-1,4.431000233E0,8.944950104E0,9.988379815E0
3.131633695E0,4.260000288E-1,4.392000198E0,8.983950615E0,1.000912136E1
3.133596974E0,3.490500152E-1,4.354050159E0,9.060000420E0,1.005799166E1
3.135560231E0,3.109500110E-1,4.392000198E0,9.060000420E0,1.007323003E1
3.137523637E0,3.490500152E-1,4.354050159E0,8.983950615E0,9.989542400E0
3.139487000E0,3.490500152E-1,4.354050159E0,9.022050858E0,1.002382115E1
3.141450228E0,3.490500152E-1,4.392000198E0,9.022050858E0,1.004036371E1
3.143413483E0,3.490500152E-1,4.315950394E0,9.022050858E0,1.000733058E1
3.145376844E0,3.870000243E-1,4.315950394E0,9.060000420E0,1.004294799E1
3.147340173E0,3.109500110E-1,4.315950394E0,9.022050858E0,1.000607412E1
3.149303567E0,3.490500152E-1,4.354050159E0,8.983950615E0,9.989542400E0
3.151266942E0,3.109500110E-1,4.315950394E0,9.022050858E0,1.000607412E1
3.153229960E0,3.490500152E-1,4.354050159E0,8.983950615E0,9.989542400E0
3.155193089E0,3.490500152E-1,4.354050159E0,9.022050858E0,1.002382115E1
3.157155977E0,3.490500152E-1,4.315950394E0,9.060000420E0,1.004155722E1
3.159118935E0,3.109500110E-1,4.315950394E0,9.022050858E0,1.000607412E1
3.161082392E0,2.719500065E-1,4.315950394E0,9.022050858E0,1.000493809E1
3.163045703E0,3.490500152E-1,4.315950394E0,9.022050858E0,1.000733058E1
3.165008980E0,3.109500110E-1,4.315950394E0,9.022050858E0,1.000607412E1
3.166972257E0,3.490500152E-1,4.276950359E0,9.098999977E0,1.006011634E1
3.168935614E0,3.109500110E-1,4.315950394E0,9.060000420E0,1.004030504E1
3.170898947E0,3.490500152E-1,4.276950359E0,9.060000420E0,1.002485650E1
3.172862341E0,3.870000243E-1,4.276950359E0,9.098999977E0,1.006150456E1
3.174825717E0,3.870000243E-1,4.276950359E0,9.098999977E0,1.006150456E1
3.176788807E0,3.109500110E-1,4.239000320E0,9.060000420E0,1.000746827E1
3.178751968E0,3.109500110E-1,4.276950359E0,9.060000420E0,1.002360224E1
3.180715031E0,3.490500152E-1,4.315950394E0,9.060000420E0,1.004155722E1
3.182678122E0,3.490500152E-1,4.276950359E0,9.022050858E0,9.990572655E0
3.184641376E0,3.109500110E-1,4.276950359E0,9.060000420E0,1.002360224E1
3.186604582E0,3.109500110E-1,4.276950359E0,9.060000420E0,1.002360224E1
3.188567439E0,3.490500152E-1,4.276950359E0,9.022050858E0,9.990572655E0
3.190530411E0,3.490500152E-1,4.315950394E0,9.022050858E0,1.000733058E1
3.192493460E0,3.490500152E-1,4.315950394E0,9.060000420E0,1.004155722E1
3.194456486E0,3.490500152E-1,4.276950359E0,8.983950615E0,9.956179435E0
3.196419438E0,3.109500110E-1,4.315950394E0,8.983950615E0,9.971734371E0
3.198382411E0,3.870000243E-1,4.276950359E0,8.944950104E0,9.922409272E0
3.200345486E0,3.490500152E-1,4.315950394E0,8.983950615E0,9.972995155E0
3.202308544E0,3.490500152E-1,4.276950359E0,8.983950615E0,9.956179435E0
3.204271624E0,3.870000243E-1,4.315950394E0,8.944950104E0,9.939282126E0
3.206234698E0,3.490500152E-1,4.315950394E0,8.944950104E0,9.937876839E0
3.208198136E0,3.870000243E-1,4.276950359E0,8.983950615E0,9.957582139E0
3.210161467E0,3.870000243E-1,4.315950394E0,8.944950104E0,9.939282126E0
3.212124677E0,3.870000243E-1,4.315950394E0,8.944950104E0,9.939282126E0
3.214087926E0,4.260000288E-1,4.315950394E0,8.944950104E0,9.940877033E0
3.216051288E0,3.490500152E-1,4.315950394E0,8.983950615E0,9.972995155E0
3.218014616E0,3.870000243E-1,4.315950394E0,8.944950104E0,9.939282126E0
3.219977876E0,3.870000243E-1,4.276950359E0,8.907000542E0,9.888211772E0
3.221941156E0,3.490500152E-1,4.315950394E0,8.907000542E0,9.903732749E0
3.223904413E0,4.260000288E-1,4.315950394E0,8.944950104E0,9.940877033E0
3.225867652E0,3.490500152E-1,4.315950394E0,8.944950104E0,9.937876839E0
3.227830836E0,3.490500152E-1,4.315950394E0,8.983950615E0,9.972995155E0
3.229794036E0,4.260000288E-1,4.315950394E0,8.983950615E0,9.975984787E0
3.231757092E0,3.870000243E-1,4.315950394E0,8.907000542E0,9.905142880E0
3.233720190E0,3.870000243E-1,4.315950394E0,8.983950615E0,9.974395494E0
3.235683128E0,3.870000243E-1,4.315950394E0,8.944950104E0,9.939282126E0
3.237646113E0,3.870000243E-1,4.354050159E0,8.944950104E0,9.955885404E0
3.239609340E0,4.260000288E-1,4.354050159E0,8.907000542E0,9.923401003E0
3.241572496E0,3.109500110E-1,4.315950394E0,8.944950104E0,9.936611599E0
3.243535740E0,3.870000243E-1,4.354050159E0,8.944950104E0,9.955885404E0
3.245498958E0,3.490500152E-1,4.354050159E0,8.907000542E0,9.920395524E0
3.247462351E0,3.490500152E-1,4.315950394E0,8.869050026E0,9.869615599E0
3.249425707E0,3.490500152E-1,4.315950394E0,8.907000542E0,9.903732749E0
3.251389096E0,3.490500152E-1,4.354050159E0,8.907000542E0,9.920395524E0
3.253352476E0,3.109500110E-1,4.354050159E0,8.907000542E0,9.919128054E0
3.255315728E0,3.490500152E-1,4.354050159E0,8.907000542E0,9.920395524E0
3.257279017E0,3.490500152E-1,4.392000198E0,8.830050468E0,9.868196032E0
3.259242377E0,3.109500110E-1,4.392000198E0,8.869050026E0,9.901838416E0
3.261205712E0,3.109500110E-1,4.392000198E0,8.869050026E0,9.901838416E0
3.263168791E0,3.490500152E-1,4.392000198E0,8.869050026E0,9.903108099E0
3.265131945E0,2.719500065E-1,4.392000198E0,8.869050026E0,9.900690426E0
3.267095142E0,2.719500065E-1,4.392000198E0,8.830050468E0,9.865769804E0
3.269058327E0,3.109500110E-1,4.354050159E0,8.830050468E0,9.850088019E0
3.271021561E0,3.109500110E-1,4.392000198E0,8.830050468E0,9.866921857E0
3.272984784E0,3.109500110E-1,4.431000233E0,8.869050026E0,9.919198624E0
3.274948061E0,3.109500110E-1,4.392000198E0,8.869050026E0,9.901838416E0
3.276911322E0,3.109500110E-1,4.392000198E0,8.830050468E0,9.866921857E0
3.278874323E0,2.719500065E-1,4.392000198E0,8.907000542E0,9.934700861E0
3.280837401E0,2.340000123E-1,4.392000198E0,8.869050026E0,9.899720709E0
3.282800697E0,3.109500110E-1,4.392000198E0,8.830050468E0,9.866921857E0
3.284763933E0,2.719500065E-1,4.392000198E0,8.907000542E0,9.934700861E0
3.286726623E0,3.109500110E-1,4.392000198E0,8.869050026E0,9.901838416E0
3.288689473E0,2.719500065E-1,4.392000198E0,8.830050468E0,9.865769804E0
3.290652407E0,2.340000123E-1,4.392000198E0,8.907000542E0,9.933734464E0
3.292615317E0,3.109500110E-1,4.392000198E0,8.907000542E0,9.935844921E0
3.294577912E0,3.109500110E-1,4.354050159E0,8.944950104E0,9.953219331E0
3.296540579E0,2.719500065E-1,4.392000198E0,8.907000542E0,9.934700861E0
3.298503545E0,3.109500110E-1,4.392000198E0,8.869050026E0,9.901838416E0
3.300466423E0,2.719500065E-1,4.392000198E0,8.944950104E0,9.968738882E0
3.302429534E0,2.719500065E-1,4.431000233E0,8.944950104E0,9.985982787E0
3.304392577E0,2.719500065E-1,4.431000233E0,9.022050858E0,1.005510425E1
3.306355845E0,2.719500065E-1,4.392000198E0,9.022050858E0,1.003797909E1
3.308319044E0,2.719500065E-1,4.392000198E0,8.983950615E0,1.000374886E1
3.310282415E0,3.109500110E-1,4.392000198E0,9.022050858E0,1.003911138E1
3.312245736E0,2.719500065E-1,4.392000198E0,9.098999977E0,1.010719660E1
3.314208772E0,2.719500065E-1,4.392000198E0,9.022050858E0,1.003797909E1
3.316171892E0,2.719500065E-1,4.354050159E0,9.022050858E0,1.002143260E1
3.318134812E0,2.719500065E-1,4.354050159E0,9.022050858E0,1.002143260E1
3.320097801E0,3.109500110E-1,4.354050159E0,9.022050858E0,1.002256676E1
3.322061207E0,3.109500110E-1,4.354050159E0,9.022050858E0,1.002256676E1
3.324024491E0,2.719500065E-1,4.354050159E0,9.060000420E0,1.005561123E1
3.325987893E0,3.490500152E-1,4.392000198E0,9.022050858E0,1.004036371E1
3.327951260E0,3.490500152E-1,4.354050159E0,9.022050858E0,1.002382115E1
3.329914523E0,3.490500152E-1,4.354050159E0,9.098999977E0,1.009313575E1
3.331877810E0,3.109500110E-1,4.315950394E0,9.022050858E0,1.000607412E1
