"Time (s)","Acceleration x (m/s^2)","Acceleration y (m/s^2)","Acceleration z (m/s^2)","Absolute acceleration (m/s^2)"
3.457652700E-2,-3.019500077E-1,9.430500269E-1,6.070950508E0,6.151175272E0
3.653817000E-2,-3.299999982E-2,1.288050056E0,5.725950241E0,5.869128394E0
3.850237300E-2,3.109500110E-1,1.555950046E0,5.304000378E0,5.536252384E0
4.046579700E-2,7.320000529E-1,1.900950074E0,4.921050072E0,5.325989962E0
4.242945000E-2,1.192050099E0,2.169000149E0,4.461000443E0,5.101575250E0
4.439169200E-2,1.575000048E0,2.476050138E0,4.000950336E0,4.961759066E0
4.635435800E-2,2.149950027E0,2.782050133E0,3.579000235E0,5.017103820E0
4.831701000E-2,2.649000168E0,3.051000118E0,3.118950129E0,5.104277962E0
5.027966600E-2,3.262050152E0,3.280950069E0,2.545050144E0,5.280424679E0
5.224258900E-2,3.798000097E0,3.549000263E0,1.816050053E0,5.506200632E0
5.420543300E-2,4.258049965E0,3.778950214E0,1.356000066E0,5.852366223E0
5.616889600E-2,4.717950344E0,3.970950127E0,7.050000429E-1,6.206812823E0
5.813218800E-2,5.215950012E0,4.162050247E0,-1.369500011E-1,6.674395260E0
6.009437300E-2,5.676000118E0,4.276950359E0,-9.810000658E-1,7.174374039E0
6.205688300E-2,6.136050224E0,4.468950272E0,-1.786050081E0,7.798243634E0
6.401969500E-2,6.634950161E0,4.545000076E0,-2.551950216E0,8.437537510E0
6.598241900E-2,7.210050106E0,4.621950150E0,-3.319050074E0,9.184951775E0
6.794495200E-2,7.630950451E0,4.699050426E0,-3.894000292E0,9.771167687E0
6.990755500E-2,7.899000168E0,4.852050304E0,-4.353000164E0,1.024134787E1
7.187035100E-2,8.053050041E0,4.966950417E0,-4.736999989E0,1.058118048E1
7.383309100E-2,8.014050484E0,5.044050217E0,-4.966950417E0,1.069289690E1
7.579591100E-2,7.938000202E0,5.158950329E0,-4.927950382E0,1.067292419E1
7.775870700E-2,7.669050217E0,5.197050095E0,-4.890000343E0,1.047548396E1
7.972162400E-2,7.095000267E0,5.197050095E0,-4.698000431E0,9.970936091E0
8.168452500E-2,6.405000210E0,5.119950294E0,-4.200000286E0,9.212921421E0
8.364722800E-2,5.523000240E0,5.044050217E0,-3.433950186E0,8.230309115E0
8.560998900E-2,4.488000393E0,4.929000378E0,-2.590050220E0,7.151611874E0
8.757275800E-2,3.376950264E0,4.736999989E0,-1.824000120E0,6.096715379E0
8.953552500E-2,2.341950178E0,4.507050037E0,-8.659500480E-1,5.152484853E0
9.149756000E-2,1.614000082E0,4.239000320E0,1.500000060E-2,4.535895169E0
9.345982000E-2,1.269000053E0,4.009050369E0,7.429500222E-1,4.270224904E0
9.542285600E-2,1.192050099E0,3.702000141E0,1.663050056E0,4.229837346E0
9.738566400E-2,1.192050099E0,3.472050190E0,2.659050226E0,4.532842824E0
9.934847200E-2,1.306950092E0,3.241950035E0,3.541050196E0,4.975680362E0
1.013112800E-1,1.306950092E0,3.051000118E0,4.423050404E0,5.529927227E0
1.032740050E-1,1.498950124E0,2.896950245E0,5.341950417E0,6.259041975E0
1.052367820E-1,1.651950121E0,2.743950129E0,6.262050152E0,7.033596066E0
1.071995040E-1,1.843950033E0,2.743950129E0,7.258950233E0,7.976325753E0
1.091622430E-1,2.111999989E0,2.782050133E0,8.409000397E0,9.105582604E0
1.111248370E-1,2.265000105E0,2.974050045E0,9.442950249E0,1.015600849E1
1.130874740E-1,2.341950178E0,3.280950069E0,1.055505085E1,1.129860445E1
1.150502500E-1,2.419050217E0,3.664050102E0,1.159005070E1,1.239380258E1
1.170129960E-1,2.304000139E0,4.085999966E0,1.262505054E1,1.346832260E1
1.189757690E-1,2.188950062E0,4.545000076E0,1.342995071E1,1.434615294E1
1.209385340E-1,2.074050188E0,5.082000256E0,1.392795086E1,1.497051188E1
1.229013040E-1,1.996950150E0,5.734050274E0,1.392795086E1,1.519391186E1
1.248640720E-1,1.729050040E0,6.577050209E0,1.350600052E1,1.512148318E1
1.268270030E-1,1.384050012E0,7.765050411E0,1.270095062E1,1.495077754E1
1.287899000E-1,9.240000248E-1,9.375000000E0,1.170495033E1,1.502498796E1
1.307519270E-1,1.960500032E-1,1.121400070E1,1.047795010E1,1.534860533E1
1.327142090E-1,-4.930500090E-1,1.328400040E1,9.367050171E0,1.626190007E1
1.346769260E-1,-9.529500604E-1,1.523895073E1,8.140049934E0,1.730300974E1
1.366395150E-1,-1.222050071E0,1.673400116E1,6.799050331E0,1.810379205E1
1.386024840E-1,-1.336950064E0,1.784505081E1,5.112000465E0,1.861090602E1
1.405653500E-1,-1.605000019E0,1.891800117E1,2.659050226E0,1.917126343E1
1.425289590E-1,-1.911000133E0,1.995300102E1,-5.209500194E-1,2.005107379E1
1.444923500E-1,-2.448000193E0,2.125605011E1,-4.009050369E0,2.176889653E1
1.464550140E-1,-2.985000134E0,2.278905106E1,-6.997950554E0,2.402545287E1
1.484178910E-1,-3.598050117E0,2.462895203E1,-9.144000053E0,2.651686217E1
1.503806220E-1,-3.751050234E0,2.650695038E1,-9.796050072E0,2.850704112E1
1.523434100E-1,-3.636000156E0,2.803995132E1,-8.722949982E0,2.958968104E1
1.543061760E-1,-2.985000134E0,2.907495117E1,-6.768000126E0,3.000114726E1
1.562689490E-1,-2.332950115E0,2.999505234E1,-4.545000076E0,3.042700851E1
1.582319420E-1,-1.567050099E0,3.095295143E1,-2.743950129E0,3.111382507E1
1.601948700E-1,-1.144950032E0,3.152805138E1,-2.206950188E0,3.162593182E1
1.621574220E-1,-8.380500674E-1,3.191100121E1,-2.053950071E0,3.198801395E1
1.641200920E-1,-1.030050039E0,3.256305313E1,-2.475000143E0,3.267321622E1
1.660826980E-1,-1.642950058E0,3.325305176E1,-3.433950186E0,3.347023678E1
1.680453230E-1,-2.410050154E0,3.382800293E1,-4.698000431E0,3.423760114E1
1.700079370E-1,-3.598050117E0,3.405795288E1,-5.388000488E0,3.466872753E1
1.719705540E-1,-4.939050198E0,3.390405273E1,-5.925000191E0,3.477045637E1
1.739334650E-1,-6.088950157E0,3.344400024E1,-6.615000248E0,3.463141196E1
1.758963030E-1,-7.162050247E0,3.264000320E1,-7.075050354E0,3.415729952E1
1.778589270E-1,-8.158950806E0,3.152805138E1,-7.420050144E0,3.340125216E1
1.798216130E-1,-8.887050629E0,3.026295090E1,-7.803000450E0,3.249173252E1
1.817843950E-1,-9.577050209E0,2.876895142E1,-7.995000362E0,3.135749491E1
1.837471490E-1,-1.018995094E1,2.715900040E1,-7.803000450E0,3.003886181E1
1.857098870E-1,-1.053495026E1,2.566395187E1,-7.650000572E0,2.877752789E1
1.876726540E-1,-1.087995052E1,2.424600029E1,-7.534950256E0,2.762276830E1
1.896353790E-1,-1.118700027E1,2.290395164E1,-7.534950256E0,2.658035838E1
1.915981170E-1,-1.141695023E1,2.152500153E1,-7.458000183E0,2.548125213E1
1.935605320E-1,-1.160805035E1,2.033595085E1,-7.420050144E0,2.456328305E1
1.955230410E-1,-1.183800030E1,1.930200005E1,-7.458000183E0,2.383961458E1
1.974854650E-1,-1.210695076E1,1.845795059E1,-7.381050587E0,2.327561180E1
1.994479350E-1,-1.241295052E1,1.780695152E1,-7.266000271E0,2.289025170E1
2.014106190E-1,-1.256700039E1,1.726995087E1,-7.342950344E0,2.258538513E1
2.033732400E-1,-1.275795078E1,1.673400116E1,-7.495950222E0,2.233789096E1
2.053358110E-1,-1.298805046E1,1.623495102E1,-7.458000183E0,2.208811572E1
2.072983960E-1,-1.314105034E1,1.569900036E1,-7.420050144E0,2.177620170E1
2.092608810E-1,-1.348605061E1,1.539195061E1,-7.189950466E0,2.169057611E1
2.112233960E-1,-1.367805099E1,1.500900078E1,-6.844950199E0,2.142924466E1
2.131861630E-1,-1.383105087E1,1.481700039E1,-6.385050297E0,2.125112552E1
2.151488560E-1,-1.379295063E1,1.458705044E1,-5.962950230E0,2.094240442E1
2.171113240E-1,-1.379295063E1,1.447200108E1,-5.542050362E0,2.074605082E1
2.190738580E-1,-1.371600056E1,1.439595032E1,-5.158050060E0,2.054209184E1
2.210364700E-1,-1.360095024E1,1.431900024E1,-4.813050270E0,2.032695423E1
2.229990390E-1,-1.341000080E1,1.416600037E1,-4.392000198E0,1.999483317E1
2.249613030E-1,-1.310295105E1,1.393605042E1,-3.970050097E0,1.953617478E1
2.269236560E-1,-1.283505058E1,1.382100105E1,-3.510000229E0,1.918537712E1
2.288863610E-1,-1.249005032E1,1.374405098E1,-3.049950123E0,1.882026806E1
2.308489620E-1,-1.222200012E1,1.366695023E1,-2.514000177E0,1.850629656E1
2.328113960E-1,-1.191495037E1,1.362900066E1,-2.014950037E0,1.821471178E1
2.347738820E-1,-1.164705086E1,1.370595074E1,-1.516950130E0,1.805015282E1
2.367363390E-1,-1.156995010E1,1.359105110E1,-9.040500522E-1,1.787170171E1
2.386988050E-1,-1.114800072E1,1.336095047E1,-2.910000086E-1,1.740337894E1
2.406612660E-1,-1.065000057E1,1.313100052E1,9.195000678E-2,1.690722158E1
2.426237280E-1,-1.007505035E1,1.278600025E1,2.449500114E-1,1.628030843E1
2.445854180E-1,-9.424050331E0,1.228800011E1,5.509500504E-1,1.549552249E1
2.465473380E-1,-8.656949997E0,1.186605072E1,6.660000086E-1,1.470338393E1
2.485100720E-1,-7.813950539E0,1.129095078E1,7.050000429E-1,1.374919698E1
2.504725670E-1,-7.009050369E0,1.079295063E1,8.200500607E-1,1.289523371E1
2.524350680E-1,-6.166050434E0,1.033305073E1,8.959500194E-1,1.206626876E1
2.543975670E-1,-5.208000183E0,9.910950661E0,9.349500537E-1,1.123496064E1
2.563599640E-1,-4.363950253E0,9.757950783E0,1.087950110E0,1.074454749E1
2.583224010E-1,-3.675000191E0,9.910950661E0,1.432950020E0,1.066704810E1
2.602850460E-1,-2.869950056E0,1.010295010E1,1.510050058E0,1.061067694E1
2.622476300E-1,-2.140950203E0,1.037100029E1,1.548000097E0,1.070222496E1
2.642104310E-1,-1.528050065E0,1.056300068E1,1.701000094E0,1.080765107E1
2.661731690E-1,-8.770500422E-1,1.067805004E1,1.893000126E0,1.087995491E1
2.681359840E-1,-4.930500090E-1,1.087005043E1,1.740000129E0,1.101946891E1
2.700987790E-1,-1.480500102E-1,1.106100082E1,1.471050024E0,1.115937481E1
2.720616790E-1,1.189500093E-1,1.121400070E1,1.050000072E0,1.126367884E1
2.740245480E-1,4.639500082E-1,1.136805058E1,3.600000143E-1,1.138320796E1
2.759885620E-1,9.619500637E-1,1.152105045E1,-9.900000691E-2,1.156156358E1
2.779522410E-1,1.345050097E0,1.159800053E1,-2.520000041E-1,1.167845366E1
2.799138240E-1,1.920000076E0,1.152105045E1,-2.205000073E-2,1.167996105E1
2.818760170E-1,2.494950056E0,1.140600014E1,6.660000086E-1,1.169466421E1
2.838392450E-1,3.070050240E0,1.132905006E1,1.471050024E0,1.182947894E1
2.858021690E-1,3.415050268E0,1.121400070E1,2.391000032E0,1.196383138E1
2.877648670E-1,3.682950258E0,1.117605019E1,3.502950191E0,1.227757632E1
2.897276320E-1,3.798000097E0,1.121400070E1,4.498950005E0,1.266566886E1
2.916905950E-1,3.874950171E0,1.129095078E1,5.341950417E0,1.307812076E1
2.936534900E-1,3.798000097E0,1.148295021E1,5.917050362E0,1.346456220E1
2.956162840E-1,3.529950142E0,1.175100040E1,5.917050362E0,1.362196915E1
2.975791080E-1,3.300000191E0,1.213395023E1,5.611050129E0,1.376977244E1
2.995420470E-1,3.108000040E0,1.251795101E1,5.227050304E0,1.391692555E1
3.015049520E-1,2.992950201E0,1.286295033E1,4.768050194E0,1.404092392E1
3.034678980E-1,2.839950085E0,1.305405045E1,4.461000443E0,1.408453316E1
3.054308180E-1,2.955000162E0,1.320795059E1,4.537950039E0,1.427497725E1
3.073936970E-1,3.147000074E0,1.320795059E1,5.112000465E0,1.450813968E1
3.093565890E-1,3.300000191E0,1.301595020E1,6.070950508E0,1.473639715E1
3.113195160E-1,3.300000191E0,1.267095089E1,7.105050564E0,1.489713869E1
3.132824330E-1,3.262050152E0,1.217295074E1,8.025000572E0,1.494062700E1
3.152452130E-1,2.839950085E0,1.132905006E1,8.179050446E0,1.425866607E1
3.172080410E-1,2.572050095E0,1.041000080E1,7.066950321E0,1.284232632E1
3.191707550E-1,2.802000046E0,9.259950638E0,5.457000256E0,1.110750836E1
3.211335020E-1,3.415050268E0,8.187000275E0,3.808950186E0,9.653892653E0
3.230964990E-1,3.874950171E0,7.113000393E0,2.545050144E0,8.490423644E0
3.250594230E-1,4.297049999E0,6.193950176E0,1.701000094E0,7.728069539E0
3.270221810E-1,4.642050266E0,5.274000168E0,1.471050024E0,7.178279503E0
3.289849780E-1,4.795050144E0,4.431000233E0,1.548000097E0,6.709886232E0
3.309476980E-1,4.948050022E0,3.664050102E0,1.893000126E0,6.441421555E0
3.329104400E-1,4.987050056E0,2.859000206E0,2.506050110E0,6.270951889E0
3.348730330E-1,5.140050411E0,1.939050078E0,3.118950129E0,6.317268661E0
3.368356700E-1,5.215950012E0,1.096050024E0,3.733050108E0,6.507159387E0
3.387990380E-1,5.178000450E0,2.530499995E-1,4.116000175E0,6.619454691E0
3.407621980E-1,4.987050056E0,-2.830500007E-1,4.345950127E0,6.621032251E0
3.427244960E-1,4.756950378E0,-8.580000401E-1,4.231050014E0,6.423902645E0
3.446870460E-1,4.564949989E0,-1.509000063E0,4.269000053E0,6.429635375E0
3.466497170E-1,4.297049999E0,-2.046000004E0,4.192950249E0,6.342837417E0
3.486123520E-1,4.105050087E0,-2.506050110E0,4.269000053E0,6.430869679E0
3.505752880E-1,3.798000097E0,-2.926950216E0,4.461000443E0,6.549226462E0
3.525381300E-1,3.607050180E0,-3.349050045E0,4.498950005E0,6.668395486E0
3.545009330E-1,3.453000069E0,-3.847050190E0,4.308000088E0,6.729180440E0
3.564637470E-1,3.337950230E0,-4.345950127E0,3.847950220E0,6.695962600E0
3.584264640E-1,3.300000191E0,-4.804950237E0,3.426000118E0,6.761288698E0
3.603892090E-1,3.300000191E0,-5.265000343E0,2.851050138E0,6.836572004E0
3.623521610E-1,3.223050117E0,-5.725050449E0,2.238000154E0,6.940669953E0
3.643150530E-1,3.184950113E0,-6.031950474E0,1.740000129E0,7.039597587E0
3.662779810E-1,3.070050240E0,-6.262050152E0,1.395000100E0,7.112278528E0
3.682408990E-1,2.992950201E0,-6.454050541E0,9.730500579E-1,7.180483668E0
3.702047240E-1,2.878050089E0,-6.607050419E0,5.130000114E-1,7.224919139E0
3.721682840E-1,2.686950207E0,-6.684000492E0,2.449500114E-1,7.208020845E0
3.741311440E-1,2.533950090E0,-6.837000370E0,-1.369500011E-1,7.292752047E0
3.760942090E-1,2.457000017E0,-6.913050175E0,-5.209500194E-1,7.355168300E0
3.780570620E-1,2.304000139E0,-6.990000248E0,-8.659500480E-1,7.410694272E0
3.800199780E-1,2.149950027E0,-7.066950321E0,-1.171950102E0,7.479140258E0
3.819825870E-1,2.035050154E0,-7.066950321E0,-1.479000092E0,7.501377023E0
3.839452860E-1,1.767000079E0,-7.027950287E0,-1.632000089E0,7.428176008E0
3.859083680E-1,1.537050128E0,-6.913050175E0,-1.786050081E0,7.303612853E0
3.878713470E-1,1.306950092E0,-6.645000458E0,-1.708950043E0,6.984601626E0
3.898337660E-1,1.114950061E0,-6.339000225E0,-1.594050050E0,6.630764138E0
3.917963490E-1,7.320000529E-1,-5.878950119E0,-1.441050053E0,6.097089784E0
3.937582490E-1,4.260000288E-1,-5.341950417E0,-1.287000060E0,5.511286550E0
3.957203490E-1,1.570500135E-1,-4.843950272E0,-1.057050109E0,4.960430815E0
3.976831870E-1,-3.299999982E-2,-4.422000408E0,-8.269500136E-1,4.498780161E0
3.996458080E-1,-1.099500060E-1,-4.000950336E0,-8.269500136E-1,4.086996320E0
4.016084240E-1,-1.480500102E-1,-3.579000235E0,-7.510500550E-1,3.659950501E0
4.035710410E-1,-7.200000435E-2,-3.157050133E0,-6.739500165E-1,3.228987173E0
4.055336560E-1,4.050000105E-3,-2.736000061E0,-4.819500148E-1,2.778126807E0
4.074962720E-1,8.100000024E-2,-2.467050076E0,-2.520000041E-1,2.481209600E0
4.094583620E-1,2.719500065E-1,-2.275950193E0,-1.369500011E-1,2.296227644E0
4.114206270E-1,5.410500169E-1,-2.046000004E0,3.220500052E-1,2.140693192E0
4.133839780E-1,6.940500140E-1,-1.854000092E0,5.509500504E-1,2.054888737E0
4.153470100E-1,8.470500112E-1,-1.585950017E0,6.660000086E-1,1.917364647E0
4.173097800E-1,1.000050068E0,-1.318050027E0,8.959500194E-1,1.881510683E0
4.192726270E-1,1.192050099E0,-1.048950076E0,9.730500579E-1,1.862285187E0
4.212353680E-1,1.269000053E0,-7.429500222E-1,1.087950110E0,1.829199638E0
4.231981510E-1,1.384050012E0,-4.740000367E-1,1.126049995E0,1.846147086E0
4.251607380E-1,1.537050128E0,-2.830500007E-1,1.240950108E0,1.995644650E0
4.271233820E-1,1.690050125E0,-1.290000081E-1,1.279950023E0,2.123954446E0
4.290855870E-1,1.882050037E0,-9.105000645E-2,1.356000066E0,2.321451836E0
4.310479200E-1,2.111999989E0,6.105000153E-2,1.395000100E0,2.531856302E0
4.330104480E-1,2.419050217E0,6.105000153E-2,1.356000066E0,2.773854220E0
4.349729180E-1,2.649000168E0,2.530499995E-1,1.279950023E0,2.952881347E0
4.369357390E-1,2.878050089E0,3.289500177E-1,1.011000037E0,3.068143006E0
4.388984570E-1,3.223050117E0,4.060500264E-1,6.280500293E-1,3.308681841E0
4.408623160E-1,3.492000103E0,5.980500579E-1,2.830500007E-1,3.554130821E0
4.428258410E-1,3.721950293E0,7.890000343E-1,1.500000060E-2,3.804689217E0
4.447875750E-1,4.027950287E0,9.810000658E-1,1.500000060E-2,4.145717024E0
4.467498380E-1,4.297049999E0,1.173000097E0,3.600000143E-1,4.468799384E0
4.487126930E-1,4.488000393E0,1.518000126E0,1.087950110E0,4.861080883E0
4.506753750E-1,4.564949989E0,1.863000035E0,2.200050116E0,5.399051588E0
4.526382940E-1,4.527000427E0,2.208000183E0,4.078050137E0,6.480701397E0
4.546011440E-1,4.335000038E0,2.590950012E0,6.301050186E0,8.075176824E0
4.565639000E-1,4.105050087E0,3.051000118E0,8.562000275E0,9.973358845E0
4.585266840E-1,4.066950321E0,3.472050190E0,1.074705029E1,1.200392883E1
4.604892710E-1,3.913050175E0,3.856050253E0,1.262505054E1,1.376855063E1
4.624519150E-1,3.874950171E0,4.239000320E0,1.396605110E1,1.510082600E1
4.644147050E-1,3.798000097E0,4.621950150E0,1.480905056E1,1.597170017E1
4.663774520E-1,3.874950171E0,5.005050182E0,1.500105095E1,1.628180874E1
4.683400910E-1,4.143000126E0,5.580000401E0,1.404300022E1,1.566865373E1
4.703027610E-1,4.297049999E0,6.385050297E0,1.228005028E1,1.449252017E1
4.722655460E-1,4.372950077E0,7.420050144E0,1.001805019E1,1.321140289E1
4.742282980E-1,4.411950111E0,8.722949982E0,7.219950199E0,1.215248292E1
4.761912050E-1,4.564949989E0,1.002600002E1,4.078050137E0,1.174691184E1
4.781540670E-1,4.488000393E0,1.140600014E1,4.360500276E-1,1.226495521E1
4.801174070E-1,4.297049999E0,1.290105057E1,-3.625050068E0,1.407276563E1
4.820806060E-1,3.952050209E0,1.412700081E1,-7.687950134E0,1.656186674E1
4.840433020E-1,3.262050152E0,1.516200066E1,-1.102200031E1,1.902660574E1
4.860061460E-1,1.996950150E0,1.654200172E1,-1.339905071E1,2.138130471E1
4.879680010E-1,1.960500032E-1,1.853505135E1,-1.454895115E1,2.356392462E1
4.899301460E-1,-2.026050091E0,2.087295151E1,-1.439505100E1,2.543624337E1
4.918932010E-1,-4.479000092E0,2.416905022E1,-1.278600025E1,2.770715129E1
4.938559900E-1,-7.201050282E0,2.746500206E1,-1.121400070E1,3.052761496E1
4.958187570E-1,-9.960000038E0,3.106800079E1,-1.010295010E1,3.415394377E1
4.977815310E-1,-1.210695076E1,3.459405136E1,-8.340000153E0,3.758832596E1
4.997442990E-1,-1.413795090E1,3.811995316E1,-6.499950409E0,4.117355753E1
5.017070690E-1,-1.597800064E1,4.206795120E1,-5.197050095E0,4.529920918E1
5.036696680E-1,-1.685895157E1,4.555605316E1,-3.472050190E0,4.869941848E1
5.056323100E-1,-1.747200012E1,4.877595139E1,-2.782050133E0,5.188548954E1
5.075951000E-1,-1.827705002E1,5.176500320E1,-2.782050133E0,5.496731681E1
5.095578460E-1,-1.854600143E1,5.414100266E1,-3.817050219E0,5.735653590E1
5.115208000E-1,-1.823895073E1,5.605800247E1,-4.774950027E0,5.914354667E1
5.134836930E-1,-1.636095047E1,5.601900101E1,-5.158050060E0,5.858681297E1
5.154466020E-1,-1.482795048E1,5.605800247E1,-5.580000401E0,5.825379096E1
5.174095200E-1,-1.344795036E1,5.613405228E1,-5.733000278E0,5.800643487E1
5.193724000E-1,-1.168500042E1,5.540595245E1,-5.962950230E0,5.693782203E1
5.213352910E-1,-9.499950409E0,5.360505295E1,-6.844950199E0,5.486897213E1
5.232980840E-1,-6.894000530E0,5.053905106E1,-8.110050201E0,5.164780575E1
5.252609060E-1,-4.018949986E0,4.609305191E1,-8.991000175E0,4.713342209E1
5.272236300E-1,-1.834950089E0,4.126305008E1,-9.067950249E0,4.228751666E1
5.291863770E-1,-9.919500351E-1,3.704700089E1,-8.991000175E0,3.813531596E1
5.311489700E-1,-7.620000243E-1,3.386595154E1,-8.683950424E0,3.496990581E1
5.331116080E-1,-7.620000243E-1,3.099195099E1,-8.608050346E0,3.217421640E1
5.350742630E-1,-5.700000525E-1,2.850000191E1,-8.838000298E0,2.984435052E1
5.370369130E-1,-2.629500031E-1,2.639205170E1,-8.914050102E0,2.785802981E1
5.389996760E-1,4.200000316E-2,2.474400139E1,-8.991000175E0,2.632689600E1
5.409623930E-1,3.109500110E-1,2.313405037E1,-9.183000565E0,2.489193596E1
5.429257570E-1,7.699500322E-1,2.187000084E1,-9.028950691E0,2.367301650E1
5.448889310E-1,1.114950061E0,2.060505104E1,-9.028950691E0,2.252405808E1
5.468514520E-1,1.384050012E0,1.949295044E1,-8.914050102E0,2.147908286E1
5.488141640E-1,1.537050128E0,1.861200142E1,-8.991000175E0,2.072696804E1
5.507768970E-1,1.498950124E0,1.776900101E1,-8.914050102E0,1.993601107E1
5.527396240E-1,1.537050128E0,1.707900047E1,-8.953050613E0,1.934455726E1
5.547024450E-1,1.498950124E0,1.638899994E1,-9.336000443E0,1.892107488E1
5.566652390E-1,1.422000051E0,1.588995075E1,-9.412950516E0,1.852339754E1
5.586280050E-1,1.306950092E0,1.550700092E1,-9.106050491E0,1.803040076E1
5.605907800E-1,1.114950061E0,1.520100117E1,-8.683950424E0,1.754207927E1
5.625528270E-1,8.089500666E-1,1.485600090E1,-8.263050079E0,1.701861215E1
5.645150870E-1,5.020500422E-1,1.454895115E1,-7.918050289E0,1.657164911E1
5.664777620E-1,8.100000024E-2,1.412700081E1,-7.266000271E0,1.588626680E1
5.684403160E-1,-2.250000089E-1,1.366695023E1,-6.768000126E0,1.525260565E1
5.704029420E-1,-4.170000255E-1,1.316895103E1,-6.423000336E0,1.465776564E1
5.723655470E-1,-6.469500065E-1,1.255605030E1,-6.040050507E0,1.394830289E1
5.743283090E-1,-9.919500351E-1,1.178895092E1,-5.197050095E0,1.292179006E1
5.762910180E-1,-1.260000110E0,1.102305031E1,-4.545000076E0,1.198967323E1
5.782539780E-1,-1.068000078E0,1.029495049E1,-4.813050270E0,1.141455573E1
5.802168650E-1,-7.620000243E-1,9.720000267E0,-5.005050182E0,1.095945147E1
5.821797940E-1,-3.780000210E-1,9.298050880E0,-4.736999989E0,1.044202102E1
5.841427110E-1,-1.480500102E-1,8.838000298E0,-4.276950359E0,9.819596348E0
5.861056250E-1,-1.870500147E-1,8.532000542E0,-3.970050097E0,9.412296145E0
5.880685470E-1,-3.400500119E-1,8.187000275E0,-3.739950180E0,9.007210159E0
5.900315150E-1,-6.079500318E-1,7.803000450E0,-3.510000229E0,8.577675727E0
5.919944700E-1,-8.770500422E-1,7.534950256E0,-3.280050039E0,8.264588338E0
5.939569830E-1,-1.183050036E0,7.152000427E0,-3.049950123E0,7.864662310E0
5.959196260E-1,-1.605000019E0,6.768000126E0,-2.820000172E0,7.505614681E0
5.978822960E-1,-2.065050125E0,6.309000492E0,-2.629050016E0,7.140015631E0
5.998449470E-1,-2.218050003E0,5.848950386E0,-2.590050220E0,6.770400769E0
6.018073770E-1,-2.371050119E0,5.235000134E0,-2.322000027E0,6.198289215E0
6.037698720E-1,-2.601000071E0,4.774950027E0,-1.977000117E0,5.785661466E0
6.057326870E-1,-2.640000105E0,4.162050247E0,-1.671000123E0,5.204277493E0
6.076954080E-1,-2.755050182E0,3.625950098E0,-1.057050109E0,4.674951396E0
6.096578350E-1,-2.793000221E0,3.088950157E0,-3.670500219E-1,4.180572811E0
6.116203420E-1,-2.601000071E0,2.514000177E0,1.680000126E-1,3.621273569E0
6.135823900E-1,-2.601000071E0,1.978050113E0,5.509500504E-1,3.313824011E0
6.155445730E-1,-2.640000105E0,1.479000092E0,8.200500607E-1,3.135207159E0
6.175072620E-1,-3.061050177E0,9.040500522E-1,8.959500194E-1,3.315126109E0
6.194698020E-1,-2.563050032E0,2.530499995E-1,8.959500194E-1,2.726900476E0
6.214333670E-1,-2.563050032E0,-1.680000126E-1,7.429500222E-1,2.673840722E0
6.233966380E-1,-2.371050119E0,-5.130000114E-1,6.660000086E-1,2.515671618E0
6.253595020E-1,-2.677950144E0,-1.011000037E0,5.899500251E-1,2.922598002E0
6.273224860E-1,-2.755050182E0,-1.471050024E0,3.979500234E-1,3.148436739E0
6.292859380E-1,-2.065050125E0,-2.008050203E0,3.220500052E-1,2.898346743E0
6.312492530E-1,-1.795950055E0,-2.506050110E0,1.300500035E-1,3.085876983E0
6.332118710E-1,-1.834950089E0,-2.926950216E0,1.680000126E-1,3.458656300E0
6.351747030E-1,-1.720050097E0,-3.502050161E0,2.070000172E-1,3.907144312E0
6.371365600E-1,-1.528050065E0,-4.039050102E0,2.830500007E-1,4.327699162E0
6.390987030E-1,-1.336950064E0,-4.575000286E0,5.130000114E-1,4.793874435E0
6.410615780E-1,-1.222050071E0,-5.112000465E0,6.660000086E-1,5.298066737E0
6.430242390E-1,-8.770500422E-1,-5.764050484E0,8.200500607E-1,5.887781998E0
6.449870670E-1,-3.400500119E-1,-6.147000313E0,1.126049995E0,6.258533011E0
6.469498500E-1,-1.480500102E-1,-6.645000458E0,1.395000100E0,6.791463404E0
6.489129320E-1,8.100000024E-2,-6.952050209E0,1.585950017E0,7.131114959E0
6.508759270E-1,4.639500082E-1,-7.219950199E0,1.969950080E0,7.498242048E0
6.528395590E-1,7.699500322E-1,-7.603050232E0,2.275950193E0,7.973653188E0
6.548030040E-1,1.114950061E0,-7.795050144E0,2.467950106E0,8.252072353E0
6.567655230E-1,1.345050097E0,-7.948050499E0,2.698050022E0,8.500596474E0
6.587283130E-1,1.537050128E0,-8.025000572E0,2.812950134E0,8.641518717E0
6.606912580E-1,1.729050040E0,-7.987050533E0,3.081000090E0,8.733564668E0
6.626541580E-1,1.996950150E0,-7.795050144E0,3.463950157E0,8.760683041E0
6.646170410E-1,2.227050066E0,-7.411950588E0,3.886050224E0,8.660147220E0
6.665799290E-1,2.380050182E0,-7.027950287E0,4.345950127E0,8.599070101E0
6.685429070E-1,2.533950090E0,-6.607050419E0,4.843950272E0,8.575422586E0
6.705058550E-1,2.610000134E0,-6.184950352E0,5.188950062E0,8.484745977E0
6.724685940E-1,2.649000168E0,-5.649000168E0,5.457000256E0,8.288984050E0
6.744313950E-1,2.610000134E0,-5.074050426E0,5.686950207E0,8.056022038E0
6.763946540E-1,2.610000134E0,-4.537050247E0,5.878950119E0,7.871402680E0
6.783577780E-1,2.610000134E0,-3.924000263E0,5.994000435E0,7.624822619E0
6.803208930E-1,2.686950207E0,-3.502050161E0,5.994000435E0,7.443930276E0
6.822840110E-1,2.839950085E0,-3.081000090E0,5.878950119E0,7.219413587E0
6.842469000E-1,2.955000162E0,-2.697000027E0,5.802000046E0,7.047626525E0
6.862098570E-1,3.147000074E0,-2.275950193E0,5.686950207E0,6.886578353E0
6.881729540E-1,3.376950264E0,-2.046000004E0,5.649000168E0,6.892105048E0
6.901360090E-1,3.492000103E0,-1.624050021E0,5.649000168E0,6.836871074E0
6.920986900E-1,3.682950258E0,-1.356000066E0,5.764050484E0,6.973316052E0
6.940614770E-1,3.760050297E0,-1.087950110E0,5.802000046E0,6.998915502E0
6.960244670E-1,3.874950171E0,-7.429500222E-1,5.725950241E0,6.953683896E0
6.979873980E-1,3.952050209E0,-4.740000367E-1,5.686950207E0,6.941525736E0
6.999506350E-1,3.990000248E0,-2.059500068E-1,5.533950329E0,6.825476073E0
7.019137830E-1,3.990000248E0,-9.105000645E-2,5.419050217E0,6.730118672E0
7.038756420E-1,3.913050175E0,2.295000106E-2,5.151000023E0,6.468793520E0
7.058378720E-1,3.837000132E0,2.910000086E-1,4.959000111E0,6.276856945E0
7.078008680E-1,3.607050180E0,4.830000103E-1,4.653000355E0,5.907157719E0
7.097636390E-1,3.492000103E0,6.739500165E-1,4.192950249E0,5.498100138E0
7.117266330E-1,3.262050152E0,8.280000687E-1,3.694050074E0,4.997255372E0
7.136895620E-1,3.070050240E0,1.018950105E0,3.118950129E0,4.493475013E0
7.156524850E-1,2.992950201E0,1.096050024E0,2.467950106E0,4.031110800E0
7.176154100E-1,2.917050123E0,1.249050021E0,1.701000094E0,3.600376188E0
7.195788280E-1,2.955000162E0,1.441050053E0,1.126049995E0,3.475146012E0
7.215421010E-1,2.992950201E0,1.555950046E0,3.220500052E-1,3.388576051E0
7.235049650E-1,3.031950235E0,1.708950043E0,-3.289500177E-1,3.495917704E0
7.254679490E-1,3.031950235E0,1.939050078E0,-1.096050024E0,3.762175314E0
7.274307220E-1,3.031950235E0,2.208000183E0,-1.708950043E0,4.121710481E0
7.293935600E-1,3.031950235E0,2.398950100E0,-2.322000027E0,4.509918839E0
7.313564520E-1,3.108000040E0,2.551950216E0,-2.935050249E0,4.978617692E0
7.333193280E-1,3.147000074E0,2.706000090E0,-3.433950186E0,5.386841359E0
7.352817650E-1,3.147000074E0,2.782050133E0,-3.739950180E0,5.624112353E0
7.372443300E-1,3.108000040E0,2.782050133E0,-3.970050097E0,5.758538439E0
7.392070730E-1,2.992950201E0,2.667000055E0,-4.162050247E0,5.778693837E0
7.411697740E-1,2.725050211E0,2.590950012E0,-4.162050247E0,5.609062567E0
7.431322410E-1,2.419050217E0,2.476050138E0,-4.200000286E0,5.442667604E0
7.450947760E-1,1.804950118E0,2.322000027E0,-3.855000257E0,4.848768507E0
7.470573590E-1,1.192050099E0,2.169000149E0,-3.549000263E0,4.326771077E0
7.490199280E-1,6.169500351E-1,2.053950071E0,-3.204000235E0,3.855509791E0
7.509818500E-1,1.570500135E-1,1.824000120E0,-2.782050133E0,3.330381973E0
7.529439490E-1,-1.480500102E-1,1.633050084E0,-2.206950188E0,2.749436399E0
7.549068320E-1,-4.170000255E-1,1.363950014E0,-1.632000089E0,2.167411579E0
7.568694850E-1,-5.700000525E-1,1.134000063E0,-1.096050024E0,1.676956129E0
7.588321390E-1,-6.850500107E-1,9.430500269E-1,-5.590500236E-1,1.292738875E0
7.607947930E-1,-6.850500107E-1,8.659500480E-1,1.500000060E-2,1.104259029E0
7.627563270E-1,-7.230000496E-1,7.890000343E-1,5.899500251E-1,1.222002929E0
7.647181850E-1,-7.620000243E-1,8.280000687E-1,1.510050058E0,1.883209847E0
7.666809290E-1,-7.999500632E-1,9.430500269E-1,2.736000061E0,3.002492263E0
7.686434140E-1,-8.380500674E-1,1.288050056E0,4.614000320E0,4.863167673E0
7.706060510E-1,-9.150000215E-1,1.824000120E0,7.029000282E0,7.319224443E0
7.725686440E-1,-1.183050036E0,2.476050138E0,9.634950638E0,1.001811886E1
7.745312730E-1,-1.528050065E0,3.357000113E0,1.197300053E1,1.252825320E1
7.764938850E-1,-1.987950087E0,4.354050159E0,1.358295059E1,1.440160564E1
7.784566370E-1,-2.295000076E0,5.389050484E0,1.400400066E1,1.517962203E1
7.804193470E-1,-2.371050119E0,6.309000492E0,1.335300064E1,1.495753964E1
7.823821260E-1,-2.218050003E0,7.497000217E0,1.189605045E1,1.423519492E1
7.843448850E-1,-2.103000164E0,8.761950493E0,9.903000832E0,1.338894363E1
7.863075360E-1,-1.834950089E0,1.010295010E1,7.642050266E0,1.279990526E1
7.882702090E-1,-1.336950064E0,1.136805058E1,5.188950062E0,1.256762556E1
7.902337140E-1,-5.700000525E-1,1.278600025E1,2.353049994E0,1.301320663E1
7.921969760E-1,8.100000024E-2,1.447200108E1,-8.269500136E-1,1.449583466E1
7.941594820E-1,3.109500110E-1,1.635000038E1,-4.392000198E0,1.693247968E1
7.961222090E-1,4.050000105E-3,1.868805122E1,-7.803000450E0,2.025166884E1
7.980847650E-1,-6.079500318E-1,2.121795082E1,-1.037100029E1,2.362474735E1
8.000473680E-1,-1.567050099E0,2.405400085E1,-1.171200085E1,2.679965610E1
8.020099840E-1,-2.677950144E0,2.689005089E1,-1.190400028E1,2.952882450E1
8.039725960E-1,-3.598050117E0,2.945805168E1,-1.109895039E1,3.168453050E1
8.059352570E-1,-4.173000336E0,3.195000076E1,-9.144000053E0,3.349371908E1
8.078979040E-1,-4.402950287E0,3.409605026E1,-6.730050087E0,3.503170263E1
8.098607090E-1,-4.210950375E0,3.593595123E1,-4.621950150E0,3.647584293E1
8.118234570E-1,-3.520950079E0,3.712395096E1,-2.974050045E0,3.740895345E1
8.137864100E-1,-2.140950203E0,3.727695084E1,-1.786050081E0,3.738107417E1
8.157493030E-1,4.200000316E-2,3.658695221E1,-7.120500207E-1,3.659390456E1
8.177124120E-1,2.149950027E0,3.547605133E1,-2.910000086E-1,3.554232947E1
8.196754570E-1,4.182000160E0,3.401895142E1,-5.590500236E-1,3.427959623E1
8.216382040E-1,5.254950047E0,3.256305313E1,-1.171950102E0,3.300515712E1
8.236010210E-1,5.485050201E0,3.137505150E1,-1.900950074E0,3.190757345E1
8.255637820E-1,4.717950344E0,3.034005165E1,-3.127050161E0,3.086350972E1
8.275265600E-1,2.878050089E0,2.961195183E1,-4.162050247E0,3.004119714E1
8.294884260E-1,6.940500140E-1,2.896005058E1,-5.043000221E0,2.940404881E1
8.314505600E-1,-1.720050097E0,2.811705208E1,-5.542050362E0,2.870960662E1
8.334130970E-1,-3.943050146E0,2.723505211E1,-5.848050117E0,2.813352800E1
8.353755010E-1,-5.553000450E0,2.593200111E1,-6.691050529E0,2.735095342E1
8.373383330E-1,-6.741000175E0,2.462895203E1,-7.534950256E0,2.662333256E1
8.393010390E-1,-7.507050514E0,2.336400032E1,-8.799000740E0,2.607018858E1
8.412637740E-1,-7.776000500E0,2.213805199E1,-9.681000710E0,2.538269695E1
8.432265010E-1,-7.699050426E0,2.121795082E1,-9.604050636E0,2.452987165E1
8.451892570E-1,-7.354050159E0,2.033595085E1,-9.067950249E0,2.344910814E1
8.471520190E-1,-7.123950481E0,1.957005119E1,-8.608050346E0,2.253521921E1
8.491148350E-1,-6.817050457E0,1.888005066E1,-8.185950279E0,2.167805969E1
8.510776350E-1,-6.741000175E0,1.838205147E1,-7.956000328E0,2.113383166E1
8.530401740E-1,-6.778950214E0,1.799805069E1,-7.573050499E0,2.066966590E1
8.550027900E-1,-6.778950214E0,1.773000145E1,-7.342950344E0,2.035254375E1
8.569652560E-1,-6.931950092E0,1.753905106E1,-7.266000271E0,2.021051716E1
8.589277760E-1,-7.086000443E0,1.738500023E1,-7.228050232E0,2.011701631E1
8.608904070E-1,-7.201050282E0,1.723200035E1,-7.534950256E0,2.013882908E1
8.628530050E-1,-7.315950394E0,1.726995087E1,-7.840950489E0,2.032867034E1
8.648159390E-1,-7.507050514E0,1.730895042E1,-8.263050079E0,2.059693105E1
8.667787740E-1,-7.737000465E0,1.730895042E1,-8.493000031E0,2.077479219E1
8.687415380E-1,-7.929000378E0,1.734705162E1,-8.377950668E0,2.083216994E1
8.707043200E-1,-8.236050606E0,1.730895042E1,-8.071050644E0,2.079841708E1
8.726667720E-1,-8.619000435E0,1.726995087E1,-7.534950256E0,2.071989013E1
8.746293200E-1,-8.809950829E0,1.711695099E1,-7.075050354E0,2.051003614E1
8.765921260E-1,-8.925000191E0,1.681005096E1,-6.270000458E0,2.003862140E1
8.785548560E-1,-8.925000191E0,1.665705109E1,-5.580000401E0,1.970404486E1
8.805174480E-1,-8.734050751E0,1.657995033E1,-5.158050060E0,1.943666319E1
8.824800840E-1,-8.464950562E0,1.623495102E1,-4.660050392E0,1.889299056E1
8.844425150E-1,-8.427000046E0,1.566000080E1,-4.009050369E0,1.822971310E1
8.864050070E-1,-8.158950806E0,1.512405109E1,-3.433950186E0,1.752419509E1
8.883674630E-1,-7.776000500E0,1.489395046E1,-3.049950123E0,1.707624490E1
8.903299300E-1,-7.354050159E0,1.466400051E1,-2.935050249E0,1.666521781E1
8.922927500E-1,-7.009050369E0,1.447200108E1,-2.743950129E0,1.631241443E1
8.942554670E-1,-6.741000175E0,1.439595032E1,-2.629050016E0,1.611199469E1
8.962182450E-1,-6.511050224E0,1.443405056E1,-2.284050226E0,1.599851481E1
8.981810050E-1,-6.319050312E0,1.447200108E1,-1.786050081E0,1.589211084E1
9.001440910E-1,-6.127950191E0,1.454895115E1,-1.018950105E0,1.581967169E1
9.021070820E-1,-5.935950279E0,1.470195103E1,-2.910000086E-1,1.585772842E1
9.040690780E-1,-5.859000206E0,1.489395046E1,3.600000143E-1,1.600897385E1
9.060313770E-1,-5.668050289E0,1.489395046E1,9.730500579E-1,1.596569387E1
9.079944510E-1,-5.437950134E0,1.489395046E1,1.203000069E0,1.590120345E1
9.099572980E-1,-5.053950310E0,1.470195103E1,1.050000072E0,1.558179315E1
9.119203690E-1,-4.671000004E0,1.431900024E1,1.011000037E0,1.509550033E1
9.138833750E-1,-4.555950165E0,1.397400093E1,8.959500194E-1,1.472522021E1
9.158463250E-1,-4.402950287E0,1.366695023E1,9.349500537E-1,1.438908028E1
9.178092950E-1,-4.518000126E0,1.359105110E1,9.349500537E-1,1.435280902E1
9.197720300E-1,-4.479000092E0,1.351395035E1,7.810500264E-1,1.425827251E1
9.217348340E-1,-4.441050053E0,1.362900066E1,8.580000401E-1,1.435997036E1
9.236975970E-1,-4.288050175E0,1.385895061E1,8.959500194E-1,1.453480694E1
9.256603720E-1,-3.865950108E0,1.397400093E1,7.810500264E-1,1.451992808E1
9.276242360E-1,-3.330000162E0,1.389705086E1,3.979500234E-1,1.429598852E1
9.295877700E-1,-2.830950022E0,1.370595074E1,5.295000225E-2,1.399536235E1
9.315504090E-1,-2.065050125E0,1.339905071E1,-2.140500098E-1,1.355893836E1
9.335133100E-1,-1.489950061E0,1.301595020E1,-3.670500219E-1,1.310609158E1
9.354761920E-1,-9.529500604E-1,1.244100094E1,-2.910000086E-1,1.248083728E1
9.374390790E-1,-4.549500346E-1,1.190400028E1,1.680000126E-1,1.191387537E1
9.394013130E-1,-2.250000089E-1,1.136805058E1,3.979500234E-1,1.137723882E1
9.413637520E-1,-3.299999982E-2,1.083105087E1,4.360500276E-1,1.083987507E1
9.433269370E-1,8.100000024E-2,1.021800041E1,3.979500234E-1,1.022606756E1
9.452899030E-1,1.189500093E-1,9.757950783E0,3.979500234E-1,9.766786411E0
9.472527750E-1,2.340000123E-1,9.106050491E0,9.349500537E-1,9.156912316E0
9.492156750E-1,2.340000123E-1,8.377950668E0,1.279950023E0,8.478389320E0
9.511787810E-1,3.490500152E-1,7.650000572E0,1.624950051E0,7.828461365E0
9.531418270E-1,3.490500152E-1,7.075050354E0,2.122950077E0,7.394936812E0
9.551054500E-1,5.410500169E-1,6.499950409E0,2.659050226E0,7.043623964E0
9.570689040E-1,8.089500666E-1,5.848950386E0,2.965950251E0,6.607683536E0
9.590317820E-1,1.114950061E0,5.235000134E0,3.273000240E0,6.273824241E0
9.609948290E-1,1.422000051E0,4.736999989E0,3.502950191E0,6.060685859E0
9.629575500E-1,1.843950033E0,4.276950359E0,3.655950069E0,5.921015708E0
9.649203670E-1,2.419050217E0,3.856050253E0,4.192950249E0,6.188841515E0
9.668833070E-1,3.147000074E0,3.396000147E0,5.380950451E0,7.098665665E0
9.688462110E-1,3.721950293E0,3.088950157E0,6.760950089E0,8.312940103E0
9.708091370E-1,4.143000126E0,2.935950041E0,7.527000427E0,9.079646916E0
9.727720570E-1,4.717950344E0,2.782050133E0,7.642050266E0,9.402116286E0
9.747352820E-1,5.101050377E0,2.629050016E0,7.258950233E0,9.253376542E0
9.766984280E-1,5.599950314E0,2.514000177E0,6.684000492E0,9.074993277E0
9.786611340E-1,6.097950459E0,2.361000061E0,6.109050274E0,8.948732666E0
9.806239690E-1,6.481050491E0,2.208000183E0,5.533950329E0,8.803629168E0
9.825869510E-1,6.711000443E0,2.169000149E0,5.341950417E0,8.847515066E0
9.845498900E-1,6.865050316E0,2.131050110E0,5.341950417E0,8.955820714E0
9.865129600E-1,6.826050282E0,2.169000149E0,5.188950062E0,8.844474367E0
9.884759810E-1,6.903000355E0,2.053950071E0,4.806000233E0,8.658392635E0
9.904387080E-1,6.865050316E0,1.786050081E0,4.537950039E0,8.420919266E0
9.924015210E-1,6.865050316E0,1.594050050E0,4.308000088E0,8.260071196E0
9.943642820E-1,7.095000267E0,1.288050056E0,4.192950249E0,8.341398775E0
9.963270590E-1,7.324050426E0,9.430500269E-1,4.039050102E0,8.416946224E0
9.982898710E-1,7.438950539E0,5.980500579E-1,4.000950336E0,8.467777311E0
1.000252673E0,7.438950539E0,2.910000086E-1,4.039050102E0,8.469745678E0
1.002216473E0,7.324050426E0,6.105000153E-2,4.153950214E0,8.420257961E0
1.004179981E0,7.056000233E0,-1.290000081E-1,4.153950214E0,8.188961025E0
1.006142489E0,6.673050404E0,-4.360500276E-1,4.269000053E0,7.933731957E0
1.008105290E0,6.366000175E0,-1.011000037E0,4.192950249E0,7.689532567E0
1.010068359E0,5.983050346E0,-1.509000063E0,4.192950249E0,7.460214771E0
1.012031356E0,5.638050079E0,-1.969050050E0,4.153950214E0,7.274618147E0
1.013994133E0,5.293050289E0,-2.351999998E0,4.153950214E0,7.127663554E0
1.015956974E0,5.062950134E0,-2.736000061E0,4.078050137E0,7.053343414E0
1.017919910E0,4.717950344E0,-3.081000090E0,4.000950336E0,6.910804627E0
1.019882818E0,4.450050354E0,-3.463950157E0,3.963000298E0,6.892551792E0
1.021845685E0,4.219950199E0,-3.771000147E0,3.847950220E0,6.843620583E0
1.023808574E0,4.066950321E0,-4.039050102E0,3.694050074E0,6.819092065E0
1.025771322E0,3.837000132E0,-4.345950127E0,3.618000269E0,6.833723616E0
1.027734112E0,3.568050146E0,-4.651950359E0,3.502950191E0,6.829515652E0
1.029697237E0,3.147000074E0,-4.537050247E0,3.579000235E0,6.580097043E0
1.031660264E0,2.839950085E0,-4.767000198E0,3.655950069E0,6.644966387E0
1.033622694E0,2.649000168E0,-4.959000111E0,3.541050196E0,6.644390151E0
1.035585285E0,2.304000139E0,-4.996950150E0,3.310950041E0,6.421862472E0
1.037548084E0,2.074050188E0,-5.074050426E0,2.965950251E0,6.232538231E0
1.039510822E0,1.729050040E0,-5.188950062E0,2.620950222E0,6.064997679E0
1.041473732E0,1.537050128E0,-5.304000378E0,2.008050203E0,5.875985766E0
1.043436591E0,1.422000051E0,-5.380050182E0,1.471050024E0,5.755954507E0
1.045400140E0,1.306950092E0,-5.457000256E0,1.011000037E0,5.701674439E0
1.047363466E0,1.192050099E0,-5.494950294E0,2.830500007E-1,5.629882724E0
1.049326096E0,9.619500637E-1,-5.419050217E0,-4.060500264E-1,5.518725378E0
1.051288930E0,8.089500666E-1,-5.227050304E0,-9.810000658E-1,5.379481037E0
1.053250606E0,6.169500351E-1,-5.035050392E0,-1.479000092E0,5.283919101E0
1.055212622E0,5.410500169E-1,-4.882050037E0,-1.747050047E0,5.213380051E0
1.057175195E0,3.870000243E-1,-4.498950005E0,-1.861950040E0,4.884381037E0
1.059137611E0,2.719500065E-1,-3.924000263E0,-1.861950040E0,4.351849357E0
1.061100080E0,1.960500032E-1,-3.310950041E0,-1.708950043E0,3.731130663E0
1.063062534E0,2.340000123E-1,-2.812050104E0,-1.363950014E0,3.134125306E0
1.065024997E0,3.109500110E-1,-2.351999998E0,-1.018950105E0,2.582025022E0
1.066987457E0,5.020500422E-1,-1.930950046E0,-5.970000029E-1,2.082554039E0
1.068950810E0,7.699500322E-1,-1.548000097E0,-2.910000086E-1,1.753227982E0
1.070913909E0,1.000050068E0,-1.240950108E0,5.295000225E-2,1.594635071E0
1.072875857E0,1.192050099E0,-9.730500579E-1,3.220500052E-1,1.572108794E0
1.074838142E0,1.345050097E0,-6.280500293E-1,4.750500321E-1,1.558614492E0
1.076800858E0,1.537050128E0,-3.589500189E-1,8.200500607E-1,1.778721539E0
1.078763447E0,1.651950121E0,-1.290000081E-1,1.050000072E0,1.961652455E0
1.080725162E0,1.767000079E0,6.105000153E-2,1.240950108E0,2.160086469E0
1.082687137E0,1.996950150E0,2.910000086E-1,1.240950108E0,2.369060589E0
1.084650041E0,2.111999989E0,6.360000372E-1,1.126049995E0,2.476495223E0
1.086612673E0,2.227050066E0,7.890000343E-1,8.959500194E-1,2.526855652E0
1.088576007E0,2.304000139E0,1.057950020E0,5.899500251E-1,2.603020537E0
1.090539135E0,2.380050182E0,1.288050056E0,2.830500007E-1,2.720997817E0
1.092502043E0,2.494950056E0,1.479000092E0,-6.105000153E-2,2.901024673E0
1.094465002E0,2.649000168E0,1.671000123E0,-4.060500264E-1,3.158214674E0
1.096427919E0,2.878050089E0,1.824000120E0,-8.269500136E-1,3.506279378E0
1.098390848E0,3.223050117E0,2.016000032E0,-1.210950017E0,3.989825577E0
1.100353544E0,3.453000069E0,2.245950222E0,-1.632000089E0,4.430680102E0
1.102316309E0,3.952050209E0,2.514000177E0,-1.479000092E0,4.911856983E0
1.104278187E0,4.411950111E0,2.935950041E0,-5.970000029E-1,5.333058731E0
1.106240318E0,4.680000305E0,3.625950098E0,1.011000037E0,6.006000170E0
1.108202836E0,4.872000217E0,4.239000320E0,3.118950129E0,7.171705497E0
1.110165240E0,4.756950378E0,5.158950329E0,5.956050396E0,9.204231729E0
1.112127936E0,4.450050354E0,6.079050064E0,8.754000664E0,1.154947295E1
1.114090547E0,3.952050209E0,7.075050354E0,1.113000011E1,1.376778635E1
1.116053299E0,3.376950264E0,8.302050591E0,1.289295101E1,1.570210250E1
1.118016009E0,2.802000046E0,9.565950394E0,1.358295059E1,1.684800160E1
1.119978474E0,2.494950056E0,1.090800095E1,1.342995071E1,1.748064177E1
1.121941011E0,2.265000105E0,1.224900055E1,1.281600094E1,1.787227238E1
1.123903819E0,2.494950056E0,1.320795059E1,1.151295090E1,1.769810083E1
1.125866547E0,2.917050123E0,1.370595074E1,9.367050171E0,1.685538181E1
1.127829293E0,3.607050180E0,1.435695076E1,6.454050541E0,1.614891992E1
1.129792023E0,4.143000126E0,1.500900078E1,3.157950163E0,1.588732840E1
1.131755565E0,4.335000038E0,1.562205029E1,-4.440000355E-1,1.621844063E1
1.133718869E0,3.682950258E0,1.654200172E1,-3.817050219E0,1.737158070E1
1.135681142E0,2.610000134E0,1.826700020E1,-6.270000458E0,1.948867114E1
1.137643717E0,8.850000501E-1,2.083500099E1,-7.803000450E0,2.226583274E1
1.139605493E0,-1.605000019E0,2.409300041E1,-8.530950546E0,2.560909626E1
1.141567496E0,-4.288050175E0,2.803995132E1,-8.838000298E0,2.971088174E1
1.143530576E0,-7.162050247E0,3.275505066E1,-8.263050079E0,3.453210541E1
1.145493341E0,-9.883950233E0,3.773700333E1,-6.691050529E0,3.957959133E1
1.147456067E0,-1.206795025E1,4.256595230E1,-5.158050060E0,4.454325088E1
1.149418804E0,-1.402305031E1,4.739595413E1,-3.433950186E0,4.954608382E1
1.151381449E0,-1.540305042E1,5.203305435E1,-2.092050076E0,5.430533474E1
1.153344117E0,-1.593900108E1,5.640300369E1,-1.708950043E0,5.863677252E1
1.155306902E0,-1.551795101E1,5.946900177E1,-2.629050016E0,6.151650900E1
1.157269653E0,-1.421505070E1,6.111705399E1,-4.047000408E0,6.287877358E1
1.159232561E0,-1.222200012E1,6.165405273E1,-5.503050327E0,6.309423958E1
1.161195423E0,-9.730050087E0,6.027405167E1,-7.228050232E0,6.148072779E1
1.163158042E0,-6.778950214E0,5.720805359E1,-7.495950222E0,5.809393110E1
1.165120732E0,-4.363950253E0,5.291505432E1,-6.921000481E0,5.354388185E1
1.167083469E0,-2.985000134E0,4.858395386E1,-6.460950375E0,4.910249157E1
1.169046192E0,-2.485950232E0,4.463595200E1,-6.117000103E0,4.512167826E1
1.171008835E0,-2.755050182E0,4.107195282E1,-5.962950230E0,4.159389842E1
1.172971502E0,-2.830950022E0,3.766095352E1,-6.154950142E0,3.826545582E1
1.174934195E0,-2.985000134E0,3.474795151E1,-6.385050297E0,3.545559514E1
1.176896914E0,-3.022950172E0,3.221805191E1,-6.652950287E0,3.303638667E1
1.178859378E0,-2.985000134E0,3.007200050E1,-6.691050529E0,3.095166550E1
1.180821916E0,-2.946000099E0,2.823195076E1,-6.921000481E0,2.921681379E1
1.182784364E0,-2.448000193E0,2.635395050E1,-6.997950554E0,2.737690128E1
1.184746839E0,-1.987950087E0,2.474400139E1,-7.266000271E0,2.586527228E1
1.186709436E0,-1.413000107E0,2.336400032E1,-7.765050411E0,2.466108449E1
1.188671995E0,-8.770500422E-1,2.221500015E1,-7.918050289E0,2.360023239E1
1.190634486E0,-4.930500090E-1,2.121795082E1,-8.263050079E0,2.277548094E1
1.192596997E0,4.200000316E-2,2.029800034E1,-8.340000153E0,2.194461629E1
1.194560485E0,5.020500422E-1,1.922504997E1,-8.722949982E0,2.111739702E1
1.196523687E0,9.619500637E-1,1.830495071E1,-9.067950249E0,2.045053276E1
1.198486252E0,1.192050099E0,1.742400169E1,-9.298050880E0,1.978561519E1
1.200449001E0,1.345050097E0,1.673400116E1,-9.336000443E0,1.920929095E1
1.202411594E0,1.459950089E0,1.604400063E1,-9.144000053E0,1.852442030E1
1.204374232E0,1.614000082E0,1.531605053E1,-8.953050613E0,1.781413808E1
1.206336977E0,1.729050040E0,1.451100063E1,-8.683950424E0,1.699911022E1
1.208299691E0,1.729050040E0,1.374405098E1,-8.493000031E0,1.624867997E1
1.210262170E0,1.767000079E0,1.301595020E1,-8.530950546E0,1.566251468E1
1.212224708E0,1.920000076E0,1.232595062E1,-8.416049957E0,1.504810141E1
1.214187336E0,1.996950150E0,1.178895092E1,-8.263050079E0,1.453427571E1
1.216149937E0,2.074050188E0,1.136805058E1,-7.726050377E0,1.390057957E1
1.218112555E0,2.111999989E0,1.106100082E1,-7.113000393E0,1.331919884E1
1.220075168E0,2.149950027E0,1.056300068E1,-7.113000393E0,1.291487681E1
1.222038084E0,2.227050066E0,1.018005085E1,-7.150950432E0,1.263840494E1
1.224000922E0,2.341950178E0,9.988050461E0,-6.730050087E0,1.226945218E1
1.225963905E0,2.494950056E0,9.643050194E0,-5.809950352E0,1.153120618E1
1.227926845E0,2.992950201E0,9.298050880E0,-4.813050270E0,1.088930457E1
1.229889766E0,3.108000040E0,8.877000809E0,-3.855000257E0,1.016473485E1
1.231852693E0,3.070050240E0,8.377950668E0,-3.165000200E0,9.467443802E0
1.233815192E0,2.610000134E0,7.687950134E0,-2.590050220E0,8.522032510E0
1.235777829E0,2.419050217E0,6.960000515E0,-2.284050226E0,7.714291708E0
1.237740485E0,2.188950062E0,6.309000492E0,-1.939050078E0,6.953769107E0
1.239703135E0,1.882050037E0,5.809950352E0,-1.594050050E0,6.311785088E0
1.241666060E0,1.459950089E0,5.235000134E0,-1.441050053E0,5.622571113E0
1.243628904E0,1.039050102E0,4.584000111E0,-1.594050050E0,4.963232585E0
1.245590760E0,4.639500082E-1,3.894000292E0,-1.747050047E0,4.293095823E0
1.247552906E0,-3.400500119E-1,3.051000118E0,-2.053950071E0,3.693635963E0
1.249515826E0,-6.469500065E-1,2.322000027E0,-2.206950188E0,3.268158130E0
1.251478520E0,-6.469500065E-1,1.786050081E0,-2.169000149E0,2.883241379E0
1.253441437E0,-8.380500674E-1,1.210950017E0,-1.900950074E0,2.404649464E0
1.255404289E0,-1.106999993E0,7.129500508E-1,-1.402050018E0,1.923406097E0
1.257367994E0,-1.297950029E0,2.295000106E-2,-7.890000343E-1,1.519118835E0
1.259331447E0,-1.336950064E0,-3.589500189E-1,-2.140500098E-1,1.400749084E0
1.261293199E0,-1.452000022E0,-8.959500194E-1,3.979500234E-1,1.751968813E0
1.263255449E0,-1.297950029E0,-1.471050024E0,1.432950020E0,2.429404909E0
1.265218486E0,-1.297950029E0,-1.969050050E0,1.893000126E0,3.024116706E0
1.267181293E0,-1.375050068E0,-2.506050110E0,2.238000154E0,3.630384902E0
1.269144176E0,-1.413000107E0,-2.965950251E0,2.506050110E0,4.132035496E0
1.271107047E0,-1.222050071E0,-3.502050161E0,2.620950222E0,4.541711327E0
1.273069979E0,-1.106999993E0,-4.039050102E0,2.430000067E0,4.841928855E0
1.275032893E0,-9.529500604E-1,-4.498950005E0,2.314950228E0,5.148558975E0
1.276995818E0,-7.230000496E-1,-5.035050392E0,2.085000038E0,5.497425459E0
1.278958739E0,-4.549500346E-1,-5.380050182E0,1.893000126E0,5.721483110E0
1.280921455E0,-4.549500346E-1,-5.764050484E0,1.740000129E0,6.038117087E0
1.282884251E0,-7.200000435E-2,-6.223950386E0,1.548000097E0,6.413972771E0
1.284847916E0,4.260000288E-1,-6.684000492E0,1.471050024E0,6.857209839E0
1.286811326E0,8.470500112E-1,-7.027950287E0,1.471050024E0,7.230046136E0
1.288773851E0,1.153950095E0,-7.335000515E0,1.548000097E0,7.584862403E0
1.290736636E0,1.269000053E0,-7.411950588E0,1.548000097E0,7.677478555E0
1.292699531E0,1.459950089E0,-7.717950344E0,1.548000097E0,8.005905076E0
1.294662398E0,1.767000079E0,-7.909950256E0,1.740000129E0,8.289583994E0
1.296625151E0,2.035050154E0,-8.178000450E0,1.816050053E0,8.620856006E0
1.298587938E0,2.111999989E0,-8.293050766E0,2.122950077E0,8.817151013E0
1.300550344E0,2.304000139E0,-8.446949959E0,2.238000154E0,9.037036292E0
1.302512861E0,2.457000017E0,-8.599950790E0,2.430000067E0,9.268274004E0
1.304475659E0,2.494950056E0,-8.638050079E0,2.659050226E0,9.376099032E0
1.306438384E0,2.610000134E0,-8.599950790E0,2.851050138E0,9.428665928E0
1.308401161E0,2.610000134E0,-8.523000717E0,2.928000212E0,9.382261303E0
1.310363922E0,2.572050095E0,-8.217000008E0,3.081000090E0,9.144784982E0
1.312326514E0,2.457000017E0,-7.795050144E0,3.349050045E0,8.832654869E0
1.314289155E0,2.265000105E0,-7.258050442E0,3.655950069E0,8.436556916E0
1.316251810E0,2.074050188E0,-6.684000492E0,3.808950186E0,7.967788167E0
1.318214461E0,1.843950033E0,-5.994000435E0,3.808950186E0,7.337322022E0
1.320177250E0,1.651950121E0,-5.341950417E0,3.963000298E0,6.853520615E0
1.322139999E0,1.498950124E0,-4.651950359E0,4.000950336E0,6.316256582E0
1.324102907E0,1.422000051E0,-4.153950214E0,3.886050224E0,5.863341443E0
1.326065768E0,1.306950092E0,-3.579000235E0,3.924000263E0,5.469473401E0
1.328028673E0,1.345050097E0,-3.081000090E0,4.000950336E0,5.225832461E0
1.329991586E0,1.345050097E0,-2.697000027E0,4.116000175E0,5.101414152E0
1.331954376E0,1.422000051E0,-2.351999998E0,4.153950214E0,4.980892542E0
1.333917203E0,1.537050128E0,-2.008050203E0,4.153950214E0,4.863135933E0
1.335880277E0,1.651950121E0,-1.738950133E0,4.192950249E0,4.830498790E0
1.337843278E0,1.767000079E0,-1.471050024E0,4.192950249E0,4.781956633E0
1.339806184E0,1.882050037E0,-1.279050112E0,4.116000175E0,4.703141394E0
1.341769121E0,1.959000111E0,-1.011000037E0,4.153950214E0,4.702669975E0
1.343732042E0,2.074050188E0,-8.580000401E-1,4.116000175E0,4.688209221E0
1.345694967E0,2.074050188E0,-6.660000086E-1,3.847950220E0,4.421759954E0
1.347657755E0,2.074050188E0,-4.360500276E-1,3.655950069E0,4.225848402E0
1.349620583E0,2.111999989E0,-2.440500110E-1,3.349050045E0,3.966893062E0
1.351582441E0,1.996950150E0,-1.290000081E-1,3.081000090E0,3.673828038E0
1.353544583E0,1.882050037E0,-1.500000060E-2,2.659050226E0,3.257742385E0
1.355507594E0,1.767000079E0,2.140500098E-1,2.085000038E0,2.741410558E0
1.357470350E0,1.575000048E0,5.209500194E-1,1.585950017E0,2.295049352E0
1.359433166E0,1.384050012E0,7.890000343E-1,1.087950110E0,1.929184007E0
1.361395965E0,1.306950092E0,1.057950020E0,3.600000143E-1,1.719586229E0
1.363359633E0,1.230000019E0,1.363950014E0,-3.670500219E-1,1.872961667E0
1.365323013E0,1.230000019E0,1.633050084E0,-9.810000658E-1,2.267622930E0
1.367285679E0,1.269000053E0,1.978050113E0,-1.671000123E0,2.883623553E0
1.369248554E0,1.306950092E0,2.361000061E0,-2.322000027E0,3.560073589E0
1.371211350E0,1.345050097E0,2.782050133E0,-2.935050249E0,4.261863755E0
1.373174169E0,1.384050012E0,3.204000235E0,-3.472050190E0,4.923042196E0
1.375137060E0,1.537050128E0,3.664050102E0,-4.009050369E0,5.644490332E0
1.377099932E0,1.575000048E0,4.162050247E0,-4.200000286E0,6.119092238E0
1.379062685E0,1.651950121E0,4.507050037E0,-4.353000164E0,6.480050129E0
1.381025473E0,1.651950121E0,4.699050426E0,-4.353000164E0,6.615030200E0
1.382988104E0,1.459950089E0,4.736999989E0,-4.237950325E0,6.521567765E0
1.384950781E0,1.269000053E0,4.621950150E0,-4.123950005E0,6.322954053E0
1.386912859E0,8.089500666E-1,4.468950272E0,-4.047000408E0,6.083101926E0
1.388875102E0,1.570500135E-1,4.354050159E0,-4.123950005E0,5.999115030E0
1.390838141E0,-3.019500077E-1,4.047000408E0,-4.392000198E0,5.979887278E0
1.392800946E0,-8.770500422E-1,3.702000141E0,-4.774950027E0,6.105257536E0
1.394763890E0,-1.260000110E0,3.357000113E0,-5.158050060E0,6.281920921E0
1.396726793E0,-1.489950061E0,2.896950245E0,-5.656950474E0,6.527890974E0
1.398689466E0,-1.720050097E0,2.476050138E0,-6.001950264E0,6.716606553E0
1.400652227E0,-1.987950087E0,2.092950106E0,-6.270000458E0,6.902556876E0
1.402614817E0,-2.140950203E0,1.633050084E0,-6.193050385E0,6.753102503E0
1.404577458E0,-2.256000042E0,1.288050056E0,-5.962950230E0,6.504258957E0
1.406539889E0,-2.448000193E0,1.057950020E0,-5.350050449E0,5.977876128E0
1.408502381E0,-2.601000071E0,8.280000687E-1,-4.507050037E0,5.269182624E0
1.410464881E0,-2.830950022E0,5.980500579E-1,-3.319050074E0,4.403184676E0
1.412427379E0,-2.985000134E0,6.360000372E-1,-1.900950074E0,3.595599120E0
1.414388889E0,-3.100050211E0,6.739500165E-1,-9.900000691E-2,3.174007079E0
1.416350689E0,-3.138000250E0,9.040500522E-1,1.930950046E0,3.793800225E0
1.418313443E0,-3.253050089E0,1.326000094E0,4.269000053E0,5.528559721E0
1.420275918E0,-3.367950201E0,1.824000120E0,6.913950443E0,7.903972149E0
1.422238592E0,-3.330000162E0,2.437050104E0,9.597000122E0,1.044655568E1
1.424201215E0,-3.061050177E0,3.204000235E0,1.224105072E1,1.301840883E1
1.426163965E0,-2.524950027E0,3.817050219E0,1.446405029E1,1.517082713E1
1.428126677E0,-1.873050094E0,4.545000076E0,1.653404999E1,1.724935220E1
1.430089277E0,-1.222050071E0,5.389050484E0,1.753095055E1,1.838122680E1
1.432051910E0,-3.400500119E-1,6.154950142E0,1.741604996E1,1.847478935E1
1.434015283E0,4.260000288E-1,7.036950111E0,1.661100006E1,1.804509534E1
1.435978442E0,1.153950095E0,8.071949959E0,1.515405083E1,1.720852212E1
1.437941101E0,1.575000048E0,9.220950127E0,1.331505108E1,1.627258835E1
1.439903906E0,2.227050066E0,1.033305073E1,1.101495075E1,1.526632993E1
1.441866533E0,2.533950090E0,1.167405033E1,7.948950291E0,1.434887330E1
1.443829213E0,2.341950178E0,1.343700027E1,3.963000298E0,1.420362906E1
1.445792536E0,1.767000079E0,1.569900036E1,-2.520000041E-1,1.580013942E1
1.447755672E0,8.850000501E-1,1.842000008E1,-4.468050003E0,1.897480168E1
1.449717433E0,-1.870500147E-1,2.129505157E1,-7.228050232E0,2.248908445E1
1.451679597E0,-1.222050071E0,2.459100151E1,-8.340000153E0,2.599550662E1
1.453642289E0,-2.448000193E0,2.827005196E1,-7.918050289E0,2.945987208E1
1.455604826E0,-3.520950079E0,3.260100174E1,-6.768000126E0,3.348175965E1
1.457567511E0,-3.598050117E0,3.785205078E1,-6.883050442E0,3.864065342E1
1.459530144E0,-2.830950022E0,4.352505112E1,-7.189950466E0,4.420565281E1
1.461493613E0,-1.144950032E0,4.785600281E1,-7.840950489E0,4.850761198E1
1.463456837E0,2.111999989E0,4.869900131E1,-8.455050468E0,4.947263032E1
1.465419529E0,5.638050079E0,4.659105301E1,-7.573050499E0,4.753803659E1
1.467382377E0,8.857950211E0,4.417605209E1,-7.150950432E0,4.561932652E1
1.469345021E0,1.157895088E1,4.241295242E1,-6.270000458E0,4.440994869E1
1.471307708E0,1.341900063E1,4.134000015E1,-4.545000076E0,4.370036860E1
1.473270445E0,1.391700077E1,4.061205292E1,-3.817050219E0,4.309978683E1
1.475233167E0,1.230705070E1,3.980700302E1,-3.433950186E0,4.180733190E1
1.477195810E0,9.318000793E0,3.827400208E1,-4.123950005E0,3.960721320E1
1.479158477E0,4.717950344E0,3.601200104E1,-5.350050449E0,3.671166455E1
1.481120512E0,1.189500093E-1,3.336795044E1,-5.848050117E0,3.387674654E1
1.483082722E0,-3.367950201E0,3.057000160E1,-6.346950531E0,3.140305507E1
1.485045406E0,-5.437950134E0,2.811705208E1,-6.883050442E0,2.945362970E1
1.487007951E0,-6.396000385E0,2.600895119E1,-7.687950134E0,2.786537170E1
1.488970578E0,-6.472050190E0,2.405400085E1,-8.185950279E0,2.622007194E1
1.490933181E0,-6.166050434E0,2.240595055E1,-8.455050468E0,2.472922717E1
1.492895868E0,-5.553000450E0,2.118000031E1,-8.148000717E0,2.336275118E1
1.494858513E0,-4.747950077E0,2.041305161E1,-7.113000393E0,2.213211423E1
1.496821259E0,-3.943050146E0,1.987695122E1,-5.733000278E0,2.105963263E1
1.498783975E0,-3.445050240E0,1.941705132E1,-4.736999989E0,2.028125790E1
1.500746619E0,-3.253050089E0,1.895700073E1,-4.237950325E0,1.969544198E1
1.502709284E0,-3.559950113E0,1.872705078E1,-4.047000408E0,1.948727503E1
1.504672192E0,-3.943050146E0,1.853505135E1,-4.009050369E0,1.936926064E1
1.506635038E0,-4.402950287E0,1.845795059E1,-4.315050125E0,1.946025614E1
1.508598155E0,-4.824000359E0,1.822800064E1,-5.005050182E0,1.950849851E1
1.510561192E0,-5.323050022E0,1.807500076E1,-5.656950474E0,1.967337294E1
1.512524097E0,-5.629050255E0,1.784505081E1,-6.270000458E0,1.973435965E1
1.514487040E0,-5.821050167E0,1.757700157E1,-7.228050232E0,1.987662747E1
1.516449978E0,-6.013050079E0,1.742400169E1,-7.995000362E0,2.009160613E1
1.518412905E0,-6.319050312E0,1.723200035E1,-8.530950546E0,2.023979620E1
1.520375871E0,-6.586950302E0,1.723200035E1,-8.722949982E0,2.040636192E1
1.522338826E0,-6.702000141E0,1.723200035E1,-8.416049957E0,2.031473699E1
1.524301520E0,-6.778950214E0,1.730895042E1,-7.956000328E0,2.022008586E1
1.526264290E0,-7.162050247E0,1.734705162E1,-6.960000515E0,2.001641254E1
1.528226923E0,-7.468950272E0,1.753905106E1,-5.772000313E0,1.991781910E1
1.530189597E0,-7.468950272E0,1.761495018E1,-4.353000164E0,1.962193412E1
1.532152337E0,-7.507050514E0,1.765395164E1,-2.896950245E0,1.940129214E1
1.534115057E0,-7.431000233E0,1.769205093E1,-1.786050081E0,1.927221849E1
1.536077475E0,-7.354050159E0,1.757700157E1,-1.516950130E0,1.911371695E1
1.538039982E0,-7.276950359E0,1.753905106E1,-1.977000117E0,1.909138151E1
1.540002481E0,-7.162050247E0,1.738500023E1,-2.743950129E0,1.900164359E1
1.541964982E0,-6.970950127E0,1.707900047E1,-2.782050133E0,1.865546048E1
1.543927931E0,-7.009050369E0,1.669500160E1,-2.398950100E0,1.826485223E1
1.545890749E0,-7.162050247E0,1.642695045E1,-1.900950074E0,1.802091219E1
1.547853376E0,-7.354050159E0,1.623495102E1,-1.402050018E0,1.787795941E1
1.549816059E0,-7.507050514E0,1.600500107E1,-1.096050024E0,1.771206347E1
1.551778828E0,-7.699050426E0,1.577505112E1,-9.420000315E-1,1.757882190E1
1.553741581E0,-7.929000378E0,1.546905041E1,-7.120500207E-1,1.739734413E1
1.555704353E0,-8.197050095E0,1.516200066E1,-7.120500207E-1,1.725064954E1
1.557667120E0,-8.464950562E0,1.493205070E1,-6.739500165E-1,1.717776862E1
1.559629845E0,-8.695050240E0,1.462605095E1,-7.510500550E-1,1.703200931E1
1.561592583E0,-8.848950386E0,1.431900024E1,-9.810000658E-1,1.686119960E1
1.563555208E0,-8.887050629E0,1.385895061E1,-1.326000094E0,1.651691428E1
1.565517876E0,-8.734050751E0,1.355205059E1,-1.671000123E0,1.620907027E1
1.567480661E0,-8.542050362E0,1.309305096E1,-2.014950037E0,1.576244370E1
1.569443412E0,-7.929000378E0,1.263300037E1,-2.284050226E0,1.508902352E1
1.571406185E0,-7.315950394E0,1.209600067E1,-2.514000177E0,1.435815306E1
1.573368951E0,-6.625950336E0,1.152105045E1,-2.667000055E0,1.355546793E1
1.575331657E0,-5.974050522E0,1.098495007E1,-2.820000172E0,1.281837777E1
1.577294395E0,-5.208000183E0,1.033305073E1,-3.165000200E0,1.199635068E1
1.579257169E0,-4.594050407E0,9.720000267E0,-3.165000200E0,1.120718210E1
1.581219932E0,-4.210950375E0,9.220950127E0,-2.820000172E0,1.052190217E1
1.583182568E0,-4.018949986E0,8.914950371E0,-2.284050226E0,1.004217031E1
1.585145242E0,-4.018949986E0,8.761950493E0,-1.708950043E0,9.790007440E0
1.587108010E0,-4.288050175E0,8.761950493E0,-1.096050024E0,9.816337219E0
1.589070730E0,-4.633050442E0,8.914950371E0,-6.739500165E-1,1.006954344E1
1.591032292E0,-5.053950310E0,9.220950127E0,-2.140500098E-1,1.051732629E1
1.592994194E0,-5.284050465E0,9.681000710E0,3.600000143E-1,1.103506067E1
1.594956886E0,-5.361000061E0,1.010295010E1,1.318050027E0,1.151291354E1
1.596919346E0,-5.169000149E0,1.037100029E1,1.740000129E0,1.171767084E1
1.598881853E0,-4.671000004E0,1.056300068E1,1.855050087E0,1.169771068E1
1.600844346E0,-3.828000069E0,1.056300068E1,2.008050203E0,1.141327444E1
1.602807117E0,-2.640000105E0,1.025595093E1,2.583000183E0,1.090073483E1
1.604769807E0,-1.260000110E0,9.757950783E0,3.426000118E0,1.041838186E1
1.606733311E0,1.570500135E-1,9.259950638E0,4.116000175E0,1.013473275E1
1.608696576E0,1.498950124E0,8.761950493E0,4.729050159E0,1.006888988E1
1.610659276E0,2.572050095E0,8.340000153E0,5.419050217E0,1.027312754E1
1.612622131E0,3.568050146E0,7.765050411E0,6.301050186E0,1.061744900E1
1.614584525E0,4.335000038E0,7.228050232E0,7.219950199E0,1.109795550E1
1.616547054E0,5.062950134E0,6.654000282E0,7.719000340E0,1.137946176E1
1.618509549E0,5.523000240E0,6.193950176E0,7.909950256E0,1.146454812E1
1.620472054E0,5.868000507E0,5.619000435E0,7.795050144E0,1.125919192E1
1.622434692E0,6.021000385E0,5.274000168E0,7.642050266E0,1.106654669E1
1.624397288E0,6.175050259E0,4.774950027E0,7.411950588E0,1.076421874E1
1.626359907E0,6.366000175E0,4.201050282E0,6.876000404E0,1.026908775E1
1.628322519E0,6.595950127E0,3.702000141E0,6.147000313E0,9.746639214E0
1.630284956E0,6.826050282E0,3.127050161E0,5.227050304E0,9.148522287E0
1.632247444E0,7.132950306E0,2.551950216E0,4.231050014E0,8.677166254E0
1.634210446E0,7.554000378E0,2.016000032E0,3.655950069E0,8.630941359E0
1.636173293E0,8.091000557E0,1.402950048E0,3.273000240E0,8.839971121E0
1.638136184E0,8.551050186E0,8.280000687E-1,3.273000240E0,9.193398391E0
1.640099062E0,9.010950089E0,1.380000114E-1,3.310950041E0,9.600971600E0
1.642062579E0,9.163949966E0,-3.589500189E-1,3.502950191E0,9.817203479E0
1.644025908E0,9.318000793E0,-1.048950076E0,3.618000269E0,1.005063983E1
1.645988377E0,9.355950356E0,-1.738950133E0,3.733050108E0,1.022220220E1
1.647951084E0,9.126000404E0,-2.351999998E0,3.808950186E0,1.016483590E1
1.649913684E0,8.857950211E0,-2.851050138E0,3.963000298E0,1.011420487E1
1.651876315E0,8.551050186E0,-3.310950041E0,3.924000263E0,9.973997570E0
1.653838432E0,8.206049919E0,-3.732000113E0,3.771000147E0,9.771771703E0
1.655800699E0,7.861050606E0,-4.192049980E0,3.655950069E0,9.629920590E0
1.657763392E0,7.593000412E0,-4.537050247E0,3.541050196E0,9.527723584E0
1.659725947E0,7.248000145E0,-4.843950272E0,3.426000118E0,9.366687629E0
1.661688573E0,6.940950394E0,-5.188950062E0,3.157950163E0,9.223591727E0
1.663651178E0,6.481050491E0,-5.494950294E0,2.889000177E0,8.974676386E0
1.665613751E0,6.021000385E0,-5.725050449E0,2.698050022E0,8.735452032E0
1.667576334E0,5.523000240E0,-5.878950119E0,2.430000067E0,8.424398286E0
1.669538985E0,5.062950134E0,-6.070050240E0,2.085000038E0,8.174729300E0
1.671501626E0,4.642050266E0,-6.300000191E0,1.816050053E0,8.033471906E0
1.673464372E0,4.297049999E0,-6.339000225E0,1.663050056E0,7.836663706E0
1.675427087E0,3.913050175E0,-6.529950142E0,1.471050024E0,7.753463658E0
1.677389687E0,3.568050146E0,-6.645000458E0,1.432950020E0,7.677262448E0
1.679352320E0,3.147000074E0,-6.684000492E0,1.318050027E0,7.504447209E0
1.681315116E0,2.802000046E0,-6.721950531E0,1.356000066E0,7.407736454E0
1.683277861E0,2.457000017E0,-6.721950531E0,1.318050027E0,7.277274483E0
1.685240635E0,2.035050154E0,-6.645000458E0,1.356000066E0,7.080691802E0
1.687203400E0,1.575000048E0,-6.492000103E0,1.318050027E0,6.809107604E0
1.689165811E0,1.306950092E0,-6.262050152E0,1.087950110E0,6.488838578E0
1.691128325E0,1.114950061E0,-5.994000435E0,8.200500607E-1,6.151718211E0
1.693091371E0,8.470500112E-1,-5.686950207E0,4.750500321E-1,5.769278023E0
1.695054255E0,5.790000558E-1,-5.188950062E0,1.680000126E-1,5.223855646E0
1.697016104E0,3.490500152E-1,-4.614000320E0,5.295000225E-2,4.627487285E0
1.698978257E0,2.340000123E-1,-4.000950336E0,-2.205000073E-2,4.007848026E0
1.700941266E0,1.570500135E-1,-3.426000118E0,9.195000678E-2,3.430830267E0
1.702904024E0,1.189500093E-1,-2.851050138E0,2.070000172E-1,2.861028662E0
1.704865706E0,1.570500135E-1,-2.351999998E0,2.830500007E-1,2.374170592E0
1.706827710E0,1.960500032E-1,-1.816050053E0,4.750500321E-1,1.887364811E0
1.708790654E0,3.109500110E-1,-1.432950020E0,7.429500222E-1,1.643779305E0
1.710753323E0,4.260000288E-1,-1.087950110E0,1.050000072E0,1.570863335E0
1.712717011E0,5.790000558E-1,-8.190000653E-1,1.318050027E0,1.656278372E0
1.714680400E0,8.089500666E-1,-6.280500293E-1,1.471050024E0,1.792438346E0
1.716643364E0,1.039050102E0,-4.360500276E-1,1.510050058E0,1.884148593E0
1.718606464E0,1.230000019E0,-3.589500189E-1,1.585950017E0,2.038867975E0
1.720569357E0,1.498950124E0,-2.830500007E-1,1.701000094E0,2.284812924E0
1.722532310E0,1.690050125E0,-2.059500068E-1,1.893000126E0,2.546003595E0
1.724495092E0,2.035050154E0,-1.290000081E-1,2.046000004E0,2.888630497E0
1.726457925E0,2.265000105E0,-1.290000081E-1,2.238000154E0,3.186771277E0
1.728419602E0,2.457000017E0,-1.500000060E-2,2.275950193E0,3.349182492E0
1.730381618E0,2.610000134E0,1.380000114E-1,2.275950193E0,3.465702524E0
1.732344110E0,2.878050089E0,2.140500098E-1,2.200050116E0,3.628940649E0
1.734306462E0,3.108000040E0,2.530499995E-1,2.008050203E0,3.708903365E0
1.736269303E0,3.337950230E0,2.910000086E-1,1.816050053E0,3.811119328E0
1.738232000E0,3.492000103E0,4.060500264E-1,1.585950017E0,3.856705693E0
1.740194662E0,3.645000219E0,4.830000103E-1,1.432950020E0,3.946221150E0
1.742157324E0,3.874950171E0,6.360000372E-1,1.087950110E0,4.074723342E0
1.744120246E0,3.990000248E0,7.510500550E-1,6.660000086E-1,4.114332774E0
1.746083091E0,4.105050087E0,8.280000687E-1,2.830500007E-1,4.197277407E0
1.748046208E0,4.182000160E0,9.430500269E-1,-1.369500011E-1,4.289198526E0
1.750009245E0,4.143000126E0,1.057950020E0,-4.819500148E-1,4.303020347E0
1.751971854E0,4.182000160E0,1.249050021E0,-7.890000343E-1,4.435287178E0
1.753934575E0,4.258049965E0,1.326000094E0,-9.040500522E-1,4.550447478E0
1.755896947E0,4.297049999E0,1.441050053E0,-1.134000063E0,4.671961054E0
1.757859421E0,4.335000038E0,1.594050050E0,-1.402050018E0,4.826900159E0
1.759821880E0,4.372950077E0,1.594050050E0,-1.824000120E0,4.999066350E0
1.761784344E0,4.488000393E0,1.594050050E0,-2.398950100E0,5.332738946E0
1.763747035E0,4.680000305E0,1.708950043E0,-3.012000084E0,5.821946205E0
1.765709655E0,4.833000183E0,1.863000035E0,-3.472050190E0,6.235687005E0
1.767672090E0,5.025000095E0,2.131050110E0,-3.778950214E0,6.638709607E0
1.769634580E0,5.331000328E0,2.437050104E0,-3.625050068E0,6.892007378E0
1.771597576E0,5.560950279E0,2.821050167E0,-2.859000206E0,6.859764882E0
1.773560424E0,5.715000153E0,3.357000113E0,-1.018950105E0,6.705888145E0
1.775521909E0,5.638050079E0,4.047000408E0,2.200050116E0,7.280524810E0
1.777483801E0,5.523000240E0,4.929000378E0,6.186000347E0,9.647029422E0
1.779446539E0,5.331000328E0,5.734050274E0,1.013295078E1,1.280529533E1
1.781409029E0,4.795050144E0,6.577050209E0,1.285500050E1,1.521516129E1
1.783371666E0,4.258049965E0,7.420050144E0,1.400400066E1,1.641036771E1
1.785334260E0,3.837000132E0,8.455050468E0,1.400400066E1,1.680245467E1
1.787296705E0,3.682950258E0,9.528000832E0,1.316100025E1,1.666009754E1
1.789259190E0,3.529950142E0,1.079295063E1,1.139805031E1,1.608924741E1
1.791222007E0,3.376950264E0,1.217295074E1,9.214050293E0,1.563596002E1
1.793184727E0,3.223050117E0,1.343700027E1,6.837000370E0,1.541705557E1
1.795148180E0,2.878050089E0,1.458705044E1,3.771000147E0,1.533902392E1
1.797111419E0,2.074050188E0,1.577505112E1,1.300500035E-1,1.591134296E1
1.799073388E0,5.790000558E-1,1.719405174E1,-4.200000286E0,1.770905584E1
1.801035729E0,-1.795950055E0,1.888005066E1,-8.569950104E0,2.081167447E1
1.802998570E0,-4.786050320E0,2.087295151E1,-1.209600067E1,2.459470704E1
1.804961265E0,-7.813950539E0,2.328795052E1,-1.397400093E1,2.826055846E1
1.806924092E0,-1.099500084E1,2.639205170E1,-1.401195049E1,3.183967953E1
1.808886881E0,-1.379295063E1,2.957295227E1,-1.309200096E1,3.515971391E1
1.810849588E0,-1.620795059E1,3.283095169E1,-1.125195026E1,3.830372614E1
1.812812329E0,-1.827705002E1,3.670200348E1,-9.643050194E0,4.211978198E1
1.814774742E0,-2.034705162E1,4.218300247E1,-7.918050289E0,4.749846027E1
1.816737252E0,-2.222505188E1,4.858395386E1,-6.346950531E0,5.380183347E1
1.818699930E0,-2.375805092E1,5.483100128E1,-6.117000103E0,6.006913829E1
1.820662558E0,-2.509995079E1,5.950695419E1,-6.460950375E0,6.490630945E1
1.822625127E0,-2.598105049E1,6.310995483E1,-7.189950466E0,6.862635625E1
1.824587714E0,-2.509995079E1,6.464295197E1,-8.608050346E0,6.987715864E1
1.826550333E0,-2.245500183E1,6.541004944E1,-9.373950005E0,6.978948784E1
1.828512943E0,-1.935105133E1,6.445200348E1,-9.834000587E0,6.800905460E1
1.830475784E0,-1.582395077E1,6.169200134E1,-9.757950783E0,6.443227492E1
1.832438558E0,-1.206795025E1,5.789805222E1,-9.565950394E0,5.991099465E1
1.834401447E0,-8.887050629E0,5.383500290E1,-8.569950104E0,5.523251987E1
1.836364312E0,-6.433950424E0,4.938900375E1,-7.765050411E0,5.040798962E1
1.838327066E0,-4.402950287E0,4.509600067E1,-7.420050144E0,4.591396729E1
1.840289853E0,-2.869950056E0,4.111005020E1,-7.342950344E0,4.185918968E1
1.842252798E0,-1.489950061E0,3.754605103E1,-7.266000271E0,3.827166914E1
1.844215697E0,-4.930500090E-1,3.436395264E1,-7.342950344E0,3.514318225E1
1.846179376E0,5.410500169E-1,3.148995209E1,-7.687950134E0,3.241935217E1
1.848142837E0,1.575000048E0,2.899800110E1,-8.032950401E0,3.013126259E1
1.850105624E0,2.572050095E0,2.669895172E1,-8.838000298E0,2.824109973E1
1.852068608E0,3.415050268E0,2.459100151E1,-9.183000565E0,2.647087877E1
1.854031385E0,4.066950321E0,2.267400169E1,-9.988050461E0,2.510799852E1
1.855994223E0,4.795050144E0,2.110305023E1,-1.067805004E1,2.413197024E1
1.857956795E0,5.407950401E0,1.941705132E1,-1.140600014E1,2.315954767E1
1.859919449E0,5.791050434E0,1.799805069E1,-1.198095036E1,2.238323625E1
1.861882013E0,6.097950459E0,1.661894989E1,-1.236405087E1,2.159268971E1
1.863844603E0,6.481050491E0,1.543095112E1,-1.267095089E1,2.099217150E1
1.865807582E0,6.634950161E0,1.439595032E1,-1.251705074E1,2.019758670E1
1.867770447E0,6.787950516E0,1.351395035E1,-1.224900055E1,1.946127284E1
1.869733047E0,6.940950394E0,1.282395077E1,-1.155900097E1,1.860755247E1
1.871695738E0,7.248000145E0,1.217295074E1,-1.083105087E1,1.783328066E1
1.873658295E0,7.324050426E0,1.167405033E1,-1.010295010E1,1.708785435E1
1.875620892E0,7.248000145E0,1.148295021E1,-9.298050880E0,1.645738138E1
1.877583870E0,7.095000267E0,1.117605019E1,-8.148000717E0,1.554455024E1
1.879546736E0,6.865050316E0,1.083105087E1,-7.113000393E0,1.466408379E1
1.881509360E0,6.595950127E0,1.014105034E1,-6.001950264E0,1.350447581E1
1.883472051E0,6.250950336E0,9.336000443E0,-5.005050182E0,1.229982974E1
1.885434832E0,5.944950104E0,8.608050346E0,-3.931950092E0,1.117592028E1
1.887397587E0,5.140050411E0,7.612050533E0,-2.935050249E0,9.642507533E0
1.889360494E0,4.603050232E0,6.654000282E0,-2.437050104E0,8.450029846E0
1.891323356E0,4.297049999E0,5.809950352E0,-1.861950040E0,7.462373599E0
1.893285939E0,3.682950258E0,5.044050217E0,-1.402050018E0,6.400961603E0
1.895248598E0,3.337950230E0,4.468950272E0,-1.171950102E0,5.699727652E0
1.897211206E0,2.649000168E0,3.741000175E0,-1.096050024E0,4.713131640E0
1.899173829E0,1.537050128E0,2.821050167E0,-1.171950102E0,3.419695042E0
1.901136487E0,1.000050068E0,2.016000032E0,-1.096050024E0,2.503134420E0
1.903099135E0,1.039050102E0,1.441050053E0,-1.018950105E0,2.048050215E0
1.905061718E0,1.192050099E0,1.096050024E0,-1.018950105E0,1.913261198E0
1.907024308E0,1.269000053E0,7.129500508E-1,-1.249050021E0,1.918015867E0
1.908987288E0,1.269000053E0,2.910000086E-1,-1.326000094E0,1.858310628E0
1.910950153E0,1.269000053E0,-1.500000060E-2,-1.441050053E0,1.920211288E0
1.912913446E0,1.153950095E0,-2.059500068E-1,-1.287000060E0,1.740800213E0
1.914876614E0,8.089500666E-1,-5.509500504E-1,-1.096050024E0,1.469446094E0
1.916839361E0,7.320000529E-1,-1.048950076E0,-9.810000658E-1,1.611980604E0
1.918802232E0,6.550500393E-1,-1.548000097E0,-6.360000372E-1,1.797189724E0
1.920763722E0,5.790000558E-1,-2.008050203E0,-2.910000086E-1,2.110020779E0
1.922725616E0,4.639500082E-1,-2.467050076E0,2.449500114E-1,2.522218506E0
1.924687949E0,2.340000123E-1,-2.889000177E0,6.660000086E-1,2.973992946E0
1.926650153E0,4.200000316E-2,-3.271950245E0,9.730500579E-1,3.413831985E0
1.928613051E0,-2.629500031E-1,-3.694050074E0,1.395000100E0,3.957420110E0
1.930575755E0,-5.700000525E-1,-4.000950336E0,1.624950051E0,4.355796864E0
1.932538311E0,-7.620000243E-1,-4.384050369E0,1.969950080E0,4.866337945E0
1.934500911E0,-1.030050039E0,-4.729050159E0,2.275950193E0,5.348351875E0
1.936463888E0,-1.068000078E0,-4.959000111E0,2.506050110E0,5.657967251E0
1.938426755E0,-1.183050036E0,-5.149950027E0,2.583000183E0,5.881622448E0
1.940389183E0,-1.336950064E0,-5.380050182E0,2.545050144E0,6.099971776E0
1.942351747E0,-1.413000107E0,-5.494950294E0,2.506050110E0,6.202526517E0
1.944314551E0,-1.413000107E0,-5.649000168E0,2.467950106E0,6.324440681E0
1.946277284E0,-1.144950032E0,-5.764050484E0,2.773950100E0,6.498460411E0
1.948240374E0,-8.770500422E-1,-5.878950119E0,3.081000090E0,6.695060331E0
1.950203360E0,-7.230000496E-1,-6.031950474E0,3.426000118E0,6.974570410E0
1.952166289E0,-4.930500090E-1,-6.262050152E0,3.618000269E0,7.248882422E0
1.954129224E0,-1.870500147E-1,-6.492000103E0,3.733050108E0,7.491109140E0
1.956092324E0,-3.299999982E-2,-6.721950531E0,3.924000263E0,7.783539427E0
1.958055375E0,8.100000024E-2,-6.798000336E0,3.847950220E0,7.811919768E0
1.960019042E0,1.960500032E-1,-6.607050419E0,3.847950220E0,7.648416289E0
1.961982529E0,6.550500393E-1,-6.990000248E0,3.618000269E0,7.898045326E0
1.963945487E0,1.000050068E0,-7.066950321E0,3.157950163E0,7.804776500E0
1.965908603E0,1.153950095E0,-7.027950287E0,2.773950100E0,7.643198625E0
1.967871178E0,1.230000019E0,-6.874950409E0,2.545050144E0,7.433379003E0
1.969833911E0,1.306950092E0,-6.607050419E0,2.275950193E0,7.109232242E0
1.971796281E0,1.230000019E0,-6.376950264E0,2.200050116E0,6.857012121E0
1.973758757E0,9.240000248E-1,-5.878950119E0,1.893000126E0,6.244940354E0
1.975720688E0,6.550500393E-1,-5.494950294E0,1.740000129E0,5.800962829E0
1.977682770E0,4.260000288E-1,-5.265000343E0,1.510050058E0,5.493810683E0
1.979645656E0,4.200000316E-2,-4.843950272E0,1.471050024E0,5.062569151E0
1.981608307E0,-1.480500102E-1,-4.575000286E0,1.318050027E0,4.763381393E0
1.983571141E0,-4.170000255E-1,-4.192049980E0,1.087950110E0,4.350954780E0
1.985533922E0,-7.230000496E-1,-3.771000147E0,1.011000037E0,3.970553142E0
1.987496646E0,-8.770500422E-1,-3.234000206E0,1.050000072E0,3.511477504E0
1.989459386E0,-8.770500422E-1,-2.926950216E0,1.165050030E0,3.270106408E0
1.991422025E0,-8.770500422E-1,-2.581950188E0,1.318050027E0,3.028686088E0
1.993384693E0,-7.230000496E-1,-2.238000154E0,1.510050058E0,2.794928432E0
1.995347614E0,-6.079500318E-1,-1.930950046E0,1.663050056E0,2.619905877E0
1.997310460E0,-4.549500346E-1,-1.663050056E0,1.816050053E0,2.504147123E0
1.999273126E0,-3.400500119E-1,-1.356000066E0,1.969950080E0,2.415589681E0
2.001235814E0,-1.480500102E-1,-1.087950110E0,2.122950077E0,2.390077672E0
2.003198596E0,-1.099500060E-1,-8.580000401E-1,2.200050116E0,2.363995259E0
2.005161351E0,4.200000316E-2,-6.280500293E-1,2.275950193E0,2.361389447E0
2.007124483E0,1.189500093E-1,-4.740000367E-1,2.314950228E0,2.365971195E0
2.009087504E0,1.189500093E-1,-2.830500007E-1,2.353049994E0,2.372996140E0
2.011050586E0,-3.299999982E-2,-1.680000126E-1,2.314950228E0,2.321272832E0
2.013013653E0,-1.870500147E-1,-1.290000081E-1,2.122950077E0,2.135075113E0
2.014975967E0,-3.019500077E-1,-9.105000645E-2,1.969950080E0,1.995035646E0
2.016938502E0,-4.549500346E-1,6.105000153E-2,1.893000126E0,1.947859367E0
2.018901490E0,-6.079500318E-1,1.380000114E-1,1.701000094E0,1.811642505E0
2.020864346E0,-6.850500107E-1,2.910000086E-1,1.548000097E0,1.717637570E0
2.022827326E0,-8.770500422E-1,4.060500264E-1,1.432950020E0,1.728421002E0
2.024790269E0,-9.529500604E-1,5.209500194E-1,1.203000069E0,1.620713394E0
2.026753324E0,-9.150000215E-1,6.360000372E-1,9.349500537E-1,1.454597088E0
2.028716346E0,-8.380500674E-1,7.129500508E-1,7.050000429E-1,1.306771117E0
2.030680379E0,-7.620000243E-1,8.659500480E-1,3.220500052E-1,1.197593307E0
2.032644115E0,-5.700000525E-1,9.810000658E-1,9.195000678E-2,1.138295213E0
2.034606900E0,-2.629500031E-1,1.096050024E0,-2.140500098E-1,1.147294978E0
2.036569963E0,4.050000105E-3,1.173000097E0,-7.510500550E-1,1.392846659E0
2.038533177E0,1.570500135E-1,1.363950014E0,-1.171950102E0,1.805129189E0
2.040496346E0,3.490500152E-1,1.671000123E0,-1.632000089E0,2.361673477E0
2.042460128E0,5.790000558E-1,2.016000032E0,-2.092050076E0,2.962460247E0
2.044423730E0,7.320000529E-1,2.398950100E0,-2.704950094E0,3.688840017E0
2.046386583E0,9.240000248E-1,2.782050133E0,-3.357000113E0,4.456795793E0
2.048349655E0,1.077000022E0,3.166050196E0,-4.009050369E0,5.220755477E0
2.050312732E0,1.192050099E0,3.472050190E0,-4.545000076E0,5.842357543E0
2.052275807E0,1.269000053E0,3.664050102E0,-4.927950382E0,6.270591619E0
2.054238884E0,1.345050097E0,3.856050253E0,-5.272950172E0,6.669504242E0
2.056201961E0,1.345050097E0,4.009050369E0,-5.272950172E0,6.759115929E0
2.058164849E0,1.345050097E0,4.009050369E0,-5.158050060E0,6.669866944E0
2.060127799E0,1.384050012E0,4.047000408E0,-4.736999989E0,6.382239077E0
2.062090673E0,1.345050097E0,4.009050369E0,-3.931950092E0,5.774242474E0
2.064053569E0,1.384050012E0,4.047000408E0,-2.667000055E0,5.040505534E0
2.066015956E0,1.306950092E0,4.047000408E0,-1.096050024E0,4.391771454E0
2.067978492E0,1.230000019E0,4.123950005E0,7.429500222E-1,4.367131601E0
2.069940824E0,9.619500637E-1,4.239000320E0,2.545050144E0,5.037038006E0
2.071903203E0,5.020500422E-1,4.468950272E0,4.729050159E0,6.525908840E0
2.073866038E0,4.200000316E-2,4.774950027E0,7.258950233E0,8.688743883E0
2.075828739E0,-2.629500031E-1,5.197050095E0,9.942000389E0,1.122149028E1
2.077792061E0,-4.549500346E-1,5.580000401E0,1.285500050E1,1.402121328E1
2.079755201E0,-3.019500077E-1,6.079050064E0,1.572900105E1,1.686557136E1
2.081719484E0,8.100000024E-2,6.577050209E0,1.802895164E1,1.919133262E1
2.083683432E0,7.699500322E-1,7.228050232E0,1.998405075E1,2.126499042E1
2.085646180E0,1.384050012E0,8.148000717E0,2.094195175E1,2.251379251E1
2.087609280E0,2.074050188E0,9.298050880E0,2.074995041E1,2.283234277E1
2.089572218E0,2.878050089E0,1.071600056E1,1.948500061E1,2.242278058E1
2.091535203E0,3.721950293E0,1.232595062E1,1.718595123E1,2.147414474E1
2.093498066E0,4.717950344E0,1.420395088E1,1.415805054E1,2.060246760E1
2.095460968E0,5.676000118E0,1.604400063E1,1.078500080E1,2.014803156E1
2.097424119E0,6.481050491E0,1.811295128E1,6.415950298E0,2.027923662E1
2.099387197E0,6.442950249E0,2.098800087E1,1.087950110E0,2.198161559E1
2.101350950E0,5.676000118E0,2.439900208E1,-5.158050060E0,2.557603879E1
2.103314505E0,4.488000393E0,2.788695145E1,-1.106100082E1,3.033430315E1
2.105277505E0,2.917050123E0,3.195000076E1,-1.504695034E1,3.543617424E1
2.107240665E0,1.384050012E0,3.654900360E1,-1.704000092E1,4.034980657E1
2.109202826E0,8.100000024E-2,4.087995148E1,-1.792094994E1,4.463560731E1
2.111165280E0,-7.200000435E-2,4.432995224E1,-1.784505081E1,4.778698241E1
2.113129364E0,1.384050012E0,4.685895157E1,-1.723200035E1,4.994615874E1
2.115092970E0,4.105050087E0,4.758705139E1,-1.627305031E1,5.045979650E1
2.117055777E0,7.324050426E0,4.616895294E1,-1.470195103E1,4.900368654E1
2.119018818E0,1.019895077E1,4.264305115E1,-1.148205090E1,4.532423083E1
2.120981541E0,1.127205086E1,3.904005051E1,-6.691050529E0,4.118197216E1
2.122944357E0,9.010950089E0,3.612705231E1,-2.551950216E0,3.732122157E1
2.124906397E0,4.872000217E0,3.336795044E1,5.899500251E-1,3.372691127E1
2.126868665E0,1.230000019E0,3.045495224E1,2.008050203E0,3.054585539E1
2.128830638E0,-1.489950061E0,2.719695091E1,2.046000004E0,2.731446881E1
2.130792684E0,-3.291000128E0,2.382405090E1,1.087950110E0,2.407487734E1
2.132756522E0,-4.402950287E0,2.068095016E1,-5.590500236E-1,2.115183699E1
2.134719835E0,-4.824000359E0,1.826700020E1,-1.900950074E0,1.898862520E1
2.136683008E0,-4.671000004E0,1.657995033E1,-3.012000084E0,1.748671320E1
2.138646222E0,-3.865950108E0,1.558395100E1,-3.739950180E0,1.648612526E1
2.140608960E0,-2.946000099E0,1.512405109E1,-4.162050247E0,1.596052945E1
2.142571838E0,-2.485950232E0,1.485600090E1,-4.468050003E0,1.571127564E1
2.144534363E0,-2.410050154E0,1.474095058E1,-4.813050270E0,1.569297355E1
2.146496991E0,-2.946000099E0,1.481700039E1,-5.158050060E0,1.596332978E1
2.148459648E0,-3.712950230E0,1.512405109E1,-5.388000488E0,1.647887952E1
2.150422297E0,-4.708950043E0,1.554600048E1,-5.311950207E0,1.709003091E1
2.152385057E0,-5.590950489E0,1.600500107E1,-5.119950294E0,1.770967751E1
2.154347774E0,-6.127950191E0,1.623495102E1,-5.311950207E0,1.814778838E1
2.156310552E0,-6.396000385E0,1.635000038E1,-5.962950230E0,1.854152391E1
2.158273312E0,-6.702000141E0,1.638899994E1,-6.730050087E0,1.894227281E1
2.160235768E0,-7.162050247E0,1.635000038E1,-7.381050587E0,1.931572893E1
2.162198314E0,-7.468950272E0,1.619700050E1,-7.879950523E0,1.949927342E1
2.164161301E0,-7.699050426E0,1.615904999E1,-8.071050644E0,1.963497218E1
2.166124158E0,-7.852050304E0,1.592895031E1,-8.071050644E0,1.950712717E1
2.168086914E0,-7.966950417E0,1.573695087E1,-7.918050289E0,1.933441083E1
2.170049699E0,-8.274000168E0,1.550700092E1,-7.726050377E0,1.919942736E1
2.172012645E0,-8.389050484E0,1.527705097E1,-7.611000538E0,1.901819612E1
2.173975543E0,-8.389050484E0,1.512405109E1,-7.534950256E0,1.886500901E1
2.175938111E0,-8.503950119E0,1.485600090E1,-7.266000271E0,1.859603964E1
2.177900776E0,-8.427000046E0,1.462605095E1,-6.691050529E0,1.815780420E1
2.179863697E0,-8.311950684E0,1.454895115E1,-6.270000458E0,1.789059556E1
2.181826543E0,-8.121000290E0,1.470195103E1,-5.925000191E0,1.781021159E1
2.183789345E0,-8.005949974E0,1.493205070E1,-5.772000313E0,1.789908827E1
2.185752160E0,-7.660950184E0,1.539195061E1,-5.656950474E0,1.809981740E1
2.187715085E0,-7.354050159E0,1.573695087E1,-5.503050327E0,1.822134022E1
2.189677989E0,-7.239000320E0,1.604400063E1,-5.005050182E0,1.829927892E1
2.191640737E0,-7.123950481E0,1.627395058E1,-4.353000164E0,1.829045511E1
2.193603530E0,-6.894000530E0,1.665705109E1,-3.855000257E0,1.843490226E1
2.195566474E0,-6.549000263E0,1.715505028E1,-3.394950151E0,1.867380093E1
2.197529374E0,-6.127950191E0,1.773000145E1,-3.165000200E0,1.902424640E1
2.199492142E0,-5.782950401E0,1.834305000E1,-3.357000113E0,1.952381747E1
2.201454935E0,-5.361000061E0,1.888005066E1,-3.625050068E0,1.995839729E1
2.203417655E0,-4.900950432E0,1.914795113E1,-3.586950064E0,2.008804516E1
2.205380396E0,-4.555950165E0,1.926300049E1,-2.782050133E0,1.998898879E1
2.207342990E0,-4.363950253E0,1.941705132E1,-1.594050050E0,1.996514310E1
2.209305627E0,-4.479000092E0,1.953195000E1,-4.819500148E-1,2.004471971E1
2.211267381E0,-4.786050320E0,1.976205063E1,1.680000126E-1,2.033403911E1
2.213229395E0,-5.208000183E0,1.991505051E1,5.899500251E-1,2.059321596E1
2.215192473E0,-5.706000328E0,1.999200058E1,5.509500504E-1,2.079764585E1
2.217155239E0,-6.204000473E0,2.002995110E1,2.830500007E-1,2.097066237E1
2.219118369E0,-6.625950336E0,1.999200058E1,-2.205000073E-2,2.106142899E1
2.221081393E0,-6.817050457E0,1.972305107E1,-3.289500177E-1,2.087053254E1
2.223043930E0,-6.970950127E0,1.941705132E1,-6.739500165E-1,2.064146884E1
2.225006617E0,-6.894000530E0,1.899495125E1,-9.040500522E-1,2.022752389E1
2.226969534E0,-6.702000141E0,1.853505135E1,-1.018950105E0,1.973583526E1
2.228932384E0,-6.433950424E0,1.807500076E1,-1.441050053E0,1.924001029E1
2.230895365E0,-5.974050522E0,1.753905106E1,-2.014950037E0,1.863780071E1
2.232858307E0,-5.476050377E0,1.684905052E1,-2.590050220E0,1.790491528E1
2.234820993E0,-5.092950344E0,1.608195114E1,-2.974050045E0,1.712928105E1
2.236783761E0,-4.747950077E0,1.535400105E1,-3.472050190E0,1.644212610E1
2.238746574E0,-4.363950253E0,1.454895115E1,-3.586950064E0,1.560712184E1
2.240709374E0,-3.981000185E0,1.382100105E1,-3.664050102E0,1.484229415E1
2.242672139E0,-3.790050268E0,1.313100052E1,-3.586950064E0,1.412989265E1
2.244634915E0,-3.636000156E0,1.259400082E1,-3.549000263E0,1.358030768E1
2.246597832E0,-3.483000278E0,1.209600067E1,-3.357000113E0,1.302743156E1
2.248560697E0,-3.445050240E0,1.167405033E1,-2.935050249E0,1.252063666E1
2.250523496E0,-3.445050240E0,1.132905006E1,-2.667000055E0,1.213790080E1
2.252486314E0,-3.445050240E0,1.106100082E1,-2.092050076E0,1.177245870E1
2.254449209E0,-3.483000278E0,1.087005043E1,-1.402050018E0,1.150021876E1
2.256412082E0,-3.636000156E0,1.063995075E1,-4.440000355E-1,1.125283010E1
2.258373778E0,-3.751050234E0,1.044795036E1,7.429500222E-1,1.112573680E1
2.260335833E0,-3.520950079E0,1.006500053E1,2.008050203E0,1.085051109E1
2.262298859E0,-2.908050060E0,9.336000443E0,2.812950134E0,1.017498638E1
2.264261600E0,-2.295000076E0,8.569950104E0,3.118950129E0,9.404196937E0
2.266224554E0,-1.642950058E0,7.803000450E0,2.889000177E0,8.481298423E0
2.268187446E0,-9.919500351E-1,7.189950466E0,2.238000154E0,7.595261501E0
2.270150960E0,-1.480500102E-1,6.577050209E0,2.046000004E0,6.889530047E0
2.272114292E0,7.320000529E-1,5.887050152E0,2.467950106E0,6.425259628E0
2.274077281E0,1.422000051E0,5.427000046E0,3.234000206E0,6.475582674E0
2.276040371E0,1.996950150E0,5.082000256E0,4.384050369E0,7.002459149E0
2.278003085E0,2.533950090E0,4.966950417E0,5.917050362E0,8.130374191E0
2.279965910E0,2.917050123E0,4.774950027E0,7.219950199E0,9.134386135E0
2.281928664E0,3.184950113E0,4.621950150E0,7.872000217E0,9.668232405E0
2.283891443E0,3.568050146E0,4.468950272E0,8.140049934E0,9.948010420E0
2.285854255E0,3.682950258E0,4.315950394E0,8.064000130E0,9.860002459E0
2.287817057E0,3.837000132E0,3.970950127E0,7.909950256E0,9.646674452E0
2.289779956E0,4.066950321E0,3.549000263E0,7.450050354E0,9.199931416E0
2.291742826E0,4.143000126E0,3.204000235E0,6.952050209E0,8.704083505E0
2.293705605E0,4.258049965E0,2.743950129E0,6.223950386E0,8.024824622E0
2.295668424E0,4.335000038E0,2.322000027E0,5.380950451E0,7.289618454E0
2.297631319E0,4.642050266E0,1.786050081E0,4.653000355E0,6.810948382E0
2.299594191E0,4.833000183E0,1.134000063E0,4.116000175E0,6.448666867E0
2.301557484E0,5.178000450E0,4.060500264E-1,3.886050224E0,6.486752009E0
2.303520653E0,5.254950047E0,-2.059500068E-1,3.886050224E0,6.538983235E0
2.305483170E0,5.331000328E0,-7.810500264E-1,4.153950214E0,6.803301112E0
2.307445881E0,5.370000362E0,-1.432950020E0,4.345950127E0,7.055319423E0
2.309408300E0,5.254950047E0,-1.969050050E0,4.537950039E0,7.216969492E0
2.311370804E0,5.062950134E0,-2.428950071E0,4.614000320E0,7.267892505E0
2.313333798E0,4.909950256E0,-2.889000177E0,4.576050282E0,7.307131429E0
2.315296648E0,4.795050144E0,-3.271950245E0,4.576050282E0,7.391779249E0
2.317259075E0,4.642050266E0,-3.655950069E0,4.498950005E0,7.426651515E0
2.319221636E0,4.564949989E0,-4.000950336E0,4.269000053E0,7.420965803E0
2.321184215E0,4.564949989E0,-4.345950127E0,4.116000175E0,7.527782433E0
2.323146788E0,4.564949989E0,-4.690050125E0,3.771000147E0,7.553527698E0
2.325109277E0,4.642050266E0,-5.035050392E0,3.349050045E0,7.623417825E0
2.327071790E0,4.642050266E0,-5.457000256E0,2.812950134E0,7.696763665E0
2.329034358E0,4.680000305E0,-5.839950085E0,2.200050116E0,7.800489751E0
2.330996923E0,4.680000305E0,-6.109050274E0,1.624950051E0,7.865326489E0
2.332959772E0,4.680000305E0,-6.415050507E0,1.126049995E0,8.020178580E0
2.334922538E0,4.642050266E0,-6.721950531E0,3.979500234E-1,8.178729353E0
2.336885984E0,4.564949989E0,-7.027950287E0,-1.369500011E-1,8.381503979E0
2.338849231E0,4.450050354E0,-7.297050476E0,-5.209500194E-1,8.562784753E0
2.340811545E0,4.219950199E0,-7.564950466E0,-7.510500550E-1,8.694856607E0
2.342774142E0,3.952050209E0,-7.795050144E0,-5.209500194E-1,8.755163992E0
2.344735904E0,3.645000219E0,-7.948050499E0,-9.900000691E-2,8.744560271E0
2.346697911E0,3.223050117E0,-7.987050533E0,7.429500222E-1,8.644825216E0
2.348660449E0,2.725050211E0,-7.909950256E0,1.585950017E0,8.515189321E0
2.350622832E0,2.188950062E0,-7.756950378E0,2.545050144E0,8.452163142E0
2.352585257E0,1.614000082E0,-7.411950588E0,3.310950041E0,8.276738365E0
2.354547673E0,1.153950095E0,-6.952050209E0,3.924000263E0,8.066001550E0
2.356509288E0,5.020500422E-1,-6.223950386E0,3.847950220E0,7.334598390E0
2.358471137E0,-1.099500060E-1,-5.380050182E0,3.463950157E0,6.399685903E0
2.360434063E0,-6.079500318E-1,-4.384050369E0,2.736000061E0,5.203383247E0
2.362396673E0,-9.150000215E-1,-3.426000118E0,2.046000004E0,4.093997785E0
2.364359645E0,-9.529500604E-1,-2.620950222E0,1.548000097E0,3.189639194E0
2.366322514E0,-8.770500422E-1,-1.893000126E0,1.395000100E0,2.509719413E0
2.368285268E0,-7.230000496E-1,-1.356000066E0,1.279950023E0,1.999934327E0
2.370248055E0,-4.549500346E-1,-8.959500194E-1,1.165050030E0,1.538521220E0
2.372210776E0,-2.250000089E-1,-4.740000367E-1,1.240950108E0,1.347315185E0
2.374173516E0,4.200000316E-2,-2.440500110E-1,1.432950020E0,1.454190554E0
2.376136861E0,2.719500065E-1,-1.290000081E-1,1.510050058E0,1.539756145E0
2.378100039E0,5.790000558E-1,-5.295000225E-2,1.701000094E0,1.797622343E0
2.380061973E0,8.470500112E-1,9.900000691E-2,1.930950046E0,2.110891471E0
2.382024272E0,1.114950061E0,2.910000086E-1,2.122950077E0,2.415514784E0
2.383986805E0,1.306950092E0,3.289500177E-1,2.353049994E0,2.711673087E0
2.385949270E0,1.422000051E0,5.209500194E-1,2.545050144E0,2.961545762E0
2.387912036E0,1.690050125E0,5.980500579E-1,2.851050138E0,3.367850975E0
2.389874721E0,1.959000111E0,6.360000372E-1,3.043050051E0,3.674551822E0
2.391837190E0,2.227050066E0,7.510500550E-1,3.310950041E0,4.060322445E0
2.393799723E0,2.457000017E0,7.510500550E-1,3.463950157E0,4.312757350E0
2.395762487E0,2.649000168E0,8.659500480E-1,3.579000235E0,4.536112218E0
2.397725183E0,2.839950085E0,9.810000658E-1,3.618000269E0,4.702935632E0
2.399687845E0,3.031950235E0,1.057950020E0,3.502950191E0,4.752119582E0
2.401650507E0,3.147000074E0,1.134000063E0,3.310950041E0,4.706586426E0
2.403613294E0,3.223050117E0,1.210950017E0,3.081000090E0,4.620282844E0
2.405576044E0,3.376950264E0,1.249050021E0,2.698050022E0,4.499265825E0
2.407538772E0,3.415050268E0,1.402950048E0,2.353049994E0,4.378091073E0
2.409501507E0,3.607050180E0,1.402950048E0,1.816050053E0,4.275174574E0
2.411464286E0,3.837000132E0,1.518000126E0,1.395000100E0,4.355791509E0
2.413427049E0,4.105050087E0,1.555950046E0,7.050000429E-1,4.446284046E0
2.415390721E0,4.450050354E0,1.594050050E0,-2.520000041E-1,4.733650570E0
2.417354126E0,4.833000183E0,1.633050084E0,-1.096050024E0,5.217860577E0
2.419316472E0,5.101050377E0,1.786050081E0,-1.632000089E0,5.645716441E0
2.421279128E0,5.485050201E0,1.978050113E0,-1.363950014E0,5.988223242E0
2.423240818E0,5.830050468E0,2.322000027E0,9.195000678E-2,6.276115629E0
2.425202771E0,5.983050346E0,2.743950129E0,2.965950251E0,7.219627043E0
2.427165183E0,5.868000507E0,3.241950035E0,6.684000492E0,9.466759349E0
2.429127461E0,5.331000328E0,3.931950092E0,1.044000053E1,1.236419861E1
2.431090134E0,4.756950378E0,4.774950027E0,1.381305027E1,1.536974569E1
2.433052692E0,4.297049999E0,5.580000401E0,1.634205055E1,1.779504592E1
2.435015272E0,3.760050297E0,6.654000282E0,1.779900169E1,1.937054876E1
2.436977846E0,3.529950142E0,7.765050411E0,1.818195152E1,2.008332435E1
2.438940874E0,3.453000069E0,9.145050049E0,1.756905174E1,2.010539055E1
2.440903769E0,3.682950258E0,1.052505016E1,1.595895100E1,1.946866509E1
2.442866338E0,4.335000038E0,1.186605072E1,1.354500103E1,1.852194477E1
2.444829002E0,5.140050411E0,1.313100052E1,1.013295078E1,1.736433081E1
2.446791724E0,6.213000298E0,1.431900024E1,6.031950474E0,1.673378520E1
2.448754443E0,7.285950184E0,1.512405109E1,1.050000072E0,1.682035944E1
2.450717626E0,8.014050484E0,1.623495102E1,-4.123950005E0,1.856894190E1
2.452680673E0,8.282999992E0,1.815195084E1,-8.914050102E0,2.185318506E1
2.454643216E0,7.285950184E0,2.060505104E1,-1.259400082E1,2.522423547E1
2.456605906E0,5.254950047E0,2.409300041E1,-1.443405056E1,2.857322146E1
2.458567778E0,2.111999989E0,2.911305046E1,-1.412700081E1,3.242841968E1
2.460529896E0,-1.030050039E0,3.470895004E1,-1.312995052E1,3.712368270E1
2.462492911E0,-3.712950230E0,4.011405182E1,-1.163595009E1,4.193230839E1
2.464455663E0,-6.511050224E0,4.605405045E1,-9.643050194E0,4.750113424E1
2.466418076E0,-9.309000015E0,5.226300430E1,-8.301000595E0,5.373067756E1
2.468380588E0,-1.141695023E1,5.808900452E1,-6.844950199E0,5.959473585E1
2.470343051E0,-1.229805088E1,6.203700256E1,-5.925000191E0,6.352115687E1
2.472305522E0,-1.206795025E1,6.437505341E1,-5.427000046E0,6.572088902E1
2.474268026E0,-1.107195091E1,6.586994934E1,-4.927950382E0,6.697554045E1
2.476230520E0,-9.960000038E0,6.594600677E1,-5.082000256E0,6.688724943E1
2.478193472E0,-8.274000168E0,6.445200348E1,-5.617950439E0,6.522331790E1
2.480156289E0,-6.013050079E0,6.096405411E1,-6.154950142E0,6.156830415E1
2.482119259E0,-3.943050146E0,5.575095367E1,-6.270000458E0,5.624081601E1
2.484082164E0,-2.677950144E0,5.000205231E1,-6.001950264E0,5.043213320E1
2.486045135E0,-2.295000076E0,4.417605209E1,-5.617950439E0,4.459094046E1
2.488008087E0,-2.371050119E0,3.927000046E1,-5.503050327E0,3.972453118E1
2.489970826E0,-2.830950022E0,3.524595261E1,-5.772000313E0,3.582746769E1
2.491933627E0,-3.253050089E0,3.198795128E1,-6.001950264E0,3.270832874E1
2.493896579E0,-3.751050234E0,2.930505180E1,-6.232050419E0,3.019428574E1
2.495859481E0,-4.096050262E0,2.704395103E1,-6.499950409E0,2.811409381E1
2.497822228E0,-4.288050175E0,2.512695122E1,-6.883050442E0,2.640317093E1
2.499785021E0,-4.249050140E0,2.332605171E1,-7.381050587E0,2.483221745E1
2.501747786E0,-3.981000185E0,2.167800140E1,-7.687950134E0,2.334285082E1
2.503710560E0,-3.559950113E0,2.022105026E1,-8.110050201E0,2.207571138E1
2.505673324E0,-2.908050060E0,1.907205009E1,-8.377950668E0,2.103306700E1
2.507636094E0,-2.640000105E0,1.803705025E1,-8.683950424E0,2.019197309E1
2.509598863E0,-2.179949999E0,1.726995087E1,-8.799000740E0,1.950450714E1
2.511561633E0,-1.911000133E0,1.642695045E1,-9.220950127E0,1.893469155E1
2.513524716E0,-1.528050065E0,1.546905041E1,-9.910950661E0,1.843511325E1
2.515487707E0,-1.336950064E0,1.470195103E1,-1.060095024E1,1.817456865E1
2.517450489E0,-1.106999993E0,1.397400093E1,-1.109895039E1,1.787973296E1
2.519413329E0,-1.222050071E0,1.339905071E1,-1.098405075E1,1.736886114E1
2.521376446E0,-1.260000110E0,1.290105057E1,-1.083105087E1,1.689190247E1
2.523339481E0,-1.144950032E0,1.251795101E1,-1.067805004E1,1.649335505E1
2.525302341E0,-1.183050036E0,1.224900055E1,-1.075395012E1,1.634273738E1
2.527265252E0,-1.567050099E0,1.201905060E1,-1.063905048E1,1.612769725E1
2.529227822E0,-1.911000133E0,1.186605072E1,-1.033305073E1,1.585014254E1
2.531190488E0,-2.065050125E0,1.159800053E1,-9.988050461E0,1.544471431E1
2.533153319E0,-1.911000133E0,1.132905006E1,-9.451050758E0,1.487688332E1
2.535116101E0,-1.720050097E0,1.106100082E1,-8.761050224E0,1.421479203E1
2.537078824E0,-1.528050065E0,1.060095024E1,-8.340000153E0,1.357463390E1
2.539041565E0,-1.681950092E0,1.021800041E1,-8.032950401E0,1.310590633E1
2.541004203E0,-1.720050097E0,9.720000267E0,-7.650000572E0,1.248837404E1
2.542966872E0,-1.567050099E0,9.412950516E0,-7.036050320E0,1.185602326E1
2.544929613E0,-1.452000022E0,8.953050613E0,-6.040050507E0,1.089713859E1
2.546892332E0,-1.413000107E0,8.647050858E0,-5.350050449E0,1.026601664E1
2.548855290E0,-1.375050068E0,8.302050591E0,-4.813050270E0,9.694341628E0
2.550818178E0,-1.144950032E0,7.842000484E0,-4.507050037E0,9.117092860E0
2.552781112E0,-9.150000215E-1,7.497000217E0,-4.507050037E0,8.795211046E0
2.554744029E0,-7.999500632E-1,7.267050266E0,-4.392000198E0,8.528751692E0
2.556706774E0,-9.529500604E-1,7.036950111E0,-4.545000076E0,8.431121300E0
2.558669570E0,-1.222050071E0,6.654000282E0,-4.429950237E0,8.086630030E0
2.560632154E0,-1.375050068E0,6.117000103E0,-4.047000408E0,7.462349848E0
2.562594801E0,-1.452000022E0,5.503950119E0,-3.549000263E0,6.707993280E0
2.564557595E0,-1.567050099E0,4.736999989E0,-3.012000084E0,5.828117999E0
2.566520342E0,-1.605000019E0,4.009050369E0,-2.475000143E0,4.977362317E0
2.568483160E0,-1.681950092E0,3.127050161E0,-1.861950040E0,4.009271352E0
2.570445957E0,-1.795950055E0,2.284050226E0,-1.441050053E0,3.243292662E0
2.572409082E0,-1.795950055E0,1.441050053E0,-1.210950017E0,2.601626760E0
2.574372111E0,-1.873050094E0,7.129500508E-1,-1.134000063E0,2.302731111E0
2.576335898E0,-1.795950055E0,-1.500000060E-2,-9.420000315E-1,2.028059580E0
2.578299477E0,-1.642950058E0,-5.509500504E-1,-7.120500207E-1,1.873458322E0
2.580262243E0,-1.834950089E0,-1.126049995E0,-4.819500148E-1,2.206197235E0
2.582225248E0,-1.873050094E0,-1.663050056E0,-2.520000041E-1,2.517450326E0
2.584188381E0,-1.605000019E0,-2.199000120E0,-6.105000153E-2,2.723114704E0
2.586151477E0,-1.567050099E0,-2.697000027E0,1.300500035E-1,3.121917385E0
2.588113654E0,-1.642950058E0,-3.118950129E0,2.449500114E-1,3.533714095E0
2.590076098E0,-1.720050097E0,-3.463950157E0,3.979500234E-1,3.887915540E0
2.592039058E0,-1.681950092E0,-3.886050224E0,5.899500251E-1,4.275322618E0
2.594001866E0,-1.528050065E0,-4.498950005E0,8.200500607E-1,4.821614900E0
2.595964629E0,-1.068000078E0,-5.265000343E0,8.200500607E-1,5.434458104E0
2.597927406E0,-9.150000215E-1,-5.839950085E0,7.810500264E-1,5.962573368E0
2.599890358E0,-6.469500065E-1,-6.415050507E0,8.580000401E-1,6.504427829E0
2.601853255E0,-4.170000255E-1,-6.874950409E0,1.011000037E0,6.961390179E0
2.603816049E0,-2.629500031E-1,-7.219950199E0,1.087950110E0,7.306193197E0
2.605778873E0,-1.870500147E-1,-7.450050354E0,1.126049995E0,7.536990552E0
2.607741632E0,-3.299999982E-2,-7.603050232E0,1.087950110E0,7.680566208E0
2.609704411E0,4.050000105E-3,-7.642050266E0,9.349500537E-1,7.699031126E0
2.611667339E0,8.100000024E-2,-7.680000305E0,7.429500222E-1,7.716277627E0
2.613630236E0,1.189500093E-1,-7.642050266E0,4.750500321E-1,7.657725113E0
2.615594200E0,1.189500093E-1,-7.450050354E0,3.220500052E-1,7.457956529E0
2.617557852E0,1.189500093E-1,-7.297050476E0,9.195000678E-2,7.298599150E0
2.619520335E0,1.189500093E-1,-7.143000126E0,9.195000678E-2,7.144582193E0
2.621483161E0,8.100000024E-2,-6.798000336E0,2.449500114E-1,6.802894242E0
2.623445921E0,3.490500152E-1,-6.721950531E0,6.280500293E-1,6.760244204E0
2.625408700E0,6.940500140E-1,-6.721950531E0,7.810500264E-1,6.802673262E0
2.627371827E0,9.619500637E-1,-6.760050297E0,1.050000072E0,6.908409954E0
2.629334852E0,1.192050099E0,-6.454050541E0,1.548000097E0,6.743297126E0
2.631297893E0,1.614000082E0,-6.223950386E0,2.008050203E0,6.736083453E0
2.633260929E0,2.188950062E0,-5.955000401E0,2.391000032E0,6.780148472E0
2.635223732E0,2.533950090E0,-5.686950207E0,2.812950134E0,6.831909994E0
2.637186580E0,2.649000168E0,-5.419050217E0,2.851050138E0,6.671715974E0
2.639149695E0,2.764050245E0,-4.996950150E0,2.928000212E0,6.417372499E0
2.641112732E0,2.878050089E0,-4.651950359E0,3.388050079E0,6.434492816E0
2.643075816E0,2.878050089E0,-4.384050369E0,3.502950191E0,6.306641737E0
2.645038886E0,2.917050123E0,-4.039050102E0,3.426000118E0,6.046534872E0
2.647001973E0,2.955000162E0,-3.655950069E0,3.618000269E0,5.931940898E0
2.648965048E0,2.992950201E0,-3.196050167E0,3.771000147E0,5.778661582E0
2.650927901E0,2.992950201E0,-2.851050138E0,3.963000298E0,5.726395826E0
2.652890820E0,3.031950235E0,-2.467050076E0,4.153950214E0,5.703889961E0
2.654853788E0,3.070050240E0,-2.083950043E0,4.192950249E0,5.599007773E0
2.656816741E0,3.031950235E0,-1.701000094E0,4.231050014E0,5.476121600E0
2.658779314E0,2.955000162E0,-1.240950108E0,4.231050014E0,5.307896698E0
2.660741988E0,2.839950085E0,-8.190000653E-1,4.192950249E0,5.130000914E0
2.662704772E0,2.764050245E0,-3.979500234E-1,4.153950214E0,5.005361162E0
2.664667524E0,2.764050245E0,-1.680000126E-1,4.000950336E0,4.865778597E0
2.666629576E0,2.572050095E0,6.105000153E-2,3.694050074E0,4.501685766E0
2.668591834E0,2.457000017E0,3.679500222E-1,3.388050079E0,4.201323559E0
2.670554811E0,2.149950027E0,8.280000687E-1,3.081000090E0,3.847132801E0
2.672517587E0,1.920000076E0,1.096050024E0,2.659050226E0,3.458073749E0
2.674480400E0,1.690050125E0,1.326000094E0,2.161050081E0,3.047077802E0
2.676443202E0,1.614000082E0,1.555950046E0,1.548000097E0,2.724386373E0
2.678406101E0,1.537050128E0,1.708950043E0,1.240950108E0,2.612085472E0
2.680368972E0,1.422000051E0,1.939050078E0,5.899500251E-1,2.475891836E0
2.682332485E0,1.384050012E0,2.053950071E0,9.195000678E-2,2.478459226E0
2.684295813E0,1.384050012E0,2.169000149E0,-4.060500264E-1,2.604809533E0
2.686258622E0,1.306950092E0,2.361000061E0,-9.420000315E-1,2.858286881E0
2.688221584E0,1.269000053E0,2.551950216E0,-1.441050053E0,3.193655632E0
2.690184365E0,1.192050099E0,2.782050133E0,-1.861950040E0,3.553539690E0
2.692147199E0,1.114950061E0,3.012000084E0,-2.322000027E0,3.963198490E0
2.694110151E0,1.077000022E0,3.204000235E0,-2.743950129E0,4.353712078E0
2.696073058E0,1.039050102E0,3.433950186E0,-3.165000200E0,4.784230895E0
2.698035940E0,9.240000248E-1,3.625950098E0,-3.510000229E0,5.130437775E0
2.699998829E0,8.850000501E-1,3.856050253E0,-3.778950214E0,5.471088865E0
2.701961443E0,7.320000529E-1,4.047000408E0,-4.047000408E0,5.769943560E0
2.703924137E0,6.169500351E-1,4.239000320E0,-4.200000286E0,5.999146061E0
2.705886518E0,3.870000243E-1,4.392000198E0,-4.315050125E0,6.169205163E0
2.707848988E0,2.719500065E-1,4.545000076E0,-4.429950237E0,6.352593298E0
2.709811988E0,4.050000105E-3,4.699050426E0,-4.468050003E0,6.484177831E0
2.711774832E0,-2.250000089E-1,4.813950062E0,-4.468050003E0,6.571773812E0
2.713737634E0,-4.930500090E-1,4.890000343E0,-4.315050125E0,6.540249173E0
2.715700449E0,-7.999500632E-1,4.966950417E0,-4.276950359E0,6.603243212E0
2.717663384E0,-1.068000078E0,5.044050217E0,-4.200000286E0,6.650042794E0
2.719626288E0,-1.336950064E0,5.005050182E0,-4.084949970E0,6.597331207E0
2.721589350E0,-1.567050099E0,4.929000378E0,-3.894000292E0,6.474096772E0
2.723552365E0,-1.795950055E0,4.813950062E0,-3.586950064E0,6.266239906E0
2.725515318E0,-1.950000048E0,4.621950150E0,-3.127050161E0,5.911291406E0
2.727478290E0,-2.065050125E0,4.392000198E0,-2.322000027E0,5.380128427E0
2.729440844E0,-2.103000164E0,4.201050282E0,-1.287000060E0,4.871119205E0
2.731403521E0,-2.065050125E0,4.009050369E0,1.500000060E-2,4.509672037E0
2.733365720E0,-1.987950087E0,3.931950092E0,1.432950020E0,4.633089988E0
2.735328060E0,-1.873050094E0,3.741000175E0,2.773950100E0,5.019780685E0
2.737290947E0,-1.720050097E0,3.664050102E0,4.269000053E0,5.882873188E0
2.739253673E0,-1.605000019E0,3.664050102E0,5.878950119E0,7.110790583E0
2.741216455E0,-1.567050099E0,3.817050219E0,7.603950500E0,8.651334094E0
2.743179217E0,-1.605000019E0,4.009050369E0,9.787950516E0,1.069824683E1
2.745142302E0,-1.681950092E0,4.276950359E0,1.208805084E1,1.293221689E1
2.747105293E0,-1.642950058E0,4.584000111E0,1.450305080E1,1.529871970E1
2.749068026E0,-1.183050036E0,5.005050182E0,1.691700172E1,1.768148981E1
2.751030834E0,-4.549500346E-1,5.389050484E0,1.860405159E1,1.937419883E1
2.752994843E0,3.109500110E-1,5.809950352E0,1.925505066E1,2.011489967E1
2.754958510E0,1.114950061E0,6.385050297E0,1.894905090E1,2.002694463E1
2.756921352E0,1.459950089E0,7.152000427E0,1.791405106E1,1.934414096E1
2.758884435E0,1.882050037E0,8.148000717E0,1.638105011E1,1.839214046E1
2.760847511E0,2.304000139E0,9.298050880E0,1.457895088E1,1.744442535E1
2.762810589E0,2.533950090E0,1.063995075E1,1.254795074E1,1.664573588E1
2.764773334E0,2.457000017E0,1.228800011E1,1.017195034E1,1.614002384E1
2.766736157E0,1.959000111E0,1.428105068E1,7.680000305E0,1.633304916E1
2.768698016E0,1.269000053E0,1.673400116E1,5.112000465E0,1.754336640E1
2.770660157E0,8.100000024E-2,2.010600090E1,2.008050203E0,2.020618962E1
2.772623934E0,-1.068000078E0,2.397795105E1,-1.057050109E0,2.402498940E1
2.774587232E0,-1.834950089E0,2.800200081E1,-4.009050369E0,2.834698531E1
2.776549896E0,-1.911000133E0,3.172005081E1,-6.997950554E0,3.253897443E1
2.778512757E0,-1.605000019E0,3.536100006E1,-1.017900085E1,3.683189391E1
2.780476411E0,-1.870500147E-1,3.877200317E1,-1.301595020E1,4.089887746E1
2.782439832E0,2.188950062E0,4.218300247E1,-1.566000080E1,4.504922669E1
2.784402986E0,3.376950264E0,4.417605209E1,-1.692495155E1,4.742764338E1
2.786366219E0,4.756950378E0,4.459800339E1,-1.608195114E1,4.764703176E1
2.788328967E0,6.175050259E0,4.383105087E1,-1.405005074E1,4.644024324E1
2.790291848E0,6.442950249E0,4.172295380E1,-1.209600067E1,4.391616688E1
2.792254732E0,5.025000095E0,3.919395065E1,-8.455050468E0,4.040921024E1
2.794217615E0,2.610000134E0,3.631904984E1,-5.235000134E0,3.678709975E1
2.796179645E0,8.100000024E-2,3.290805054E1,-4.237950325E0,3.317991221E1
2.798141925E0,-2.026050091E0,2.892195129E1,-4.774950027E0,2.938340166E1
2.800104826E0,-3.483000278E0,2.485905075E1,-5.656950474E0,2.573139685E1
2.802067542E0,-4.326000214E0,2.133300018E1,-6.423000336E0,2.269506792E1
2.804030456E0,-4.786050320E0,1.834305000E1,-6.232050419E0,1.995525529E1
2.805993312E0,-5.092950344E0,1.627395058E1,-5.503050327E0,1.791823578E1
2.807956067E0,-5.398950100E0,1.497105026E1,-4.966950417E0,1.667188066E1
2.809918852E0,-5.668050289E0,1.443405056E1,-4.966950417E0,1.628309572E1
2.811881498E0,-5.706000328E0,1.431900024E1,-5.772000313E0,1.645928903E1
2.813844175E0,-5.821050167E0,1.447200108E1,-6.960000515E0,1.708113133E1
2.815807139E0,-5.821050167E0,1.493205070E1,-7.573050499E0,1.772573996E1
2.817770019E0,-5.782950401E0,1.539195061E1,-7.381050587E0,1.802316750E1
2.819732590E0,-5.974050522E0,1.600500107E1,-7.150950432E0,1.851986584E1
2.821695252E0,-6.319050312E0,1.661894989E1,-6.844950199E0,1.905185649E1
2.823658159E0,-6.741000175E0,1.704000092E1,-6.307950497E0,1.938022069E1
2.825621004E0,-7.276950359E0,1.742400169E1,-5.656950474E0,1.971169526E1
2.827583626E0,-7.813950539E0,1.765395164E1,-5.388000488E0,2.004371176E1
2.829546314E0,-8.350950241E0,1.780695152E1,-5.887050152E0,2.053005728E1
2.831508916E0,-9.270000458E0,1.776900101E1,-6.499950409E0,2.106940105E1
2.833471544E0,-9.844950676E0,1.773000145E1,-7.266000271E0,2.154230176E1
2.835434157E0,-1.007505035E1,1.750005150E1,-7.918050289E0,2.168995073E1
2.837396775E0,-1.011405087E1,1.726995087E1,-8.530950546E0,2.175597263E1
2.839359524E0,-1.011405087E1,1.681005096E1,-8.722949982E0,2.147001851E1
2.841322235E0,-9.883950233E0,1.635000038E1,-8.416049957E0,2.087689827E1
2.843284880E0,-9.462000847E0,1.588995075E1,-7.956000328E0,2.013250944E1
2.845247544E0,-8.809950829E0,1.543095112E1,-7.266000271E0,1.919698534E1
2.847210488E0,-8.121000290E0,1.520100117E1,-6.538050175E0,1.843277468E1
2.849173366E0,-7.660950184E0,1.481700039E1,-5.580000401E0,1.758891875E1
2.851136072E0,-7.431000233E0,1.451100063E1,-4.276950359E0,1.685470878E1
2.853098829E0,-7.009050369E0,1.412700081E1,-2.935050249E0,1.604099308E1
2.855061825E0,-6.511050224E0,1.370595074E1,-1.977000117E0,1.530213678E1
2.857024750E0,-6.013050079E0,1.351395035E1,-1.479000092E0,1.486509558E1
2.858987449E0,-5.553000450E0,1.336095047E1,-1.363950014E0,1.453310604E1
2.860950214E0,-4.939050198E0,1.324605083E1,-1.402050018E0,1.420626002E1
2.862912804E0,-4.210950375E0,1.328400040E1,-1.594050050E0,1.402632401E1
2.864875445E0,-3.483000278E0,1.320795059E1,-1.479000092E0,1.373931188E1
2.866838280E0,-2.677950144E0,1.328400040E1,-1.326000094E0,1.361595974E1
2.868801058E0,-1.834950089E0,1.359105110E1,-1.210950017E0,1.376771992E1
2.870763961E0,-1.336950064E0,1.389705086E1,-1.057050109E0,1.400117184E1
2.872726827E0,-1.030050039E0,1.416600037E1,-7.890000343E-1,1.422529755E1
2.874689446E0,-9.150000215E-1,1.431900024E1,-5.590500236E-1,1.435909224E1
2.876652137E0,-9.919500351E-1,1.443405056E1,-4.819500148E-1,1.447612021E1
2.878613838E0,-1.144950032E0,1.435695076E1,-2.205000073E-2,1.440254949E1
2.880575829E0,-1.489950061E0,1.431900024E1,6.660000086E-1,1.441170619E1
2.882538556E0,-1.795950055E0,1.416600037E1,1.356000066E0,1.434363061E1
2.884501063E0,-2.103000164E0,1.401195049E1,1.893000126E0,1.429478282E1
2.886463833E0,-2.524950027E0,1.393605042E1,2.467950106E0,1.437635738E1
2.888426525E0,-2.946000099E0,1.389705086E1,2.889000177E0,1.449666379E1
2.890389173E0,-3.253050089E0,1.389705086E1,3.157950163E0,1.461790021E1
2.892351834E0,-3.445050240E0,1.385895061E1,3.118950129E0,1.461734358E1
2.894314442E0,-3.445050240E0,1.374405098E1,3.081000090E0,1.450034034E1
2.896277065E0,-3.406050205E0,1.362900066E1,2.965950251E0,1.435784448E1
2.898239859E0,-3.445050240E0,1.374405098E1,2.889000177E0,1.446076175E1
2.900202602E0,-3.406050205E0,1.385895061E1,2.467950106E0,1.448317879E1
2.902165511E0,-3.330000162E0,1.405095100E1,2.008050203E0,1.457910803E1
2.904128371E0,-3.138000250E0,1.408905029E1,1.510050058E0,1.451305050E1
2.906091485E0,-2.716050148E0,1.424205112E1,9.730500579E-1,1.453133769E1
2.908054525E0,-2.332950115E0,1.428105068E1,9.195000678E-2,1.447064337E1
2.910017113E0,-1.950000048E0,1.431900024E1,-7.510500550E-1,1.447067187E1
2.911979834E0,-1.567050099E0,1.454895115E1,-1.479000092E0,1.470765334E1
2.913942206E0,-1.222050071E0,1.458705044E1,-2.130000114E0,1.479230703E1
2.915904681E0,-7.999500632E-1,1.454895115E1,-2.743950129E0,1.482704158E1
2.917866829E0,-4.170000255E-1,1.443405056E1,-2.743950129E0,1.469846818E1
2.919829070E0,-3.299999982E-2,1.443405056E1,-2.359950066E0,1.462573994E1
2.921792650E0,3.109500110E-1,1.447200108E1,-1.671000123E0,1.457147029E1
2.923755837E0,5.790000558E-1,1.454895115E1,-7.120500207E-1,1.457786801E1
2.925717770E0,1.000050068E0,1.462605095E1,3.979500234E-1,1.466560025E1
2.927680070E0,1.153950095E0,1.474095058E1,1.087950110E0,1.482601971E1
2.929642914E0,1.306950092E0,1.481700039E1,1.510050058E0,1.495098225E1
2.931605602E0,1.690050125E0,1.470195103E1,2.008050203E0,1.493438646E1
2.933568251E0,1.996950150E0,1.447200108E1,2.545050144E0,1.482915727E1
2.935530911E0,2.188950062E0,1.408905029E1,2.965950251E0,1.456329981E1
2.937493519E0,2.725050211E0,1.347600079E1,3.655950069E0,1.422654093E1
2.939456142E0,3.300000191E0,1.263300037E1,4.345950127E0,1.376117663E1
2.941418721E0,3.874950171E0,1.175100040E1,4.921050072E0,1.331607987E1
2.943381306E0,4.450050354E0,1.087005043E1,5.457000256E0,1.295143993E1
2.945343791E0,5.025000095E0,9.949950218E0,5.917050362E0,1.261996911E1
2.947306306E0,5.560950279E0,9.145050049E0,6.415950298E0,1.247880309E1
2.949268398E0,6.213000298E0,8.377950668E0,6.454050541E0,1.226565116E1
2.951230614E0,6.750000477E0,7.497000217E0,6.223950386E0,1.185348375E1
2.953193130E0,7.056000233E0,6.807000160E0,5.878950119E0,1.143172975E1
2.955155548E0,7.132950306E0,6.079050064E0,5.380950451E0,1.080687085E1
2.957118377E0,7.132950306E0,5.427000046E0,4.959000111E0,1.024319245E1
2.959081086E0,6.979950428E0,4.736999989E0,4.576050282E0,9.596828281E0
2.961044181E0,6.826050282E0,4.009050369E0,4.231050014E0,8.976036516E0
2.963007163E0,6.481050491E0,3.280950069E0,3.924000263E0,8.256296197E0
2.964969892E0,6.175050259E0,2.590950012E0,3.808950186E0,7.704048882E0
2.966932699E0,5.791050434E0,1.978050113E0,3.808950186E0,7.208123813E0
2.968895506E0,5.485050201E0,1.363950014E0,3.924000263E0,6.880691347E0
2.970858313E0,5.101050377E0,8.659500480E-1,4.078050137E0,6.587949404E0
2.972821571E0,4.717950344E0,3.679500222E-1,4.269000053E0,6.373288329E0
2.974784697E0,4.258049965E0,-1.500000060E-2,4.384050369E0,6.111555624E0
2.976747922E0,3.760050297E0,-2.440500110E-1,4.461000443E0,5.839354724E0
2.978711134E0,3.184950113E0,-6.660000086E-1,4.308000088E0,5.398733925E0
2.980673829E0,2.764050245E0,-1.087950110E0,4.000950336E0,4.983092694E0
2.982636675E0,2.265000105E0,-1.509000063E0,3.463950157E0,4.405253382E0
2.984599295E0,1.882050037E0,-1.969050050E0,2.928000212E0,3.999056849E0
2.986561982E0,1.575000048E0,-2.544000149E0,2.545050144E0,3.928083775E0
2.988524719E0,1.422000051E0,-3.004050255E0,2.314950228E0,4.050357593E0
2.990487442E0,1.345050097E0,-3.426000118E0,2.275950193E0,4.327422542E0
2.992450040E0,1.269000053E0,-3.886050224E0,2.200050116E0,4.642409718E0
2.994412675E0,1.114950061E0,-4.345950127E0,2.008050203E0,4.915553047E0
2.996375107E0,1.000050068E0,-4.882050037E0,2.085000038E0,5.402012390E0
2.998337598E0,1.039050102E0,-5.304000378E0,2.008050203E0,5.765787955E0
3.000300404E0,9.619500637E-1,-5.610000134E0,1.816050053E0,5.974570045E0
3.002263124E0,1.000050068E0,-6.031950474E0,1.701000094E0,6.346489422E0
3.004225768E0,1.000050068E0,-6.339000225E0,1.471050024E0,6.583844786E0
3.006188434E0,9.619500637E-1,-6.568950176E0,1.279950023E0,6.761266627E0
3.008150996E0,8.089500666E-1,-6.874950409E0,9.349500537E-1,6.985232633E0
3.010113588E0,8.470500112E-1,-7.027950287E0,5.899500251E-1,7.103352729E0
3.012077454E0,7.699500322E-1,-7.219950199E0,2.070000172E-1,7.263838719E0
3.014040956E0,8.089500666E-1,-7.372950554E0,-9.900000691E-2,7.417856906E0
3.016003601E0,6.550500393E-1,-7.488000393E0,-3.670500219E-1,7.525554209E0
3.017966497E0,5.790000558E-1,-7.564950466E0,-7.120500207E-1,7.620415465E0
3.019928929E0,4.260000288E-1,-7.603050232E0,-1.018950105E0,7.682845057E0
3.021891497E0,2.719500065E-1,-7.603050232E0,-1.326000094E0,7.722603569E0
3.023854494E0,4.200000316E-2,-7.527000427E0,-1.632000089E0,7.702007772E0
3.025817355E0,-1.870500147E-1,-7.335000515E0,-1.824000120E0,7.560700808E0
3.027780244E0,-4.930500090E-1,-6.837000370E0,-1.786050081E0,7.083618233E0
3.029743124E0,-6.850500107E-1,-5.994000435E0,-1.479000092E0,6.211664511E0
3.031705560E0,-8.770500422E-1,-5.188950062E0,-1.249050021E0,5.408747126E0
3.033668126E0,-1.030050039E0,-4.384050369E0,-1.134000063E0,4.644013013E0
3.035630569E0,-1.222050071E0,-3.463950157E0,-1.057050109E0,3.822265297E0
3.037593049E0,-1.297950029E0,-2.581950188E0,-8.269500136E-1,3.005825573E0
3.039555822E0,-1.260000110E0,-1.930950046E0,-5.209500194E-1,2.363801446E0
3.041518509E0,-1.144950032E0,-1.318050027E0,-1.369500011E-1,1.751262902E0
3.043480437E0,-9.919500351E-1,-8.959500194E-1,5.295000225E-2,1.337720080E0
3.045442588E0,-7.999500632E-1,-5.509500504E-1,3.220500052E-1,1.023319240E0
3.047405223E0,-6.079500318E-1,-2.440500110E-1,5.509500504E-1,8.559845834E-1
3.049367726E0,-4.170000255E-1,-9.105000645E-2,7.810500264E-1,8.900664406E-1
3.051330046E0,-1.099500060E-1,1.380000114E-1,1.087950110E0,1.102165346E0
3.053292420E0,8.100000024E-2,3.679500222E-1,1.356000066E0,1.407367897E0
3.055255571E0,3.109500110E-1,6.360000372E-1,1.471050024E0,1.632536104E0
3.057218495E0,5.020500422E-1,8.280000687E-1,1.548000097E0,1.825908722E0
3.059181804E0,7.320000529E-1,9.430500269E-1,1.624950051E0,2.016340770E0
3.061145014E0,9.619500637E-1,1.057950020E0,1.663050056E0,2.193249110E0
3.063107889E0,1.230000019E0,1.096050024E0,1.624950051E0,2.314019959E0
3.065070863E0,1.345050097E0,1.096050024E0,1.548000097E0,2.325250464E0
3.067033732E0,1.498950124E0,1.134000063E0,1.471050024E0,2.386796135E0
3.068996632E0,1.804950118E0,1.173000097E0,1.432950020E0,2.585946619E0
3.070959410E0,2.111999989E0,1.173000097E0,1.240950108E0,2.715958459E0
3.072922233E0,2.304000139E0,1.210950017E0,8.580000401E-1,2.740616838E0
3.074885848E0,2.610000134E0,1.173000097E0,4.750500321E-1,2.900638285E0
3.076849231E0,2.992950201E0,1.210950017E0,-2.205000073E-2,3.228720653E0
3.078811761E0,3.337950230E0,1.210950017E0,-5.590500236E-1,3.594558194E0
3.080774541E0,3.682950258E0,1.249050021E0,-1.134000063E0,4.050951086E0
3.082737463E0,4.027950287E0,1.288050056E0,-1.479000092E0,4.480055550E0
3.084700361E0,4.411950111E0,1.326000094E0,-1.555950046E0,4.862567283E0
3.086662749E0,4.756950378E0,1.518000126E0,-9.040500522E-1,5.074466256E0
3.088625286E0,4.987050056E0,1.824000120E0,6.280500293E-1,5.347157333E0
3.090588094E0,5.025000095E0,2.322000027E0,3.004050255E0,6.298144807E0
3.092550823E0,4.795050144E0,2.896950245E0,6.070950508E0,8.260827239E0
3.094513405E0,4.372950077E0,3.586950064E0,9.328050613E0,1.090877772E1
3.096476040E0,3.492000103E0,4.354050159E0,1.170495033E1,1.296756260E1
3.098439012E0,2.878050089E0,5.427000046E0,1.362105083E1,1.494217279E1
3.100401885E0,2.227050066E0,6.462000370E0,1.488600063E1,1.638017752E1
3.102364772E0,1.767000079E0,7.497000217E0,1.492395115E1,1.679439250E1
3.104327654E0,1.537050128E0,8.532000542E0,1.392795086E1,1.640565060E1
3.106290216E0,1.422000051E0,9.757950783E0,1.208805084E1,1.560002118E1
3.108252878E0,1.651950121E0,1.090800095E1,9.673050880E0,1.467246868E1
3.110215709E0,2.188950062E0,1.190400028E1,7.029000282E0,1.399655565E1
3.112178491E0,2.725050211E0,1.278600025E1,3.924000263E0,1.364937651E1
3.114142340E0,3.108000040E0,1.366695023E1,6.280500293E-1,1.402995508E1
3.116105876E0,3.262050152E0,1.497105026E1,-2.514000177E0,1.552718629E1
3.118068650E0,2.839950085E0,1.657995033E1,-5.427000046E0,1.767519163E1
3.120031647E0,1.729050040E0,1.884195137E1,-7.458000183E0,2.033790826E1
3.121993836E0,4.200000316E-2,2.187000084E1,-9.183000565E0,2.371974283E1
3.123956262E0,-2.218050003E0,2.543400192E1,-1.044795036E1,2.758564602E1
3.125919089E0,-4.708950043E0,2.903700066E1,-1.071600056E1,3.130741582E1
3.127881799E0,-7.201050282E0,3.286995316E1,-1.079295063E1,3.533803516E1
3.129844953E0,-9.232050896E0,3.689400101E1,-1.056300068E1,3.947119275E1
3.131807967E0,-1.091805077E1,4.160805130E1,-9.757950783E0,4.410953830E1
3.133771235E0,-1.199205017E1,4.636095047E1,-9.067950249E0,4.873781609E1
3.135734428E0,-1.241295052E1,5.042400360E1,-9.336000443E0,5.276194068E1
3.137697126E0,-1.279695034E1,5.421795273E1,-9.796050072E0,5.656245162E1
3.139659969E0,-1.260495090E1,5.705400085E1,-1.040895081E1,5.934972669E1
3.141622940E0,-1.218300056E1,5.847195435E1,-1.025595093E1,6.060181084E1
3.143585880E0,-1.191495037E1,5.866395187E1,-9.988050461E0,6.068926135E1
3.145548935E0,-1.141695023E1,5.728395462E1,-9.220950127E0,5.913395074E1
3.147511957E0,-1.057395077E1,5.452500153E1,-8.224950790E0,5.614654078E1
3.149474684E0,-9.577050209E0,5.080695343E1,-7.650000572E0,5.226460481E1
3.151437497E0,-8.082000732E0,4.670595169E1,-7.573050499E0,4.800120575E1
3.153400289E0,-6.702000141E0,4.233600235E1,-7.611000538E0,4.353367926E1
3.155363098E0,-5.476050377E0,3.811995316E1,-7.803000450E0,3.929382614E1
3.157325994E0,-4.518000126E0,3.447900009E1,-7.879950523E0,3.565539781E1
3.159288865E0,-3.751050234E0,3.145095062E1,-7.687950134E0,3.259351546E1
3.161251618E0,-3.022950172E0,2.899800110E1,-7.534950256E0,3.011308305E1
3.163214405E0,-2.448000193E0,2.700495148E1,-7.458000183E0,2.812262214E1
3.165177055E0,-1.873050094E0,2.528100204E1,-7.573050499E0,2.645729531E1
3.167139732E0,-1.375050068E0,2.378595161E1,-8.032950401E0,2.514339971E1
3.169102696E0,-8.380500674E-1,2.240595055E1,-8.530950546E0,2.398970748E1
3.171065576E0,-2.629500031E-1,2.129505157E1,-8.914050102E0,2.308698017E1
3.173029182E0,3.109500110E-1,2.029800034E1,-9.373950005E0,2.236015309E1
3.174992576E0,1.000050068E0,1.930200005E1,-9.988050461E0,2.175611312E1
3.176955266E0,1.459950089E0,1.853505135E1,-1.063905048E1,2.142122727E1
3.178918175E0,1.959000111E0,1.769205093E1,-1.094595051E1,2.089641549E1
3.180881099E0,2.227050066E0,1.681005096E1,-1.129095078E1,2.037211660E1
3.182844019E0,2.494950056E0,1.608195114E1,-1.140600014E1,1.987336830E1
3.184806943E0,2.686950207E0,1.535400105E1,-1.182705021E1,1.956640402E1
3.186769865E0,2.917050123E0,1.470195103E1,-1.201905060E1,1.921234298E1
3.188732788E0,2.725050211E0,1.412700081E1,-1.198095036E1,1.872274611E1
3.190695711E0,2.533950090E0,1.362900066E1,-1.198095036E1,1.832249256E1
3.192658769E0,2.265000105E0,1.316895103E1,-1.178895092E1,1.781939563E1
3.194621788E0,2.227050066E0,1.282395077E1,-1.144395065E1,1.733140132E1
3.196584515E0,1.959000111E0,1.240305042E1,-1.109895039E1,1.675887946E1
3.198547328E0,1.651950121E0,1.194300079E1,-1.048605061E1,1.597878170E1
3.200510104E0,1.459950089E0,1.140600014E1,-9.604050636E0,1.498219216E1
3.202472881E0,1.384050012E0,1.083105087E1,-8.761050224E0,1.399940208E1
3.204435873E0,1.459950089E0,1.018005085E1,-7.840950489E0,1.293233908E1
3.206398802E0,1.459950089E0,9.681000710E0,-6.768000126E0,1.190206094E1
3.208361680E0,1.651950121E0,9.183000565E0,-5.311950207E0,1.073653825E1
3.210324573E0,1.804950118E0,8.647050858E0,-4.429950237E0,9.881993350E0
3.212287491E0,1.882050037E0,8.340000153E0,-3.970050097E0,9.426505856E0
3.214250408E0,2.227050066E0,7.995000362E0,-3.817050219E0,9.135078279E0
3.216213693E0,2.304000139E0,7.573050499E0,-3.739950180E0,8.754812268E0
3.218176870E0,2.304000139E0,7.267050266E0,-3.778950214E0,8.508754370E0
3.220139931E0,2.111999989E0,6.960000515E0,-3.894000292E0,8.250175113E0
3.222103026E0,2.035050154E0,6.615000248E0,-3.855000257E0,7.922164123E0
3.224065793E0,1.996950150E0,6.309000492E0,-3.739950180E0,7.601218617E0
3.226028650E0,1.882050037E0,6.001950264E0,-3.586950064E0,7.240975768E0
3.227991899E0,1.920000076E0,5.464950085E0,-3.165000200E0,6.600704962E0
3.229955033E0,1.882050037E0,4.890000343E0,-2.859000206E0,5.968927699E0
3.231918280E0,1.996950150E0,4.315950394E0,-2.398950100E0,5.326368301E0
3.233881494E0,2.074050188E0,3.778950214E0,-2.014950037E0,4.758379194E0
3.235844248E0,2.035050154E0,3.127050161E0,-1.786050081E0,4.136405049E0
3.237807127E0,1.690050125E0,2.398950100E0,-1.441050053E0,3.269228695E0
3.239770372E0,1.345050097E0,1.747950077E0,-1.134000063E0,2.480009149E0
3.241733509E0,1.345050097E0,1.018950105E0,-9.040500522E-1,1.914347297E0
3.243697657E0,1.345050097E0,2.910000086E-1,-6.360000372E-1,1.516026654E0
3.245661509E0,1.306950092E0,-1.680000126E-1,-2.910000086E-1,1.349453057E0
3.247624153E0,1.230000019E0,-5.509500504E-1,1.500000060E-2,1.347839384E0
3.249587141E0,1.230000019E0,-1.126049995E0,2.830500007E-1,1.691450839E0
3.251549693E0,1.077000022E0,-1.548000097E0,6.280500293E-1,1.987631804E0
3.253512372E0,1.039050102E0,-1.930950046E0,8.959500194E-1,2.368737983E0
3.255475516E0,1.000050068E0,-2.238000154E0,1.165050030E0,2.714053500E0
3.257438523E0,1.000050068E0,-2.581950188E0,1.548000097E0,3.172202896E0
3.259401562E0,8.089500666E-1,-2.889000177E0,1.777950048E0,3.487381340E0
3.261364595E0,6.550500393E-1,-3.157050133E0,1.969950080E0,3.778459926E0
3.263326825E0,4.639500082E-1,-3.349050045E0,2.391000032E0,4.141046603E0
3.265289290E0,1.960500032E-1,-3.579000235E0,2.659050226E0,4.462984023E0
3.267252471E0,4.050000105E-3,-3.694050074E0,2.965950251E0,4.737392029E0
3.269215442E0,-1.480500102E-1,-3.808950186E0,3.196050167E0,4.974410216E0
3.271178156E0,-2.250000089E-1,-3.961950302E0,3.273000240E0,5.143948461E0
3.273140929E0,-2.629500031E-1,-4.116000175E0,3.118950129E0,5.170923520E0
3.275103698E0,-4.170000255E-1,-4.345950127E0,3.043050051E0,5.321778381E0
3.277066468E0,-4.170000255E-1,-4.461000443E0,2.965950251E0,5.373199685E0
3.279029237E0,-4.549500346E-1,-4.614000320E0,2.736000061E0,5.383463088E0
3.280992006E0,-6.079500318E-1,-4.690050125E0,2.506050110E0,5.352238837E0
3.282954790E0,-7.620000243E-1,-4.767000198E0,2.275950193E0,5.337123215E0
3.284917559E0,-7.999500632E-1,-4.804950237E0,2.161050081E0,5.328940264E0
3.286880373E0,-1.030050039E0,-4.767000198E0,2.046000004E0,5.288800430E0
3.288843173E0,-1.106999993E0,-4.767000198E0,1.969950080E0,5.275456681E0
3.290805893E0,-1.144950032E0,-4.651950359E0,2.046000004E0,5.209382760E0
3.292768636E0,-1.183050036E0,-4.498950005E0,2.200050116E0,5.145908962E0
3.294731458E0,-1.222050071E0,-4.345950127E0,2.506050110E0,5.163426772E0
3.296694254E0,-1.222050071E0,-4.116000175E0,2.736000061E0,5.091223837E0
3.298656974E0,-1.260000110E0,-3.886050224E0,2.851050138E0,4.981713913E0
3.300619717E0,-1.297950029E0,-3.655950069E0,2.851050138E0,4.814471111E0
3.302582356E0,-1.183050036E0,-3.387000084E0,2.851050138E0,4.582560840E0
