"Time (s)","Acceleration x (m/s^2)","Acceleration y (m/s^2)","Acceleration z (m/s^2)","Absolute acceleration (m/s^2)"
3.390316700E-2,-3.214950085E0,-3.349050045E0,-2.140500098E-1,4.647349530E0
3.586570400E-2,-3.520950079E0,-3.694050074E0,-8.269500136E-1,5.169810609E0
3.783093600E-2,-3.751050234E0,-3.924000263E0,-1.363950014E0,5.597188184E0
3.979454400E-2,-3.790050268E0,-4.306950092E0,-1.747050047E0,5.997206350E0
4.175862800E-2,-3.712950230E0,-4.729050159E0,-1.824000120E0,6.283063843E0
4.372208300E-2,-3.904950142E0,-5.149950027E0,-1.939050078E0,6.747631888E0
4.568571500E-2,-4.096050262E0,-5.649000168E0,-2.092050076E0,7.284607345E0
4.764941700E-2,-4.288050175E0,-6.300000191E0,-2.322000027E0,7.966747192E0
4.961309800E-2,-4.441050053E0,-7.066950321E0,-2.667000055E0,8.762282905E0
5.157692700E-2,-4.441050053E0,-7.948050499E0,-2.590050220E0,9.465875155E0
5.354071300E-2,-4.518000126E0,-8.907000542E0,-2.206950188E0,1.022827517E1
5.550368300E-2,-4.249050140E0,-1.013295078E1,-1.134000063E0,1.104613393E1
5.746688300E-2,-3.445050240E0,-1.151295090E1,6.660000086E-1,1.203577856E1
5.943047800E-2,-2.332950115E0,-1.300800037E1,2.314950228E0,1.341677027E1
6.139395800E-2,-1.452000022E0,-1.438695049E1,3.618000269E0,1.490578997E1
6.335750700E-2,-1.336950064E0,-1.561395073E1,5.074050426E0,1.647206364E1
6.532103500E-2,-1.795950055E0,-1.691700172E1,5.956050396E0,1.802456436E1
6.728485800E-2,-1.452000022E0,-1.848795128E1,5.496000290E0,1.934214739E1
6.924855400E-2,-2.629500031E-1,-2.025105095E1,5.304000378E0,2.093577386E1
7.121310200E-2,1.651950121E0,-2.212995148E1,7.182000160E0,2.332476833E1
7.317740000E-2,3.568050146E0,-2.485095024E1,9.214050293E0,2.674321283E1
7.514099000E-2,3.798000097E0,-2.692005157E1,1.063200092E1,2.919166705E1
7.710478700E-2,3.337950230E0,-2.891400146E1,9.367050171E0,3.057618389E1
7.906843600E-2,2.533950090E0,-3.102195168E1,5.764050484E0,3.165448889E1
8.103214700E-2,2.341950178E0,-3.339795303E1,2.773950100E0,3.359468405E1
8.299673600E-2,2.111999989E0,-3.592695236E1,-6.105000153E-2,3.598902857E1
8.496106800E-2,2.111999989E0,-3.838005066E1,-3.664050102E0,3.861235677E1
8.692465100E-2,1.422000051E0,-4.021995163E1,-4.813050270E0,4.053186458E1
8.888845400E-2,1.384050012E0,-4.252005386E1,-5.695050240E0,4.292207092E1
9.085142000E-2,1.039050102E0,-4.420605087E1,-5.695050240E0,4.458349645E1
9.281462200E-2,-1.099500060E-1,-4.543305206E1,-5.733000278E0,4.579346679E1
9.477857800E-2,-1.336950064E0,-4.558605194E1,-4.162050247E0,4.579517692E1
9.674231300E-2,-1.183050036E0,-4.639095306E1,-2.437050104E0,4.646998329E1
9.870689900E-2,4.260000288E-1,-4.830705261E1,-1.977000117E0,4.834936750E1
1.006712360E-1,2.686950207E0,-4.953405380E1,-2.322000027E0,4.966119080E1
1.026348780E-1,4.411950111E0,-4.880595398E1,-1.210950017E0,4.901992297E1
1.045987130E-1,6.520050526E0,-4.803900146E1,-5.970000029E-1,4.848312211E1
1.065625160E-1,8.781000137E0,-4.796205139E1,-6.360000372E-1,4.876339645E1
1.085263290E-1,1.004595089E1,-4.796205139E1,-1.363950014E0,4.902183047E1
1.104900450E-1,9.931050301E0,-4.665900040E1,-3.088950157E0,4.780407609E1
1.124537900E-1,9.931050301E0,-4.478100204E1,-4.468050003E0,4.608608657E1
1.144174830E-1,9.163949966E0,-4.271100235E1,-4.774950027E0,4.394323439E1
1.163811850E-1,8.206049919E0,-4.106295013E1,-5.503050327E0,4.223492266E1
1.183446500E-1,6.405000210E0,-3.976005173E1,-5.388000488E0,4.063146921E1
1.203081850E-1,4.527000427E0,-3.853395081E1,-5.005050182E0,3.912045021E1
1.222721280E-1,3.147000074E0,-3.738405228E1,-4.237950325E0,3.775488309E1
1.242359520E-1,2.188950062E0,-3.619605255E1,-3.394950151E0,3.642075520E1
1.261986760E-1,1.269000053E0,-3.485400009E1,-2.551950216E0,3.497033219E1
1.281617230E-1,3.870000243E-1,-3.355095291E1,-1.939050078E0,3.360916728E1
1.301248490E-1,-6.079500318E-1,-3.236295319E1,-1.287000060E0,3.239423886E1
1.320879520E-1,-1.489950061E0,-3.098295212E1,-8.269500136E-1,3.102977795E1
1.340515200E-1,-1.758000135E0,-2.987205124E1,-4.060500264E-1,2.992649138E1
1.360149520E-1,-1.605000019E0,-2.868405151E1,1.680000126E-1,2.872941107E1
1.379774730E-1,-1.336950064E0,-2.722695160E1,5.130000114E-1,2.726458321E1
1.399402610E-1,-1.413000107E0,-2.565600204E1,5.130000114E-1,2.570000349E1
1.419037470E-1,-2.026050091E0,-2.377800179E1,5.130000114E-1,2.386967568E1
1.438670280E-1,-2.103000164E0,-2.205300140E1,9.349500537E-1,2.217276736E1
1.458306110E-1,-1.834950089E0,-2.071095085E1,1.701000094E0,2.086154185E1
1.477941050E-1,-1.297950029E0,-1.983000183E1,3.579000235E0,2.019214921E1
1.497585620E-1,-2.629500031E-1,-1.933200073E1,3.771000147E0,1.969811760E1
1.517227300E-1,5.790000558E-1,-1.864200020E1,3.196050167E0,1.892284728E1
1.536865220E-1,1.153950095E0,-1.776000023E1,3.234000206E0,1.808889069E1
1.556504250E-1,1.804950118E0,-1.722405052E1,3.694050074E0,1.770795774E1
1.576140360E-1,2.649000168E0,-1.680195045E1,4.039050102E0,1.748246741E1
1.595777320E-1,3.223050117E0,-1.615005112E1,4.153950214E0,1.698433118E1
1.615414140E-1,3.874950171E0,-1.561395073E1,4.153950214E0,1.661523393E1
1.635051070E-1,4.411950111E0,-1.507695103E1,4.192950249E0,1.625916935E1
1.654688430E-1,4.717950344E0,-1.454100037E1,4.153950214E0,1.584156083E1
1.674325670E-1,4.909950256E0,-1.404195023E1,4.231050014E0,1.546563164E1
1.693962550E-1,4.948050022E0,-1.350600052E1,4.729050159E0,1.514130656E1
1.713599530E-1,4.872000217E0,-1.289295101E1,5.112000465E0,1.470024220E1
1.733236250E-1,4.948050022E0,-1.227900028E1,5.457000256E0,1.431907465E1
1.752873190E-1,4.717950344E0,-1.158900070E1,5.878950119E0,1.382483444E1
1.772509650E-1,4.527000427E0,-1.078500080E1,6.186000347E0,1.323165052E1
1.792146260E-1,4.450050354E0,-1.001805019E1,6.531000137E0,1.276002510E1
1.811786830E-1,4.297049999E0,-9.558000565E0,6.876000404E0,1.253392975E1
1.831426240E-1,4.105050087E0,-8.944950104E0,7.105050564E0,1.213858773E1
1.851063130E-1,3.682950258E0,-7.909950256E0,7.066950321E0,1.122823328E1
1.870700490E-1,3.262050152E0,-6.990000248E0,6.952050209E0,1.038422249E1
1.890335540E-1,2.764050245E0,-6.223950386E0,6.913950443E0,9.704650581E0
1.909971260E-1,2.188950062E0,-5.341950417E0,7.105050564E0,9.154762703E0
1.929605230E-1,1.384050012E0,-4.345950127E0,7.335000515E0,8.637424934E0
1.949239720E-1,6.940500140E-1,-3.426000118E0,7.564950466E0,8.333526132E0
1.968871200E-1,-1.099500060E-1,-2.506050110E0,7.756950378E0,8.152463145E0
1.988503570E-1,-9.150000215E-1,-1.509000063E0,8.140049934E0,8.329148766E0
2.008136300E-1,-1.567050099E0,-5.509500504E-1,8.599950790E0,8.758900934E0
2.027768930E-1,-2.295000076E0,6.105000153E-2,8.944950104E0,9.234873297E0
2.047409740E-1,-2.985000134E0,8.280000687E-1,9.175050735E0,9.683871432E0
2.067048160E-1,-3.943050146E0,1.900950074E0,9.634950638E0,1.058269953E1
2.086688980E-1,-4.786050320E0,2.859000206E0,9.942000389E0,1.139840040E1
2.106329030E-1,-5.668050289E0,3.549000263E0,9.865050316E0,1.191811288E1
2.125969030E-1,-6.433950424E0,3.970950127E0,9.942000389E0,1.249029762E1
2.145609050E-1,-7.123950481E0,4.545000076E0,9.942000389E0,1.304802927E1
2.165250390E-1,-7.891050339E0,5.274000168E0,1.021005058E1,1.394018960E1
2.184891340E-1,-8.772000313E0,5.772000313E0,1.032495022E1,1.472645830E1
2.204531240E-1,-9.615000725E0,6.117000103E0,1.024800014E1,1.532603785E1
2.224171410E-1,-1.030500031E1,6.346950531E0,1.017195034E1,1.580966116E1
2.243810030E-1,-1.076505089E1,6.309000492E0,1.013295078E1,1.607378298E1
2.263449100E-1,-1.111005020E1,6.154950142E0,1.009500027E1,1.622423056E1
2.283088800E-1,-1.122495079E1,6.117000103E0,1.028700066E1,1.640852196E1
2.302728310E-1,-1.149300098E1,5.925000191E0,1.001805019E1,1.635713999E1
2.322368530E-1,-1.164705086E1,5.848950386E0,9.673050880E0,1.623058618E1
2.342008450E-1,-1.180005074E1,5.887050152E0,9.520050049E0,1.626437548E1
2.361644870E-1,-1.199205017E1,5.925000191E0,8.907000542E0,1.607014478E1
2.381282320E-1,-1.195305061E1,5.887050152E0,8.485050201E0,1.579648237E1
2.400922750E-1,-1.176195049E1,5.619000435E0,7.948950291E0,1.526769321E1
2.420562300E-1,-1.160805035E1,5.695050240E0,7.182000160E0,1.479059013E1
2.440199100E-1,-1.153200054E1,5.619000435E0,6.454050541E0,1.436018700E1
2.459836800E-1,-1.134000015E1,5.464950085E0,5.917050362E0,1.390944887E1
2.479475380E-1,-1.095705032E1,5.311950207E0,5.457000256E0,1.334363588E1
2.499113700E-1,-1.080300045E1,5.197050095E0,4.959000111E0,1.297327370E1
2.518749950E-1,-1.053495026E1,5.082000256E0,4.537950039E0,1.254611071E1
2.538386800E-1,-1.034400082E1,5.158950329E0,4.192950249E0,1.229609504E1
2.558022330E-1,-1.018995094E1,5.235000134E0,4.078050137E0,1.216021462E1
2.577658290E-1,-1.022895050E1,5.464950085E0,3.963000298E0,1.225571210E1
2.597298520E-1,-1.018995094E1,5.656950474E0,4.078050137E0,1.234773995E1
2.616937500E-1,-9.922050476E0,5.734050274E0,4.039050102E0,1.215073430E1
2.636574530E-1,-9.691950798E0,5.734050274E0,4.384050369E0,1.208441726E1
2.656212130E-1,-9.538950920E0,5.964000225E0,4.192950249E0,1.200590334E1
2.675848990E-1,-9.346950531E0,5.964000225E0,4.498950005E0,1.196558958E1
2.695486030E-1,-9.001950264E0,5.809950352E0,4.921050072E0,1.179013848E1
2.715126080E-1,-8.772000313E0,5.580000401E0,5.380950451E0,1.170636672E1
2.734765240E-1,-8.580000877E0,5.542050362E0,5.802000046E0,1.174708227E1
2.754402240E-1,-8.044050217E0,5.311950207E0,5.994000435E0,1.135128187E1
2.774039870E-1,-7.699050426E0,5.158950329E0,6.186000347E0,1.114256462E1
2.793678370E-1,-7.546050549E0,5.119950294E0,5.764050484E0,1.078800481E1
2.813316680E-1,-7.354050159E0,4.890000343E0,5.686950207E0,1.050407348E1
2.832954730E-1,-7.392000198E0,4.699050426E0,5.227050304E0,1.020023513E1
2.852592850E-1,-7.123950481E0,4.621950150E0,4.921050072E0,9.814775976E0
2.872233160E-1,-7.047000408E0,4.392000198E0,4.498950005E0,9.444068596E0
2.891872830E-1,-7.009050369E0,4.315950394E0,3.502950191E0,8.945662352E0
2.911510800E-1,-7.047000408E0,4.201050282E0,2.851050138E0,8.685477829E0
2.931149480E-1,-7.123950481E0,4.201050282E0,1.930950046E0,8.492824148E0
2.950787910E-1,-6.856050491E0,3.894000292E0,1.548000097E0,8.035233096E0
2.970426410E-1,-6.664050102E0,3.741000175E0,9.349500537E-1,7.699271243E0
2.990072060E-1,-6.702000141E0,3.778950214E0,2.449500114E-1,7.697874455E0
3.009715620E-1,-6.549000263E0,3.664050102E0,-2.520000041E-1,7.508539911E0
3.029353130E-1,-6.357000351E0,3.549000263E0,-7.890000343E-1,7.323208135E0
3.048992470E-1,-6.241950512E0,3.433950186E0,-1.210950017E0,7.226365616E0
3.068628980E-1,-6.088950157E0,3.204000235E0,-1.671000123E0,7.080478298E0
3.088266320E-1,-5.706000328E0,3.088950157E0,-2.284050226E0,6.878730861E0
3.107904960E-1,-5.361000061E0,2.706000090E0,-2.782050133E0,6.618350329E0
3.127543220E-1,-4.900950432E0,2.208000183E0,-3.319050074E0,6.317489480E0
3.147181760E-1,-4.555950165E0,1.594050050E0,-3.970050097E0,6.249718012E0
3.166820180E-1,-4.249050140E0,1.210950017E0,-5.082000256E0,6.734059224E0
3.186465860E-1,-3.790050268E0,6.360000372E-1,-6.078000069E0,7.191040392E0
3.206109420E-1,-3.406050205E0,-1.290000081E-1,-7.228050232E0,7.991403454E0
3.225747470E-1,-2.869950056E0,-7.429500222E-1,-8.377950668E0,8.886993049E0
3.245387130E-1,-2.448000193E0,-1.624050021E0,-9.451050758E0,9.897100780E0
3.265025380E-1,-1.987950087E0,-2.428950071E0,-1.067805004E1,1.112980219E1
3.284664050E-1,-1.452000022E0,-3.196050167E0,-1.171200085E1,1.222677409E1
3.304305620E-1,-9.150000215E-1,-4.039050102E0,-1.259400082E1,1.325745101E1
3.323946340E-1,-4.170000255E-1,-4.996950150E0,-1.347495079E1,1.437768057E1
3.343590270E-1,1.570500135E-1,-5.878950119E0,-1.420395088E1,1.537331909E1
3.363233260E-1,8.850000501E-1,-6.798000336E0,-1.470195103E1,1.622169528E1
3.382870460E-1,1.690050125E0,-7.756950378E0,-1.489395046E1,1.687768672E1
3.402509390E-1,2.572050095E0,-8.638050079E0,-1.504695034E1,1.753972820E1
3.422147770E-1,3.184950113E0,-9.366000175E0,-1.516200066E1,1.810392583E1
3.441786310E-1,3.568050146E0,-1.001805019E1,-1.519995117E1,1.855076352E1
3.461424760E-1,3.913050175E0,-1.047795010E1,-1.493205070E1,1.865651463E1
3.481063230E-1,4.182000160E0,-1.086105061E1,-1.450995064E1,1.860081216E1
3.500703430E-1,4.066950321E0,-1.105305099E1,-1.416495037E1,1.842161340E1
3.520343160E-1,3.682950258E0,-1.105305099E1,-1.351395035E1,1.784267113E1
3.539981860E-1,3.300000191E0,-1.082295036E1,-1.247895050E1,1.684489422E1
3.559620870E-1,2.802000046E0,-1.040100002E1,-1.075395012E1,1.522101997E1
3.579258790E-1,2.494950056E0,-9.787950516E0,-8.608050346E0,1.327129541E1
3.598897030E-1,2.111999989E0,-8.983050346E0,-6.307950497E0,1.117792364E1
3.618537970E-1,1.575000048E0,-8.140049934E0,-3.817050219E0,9.127481058E0
3.638177980E-1,1.077000022E0,-7.297050476E0,-1.516950130E0,7.530472256E0
3.657799510E-1,7.320000529E-1,-6.607050419E0,7.050000429E-1,6.684756119E0
3.677426460E-1,3.870000243E-1,-5.878950119E0,2.773950100E0,6.512036753E0
3.697069140E-1,8.100000024E-2,-5.188950062E0,4.921050072E0,7.151817780E0
3.716707210E-1,-2.629500031E-1,-4.575000286E0,6.913950443E0,8.294726099E0
3.736347180E-1,-4.930500090E-1,-4.153950214E0,8.791950226E0,9.736364284E0
3.755986530E-1,-7.999500632E-1,-3.694050074E0,1.032495022E1,1.099502265E1
3.775627090E-1,-1.030050039E0,-3.157050133E0,1.143705082E1,1.190941225E1
3.795267300E-1,-1.297950029E0,-2.926950216E0,1.159005070E1,1.202418342E1
3.814908620E-1,-1.528050065E0,-3.081000090E0,1.090005016E1,1.142972406E1
3.834549610E-1,-1.873050094E0,-3.732000113E0,9.405000687E0,1.029029540E1
3.854188100E-1,-2.256000042E0,-4.575000286E0,7.335000515E0,8.934338048E0
3.873827320E-1,-2.793000221E0,-5.610000134E0,5.188950062E0,8.136224830E0
3.893467440E-1,-3.636000156E0,-6.913050175E0,3.349050045E0,8.498640836E0
3.913107300E-1,-4.824000359E0,-8.332050323E0,1.548000097E0,9.751427914E0
3.932745080E-1,-6.013050079E0,-9.865050316E0,1.240950108E0,1.161963623E1
3.952383470E-1,-6.778950214E0,-1.158900070E1,2.928000212E0,1.374162612E1
3.972022490E-1,-7.584000587E0,-1.323795033E1,5.725950241E0,1.629560983E1
3.991661250E-1,-8.734050751E0,-1.534605026E1,6.301050186E0,1.874801682E1
4.011304620E-1,-1.072695065E1,-1.783695030E1,4.768050194E0,2.135318639E1
4.030946630E-1,-1.318005085E1,-1.960005188E1,-3.289500177E-1,2.362168458E1
4.050584490E-1,-1.475100040E1,-2.121000099E1,-2.359950066E0,2.594273539E1
4.070223570E-1,-1.555605030E1,-2.289600182E1,-1.861950040E0,2.774318760E1
4.089856730E-1,-1.609305000E1,-2.446800041E1,-1.326000094E0,2.931599527E1
4.109491790E-1,-1.593900108E1,-2.619195175E1,5.295000225E-2,3.066060821E1
4.129123630E-1,-1.551795101E1,-2.787900162E1,2.659050226E0,3.201743405E1
4.148756410E-1,-1.559400082E1,-2.941200066E1,4.269000053E0,3.356282178E1
4.168395830E-1,-1.513395119E1,-3.079200172E1,4.921050072E0,3.466122592E1
4.188033310E-1,-1.363995075E1,-3.175005150E1,5.341950417E0,3.496641905E1
4.207673290E-1,-1.045905018E1,-3.209505081E1,5.572050095E0,3.421303494E1
4.227312540E-1,-6.472050190E0,-3.129000092E1,5.572050095E0,3.243453920E1
4.246951330E-1,-2.830950022E0,-2.937300110E1,5.496000290E0,3.001655361E1
4.266590260E-1,-4.549500346E-1,-2.623095131E1,5.649000168E0,2.683618805E1
4.286230430E-1,1.960500032E-1,-2.266605186E1,5.611050129E0,2.335106478E1
4.305870240E-1,5.410500169E-1,-1.933200073E1,5.188950062E0,2.002359084E1
4.325508430E-1,5.020500422E-1,-1.657200050E1,4.921050072E0,1.729450747E1
4.345147130E-1,-7.200000435E-2,-1.411905098E1,4.768050194E0,1.490258659E1
4.364785550E-1,-1.452000022E0,-1.201095104E1,4.308000088E0,1.284251197E1
4.384424050E-1,-3.022950172E0,-1.032495022E1,3.694050074E0,1.137492113E1
4.404062510E-1,-4.594050407E0,-8.944950104E0,2.773950100E0,1.043131011E1
4.423700980E-1,-6.051000118E0,-7.756950378E0,2.008050203E0,1.004077423E1
4.443342580E-1,-6.970950127E0,-6.798000336E0,1.777950048E0,9.897881622E0
4.462983260E-1,-7.392000198E0,-6.109050274E0,2.238000154E0,9.847375634E0
4.482621810E-1,-7.392000198E0,-5.725050449E0,2.851050138E0,9.774781659E0
4.502260980E-1,-7.009050369E0,-5.572050095E0,3.541050196E0,9.628788388E0
4.521901110E-1,-6.549000263E0,-5.610000134E0,4.231050014E0,9.605378190E0
4.541540960E-1,-6.051000118E0,-5.686950207E0,4.690950394E0,9.537348724E0
4.561180940E-1,-5.743950367E0,-6.031950474E0,5.304000378E0,9.874705684E0
4.580820910E-1,-5.782950401E0,-6.454050541E0,6.070950508E0,1.058081867E1
4.600462710E-1,-5.935950279E0,-6.874950409E0,6.492000103E0,1.116452033E1
4.620103980E-1,-6.051000118E0,-7.450050354E0,6.799050331E0,1.176201250E1
4.639741970E-1,-6.013050079E0,-8.101950645E0,7.105050564E0,1.234018310E1
4.659380930E-1,-6.013050079E0,-8.791950226E0,7.297050476E0,1.291131696E1
4.679020910E-1,-6.396000385E0,-9.328050613E0,7.680000305E0,1.367127477E1
4.698660720E-1,-6.357000351E0,-9.750000000E0,7.603950500E0,1.390302185E1
4.718303900E-1,-6.702000141E0,-1.024800014E1,7.450050354E0,1.433323282E1
4.737946100E-1,-6.778950214E0,-1.074600029E1,7.489050388E0,1.474844276E1
4.757586180E-1,-6.894000530E0,-1.124400043E1,7.564950466E0,1.520471192E1
4.777226890E-1,-6.894000530E0,-1.178100014E1,7.834050179E0,1.573821940E1
4.796865150E-1,-6.970950127E0,-1.227900028E1,8.293950081E0,1.637551836E1
4.816504000E-1,-6.817050457E0,-1.289295101E1,8.677050591E0,1.697031437E1
4.836145540E-1,-6.664050102E0,-1.354395103E1,8.791950226E0,1.746844476E1
4.855786290E-1,-6.586950302E0,-1.404195023E1,9.022050858E0,1.794329073E1
4.875426620E-1,-6.396000385E0,-1.469400024E1,9.442950249E0,1.860085411E1
4.895067080E-1,-6.013050079E0,-1.549905109E1,9.942000389E0,1.937061506E1
4.914708480E-1,-5.706000328E0,-1.630395126E1,1.066995049E1,2.030332756E1
4.934349510E-1,-5.169000149E0,-1.718505096E1,1.162800026E1,2.138352004E1
4.953987540E-1,-4.441050053E0,-1.825800133E1,1.312305069E1,2.291924950E1
4.973626450E-1,-3.790050268E0,-1.948500061E1,1.419600105E1,2.440401966E1
4.993263030E-1,-3.253050089E0,-2.078805161E1,1.469400024E1,2.566396438E1
5.012900300E-1,-2.485950232E0,-2.220600128E1,1.530795097E1,2.708541682E1
5.032539400E-1,-1.489950061E0,-2.389305115E1,1.634205055E1,2.898552157E1
5.052177970E-1,-6.469500065E-1,-2.538705063E1,1.714695168E1,3.064210886E1
5.071818220E-1,-3.299999982E-2,-2.665200043E1,1.756905174E1,3.192180751E1
5.091457970E-1,4.639500082E-1,-2.795505142E1,1.741604996E1,3.293962577E1
5.111107030E-1,6.940500140E-1,-2.910495186E1,1.657200050E1,3.349941983E1
5.130753360E-1,1.192050099E0,-3.006300163E1,1.561395073E1,3.389691001E1
5.150388540E-1,2.188950062E0,-3.086805153E1,1.538400078E1,3.455858197E1
5.170027080E-1,3.568050146E0,-3.163500214E1,1.584405041E1,3.556034695E1
5.189663730E-1,5.331000328E0,-3.244005203E1,1.691700172E1,3.697244227E1
5.209300930E-1,6.787950516E0,-3.309105301E1,1.756905174E1,3.807578812E1
5.228940950E-1,7.746000290E0,-3.366600037E1,1.756905174E1,3.875656951E1
5.248580140E-1,8.512949944E0,-3.408795166E1,1.684095001E1,3.896249944E1
5.268218750E-1,9.508950233E0,-3.462405014E1,1.580595112E1,3.923102182E1
5.287857660E-1,1.046700096E1,-3.500805283E1,1.427295113E1,3.922803851E1
5.307494240E-1,1.142595100E1,-3.512295151E1,1.247100067E1,3.898332896E1
5.327131510E-1,1.230705070E1,-3.516105270E1,1.001805019E1,3.857621617E1
5.346771970E-1,1.291995049E1,-3.496905136E1,6.913950443E0,3.791519991E1
5.366411490E-1,1.372500038E1,-3.447105026E1,2.353049994E0,3.717749031E1
5.386060480E-1,1.418505096E1,-3.374295044E1,-1.479000092E0,3.663317918E1
5.405706770E-1,1.472205067E1,-3.286095047E1,-7.650000572E0,3.681172844E1
5.425343450E-1,1.514295101E1,-3.148095131E1,-1.519995117E1,3.809721481E1
5.444982950E-1,1.518195057E1,-3.017805099E1,-2.060400009E1,3.956932151E1
5.464621680E-1,1.487505054E1,-2.875995064E1,-2.665995216E1,4.194228104E1
5.484260640E-1,1.384005070E1,-2.730405045E1,-3.030105209E1,4.307217120E1
5.503901920E-1,1.261395073E1,-2.577105141E1,-3.194895172E1,4.294175543E1
5.523542690E-1,1.161705017E1,-2.435295105E1,-3.168105125E1,4.161383289E1
5.543184360E-1,1.077405071E1,-2.324100113E1,-3.102900124E1,4.023708762E1
5.562825760E-1,9.892050743E0,-2.224500084E1,-3.053100204E1,3.904913336E1
5.582462380E-1,8.512949944E0,-2.136300087E1,-2.949600220E1,3.740136720E1
5.602100400E-1,7.056000233E0,-2.055795097E1,-2.846205139E1,3.581207697E1
5.621737990E-1,6.213000298E0,-2.013600159E1,-2.715795135E1,3.437461643E1
5.641376050E-1,5.791050434E0,-1.975305176E1,-2.466705132E1,3.212760090E1
5.661016830E-1,6.097950459E0,-1.952295113E1,-2.133300018E1,2.955380715E1
5.680656820E-1,5.830050468E0,-1.902495003E1,-1.765305138E1,2.660015855E1
5.700294580E-1,4.872000217E0,-1.829700089E1,-1.477905083E1,2.401951229E1
5.719933000E-1,3.990000248E0,-1.745400047E1,-1.240200043E1,2.178007918E1
5.739567670E-1,2.992950201E0,-1.668704987E1,-1.025595093E1,1.981413419E1
5.759203580E-1,2.304000139E0,-1.626495171E1,-8.224950790E0,1.837136049E1
5.778837520E-1,1.690050125E0,-1.591995049E1,-7.113000393E0,1.751844364E1
5.798472040E-1,7.699500322E-1,-1.546095085E1,-6.691050529E0,1.686428123E1
5.818103960E-1,-3.400500119E-1,-1.488600063E1,-6.805950165E0,1.637160977E1
5.837736650E-1,-1.260000110E0,-1.442595100E1,-7.228050232E0,1.618457206E1
5.857376040E-1,-2.218050003E0,-1.388895035E1,-8.148000717E0,1.625461791E1
5.877013510E-1,-3.100050211E0,-1.335300064E1,-9.412950516E0,1.662878753E1
5.896653940E-1,-3.559950113E0,-1.293105030E1,-1.025595093E1,1.688401126E1
5.916293510E-1,-3.904950142E0,-1.250895023E1,-1.140600014E1,1.737294767E1
5.935931340E-1,-3.981000185E0,-1.212600040E1,-1.240200043E1,1.779600694E1
5.955569680E-1,-3.790050268E0,-1.166595078E1,-1.293900108E1,1.782909525E1
5.975207000E-1,-3.406050205E0,-1.132095051E1,-1.336005020E1,1.783973205E1
5.994844490E-1,-3.061050177E0,-1.105305099E1,-1.366695023E1,1.784167854E1
6.014483110E-1,-2.448000193E0,-1.090005016E1,-1.393500042E1,1.786023615E1
6.034121390E-1,-2.026050091E0,-1.044000053E1,-1.393500042E1,1.752948165E1
6.053759440E-1,-1.528050065E0,-1.005600071E1,-1.397400093E1,1.728383028E1
6.073397560E-1,-1.222050071E0,-9.787950516E0,-1.405005074E1,1.716686656E1
6.093032740E-1,-9.150000215E-1,-9.250950813E0,-1.428000069E1,1.703924105E1
6.112668910E-1,-2.629500031E-1,-8.752950668E0,-1.439505100E1,1.684935552E1
6.132313160E-1,6.169500351E-1,-8.446949959E0,-1.443405056E1,1.673539383E1
6.151955050E-1,1.269000053E0,-8.025000572E0,-1.424205112E1,1.639655499E1
6.171592930E-1,1.996950150E0,-7.717950344E0,-1.389705086E1,1.602131674E1
6.191231990E-1,2.992950201E0,-7.488000393E0,-1.343700027E1,1.567102030E1
6.210866330E-1,3.798000097E0,-7.219950199E0,-1.293900108E1,1.529608560E1
6.230502030E-1,4.642050266E0,-6.990000248E0,-1.240200043E1,1.497392229E1
6.250137800E-1,5.446050167E0,-6.874950409E0,-1.171200085E1,1.463199813E1
6.269773550E-1,6.250950336E0,-6.684000492E0,-1.098405075E1,1.429683929E1
6.289408880E-1,7.018050194E0,-6.492000103E0,-1.021800041E1,1.399309209E1
6.309044340E-1,7.822950363E0,-6.492000103E0,-9.373950005E0,1.382807132E1
6.328683300E-1,8.398050308E0,-6.339000225E0,-8.569950104E0,1.357034331E1
6.348321240E-1,8.781000137E0,-6.223950386E0,-7.765050411E0,1.327175684E1
6.367958000E-1,9.088050842E0,-6.147000313E0,-6.730050087E0,1.287135794E1
6.387595110E-1,9.202950478E0,-6.109050274E0,-5.656950474E0,1.241031351E1
6.407233790E-1,9.394050598E0,-6.031950474E0,-4.774950027E0,1.214218930E1
6.426872010E-1,9.661950111E0,-5.994000435E0,-3.702000141E0,1.195768064E1
6.446508430E-1,9.892050743E0,-5.917050362E0,-2.514000177E0,1.179764170E1
6.466145270E-1,1.012200069E1,-5.917050362E0,-1.594050050E0,1.183247136E1
6.485784000E-1,1.019895077E1,-5.917050362E0,-6.739500165E-1,1.181034675E1
6.505422170E-1,1.035195065E1,-5.839950085E0,2.070000172E-1,1.188741974E1
6.525055280E-1,1.031400013E1,-5.649000168E0,1.356000066E0,1.183759003E1
6.544689880E-1,1.023705006E1,-5.457000256E0,1.624950051E0,1.171394504E1
6.564331290E-1,1.023705006E1,-5.304000378E0,2.314950228E0,1.175961770E1
6.583970670E-1,1.046700096E1,-5.035050392E0,2.583000183E0,1.189881219E1
6.603608980E-1,1.096605015E1,-4.767000198E0,3.081000090E0,1.234791919E1
6.623247610E-1,1.150200081E1,-4.461000443E0,3.924000263E0,1.294582271E1
6.642887830E-1,1.184700012E1,-4.039050102E0,4.996950150E0,1.347719735E1
6.662527590E-1,1.215405083E1,-3.655950069E0,5.227050304E0,1.372621497E1
6.682167920E-1,1.215405083E1,-3.310950041E0,5.112000465E0,1.359470082E1
6.701807880E-1,1.200000095E1,-3.196050167E0,5.074050426E0,1.341494492E1
6.721447890E-1,1.184700012E1,-2.965950251E0,4.690950394E0,1.308255665E1
6.741087880E-1,1.184700012E1,-2.736000061E0,4.461000443E0,1.295135642E1
6.760723840E-1,1.177005100E1,-2.351999998E0,4.153950214E0,1.270123250E1
6.780360980E-1,1.184700012E1,-2.161050081E0,3.579000235E0,1.256307256E1
6.800000110E-1,1.207695103E1,-1.930950046E0,1.969950080E0,1.238797875E1
6.819638650E-1,1.222995090E1,-1.777950048E0,4.750500321E-1,1.236763834E1
6.839282510E-1,1.207695103E1,-1.548000097E0,-1.516950130E0,1.226988949E1
6.858924810E-1,1.219200039E1,-1.548000097E0,-3.241950035E0,1.271028787E1
6.878563980E-1,1.234500027E1,-1.509000063E0,-5.043000221E0,1.342043084E1
6.898204060E-1,1.215405083E1,-1.356000066E0,-5.962950230E0,1.360575110E1
6.917842240E-1,1.207695103E1,-1.203000069E0,-6.385050297E0,1.371381867E1
6.937480980E-1,1.203900051E1,-1.087950110E0,-6.768000126E0,1.385377185E1
6.957118040E-1,1.192395020E1,-9.340500236E-1,-6.691050529E0,1.370486027E1
6.976755600E-1,1.177005100E1,-9.340500236E-1,-6.307950497E0,1.338644051E1
6.996394200E-1,1.161705017E1,-1.087950110E0,-5.809950352E0,1.303437813E1
7.016032500E-1,1.142595100E1,-1.126049995E0,-5.464950085E0,1.271558195E1
7.035670460E-1,1.119600010E1,-1.432950020E0,-5.197050095E0,1.242630652E1
7.055308580E-1,1.096605015E1,-1.893000126E0,-5.235000134E0,1.229808651E1
7.074947540E-1,1.054395008E1,-2.351999998E0,-5.082000256E0,1.193874005E1
7.094586260E-1,9.433050156E0,-2.851050138E0,-5.082000256E0,1.108772514E1
7.114224690E-1,7.438950539E0,-3.157050133E0,-5.388000488E0,9.712646391E0
7.133863200E-1,5.599950314E0,-3.349050045E0,-5.617950439E0,8.610281462E0
7.153503180E-1,4.066950321E0,-3.426000118E0,-5.733000278E0,7.819517499E0
7.173142600E-1,2.955000162E0,-3.579000235E0,-5.848050117E0,7.465986794E0
7.192779110E-1,2.304000139E0,-3.886050224E0,-5.848050117E0,7.389823622E0
7.212416470E-1,1.843950033E0,-4.116000175E0,-5.848050117E0,7.385208145E0
7.232049710E-1,1.575000048E0,-4.384050369E0,-5.848050117E0,7.476644499E0
7.251684160E-1,1.269000053E0,-4.537050247E0,-5.733000278E0,7.420409576E0
7.271310640E-1,8.089500666E-1,-4.651950359E0,-5.809950352E0,7.486692557E0
7.290939490E-1,2.340000123E-1,-4.690050125E0,-5.733000278E0,7.410709708E0
7.310572830E-1,-2.629500031E-1,-4.690050125E0,-5.809950352E0,7.471361052E0
7.330204860E-1,-6.469500065E-1,-4.767000198E0,-5.695050240E0,7.454960257E0
7.349842630E-1,-8.380500674E-1,-4.804950237E0,-5.542050362E0,7.382695775E0
7.369478710E-1,-9.529500604E-1,-4.843950272E0,-5.197050095E0,7.168074898E0
7.389116940E-1,-9.919500351E-1,-4.996950150E0,-4.621950150E0,6.878655309E0
7.408754670E-1,-8.380500674E-1,-5.265000343E0,-4.200000286E0,6.786940322E0
7.428395510E-1,-9.919500351E-1,-5.341950417E0,-3.702000141E0,6.574587757E0
7.448035440E-1,-1.183050036E0,-5.419050217E0,-3.165000200E0,6.386152121E0
7.467673660E-1,-1.297950029E0,-5.572050095E0,-2.551950216E0,6.264572327E0
7.487312380E-1,-1.336950064E0,-5.686950207E0,-1.824000120E0,6.120115568E0
7.506952330E-1,-1.489950061E0,-5.802000046E0,-1.171950102E0,6.103820341E0
7.526591780E-1,-1.489950061E0,-6.031950474E0,-4.440000355E-1,6.229086107E0
7.546221520E-1,-1.030050039E0,-6.529950142E0,3.979500234E-1,6.622659297E0
7.565854110E-1,-4.549500346E-1,-7.143000126E0,1.165050030E0,7.251673731E0
7.585494920E-1,-1.099500060E-1,-7.795050144E0,1.663050056E0,7.971237748E0
7.605133320E-1,1.189500093E-1,-8.446949959E0,2.085000038E0,8.701283691E0
7.624781260E-1,5.410500169E-1,-9.097949982E0,2.583000183E0,9.472978356E0
7.644426400E-1,6.550500393E-1,-9.750000000E0,2.736000061E0,1.014777251E1
7.664061920E-1,8.089500666E-1,-1.040100002E1,3.081000090E0,1.087785656E1
7.683700260E-1,8.470500112E-1,-1.105305099E1,3.349050045E0,1.158030942E1
7.703332890E-1,6.550500393E-1,-1.181895065E1,3.579000235E0,1.236632232E1
7.722967190E-1,1.570500135E-1,-1.250895023E1,3.234000206E0,1.292119414E1
7.742615510E-1,5.020500422E-1,-1.354395103E1,3.081000090E0,1.389903685E1
7.762259620E-1,1.230000019E0,-1.503900051E1,3.963000298E0,1.560095535E1
7.781895770E-1,1.729050040E0,-1.653404999E1,4.768050194E0,1.729447096E1
7.801534250E-1,2.188950062E0,-1.810500145E1,6.031950474E0,1.920851390E1
7.821174050E-1,1.996950150E0,-1.956195068E1,7.680000305E0,2.111019017E1
7.840813460E-1,1.959000111E0,-2.094105148E1,1.036305046E1,2.344692162E1
7.860448170E-1,1.690050125E0,-2.239800072E1,1.281600094E1,2.586071510E1
7.880084250E-1,1.230000019E0,-2.385405159E1,1.523100090E1,2.832864391E1
7.899719970E-1,5.790000558E-1,-2.554095078E1,1.749195099E1,3.096197276E1
7.919355790E-1,6.940500140E-1,-2.753400040E1,1.741604996E1,3.258713979E1
7.938991100E-1,1.498950124E0,-2.937300110E1,1.523100090E1,3.312104216E1
7.958626560E-1,2.341950178E0,-3.106005096E1,1.388895035E1,3.410446361E1
7.978265310E-1,3.070050240E0,-3.293805313E1,1.193505096E1,3.516796830E1
7.997902930E-1,3.837000132E0,-3.477795029E1,9.136950493E0,3.616230441E1
8.017539750E-1,4.488000393E0,-3.696195221E1,6.223950386E0,3.775004129E1
8.037176800E-1,4.872000217E0,-3.857205200E1,3.196050167E0,3.900966955E1
8.056822700E-1,5.101050377E0,-4.037295151E1,7.810500264E-1,4.070142464E1
8.076466010E-1,5.370000362E0,-4.259595108E1,-1.671000123E0,4.296561641E1
8.096103790E-1,5.140050411E0,-4.451295090E1,-3.855000257E0,4.497425867E1
8.115743090E-1,4.756950378E0,-4.596900177E1,-4.736999989E0,4.645661276E1
8.135381410E-1,4.527000427E0,-4.692705154E1,-5.542050362E0,4.746952940E1
8.155020020E-1,3.337950230E0,-4.754100037E1,-6.346950531E0,4.807881455E1
8.174657100E-1,1.920000076E0,-4.792395401E1,-6.768000126E0,4.843756387E1
8.194294630E-1,9.240000248E-1,-4.792395401E1,-7.036050320E0,4.844651843E1
8.213925590E-1,3.870000243E-1,-4.811595154E1,-6.615000248E0,4.857008122E1
8.233558480E-1,-2.250000089E-1,-4.880595398E1,-4.966950417E0,4.905856057E1
8.253196530E-1,-3.299999982E-2,-4.926495361E1,-4.621950150E0,4.948130118E1
8.272833070E-1,-7.230000496E-1,-4.934205246E1,-4.927950382E0,4.959279751E1
8.292468270E-1,-2.218050003E0,-4.880595398E1,-5.119950294E0,4.912387180E1
8.312103860E-1,-3.520950079E0,-4.792395401E1,-4.736999989E0,4.828603966E1
8.331740760E-1,-4.863000393E0,-4.677405167E1,-4.966950417E0,4.728774977E1
8.351377450E-1,-5.668050289E0,-4.524105072E1,-5.350050449E0,4.590754300E1
8.371013980E-1,-6.472050190E0,-4.351605225E1,-4.852050304E0,4.426145760E1
8.390650550E-1,-7.123950481E0,-4.183005142E1,-4.123950005E0,4.263227458E1
8.410291130E-1,-7.162050247E0,-4.029705048E1,-3.625050068E0,4.108878471E1
8.429930530E-1,-6.970950127E0,-3.891705322E1,-2.974050045E0,3.964815444E1
8.449567180E-1,-6.319050312E0,-3.715395355E1,-2.398950100E0,3.776376071E1
8.469204530E-1,-6.549000263E0,-3.496905136E1,-2.284050226E0,3.565025726E1
8.488841380E-1,-6.433950424E0,-3.259305191E1,-2.130000114E0,3.329023357E1
8.508478380E-1,-7.009050369E0,-3.037005234E1,-2.359950066E0,3.125757877E1
8.528113940E-1,-7.201050282E0,-2.784000206E1,-2.092050076E0,2.883223046E1
8.547749920E-1,-6.894000530E0,-2.519595146E1,-1.516950130E0,2.616609163E1
8.567388200E-1,-6.741000175E0,-2.274300194E1,-8.269500136E-1,2.373539692E1
8.587025910E-1,-6.280950069E0,-2.029005051E1,-3.670500219E-1,2.124314499E1
8.606655950E-1,-5.476050377E0,-1.802805138E1,2.070000172E-1,1.884252141E1
8.626288240E-1,-4.249050140E0,-1.615005112E1,6.660000086E-1,1.671293314E1
8.645930910E-1,-3.253050089E0,-1.454100037E1,9.349500537E-1,1.492974073E1
8.665570530E-1,-2.601000071E0,-1.342905045E1,1.279950023E0,1.373837215E1
8.685206850E-1,-1.642950058E0,-1.277805042E1,1.701000094E0,1.299504747E1
8.704844240E-1,-8.770500422E-1,-1.231800079E1,2.046000004E0,1.251752677E1
8.724483330E-1,-6.079500318E-1,-1.174305058E1,2.430000067E0,1.200723700E1
8.744121920E-1,-6.469500065E-1,-1.070805073E1,2.583000183E0,1.103416443E1
8.763760370E-1,-1.183050036E0,-9.750000000E0,2.773950100E0,1.020572910E1
8.783398860E-1,-1.528050065E0,-8.868000031E0,2.812950134E0,9.428098960E0
8.803036480E-1,-1.452000022E0,-8.025000572E0,3.004050255E0,8.690987066E0
8.822674630E-1,-6.850500107E-1,-7.717950344E0,3.655950069E0,8.567497998E0
8.842320340E-1,6.940500140E-1,-7.872000217E0,4.153950214E0,8.927787813E0
8.861963840E-1,2.265000105E0,-8.025000572E0,4.461000443E0,9.456816833E0
8.881601900E-1,3.223050117E0,-8.062950134E0,4.384050369E0,9.727235711E0
8.901241560E-1,4.105050087E0,-7.909950256E0,3.963000298E0,9.753159521E0
8.920881410E-1,4.642050266E0,-7.488000393E0,3.886050224E0,9.629131160E0
8.940521030E-1,4.527000427E0,-6.913050175E0,3.963000298E0,9.164571291E0
8.960161540E-1,4.143000126E0,-6.376950264E0,4.116000175E0,8.647045863E0
8.979801780E-1,3.760050297E0,-5.839950085E0,4.423050404E0,8.234462344E0
8.999441750E-1,2.955000162E0,-4.996950150E0,4.537950039E0,7.368482022E0
9.019081800E-1,2.380050182E0,-4.116000175E0,4.537950039E0,6.572601226E0
9.038721740E-1,1.882050037E0,-3.310950041E0,4.461000443E0,5.865579892E0
9.058361750E-1,1.498950124E0,-2.620950222E0,4.498950005E0,5.418189982E0
9.077994540E-1,1.077000022E0,-1.738950133E0,4.690950394E0,5.117508399E0
9.097629440E-1,4.639500082E-1,-6.280500293E-1,4.996950150E0,5.057589074E0
9.117257700E-1,-3.400500119E-1,7.510500550E-1,5.304000378E0,5.367693192E0
9.136887900E-1,-9.529500604E-1,1.863000035E0,5.112000465E0,5.523715390E0
9.156527960E-1,-1.375050068E0,2.743950129E0,4.921050072E0,5.799720580E0
9.176164990E-1,-2.026050091E0,3.664050102E0,4.653000355E0,6.259437229E0
9.195803700E-1,-2.448000193E0,4.545000076E0,4.498950005E0,6.847647901E0
9.215441920E-1,-2.946000099E0,5.464950085E0,4.384050369E0,7.600295629E0
9.235078630E-1,-3.214950085E0,6.001950264E0,4.384050369E0,8.098099077E0
9.254715780E-1,-3.559950113E0,6.615000248E0,4.231050014E0,8.621673696E0
9.274354250E-1,-3.712950230E0,6.922050476E0,4.461000443E0,9.033344184E0
9.293992160E-1,-3.981000185E0,7.267050266E0,4.308000088E0,9.339017443E0
9.313631170E-1,-4.210950375E0,7.458000183E0,4.345950127E0,9.604225752E0
9.333269850E-1,-4.441050053E0,7.534950256E0,4.269000053E0,9.732561964E0
9.352906480E-1,-4.900950432E0,7.650000572E0,4.192950249E0,1.000613090E1
9.372543720E-1,-5.169000149E0,7.650000572E0,4.153950214E0,1.012404927E1
9.392181880E-1,-5.553000450E0,7.612050533E0,4.269000053E0,1.034424907E1
9.411819800E-1,-5.974050522E0,7.650000572E0,3.886050224E0,1.045529410E1
9.431460160E-1,-6.241950512E0,7.612050533E0,3.886050224E0,1.058331923E1
9.451099800E-1,-6.357000351E0,7.342950344E0,3.771000147E0,1.041877226E1
9.470734920E-1,-6.204000473E0,7.036950111E0,3.808950186E0,1.012503779E1
9.490371360E-1,-6.396000385E0,7.075050354E0,3.579000235E0,1.018697213E1
9.510008540E-1,-6.241950512E0,6.883050442E0,3.579000235E0,9.957287394E0
9.529645370E-1,-6.241950512E0,6.730050087E0,3.388050079E0,9.784395930E0
9.549282310E-1,-6.051000118E0,6.385050297E0,3.618000269E0,9.511750400E0
9.568919220E-1,-5.898000240E0,6.232050419E0,3.618000269E0,9.312077384E0
9.588555710E-1,-6.127950191E0,6.346950531E0,3.043050051E0,9.332508141E0
9.608192320E-1,-6.051000118E0,6.154950142E0,3.081000090E0,9.164637212E0
9.627830810E-1,-5.782950401E0,5.925000191E0,3.157950163E0,8.861195847E0
9.647468940E-1,-5.782950401E0,5.809950352E0,3.118950129E0,8.770740467E0
9.667105670E-1,-5.590950489E0,5.695050240E0,3.541050196E0,8.731057272E0
9.686742810E-1,-5.935950279E0,6.001950264E0,3.694050074E0,9.214386503E0
9.706378340E-1,-6.127950191E0,6.193950176E0,3.924000263E0,9.555865759E0
9.726014350E-1,-6.166050434E0,6.079050064E0,4.614000320E0,9.811423271E0
9.745649620E-1,-6.549000263E0,5.695050240E0,5.572050095E0,1.031361934E1
9.765285110E-1,-6.778950214E0,5.619000435E0,6.301050186E0,1.082730647E1
9.784921820E-1,-7.201050282E0,5.427000046E0,7.182000160E0,1.152773095E1
9.804558170E-1,-7.660950184E0,5.311950207E0,7.564950466E0,1.200564235E1
9.824195190E-1,-7.929000378E0,5.005050182E0,8.332050323E0,1.254362934E1
9.843832020E-1,-8.082000732E0,4.621950150E0,9.175050735E0,1.307144655E1
9.863470870E-1,-8.580000877E0,4.584000111E0,9.214050293E0,1.339881319E1
9.883109370E-1,-8.695050240E0,4.507050037E0,8.907000542E0,1.323828000E1
9.902747830E-1,-8.542050362E0,4.123950005E0,8.983950615E0,1.306464529E1
9.922386310E-1,-8.197050095E0,3.741000175E0,9.022050858E0,1.275084759E1
9.942021160E-1,-7.966950417E0,3.511050224E0,8.754000664E0,1.234634765E1
9.961657080E-1,-7.852050304E0,3.204000235E0,7.987050533E0,1.164960462E1
9.981293380E-1,-7.660950184E0,2.859000206E0,7.527000427E0,1.111394508E1
1.000092980E0,-7.507050514E0,2.590950012E0,7.029000282E0,1.060545493E1
1.002056726E0,-7.507050514E0,2.398950100E0,6.339000225E0,1.011403445E1
1.004020442E0,-7.584000587E0,2.361000061E0,5.496000290E0,9.659058204E0
1.005984310E0,-7.660950184E0,2.092950106E0,4.768050194E0,9.263093464E0
1.007948134E0,-7.699050426E0,1.671000123E0,3.771000147E0,8.734303692E0
1.009911960E0,-7.699050426E0,1.249050021E0,3.388050079E0,8.503786613E0
1.011875802E0,-7.660950184E0,9.810000658E-1,2.430000067E0,8.096753619E0
1.013839649E0,-7.584000587E0,5.980500579E-1,1.548000097E0,7.763442090E0
1.015803494E0,-7.546050549E0,1.380000114E-1,6.660000086E-1,7.576640344E0
1.017768782E0,-7.468950272E0,-2.059500068E-1,-2.910000086E-1,7.477453749E0
1.019733648E0,-7.354050159E0,-6.660000086E-1,-1.326000094E0,7.502258727E0
1.021697110E0,-7.086000443E0,-1.126049995E0,-2.284050226E0,7.529692975E0
1.023660973E0,-6.664050102E0,-1.701000094E0,-3.127050161E0,7.555223875E0
1.025624636E0,-6.166050434E0,-2.238000154E0,-3.702000141E0,7.532172840E0
1.027588358E0,-5.706000328E0,-2.812050104E0,-4.545000076E0,7.818125813E0
1.029552224E0,-5.323050022E0,-3.541050196E0,-5.197050095E0,8.239127849E0
1.031516048E0,-5.092950344E0,-4.000950336E0,-5.962950230E0,8.803551683E0
1.033479898E0,-4.747950077E0,-4.537050247E0,-6.576000214E0,9.293634041E0
1.035443740E0,-4.594050407E0,-5.074050426E0,-7.266000271E0,9.982286652E0
1.037407587E0,-4.402950287E0,-5.533950329E0,-8.148000717E0,1.078890602E1
1.039371433E0,-4.173000336E0,-6.070050240E0,-8.875950813E0,1.153438098E1
1.041335279E0,-3.865950108E0,-6.645000458E0,-9.412950516E0,1.215340441E1
1.043299125E0,-3.445050240E0,-7.297050476E0,-9.988050461E0,1.284042323E1
1.045263163E0,-2.908050060E0,-7.833000183E0,-1.040895081E1,1.334761791E1
1.047227168E0,-2.563050032E0,-8.217000008E0,-1.079295063E1,1.380493020E1
1.049190988E0,-2.140950203E0,-8.715000153E0,-1.121400070E1,1.436275416E1
1.051154862E0,-1.605000019E0,-9.289950371E0,-1.163595009E1,1.497579839E1
1.053118478E0,-1.144950032E0,-9.903000832E0,-1.175100040E1,1.540994311E1
1.055082170E0,-6.079500318E-1,-1.047795010E1,-1.205700016E1,1.598525240E1
1.057046204E0,4.050000105E-3,-1.116795063E1,-1.240200043E1,1.668930053E1
1.059010150E0,5.790000558E-1,-1.170405102E1,-1.259400082E1,1.720258434E1
1.060973845E0,1.153950095E0,-1.220295048E1,-1.251705074E1,1.751913698E1
1.062937613E0,1.690050125E0,-1.243305016E1,-1.209600067E1,1.742843188E1
1.064900887E0,2.380050182E0,-1.270095062E1,-1.148205090E1,1.728630320E1
1.066864306E0,2.802000046E0,-1.277805042E1,-1.094595051E1,1.705706919E1
1.068827761E0,3.184950113E0,-1.273905087E1,-1.021800041E1,1.663835498E1
1.070791182E0,3.492000103E0,-1.266300106E1,-9.757950783E0,1.636347347E1
1.072754921E0,3.453000069E0,-1.247100067E1,-9.106050491E0,1.582305984E1
1.074718567E0,3.453000069E0,-1.212600040E1,-8.530950546E0,1.522301588E1
1.076682267E0,3.529950142E0,-1.178100014E1,-7.840950489E0,1.458536996E1
1.078645951E0,3.721950293E0,-1.135905075E1,-7.381050587E0,1.404851792E1
1.080609941E0,3.798000097E0,-1.097595024E1,-7.036050320E0,1.357948057E1
1.082573855E0,3.682950258E0,-1.047795010E1,-6.768000126E0,1.300605192E1
1.084537870E0,3.607050180E0,-9.826050758E0,-5.809950352E0,1.197153322E1
1.086501855E0,3.415050268E0,-9.213000298E0,-4.237950325E0,1.070056848E1
1.088465003E0,3.262050152E0,-8.523000717E0,-1.977000117E0,9.337614357E0
1.090428396E0,3.108000040E0,-7.795050144E0,1.165050030E0,8.472296771E0
1.092392490E0,2.878050089E0,-7.066950321E0,4.269000053E0,8.743530215E0
1.094356385E0,2.533950090E0,-6.454050541E0,6.876000404E0,9.764991193E0
1.096320358E0,2.035050154E0,-6.070050240E0,8.754000664E0,1.084525088E1
1.098284308E0,1.575000048E0,-6.147000313E0,1.001805019E1,1.185864949E1
1.100247101E0,1.192050099E0,-6.645000458E0,1.021005058E1,1.224018576E1
1.102210233E0,2.719500065E-1,-7.258050442E0,9.750000000E0,1.215795020E1
1.104174317E0,-8.380500674E-1,-7.948050499E0,9.252000809E0,1.222592956E1
1.106138135E0,-1.911000133E0,-8.907000542E0,8.754000664E0,1.263404558E1
1.108102031E0,-2.485950232E0,-1.013295078E1,8.638950348E0,1.354577806E1
1.110065904E0,-2.946000099E0,-1.151295090E1,8.944950104E0,1.487410795E1
1.112030061E0,-3.559950113E0,-1.296900082E1,9.481950760E0,1.645526108E1
1.113994135E0,-4.555950165E0,-1.446405029E1,1.017195034E1,1.826017542E1
1.115957651E0,-6.051000118E0,-1.599705029E1,1.063200092E1,2.013851196E1
1.117921314E0,-8.197050095E0,-1.756905174E1,1.024800014E1,2.192908380E1
1.119884966E0,-1.061205006E1,-1.914000130E1,9.136950493E0,2.371579896E1
1.121848622E0,-1.287300014E1,-2.059605026E1,7.872000217E0,2.553193699E1
1.123812545E0,-1.444500065E1,-2.159295082E1,7.258950233E0,2.697417149E1
1.125776389E0,-1.517295074E1,-2.220600128E1,6.876000404E0,2.775976060E1
1.127739813E0,-1.467495060E1,-2.232105064E1,6.721950531E0,2.754574551E1
1.129703373E0,-1.298805046E1,-2.182305145E1,6.415950298E0,2.619350010E1
1.131667312E0,-1.068795013E1,-2.078805161E1,6.070950508E0,2.415019270E1
1.133631140E0,-8.311950684E0,-1.936995125E1,5.266050339E0,2.172590209E1
1.135595170E0,-5.974050522E0,-1.753005028E1,4.269000053E0,1.900569135E1
1.137559140E0,-3.828000069E0,-1.572900105E1,2.314950228E0,1.635279955E1
1.139524212E0,-1.987950087E0,-1.385100079E1,7.050000429E-1,1.401068140E1
1.141488971E0,-5.700000525E-1,-1.170405102E1,-2.140500098E-1,1.171987746E1
1.143451896E0,1.189500093E-1,-9.595950127E0,-2.205000073E-2,9.596712674E0
1.145415358E0,-1.099500060E-1,-7.680000305E0,1.087950110E0,7.757456357E0
1.147379133E0,-1.068000078E0,-6.109050274E0,1.777950048E0,6.451528950E0
1.149342817E0,-2.793000221E0,-4.767000198E0,2.046000004E0,5.891626019E0
1.151306675E0,-4.018949986E0,-3.924000263E0,2.200050116E0,6.032408935E0
1.153270462E0,-4.863000393E0,-3.310950041E0,1.930950046E0,6.191908516E0
1.155234544E0,-5.169000149E0,-3.196050167E0,1.432950020E0,6.243928649E0
1.157198539E0,-5.437950134E0,-3.196050167E0,9.349500537E-1,6.376532752E0
1.159163081E0,-5.859000206E0,-3.157050133E0,3.979500234E-1,6.667324289E0
1.161127462E0,-6.241950512E0,-3.157050133E0,1.680000126E-1,6.996937597E0
1.163090632E0,-6.625950336E0,-3.271950245E0,1.300500035E-1,7.390926144E0
1.165054156E0,-7.009050369E0,-3.463950157E0,4.360500276E-1,7.830445543E0
1.167018237E0,-7.584000587E0,-3.886050224E0,7.810500264E-1,8.557364688E0
1.168982154E0,-8.427000046E0,-4.384050369E0,1.395000100E0,9.601054770E0
1.170946168E0,-9.117000580E0,-5.035050392E0,2.085000038E0,1.062161274E1
1.172910154E0,-9.615000725E0,-5.878950119E0,2.812950134E0,1.161563523E1
1.174873816E0,-9.960000038E0,-6.721950531E0,3.579000235E0,1.253776146E1
1.176837560E0,-1.022895050E1,-7.411950588E0,4.192950249E0,1.330974349E1
1.178801603E0,-1.057395077E1,-8.140049934E0,4.882050037E0,1.420926671E1
1.180765558E0,-1.068795013E1,-8.715000153E0,5.457000256E0,1.483112799E1
1.182729431E0,-1.080300045E1,-9.289950371E0,5.994000435E0,1.545755601E1
1.184693329E0,-1.061205006E1,-9.826050758E0,6.339000225E0,1.579081390E1
1.186657481E0,-1.022895050E1,-1.024800014E1,6.646050453E0,1.593182105E1
1.188621558E0,-9.654000282E0,-1.070805073E1,6.991050243E0,1.602301018E1
1.190585365E0,-8.848950386E0,-1.109100056E1,7.297050476E0,1.595497295E1
1.192549252E0,-8.082000732E0,-1.143600082E1,7.564950466E0,1.591632264E1
1.194512911E0,-7.123950481E0,-1.189605045E1,7.756950378E0,1.588826504E1
1.196476637E0,-6.319050312E0,-1.243305016E1,8.101950645E0,1.612925098E1
1.198440391E0,-5.629050255E0,-1.296900082E1,8.677050591E0,1.658832107E1
1.200404120E0,-5.092950344E0,-1.335300064E1,9.252000809E0,1.702469642E1
1.202367942E0,-4.863000393E0,-1.354395103E1,9.712050438E0,1.736120117E1
1.204331736E0,-4.786050320E0,-1.369695091E1,1.009500027E1,1.767545678E1
1.206295232E0,-4.708950043E0,-1.385100079E1,1.059300041E1,1.806200684E1
1.208258815E0,-4.402950287E0,-1.450200081E1,1.135995007E1,1.894049799E1
1.210222520E0,-3.520950079E0,-1.576695061E1,1.277805042E1,2.059787352E1
1.212186192E0,-2.103000164E0,-1.729995155E1,1.415805054E1,2.245353710E1
1.214149933E0,-9.529500604E-1,-1.875705147E1,1.523100090E1,2.418095288E1
1.216113654E0,-5.320500135E-1,-2.002200127E1,1.641900063E1,2.589878749E1
1.218077476E0,-6.850500107E-1,-2.105595016E1,1.952400017E1,2.872296839E1
1.220041269E0,-1.870500147E-1,-2.308800125E1,2.239800072E1,3.216770470E1
1.222005885E0,1.230000019E0,-2.603895187E1,2.147805023E1,3.377642013E1
1.223970264E0,1.843950033E0,-2.856900215E1,1.921695137E1,3.448012842E1
1.225933840E0,2.265000105E0,-3.075300217E1,1.833495140E1,3.587544858E1
1.227897651E0,4.105050087E0,-3.297600174E1,1.799100113E1,3.778814958E1
1.229861502E0,6.250950336E0,-3.489300156E1,1.641900063E1,3.906634766E1
1.231825341E0,8.206049919E0,-3.627195358E1,1.480905056E1,4.002876279E1
1.233789042E0,9.969000816E0,-3.742200089E1,1.235595036E1,4.065041988E1
1.235752761E0,1.219200039E1,-3.841905212E1,9.597000122E0,4.143393357E1
1.237716628E0,1.453005028E1,-3.949200058E1,5.725950241E0,4.246795235E1
1.239680451E0,1.694505119E1,-4.021995163E1,9.349500537E-1,4.365379022E1
1.241644617E0,1.905300140E1,-4.048800278E1,-3.778950214E0,4.490629907E1
1.243608682E0,2.070105171E1,-4.014300156E1,-8.377950668E0,4.593674100E1
1.245572526E0,2.250195122E1,-3.972195053E1,-1.270905018E1,4.738872354E1
1.247536410E0,2.376705170E1,-3.876405334E1,-1.646505165E1,4.835930628E1
1.249499889E0,2.434200096E1,-3.723105240E1,-1.815105057E1,4.804315675E1
1.251463487E0,2.372895050E1,-3.527595139E1,-1.868805122E1,4.644027451E1
1.253427195E0,2.219595146E1,-3.305295181E1,-1.842000008E1,4.386860253E1
1.255390870E0,2.116095161E1,-3.151995087E1,-1.657995033E1,4.142689862E1
1.257354750E0,2.123700142E1,-3.040800095E1,-1.359000111E1,3.950120101E1
1.259318567E0,2.027895164E1,-2.899005127E1,-1.167405033E1,3.725509903E1
1.261282059E0,1.824795151E1,-2.734200096E1,-1.148205090E1,3.481968184E1
1.263245646E0,1.621605110E1,-2.584695053E1,-1.121400070E1,3.250813709E1
1.265209176E0,1.441500092E1,-2.465895081E1,-1.060095024E1,3.046696986E1
1.267172723E0,1.261395073E1,-2.354805183E1,-9.988050461E0,2.851988167E1
1.269136328E0,1.108095074E1,-2.266605186E1,-8.683950424E0,2.668236068E1
1.271099899E0,9.892050743E0,-2.182305145E1,-6.960000515E0,2.495074848E1
1.273063567E0,8.551050186E0,-2.090295029E1,-5.772000313E0,2.331029338E1
1.275027206E0,7.248000145E0,-2.029005051E1,-5.695050240E0,2.228571859E1
1.276990413E0,5.485050201E0,-1.929300117E1,-6.154950142E0,2.098068353E1
1.278953747E0,3.262050152E0,-1.825800133E1,-7.228050232E0,1.990578544E1
1.280916433E0,1.345050097E0,-1.741500092E1,-7.956000328E0,1.919347175E1
1.282879299E0,1.570500135E-1,-1.676399994E1,-8.761050224E0,1.891592873E1
1.284843087E0,-4.930500090E-1,-1.630395126E1,-9.028950691E0,1.864360147E1
1.286806605E0,-1.068000078E0,-1.591995049E1,-8.991000175E0,1.831457157E1
1.288770192E0,-1.795950055E0,-1.546095085E1,-8.608050346E0,1.778665142E1
1.290733759E0,-2.410050154E0,-1.503900051E1,-8.185950279E0,1.729131748E1
1.292697118E0,-3.445050240E0,-1.457895088E1,-7.803000450E0,1.689085540E1
1.294660535E0,-4.747950077E0,-1.427205086E1,-7.765050411E0,1.692721104E1
1.296624048E0,-6.166050434E0,-1.419600105E1,-8.301000595E0,1.756283675E1
1.298587533E0,-6.856050491E0,-1.415700054E1,-8.530950546E0,1.789422281E1
1.300550901E0,-6.856050491E0,-1.408095074E1,-8.914050102E0,1.802051307E1
1.302514304E0,-7.009050369E0,-1.381200027E1,-9.451050758E0,1.814443438E1
1.304478085E0,-6.817050457E0,-1.381200027E1,-9.949050903E0,1.833649755E1
1.306441759E0,-6.586950302E0,-1.377405071E1,-1.063905048E1,1.860918543E1
1.308405275E0,-6.280950069E0,-1.362105083E1,-1.113705063E1,1.868200354E1
1.310368838E0,-5.668050289E0,-1.377405071E1,-1.152105045E1,1.883045062E1
1.312332686E0,-5.245950222E0,-1.388895035E1,-1.175100040E1,1.893433247E1
1.314296451E0,-5.016000271E0,-1.396605110E1,-1.167405033E1,1.888105646E1
1.316259820E0,-4.708950043E0,-1.404195023E1,-1.209600067E1,1.912233796E1
1.318223271E0,-4.900950432E0,-1.396605110E1,-1.255605030E1,1.940938684E1
1.320186868E0,-4.824000359E0,-1.385100079E1,-1.339905071E1,1.986594479E1
1.322150422E0,-4.863000393E0,-1.365900040E1,-1.408905029E1,2.021678518E1
1.324114093E0,-4.747950077E0,-1.365900040E1,-1.462500095E1,2.056701181E1
1.326077730E0,-4.326000214E0,-1.339095020E1,-1.531500053E1,2.079858328E1
1.328041279E0,-3.175950050E0,-1.327605057E1,-1.550700092E1,2.065931400E1
1.330004867E0,-1.452000022E0,-1.335300064E1,-1.562205029E1,2.060241212E1
1.331969613E0,2.340000123E-1,-1.331400108E1,-1.550700092E1,2.043977638E1
1.333934019E0,1.651950121E0,-1.300800037E1,-1.539195061E1,2.022001870E1
1.335897410E0,2.992950201E0,-1.266300106E1,-1.504695034E1,1.989271377E1
1.337861098E0,4.297049999E0,-1.227900028E1,-1.481700039E1,1.971755530E1
1.339824577E0,5.638050079E0,-1.185795021E1,-1.466400051E1,1.968327978E1
1.341788141E0,7.018050194E0,-1.147395039E1,-1.435695076E1,1.967299167E1
1.343751899E0,8.359050751E0,-1.120605087E1,-1.385895061E1,1.968552305E1
1.345715600E0,9.739050865E0,-1.093800068E1,-1.324500084E1,1.974636721E1
1.347679651E0,1.096605015E1,-1.078500080E1,-1.240200043E1,1.975803919E1
1.349643600E0,1.188495064E1,-1.047795010E1,-1.148205090E1,1.956724259E1
1.351607231E0,1.276695061E1,-1.024800014E1,-1.052400017E1,1.946204291E1
1.353570968E0,1.341900063E1,-1.005600071E1,-9.528000832E0,1.928666710E1
1.355534967E0,1.403205109E1,-9.750000000E0,-8.569950104E0,1.911556964E1
1.357498889E0,1.426200104E1,-9.481050491E0,-7.495950222E0,1.869449817E1
1.359462363E0,1.445295048E1,-9.136050224E0,-6.193050385E0,1.818540800E1
1.361425968E0,1.472205067E1,-8.868000031E0,-4.852050304E0,1.785840397E1
1.363389291E0,1.498995113E1,-8.523000717E0,-3.894000292E0,1.767776611E1
1.365352713E0,1.514295101E1,-8.407950401E0,-2.629050016E0,1.751897541E1
1.367316135E0,1.537305069E1,-8.178000450E0,-1.671000123E0,1.749293058E1
1.369279557E0,1.567995071E1,-8.062950134E0,-1.018950105E0,1.766098181E1
1.371243476E0,1.594800091E1,-7.795050144E0,-5.970000029E-1,1.776113591E1
1.373207250E0,1.625505066E1,-7.642050266E0,-9.420000315E-1,1.798652185E1
1.375171263E0,1.625505066E1,-7.219950199E0,-9.420000315E-1,1.781128061E1
1.377135192E0,1.591005039E1,-6.721950531E0,-1.287000060E0,1.731966199E1
1.379098710E0,1.548795033E1,-6.184950352E0,-1.441050053E0,1.673937996E1
1.381062348E0,1.518195057E1,-5.494950294E0,-2.629050016E0,1.635842308E1
1.383026229E0,1.468305111E1,-4.959000111E0,-2.820000172E0,1.575233548E1
1.384990038E0,1.453005028E1,-4.461000443E0,-2.896950245E0,1.547304775E1
1.386953841E0,1.441500092E1,-3.961950302E0,-2.704950094E0,1.519230254E1
1.388917650E0,1.445295048E1,-3.579000235E0,-2.322000027E0,1.506946264E1
1.390881682E0,1.418505096E1,-3.004050255E0,-1.516950130E0,1.457879030E1
1.392845648E0,1.395495033E1,-2.467050076E0,-7.890000343E-1,1.419329052E1
1.394809340E0,1.380195045E1,-2.275950193E0,-8.269500136E-1,1.401276675E1
1.396773112E0,1.353405094E1,-1.893000126E0,-4.440000355E-1,1.367300700E1
1.398736030E0,1.299705029E1,-1.164000034E0,1.300500035E-1,1.304971744E1
1.400699194E0,1.211505032E1,-3.589500189E-1,8.200500607E-1,1.214807686E1
1.402663516E0,1.192395020E1,-1.290000081E-1,-2.910000086E-1,1.192819811E1
1.404627499E0,1.230705070E1,-1.290000081E-1,-2.359950066E0,1.253193929E1
1.406590422E0,1.246005058E1,-1.290000081E-1,-3.586950064E0,1.296671556E1
1.408553655E0,1.238400078E1,-1.500000060E-2,-4.009050369E0,1.301676554E1
1.410517596E0,1.226895046E1,2.140500098E-1,-3.817050219E0,1.285079123E1
1.412481336E0,1.184700012E1,7.129500508E-1,-3.319050074E0,1.232379013E1
1.414445066E0,1.138695049E1,9.040500522E-1,-2.514000177E0,1.169615941E1
1.416408799E0,1.088895035E1,1.057950020E0,-2.053950071E0,1.113136150E1
1.418372304E0,1.023705006E1,1.173000097E0,-1.786050081E0,1.045768129E1
1.420335876E0,9.547050476E0,1.173000097E0,-1.363950014E0,9.715063647E0
1.422299728E0,8.818950653E0,7.890000343E-1,-1.249050021E0,8.941841960E0
1.424263495E0,7.593000412E0,1.759500057E-1,-1.057050109E0,7.668244166E0
1.426227760E0,6.289950371E0,-2.830500007E-1,-9.810000658E-1,6.372280133E0
1.428191879E0,4.948050022E0,-7.039500475E-1,-1.018950105E0,5.100686621E0
1.430155499E0,3.913050175E0,-1.240950108E0,-1.096050024E0,4.248910977E0
1.432119266E0,3.147000074E0,-1.663050056E0,-1.096050024E0,3.724334922E0
1.434083060E0,2.649000168E0,-2.161050081E0,-1.018950105E0,3.567295707E0
1.436046860E0,2.304000139E0,-2.620950222E0,-1.057050109E0,3.646251725E0
1.438010355E0,1.882050037E0,-3.118950129E0,-1.210950017E0,3.838796972E0
1.439973939E0,1.498950124E0,-3.579000235E0,-1.516950130E0,4.166201129E0
1.441937649E0,1.575000048E0,-4.153950214E0,-1.555950046E0,4.707112499E0
1.443901322E0,1.651950121E0,-4.575000286E0,-1.900950074E0,5.222372833E0
1.445864717E0,1.345050097E0,-4.996950150E0,-2.359950066E0,5.687533285E0
1.447828184E0,1.269000053E0,-5.457000256E0,-2.590050220E0,6.172323150E0
1.449791914E0,1.153950095E0,-5.802000046E0,-2.743950129E0,6.521048049E0
1.451755567E0,1.000050068E0,-6.147000313E0,-2.974050045E0,6.901498870E0
1.453719401E0,1.000050068E0,-6.607050419E0,-2.743950129E0,7.223744021E0
1.455683182E0,1.077000022E0,-7.105050564E0,-2.322000027E0,7.552043213E0
1.457647030E0,1.230000019E0,-7.603050232E0,-1.824000120E0,7.914938365E0
1.459610865E0,1.422000051E0,-8.062950134E0,-1.018950105E0,8.250545941E0
1.461574173E0,1.804950118E0,-8.638050079E0,-2.520000041E-1,8.828208091E0
1.463537636E0,2.188950062E0,-9.175050735E0,3.220500052E-1,9.438049299E0
1.465501186E0,2.572050095E0,-9.750000000E0,9.730500579E-1,1.013038835E1
1.467464711E0,2.917050123E0,-1.044000053E1,1.279950023E0,1.091517589E1
1.469428638E0,3.031950235E0,-1.109100056E1,1.087950110E0,1.154931388E1
1.471392461E0,3.147000074E0,-1.178100014E1,6.280500293E-1,1.221024244E1
1.473357212E0,3.223050117E0,-1.254795074E1,1.300500035E-1,1.295592656E1
1.475321691E0,3.223050117E0,-1.346700096E1,-2.910000086E-1,1.385037357E1
1.477284529E0,3.607050180E0,-1.465605068E1,2.449500114E-1,1.509538450E1
1.479247847E0,4.258049965E0,-1.611194992E1,1.585950017E0,1.674040493E1
1.481211793E0,5.140050411E0,-1.760700035E1,2.851050138E0,1.856219455E1
1.483175548E0,5.752950191E0,-1.902495003E1,4.384050369E0,2.035350233E1
1.485139365E0,6.175050259E0,-2.032800102E1,5.686950207E0,2.199318699E1
1.487103163E0,6.634950161E0,-2.163105011E1,6.913950443E0,2.365856300E1
1.489067062E0,7.401000500E0,-2.320305061E1,7.335000515E0,2.543538084E1
1.491030932E0,8.512949944E0,-2.488905144E1,7.564950466E0,2.737085446E1
1.492994531E0,9.355950356E0,-2.669100189E1,7.756950378E0,2.932769456E1
1.494958223E0,9.355950356E0,-2.841495132E1,6.721950531E0,3.066150493E1
1.496922139E0,9.241050720E0,-3.013995171E1,5.956050396E0,3.208252240E1
1.498885990E0,9.088050842E0,-3.163500214E1,4.461000443E0,3.321545654E1
1.500850151E0,8.014050484E0,-3.332100296E1,3.273000240E0,3.442712265E1
1.502814221E0,7.783950329E0,-3.565904999E1,2.353049994E0,3.657450715E1
1.504778540E0,7.171050549E0,-3.826500320E1,4.360500276E-1,3.893359187E1
1.506742807E0,6.060000420E0,-4.075695038E1,-7.890000343E-1,4.121256035E1
1.508706582E0,5.254950047E0,-4.324800110E1,-7.510500550E-1,4.357256218E1
1.510670502E0,4.872000217E0,-4.573905182E1,-4.440000355E-1,4.599993895E1
1.512634380E0,3.952050209E0,-4.757895279E1,1.500000060E-2,4.774280757E1
1.514598271E0,2.917050123E0,-4.899705124E1,-6.105000153E-2,4.908384601E1
1.516561378E0,1.651950121E0,-5.045400238E1,-5.209500194E-1,5.048372693E1
1.518524690E0,1.189500093E-1,-5.125905228E1,-7.120500207E-1,5.126413566E1
1.520488086E0,-1.183050036E0,-5.225505066E1,-1.057050109E0,5.227912855E1
1.522451457E0,-2.026050091E0,-5.302200317E1,-1.786050081E0,5.309074942E1
1.524415204E0,-2.410050154E0,-5.348205185E1,-3.394950151E0,5.364386170E1
1.526378841E0,-2.640000105E0,-5.382600403E1,-5.656950474E0,5.418680097E1
1.528342378E0,-3.253050089E0,-5.405595398E1,-7.228050232E0,5.463399313E1
1.530305934E0,-3.790050268E0,-5.405595398E1,-8.569950104E0,5.486214256E1
1.532269649E0,-3.865950108E0,-5.401800156E1,-1.006395054E1,5.508332926E1
1.534233317E0,-4.326000214E0,-5.390295410E1,-1.033305073E1,5.505465172E1
1.536197239E0,-4.363950253E0,-5.378805161E1,-9.681000710E0,5.482627410E1
1.538161086E0,-4.518000126E0,-5.305995178E1,-8.722949982E0,5.396165921E1
1.540124957E0,-5.169000149E0,-5.206305313E1,-7.726050377E0,5.288640580E1
1.542088804E0,-4.939050198E0,-5.110500336E1,-6.652950287E0,5.177236070E1
1.544052425E0,-4.900950432E0,-4.968705368E1,-5.427000046E0,5.022225551E1
1.546016112E0,-4.863000393E0,-4.773195267E1,-4.429950237E0,4.818311465E1
1.547979849E0,-5.629050255E0,-4.497300339E1,-4.047000408E0,4.550423555E1
1.549943572E0,-7.660950184E0,-4.179195023E1,-3.625050068E0,4.264268108E1
1.551907413E0,-9.309000015E0,-3.872505188E1,-2.551950216E0,3.990989319E1
1.553871206E0,-1.015200043E1,-3.577395248E1,-1.402050018E0,3.721296190E1
1.555834702E0,-9.960000038E0,-3.297600174E1,-5.209500194E-1,3.445126529E1
1.557798285E0,-9.691950798E0,-3.021705055E1,-2.205000073E-2,3.173333485E1
1.559761095E0,-9.691950798E0,-2.722695160E1,1.680000126E-1,2.890102122E1
1.561724131E0,-1.011405087E1,-2.431395149E1,4.360500276E-1,2.633728159E1
1.563687930E0,-1.018995094E1,-2.159295082E1,8.580000401E-1,2.389198170E1
1.565651509E0,-9.232050896E0,-1.925505066E1,2.353049994E0,2.148312323E1
1.567615220E0,-7.009050369E0,-1.768395042E1,3.655950069E0,1.937046361E1
1.569578893E0,-5.284050465E0,-1.622700119E1,4.768050194E0,1.771922853E1
1.571542589E0,-4.210950375E0,-1.492395115E1,4.959000111E0,1.628029800E1
1.573506278E0,-3.330000162E0,-1.411905098E1,4.653000355E0,1.523439903E1
1.575469797E0,-2.755050182E0,-1.319895077E1,4.921050072E0,1.435337370E1
1.577433362E0,-2.026050091E0,-1.258605099E1,5.572050095E0,1.391263098E1
1.579396896E0,-1.642950058E0,-1.227900028E1,5.994000435E0,1.376230991E1
1.581360439E0,-1.567050099E0,-1.170405102E1,6.415950298E0,1.343893130E1
1.583323796E0,-1.297950029E0,-1.086105061E1,6.837000370E0,1.289928946E1
1.585287208E0,-6.850500107E-1,-9.711000443E0,6.684000492E0,1.180883930E1
1.587251533E0,-3.299999982E-2,-8.791950226E0,6.454050541E0,1.090661479E1
1.589215591E0,6.940500140E-1,-8.293050766E0,6.070950508E0,1.030110851E1
1.591179221E0,1.384050012E0,-7.909950256E0,6.070950508E0,1.006674464E1
1.593142977E0,1.882050037E0,-7.603050232E0,5.994000435E0,9.862886311E0
1.595106613E0,1.920000076E0,-7.027950287E0,6.031950474E0,9.458483602E0
1.597070285E0,1.537050128E0,-6.070050240E0,6.415950298E0,8.965068390E0
1.599034160E0,1.192050099E0,-5.074050426E0,6.607050419E0,8.415467094E0
1.600997975E0,9.619500637E-1,-4.077000141E0,6.684000492E0,7.888164594E0
1.602960747E0,5.790000558E-1,-3.118950129E0,6.799050331E0,7.502677947E0
1.604923824E0,2.719500065E-1,-2.391000032E0,7.066950321E0,7.465428642E0
1.606887441E0,8.100000024E-2,-1.087950110E0,7.756950378E0,7.833292770E0
1.608850899E0,1.189500093E-1,-1.680000126E-1,8.217000008E0,8.219577984E0
1.610813951E0,4.200000316E-2,9.430500269E-1,8.638950348E0,8.690372286E0
1.612777126E0,-3.780000210E-1,2.361000061E0,8.830050468E0,9.148059717E0
1.614740726E0,-7.999500632E-1,3.741000175E0,8.638950348E0,9.448093222E0
1.616704201E0,-1.106999993E0,5.044050217E0,8.370000839E0,9.834877001E0
1.618667527E0,-1.336950064E0,6.385050297E0,8.140049934E0,1.043152509E1
1.620630896E0,-1.795950055E0,7.765050411E0,7.795050144E0,1.114828468E1
1.622594167E0,-2.332950115E0,9.145050049E0,7.564950466E0,1.209558069E1
1.624557453E0,-2.677950144E0,1.041000080E1,7.411950588E0,1.305666669E1
1.626520853E0,-2.946000099E0,1.140600014E1,7.527000427E0,1.397968137E1
1.628484220E0,-3.061050177E0,1.221105099E1,7.527000427E0,1.466749910E1
1.630447788E0,-3.253050089E0,1.282395077E1,7.450050354E0,1.518352062E1
1.632411297E0,-3.904950142E0,1.343700027E1,7.489050388E0,1.587096367E1
1.634374957E0,-4.863000393E0,1.393605042E1,7.182000160E0,1.641473120E1
1.636338586E0,-5.398950100E0,1.382100105E1,7.489050388E0,1.662090876E1
1.638302335E0,-5.935950279E0,1.339905071E1,7.527000427E0,1.647500535E1
1.640266048E0,-6.970950127E0,1.316895103E1,7.642050266E0,1.674563672E1
1.642229513E0,-7.813950539E0,1.247895050E1,7.564950466E0,1.655326264E1
1.644193050E0,-8.848950386E0,1.190400028E1,6.913950443E0,1.636495818E1
1.646156592E0,-9.424050331E0,1.113795090E1,7.066950321E0,1.621136829E1
1.648120129E0,-9.615000725E0,1.041000080E1,6.492000103E0,1.558725187E1
1.650083713E0,-9.424050331E0,9.220950127E0,6.415950298E0,1.466298278E1
1.652047283E0,-9.462000847E0,8.416950226E0,5.841000080E0,1.394603145E1
1.654010637E0,-9.346950531E0,7.842000484E0,5.341950417E0,1.331911747E1
1.655974055E0,-8.848950386E0,7.342950344E0,5.188950062E0,1.261538923E1
1.657937608E0,-8.389050484E0,6.922050476E0,4.806000233E0,1.189069338E1
1.659901124E0,-8.197050095E0,6.117000103E0,4.690950394E0,1.125230359E1
1.661864666E0,-8.044050217E0,5.809950352E0,4.231050014E0,1.078721703E1
1.663828201E0,-8.197050095E0,5.734050274E0,4.000950336E0,1.077397635E1
1.665791921E0,-8.236050606E0,5.734050274E0,4.153950214E0,1.086126901E1
1.667755586E0,-7.929000378E0,5.350050449E0,4.078050137E0,1.039820079E1
1.669719473E0,-7.776000500E0,4.890000343E0,4.345950127E0,1.016196682E1
1.671683288E0,-8.044050217E0,4.890000343E0,4.806000233E0,1.056960195E1
1.673647140E0,-8.542050362E0,5.119950294E0,4.768050194E0,1.104150434E1
1.675610981E0,-9.154950142E0,5.235000134E0,4.882050037E0,1.162121986E1
1.677574784E0,-9.309000015E0,5.044050217E0,5.878950119E0,1.211040785E1
1.679538598E0,-9.346950531E0,4.774950027E0,6.223950386E0,1.220258950E1
1.681502119E0,-9.385050774E0,4.621950150E0,6.991050243E0,1.258238390E1
1.683465737E0,-9.270000458E0,4.162050247E0,8.370000839E0,1.316481997E1
1.685429396E0,-8.964000702E0,3.702000141E0,9.214050293E0,1.337747496E1
1.687393043E0,-8.695050240E0,3.357000113E0,1.070805073E1,1.419632695E1
1.689356429E0,-8.389050484E0,3.127050161E0,1.143705082E1,1.452448767E1
1.691319891E0,-7.891050339E0,2.590950012E0,1.270095062E1,1.517550145E1
1.693283595E0,-7.621950150E0,2.437050104E0,1.293105030E1,1.520675505E1
1.695247215E0,-7.699050426E0,2.437050104E0,1.281600094E1,1.514808472E1
1.697210741E0,-7.621950150E0,2.131050110E0,1.304595089E1,1.525884443E1
1.699174294E0,-7.584000587E0,1.863000035E0,1.285500050E1,1.504123904E1
1.701137830E0,-7.776000500E0,1.824000120E0,1.224105072E1,1.461630880E1
1.703101371E0,-7.966950417E0,1.747950077E0,1.155105019E1,1.414052293E1
1.705064953E0,-7.891050339E0,1.441050053E0,1.113000011E1,1.371940973E1
1.707028523E0,-7.966950417E0,1.018950105E0,9.673050880E0,1.257292613E1
1.708992552E0,-8.082000732E0,7.510500550E-1,8.599950790E0,1.182547951E1
1.710956446E0,-8.197050095E0,4.060500264E-1,7.719000340E0,1.126674190E1
1.712920509E0,-8.197050095E0,9.900000691E-2,6.684000492E0,1.057720633E1
1.714884523E0,-8.311950684E0,-5.295000225E-2,5.304000378E0,9.860210336E0
1.716848342E0,-8.389050484E0,-9.105000645E-2,4.153950214E0,9.361610999E0
1.718812218E0,-8.464950562E0,-1.290000081E-1,3.004050255E0,8.983114546E0
1.720775878E0,-8.389050484E0,-2.059500068E-1,2.046000004E0,8.637401197E0
1.722739602E0,-8.389050484E0,-3.979500234E-1,1.279950023E0,8.495457863E0
1.724704505E0,-8.236050606E0,-4.740000367E-1,1.300500035E-1,8.250704129E0
1.726669062E0,-8.005949974E0,-5.890500546E-1,-7.120500207E-1,8.059108523E0
1.728632422E0,-7.929000378E0,-6.660000086E-1,-1.441050053E0,8.086360631E0
1.730596136E0,-7.699050426E0,-9.340500236E-1,-2.284050226E0,8.084844609E0
1.732559824E0,-7.315950394E0,-1.356000066E0,-2.974050045E0,8.012917073E0
1.734523520E0,-6.894000530E0,-1.624050021E0,-3.280050039E0,7.805351372E0
1.736487212E0,-6.396000385E0,-1.816050053E0,-3.931950092E0,7.724447569E0
1.738450905E0,-5.898000240E0,-2.238000154E0,-4.276950359E0,7.621506144E0
1.740414398E0,-5.284050465E0,-2.428950071E0,-4.660050392E0,7.452318929E0
1.742377963E0,-4.747950077E0,-2.620950222E0,-4.927950382E0,7.327830850E0
1.744341362E0,-4.326000214E0,-2.889000177E0,-4.890000343E0,7.139517017E0
1.746304809E0,-3.904950142E0,-3.118950129E0,-5.235000134E0,7.237521117E0
1.748268362E0,-3.520950079E0,-3.271950245E0,-5.503050327E0,7.306593650E0
1.750231884E0,-3.291000128E0,-3.387000084E0,-6.117000103E0,7.727880801E0
1.752195791E0,-3.100050211E0,-3.732000113E0,-6.615000248E0,8.203436136E0
1.754159581E0,-2.869950056E0,-4.116000175E0,-7.305000305E0,8.862341690E0
1.756123077E0,-2.485950232E0,-4.461000443E0,-8.224950790E0,9.681440441E0
1.758086660E0,-2.026050091E0,-4.996950150E0,-8.914050102E0,1.041799784E1
1.760050506E0,-1.528050065E0,-5.686950207E0,-9.489000320E0,1.116769747E1
1.762014274E0,-8.380500674E-1,-6.415050507E0,-1.017900085E1,1.206098086E1
1.763978539E0,-1.480500102E-1,-7.258050442E0,-1.090695095E1,1.310201489E1
1.765942658E0,6.169500351E-1,-8.101950645E0,-1.155900097E1,1.412914488E1
1.767906053E0,1.459950089E0,-9.097949982E0,-1.205700016E1,1.517482787E1
1.769869660E0,2.265000105E0,-1.001805019E1,-1.244100094E1,1.613288751E1
1.771832826E0,3.031950235E0,-1.101495075E1,-1.270905018E1,1.708923108E1
1.773796122E0,3.760050297E0,-1.185795021E1,-1.282395077E1,1.786624400E1
1.775759746E0,4.488000393E0,-1.254795074E1,-1.270905018E1,1.841502571E1
1.777723274E0,4.717950344E0,-1.293105030E1,-1.213395023E1,1.834949224E1
1.779686949E0,4.756950378E0,-1.312305069E1,-1.117605019E1,1.788147461E1
1.781650581E0,4.833000183E0,-1.327605057E1,-1.010295010E1,1.736896687E1
1.783614150E0,4.795050144E0,-1.319895077E1,-8.953050613E0,1.665418634E1
1.785577737E0,4.564949989E0,-1.293105030E1,-7.650000572E0,1.570265389E1
1.787541442E0,4.297049999E0,-1.250895023E1,-6.538050175E0,1.475413755E1
1.789505115E0,4.143000126E0,-1.212600040E1,-5.503050327E0,1.394589182E1
1.791468632E0,3.913050175E0,-1.155105019E1,-4.429950237E0,1.297548385E1
1.793432194E0,3.760050297E0,-1.101495075E1,-3.394950151E0,1.212405893E1
1.795395683E0,3.529950142E0,-1.040100002E1,-2.359950066E0,1.123435418E1
1.797359194E0,3.300000191E0,-9.787950516E0,-8.659500480E-1,1.036551234E1
1.799322177E0,3.108000040E0,-9.097949982E0,5.130000114E-1,9.627851636E0
1.801285329E0,2.878050089E0,-8.293050766E0,2.161050081E0,9.040354018E0
1.803248977E0,2.764050245E0,-7.527000427E0,4.423050404E0,9.157460568E0
1.805212480E0,2.878050089E0,-6.684000492E0,6.721950531E0,9.906747894E0
1.807176205E0,2.686950207E0,-5.839950085E0,8.944950104E0,1.101530076E1
1.809139865E0,2.111999989E0,-4.882050037E0,1.047795010E1,1.175084655E1
1.811103203E0,1.384050012E0,-4.192049980E0,1.113000011E1,1.197354501E1
1.813066636E0,1.192050099E0,-4.000950336E0,1.082295036E1,1.160020869E1
1.815030192E0,8.850000501E-1,-4.000950336E0,9.787950516E0,1.061106988E1
1.816993711E0,5.790000558E-1,-4.384050369E0,8.370000839E0,9.466364284E0
1.818956488E0,-3.299999982E-2,-5.035050392E0,6.684000492E0,8.368314288E0
1.820919482E0,-7.999500632E-1,-5.994000435E0,4.959000111E0,7.820463120E0
1.822883283E0,-1.567050099E0,-7.219950199E0,3.349050045E0,8.111686822E0
1.824846855E0,-2.601000071E0,-8.638050079E0,1.969950080E0,9.233732390E0
1.826810613E0,-3.828000069E0,-1.021005058E1,1.510050058E0,1.100813193E1
1.828774317E0,-5.092950344E0,-1.185795021E1,2.889000177E0,1.322480429E1
1.830737783E0,-6.166050434E0,-1.411905098E1,5.188950062E0,1.625709018E1
1.832701319E0,-8.158950806E0,-1.699394989E1,6.684000492E0,2.000096682E1
1.834664862E0,-1.118700027E1,-2.052000046E1,6.876000404E0,2.436183030E1
1.836628399E0,-1.379295063E1,-2.209095192E1,2.506050110E0,2.616363757E1
1.838592524E0,-1.547895050E1,-2.274300194E1,-1.671000123E0,2.756146381E1
1.840556476E0,-1.655294991E1,-2.339400101E1,-3.289500177E-1,2.865986116E1
1.842518863E0,-1.789395142E1,-2.435295105E1,1.500000060E-2,3.022019105E1
1.844481708E0,-1.900605011E1,-2.561700058E1,7.050000429E-1,3.190544914E1
1.846445343E0,-1.927395058E1,-2.665200043E1,2.506050110E0,3.298627873E1
1.848408730E0,-1.854600143E1,-2.730405045E1,3.234000206E0,3.316510361E1
1.850371980E0,-1.678305054E1,-2.749500084E1,2.889000177E0,3.234180234E1
1.852335271E0,-1.444500065E1,-2.707395172E1,2.391000032E0,3.077943773E1
1.854298806E0,-1.111005020E1,-2.592405128E1,2.467950106E0,2.831219575E1
1.856262269E0,-7.737000465E0,-2.393100166E1,3.618000269E0,2.540952465E1
1.858225832E0,-5.169000149E0,-2.143995094E1,4.959000111E0,2.260490524E1
1.860189389E0,-3.865950108E0,-1.845000076E1,4.921050072E0,1.948242367E1
1.862152565E0,-3.675000191E0,-1.553700066E1,4.078050137E0,1.647830418E1
1.864115852E0,-3.790050268E0,-1.335300064E1,3.388050079E0,1.428796663E1
1.866079208E0,-4.134000301E0,-1.170405102E1,3.157950163E0,1.280809970E1
1.868042543E0,-4.708950043E0,-1.036305046E1,2.506050110E0,1.165535553E1
1.870005831E0,-5.476050377E0,-9.405000687E0,1.510050058E0,1.098732983E1
1.871969112E0,-5.974050522E0,-8.599950790E0,1.165050030E0,1.053592781E1
1.873932694E0,-6.396000385E0,-7.833000183E0,1.356000066E0,1.020310977E1
1.875896187E0,-6.817050457E0,-7.297050476E0,1.701000094E0,1.012978400E1
1.877859374E0,-7.546050549E0,-6.874950409E0,2.046000004E0,1.041124095E1
1.879822650E0,-8.580000877E0,-6.721950531E0,2.698050022E0,1.122855770E1
1.881785794E0,-9.385050774E0,-6.798000336E0,3.426000118E0,1.208426512E1
1.883749001E0,-9.538950920E0,-7.219950199E0,4.078050137E0,1.263921510E1
1.885712640E0,-9.117000580E0,-7.833000183E0,4.423050404E0,1.280776976E1
1.887676153E0,-8.542050362E0,-8.638050079E0,4.614000320E0,1.299505800E1
1.889639652E0,-7.699050426E0,-9.442950249E0,4.768050194E0,1.308353888E1
1.891603155E0,-6.817050457E0,-1.013295078E1,5.227050304E0,1.328423590E1
1.893566384E0,-6.127950191E0,-1.066995049E1,5.725950241E0,1.357151882E1
1.895529693E0,-5.706000328E0,-1.116795063E1,6.109050274E0,1.394998410E1
1.897493090E0,-5.323050022E0,-1.170405102E1,6.415950298E0,1.436955427E1
1.899456461E0,-4.939050198E0,-1.224105072E1,6.837000370E0,1.486546715E1
1.901420028E0,-4.441050053E0,-1.277805042E1,7.335000515E0,1.538842847E1
1.903383538E0,-4.249050140E0,-1.323795033E1,7.680000305E0,1.588332964E1
1.905347402E0,-4.018949986E0,-1.362105083E1,7.987050533E0,1.629349444E1
1.907311158E0,-3.981000185E0,-1.396605110E1,8.254950523E0,1.670458482E1
1.909274480E0,-3.904950142E0,-1.408095074E1,8.677050591E0,1.699449959E1
1.911237929E0,-3.904950142E0,-1.419600105E1,9.289950371E0,1.740914298E1
1.913201302E0,-3.712950230E0,-1.461705112E1,1.013295078E1,1.816922878E1
1.915164698E0,-3.291000128E0,-1.526895046E1,1.097700024E1,1.909099432E1
1.917128067E0,-2.869950056E0,-1.607400131E1,1.201095104E1,2.027000435E1
1.919091454E0,-2.332950115E0,-1.703205109E1,1.327605057E1,2.172065697E1
1.921054882E0,-1.720050097E0,-1.829700089E1,1.492395115E1,2.367410255E1
1.923018298E0,-8.380500674E-1,-2.005995178E1,1.726200104E1,2.647792804E1
1.924981858E0,1.960500032E-1,-2.228295135E1,2.055795097E1,3.031827345E1
1.926945375E0,2.340000123E-1,-2.408400154E1,2.412300110E1,3.408831278E1
1.928910003E0,3.870000243E-1,-2.584695053E1,2.546400070E1,3.628539586E1
1.930874302E0,1.192050099E0,-2.849205208E1,2.634600067E1,3.882434502E1
1.932837666E0,1.767000079E0,-3.113700104E1,2.799405098E1,4.190825710E1
1.934801304E0,2.572050095E0,-3.389595032E1,2.933505058E1,4.490095859E1
1.936764690E0,4.717950344E0,-3.657900238E1,2.933505058E1,4.712565823E1
1.938728150E0,6.979950428E0,-3.868695068E1,2.887605095E1,4.877731214E1
1.940691832E0,8.014050484E0,-3.976005173E1,2.887605095E1,4.978868382E1
1.942655452E0,8.973000526E0,-4.018200302E1,2.879895210E1,5.024428074E1
1.944619023E0,9.700950623E0,-4.052700043E1,2.891400146E1,5.072046616E1
1.946582608E0,1.016100025E1,-4.056495285E1,2.860695076E1,5.066674410E1
1.948546138E0,1.085100079E1,-4.052700043E1,2.772600174E1,5.028830037E1
1.950509685E0,1.173195076E1,-4.029705048E1,2.557905197E1,4.915057320E1
1.952473027E0,1.334205055E1,-3.979905319E1,2.220705032E1,4.748818834E1
1.954436439E0,1.380195045E1,-3.914700317E1,1.867995071E1,4.551837269E1
1.956399819E0,1.395495033E1,-3.849495316E1,1.342995071E1,4.309252410E1
1.958363208E0,1.567995071E1,-3.822705078E1,5.227050304E0,4.164721264E1
1.960327447E0,1.809495163E1,-3.765195084E1,-7.918050289E0,4.251813962E1
1.962291437E0,1.951305008E1,-3.661695099E1,-2.278905106E1,4.733815661E1
1.964254714E0,2.004900169E1,-3.516105270E1,-4.153095245E1,5.799208660E1
1.966218203E0,1.809495163E1,-3.316800308E1,-5.525295258E1,6.693603268E1
1.968181569E0,1.456800079E1,-3.067695236E1,-6.280305481E1,7.139695895E1
1.970144972E0,1.315005016E1,-2.964195061E1,-5.693895340E1,6.552567031E1
1.972108173E0,1.188495064E1,-2.837700081E1,-5.168805313E1,6.015115180E1
1.974071434E0,1.008405018E1,-2.688195038E1,-4.804695129E1,5.597175049E1
1.976034659E0,8.473950386E0,-2.557905197E1,-4.360095215E1,5.125562177E1
1.977997895E0,6.979950428E0,-2.462100029E1,-3.904005051E1,4.668017681E1
1.979961304E0,5.944950104E0,-2.366295052E1,-3.447900009E1,4.223836060E1
1.981924663E0,4.948050022E0,-2.258895111E1,-2.995605087E1,3.784321465E1
1.983887873E0,4.258049965E0,-2.178495026E1,-2.505000114E1,3.346965199E1
1.985851126E0,1.920000076E0,-2.052000046E1,-2.060400009E1,2.914243708E1
1.987813851E0,-8.380500674E-1,-1.940805054E1,-1.654200172E1,2.551494806E1
1.989776704E0,-3.175950050E0,-1.833495140E1,-1.178895092E1,2.202808356E1
1.991740224E0,-4.708950043E0,-1.749195099E1,-8.377950668E0,1.995827190E1
1.993703548E0,-6.013050079E0,-1.687905121E1,-7.075050354E0,1.926435772E1
1.995667078E0,-6.931950092E0,-1.664895058E1,-6.615000248E0,1.920931325E1
1.997630548E0,-7.966950417E0,-1.641900063E1,-6.346950531E0,1.932199942E1
1.999594123E0,-9.117000580E0,-1.618905067E1,-6.691050529E0,1.974779022E1
2.001557682E0,-9.883950233E0,-1.591995049E1,-6.997950554E0,2.000271501E1
2.003521173E0,-9.999000549E0,-1.572900105E1,-7.726050377E0,2.017605859E1
2.005484684E0,-1.011405087E1,-1.538400078E1,-8.416049957E0,2.024330511E1
2.007447911E0,-9.922050476E0,-1.515405083E1,-9.183000565E0,2.030812255E1
2.009411222E0,-9.807000160E0,-1.465605068E1,-1.017900085E1,2.036146194E1
2.011374753E0,-9.462000847E0,-1.404195023E1,-1.125195026E1,2.033008143E1
2.013338220E0,-8.848950386E0,-1.346700096E1,-1.194195080E1,2.005677508E1
2.015301457E0,-7.737000465E0,-1.285395050E1,-1.293900108E1,1.981168768E1
2.017264761E0,-6.549000263E0,-1.231800079E1,-1.370505047E1,1.955635335E1
2.019227979E0,-4.978050232E0,-1.170405102E1,-1.450995064E1,1.929519271E1
2.021191222E0,-2.640000105E0,-1.158900070E1,-1.504695034E1,1.917512066E1
2.023155688E0,-2.629500031E-1,-1.124400043E1,-1.531500053E1,1.900120864E1
2.025119812E0,1.843950033E0,-1.090005016E1,-1.539195061E1,1.895055115E1
2.027083386E0,3.760050297E0,-1.036305046E1,-1.527705097E1,1.883929615E1
2.029047121E0,5.446050167E0,-9.865050316E0,-1.474005032E1,1.855391504E1
2.031010130E0,6.826050282E0,-9.289950371E0,-1.412700081E1,1.823376791E1
2.032973352E0,8.167950630E0,-8.677050591E0,-1.316895103E1,1.776028986E1
2.034936768E0,9.202950478E0,-7.987050533E0,-1.255605030E1,1.749690467E1
2.036900124E0,1.035195065E1,-7.527000427E0,-1.175100040E1,1.737540296E1
2.038863514E0,1.123395061E1,-6.990000248E0,-1.094595051E1,1.717194172E1
2.040826894E0,1.188495064E1,-6.454050541E0,-9.718950272E0,1.665427316E1
2.042790279E0,1.249905014E1,-5.917050362E0,-8.646000862E0,1.630923267E1
2.044753663E0,1.326495075E1,-5.494950294E0,-7.495950222E0,1.619699561E1
2.046716653E0,1.399305058E1,-5.074050426E0,-6.078000069E0,1.607773420E1
2.048679752E0,1.476000023E1,-4.767000198E0,-4.276950359E0,1.608956811E1
2.050643184E0,1.556505108E1,-4.614000320E0,-2.896950245E0,1.649097131E1
2.052606519E0,1.621605110E1,-4.384050369E0,-1.747050047E0,1.688882455E1
2.054569192E0,1.667595100E1,-4.306950092E0,-3.670500219E-1,1.722706843E1
2.056532059E0,1.709805107E1,-4.231050014E0,8.959500194E-1,1.763654901E1
2.058495221E0,1.755795097E1,-4.116000175E0,1.624950051E0,1.810700313E1
2.060458293E0,1.748100090E1,-4.000950336E0,2.545050144E0,1.811271035E1
2.062421687E0,1.725105095E1,-3.808950186E0,3.349050045E0,1.798118452E1
2.064384986E0,1.717500114E1,-3.732000113E0,3.694050074E0,1.795980220E1
2.066348251E0,1.702095032E1,-3.387000084E0,4.116000175E0,1.783608636E1
2.068311526E0,1.682999992E1,-2.926950216E0,4.153950214E0,1.758042199E1
2.070274583E0,1.660004997E1,-2.581950188E0,3.963000298E0,1.726075019E1
2.072237694E0,1.633095169E1,-2.275950193E0,3.273000240E0,1.681048670E1
2.074201079E0,1.594800091E1,-1.930950046E0,2.698050022E0,1.628946822E1
2.076164384E0,1.556505108E1,-1.738950133E0,1.585950017E0,1.574198209E1
2.078128548E0,1.518195057E1,-1.393950105E0,6.280500293E-1,1.525874067E1
2.080092461E0,1.522005081E1,-1.164000034E0,-7.120500207E-1,1.528109479E1
2.082055886E0,1.506705093E1,-9.340500236E-1,-1.939050078E0,1.521999962E1
2.084019458E0,1.495200062E1,-8.190000653E-1,-3.357000113E0,1.534609179E1
2.085982810E0,1.468305111E1,-7.429500222E-1,-4.353000164E0,1.533272888E1
2.087946227E0,1.445295048E1,-8.190000653E-1,-5.427000046E0,1.545997633E1
2.089909471E0,1.414695072E1,-7.039500475E-1,-5.925000191E0,1.535374181E1
2.091872766E0,1.380195045E1,-7.810500264E-1,-5.695050240E0,1.495116961E1
2.093836151E0,1.330395031E1,-7.429500222E-1,-5.235000134E0,1.431615503E1
2.095799519E0,1.253700066E1,-5.890500546E-1,-4.660050392E0,1.338803328E1
2.097762862E0,1.188495064E1,-5.509500504E-1,-3.931950092E0,1.253059572E1
2.099726213E0,1.131105042E1,-5.509500504E-1,-2.859000206E0,1.167978123E1
2.101689828E0,1.069695091E1,-4.360500276E-1,-1.708950043E0,1.084137485E1
2.103653365E0,9.661950111E0,-3.210000098E-1,-6.739500165E-1,9.690744532E0
2.105616364E0,8.282999992E0,-1.680000126E-1,4.750500321E-1,8.298312203E0
2.107579521E0,7.132950306E0,-2.830500007E-1,1.203000069E0,7.239220023E0
2.109543124E0,5.983050346E0,-5.509500504E-1,1.395000100E0,6.168181473E0
2.111506596E0,4.872000217E0,-8.959500194E-1,1.203000069E0,5.097678072E0
2.113470281E0,4.105050087E0,-1.203000069E0,9.349500537E-1,4.378672971E0
2.115433904E0,3.376950264E0,-1.432950020E0,5.130000114E-1,3.704093392E0
2.117398388E0,2.725050211E0,-1.624050021E0,5.295000225E-2,3.172733967E0
2.119362610E0,2.111999989E0,-1.777950048E0,-2.910000086E-1,2.776027977E0
2.121326032E0,1.614000082E0,-2.083950043E0,-9.810000658E-1,2.812508698E0
2.123289689E0,1.230000019E0,-2.275950193E0,-1.671000123E0,3.079787451E0
2.125252621E0,7.320000529E-1,-2.428950071E0,-2.322000027E0,3.439085147E0
2.127215766E0,3.870000243E-1,-2.659050226E0,-2.974050045E0,4.008153040E0
2.129179251E0,1.189500093E-1,-2.889000177E0,-3.625050068E0,4.636966587E0
2.131142625E0,-2.250000089E-1,-3.081000090E0,-4.276950359E0,5.275935077E0
2.133106327E0,-4.170000255E-1,-3.349050045E0,-4.813050270E0,5.878390777E0
2.135069933E0,-6.079500318E-1,-3.463950157E0,-5.197050095E0,6.275179967E0
2.137033326E0,-8.380500674E-1,-3.655950069E0,-5.388000488E0,6.564971294E0
2.138996781E0,-7.620000243E-1,-3.886050224E0,-5.503050327E0,6.779793012E0
2.140960297E0,-7.620000243E-1,-4.116000175E0,-5.464950085E0,6.883878333E0
2.142923788E0,-7.999500632E-1,-4.461000443E0,-5.427000046E0,7.070556877E0
2.144887380E0,-7.620000243E-1,-4.767000198E0,-5.082000256E0,7.009398086E0
2.146850942E0,-7.230000496E-1,-4.843950272E0,-4.545000076E0,6.681587311E0
2.148814478E0,-7.230000496E-1,-5.074050426E0,-3.931950092E0,6.459794759E0
2.150778021E0,-6.850500107E-1,-5.112000465E0,-2.859000206E0,5.897094577E0
2.152741683E0,-6.469500065E-1,-5.419050217E0,-1.671000123E0,5.707616926E0
2.154705317E0,-5.700000525E-1,-5.764050484E0,-3.289500177E-1,5.801498613E0
2.156667984E0,-4.170000255E-1,-6.339000225E0,1.087950110E0,6.445187997E0
2.158630935E0,-1.480500102E-1,-6.913050175E0,2.583000183E0,7.381332635E0
2.160595429E0,3.109500110E-1,-7.335000515E0,4.039050102E0,8.379310723E0
2.162559471E0,6.940500140E-1,-8.025000572E0,5.188950062E0,9.581625246E0
2.164522978E0,1.345050097E0,-8.752950668E0,6.031950474E0,1.071483699E1
2.166486636E0,1.996950150E0,-9.750000000E0,6.376950264E0,1.182014402E1
2.168450289E0,2.878050089E0,-1.074600029E1,6.339000225E0,1.280400790E1
2.170413944E0,3.721950293E0,-1.201095104E1,5.956050396E0,1.391367655E1
2.172377327E0,4.488000393E0,-1.339095020E1,5.725950241E0,1.523962601E1
2.174340790E0,5.140050411E0,-1.496205044E1,5.533950329E0,1.676030065E1
2.176304637E0,6.060000420E0,-1.645695114E1,6.070950508E0,1.855832121E1
2.178268384E0,6.787950516E0,-1.768395042E1,6.799050331E0,2.012524435E1
2.180232113E0,7.324050426E0,-1.879500008E1,6.607050419E0,2.122608908E1
2.182195848E0,7.554000378E0,-1.963800049E1,6.721950531E0,2.208842692E1
2.184159488E0,7.630950451E0,-2.063505173E1,6.646050453E0,2.298274899E1
2.186123156E0,7.593000412E0,-2.155500031E1,5.994000435E0,2.362625096E1
2.188086741E0,7.554000378E0,-2.278095055E1,5.227050304E0,2.456331990E1
2.190050334E0,7.477950573E0,-2.404605103E1,4.729050159E0,2.562218238E1
2.192013638E0,7.477950573E0,-2.538705063E1,4.269000053E0,2.680758187E1
2.193977026E0,7.324050426E0,-2.676705170E1,3.157950163E0,2.793008092E1
2.195941490E0,7.132950306E0,-2.795505142E1,2.085000038E0,2.892595902E1
2.197905639E0,6.366000175E0,-2.933505058E1,1.300500035E-1,3.001812892E1
2.199869299E0,5.523000240E0,-3.079200172E1,-1.249050021E0,3.130832202E1
2.201833103E0,4.833000183E0,-3.251595306E1,-2.014950037E0,3.293486174E1
2.203796551E0,4.297049999E0,-3.443295288E1,-3.931950092E0,3.492210066E1
2.205760103E0,3.376950264E0,-3.646395111E1,-5.925000191E0,3.709621478E1
2.207723504E0,1.996950150E0,-3.814995193E1,-7.036050320E0,3.884472482E1
2.209686949E0,6.550500393E-1,-3.987495041E1,-7.534950256E0,4.058591179E1
2.211649997E0,-1.528050065E0,-4.133205032E1,-7.495950222E0,4.203406465E1
2.213613137E0,-4.518000126E0,-4.202205276E1,-6.078000069E0,4.269903194E1
2.215576517E0,-8.005949974E0,-4.252005386E1,-4.545000076E0,4.350525533E1
2.217539827E0,-1.107195091E1,-4.244295120E1,-3.280050039E0,4.398580376E1
2.219503224E0,-1.383105087E1,-4.202205276E1,-2.206950188E0,4.429471205E1
2.221466596E0,-1.609305000E1,-4.133205032E1,-1.402050018E0,4.437668742E1
2.223429858E0,-1.816200066E1,-4.083300018E1,-9.810000658E-1,4.470072184E1
2.225393146E0,-2.007900047E1,-4.037295151E1,-1.057050109E0,4.510275854E1
2.227356862E0,-2.134395027E1,-4.014300156E1,-9.810000658E-1,4.547512670E1
2.229320452E0,-2.218695068E1,-3.983700180E1,-6.360000372E-1,4.560320152E1
2.231283081E0,-2.214795113E1,-3.976005173E1,1.680000126E-1,4.551287374E1
2.233245992E0,-2.176500130E1,-4.029705048E1,1.624950051E0,4.582802659E1
2.235209642E0,-2.057700157E1,-4.121700287E1,4.078050137E0,4.624807901E1
2.237173072E0,-1.866105080E1,-4.213695145E1,7.219950199E0,4.664638437E1
2.239136495E0,-1.563300037E1,-4.286505127E1,8.869050026E0,4.648078495E1
2.241099920E0,-1.214505100E1,-4.386105347E1,7.909950256E0,4.619373971E1
2.243063477E0,-8.619000435E0,-4.516395187E1,7.029000282E0,4.651318697E1
2.245026995E0,-4.708950043E0,-4.627605057E1,4.308000088E0,4.671408708E1
2.246991934E0,-2.026050091E0,-4.669800186E1,-1.096050024E0,4.675478139E1
2.248956457E0,5.790000558E-1,-4.708095169E1,-5.005050182E0,4.734978121E1
2.250919692E0,3.568050146E0,-4.723395157E1,-7.995000362E0,4.803849699E1
2.252883305E0,4.680000305E0,-4.619895172E1,-9.451050758E0,4.738742347E1
2.254846605E0,5.254950047E0,-4.478100204E1,-1.056300068E1,4.630906636E1
2.256809997E0,5.293050289E0,-4.290300369E1,-1.086900043E1,4.457375099E1
2.258773443E0,5.331000328E0,-4.087200165E1,-1.006395054E1,4.242903703E1
2.260736860E0,5.293050289E0,-3.868695068E1,-8.646000862E0,3.999312273E1
2.262700735E0,4.527000427E0,-3.638700104E1,-7.611000538E0,3.744909754E1
2.264664476E0,3.337950230E0,-3.389595032E1,-6.040050507E0,3.459132217E1
2.266627260E0,9.619500637E-1,-3.136605072E1,-3.817050219E0,3.161209196E1
2.268590324E0,-1.987950087E0,-2.875995064E1,-2.014950037E0,2.889890534E1
2.270554114E0,-4.633050442E0,-2.611605072E1,-1.134000063E0,2.654805488E1
2.272517697E0,-6.357000351E0,-2.381595039E1,2.449500114E-1,2.465098268E1
2.274480733E0,-7.276950359E0,-2.159295082E1,1.471050024E0,2.283360506E1
2.276443930E0,-7.354050159E0,-1.940805054E1,2.736000061E0,2.093418677E1
2.278408022E0,-6.856050491E0,-1.753005028E1,3.694050074E0,1.918212963E1
2.280371851E0,-6.166050434E0,-1.576695061E1,3.963000298E0,1.738741731E1
2.282335696E0,-5.245950222E0,-1.427205086E1,4.039050102E0,1.573293854E1
2.284299539E0,-4.363950253E0,-1.296900082E1,3.733050108E0,1.418360698E1
2.286263386E0,-3.520950079E0,-1.193400097E1,3.771000147E0,1.300145802E1
2.288227231E0,-2.755050182E0,-1.086105061E1,3.847950220E0,1.184733905E1
2.290190763E0,-2.140950203E0,-9.940950394E0,4.000950336E0,1.092766060E1
2.292154387E0,-1.950000048E0,-9.097949982E0,4.308000088E0,1.025349008E1
2.294118220E0,-1.567050099E0,-8.407950401E0,5.151000023E0,9.984091206E0
2.296081995E0,-1.297950029E0,-7.642050266E0,5.841000080E0,9.705817250E0
2.298045853E0,-4.170000255E-1,-6.990000248E0,6.492000103E0,9.548824945E0
2.300009687E0,5.410500169E-1,-6.645000458E0,6.492000103E0,9.305634398E0
2.301974301E0,1.422000051E0,-6.262050152E0,6.186000347E0,8.916386967E0
2.303938687E0,2.074050188E0,-6.031950474E0,5.686950207E0,8.545613691E0
2.305902262E0,2.610000134E0,-5.955000401E0,5.533950329E0,8.538075703E0
2.307866074E0,3.184950113E0,-6.031950474E0,5.457000256E0,8.735398419E0
2.309829925E0,3.952050209E0,-5.994000435E0,5.611050129E0,9.112114223E0
2.311793764E0,4.372950077E0,-6.031950474E0,5.802000046E0,9.443003941E0
2.313757612E0,4.756950378E0,-6.223950386E0,5.802000046E0,9.748299331E0
2.315721457E0,4.603050232E0,-6.300000191E0,5.956050396E0,9.815936540E0
2.317685249E0,4.258049965E0,-6.109050274E0,6.376950264E0,9.803926735E0
2.319649064E0,3.837000132E0,-5.764050484E0,6.760950089E0,9.677669869E0
2.321612555E0,3.147000074E0,-5.149950027E0,7.335000515E0,9.498832945E0
2.323576141E0,2.265000105E0,-4.575000286E0,7.948950291E0,9.447045243E0
2.325538815E0,1.345050097E0,-3.732000113E0,8.140049934E0,9.055241440E0
2.327501756E0,5.020500422E-1,-2.926950216E0,8.370000839E0,8.881216463E0
2.329465387E0,-4.930500090E-1,-1.930950046E0,8.599950790E0,8.827843451E0
2.331428822E0,-1.642950058E0,-8.959500194E-1,8.907000542E0,9.101465266E0
2.333391478E0,-2.830950022E0,2.530499995E-1,9.252000809E0,9.678730872E0
2.335354363E0,-3.790050268E0,1.288050056E0,9.597000122E0,1.039836359E1
2.337318013E0,-4.824000359E0,2.208000183E0,9.673050880E0,1.103241395E1
2.339281438E0,-5.706000328E0,3.127050161E0,1.001805019E1,1.194563569E1
2.341244846E0,-6.586950302E0,4.085999966E0,1.032495022E1,1.291076710E1
2.343208238E0,-7.276950359E0,4.929000378E0,1.055505085E1,1.373528848E1
2.345171981E0,-7.929000378E0,5.772000313E0,1.063200092E1,1.446459395E1
2.347135621E0,-8.542050362E0,6.577050209E0,1.055505085E1,1.508752174E1
2.349099457E0,-9.424050331E0,7.458000183E0,1.024800014E1,1.579417609E1
2.351063236E0,-9.883950233E0,8.110050201E0,1.032495022E1,1.643380612E1
2.353026729E0,-1.018995094E1,8.722949982E0,1.021005058E1,1.685734527E1
2.354990310E0,-1.065000057E1,9.336000443E0,9.942000389E0,1.730395296E1
2.356953841E0,-1.080300045E1,9.910950661E0,1.021005058E1,1.786552251E1
2.358917387E0,-1.080300045E1,1.037100029E1,1.021005058E1,1.812477858E1
2.360880789E0,-1.095705032E1,1.075500011E1,1.013295078E1,1.839575143E1
2.362844233E0,-1.118700027E1,1.121400070E1,9.979950905E0,1.872170417E1
2.364807423E0,-1.103295040E1,1.152105045E1,9.865050316E0,1.875579419E1
2.366770691E0,-1.099500084E1,1.167405033E1,9.750000000E0,1.876795126E1
2.368734410E0,-1.103295040E1,1.198095036E1,9.175050735E0,1.869360110E1
2.370697996E0,-1.118700027E1,1.240305042E1,8.677050591E0,1.882221671E1
2.372661348E0,-1.111005020E1,1.270905018E1,9.136950493E0,1.919471376E1
2.374624768E0,-1.141695023E1,1.270905018E1,9.673050880E0,1.963248895E1
2.376587961E0,-1.141695023E1,1.232595062E1,1.093800068E1,2.004783455E1
2.378551224E0,-1.160805035E1,1.240305042E1,1.193505096E1,2.076121225E1
2.380514673E0,-1.111005020E1,1.205805016E1,1.316100025E1,2.102478815E1
2.382478068E0,-1.091805077E1,1.186605072E1,1.434900093E1,2.158473581E1
2.384441586E0,-1.087995052E1,1.186605072E1,1.515405083E1,2.210931341E1
2.386405068E0,-1.072695065E1,1.148295021E1,1.622700119E1,2.258851884E1
2.388368472E0,-1.018995094E1,1.075500011E1,1.691700172E1,2.248755378E1
2.390331906E0,-9.883950233E0,1.014105034E1,1.668704987E1,2.188586319E1
2.392295057E0,-9.079050064E0,9.490050316E0,1.653404999E1,2.111551596E1
2.394258291E0,-8.580000877E0,9.030000687E0,1.584405041E1,2.015418718E1
2.396221566E0,-8.274000168E0,8.569950104E0,1.496295071E1,1.912571613E1
2.398184828E0,-7.813950539E0,8.187000275E0,1.346805096E1,1.759185019E1
2.400148200E0,-7.354050159E0,7.842000484E0,1.204995060E1,1.614869452E1
2.402111563E0,-6.741000175E0,7.687950134E0,1.070805073E1,1.480567496E1
2.404075087E0,-6.396000385E0,7.573050499E0,9.175050735E0,1.350708965E1
2.406038563E0,-6.127950191E0,7.534950256E0,7.948950291E0,1.255042070E1
2.408002292E0,-5.743950367E0,7.458000183E0,6.454050541E0,1.141356653E1
2.409965947E0,-5.553000450E0,7.534950256E0,5.151000023E0,1.068382378E1
2.411929448E0,-5.476050377E0,7.650000572E0,4.039050102E0,1.023833786E1
2.413893007E0,-5.629050255E0,7.765050411E0,3.234000206E0,1.012131276E1
2.415856407E0,-5.821050167E0,7.534950256E0,2.353049994E0,9.808004113E0
2.417819854E0,-5.974050522E0,7.305000305E0,1.855050087E0,9.617355142E0
2.419783587E0,-6.166050434E0,6.807000160E0,1.893000126E0,9.377573173E0
2.421747236E0,-6.088950157E0,6.193950176E0,1.701000094E0,8.850634673E0
2.423710712E0,-5.859000206E0,5.311950207E0,1.432950020E0,8.037290848E0
2.425674238E0,-5.590950489E0,4.239000320E0,1.279950023E0,7.132049015E0
2.427637958E0,-5.092950344E0,3.433950186E0,7.429500222E-1,6.187255597E0
2.429601621E0,-4.479000092E0,2.590950012E0,3.600000143E-1,5.186912742E0
2.431565724E0,-4.134000301E0,1.594050050E0,-1.759500057E-1,4.434175510E0
2.433529698E0,-3.751050234E0,7.510500550E-1,-5.590500236E-1,3.866133853E0
2.435494049E0,-3.330000162E0,2.295000106E-2,-1.287000060E0,3.570125619E0
2.437458299E0,-2.830950022E0,-5.890500546E-1,-1.861950040E0,3.439202806E0
2.439421536E0,-2.448000193E0,-1.318050027E0,-2.284050226E0,3.598172627E0
2.441385070E0,-1.950000048E0,-2.046000004E0,-2.935050249E0,4.074694610E0
2.443348429E0,-1.489950061E0,-2.544000149E0,-3.394950151E0,4.496395720E0
2.445311840E0,-1.106999993E0,-2.965950251E0,-4.237950325E0,5.289851872E0
2.447275174E0,-7.620000243E-1,-3.387000084E0,-5.158050060E0,6.217547268E0
2.449238531E0,-5.320500135E-1,-3.694050074E0,-6.232050419E0,7.264126622E0
2.451201919E0,-2.629500031E-1,-4.039050102E0,-7.495950222E0,8.518939967E0
2.453165298E0,-7.200000435E-2,-4.498950005E0,-8.875950813E0,9.951293282E0
2.455128909E0,-3.299999982E-2,-4.996950150E0,-1.044795036E1,1.158146220E1
2.457092452E0,-1.099500060E-1,-5.878950119E0,-1.236405087E1,1.369101520E1
2.459056320E0,-3.019500077E-1,-6.760050297E0,-1.435695076E1,1.587171979E1
2.461020082E0,-2.250000089E-1,-7.756950378E0,-1.596705055E1,1.775296053E1
2.462983628E0,-1.099500060E-1,-8.791950226E0,-1.723200035E1,1.934560193E1
2.464947238E0,-7.200000435E-2,-9.826050758E0,-1.788300133E1,2.040485712E1
2.466910719E0,1.189500093E-1,-1.074600029E1,-1.795995140E1,2.092965661E1
2.468874238E0,1.189500093E-1,-1.166595078E1,-1.742295074E1,2.096825623E1
2.470837798E0,4.200000316E-2,-1.243305016E1,-1.688700104E1,2.097029576E1
2.472801332E0,1.189500093E-1,-1.308405018E1,-1.623495102E1,2.085138251E1
2.474765052E0,1.189500093E-1,-1.365900040E1,-1.523895073E1,2.046480052E1
2.476728717E0,1.570500135E-1,-1.411905098E1,-1.420395088E1,2.002809242E1
2.478692235E0,3.109500110E-1,-1.431105042E1,-1.324500084E1,1.950212555E1
2.480655796E0,4.260000288E-1,-1.454100037E1,-1.201905060E1,1.887007538E1
2.482620451E0,6.169500351E-1,-1.465605068E1,-1.094595051E1,1.830284900E1
2.484584789E0,8.850000501E-1,-1.465605068E1,-9.796050072E0,1.765065562E1
2.486548552E0,1.114950061E0,-1.465605068E1,-8.875950813E0,1.717048159E1
2.488512483E0,1.230000019E0,-1.438695049E1,-7.726050377E0,1.637648005E1
2.490476314E0,1.269000053E0,-1.415700054E1,-6.730050087E0,1.572655715E1
2.492440175E0,1.269000053E0,-1.381200027E1,-6.001950264E0,1.511307777E1
2.494403834E0,1.306950092E0,-1.339095020E1,-5.235000134E0,1.443713588E1
2.496367555E0,1.345050097E0,-1.289295101E1,-4.582950115E0,1.374921006E1
2.498331062E0,1.384050012E0,-1.227900028E1,-4.047000408E0,1.300260184E1
2.500294632E0,1.498950124E0,-1.158900070E1,-3.319050074E0,1.214775214E1
2.502258165E0,1.729050040E0,-1.082295036E1,-2.437050104E0,1.122787076E1
2.504221709E0,1.882050037E0,-9.826050758E0,-1.210950017E0,1.007768752E1
2.506184286E0,2.074050188E0,-8.868000031E0,3.979500234E-1,9.116000929E0
2.508147156E0,2.227050066E0,-7.948050499E0,2.046000004E0,8.503962297E0
2.510110628E0,2.419050217E0,-6.913050175E0,3.886050224E0,8.291167168E0
2.512073924E0,2.725050211E0,-5.878950119E0,5.764050484E0,8.672498552E0
2.514037549E0,3.184950113E0,-4.767000198E0,7.872000217E0,9.738407752E0
2.516001078E0,3.682950258E0,-3.694050074E0,9.979950905E0,1.126097459E1
2.517964453E0,4.027950287E0,-2.773950100E0,1.193505096E1,1.289824113E1
2.519927863E0,4.027950287E0,-1.930950046E0,1.354500103E1,1.426253850E1
2.521891198E0,3.913050175E0,-1.318050027E0,1.442595100E1,1.500524175E1
2.523854555E0,3.760050297E0,-7.810500264E-1,1.477095032E1,1.526201136E1
2.525818304E0,3.645000219E0,-4.740000367E-1,1.419600105E1,1.466414500E1
2.527781938E0,3.492000103E0,-4.360500276E-1,1.312305069E1,1.358670908E1
2.529745506E0,3.376950264E0,-5.890500546E-1,1.178100014E1,1.226958586E1
2.531709094E0,2.917050123E0,-6.280500293E-1,1.055505085E1,1.096871582E1
2.533672758E0,2.610000134E0,-9.340500236E-1,9.558000565E0,9.951880472E0
2.535636399E0,2.380050182E0,-1.509000063E0,8.485050201E0,8.940793979E0
2.537600146E0,2.111999989E0,-2.351999998E0,7.297050476E0,7.952320013E0
2.539563861E0,1.729050040E0,-3.387000084E0,6.186000347E0,7.261403714E0
2.541526799E0,8.470500112E-1,-4.996950150E0,5.266050339E0,7.308781751E0
2.543489954E0,-5.320500135E-1,-6.913050175E0,5.764050484E0,9.016519168E0
2.545453377E0,-1.681950092E0,-8.715000153E0,8.064000130E0,1.199200908E1
2.547416721E0,-2.985000134E0,-1.055505085E1,1.024800014E1,1.501135674E1
2.549379978E0,-5.016000271E0,-1.293105030E1,1.162800026E1,1.809924613E1
2.551343261E0,-7.776000500E0,-1.576695061E1,1.247100067E1,2.155432145E1
2.553306797E0,-1.130205059E1,-1.898700142E1,1.346805096E1,2.587722874E1
2.555270259E0,-1.459800053E1,-2.025105095E1,9.405000687E0,2.667696988E1
2.557233856E0,-1.866105080E1,-2.205300140E1,6.646050453E0,2.964354355E1
2.559197413E0,-2.368200111E1,-2.584695053E1,4.996950150E0,3.541004856E1
2.561162210E0,-3.092505074E1,-3.236295319E1,-8.569950104E0,4.557590972E1
2.563126644E0,-3.410700226E1,-3.657900238E1,-8.110050201E0,5.066639846E1
2.565090386E0,-3.571605301E1,-3.834195328E1,-4.162050247E0,5.256485980E1
2.567054334E0,-3.652095032E1,-3.899400330E1,-2.475000143E0,5.348306022E1
2.569017937E0,-3.613800049E1,-3.926205063E1,-1.249050021E0,5.337624776E1
2.570981642E0,-3.379995346E1,-3.903195190E1,-1.171950102E0,5.164594457E1
2.572945152E0,-2.858700180E1,-3.715395355E1,-1.171950102E0,4.689356463E1
2.574908719E0,-2.257005119E1,-3.393405151E1,-2.743950129E0,4.084674192E1
2.576872456E0,-1.743405151E1,-3.013995171E1,-5.235000134E0,3.521034035E1
2.578836126E0,-1.344795036E1,-2.684400177E1,-5.925000191E0,3.060316041E1
2.580799147E0,-9.730050087E0,-2.435295105E1,-5.197050095E0,2.673479810E1
2.582762358E0,-6.741000175E0,-2.255100060E1,-5.809950352E0,2.424343693E1
2.584725772E0,-4.402950287E0,-2.090295029E1,-6.730050087E0,2.239671574E1
2.586689126E0,-2.677950144E0,-1.902495003E1,-7.266000271E0,2.054056719E1
2.588652321E0,-1.873050094E0,-1.668704987E1,-7.495950222E0,1.838899724E1
2.590615574E0,-1.489950061E0,-1.477095032E1,-7.150950432E0,1.647838028E1
2.592578756E0,-1.336950064E0,-1.316100025E1,-6.460950375E0,1.472220238E1
2.594541959E0,-1.375050068E0,-1.170405102E1,-5.695050240E0,1.308851291E1
2.596505238E0,-1.452000022E0,-1.055505085E1,-4.852050304E0,1.170725393E1
2.598468495E0,-1.720050097E0,-9.481050491E0,-3.664050102E0,1.030893563E1
2.600432042E0,-2.218050003E0,-8.485050201E0,-2.820000172E0,9.212395112E0
2.602395500E0,-2.640000105E0,-7.488000393E0,-2.130000114E0,8.220501866E0
2.604358874E0,-2.830950022E0,-6.684000492E0,-1.287000060E0,7.372008529E0
2.606322272E0,-3.022950172E0,-6.070050240E0,-2.910000086E-1,6.787372000E0
2.608284753E0,-3.061050177E0,-5.572050095E0,7.050000429E-1,6.396467424E0
2.610247502E0,-2.830950022E0,-5.188950062E0,1.740000129E0,6.161743359E0
2.612210879E0,-2.524950027E0,-4.767000198E0,3.234000206E0,6.289548542E0
2.614174058E0,-2.065050125E0,-4.345950127E0,4.843950272E0,6.827559502E0
2.616137613E0,-1.720050097E0,-3.771000147E0,5.841000080E0,7.162143281E0
2.618101058E0,-1.336950064E0,-3.196050167E0,6.262050152E0,7.156496646E0
2.620064973E0,-7.999500632E-1,-2.659050226E0,6.415950298E0,6.991057605E0
2.622028750E0,-3.400500119E-1,-2.314050198E0,6.799050331E0,7.190100676E0
2.623992618E0,1.960500032E-1,-2.199000120E0,7.756950378E0,8.065005661E0
2.625956452E0,2.340000123E-1,-2.083950043E0,8.907000542E0,9.150533451E0
2.627919806E0,-2.250000089E-1,-1.969050050E0,9.750000000E0,9.949386067E0
2.629883301E0,-4.170000255E-1,-2.238000154E0,9.979950905E0,1.023630567E1
2.631846846E0,-4.930500090E-1,-2.736000061E0,1.017195034E1,1.054501628E1
2.633810376E0,-9.150000215E-1,-3.310950041E0,1.124505043E1,1.175800895E1
2.635774226E0,-1.452000022E0,-4.039050102E0,1.300800037E1,1.369782112E1
2.637737986E0,-2.218050003E0,-4.651950359E0,1.523100090E1,1.607929651E1
2.639701488E0,-2.985000134E0,-5.380050182E0,1.760700035E1,1.865104895E1
2.641665065E0,-4.018949986E0,-6.031950474E0,2.002200127E1,2.129358871E1
2.643628642E0,-5.092950344E0,-6.990000248E0,2.212995148E1,2.375990318E1
2.645592219E0,-6.166050434E0,-8.293050766E0,2.385495186E1,2.599718441E1
2.647555877E0,-6.625950336E0,-1.021005058E1,2.500395203E1,2.780909865E1
2.649519548E0,-6.088950157E0,-1.346700096E1,2.626905060E1,3.014130800E1
2.651483244E0,-3.981000185E0,-1.845000076E1,2.703600121E1,3.297265916E1
2.653446933E0,-2.677950144E0,-2.258895111E1,2.814705086E1,3.618962008E1
2.655410447E0,-1.950000048E0,-2.596200180E1,2.925900078E1,3.916525455E1
2.657374012E0,-1.260000110E0,-2.860695076E1,2.987205124E1,4.137976169E1
2.659338367E0,-3.780000210E-1,-3.067695236E1,2.929695129E1,4.242086333E1
2.661302514E0,6.169500351E-1,-3.259305191E1,2.833905220E1,4.319478603E1
2.663266490E0,1.651950121E0,-3.416400146E1,2.787900162E1,4.412648486E1
2.665230516E0,2.878050089E0,-3.550605011E1,2.715105057E1,4.478998006E1
2.667194016E0,3.952050209E0,-3.665595245E1,2.642295074E1,4.535912121E1
2.669157670E0,4.680000305E0,-3.746100235E1,2.565600204E1,4.564492897E1
2.671121508E0,5.101050377E0,-3.788205338E1,2.488905144E1,4.561288814E1
2.673085289E0,5.407950401E0,-3.807405090E1,2.377800179E1,4.521363344E1
2.675049191E0,5.715000153E0,-3.792000198E1,2.262795067E1,4.452653062E1
2.677013058E0,5.905950069E0,-3.757605362E1,2.128695107E1,4.358869507E1
2.678976856E0,5.868000507E0,-3.749895096E1,1.967700005E1,4.275265002E1
2.680940675E0,5.715000153E0,-3.761400223E1,1.795200157E1,4.206838184E1
2.682904356E0,5.715000153E0,-3.772905350E1,1.634205055E1,4.151150829E1
2.684868070E0,5.983050346E0,-3.803505325E1,1.427295113E1,4.106311363E1
2.686831578E0,7.056000233E0,-3.838005066E1,1.135995007E1,4.064312849E1
2.688795147E0,8.896050453E0,-3.876405334E1,5.496000290E0,4.014968947E1
2.690759806E0,1.104195023E1,-3.907005310E1,-5.809950352E0,4.101401269E1
2.692724145E0,1.384005070E1,-3.937695312E1,-2.367105103E1,4.798343566E1
2.694687857E0,1.717500114E1,-3.903195190E1,-4.632195282E1,6.296187137E1
2.696651757E0,1.909095001E1,-3.734595108E1,-6.958695221E1,8.124978986E1
2.698615414E0,1.660004997E1,-3.324495316E1,-7.775100708E1,8.617428660E1
2.700579142E0,1.226895046E1,-2.968005180E1,-7.249995422E1,7.929486732E1
2.702542648E0,8.206049919E0,-2.653695107E1,-6.602295685E1,7.162806613E1
2.704506219E0,5.446050167E0,-2.435295105E1,-6.050295258E1,6.544717685E1
2.706469782E0,3.529950142E0,-2.297295189E1,-5.394900131E1,5.874275963E1
2.708433357E0,2.686950207E0,-2.197605133E1,-4.739505386E1,5.231116195E1
2.710397024E0,2.610000134E0,-2.151600075E1,-4.103295135E1,4.640531743E1
2.712360664E0,2.419050217E0,-2.109495163E1,-3.509205246E1,4.101586198E1
2.714324231E0,1.767000079E0,-2.059605026E1,-2.968800163E1,3.617591763E1
2.716287820E0,1.153950095E0,-1.967700005E1,-2.443695068E1,3.139554889E1
2.718250759E0,4.639500082E-1,-1.875705147E1,-1.884105110E1,2.658998751E1
2.720213892E0,-1.222050071E0,-1.779900169E1,-1.408905029E1,2.273321811E1
2.722177544E0,-3.330000162E0,-1.672500038E1,-1.048605061E1,2.001928561E1
2.724141044E0,-4.479000092E0,-1.638000107E1,-7.113000393E0,1.841088405E1
2.726105085E0,-5.782950401E0,-1.572900105E1,-4.927950382E0,1.746793303E1
2.728068967E0,-6.778950214E0,-1.500105095E1,-3.472050190E0,1.682381729E1
2.730032639E0,-8.044050217E0,-1.423395061E1,-2.169000149E0,1.649292744E1
2.731996397E0,-8.542050362E0,-1.362105083E1,-1.441050053E0,1.614237515E1
2.733959898E0,-8.964000702E0,-1.270095062E1,-1.594050050E0,1.562717028E1
2.735923474E0,-9.079050064E0,-1.212600040E1,-1.708950043E0,1.524432833E1
2.737887140E0,-9.079050064E0,-1.155105019E1,-2.437050104E0,1.489278764E1
2.739850779E0,-8.619000435E0,-1.101495075E1,-3.280050039E0,1.436575918E1
2.741814291E0,-7.699050426E0,-1.044000053E1,-4.468050003E0,1.371978351E1
2.743777848E0,-6.241950512E0,-9.865050316E0,-5.962950230E0,1.310869709E1
2.745741427E0,-4.210950375E0,-9.481050491E0,-7.803000450E0,1.298111080E1
2.747705000E0,-2.179949999E0,-9.136050224E0,-9.834000587E0,1.359879271E1
2.749669389E0,-1.870500147E-1,-8.907000542E0,-1.117605019E1,1.429243661E1
2.751633539E0,1.729050040E0,-8.562000275E0,-1.255605030E1,1.529548502E1
2.753596819E0,3.568050146E0,-8.407950401E0,-1.336005020E1,1.618380528E1
2.755560368E0,5.178000450E0,-8.254950523E0,-1.393500042E1,1.700412107E1
2.757523724E0,6.787950516E0,-7.909950256E0,-1.420395088E1,1.761805341E1
2.759487137E0,8.167950630E0,-7.756950378E0,-1.428000069E1,1.818802123E1
2.761450517E0,9.471000671E0,-7.795050144E0,-1.416495037E1,1.873788887E1
2.763413906E0,1.062105083E1,-7.642050266E0,-1.374405098E1,1.897647466E1
2.765377245E0,1.161705017E1,-7.450050354E0,-1.332195091E1,1.918159225E1
2.767340599E0,1.249905014E1,-7.411950588E0,-1.255605030E1,1.920462614E1
2.769303853E0,1.326495075E1,-7.527000427E0,-1.132905006E1,1.899900074E1
2.771267137E0,1.395495033E1,-7.564950466E0,-1.021800041E1,1.887794074E1
2.773230718E0,1.456800079E1,-7.642050266E0,-8.838000298E0,1.867452352E1
2.775194212E0,1.502805042E1,-7.603050232E0,-7.726050377E0,1.852945026E1
2.777157792E0,1.541205120E1,-7.488000393E0,-6.270000458E0,1.824594141E1
2.779121323E0,1.591005039E1,-7.297050476E0,-4.890000343E0,1.817384804E1
2.781084863E0,1.625505066E1,-7.335000515E0,-3.510000229E0,1.817550566E1
2.783048400E0,1.652295113E1,-7.297050476E0,-2.475000143E0,1.823130509E1
2.785011759E0,1.648500061E1,-7.258050442E0,-1.747050047E0,1.809659430E1
2.786975171E0,1.621605110E1,-7.066950321E0,-9.040500522E-1,1.771212598E1
2.788937785E0,1.575705051E1,-6.760050297E0,5.295000225E-2,1.714601192E1
2.790900633E0,1.537305069E1,-6.184950352E0,8.200500607E-1,1.659086437E1
2.792864469E0,1.487505054E1,-5.610000134E0,1.701000094E0,1.598851561E1
2.794828015E0,1.445295048E1,-5.074050426E0,2.085000038E0,1.545901001E1
2.796791553E0,1.403205109E1,-4.498950005E0,2.545050144E0,1.495380517E1
2.798755094E0,1.384005070E1,-4.000950336E0,2.314950228E0,1.459155925E1
2.800718700E0,1.341900063E1,-3.616950274E0,2.238000154E0,1.407695108E1
2.802682270E0,1.315005016E1,-3.271950245E0,1.893000126E0,1.368257750E1
2.804645938E0,1.322700024E1,-2.889000177E0,1.432950020E0,1.361444832E1
2.806609578E0,1.341900063E1,-2.697000027E0,8.959500194E-1,1.371663637E1
2.808572965E0,1.360995102E1,-2.428950071E0,1.087950110E0,1.386773956E1
2.810536426E0,1.384005070E1,-2.314050198E0,9.730500579E-1,1.406586855E1
2.812499936E0,1.422300053E1,-2.083950043E0,9.349500537E-1,1.440523250E1
2.814463428E0,1.418505096E1,-1.854000092E0,1.356000066E0,1.436981988E1
2.816427921E0,1.426200104E1,-1.663050056E0,4.750500321E-1,1.436649163E1
2.818392120E0,1.441500092E1,-1.585950017E0,-1.018950105E0,1.453773532E1
2.820355501E0,1.426200104E1,-1.432950020E0,-2.514000177E0,1.455260170E1
2.822319122E0,1.407000065E1,-1.356000066E0,-3.855000257E0,1.465143957E1
2.824282351E0,1.376400089E1,-1.279050112E0,-4.545000076E0,1.455131319E1
2.826245681E0,1.318905067E1,-1.048950076E0,-4.200000286E0,1.388133122E1
2.828209074E0,1.269000053E1,-7.039500475E-1,-3.664050102E0,1.322712827E1
2.830172448E0,1.238400078E1,-7.039500475E-1,-3.280050039E0,1.283034486E1
2.832136015E0,1.207695103E1,-7.429500222E-1,-3.088950157E0,1.248784745E1
2.834099525E0,1.173195076E1,-8.190000653E-1,-2.974050045E0,1.213072147E1
2.836062892E0,1.134900093E1,-9.730500579E-1,-2.820000172E0,1.173452383E1
2.838026267E0,1.073595047E1,-8.959500194E-1,-2.896950245E0,1.115597058E1
2.839989832E0,9.624000549E0,-9.730500579E-1,-3.165000200E0,1.017769322E1
2.841953342E0,8.128950119E0,-1.126049995E0,-3.357000113E0,8.866637941E0
2.843917111E0,6.787950516E0,-1.471050024E0,-3.433950186E0,7.748049707E0
2.845880804E0,5.676000118E0,-1.777950048E0,-3.433950186E0,6.868049039E0
2.847844540E0,4.564949989E0,-2.008050203E0,-3.433950186E0,6.055001891E0
2.849808233E0,3.682950258E0,-2.314050198E0,-3.280050039E0,5.447722385E0
2.851772060E0,2.955000162E0,-2.544000149E0,-3.127050161E0,4.998240233E0
2.853735847E0,2.304000139E0,-2.773950100E0,-3.049950123E0,4.722860526E0
2.855699028E0,1.651950121E0,-3.081000090E0,-3.088950157E0,4.665095265E0
2.857662387E0,1.192050099E0,-3.463950157E0,-3.012000084E0,4.742581432E0
2.859625055E0,7.320000529E-1,-3.808950186E0,-2.782050133E0,4.773230409E0
2.861587926E0,3.870000243E-1,-4.269000053E0,-2.820000172E0,5.130938651E0
2.863551398E0,1.960500032E-1,-4.651950359E0,-2.629050016E0,5.347053557E0
2.865514693E0,-1.480500102E-1,-4.996950150E0,-2.743950129E0,5.702691637E0
2.867478228E0,-7.620000243E-1,-5.149950027E0,-3.012000084E0,6.014546851E0
2.869441693E0,-1.336950064E0,-5.341950417E0,-3.204000235E0,6.370987932E0
2.871405065E0,-1.605000019E0,-5.649000168E0,-3.127050161E0,6.653245123E0
2.873368464E0,-1.950000048E0,-5.878950119E0,-3.088950157E0,6.921428159E0
2.875331890E0,-2.218050003E0,-6.184950352E0,-2.782050133E0,7.135345795E0
2.877295308E0,-2.256000042E0,-6.568950176E0,-2.437050104E0,7.360696694E0
2.879259003E0,-2.179949999E0,-6.990000248E0,-1.900950074E0,7.564780013E0
2.881222616E0,-1.911000133E0,-7.564950466E0,-1.210950017E0,7.895998797E0
2.883185254E0,-1.413000107E0,-8.101950645E0,-3.670500219E-1,8.232429731E0
2.885148169E0,-9.919500351E-1,-8.752950668E0,5.130000114E-1,8.823903857E0
2.887111813E0,-5.700000525E-1,-9.442950249E0,1.203000069E0,9.536321021E0
2.889075244E0,-7.200000435E-2,-1.017105007E1,1.585950017E0,1.029420619E1
2.891039882E0,1.960500032E-1,-1.086105061E1,1.432950020E0,1.095692483E1
2.893004167E0,6.940500140E-1,-1.170405102E1,1.165050030E0,1.178235364E1
2.894968360E0,1.114950061E0,-1.247100067E1,3.600000143E-1,1.252591599E1
2.896932569E0,1.192050099E0,-1.327605057E1,-2.205000073E-2,1.332947817E1
2.898895046E0,1.230000019E0,-1.431105042E1,1.680000126E-1,1.436479335E1
2.900858031E0,1.345050097E0,-1.565205097E1,1.395000100E0,1.577155302E1
2.902821528E0,1.498950124E0,-1.722405052E1,2.773950100E0,1.751027033E1
2.904784875E0,1.651950121E0,-1.867995071E1,4.690950394E0,1.933066252E1
2.906748812E0,1.767000079E0,-2.017500114E1,6.454050541E0,2.125576931E1
2.908712572E0,2.227050066E0,-2.167005157E1,7.719000340E0,2.311133604E1
2.910676209E0,2.533950090E0,-2.324100113E1,8.254950523E0,2.479333065E1
2.912639882E0,2.725050211E0,-2.462100029E1,7.219950199E0,2.580207811E1
2.914603757E0,2.533950090E0,-2.573205185E1,4.768050194E0,2.629246466E1
2.916567572E0,2.419050217E0,-2.695905113E1,2.659050226E0,2.719766148E1
2.918530183E0,1.537050128E0,-2.822400093E1,2.046000004E0,2.833977536E1
2.920493133E0,1.189500093E-1,-2.975700188E1,1.663050056E0,2.980367503E1
2.922456816E0,-1.068000078E0,-3.140505219E1,1.395000100E0,3.145415636E1
2.924420284E0,-1.720050097E0,-3.362805176E1,1.510050058E0,3.370585540E1
2.926384691E0,-1.567050099E0,-3.619605255E1,1.300500035E-1,3.623019154E1
2.928348823E0,-1.528050065E0,-3.883995056E1,-4.060500264E-1,3.887211820E1
2.930311179E0,-1.834950089E0,-4.148505020E1,2.070000172E-1,4.152612769E1
2.932274056E0,-2.026050091E0,-4.413000107E1,1.165050030E0,4.419184557E1
2.934237752E0,-1.911000133E0,-4.612305069E1,1.240950108E0,4.617929930E1
2.936201208E0,-1.758000135E0,-4.719600296E1,5.509500504E-1,4.723194688E1
2.938165301E0,-1.681950092E0,-4.761705399E1,-4.060500264E-1,4.764848018E1
2.940129208E0,-1.642950058E0,-4.754100037E1,-1.210950017E0,4.758479170E1
2.942092838E0,-1.795950055E0,-4.746405411E1,-1.287000060E0,4.751545262E1
2.944056536E0,-1.106999993E0,-4.777095413E1,-6.739500165E-1,4.778853122E1
2.946020227E0,-2.250000089E-1,-4.800105286E1,-3.670500219E-1,4.800298351E1
2.947983921E0,3.490500152E-1,-4.792395401E1,-7.890000343E-1,4.793171940E1
2.949948153E0,1.459950089E0,-4.792395401E1,-8.659500480E-1,4.795400600E1
2.951912227E0,2.074050188E0,-4.796205139E1,-1.210950017E0,4.802214549E1
2.953875655E0,3.529950142E0,-4.849905396E1,-2.551950216E0,4.869426283E1
2.955839286E0,3.990000248E0,-4.903605270E1,-4.736999989E0,4.942563844E1
2.957802629E0,3.913050175E0,-4.899705124E1,-7.458000183E0,4.971563897E1
2.959766056E0,3.760050297E0,-4.861395264E1,-9.796050072E0,4.973345922E1
2.961729973E0,2.992950201E0,-4.765605164E1,-1.025595093E1,4.883893465E1
2.963693746E0,1.575000048E0,-4.646805191E1,-1.021800041E1,4.760428558E1
2.965656870E0,3.870000243E-1,-4.566300201E1,-9.757950783E0,4.669557929E1
2.967620195E0,-1.222050071E0,-4.470405197E1,-8.838000298E0,4.558569862E1
2.969583994E0,-2.793000221E0,-4.340100098E1,-7.189950466E0,4.408109712E1
2.971547654E0,-4.747950077E0,-4.140795135E1,-5.388000488E0,4.202608731E1
2.973511352E0,-6.970950127E0,-3.903195190E1,-3.931950092E0,3.984404155E1
2.975475039E0,-8.580000877E0,-3.642600250E1,-2.704950094E0,3.752048545E1
2.977438508E0,-9.730050087E0,-3.385800171E1,-1.516950130E0,3.526101661E1
2.979402041E0,-1.057395077E1,-3.129000092E1,1.300500035E-1,3.302861646E1
2.981364859E0,-1.072695065E1,-2.864505196E1,1.510050058E0,3.062493629E1
2.983327887E0,-1.015200043E1,-2.638395119E1,2.812950134E0,2.840930625E1
2.985291737E0,-9.385050774E0,-2.427600098E1,3.694050074E0,2.628781861E1
2.987255346E0,-8.350950241E0,-2.255100060E1,4.039050102E0,2.438441969E1
2.989219015E0,-7.047000408E0,-2.090295029E1,4.116000175E0,2.243958562E1
2.991182693E0,-5.706000328E0,-1.933200073E1,4.078050137E0,2.056490177E1
2.993146523E0,-4.326000214E0,-1.787505150E1,4.308000088E0,1.888890173E1
2.995110309E0,-3.406050205E0,-1.630395126E1,4.576050282E0,1.727310745E1
2.997073986E0,-2.485950232E0,-1.500105095E1,4.690950394E0,1.591277769E1
2.999037695E0,-1.297950029E0,-1.377405071E1,4.653000355E0,1.459655986E1
3.001002251E0,-3.019500077E-1,-1.250895023E1,4.269000053E0,1.322079314E1
3.002966582E0,8.850000501E-1,-1.185795021E1,4.921050072E0,1.286899149E1
3.004930211E0,2.265000105E0,-1.170405102E1,5.380950451E0,1.307936021E1
3.006894046E0,3.262050152E0,-1.116795063E1,5.725950241E0,1.296728956E1
3.008857849E0,3.990000248E0,-1.024800014E1,5.994000435E0,1.252476148E1
3.010821661E0,4.450050354E0,-9.442950249E0,5.764050484E0,1.192461888E1
3.012785164E0,4.564949989E0,-8.791950226E0,5.649000168E0,1.140387478E1
3.014748781E0,4.909950256E0,-8.370000839E0,4.996950150E0,1.091485393E1
3.016712306E0,4.527000427E0,-7.450050354E0,3.808950186E0,9.513416035E0
3.018675858E0,3.990000248E0,-6.454050541E0,4.384050369E0,8.763262406E0
3.020639394E0,5.523000240E0,-7.182000160E0,6.223950386E0,1.099191596E1
3.022602935E0,5.905950069E0,-6.684000492E0,6.147000313E0,1.083243840E1
3.024566778E0,5.868000507E0,-5.533950329E0,5.917050362E0,1.000347545E1
3.026530539E0,5.983050346E0,-4.729050159E0,5.533950329E0,9.422601185E0
3.028493861E0,6.021000385E0,-4.116000175E0,5.304000378E0,9.018110838E0
3.030457311E0,6.060000420E0,-3.694050074E0,5.341950417E0,8.882907479E0
3.032420908E0,5.868000507E0,-3.196050167E0,5.419050217E0,8.603154763E0
3.034384462E0,5.715000153E0,-2.736000061E0,5.457000256E0,8.362163289E0
3.036348104E0,5.676000118E0,-2.391000032E0,5.533950329E0,8.280003909E0
3.038311741E0,5.215950012E0,-1.777950048E0,5.841000080E0,8.030225578E0
3.040275083E0,4.642050266E0,-1.164000034E0,6.070950508E0,7.730457090E0
3.042238512E0,3.721950293E0,-2.830500007E-1,6.031950474E0,7.093479950E0
3.044201529E0,3.070050240E0,8.280000687E-1,6.837000370E0,7.540249774E0
3.046164666E0,2.074050188E0,1.900950074E0,7.219950199E0,7.748740301E0
3.048127417E0,1.077000022E0,2.935950041E0,7.680000305E0,8.292293795E0
3.050090282E0,-5.320500135E-1,4.009050369E0,8.025000572E0,8.986445141E0
3.052054070E0,-2.065050125E0,5.005050182E0,8.562000275E0,1.013029161E1
3.054017587E0,-3.559950113E0,6.079050064E0,8.791950226E0,1.126616542E1
3.055980950E0,-5.131050110E0,7.075050354E0,9.098999977E0,1.261648974E1
3.057944359E0,-6.931950092E0,8.148000717E0,9.060000420E0,1.401875370E1
3.059907898E0,-8.236050606E0,8.800050735E0,9.367050171E0,1.526483054E1
3.061871413E0,-9.577050209E0,9.565950394E0,9.826950073E0,1.672711109E1
3.063834641E0,-1.072695065E1,1.014105034E1,1.001805019E1,1.784011496E1
3.065797954E0,-1.153200054E1,1.056300068E1,1.028700066E1,1.871861112E1
3.067761485E0,-1.252800083E1,1.098495007E1,1.005705070E1,1.946186532E1
3.069724952E0,-1.275795078E1,1.067805004E1,1.005705070E1,1.944043029E1
3.071688179E0,-1.268205070E1,1.014105034E1,9.903000832E0,1.901958826E1
3.073651483E0,-1.245195103E1,9.757950783E0,9.481950760E0,1.844386288E1
3.075615061E0,-1.237500095E1,9.604950905E0,9.214050293E0,1.817400488E1
3.077578558E0,-1.249005032E1,9.565950394E0,8.830050468E0,1.804102423E1
3.079542284E0,-1.268205070E1,9.565950394E0,8.715000153E0,1.811885881E1
3.081505943E0,-1.287300014E1,9.604950905E0,8.254950523E0,1.805861076E1
3.083469601E0,-1.310295105E1,9.873000145E0,7.756950378E0,1.814755458E1
3.085433257E0,-1.329495049E1,1.002600002E1,7.603950500E0,1.830563979E1
3.087396954E0,-1.318005085E1,1.025595093E1,6.837000370E0,1.804557685E1
3.089360639E0,-1.272000027E1,1.006500053E1,6.837000370E0,1.760247757E1
3.091324199E0,-1.225995064E1,9.757950783E0,6.876000404E0,1.711149832E1
3.093287795E0,-1.149300098E1,9.490050316E0,6.454050541E0,1.624207176E1
3.095251613E0,-1.095705032E1,9.259950638E0,6.301050186E0,1.566865888E1
3.097215384E0,-1.118700027E1,9.528000832E0,5.917050362E0,1.584118872E1
3.099179109E0,-1.134000015E1,9.451050758E0,6.339000225E0,1.606551860E1
3.101142847E0,-1.118700027E1,9.183000565E0,6.952050209E0,1.605638429E1
3.103106665E0,-1.087995052E1,8.800050735E0,8.179050446E0,1.620836459E1
3.105070460E0,-1.045905018E1,8.110050201E0,9.865050316E0,1.650708523E1
3.107034117E0,-9.615000725E0,7.267050266E0,1.132200050E1,1.653620131E1
3.108997828E0,-9.079050064E0,6.730050087E0,1.208805084E1,1.654822339E1
3.110961337E0,-8.542050362E0,6.040050507E0,1.281600094E1,1.654384219E1
3.112924905E0,-8.082000732E0,5.656950474E0,1.346805096E1,1.669455663E1
3.114888798E0,-7.966950417E0,5.503950119E0,1.339095020E1,1.652523262E1
3.116852595E0,-7.776000500E0,5.350050449E0,1.327605057E1,1.628934444E1
3.118816519E0,-7.468950272E0,5.235000134E0,1.273995018E1,1.566833671E1
3.120780389E0,-7.276950359E0,5.005050182E0,1.174305058E1,1.469366430E1
3.122743827E0,-7.276950359E0,4.852050304E0,1.051695061E1,1.367854703E1
3.124707391E0,-7.162050247E0,4.813950062E0,9.750000000E0,1.302042929E1
3.126671149E0,-7.009050369E0,4.736999989E0,8.715000153E0,1.214566522E1
3.128634850E0,-6.741000175E0,4.736999989E0,7.756950378E0,1.131594147E1
3.130598317E0,-6.472050190E0,4.584000111E0,6.760950089E0,1.042165710E1
3.132561852E0,-6.472050190E0,4.431000233E0,5.802000046E0,9.756249344E0
3.134525570E0,-6.319050312E0,4.239000320E0,4.843950272E0,9.020164899E0
3.136489235E0,-6.127950191E0,4.047000408E0,3.847950220E0,8.290760324E0
3.138452753E0,-5.935950279E0,3.778950214E0,2.889000177E0,7.606726790E0
3.140416314E0,-5.706000328E0,3.433950186E0,2.122950077E0,6.989804765E0
3.142380032E0,-5.590950489E0,3.127050161E0,1.585950017E0,6.599424788E0
3.144343701E0,-5.323050022E0,2.667000055E0,9.349500537E-1,6.026763844E0
3.146308299E0,-4.900950432E0,2.131050110E0,9.195000678E-2,5.345011180E0
3.148272624E0,-4.633050442E0,1.479000092E0,-5.209500194E-1,4.891215247E0
3.150236569E0,-4.134000301E0,7.890000343E-1,-1.171950102E0,4.368746569E0
3.152200626E0,-3.828000069E0,-1.500000060E-2,-1.939050078E0,4.291121617E0
3.154165312E0,-3.445050240E0,-5.509500504E-1,-2.743950129E0,4.438601066E0
3.156129831E0,-3.100050211E0,-1.240950108E0,-2.935050249E0,4.445760727E0
3.158093428E0,-2.793000221E0,-1.930950046E0,-3.357000113E0,4.774816025E0
3.160057295E0,-2.448000193E0,-2.467050076E0,-3.586950064E0,4.994522177E0
3.162020912E0,-2.295000076E0,-2.889000177E0,-3.894000292E0,5.364381199E0
3.163984602E0,-2.026050091E0,-3.349050045E0,-4.429950237E0,5.911469722E0
3.165948160E0,-1.720050097E0,-3.732000113E0,-4.582950115E0,6.155471463E0
3.167911756E0,-1.528050065E0,-3.886050224E0,-5.005050182E0,6.518193820E0
3.169875419E0,-1.222050071E0,-4.231050014E0,-5.617950439E0,7.138386214E0
3.171839062E0,-9.529500604E-1,-4.461000443E0,-6.460950375E0,7.909015015E0
3.173802403E0,-8.380500674E-1,-4.804950237E0,-7.381050587E0,8.847021107E0
3.175765833E0,-6.469500065E-1,-5.188950062E0,-8.301000595E0,9.810726677E0
3.177729384E0,-3.780000210E-1,-5.610000134E0,-9.873000145E0,1.136182720E1
3.179692903E0,-7.200000435E-2,-6.262050152E0,-1.136700058E1,1.297794892E1
3.181656670E0,2.340000123E-1,-7.105050564E0,-1.274700069E1,1.459529123E1
3.183620365E0,5.020500422E-1,-8.025000572E0,-1.420395088E1,1.632191499E1
3.185583878E0,5.020500422E-1,-9.289950371E0,-1.523895073E1,1.785443506E1
3.187547444E0,4.639500082E-1,-1.063095093E1,-1.615800095E1,1.934717969E1
3.189511867E0,4.639500082E-1,-1.181895065E1,-1.661805153E1,2.039760968E1
3.191476014E0,6.169500351E-1,-1.304595089E1,-1.657995033E1,2.110621271E1
3.193439314E0,9.619500637E-1,-1.408095074E1,-1.627305031E1,2.154090731E1
3.195402862E0,1.192050099E0,-1.503900051E1,-1.573695087E1,2.180009501E1
3.197366399E0,1.345050097E0,-1.572900105E1,-1.508505058E1,2.183504946E1
3.199329939E0,1.498950124E0,-1.611194992E1,-1.424205112E1,2.155638657E1
3.201293671E0,1.843950033E0,-1.638000107E1,-1.339905071E1,2.124239032E1
3.203257336E0,2.265000105E0,-1.630395126E1,-1.209600067E1,2.042699891E1
3.205220809E0,2.380050182E0,-1.607400131E1,-1.071600056E1,1.946460441E1
3.207184338E0,2.494950056E0,-1.572900105E1,-9.565950394E0,1.857777319E1
3.209147562E0,2.380050182E0,-1.511595058E1,-8.377950668E0,1.744553405E1
3.211110876E0,2.227050066E0,-1.454100037E1,-7.495950222E0,1.651029114E1
3.213074608E0,2.111999989E0,-1.396605110E1,-6.997950554E0,1.576332577E1
3.215038235E0,1.882050037E0,-1.331400108E1,-6.730050087E0,1.503656581E1
3.217001939E0,1.690050125E0,-1.258605099E1,-6.232050419E0,1.414579094E1
3.218965620E0,1.498950124E0,-1.174305058E1,-5.809950352E0,1.318717602E1
3.220928729E0,1.306950092E0,-1.090005016E1,-5.158050060E0,1.212949680E1
3.222892006E0,1.306950092E0,-1.009500027E1,-4.200000286E0,1.101168249E1
3.224855593E0,1.345050097E0,-9.175050735E0,-3.127050161E0,9.786171799E0
3.226819086E0,1.384050012E0,-8.178000450E0,-1.747050047E0,8.476288673E0
3.228781552E0,1.537050128E0,-7.105050564E0,-9.900000691E-2,7.270080303E0
3.230744319E0,1.651950121E0,-5.878950119E0,1.855050087E0,6.382178666E0
3.232708169E0,1.690050125E0,-4.575000286E0,4.153950214E0,6.406418612E0
3.234671702E0,1.651950121E0,-3.196050167E0,6.646050453E0,7.557358169E0
3.236635226E0,1.651950121E0,-1.777950048E0,8.983950615E0,9.305988084E0
3.238598763E0,1.614000082E0,-4.740000367E-1,1.116795063E1,1.129392729E1
3.240561627E0,1.614000082E0,5.209500194E-1,1.270095062E1,1.281368534E1
3.242524689E0,1.767000079E0,1.479000092E0,1.350600052E1,1.370115983E1
3.244488263E0,1.843950033E0,1.863000035E0,1.354500103E1,1.379630290E1
3.246451687E0,1.690050125E0,2.208000183E0,1.312305069E1,1.341439502E1
3.248415305E0,1.537050128E0,2.398950100E0,1.224105072E1,1.256824600E1
3.250378855E0,1.498950124E0,2.245950222E0,1.116795063E1,1.148974609E1
3.252342572E0,1.269000053E0,2.053950071E0,9.865050316E0,1.015619465E1
3.254306240E0,8.850000501E-1,1.555950046E0,8.638950348E0,8.822452536E0
3.256269937E0,2.719500065E-1,8.280000687E-1,7.411950588E0,7.463012290E0
3.258233625E0,-4.549500346E-1,-4.360500276E-1,6.186000347E0,6.218015717E0
3.260197318E0,-1.720050097E0,-2.083950043E0,5.074050426E0,5.748687489E0
3.262161009E0,-3.406050205E0,-4.192049980E0,4.959000111E0,7.332540019E0
3.264124702E0,-5.208000183E0,-6.070050240E0,6.301050186E0,1.018194526E1
3.266088394E0,-7.392000198E0,-7.833000183E0,7.987050533E0,1.340859929E1
3.268051862E0,-1.015200043E1,-9.673050880E0,9.481950760E0,1.692744565E1
3.270015396E0,-1.298805046E1,-1.170405102E1,1.189605045E1,2.114687403E1
3.271978974E0,-1.593900108E1,-1.381200027E1,1.408095074E1,2.535934307E1
3.273942543E0,-1.938900185E1,-1.607400131E1,1.419600105E1,2.891078271E1
3.275906392E0,-2.257005119E1,-1.867995071E1,1.189605045E1,3.162062279E1
3.277870158E0,-2.567505074E1,-2.124795151E1,9.903000832E0,3.476712670E1
3.279833704E0,-2.866395187E1,-2.462100029E1,8.830050468E0,3.880445314E1
3.281797314E0,-3.150000191E1,-2.875995064E1,7.450050354E0,4.329997842E1
3.283761179E0,-3.422205353E1,-3.351300049E1,4.360500276E-1,4.790052493E1
