"Time (s)","Acceleration x (m/s^2)","Acceleration y (m/s^2)","Acceleration z (m/s^2)","Absolute acceleration (m/s^2)"
4.001001200E-2,8.896050453E0,-6.271800232E1,-2.796300125E1,6.924317271E1
4.197210600E-2,7.708050251E0,-6.467295074E1,-2.658300209E1,7.034671703E1
4.393678100E-2,6.328050137E0,-6.651300049E1,-2.455200195E1,7.118162862E1
4.589999000E-2,5.140050411E0,-6.793095398E1,-2.156295013E1,7.145624847E1
4.786362800E-2,3.952050209E0,-6.770100403E1,-1.719300079E1,6.996173185E1
4.982677800E-2,2.494950056E0,-6.770100403E1,-1.240200043E1,6.887278372E1
5.179007900E-2,2.111999989E0,-6.731805420E1,-6.844950199E0,6.769811156E1
5.375271200E-2,4.258049965E0,-6.704895020E1,-2.245050192E0,6.722152157E1
5.571554100E-2,5.062950134E0,-6.624494934E1,2.583000183E0,6.648833482E1
5.767902000E-2,4.527000427E0,-6.413700104E1,7.258950233E0,6.470503067E1
5.964230800E-2,3.184950113E0,-6.195195389E1,8.217000008E0,6.257561495E1
6.160495500E-2,1.614000082E0,-5.992095184E1,7.374000549E0,6.039454735E1
6.356781400E-2,-9.150000215E-1,-5.624100113E1,5.151000023E0,5.648380506E1
6.553128800E-2,-4.747950077E0,-5.133495331E1,3.234000206E0,5.165538905E1
6.749458200E-2,-8.427000046E0,-4.658295059E1,2.736000061E0,4.741804838E1
6.945802700E-2,-9.999000549E0,-4.198305130E1,1.969950080E0,4.320228364E1
7.142142800E-2,-9.999000549E0,-3.761400223E1,1.240950108E0,3.894012240E1
7.338603900E-2,-8.925000191E0,-3.393405151E1,4.360500276E-1,3.509081960E1
7.535031800E-2,-6.817050457E0,-3.067695236E1,1.500000060E-2,3.142527340E1
7.731264900E-2,-4.978050232E0,-2.776395226E1,5.899500251E-1,2.821287064E1
7.927555100E-2,-3.559950113E0,-2.527200127E1,1.395000100E0,2.555960325E1
8.123919800E-2,-2.256000042E0,-2.324100113E1,2.238000154E0,2.345724439E1
8.320262600E-2,-1.567050099E0,-2.132505035E1,3.081000090E0,2.160337891E1
8.516615500E-2,-1.758000135E0,-1.952295113E1,4.000950336E0,2.000609379E1
8.712967400E-2,-2.524950027E0,-1.787505150E1,4.614000320E0,1.863281615E1
8.909335100E-2,-3.828000069E0,-1.611194992E1,4.768050194E0,1.723318942E1
9.105698100E-2,-4.633050442E0,-1.480905056E1,5.112000465E0,1.633724835E1
9.302037000E-2,-4.633050442E0,-1.381200027E1,5.725950241E0,1.565321099E1
9.498382900E-2,-4.288050175E0,-1.316100025E1,6.454050541E0,1.527265760E1
9.694738900E-2,-4.173000336E0,-1.243305016E1,6.913950443E0,1.482556504E1
9.891091300E-2,-3.904950142E0,-1.189605045E1,7.411950588E0,1.454997125E1
1.008748150E-1,-3.904950142E0,-1.135905075E1,7.564950466E0,1.419525079E1
1.028386060E-1,-4.018949986E0,-1.059300041E1,7.795050144E0,1.375232429E1
1.048018770E-1,-3.865950108E0,-9.979950905E0,8.025000572E0,1.337705590E1
1.067653000E-1,-3.943050146E0,-9.442950249E0,8.409000397E0,1.324493267E1
1.087285180E-1,-3.904950142E0,-9.021000862E0,8.562000275E0,1.303590967E1
1.106918140E-1,-3.790050268E0,-8.407950401E0,9.136950493E0,1.298237171E1
1.126553930E-1,-3.559950113E0,-7.795050144E0,9.673050880E0,1.292300139E1
1.146188890E-1,-2.869950056E0,-7.335000515E0,1.013295078E1,1.283415511E1
1.165823900E-1,-2.140950203E0,-6.262050152E0,1.040205002E1,1.232881115E1
1.185458890E-1,-1.413000107E0,-4.843950272E0,1.017195034E1,1.135469054E1
1.205092460E-1,-7.999500632E-1,-4.000950336E0,9.942000389E0,1.074666904E1
1.224726510E-1,-5.700000525E-1,-2.926950216E0,1.005705070E1,1.048981442E1
1.244357160E-1,-4.549500346E-1,-1.585950017E0,9.826950073E0,9.964495207E0
1.263988810E-1,-3.780000210E-1,-2.830500007E-1,9.634950638E0,9.646516216E0
1.283617630E-1,-3.019500077E-1,1.555950046E0,9.252000809E0,9.386781840E0
1.303247280E-1,-5.700000525E-1,3.741000175E0,8.869050026E0,9.642615347E0
1.322882800E-1,-7.999500632E-1,5.695050240E0,8.254950523E0,1.006070204E1
1.342516870E-1,-9.150000215E-1,7.726950169E0,7.987050533E0,1.115060358E1
1.362150690E-1,-1.106999993E0,9.565950394E0,7.527000427E0,1.222246257E1
1.381784580E-1,-1.642950058E0,1.117605019E1,6.952050209E0,1.326402596E1
1.401418420E-1,-1.911000133E0,1.236405087E1,6.952050209E0,1.431267541E1
1.421052270E-1,-2.256000042E0,1.332300091E1,6.991050243E0,1.521402882E1
1.440680830E-1,-2.830950022E0,1.397400093E1,6.607050419E0,1.571432771E1
1.460311170E-1,-3.175950050E0,1.408905029E1,6.760950089E0,1.594673769E1
1.479945150E-1,-3.445050240E0,1.393605042E1,6.991050243E0,1.596736221E1
1.499578070E-1,-3.636000156E0,1.362900066E1,6.876000404E0,1.569234010E1
1.519210740E-1,-3.943050146E0,1.316895103E1,7.219950199E0,1.552728555E1
1.538843480E-1,-4.363950253E0,1.255605030E1,7.642050266E0,1.533295122E1
1.558478610E-1,-4.747950077E0,1.175100040E1,7.987050533E0,1.498072150E1
1.578113210E-1,-5.245950222E0,1.067805004E1,8.485050201E0,1.461289921E1
1.597743780E-1,-5.668050289E0,9.451050758E0,8.677050591E0,1.402641656E1
1.617375540E-1,-6.166050434E0,8.224950790E0,8.983950615E0,1.365215595E1
1.637007480E-1,-6.433950424E0,6.768000126E0,9.175050735E0,1.309133682E1
1.656639360E-1,-6.549000263E0,5.389050484E0,9.252000809E0,1.255112698E1
1.676273220E-1,-6.472050190E0,4.162050247E0,9.289950371E0,1.206288829E1
1.695906730E-1,-6.549000263E0,3.127050161E0,9.136950493E0,1.166840655E1
1.715539290E-1,-6.931950092E0,2.398950100E0,9.022050858E0,1.162773819E1
1.735172130E-1,-7.162050247E0,1.978050113E0,8.677050591E0,1.142360945E1
1.754804350E-1,-7.546050549E0,1.555950046E0,8.524050713E0,1.149013925E1
1.774436750E-1,-8.005949974E0,1.173000097E0,8.907000542E0,1.203352911E1
1.794067180E-1,-8.158950806E0,8.659500480E-1,8.677050591E0,1.194192425E1
1.813698230E-1,-8.121000290E0,5.209500194E-1,8.599950790E0,1.183981369E1
1.833337960E-1,-8.197050095E0,2.140500098E-1,8.677050591E0,1.193853654E1
1.852975140E-1,-8.619000435E0,-5.295000225E-2,8.599950790E0,1.217575976E1
1.872607970E-1,-8.542050362E0,-2.440500110E-1,8.638950348E0,1.215144633E1
1.892242080E-1,-8.350950241E0,-4.360500276E-1,8.754000664E0,1.210623960E1
1.911875780E-1,-8.121000290E0,-5.130000114E-1,8.944950104E0,1.209239212E1
1.931509670E-1,-8.503950119E0,-6.660000086E-1,8.830050468E0,1.227723564E1
1.951139900E-1,-8.542050362E0,-5.509500504E-1,8.869050026E0,1.232599768E1
1.970771210E-1,-8.427000046E0,-5.130000114E-1,8.944950104E0,1.229998501E1
1.990403680E-1,-8.197050095E0,-3.589500189E-1,9.022050858E0,1.219499393E1
2.010035810E-1,-8.044050217E0,-1.680000126E-1,9.060000420E0,1.211687152E1
2.029666410E-1,-7.813950539E0,-1.290000081E-1,9.175050735E0,1.205222054E1
2.049297420E-1,-7.776000500E0,-9.105000645E-2,9.252000809E0,1.208610743E1
2.068922740E-1,-7.660950184E0,6.105000153E-2,9.098999977E0,1.189477555E1
2.088549720E-1,-7.315950394E0,2.530499995E-1,9.022050858E0,1.161828585E1
2.108182930E-1,-7.239000320E0,4.830000103E-1,8.677050591E0,1.131050934E1
2.127814320E-1,-7.546050549E0,5.980500579E-1,8.485050201E0,1.137086715E1
2.147446580E-1,-7.737000465E0,9.810000658E-1,8.254950523E0,1.135639668E1
2.167078730E-1,-8.005949974E0,1.441050053E0,8.140049934E0,1.150792219E1
2.186711520E-1,-8.121000290E0,1.747950077E0,7.872000217E0,1.144440311E1
2.206344120E-1,-8.121000290E0,1.978050113E0,7.411950588E0,1.117140723E1
2.225976390E-1,-8.005949974E0,2.092950106E0,8.025000572E0,1.152719868E1
2.245608750E-1,-8.158950806E0,2.398950100E0,7.795050144E0,1.153630125E1
2.265241010E-1,-8.389050484E0,2.782050133E0,7.642050266E0,1.168404481E1
2.284873330E-1,-8.236050606E0,2.974050045E0,7.527000427E0,1.154700129E1
2.304505640E-1,-8.350950241E0,3.472050190E0,6.991050243E0,1.143102296E1
2.324137950E-1,-8.044050217E0,3.741000175E0,6.952050209E0,1.127088410E1
2.343773850E-1,-7.813950539E0,4.123950005E0,6.799050331E0,1.114862647E1
2.363408700E-1,-7.584000587E0,4.545000076E0,6.607050419E0,1.103753622E1
2.383042090E-1,-7.201050282E0,4.929000378E0,6.147000313E0,1.067407058E1
2.402676120E-1,-6.702000141E0,5.158950329E0,5.917050362E0,1.032196974E1
2.422308130E-1,-6.051000118E0,5.542050362E0,5.496000290E0,9.875978120E0
2.441940730E-1,-5.169000149E0,5.311950207E0,5.188950062E0,9.047683697E0
2.461574780E-1,-4.671000004E0,5.350050449E0,4.806000233E0,8.575483606E0
2.481208410E-1,-4.096050262E0,5.350050449E0,4.231050014E0,7.956283793E0
2.500842240E-1,-4.134000301E0,5.772000313E0,3.118950129E0,7.754598378E0
2.520476050E-1,-3.751050234E0,5.772000313E0,2.353049994E0,7.274834001E0
2.540109900E-1,-3.445050240E0,5.848950386E0,2.008050203E0,7.078902273E0
2.559743740E-1,-3.100050211E0,5.542050362E0,1.356000066E0,6.493332711E0
2.579388400E-1,-3.291000128E0,5.580000401E0,4.360500276E-1,6.492859612E0
2.599029890E-1,-3.559950113E0,5.464950085E0,-2.140500098E-1,6.525698556E0
2.618663740E-1,-3.445050240E0,5.235000134E0,-5.590500236E-1,6.291751305E0
2.638299860E-1,-3.445050240E0,5.044050217E0,-1.057050109E0,6.199045787E0
2.657936910E-1,-3.712950230E0,5.082000256E0,-2.130000114E0,6.644518530E0
2.677573690E-1,-3.712950230E0,4.736999989E0,-2.704950094E0,6.598630412E0
2.697208850E-1,-3.559950113E0,4.276950359E0,-2.704950094E0,6.187269527E0
2.716844480E-1,-3.751050234E0,4.085999966E0,-3.280050039E0,6.443950794E0
2.736481480E-1,-3.675000191E0,3.664050102E0,-3.319050074E0,6.160112251E0
2.756118170E-1,-3.865950108E0,3.396000147E0,-3.433950186E0,6.186307551E0
2.775755130E-1,-3.904950142E0,3.088950157E0,-3.357000113E0,6.004972809E0
2.795392010E-1,-4.173000336E0,2.896950245E0,-3.510000229E0,6.174654171E0
2.815027600E-1,-4.402950287E0,2.551950216E0,-3.625050068E0,6.248152457E0
2.834663570E-1,-4.518000126E0,2.016000032E0,-3.472050190E0,6.044147069E0
2.854298060E-1,-4.671000004E0,1.518000126E0,-3.241950035E0,5.884964354E0
2.873933230E-1,-4.708950043E0,1.096050024E0,-3.357000113E0,5.885999143E0
2.893577650E-1,-4.479000092E0,4.060500264E-1,-2.974050045E0,5.391780051E0
2.913219360E-1,-4.402950287E0,-1.290000081E-1,-2.629050016E0,5.129767657E0
2.932852320E-1,-4.249050140E0,-4.740000367E-1,-2.359950066E0,4.883489269E0
2.952487850E-1,-3.904950142E0,-1.087950110E0,-2.053950071E0,4.544335149E0
2.972126350E-1,-3.598050117E0,-1.816050053E0,-1.708950043E0,4.377729170E0
2.991763980E-1,-3.367950201E0,-2.391000032E0,-1.594050050E0,4.427297739E0
3.011397190E-1,-3.406050205E0,-2.926950216E0,-1.824000120E0,4.847183925E0
3.031031690E-1,-3.520950079E0,-3.541050196E0,-1.939050078E0,5.356868596E0
3.050665870E-1,-3.406050205E0,-4.116000175E0,-2.092050076E0,5.737535095E0
3.070300150E-1,-3.520950079E0,-4.614000320E0,-2.514000177E0,6.325052198E0
3.089935570E-1,-3.675000191E0,-5.304000378E0,-3.088950157E0,7.153996050E0
3.109570760E-1,-3.828000069E0,-6.147000313E0,-4.200000286E0,8.371332019E0
3.129205740E-1,-3.828000069E0,-7.297050476E0,-5.542050362E0,9.930501115E0
3.148840780E-1,-3.675000191E0,-8.599950790E0,-7.266000271E0,1.184312205E1
3.168478020E-1,-3.061050177E0,-1.017105007E1,-8.914050102E0,1.386652721E1
3.188114610E-1,-1.911000133E0,-1.181895065E1,-9.489000320E0,1.527680081E1
3.207757090E-1,-2.629500031E-1,-1.319895077E1,-8.799000740E0,1.586517753E1
3.227397780E-1,1.153950095E0,-1.442595100E1,-7.918050289E0,1.649652035E1
3.247032270E-1,2.649000168E0,-1.588200092E1,-7.036050320E0,1.757160093E1
3.266668570E-1,3.682950258E0,-1.760700035E1,-6.538050175E0,1.913940135E1
3.286301990E-1,4.642050266E0,-1.883295059E1,-5.887050152E0,2.027032358E1
3.305936260E-1,5.752950191E0,-1.994505119E1,-5.197050095E0,2.139885120E1
3.325568230E-1,7.210050106E0,-2.082600021E1,-4.621950150E0,2.251820443E1
3.345200870E-1,8.781000137E0,-2.147805023E1,-4.047000408E0,2.355399791E1
3.364837170E-1,9.624000549E0,-2.117100143E1,-2.551950216E0,2.339540849E1
3.384472390E-1,9.661950111E0,-2.071095085E1,-5.209500194E-1,2.285974965E1
3.404096550E-1,9.279000282E0,-2.021295166E1,1.548000097E0,2.229483271E1
3.423723950E-1,8.512949944E0,-1.929300117E1,3.694050074E0,2.140878831E1
3.443360600E-1,7.783950329E0,-1.810500145E1,6.339000225E0,2.070178456E1
3.462994610E-1,6.940950394E0,-1.684005165E1,8.791950226E0,2.022529408E1
3.482627090E-1,5.715000153E0,-1.534605026E1,1.070805073E1,1.956591004E1
3.502260020E-1,4.450050354E0,-1.392705059E1,1.174305058E1,1.875273108E1
3.521890410E-1,3.376950264E0,-1.273905087E1,1.224105072E1,1.798695452E1
3.541521550E-1,2.265000105E0,-1.178100014E1,1.197300053E1,1.694918674E1
3.561151990E-1,1.459950089E0,-1.101495075E1,1.070805073E1,1.543123277E1
3.580782510E-1,9.240000248E-1,-1.063095093E1,9.098999977E0,1.402364768E1
3.600406560E-1,5.410500169E-1,-1.059300041E1,7.105050564E0,1.276660238E1
3.620032510E-1,2.719500065E-1,-1.101495075E1,4.921050072E0,1.206730420E1
3.639665900E-1,-1.870500147E-1,-1.185795021E1,2.851050138E0,1.219731355E1
3.659297110E-1,-7.999500632E-1,-1.316100025E1,1.318050027E0,1.325100387E1
3.678936570E-1,-1.758000135E0,-1.469400024E1,6.660000086E-1,1.481376939E1
3.698573790E-1,-2.716050148E0,-1.672500038E1,-5.209500194E-1,1.695210769E1
3.718204820E-1,-4.173000336E0,-1.933200073E1,-1.326000094E0,1.982166644E1
3.737837660E-1,-6.051000118E0,-2.251305199E1,-1.171950102E0,2.334149908E1
3.757468530E-1,-7.813950539E0,-2.523405075E1,-5.503050327E0,2.698330416E1
3.777099970E-1,-1.018995094E1,-2.761005211E1,-2.271195030E1,3.717502877E1
3.796733530E-1,-9.807000160E0,-2.902800179E1,-1.911000061E1,3.611086074E1
3.816366630E-1,-9.001950264E0,-3.021705055E1,-8.148000717E0,3.256524479E1
3.835990250E-1,-9.615000725E0,-3.102195168E1,-2.053950071E0,3.254271709E1
3.855616650E-1,-1.061205006E1,-3.198000145E1,1.663050056E0,3.373576492E1
3.875251310E-1,-1.122495079E1,-3.293805313E1,2.620950222E0,3.489676553E1
3.894883550E-1,-1.122495079E1,-3.274605179E1,5.035950184E0,3.498091226E1
3.914517680E-1,-1.084200096E1,-3.121305084E1,7.258950233E0,3.383039885E1
3.934151250E-1,-1.011405087E1,-2.872200203E1,7.258950233E0,3.130398991E1
3.953785140E-1,-8.311950684E0,-2.557905197E1,5.686950207E0,2.749032242E1
3.973418940E-1,-5.437950134E0,-2.170800018E1,3.118950129E0,2.259505308E1
3.993058650E-1,-3.138000250E0,-1.783695030E1,1.126049995E0,1.814584884E1
4.012696630E-1,-1.413000107E0,-1.503900051E1,-9.420000315E-1,1.513457861E1
4.032338580E-1,-3.299999982E-2,-1.323795033E1,-3.855000257E0,1.378787311E1
4.051979510E-1,1.306950092E0,-1.224105072E1,-6.768000126E0,1.404839019E1
4.071610350E-1,2.074050188E0,-1.158900070E1,-8.185950279E0,1.433933065E1
4.091244140E-1,2.649000168E0,-1.105305099E1,-9.067950249E0,1.454011210E1
4.110879790E-1,3.147000074E0,-1.070805073E1,-9.565950394E0,1.469943423E1
4.130514890E-1,2.686950207E0,-9.940950394E0,-9.067950249E0,1.372114856E1
4.150140870E-1,1.192050099E0,-9.021000862E0,-7.840950489E0,1.201165869E1
4.169769530E-1,-6.079500318E-1,-8.140049934E0,-5.695050240E0,9.953070552E0
4.189401100E-1,-2.485950232E0,-7.450050354E0,-2.974050045E0,8.398105292E0
4.209031810E-1,-3.981000185E0,-6.952050209E0,-2.520000041E-1,8.015164913E0
4.228660350E-1,-5.284050465E0,-6.492000103E0,2.008050203E0,8.608107822E0
4.248289530E-1,-6.013050079E0,-6.645000458E0,3.924000263E0,9.783178441E0
4.267924530E-1,-6.127950191E0,-6.837000370E0,5.686950207E0,1.079989585E1
4.287557880E-1,-5.208000183E0,-7.335000515E0,7.450050354E0,1.168027178E1
4.307193160E-1,-3.943050146E0,-7.872000217E0,8.791950226E0,1.244244432E1
4.326827880E-1,-2.793000221E0,-8.217000008E0,9.787950516E0,1.308143397E1
4.346462040E-1,-2.103000164E0,-8.599950790E0,1.074705029E1,1.392411050E1
4.366096360E-1,-1.489950061E0,-9.097949982E0,1.166595078E1,1.486899635E1
4.385733320E-1,-8.770500422E-1,-9.711000443E0,1.235595036E1,1.573983023E1
4.405369470E-1,-3.400500119E-1,-1.028595066E1,1.300800037E1,1.658687700E1
4.425011930E-1,2.719500065E-1,-1.090005016E1,1.366005039E1,1.747804414E1
4.444652540E-1,7.320000529E-1,-1.132095051E1,1.427295113E1,1.823230315E1
4.464285240E-1,9.619500637E-1,-1.189605045E1,1.484805107E1,1.905009147E1
4.483920260E-1,1.230000019E0,-1.266300106E1,1.546095085E1,2.002262463E1
4.503554340E-1,1.306950092E0,-1.365900040E1,1.622700119E1,2.125069359E1
4.523188710E-1,1.345050097E0,-1.477095032E1,1.718595123E1,2.270125664E1
4.542822010E-1,1.459950089E0,-1.595895100E1,1.810605049E1,2.417950859E1
4.562455630E-1,1.384050012E0,-1.703205109E1,1.894905090E1,2.551612997E1
4.582088170E-1,1.192050099E0,-1.810500145E1,2.048205185E1,2.736286734E1
4.601721020E-1,1.230000019E0,-1.948500061E1,2.262795067E1,2.988649026E1
4.621353380E-1,1.269000053E0,-2.121000099E1,2.354805183E1,3.171727051E1
4.640985780E-1,8.850000501E-1,-2.262795067E1,2.328000069E1,3.247715826E1
4.660619420E-1,9.240000248E-1,-2.416095161E1,2.239800072E1,3.295869832E1
4.680252690E-1,1.345050097E0,-2.561700058E1,2.136300087E1,3.338289509E1
4.699888430E-1,1.729050040E0,-2.676705170E1,1.971495056E1,3.328879611E1
4.719523450E-1,2.149950027E0,-2.780205154E1,1.707105064E1,3.269552149E1
4.739155950E-1,2.725050211E0,-2.933505058E1,1.251000023E1,3.200736161E1
4.758789050E-1,3.607050180E0,-3.148095131E1,8.293950081E0,3.275439992E1
4.778422560E-1,4.564949989E0,-3.270795059E1,6.684000492E0,3.369457913E1
4.798055950E-1,5.830050468E0,-3.378105164E1,3.924000263E0,3.450429997E1
4.817697080E-1,7.248000145E0,-3.462405014E1,1.165050030E0,3.539372396E1
4.837335950E-1,8.818950653E0,-3.496905136E1,-7.510500550E-1,3.607176902E1
4.856965200E-1,1.096605015E1,-3.481605148E1,-2.245050192E0,3.657119012E1
4.876597370E-1,1.261395073E1,-3.404895020E1,-3.970050097E0,3.652675814E1
4.896227900E-1,1.391700077E1,-3.286095047E1,-5.272950172E0,3.607393768E1
4.915858910E-1,1.495200062E1,-3.136605072E1,-5.809950352E0,3.522991603E1
4.935490080E-1,1.560300064E1,-2.987205124E1,-6.232050419E0,3.427289784E1
4.955121200E-1,1.564200115E1,-2.822400093E1,-6.805950165E0,3.297858982E1
4.974755150E-1,1.533495045E1,-2.653695107E1,-7.687950134E0,3.159865589E1
4.994388210E-1,1.449195099E1,-2.485095024E1,-8.301000595E0,2.994149265E1
5.014020400E-1,1.307400036E1,-2.324100113E1,-9.220950127E0,2.821523596E1
5.033652850E-1,1.207695103E1,-2.235900116E1,-1.006395054E1,2.733241262E1
5.053285130E-1,1.104195023E1,-2.170800018E1,-1.109895039E1,2.676469010E1
5.072917460E-1,9.547050476E0,-2.117100143E1,-1.228695011E1,2.627406740E1
5.092550210E-1,7.630950451E0,-2.082600021E1,-1.263195038E1,2.552488707E1
5.112182830E-1,5.905950069E0,-2.055795097E1,-1.186605072E1,2.446043242E1
5.131816890E-1,4.717950344E0,-2.013600159E1,-1.033305073E1,2.311903010E1
5.151450520E-1,3.376950264E0,-1.986795044E1,-8.953050613E0,2.205212831E1
5.171075400E-1,1.920000076E0,-1.948500061E1,-8.263050079E0,2.125157984E1
5.190702850E-1,8.100000024E-2,-1.929300117E1,-8.224950790E0,2.097322748E1
5.210333940E-1,-2.295000076E0,-1.891005135E1,-8.646000862E0,2.091913952E1
5.229964130E-1,-3.598050117E0,-1.806705093E1,-8.377950668E0,2.023744923E1
5.249598600E-1,-4.747950077E0,-1.733895111E1,-8.646000862E0,1.994832290E1
5.269231820E-1,-5.782950401E0,-1.672500038E1,-9.757950783E0,2.020855652E1
5.288865770E-1,-6.127950191E0,-1.676399994E1,-1.048605061E1,2.070122520E1
5.308499510E-1,-6.856050491E0,-1.653404999E1,-1.148205090E1,2.126541159E1
5.328129730E-1,-7.354050159E0,-1.645695114E1,-1.198095036E1,2.164385516E1
5.347761020E-1,-7.431000233E0,-1.657200050E1,-1.217205048E1,2.186343472E1
5.367394840E-1,-7.699050426E0,-1.660995102E1,-1.198095036E1,2.187942005E1
5.387027920E-1,-7.852050304E0,-1.672500038E1,-1.155900097E1,2.179428446E1
5.406662350E-1,-8.082000732E0,-1.695495033E1,-1.067805004E1,2.160578231E1
5.426296380E-1,-8.044050217E0,-1.718505096E1,-9.451050758E0,2.119799710E1
5.445933350E-1,-8.044050217E0,-1.722405052E1,-8.455050468E0,2.080534880E1
5.465569460E-1,-8.236050606E0,-1.718505096E1,-7.342950344E0,2.042247355E1
5.485202930E-1,-8.350950241E0,-1.718505096E1,-6.232050419E0,2.009733313E1
5.504837170E-1,-7.929000378E0,-1.737705040E1,-5.542050362E0,1.988831943E1
5.524469600E-1,-7.009050369E0,-1.768395042E1,-5.962950230E0,1.993503612E1
5.544102560E-1,-6.433950424E0,-1.776000023E1,-6.844950199E0,2.009145762E1
5.563736650E-1,-5.437950134E0,-1.791300011E1,-7.956000328E0,2.034071817E1
5.583370330E-1,-4.326000214E0,-1.810500145E1,-9.373950005E0,2.084169604E1
5.603004200E-1,-2.869950056E0,-1.841205025E1,-1.098405075E1,2.163075538E1
5.622638020E-1,-1.068000078E0,-1.883295059E1,-1.251705074E1,2.263840126E1
5.642282240E-1,9.619500637E-1,-1.891005135E1,-1.412700081E1,2.362387652E1
5.661923410E-1,2.764050245E0,-1.887195015E1,-1.569795036E1,2.470255294E1
5.681556310E-1,4.488000393E0,-1.867995071E1,-1.692495155E1,2.560345077E1
5.701191740E-1,6.136050224E0,-1.833495140E1,-1.803600121E1,2.644085654E1
5.720823510E-1,7.708050251E0,-1.810500145E1,-1.880295181E1,2.721683510E1
5.740456350E-1,9.394050598E0,-1.772205162E1,-1.914795113E1,2.773018811E1
5.760089910E-1,1.081200027E1,-1.714695168E1,-1.914795113E1,2.788478678E1
5.779723260E-1,1.192395020E1,-1.641900063E1,-1.926300049E1,2.797905212E1
5.799355450E-1,1.299705029E1,-1.557600117E1,-1.880295181E1,2.766019026E1
5.818987940E-1,1.395495033E1,-1.480905056E1,-1.792094994E1,2.711473887E1
5.838622010E-1,1.479795074E1,-1.377405071E1,-1.692495155E1,2.636584541E1
5.858255620E-1,1.552695084E1,-1.266300106E1,-1.577505112E1,2.550078500E1
5.877889960E-1,1.614000130E1,-1.166595078E1,-1.397400093E1,2.432831172E1
5.897524080E-1,1.679100037E1,-1.082295036E1,-1.224900055E1,2.343313812E1
5.917159730E-1,1.740495110E1,-1.005600071E1,-1.040895081E1,2.263629232E1
5.936794900E-1,1.821000099E1,-9.405000687E0,-8.148000717E0,2.205556822E1
5.956428530E-1,1.893795013E1,-8.791950226E0,-6.117000103E0,2.175688476E1
5.976062610E-1,1.978095055E1,-8.446949959E0,-3.817050219E0,2.184506444E1
5.995696410E-1,2.058600044E1,-7.909950256E0,-2.245050192E0,2.216734034E1
6.015330300E-1,2.142900085E1,-7.450050354E0,-5.970000029E-1,2.269497162E1
6.034953470E-1,2.223405075E1,-7.027950287E0,8.959500194E-1,2.333554851E1
6.054579680E-1,2.288505173E1,-6.607050419E0,2.008050203E0,2.390420410E1
6.074214370E-1,2.326905060E1,-5.802000046E0,2.736000061E0,2.413705899E1
6.093846580E-1,2.349900055E1,-5.188950062E0,3.273000240E0,2.428663748E1
6.113479360E-1,2.349900055E1,-4.537050247E0,3.771000147E0,2.422825404E1
6.133111970E-1,2.334495163E1,-3.732000113E0,4.039050102E0,2.398392206E1
6.152746080E-1,2.323005104E1,-3.196050167E0,4.231050014E0,2.382754272E1
6.172379710E-1,2.315400124E1,-2.965950251E0,4.843950272E0,2.384048004E1
6.192013590E-1,2.284695053E1,-2.889000177E0,4.806000233E0,2.352503154E1
6.211647400E-1,2.250195122E1,-2.889000177E0,4.614000320E0,2.315109349E1
6.231281260E-1,2.181195068E1,-2.773950100E0,3.847950220E0,2.232179905E1
6.250915100E-1,2.093100166E1,-2.544000149E0,2.889000177E0,2.128203678E1
6.270547100E-1,1.993395042E1,-2.467050076E0,1.969950080E0,2.018240369E1
6.290179680E-1,1.882305145E1,-2.275950193E0,9.730500579E-1,1.898510052E1
6.309822750E-1,1.774995041E1,-2.275950193E0,-2.205000073E-2,1.789528360E1
6.329462740E-1,1.690605164E1,-1.969050050E0,-9.420000315E-1,1.704638097E1
6.349095090E-1,1.602495003E1,-1.701000094E0,-2.053950071E0,1.624534197E1
6.368729680E-1,1.541205120E1,-1.663050056E0,-3.088950157E0,1.580628580E1
6.388362050E-1,1.487505054E1,-1.624050021E0,-4.429950237E0,1.560541977E1
6.407995070E-1,1.426200104E1,-1.585950017E0,-5.962950230E0,1.553952015E1
6.427629050E-1,1.341900063E1,-1.663050056E0,-6.691050529E0,1.508659904E1
6.447262740E-1,1.269000053E1,-1.738950133E0,-7.650000572E0,1.491920138E1
6.466894820E-1,1.200000095E1,-1.816050053E0,-8.761050224E0,1.496843551E1
6.486527370E-1,1.119600010E1,-1.816050053E0,-9.528000832E0,1.481321221E1
6.506161290E-1,9.969000816E0,-1.585950017E0,-9.796050072E0,1.406622948E1
6.525794910E-1,8.781000137E0,-1.393950105E0,-9.796050072E0,1.322919715E1
6.545428790E-1,7.363050461E0,-1.164000034E0,-9.183000565E0,1.182780231E1
6.565062600E-1,6.366000175E0,-8.190000653E-1,-8.569950104E0,1.070704273E1
6.584694660E-1,5.485050201E0,-7.429500222E-1,-7.879950523E0,9.629712908E0
6.604327240E-1,4.372950077E0,-8.190000653E-1,-6.960000515E0,8.260451601E0
6.623962900E-1,3.492000103E0,-1.164000034E0,-5.656950474E0,6.749077675E0
6.643597790E-1,2.341950178E0,-1.393950105E0,-4.084949970E0,4.910666329E0
6.663223810E-1,1.153950095E0,-1.432950020E0,-2.322000027E0,2.962537883E0
6.682852430E-1,-1.480500102E-1,-1.318050027E0,-1.057050109E0,1.696033494E0
6.702476360E-1,-1.413000107E0,-1.164000034E0,-1.759500057E-1,1.839136696E0
6.722101660E-1,-2.563050032E0,-9.340500236E-1,6.660000086E-1,2.808065334E0
6.741733360E-1,-3.445050240E0,-9.340500236E-1,1.126049995E0,3.742834379E0
6.761363180E-1,-4.096050262E0,-1.087950110E0,1.279950023E0,4.427136236E0
6.780995910E-1,-4.671000004E0,-1.203000069E0,1.356000066E0,5.010407806E0
6.800627790E-1,-5.169000149E0,-1.356000066E0,1.471050024E0,5.542678675E0
6.820257030E-1,-5.284050465E0,-1.701000094E0,1.740000129E0,5.817404153E0
6.839887050E-1,-5.361000061E0,-2.083950043E0,1.816050053E0,6.031683615E0
6.859519480E-1,-5.208000183E0,-2.697000027E0,1.548000097E0,6.065754640E0
6.879151060E-1,-4.978050232E0,-3.387000084E0,1.011000037E0,6.105315287E0
6.898791150E-1,-5.016000271E0,-3.847050190E0,1.500000060E-2,6.321414310E0
6.918428750E-1,-4.939050198E0,-4.269000053E0,-9.040500522E-1,6.590590627E0
6.938058360E-1,-5.208000183E0,-4.498950005E0,-1.786050081E0,7.110118982E0
6.957690310E-1,-5.245950222E0,-4.882050037E0,-2.667000055E0,7.646391018E0
6.977320880E-1,-5.092950344E0,-5.341950417E0,-2.896950245E0,7.928864873E0
6.996951850E-1,-4.939050198E0,-5.839950085E0,-2.859000206E0,8.165360741E0
7.016583930E-1,-4.594050407E0,-6.376950264E0,-2.590050220E0,8.275213227E0
7.036215680E-1,-4.288050175E0,-7.066950321E0,-2.053950071E0,8.517503862E0
7.055846740E-1,-3.790050268E0,-7.795050144E0,-1.171950102E0,8.746470993E0
7.075478010E-1,-3.291000128E0,-8.599950790E0,-2.520000041E-1,9.211587238E0
7.095096320E-1,-2.563050032E0,-9.558000565E0,7.810500264E-1,9.926461575E0
7.114718250E-1,-1.795950055E0,-1.051605034E1,1.510050058E0,1.077464628E1
7.134351870E-1,-1.106999993E0,-1.151295090E1,1.893000126E0,1.171993758E1
7.153982070E-1,-5.700000525E-1,-1.258605099E1,2.046000004E0,1.276399998E1
7.173614740E-1,-7.200000435E-2,-1.381200027E1,1.855050087E0,1.393620273E1
7.193246690E-1,5.410500169E-1,-1.511595058E1,1.777950048E0,1.522976702E1
7.212884800E-1,1.114950061E0,-1.657200050E1,1.740000129E0,1.670035673E1
7.232520870E-1,1.498950124E0,-1.806705093E1,2.275950193E0,1.827142934E1
7.252151190E-1,2.149950027E0,-1.906305122E1,4.078050137E0,1.961256485E1
7.271783200E-1,2.227050066E0,-1.967700005E1,5.380950451E0,2.052068982E1
7.291415110E-1,2.457000017E0,-2.040495110E1,6.876000404E0,2.167206174E1
7.311047050E-1,3.147000074E0,-2.155500031E1,6.876000404E0,2.284296454E1
7.330676310E-1,3.721950293E0,-2.255100060E1,5.380950451E0,2.348095334E1
7.350306320E-1,4.642050266E0,-2.389305115E1,3.655950069E0,2.461285223E1
7.369935420E-1,6.405000210E0,-2.607705116E1,2.736000061E0,2.699115265E1
7.389564780E-1,7.516050339E0,-2.830005074E1,1.240950108E0,2.930740250E1
7.409202990E-1,8.167950630E0,-2.994795227E1,-9.900000691E-2,3.104198872E1
7.428838610E-1,8.781000137E0,-3.151995087E1,-4.774950027E0,3.306680229E1
7.448466400E-1,9.202950478E0,-3.282300186E1,-7.918050289E0,3.499627507E1
7.468096420E-1,9.661950111E0,-3.439395142E1,-1.094595051E1,3.736456887E1
7.487727310E-1,9.049050331E0,-3.516105270E1,-1.175100040E1,3.816111830E1
7.507357940E-1,8.934000015E0,-3.769095230E1,-1.217205048E1,4.060274688E1
7.526988730E-1,8.206049919E0,-4.106295013E1,-1.290105057E1,4.381714544E1
7.546619480E-1,6.366000175E0,-4.405305099E1,-1.255605030E1,4.624772059E1
7.566250440E-1,4.756950378E0,-4.585395050E1,-1.132905006E1,4.747168344E1
7.585881200E-1,3.492000103E0,-4.742595291E1,-1.029405022E1,4.865575551E1
7.605508830E-1,2.992950201E0,-4.884405136E1,-9.528000832E0,4.985460765E1
7.625137380E-1,3.031950235E0,-5.014695358E1,-9.451050758E0,5.111978126E1
7.644766720E-1,2.341950178E0,-5.133495331E1,-1.052400017E1,5.245490198E1
7.664395820E-1,1.192050099E0,-5.217795181E1,-1.278600025E1,5.373491827E1
7.684017370E-1,1.570500135E-1,-5.309805298E1,-1.497000027E1,5.516818651E1
7.703641170E-1,-8.770500422E-1,-5.447805405E1,-1.673295021E1,5.699665966E1
7.723273130E-1,-1.375050068E0,-5.559000397E1,-1.677195168E1,5.808130221E1
7.742902690E-1,-1.183050036E0,-5.673900223E1,-1.638795090E1,5.907011864E1
7.762544930E-1,5.020500422E-1,-5.785095215E1,-1.535295105E1,5.985564154E1
7.782183460E-1,1.920000076E0,-5.842605209E1,-1.474005032E1,6.028730419E1
7.801817820E-1,2.955000162E0,-5.827200317E1,-1.355205059E1,5.990005388E1
7.821453430E-1,3.223050117E0,-5.842605209E1,-1.014105034E1,5.938714101E1
7.841087420E-1,4.527000427E0,-5.850195312E1,-6.730050087E0,5.906154270E1
7.860721890E-1,5.676000118E0,-5.811900330E1,-3.319050074E0,5.848975649E1
7.880355180E-1,5.905950069E0,-5.731395340E1,-1.018950105E0,5.762645018E1
7.899988820E-1,5.140050411E0,-5.578095245E1,1.680000126E-1,5.601752403E1
7.919612140E-1,3.682950258E0,-5.340495300E1,2.161050081E0,5.357539795E1
7.939238620E-1,1.690050125E0,-4.991700363E1,3.808950186E0,5.009063408E1
7.958864720E-1,4.050000105E-3,-4.593105316E1,4.461000443E0,4.614717961E1
7.978490930E-1,-9.150000215E-1,-4.209795380E1,5.533950329E0,4.246998405E1
7.998127870E-1,-1.873050094E0,-3.830400085E1,5.380950451E0,3.872543642E1
8.017761670E-1,-3.330000162E0,-3.431805038E1,4.153950214E0,3.472855865E1
8.037397520E-1,-5.935950279E0,-3.102195168E1,3.157950163E0,3.174223749E1
8.057032630E-1,-7.123950481E0,-2.799405098E1,2.659050226E0,2.900841445E1
8.076666270E-1,-6.970950127E0,-2.542605209E1,2.773950100E0,2.650986741E1
8.096300350E-1,-5.859000206E0,-2.347095108E1,3.273000240E0,2.441159476E1
8.115935500E-1,-5.053950310E0,-2.151600075E1,4.039050102E0,2.246763511E1
8.135570330E-1,-3.790050268E0,-1.971495056E1,4.653000355E0,2.060810930E1
8.155203880E-1,-2.371050119E0,-1.814295006E1,5.994000435E0,1.925400106E1
8.174837900E-1,-1.642950058E0,-1.695495033E1,7.297050476E0,1.853150213E1
8.194471710E-1,-1.489950061E0,-1.569000053E1,7.603950500E0,1.749903229E1
8.214105590E-1,-1.489950061E0,-1.454100037E1,7.872000217E0,1.660207909E1
8.233738080E-1,-1.068000078E0,-1.358205032E1,8.179050446E0,1.589055006E1
8.253370980E-1,-5.320500135E-1,-1.266300106E1,8.485050201E0,1.525223754E1
8.273012380E-1,2.719500065E-1,-1.201095104E1,8.370000839E0,1.464219300E1
8.292651150E-1,1.230000019E0,-1.139805031E1,8.409000397E0,1.421758554E1
8.312281910E-1,1.729050040E0,-1.074600029E1,8.485050201E0,1.380080480E1
8.331915010E-1,1.767000079E0,-1.001805019E1,8.409000397E0,1.319829181E1
8.351545830E-1,1.575000048E0,-9.250950813E0,8.409000397E0,1.260047633E1
8.371177320E-1,1.192050099E0,-8.332050323E0,8.409000397E0,1.189770288E1
8.390804100E-1,6.169500351E-1,-7.143000126E0,8.485050201E0,1.110851723E1
8.410432130E-1,1.189500093E-1,-6.031950474E0,8.446949959E0,1.038024755E1
8.430065610E-1,-1.480500102E-1,-5.380050182E0,8.409000397E0,9.983894353E0
8.449697490E-1,-2.629500031E-1,-4.690050125E0,8.025000572E0,9.298728250E0
8.469329420E-1,-1.480500102E-1,-4.153950214E0,7.909950256E0,8.935576884E0
8.488961340E-1,-1.099500060E-1,-3.732000113E0,7.719000340E0,8.574548390E0
8.508593810E-1,4.050000105E-3,-2.889000177E0,7.374000549E0,7.919736266E0
8.528226050E-1,8.100000024E-2,-8.959500194E-1,7.527000427E0,7.580568769E0
8.547857030E-1,2.719500065E-1,5.980500579E-1,7.450050354E0,7.478961890E0
8.567488380E-1,6.550500393E-1,1.671000123E0,7.258950233E0,7.477545751E0
8.587124000E-1,1.230000019E0,2.131050110E0,7.066950321E0,7.483051614E0
8.606758360E-1,1.690050125E0,3.012000084E0,6.913950443E0,7.728591376E0
8.626392480E-1,1.882050037E0,4.468950272E0,7.144050121E0,8.634296787E0
8.646026740E-1,1.767000079E0,6.040050507E0,7.144050121E0,9.520606679E0
8.665658260E-1,1.306950092E0,7.918050289E0,7.144050121E0,1.074435159E1
8.685290590E-1,5.020500422E-1,9.681000710E0,7.374000549E0,1.217988970E1
8.704923330E-1,-4.930500090E-1,1.159800053E1,7.489050388E0,1.381457890E1
8.724555950E-1,-1.336950064E0,1.309305096E1,7.527000427E0,1.516150237E1
8.744191380E-1,-1.987950087E0,1.385895061E1,7.680000305E0,1.596887167E1
8.763826290E-1,-2.640000105E0,1.439595032E1,7.987050533E0,1.667351080E1
8.783461760E-1,-3.483000278E0,1.458705044E1,7.987050533E0,1.699135979E1
8.803097060E-1,-4.363950253E0,1.470195103E1,8.293950081E0,1.743505187E1
8.822730220E-1,-5.016000271E0,1.462605095E1,8.869050026E0,1.782530991E1
8.842364000E-1,-5.553000450E0,1.420395088E1,9.597000122E0,1.801916885E1
8.861994060E-1,-6.586950302E0,1.397400093E1,9.942000389E0,1.837128161E1
8.881625350E-1,-7.737000465E0,1.351395035E1,1.013295078E1,1.857860925E1
8.901257820E-1,-8.695050240E0,1.290105057E1,1.070805073E1,1.888659193E1
8.920889950E-1,-9.193950653E0,1.205805016E1,1.135995007E1,1.894660306E1
8.940526350E-1,-9.730050087E0,1.102305031E1,1.155105019E1,1.869781466E1
8.960161490E-1,-1.007505035E1,9.681000710E0,1.174305058E1,1.825178488E1
8.979794970E-1,-1.049700069E1,8.608050346E0,1.182000065E1,1.799994360E1
8.999429050E-1,-1.065000057E1,7.687950134E0,1.147500038E1,1.744140829E1
9.019064200E-1,-1.038195038E1,6.577050209E0,1.197300053E1,1.715794932E1
9.038699030E-1,-1.045905018E1,5.734050274E0,1.109205055E1,1.628817512E1
9.058333170E-1,-9.999000549E0,4.813950062E0,1.116795063E1,1.574411790E1
9.077967510E-1,-9.424050331E0,4.085999966E0,1.113000011E1,1.514546212E1
9.097605930E-1,-9.654000282E0,3.472050190E0,1.036305046E1,1.458244386E1
9.117243360E-1,-9.654000282E0,2.896950245E0,1.001805019E1,1.421102994E1
9.136875250E-1,-9.385050774E0,2.284050226E0,9.634950638E0,1.364288596E1
9.156508760E-1,-9.270000458E0,1.786050081E0,9.558000565E0,1.343421967E1
9.176144000E-1,-9.309000015E0,1.441050053E0,9.405000687E0,1.331120372E1
9.195778740E-1,-9.385050774E0,1.173000097E0,9.328050613E0,1.328411215E1
9.215412990E-1,-9.385050774E0,9.040500522E-1,9.367050171E0,1.329052721E1
9.235047320E-1,-9.309000015E0,6.360000372E-1,9.787950516E0,1.352279382E1
9.254682420E-1,-9.309000015E0,5.209500194E-1,9.942000389E0,1.362982912E1
9.274317300E-1,-9.193950653E0,5.590500236E-1,1.032495022E1,1.383639630E1
9.293953220E-1,-9.385050774E0,9.430500269E-1,1.047795010E1,1.409808354E1
9.313588840E-1,-9.385050774E0,9.430500269E-1,1.059300041E1,1.418379988E1
9.333222250E-1,-9.232050896E0,9.810000658E-1,1.090005016E1,1.431796838E1
9.352856410E-1,-9.538950920E0,1.249050021E0,1.074705029E1,1.442396618E1
9.372490200E-1,-9.462000847E0,1.096050024E0,1.047795010E1,1.416044575E1
9.392124100E-1,-9.154950142E0,9.810000658E-1,1.063200092E1,1.406466910E1
9.411755690E-1,-9.079050064E0,1.249050021E0,1.086195087E1,1.421165905E1
9.431387950E-1,-8.887050629E0,1.479000092E0,1.120695019E1,1.437925042E1
9.451020020E-1,-8.464950562E0,1.633050084E0,1.185795021E1,1.466060107E1
9.470652310E-1,-8.311950684E0,1.786050081E0,1.277805042E1,1.534786864E1
9.490284620E-1,-8.082000732E0,1.863000035E0,1.362105083E1,1.594749293E1
9.509916920E-1,-8.158950806E0,2.322000027E0,1.400400066E1,1.637291046E1
9.529549230E-1,-8.197050095E0,2.437050104E0,1.396605110E1,1.637624581E1
9.549181540E-1,-8.005949974E0,2.398950100E0,1.362105083E1,1.598071408E1
9.568819650E-1,-7.891050339E0,2.322000027E0,1.316100025E1,1.552006080E1
9.588456100E-1,-8.197050095E0,2.782050133E0,1.193505096E1,1.474370627E1
9.608089060E-1,-8.350950241E0,2.935950041E0,1.070805073E1,1.389318261E1
9.627723050E-1,-8.389050484E0,3.166050196E0,9.252000809E0,1.288408168E1
9.647355070E-1,-8.695050240E0,3.511050224E0,7.603950500E0,1.207275592E1
9.666987660E-1,-8.082000732E0,3.241950035E0,6.070950508E0,1.061533871E1
9.686620110E-1,-8.121000290E0,3.433950186E0,4.116000175E0,9.730576398E0
9.706252470E-1,-7.966950417E0,3.357000113E0,2.928000212E0,9.127701460E0
9.725894220E-1,-7.699050426E0,3.204000235E0,1.510050058E0,8.474741657E0
9.745533220E-1,-7.276950359E0,2.935950041E0,1.300500035E-1,7.847975674E0
9.765169340E-1,-7.009050369E0,2.821050167E0,-1.210950017E0,7.651895913E0
9.784806310E-1,-6.664050102E0,2.667000055E0,-2.629050016E0,7.644236852E0
9.804443330E-1,-6.396000385E0,2.208000183E0,-3.357000113E0,7.553379078E0
9.824080260E-1,-6.204000473E0,1.978050113E0,-3.625050068E0,7.452737223E0
9.843718970E-1,-6.013050079E0,1.978050113E0,-4.736999989E0,7.906239460E0
9.863357160E-1,-5.629050255E0,1.824000120E0,-5.272950172E0,7.925729413E0
9.882990720E-1,-5.476050377E0,1.671000123E0,-5.695050240E0,8.075454561E0
9.902625640E-1,-5.398950100E0,1.326000094E0,-6.040050507E0,8.209089386E0
9.922260940E-1,-5.092950344E0,1.057950020E0,-6.001950264E0,7.942342754E0
9.941896240E-1,-4.747950077E0,8.280000687E-1,-6.001950264E0,7.697533437E0
9.961531640E-1,-4.518000126E0,5.209500194E-1,-6.001950264E0,7.530413072E0
9.981167010E-1,-4.288050175E0,4.830000103E-1,-6.078000069E0,7.454042403E0
1.000080061E0,-4.096050262E0,4.440000355E-1,-6.078000069E0,7.342809314E0
1.002043473E0,-4.018949986E0,2.140500098E-1,-5.733000278E0,7.004646214E0
1.004007907E0,-3.790050268E0,2.295000106E-2,-5.043000221E0,6.308475170E0
1.005972028E0,-3.636000156E0,-1.290000081E-1,-4.200000286E0,5.556720305E0
1.007935468E0,-3.406050205E0,-2.059500068E-1,-3.549000263E0,4.923311515E0
1.009899107E0,-3.022950172E0,-3.979500234E-1,-2.896950245E0,4.205818908E0
1.011862628E0,-2.830950022E0,-6.660000086E-1,-2.514000177E0,3.844220458E0
1.013826184E0,-2.371050119E0,-1.240950108E0,-2.284050226E0,3.518340699E0
1.015789899E0,-1.987950087E0,-1.893000126E0,-2.284050226E0,3.571033528E0
1.017753567E0,-1.758000135E0,-2.314050198E0,-2.551950216E0,3.867537033E0
1.019717129E0,-1.567050099E0,-2.889000177E0,-2.974050045E0,4.432487079E0
1.021680722E0,-1.413000107E0,-3.541050196E0,-3.357000113E0,5.079867670E0
1.023644430E0,-1.528050065E0,-4.077000141E0,-4.468050003E0,6.238616672E0
1.025608105E0,-1.987950087E0,-4.882050037E0,-7.150950432E0,8.883830829E0
1.027571242E0,-2.218050003E0,-6.454050541E0,-1.125195026E1,1.315982139E1
1.029534550E0,-1.605000019E0,-8.638050079E0,-1.573695087E1,1.802341691E1
1.031498983E0,-3.299999982E-2,-1.101495075E1,-1.838100052E1,2.142875193E1
1.033463086E0,1.804950118E0,-1.293105030E1,-1.853505135E1,2.267196584E1
1.035426033E0,3.721950293E0,-1.454100037E1,-1.734705162E1,2.293935059E1
1.037389319E0,5.523000240E0,-1.611194992E1,-1.608195114E1,2.342493574E1
1.039352860E0,6.750000477E0,-1.710900116E1,-1.470195103E1,2.354629039E1
1.041316322E0,7.669050217E0,-1.798995018E1,-1.278600025E1,2.336524002E1
1.043279559E0,8.320950508E0,-1.837305069E1,-1.109895039E1,2.302159657E1
1.045242862E0,8.781000137E0,-1.837305069E1,-9.681000710E0,2.254765464E1
1.047206395E0,9.508950233E0,-1.829700089E1,-7.458000183E0,2.192765703E1
1.049169860E0,9.816000938E0,-1.779900169E1,-5.158050060E0,2.097054640E1
1.051133076E0,9.969000816E0,-1.749195099E1,-3.280050039E0,2.039872680E1
1.053096348E0,9.816000938E0,-1.695495033E1,-7.890000343E-1,1.960731334E1
1.055058670E0,9.433050156E0,-1.634205055E1,2.200050116E0,1.899698060E1
1.057021271E0,8.704050064E0,-1.542195034E1,5.151000023E0,1.844260939E1
1.058984834E0,7.438950539E0,-1.427205086E1,8.332050323E0,1.812325808E1
1.060948115E0,5.715000153E0,-1.285395050E1,1.124505043E1,1.800934284E1
1.062911682E0,3.952050209E0,-1.135905075E1,1.339095020E1,1.799900781E1
1.064875144E0,2.304000139E0,-1.005600071E1,1.465605068E1,1.792292913E1
1.066837615E0,9.619500637E-1,-9.021000862E0,1.477095032E1,1.733449676E1
1.068800377E0,-3.299999982E-2,-8.254950523E0,1.362105083E1,1.592728235E1
1.070763912E0,-7.230000496E-1,-7.795050144E0,1.166595078E1,1.404919725E1
1.072727221E0,-1.336950064E0,-7.948050499E0,9.442950249E0,1.241483998E1
1.074690366E0,-1.681950092E0,-8.485050201E0,7.258950233E0,1.129235987E1
1.076653579E0,-2.103000164E0,-9.481050491E0,5.496000290E0,1.115880582E1
1.078617352E0,-2.716050148E0,-1.090005016E1,4.461000443E0,1.208670952E1
1.080580961E0,-3.751050234E0,-1.250895023E1,4.537950039E0,1.382523795E1
1.082544534E0,-5.053950310E0,-1.457895088E1,5.380950451E0,1.634144578E1
1.084508117E0,-6.702000141E0,-1.741500092E1,7.219950199E0,2.000816692E1
1.086471431E0,-9.309000015E0,-2.151600075E1,1.097700024E1,2.588610252E1
1.088434818E0,-1.187700081E1,-2.488905144E1,9.750000000E0,2.925047914E1
1.090399103E0,-1.413795090E1,-2.649900055E1,3.618000269E0,3.025175386E1
1.092363124E0,-1.582395077E1,-2.672895050E1,-9.810000658E-1,3.107726780E1
1.094326400E0,-1.762605095E1,-2.718900108E1,-3.931950092E0,3.264015447E1
1.096289895E0,-1.908195114E1,-2.795505142E1,-4.545000076E0,3.415058982E1
1.098253306E0,-1.977195168E1,-2.899005127E1,-3.280050039E0,3.524360756E1
1.100216742E0,-1.969500160E1,-2.979495049E1,-2.514000177E0,3.580436230E1
1.102180252E0,-1.915904999E1,-3.002505112E1,-2.629050016E0,3.571392999E1
1.104143740E0,-1.800900078E1,-2.983305168E1,-3.165000200E0,3.499074603E1
1.106107332E0,-1.609305000E1,-2.902800179E1,-2.820000172E0,3.331011178E1
1.108070893E0,-1.352505112E1,-2.734200096E1,-1.747050047E0,3.055428298E1
1.110033328E0,-1.045905018E1,-2.477400208E1,-9.900000691E-2,2.689149885E1
1.111996107E0,-7.621950150E0,-2.174595070E1,1.395000100E0,2.308520135E1
1.113960315E0,-5.361000061E0,-1.856505013E1,1.663050056E0,1.939502883E1
1.115924105E0,-4.134000301E0,-1.553700066E1,-3.289500177E-1,1.608093766E1
1.117887556E0,-3.943050146E0,-1.316100025E1,-2.053950071E0,1.389166235E1
1.119851107E0,-4.096050262E0,-1.155105019E1,-3.319050074E0,1.269726276E1
1.121814352E0,-4.402950287E0,-1.063095093E1,-4.315050125E0,1.228913123E1
1.123777670E0,-4.402950287E0,-1.047795010E1,-5.388000488E0,1.257791552E1
1.125740840E0,-4.326000214E0,-1.082295036E1,-6.270000458E0,1.323493250E1
1.127704054E0,-4.441050053E0,-1.113000011E1,-6.307950497E0,1.354215890E1
1.129667512E0,-4.824000359E0,-1.113000011E1,-5.119950294E0,1.316669180E1
1.131630898E0,-5.437950134E0,-1.093800068E1,-2.896950245E0,1.255402251E1
1.133593241E0,-5.898000240E0,-1.090005016E1,-1.759500057E-1,1.239469478E1
1.135555862E0,-5.859000206E0,-1.105305099E1,2.620950222E0,1.278151790E1
1.137519376E0,-5.053950310E0,-1.155105019E1,4.806000233E0,1.349321357E1
1.139482629E0,-3.904950142E0,-1.231800079E1,6.109050274E0,1.429343466E1
1.141446036E0,-2.640000105E0,-1.339095020E1,7.411950588E0,1.553139271E1
1.143409398E0,-1.336950064E0,-1.427205086E1,8.754000664E0,1.679617215E1
1.145372766E0,-3.780000210E-1,-1.492395115E1,1.013295078E1,1.804283496E1
1.147336116E0,1.960500032E-1,-1.549905109E1,1.166595078E1,1.939983062E1
1.149300272E0,8.089500666E-1,-1.591995049E1,1.335300064E1,2.079427445E1
1.151264191E0,1.498950124E0,-1.645695114E1,1.496295071E1,2.229277879E1
1.153227260E0,2.380050182E0,-1.707000160E1,1.641900063E1,2.380405795E1
1.155190578E0,3.262050152E0,-1.772205162E1,1.760700035E1,2.519362114E1
1.157153789E0,4.297049999E0,-1.837305069E1,1.860405159E1,2.649800683E1
1.159117035E0,4.987050056E0,-1.906305122E1,1.933200073E1,2.760429029E1
1.161080443E0,5.560950279E0,-1.971495056E1,2.021400070E1,2.877862519E1
1.163043803E0,5.905950069E0,-2.040495110E1,2.098005104E1,2.985640328E1
1.165007417E0,5.791050434E0,-2.094105148E1,2.205300140E1,3.095801630E1
1.166970957E0,5.983050346E0,-2.178495026E1,2.243700027E1,3.184022504E1
1.168934674E0,5.983050346E0,-2.270400047E1,2.312595177E1,3.295570018E1
1.170898308E0,5.715000153E0,-2.350905037E1,2.377800179E1,3.392241213E1
1.172861696E0,5.140050411E0,-2.419905090E1,2.381595039E1,3.433968078E1
1.174825156E0,4.909950256E0,-2.504205132E1,2.362500191E1,3.477574817E1
1.176788842E0,4.948050022E0,-2.565600204E1,2.255205154E1,3.451533962E1
1.178752462E0,5.140050411E0,-2.638395119E1,2.071200180E1,3.393405394E1
1.180715672E0,5.599950314E0,-2.707395172E1,1.902495003E1,3.356049804E1
1.182679003E0,6.060000420E0,-2.745705223E1,1.730100060E1,3.301420821E1
1.184642396E0,6.520050526E0,-2.761005211E1,1.511595058E1,3.214526401E1
1.186605770E0,7.018050194E0,-2.764905167E1,1.224105072E1,3.104136610E1
1.188569292E0,7.975950241E0,-2.810895157E1,8.446949959E0,3.041512624E1
1.190532770E0,9.547050476E0,-2.902800179E1,4.996950150E0,3.096353616E1
1.192495989E0,1.115700054E1,-2.964195061E1,2.583000183E0,3.177728413E1
1.194459295E0,1.192395020E1,-2.952705193E1,4.360500276E-1,3.184678199E1
1.196423008E0,1.192395020E1,-2.902800179E1,-1.555950046E0,3.142016003E1
1.198386601E0,1.150200081E1,-2.810895157E1,-3.165000200E0,3.053565796E1
1.200349636E0,1.092705059E1,-2.695905113E1,-3.931950092E0,2.935389419E1
1.202312834E0,1.073595047E1,-2.577105141E1,-3.931950092E0,2.819340268E1
1.204276199E0,1.100400066E1,-2.485095024E1,-4.621950150E0,2.756846353E1
1.206239519E0,1.088895035E1,-2.404605103E1,-5.848050117E0,2.703666954E1
1.208202600E0,1.058205032E1,-2.304900169E1,-7.573050499E0,2.646861088E1
1.210165752E0,1.031400013E1,-2.224500084E1,-9.604050636E0,2.633356128E1
1.212128771E0,9.700950623E0,-2.132505035E1,-1.217205048E1,2.640123157E1
1.214091829E0,8.781000137E0,-2.082600021E1,-1.481700039E1,2.702539082E1
1.216055083E0,8.014050484E0,-2.067300034E1,-1.642695045E1,2.759425029E1
1.218018283E0,6.903000355E0,-2.078805161E1,-1.707795143E1,2.777500546E1
1.219981745E0,5.370000362E0,-2.074995041E1,-1.773000145E1,2.781636743E1
1.221945130E0,3.837000132E0,-2.063505173E1,-1.769099998E1,2.744994372E1
1.223908290E0,2.725050211E0,-2.052000046E1,-1.681005096E1,2.666597328E1
1.225871516E0,1.690050125E0,-2.040495110E1,-1.585200119E1,2.589409663E1
1.227834236E0,5.410500169E-1,-2.002200127E1,-1.470195103E1,2.484593797E1
1.229797084E0,-6.079500318E-1,-1.960005188E1,-1.343700027E1,2.377150844E1
1.231760559E0,-2.103000164E0,-1.906305122E1,-1.205700016E1,2.265378080E1
1.233723851E0,-3.445050240E0,-1.864200020E1,-1.163595009E1,2.224382784E1
1.235687117E0,-4.786050320E0,-1.841205025E1,-1.175100040E1,2.236058770E1
1.237650391E0,-5.092950344E0,-1.837305069E1,-1.167405033E1,2.235599664E1
1.239613974E0,-5.398950100E0,-1.856505013E1,-1.190400028E1,2.270495477E1
1.241577466E0,-6.051000118E0,-1.845000076E1,-1.240200043E1,2.303967763E1
1.243540789E0,-6.472050190E0,-1.837305069E1,-1.270905018E1,2.325889898E1
1.245504161E0,-6.702000141E0,-1.871805000E1,-1.267095089E1,2.357615741E1
1.247467412E0,-7.047000408E0,-1.898700142E1,-1.274700069E1,2.393015805E1
1.249430699E0,-7.239000320E0,-1.906305122E1,-1.251705074E1,2.392654607E1
1.251394401E0,-7.776000500E0,-1.883295059E1,-1.297695065E1,2.415672701E1
1.253357991E0,-7.966950417E0,-1.887195015E1,-1.362900066E1,2.460431792E1
1.255321206E0,-7.737000465E0,-1.891005135E1,-1.439505100E1,2.499337335E1
1.257284531E0,-7.468950272E0,-1.875705147E1,-1.566000080E1,2.555088693E1
1.259247925E0,-6.970950127E0,-1.860300064E1,-1.684800148E1,2.604843436E1
1.261211298E0,-5.974050522E0,-1.879500008E1,-1.811295128E1,2.677723495E1
1.263174898E0,-4.671000004E0,-1.887195015E1,-1.922504997E1,2.734174994E1
1.265138408E0,-2.563050032E0,-1.933200073E1,-1.995300102E1,2.790013849E1
1.267102808E0,-1.099500060E-1,-1.971495056E1,-2.048895073E1,2.843393161E1
1.269066947E0,2.304000139E0,-1.983000183E1,-2.083395004E1,2.885465064E1
1.271030429E0,4.717950344E0,-1.983000183E1,-2.068095016E1,2.903772938E1
1.272994103E0,6.940950394E0,-1.956195068E1,-2.025900078E1,2.900472064E1
1.274957773E0,8.818950653E0,-1.914000130E1,-1.983795166E1,2.894231964E1
1.276921430E0,1.039095020E1,-1.856505013E1,-1.918605042E1,2.864851589E1
1.278884453E0,1.169400024E1,-1.779900169E1,-1.857299995E1,2.825792686E1
1.280847661E0,1.265205097E1,-1.676399994E1,-1.795995140E1,2.763450637E1
1.282811210E0,1.341900063E1,-1.561395073E1,-1.750005150E1,2.702067426E1
1.284774659E0,1.407000065E1,-1.450200081E1,-1.673295021E1,2.623479690E1
1.286738407E0,1.460700035E1,-1.339095020E1,-1.577505112E1,2.532852630E1
1.288702058E0,1.514295101E1,-1.243305016E1,-1.477905083E1,2.454200572E1
1.290665757E0,1.583295059E1,-1.151295090E1,-1.355205059E1,2.380941910E1
1.292629442E0,1.640805054E1,-1.082295036E1,-1.182705021E1,2.293991050E1
1.294592596E0,1.694505119E1,-1.017105007E1,-9.873000145E0,2.209210609E1
1.296555906E0,1.778805161E1,-9.595950127E0,-7.687950134E0,2.162409804E1
1.298519128E0,1.855395126E1,-9.250950813E0,-5.005050182E0,2.132790955E1
1.300482373E0,1.916805077E1,-8.752950668E0,-2.398950100E0,2.120809461E1
1.302444880E0,2.001105118E1,-8.254950523E0,1.050000072E0,2.167230670E1
1.304407603E0,2.085405159E1,-7.527000427E0,3.502950191E0,2.244588744E1
1.306371100E0,2.165895081E1,-6.837000370E0,6.070950508E0,2.350980996E1
1.308334371E0,2.246400070E1,-6.645000458E0,7.872000217E0,2.471347297E1
1.310297612E0,2.273205185E1,-6.184950352E0,8.983950615E0,2.521331317E1
1.312260882E0,2.257905197E1,-5.878950119E0,1.009500027E1,2.542212959E1
1.314224465E0,2.204205132E1,-5.380050182E0,1.093800068E1,2.518802940E1
1.316187957E0,2.146695137E1,-4.882050037E0,1.159005070E1,2.487958378E1
1.318151458E0,2.100705147E1,-4.269000053E0,1.147500038E1,2.431452666E1
1.320114957E0,2.031795120E1,-3.616950274E0,1.101495075E1,2.339296070E1
1.322078709E0,1.951305008E1,-3.118950129E0,1.059300041E1,2.242094180E1
1.324042400E0,1.840095139E1,-2.506050110E0,9.214050293E0,2.073099182E1
1.326005868E0,1.736595154E1,-1.969050050E0,7.795050144E0,1.913677710E1
1.327969402E0,1.633095169E1,-1.356000066E0,6.531000137E0,1.764065424E1
1.329932761E0,1.560300064E1,-7.810500264E-1,4.996950150E0,1.640223091E1
1.331896171E0,1.498995113E1,-2.830500007E-1,3.234000206E0,1.533745447E1
1.333859011E0,1.456800079E1,2.295000106E-2,1.816050053E0,1.468077694E1
1.335822050E0,1.437705040E1,2.530499995E-1,4.750500321E-1,1.438712219E1
1.337786033E0,1.407000065E1,5.209500194E-1,-8.269500136E-1,1.410390561E1
1.339749740E0,1.349505043E1,9.040500522E-1,-2.014950037E0,1.367456457E1
1.341713251E0,1.295895100E1,1.288050056E0,-3.472050190E0,1.347770813E1
1.343676819E0,1.246005058E1,1.555950046E0,-5.158050060E0,1.357495199E1
1.345640122E0,1.203900051E1,1.633050084E0,-6.844950199E0,1.394481011E1
1.347603506E0,1.127205086E1,1.863000035E0,-8.032950401E0,1.396632349E1
1.349566935E0,1.031400013E1,2.053950071E0,-8.799000740E0,1.371202843E1
1.351530351E0,9.355950356E0,2.053950071E0,-8.799000740E0,1.300672641E1
1.353494045E0,8.436000824E0,1.978050113E0,-8.530950546E0,1.215960153E1
1.355457658E0,7.975950241E0,1.863000035E0,-7.995000362E0,1.144581068E1
1.357421331E0,7.363050461E0,1.863000035E0,-7.650000572E0,1.077997171E1
1.359385010E0,6.442950249E0,1.747950077E0,-7.075050354E0,9.727449557E0
1.361348165E0,5.599950314E0,1.555950046E0,-6.040050507E0,8.382280965E0
1.363311474E0,4.909950256E0,1.210950017E0,-5.311950207E0,7.334222962E0
1.365275050E0,4.105050087E0,8.659500480E-1,-4.545000076E0,6.185331955E0
1.367238548E0,3.262050152E0,3.679500222E-1,-3.855000257E0,5.063337377E0
1.369202513E0,2.572050095E0,2.295000106E-2,-2.896950245E0,3.874053318E0
1.371166332E0,1.959000111E0,-2.440500110E-1,-1.939050078E0,2.767156853E0
1.373129598E0,1.269000053E0,-5.130000114E-1,-1.249050021E0,1.853012710E0
1.375093026E0,5.790000558E-1,-6.660000086E-1,-5.209500194E-1,1.024785831E0
1.377054961E0,-7.200000435E-2,-7.810500264E-1,2.070000172E-1,8.112164640E-1
1.379017334E0,-5.320500135E-1,-1.048950076E0,7.050000429E-1,1.371276245E0
1.380981086E0,-1.068000078E0,-1.203000069E0,9.349500537E-1,1.860635627E0
1.382944424E0,-1.528050065E0,-1.509000063E0,1.050000072E0,2.390505876E0
1.384908583E0,-1.950000048E0,-1.854000092E0,7.050000429E-1,2.781517856E0
1.386872501E0,-2.103000164E0,-2.506050110E0,5.295000225E-2,3.271956685E0
1.388835434E0,-1.987950087E0,-3.271950245E0,-5.209500194E-1,3.863805491E0
1.390798656E0,-2.448000193E0,-3.771000147E0,-1.249050021E0,4.666183988E0
1.392762058E0,-2.946000099E0,-4.461000443E0,-2.092050076E0,5.740741681E0
1.394725414E0,-3.061050177E0,-4.996950150E0,-2.437050104E0,6.346554356E0
1.396688444E0,-2.985000134E0,-5.380050182E0,-2.820000172E0,6.768128747E0
1.398651570E0,-3.100050211E0,-5.725050449E0,-3.472050190E0,7.378458273E0
1.400614772E0,-3.214950085E0,-6.184950352E0,-4.200000286E0,8.138151959E0
1.402577952E0,-3.406050205E0,-6.492000103E0,-4.813050270E0,8.769988383E0
1.404541202E0,-3.445050240E0,-6.760050297E0,-5.350050449E0,9.283840314E0
1.406504424E0,-3.520950079E0,-6.952050209E0,-5.695050240E0,9.652030294E0
1.408467882E0,-3.406050205E0,-7.219950199E0,-5.617950439E0,9.761671272E0
1.410431270E0,-3.175950050E0,-7.603050232E0,-5.197050095E0,9.741784294E0
1.412394789E0,-2.677950144E0,-8.101950645E0,-4.200000286E0,9.510679452E0
1.414358270E0,-2.256000042E0,-8.562000275E0,-3.127050161E0,9.390198486E0
1.416321808E0,-1.528050065E0,-9.136050224E0,-2.092050076E0,9.496263698E0
1.418285337E0,-7.230000496E-1,-9.787950516E0,-5.970000029E-1,9.832757160E0
1.420248562E0,4.200000316E-2,-1.040100002E1,1.395000100E0,1.049421701E1
1.422211877E0,9.619500637E-1,-1.109100056E1,3.043050051E0,1.154104826E1
1.424175273E0,1.843950033E0,-1.185795021E1,4.498950005E0,1.281607140E1
1.426138645E0,2.380050182E0,-1.277805042E1,5.074050426E0,1.395310715E1
1.428101833E0,2.686950207E0,-1.385100079E1,4.653000355E0,1.485665967E1
1.430065089E0,3.147000074E0,-1.511595058E1,3.808950186E0,1.590294542E1
1.432028449E0,3.568050146E0,-1.634205055E1,3.234000206E0,1.703679417E1
1.433991779E0,4.335000038E0,-1.749195099E1,2.773950100E0,1.823335882E1
1.435954814E0,5.791050434E0,-1.871805000E1,3.771000147E0,1.995299735E1
1.437917935E0,7.018050194E0,-1.994505119E1,7.029000282E0,2.228149323E1
1.439881053E0,6.366000175E0,-2.067300034E1,1.327605057E1,2.538015799E1
1.441844170E0,5.560950279E0,-2.178495026E1,1.710900116E1,2.825289625E1
1.443807195E0,5.905950069E0,-2.343300056E1,1.411905098E1,2.798809322E1
1.445770247E0,6.979950428E0,-2.550195122E1,9.712050438E0,2.816723536E1
1.447734589E0,7.783950329E0,-2.726505089E1,4.498950005E0,2.870911761E1
1.449698553E0,8.014050484E0,-2.910495186E1,-1.632000089E0,3.023221216E1
1.451661507E0,7.783950329E0,-3.067695236E1,-7.075050354E0,3.243025788E1
1.453624737E0,8.091000557E0,-3.255495071E1,-1.109895039E1,3.533377712E1
1.455587833E0,8.320950508E0,-3.454800034E1,-1.684800148E1,3.932756919E1
1.457550968E0,8.167950630E0,-3.615705109E1,-1.949295044E1,4.188105631E1
1.459514350E0,8.206049919E0,-3.795900345E1,-1.845795059E1,4.299908299E1
1.461477659E0,8.743050575E0,-4.060305023E1,-1.891800117E1,4.563923082E1
1.463440723E0,9.508950233E0,-4.347795105E1,-1.864995003E1,4.825528985E1
1.465403872E0,9.700950623E0,-4.604595184E1,-1.872600174E1,5.064584154E1
1.467367476E0,9.661950111E0,-4.849905396E1,-1.799805069E1,5.262548188E1
1.469330947E0,1.012200069E1,-5.072205353E1,-1.773000145E1,5.467663636E1
1.471294452E0,9.816000938E0,-5.229300308E1,-1.730805016E1,5.595069835E1
1.473257947E0,8.934000015E0,-5.405595398E1,-1.623495102E1,5.714399489E1
1.475221155E0,7.899000168E0,-5.593395233E1,-1.512405109E1,5.847852724E1
1.477184464E0,7.056000233E0,-5.785095215E1,-1.332195091E1,5.978289203E1
1.479148041E0,7.477950573E0,-5.988195419E1,-1.014105034E1,6.119321110E1
1.481111539E0,1.042905045E1,-6.160695267E1,-7.611000538E0,6.294528608E1
1.483075039E0,1.196205044E1,-6.256500244E1,-5.925000191E0,6.397324291E1
1.485038539E0,1.169400024E1,-6.283305359E1,-4.507050037E0,6.407070910E1
1.487001891E0,1.012200069E1,-6.260295486E1,-3.894000292E0,6.353540819E1
1.488965296E0,7.516050339E0,-6.175995255E1,-2.859000206E0,6.228127032E1
1.490928721E0,4.872000217E0,-6.064905167E1,-1.326000094E0,6.085887060E1
1.492892140E0,3.184950113E0,-5.949900436E1,-7.510500550E-1,5.958892098E1
1.494854574E0,7.320000529E-1,-5.750595093E1,-4.819500148E-1,5.751262898E1
1.496817296E0,-2.332950115E0,-5.470800400E1,-9.900000691E-2,5.475781368E1
1.498780497E0,-5.016000271E0,-5.098995209E1,-5.970000029E-1,5.123955388E1
1.500743544E0,-6.396000385E0,-4.627605057E1,-5.209500194E-1,4.671887270E1
1.502706941E0,-7.047000408E0,-4.217505264E1,-8.269500136E-1,4.276773464E1
1.504670236E0,-8.158950806E0,-3.880200195E1,-8.659500480E-1,3.965997609E1
1.506632601E0,-8.848950386E0,-3.493095016E1,-2.205000073E-2,3.603436816E1
1.508595238E0,-9.154950142E0,-3.129000092E1,3.979500234E-1,3.260422724E1
1.510558594E0,-9.232050896E0,-2.837700081E1,9.349500537E-1,2.985563716E1
1.512521722E0,-8.619000435E0,-2.573205185E1,1.855050087E0,2.720049396E1
1.514484970E0,-7.737000465E0,-2.347095108E1,3.310950041E0,2.493409535E1
1.516448183E0,-6.396000385E0,-2.167005157E1,4.231050014E0,2.298699068E1
1.518411552E0,-5.361000061E0,-1.994505119E1,5.112000465E0,2.127622940E1
1.520374875E0,-4.518000126E0,-1.837305069E1,5.496000290E0,1.970247030E1
1.522338295E0,-3.981000185E0,-1.691700172E1,5.878950119E0,1.834653549E1
1.524301669E0,-3.636000156E0,-1.565205097E1,6.492000103E0,1.733070287E1
1.526264696E0,-3.291000128E0,-1.419600105E1,6.952050209E0,1.614583940E1
1.528227825E0,-3.061050177E0,-1.285395050E1,7.219950199E0,1.505728238E1
1.530191433E0,-2.716050148E0,-1.166595078E1,7.527000427E0,1.414662756E1
1.532154900E0,-2.179949999E0,-1.093800068E1,7.527000427E0,1.345539952E1
1.534118326E0,-1.605000019E0,-1.044000053E1,7.411950588E0,1.290374549E1
1.536081757E0,-9.919500351E-1,-9.787950516E0,7.450050354E0,1.234063169E1
1.538045133E0,-5.700000525E-1,-9.136050224E0,7.450050354E0,1.180235417E1
1.540008526E0,-1.480500102E-1,-8.446949959E0,7.374000549E0,1.121377575E1
1.541972088E0,-1.870500147E-1,-7.642050266E0,7.411950588E0,1.064767259E1
1.543935601E0,-5.320500135E-1,-6.568950176E0,7.258950233E0,9.804414420E0
1.545899090E0,-7.999500632E-1,-5.457000256E0,7.297050476E0,9.146896607E0
1.547862593E0,-1.297950029E0,-4.269000053E0,7.335000515E0,8.585526675E0
1.549825957E0,-1.413000107E0,-3.426000118E0,7.105050564E0,8.013475502E0
1.551789362E0,-1.642950058E0,-2.391000032E0,7.105050564E0,7.674497349E0
1.553751707E0,-1.452000022E0,-1.356000066E0,7.029000282E0,7.304374389E0
1.555714362E0,-1.297950029E0,5.209500194E-1,7.144050121E0,7.279664507E0
1.557677871E0,-1.336950064E0,2.398950100E0,6.991050243E0,7.511137102E0
1.559641129E0,-1.030050039E0,3.549000263E0,6.876000404E0,7.806137810E0
1.561604491E0,-3.400500119E-1,4.507050037E0,6.760950089E0,8.132624432E0
1.563567822E0,-3.299999982E-2,5.503950119E0,6.415950298E0,8.453341005E0
1.565531937E0,5.020500422E-1,6.193950176E0,6.492000103E0,8.986831386E0
1.567495822E0,1.039050102E0,6.922050476E0,6.454050541E0,9.520986099E0
1.569457855E0,1.000050068E0,8.032950401E0,6.607050419E0,1.044899553E1
1.571420434E0,3.109500110E-1,9.412950516E0,6.646050453E0,1.152693862E1
1.573383956E0,-4.170000255E-1,1.083105087E1,7.144050121E0,1.298164104E1
1.575347201E0,-1.106999993E0,1.194300079E1,7.450050354E0,1.411963056E1
1.577310295E0,-1.720050097E0,1.255605030E1,7.872000217E0,1.491916080E1
1.579273434E0,-2.332950115E0,1.278600025E1,8.677050591E0,1.562740112E1
1.581236680E0,-2.677950144E0,1.263300037E1,9.175050735E0,1.584126483E1
1.583199894E0,-3.214950085E0,1.255605030E1,9.673050880E0,1.617276156E1
1.585163308E0,-3.636000156E0,1.221105099E1,1.009500027E1,1.625543890E1
1.587126663E0,-4.288050175E0,1.190400028E1,1.059300041E1,1.650164400E1
1.589089693E0,-5.053950310E0,1.159800053E1,1.090005016E1,1.669931506E1
1.591052819E0,-5.935950279E0,1.102305031E1,1.120695019E1,1.680294249E1
1.593016202E0,-6.166050434E0,1.014105034E1,1.185795021E1,1.677712917E1
1.594979509E0,-6.702000141E0,9.145050049E0,1.228005028E1,1.671371835E1
1.596942593E0,-6.894000530E0,7.995000362E0,1.270095062E1,1.651549033E1
1.598905742E0,-7.201050282E0,7.152000427E0,1.300800037E1,1.649891842E1
1.600868761E0,-7.737000465E0,6.462000370E0,1.358295059E1,1.691493931E1
1.602831819E0,-8.772000313E0,5.809950352E0,1.323795033E1,1.690996278E1
1.604794730E0,-9.424050331E0,4.813950062E0,1.293105030E1,1.670924599E1
1.606757708E0,-9.654000282E0,4.009050369E0,1.273995018E1,1.647964007E1
1.608720981E0,-1.007505035E1,3.433950186E0,1.262505054E1,1.651334475E1
1.610684167E0,-1.026705074E1,2.935950041E0,1.247100067E1,1.641822132E1
1.612647541E0,-1.049700069E1,2.245950222E0,1.208805084E1,1.616639382E1
1.614610860E0,-1.076505089E1,1.671000123E0,1.193505096E1,1.615933178E1
1.616574141E0,-1.095705032E1,1.134000063E0,1.231800079E1,1.652501290E1
1.618537419E0,-1.130205059E1,9.040500522E-1,1.166595078E1,1.626800730E1
1.620500461E0,-1.149300098E1,6.360000372E-1,1.139805031E1,1.619904684E1
1.622463573E0,-1.168500042E1,3.289500177E-1,1.139805031E1,1.632675699E1
1.624427544E0,-1.176195049E1,-5.295000225E-2,1.113000011E1,1.619330682E1
1.626391263E0,-1.176195049E1,-2.059500068E-1,1.105305099E1,1.614174189E1
1.628354967E0,-1.176195049E1,-2.440500110E-1,1.093800068E1,1.606371373E1
1.630318665E0,-1.126305008E1,-5.509500504E-1,1.086195087E1,1.565700546E1
1.632281996E0,-1.091805077E1,-6.280500293E-1,1.093800068E1,1.546732486E1
1.634245434E0,-1.072695065E1,-5.509500504E-1,1.074705029E1,1.519441035E1
1.636208449E0,-1.045905018E1,-4.740000367E-1,1.040205002E1,1.475869409E1
1.638171588E0,-1.034400082E1,-2.830500007E-1,9.979950905E0,1.437629612E1
1.640135154E0,-1.011405087E1,-2.830500007E-1,9.903000832E0,1.415780942E1
1.642098591E0,-9.691950798E0,-2.440500110E-1,9.252000809E0,1.340123090E1
1.644060886E0,-9.538950920E0,-1.290000081E-1,8.599950790E0,1.284396276E1
1.646023516E0,-9.654000282E0,9.900000691E-2,7.680000305E0,1.233660922E1
1.647987074E0,-9.769050598E0,6.739500165E-1,6.646050453E0,1.183463328E1
1.649950360E0,-9.654000282E0,1.134000063E0,5.841000080E0,1.134032449E1
1.651913901E0,-9.615000725E0,1.441050053E0,5.227050304E0,1.103842919E1
1.653877364E0,-9.346950531E0,1.863000035E0,5.074050426E0,1.079732565E1
1.655840961E0,-9.001950264E0,2.092950106E0,5.151000023E0,1.058056473E1
1.657804518E0,-8.427000046E0,2.284050226E0,5.841000080E0,1.050468929E1
1.659768234E0,-8.158950806E0,2.629050016E0,6.415950298E0,1.070723122E1
1.661731903E0,-7.929000378E0,3.051000118E0,6.607050419E0,1.076247016E1
1.663695274E0,-7.776000500E0,3.433950186E0,6.415950298E0,1.065000544E1
1.665658708E0,-7.392000198E0,3.625950098E0,6.109050274E0,1.025230102E1
1.667622444E0,-6.894000530E0,3.970950127E0,5.994000435E0,9.961110853E0
1.669586091E0,-6.357000351E0,4.315950394E0,4.843950272E0,9.083101645E0
1.671549432E0,-6.127950191E0,4.584000111E0,4.116000175E0,8.689435425E0
1.673512862E0,-5.821050167E0,4.929000378E0,3.349050045E0,8.330414514E0
1.675476792E0,-5.898000240E0,5.427000046E0,1.395000100E0,8.135401749E0
1.677440566E0,-5.782950401E0,5.772000313E0,5.899500251E-1,8.191858396E0
1.679404785E0,-5.553000450E0,5.772000313E0,-6.360000372E-1,8.034693377E0
1.681368874E0,-5.590950489E0,6.154950142E0,-2.359950066E0,8.643581603E0
1.683332139E0,-5.323050022E0,6.079050064E0,-3.357000113E0,8.749809197E0
1.685295645E0,-5.398950100E0,6.040050507E0,-3.817050219E0,8.955486847E0
1.687259014E0,-5.782950401E0,6.309000492E0,-4.890000343E0,9.856881145E0
1.689222419E0,-6.088950157E0,6.462000370E0,-5.733000278E0,1.056882467E1
1.691185800E0,-5.782950401E0,6.309000492E0,-5.848050117E0,1.036560142E1
1.693149189E0,-5.437950134E0,5.964000225E0,-6.078000069E0,1.010359764E1
1.695112573E0,-5.361000061E0,5.887050152E0,-6.691050529E0,1.040037684E1
1.697075958E0,-5.245950222E0,5.695050240E0,-6.921000481E0,1.038527027E1
1.699038963E0,-5.323050022E0,5.464950085E0,-7.228050232E0,1.050929356E1
1.701002093E0,-5.092950344E0,4.966950417E0,-7.266000271E0,1.016875113E1
1.702965880E0,-4.900950432E0,4.468950272E0,-6.805950165E0,9.503251513E0
1.704929475E0,-4.824000359E0,3.970950127E0,-6.307950497E0,8.878607089E0
1.706892600E0,-4.555950165E0,3.511050224E0,-5.427000046E0,7.908001333E0
1.708855862E0,-4.326000214E0,2.974050045E0,-4.545000076E0,6.943794151E0
1.710819432E0,-3.981000185E0,2.398950100E0,-3.433950186E0,5.778869953E0
1.712782922E0,-3.751050234E0,1.747950077E0,-2.437050104E0,4.802595188E0
1.714746335E0,-3.214950085E0,1.134000063E0,-1.861950040E0,3.884419923E0
1.716709770E0,-2.793000221E0,4.440000355E-1,-1.441050053E0,3.174052854E0
1.718674587E0,-2.256000042E0,-1.680000126E-1,-1.671000123E0,2.812472507E0
1.720638999E0,-1.758000135E0,-7.429500222E-1,-2.896950245E0,3.469129564E0
1.722602189E0,-1.375050068E0,-1.318050027E0,-4.852050304E0,5.212524409E0
1.724565751E0,-1.030050039E0,-1.893000126E0,-7.840950489E0,8.131725348E0
1.726529960E0,-3.400500119E-1,-3.042000055E0,-1.106100082E1,1.147672155E1
1.728493980E0,1.306950092E0,-4.996950150E0,-1.370505047E1,1.464602464E1
1.730457121E0,3.337950230E0,-7.105050564E0,-1.573695087E1,1.758622410E1
1.732420520E0,5.752950191E0,-9.405000687E0,-1.684800148E1,2.013468718E1
1.734383742E0,7.938000202E0,-1.147395039E1,-1.669500160E1,2.175744615E1
1.736347002E0,9.700950623E0,-1.319895077E1,-1.562205029E1,2.263557376E1
1.738310362E0,1.115700054E1,-1.450200081E1,-1.362900066E1,2.281526567E1
1.740273692E0,1.200000095E1,-1.565205097E1,-1.217205048E1,2.317640040E1
1.742236907E0,1.234500027E1,-1.657200050E1,-1.125195026E1,2.352948399E1
1.744200156E0,1.230705070E1,-1.726200104E1,-9.565950394E0,2.325827990E1
1.746163413E0,1.215405083E1,-1.768395042E1,-6.423000336E0,2.239861575E1
1.748126678E0,1.150200081E1,-1.772205162E1,-2.092050076E0,2.123072796E1
1.750089499E0,9.931050301E0,-1.695495033E1,3.388050079E0,1.993928244E1
1.752052450E0,8.167950630E0,-1.618905067E1,8.217000008E0,1.990778411E1
1.754015727E0,6.021000385E0,-1.534605026E1,1.185795021E1,2.030676457E1
1.755978909E0,3.837000132E0,-1.496205044E1,1.366005039E1,2.061995393E1
1.757942162E0,2.494950056E0,-1.538400078E1,1.323795033E1,2.044836386E1
1.759905385E0,8.850000501E-1,-1.615005112E1,1.128300095E1,1.972088960E1
1.761868122E0,-8.380500674E-1,-1.726200104E1,8.907000542E0,1.944257355E1
1.763831002E0,-2.601000071E0,-1.894799995E1,5.917050362E0,2.002007464E1
1.765795374E0,-4.249050140E0,-2.147805023E1,1.816050053E0,2.196950401E1
1.767759308E0,-6.088950157E0,-2.450595093E1,-2.092050076E0,2.533759299E1
1.769722384E0,-8.005949974E0,-2.757195091E1,-6.499950409E0,2.943734138E1
1.771685704E0,-9.807000160E0,-3.033195114E1,-6.460950375E0,3.252611861E1
1.773648018E0,-1.172295094E1,-3.236295319E1,-2.475000143E0,3.450962102E1
1.775610627E0,-1.402305031E1,-3.393405151E1,3.618000269E0,3.689519912E1
1.777574144E0,-1.712805176E1,-3.569700241E1,7.756950378E0,4.034620698E1
1.779537395E0,-2.004000092E1,-3.822705078E1,9.442950249E0,4.418233083E1
1.781500676E0,-2.218695068E1,-4.083300018E1,9.597000122E0,4.745205049E1
1.783463942E0,-2.291505051E1,-4.328595352E1,7.527000427E0,4.955228600E1
1.785427347E0,-2.145900154E1,-4.501095200E1,6.301050186E0,5.026109609E1
1.787390711E0,-1.793205070E1,-4.516395187E1,6.991050243E0,4.909394845E1
1.789354460E0,-1.375500107E1,-4.393800354E1,7.987050533E0,4.672837666E1
1.791318096E0,-9.232050896E0,-4.148505020E1,8.599950790E0,4.336126506E1
1.793281288E0,-4.824000359E0,-3.769095230E1,8.254950523E0,3.888474088E1
1.795244589E0,-1.144950032E0,-3.336000061E1,6.031950474E0,3.392027385E1
1.797209428E0,9.619500637E-1,-2.837700081E1,2.583000183E0,2.851054915E1
1.799173817E0,1.384050012E0,-2.312595177E1,-6.360000372E-1,2.317605954E1
1.801136129E0,1.960500032E-1,-1.829700089E1,-2.629050016E0,1.848595632E1
1.803099050E0,-1.795950055E0,-1.431105042E1,-3.394950151E0,1.481746561E1
1.805062499E0,-3.483000278E0,-1.109100056E1,-3.319050074E0,1.208956896E1
1.807025803E0,-4.786050320E0,-8.638050079E0,-2.743950129E0,1.024946092E1
1.808989517E0,-6.204000473E0,-6.721950531E0,-1.824000120E0,9.327444304E0
1.810953111E0,-7.315950394E0,-5.533950329E0,-4.060500264E-1,9.182189991E0
1.812915740E0,-7.392000198E0,-5.188950062E0,9.349500537E-1,9.079702709E0
1.814878652E0,-6.511050224E0,-5.380050182E0,2.353049994E0,8.767870851E0
1.816841971E0,-5.629050255E0,-5.802000046E0,3.847950220E0,8.952995711E0
1.818805178E0,-5.245950222E0,-5.955000401E0,5.035950184E0,9.399086006E0
1.820768548E0,-5.514000416E0,-6.070050240E0,5.764050484E0,1.002367141E1
1.822731870E0,-5.706000328E0,-6.300000191E0,6.492000103E0,1.069553680E1
1.824695086E0,-5.245950222E0,-6.837000370E0,7.029000282E0,1.112076494E1
1.826658334E0,-4.363950253E0,-7.527000427E0,7.297050476E0,1.135547194E1
1.828622087E0,-3.483000278E0,-8.217000008E0,7.335000515E0,1.155216917E1
1.830585702E0,-2.869950056E0,-9.097949982E0,7.411950588E0,1.208082442E1
1.832549228E0,-2.563050032E0,-9.940950394E0,7.297050476E0,1.259518423E1
1.834512781E0,-2.410050154E0,-1.078500080E1,7.374000549E0,1.328534787E1
1.836476317E0,-2.218050003E0,-1.178100014E1,7.642050266E0,1.421663259E1
1.838439858E0,-1.873050094E0,-1.270095062E1,7.872000217E0,1.505957671E1
1.840403560E0,-1.183050036E0,-1.369695091E1,8.140049934E0,1.597706120E1
1.842367226E0,-4.170000255E-1,-1.442595100E1,8.562000275E0,1.678063765E1
1.844331509E0,3.109500110E-1,-1.496205044E1,9.328050613E0,1.763440307E1
1.846295611E0,8.470500112E-1,-1.530705070E1,1.013295078E1,1.837661521E1
1.848259234E0,1.269000053E0,-1.569000053E1,1.120695019E1,1.932310043E1
1.850222997E0,1.345050097E0,-1.603499985E1,1.258605099E1,2.042887807E1
1.852186292E0,1.269000053E0,-1.653404999E1,1.392795086E1,2.165578411E1
1.854149742E0,1.000050068E0,-1.703205109E1,1.546095085E1,2.302459263E1
1.856112214E0,2.340000123E-1,-1.737705040E1,1.687905121E1,2.422641134E1
1.858074973E0,-2.629500031E-1,-1.791300011E1,1.860405159E1,2.582741666E1
1.860038419E0,-3.019500077E-1,-1.914000130E1,2.063505173E1,2.814669045E1
1.862001664E0,-1.480500102E-1,-2.082600021E1,2.335605049E1,3.129295924E1
1.863965283E0,-5.700000525E-1,-2.255100060E1,2.653800201E1,3.483013177E1
1.865928803E0,8.100000024E-2,-2.508105087E1,2.933505058E1,3.859547728E1
1.867892885E0,1.114950061E0,-2.826195145E1,3.082995224E1,4.183858229E1
1.869856803E0,1.767000079E0,-3.060000229E1,3.163500214E1,4.404833470E1
1.871820277E0,2.265000105E0,-3.244005203E1,3.132900238E1,4.515521666E1
1.873783882E0,3.031950235E0,-3.389595032E1,2.971905136E1,4.518130348E1
1.875747179E0,4.372950077E0,-3.500805283E1,2.787900162E1,4.496582242E1
1.877710570E0,6.213000298E0,-3.596595001E1,2.695905113E1,4.537555918E1
1.879674133E0,8.128950119E0,-3.665595245E1,2.615400124E1,4.575773662E1
1.881637645E0,1.023705006E1,-3.734595108E1,2.481300163E1,4.599132860E1
1.883600828E0,1.253700066E1,-3.769095230E1,2.140200043E1,4.512017169E1
1.885564108E0,1.548795033E1,-3.761400223E1,1.373595047E1,4.293443960E1
1.887528244E0,1.851600075E1,-3.769095230E1,1.011000037E0,4.200562213E1
1.889492120E0,1.901400185E1,-3.669405365E1,-1.213395023E1,4.307224846E1
1.891455241E0,2.008800125E1,-3.527595139E1,-2.869095230E1,4.971007226E1
1.893418584E0,2.139105034E1,-3.320595169E1,-4.268100357E1,5.815393648E1
1.895382020E0,2.004900169E1,-3.025500107E1,-5.283795166E1,6.410286027E1
1.897345428E0,1.717500114E1,-2.803200150E1,-5.103600311E1,6.070788570E1
1.899308791E0,1.472205067E1,-2.630700111E1,-4.586205292E1,5.488282957E1
1.901272180E0,1.169400024E1,-2.477400208E1,-4.130100250E1,4.956080738E1
1.903235519E0,8.896050453E0,-2.393100166E1,-3.835005188E1,4.607123868E1
1.905198872E0,7.516050339E0,-2.331795120E1,-3.474705124E1,4.251559044E1
1.907162127E0,6.405000210E0,-2.239800072E1,-2.999505234E1,3.797891031E1
1.909125411E0,4.987050056E0,-2.147805023E1,-2.600895119E1,3.409754906E1
1.911088981E0,4.066950321E0,-2.082600021E1,-2.202195168E1,3.058150953E1
1.913052443E0,2.802000046E0,-2.005995178E1,-1.826595116E1,2.727449067E1
1.915014914E0,1.039050102E0,-1.917795181E1,-1.516200066E1,2.446956732E1
1.916977676E0,-1.873050094E0,-1.825800133E1,-1.255605030E1,2.223774558E1
1.918941392E0,-4.555950165E0,-1.741500092E1,-1.113705063E1,2.116773100E1
1.920904828E0,-6.280950069E0,-1.664895058E1,-9.298050880E0,2.007714221E1
1.922868519E0,-7.507050514E0,-1.645695114E1,-7.534950256E0,1.959496169E1
1.924832135E0,-8.427000046E0,-1.645695114E1,-7.879950523E0,2.009823850E1
1.926795166E0,-9.577050209E0,-1.653404999E1,-7.840950489E0,2.065369711E1
1.928758368E0,-1.015200043E1,-1.653404999E1,-8.416049957E0,2.114870725E1
1.930721603E0,-1.061205006E1,-1.641900063E1,-9.604050636E0,2.178157424E1
1.932684828E0,-1.072695065E1,-1.684005165E1,-1.044795036E1,2.253473933E1
1.934648240E0,-1.084200096E1,-1.676399994E1,-1.121400070E1,2.289835126E1
1.936611597E0,-1.087995052E1,-1.664895058E1,-1.213395023E1,2.329793182E1
1.938575122E0,-1.065000057E1,-1.672500038E1,-1.297695065E1,2.369703353E1
1.940538597E0,-1.038195038E1,-1.668704987E1,-1.336005020E1,2.376412145E1
1.942501787E0,-9.654000282E0,-1.653404999E1,-1.393500042E1,2.368034559E1
1.944465060E0,-8.542050362E0,-1.638000107E1,-1.443405056E1,2.344382381E1
1.946428314E0,-6.741000175E0,-1.653404999E1,-1.458705044E1,2.305640763E1
1.948391584E0,-4.518000126E0,-1.645695114E1,-1.462500095E1,2.247519119E1
1.950355708E0,-1.758000135E0,-1.638000107E1,-1.458705044E1,2.200402327E1
1.952319582E0,1.498950124E0,-1.664895058E1,-1.401195049E1,2.181213340E1
1.954282658E0,4.603050232E0,-1.691700172E1,-1.293900108E1,2.178969407E1
1.956245968E0,7.593000412E0,-1.703205109E1,-1.182705021E1,2.208219953E1
1.958209235E0,1.019895077E1,-1.695495033E1,-1.083105087E1,2.255660880E1
1.960172512E0,1.211505032E1,-1.638000107E1,-1.002600002E1,2.270681738E1
1.962135869E0,1.395495033E1,-1.534605026E1,-1.002600002E1,2.303828496E1
1.964099202E0,1.529700089E1,-1.415700054E1,-1.037100029E1,2.328038976E1
1.966062595E0,1.652295113E1,-1.285395050E1,-1.017900085E1,2.327754316E1
1.968025971E0,1.732800102E1,-1.155105019E1,-9.718950272E0,2.298139191E1
1.969989168E0,1.821000099E1,-1.032495022E1,-8.683950424E0,2.266318001E1
1.971952425E0,1.905300140E1,-9.060000420E0,-7.650000572E0,2.244154582E1
1.973915516E0,1.955100060E1,-7.833000183E0,-6.844950199E0,2.214612515E1
1.975878656E0,2.027895164E1,-6.721950531E0,-5.925000191E0,2.217038849E1
1.977841361E0,2.058600044E1,-5.686950207E0,-4.621950150E0,2.185148142E1
1.979804194E0,2.104605103E1,-4.575000286E0,-3.549000263E0,2.182801627E1
1.981767322E0,2.181195068E1,-3.694050074E0,-1.708950043E0,2.218845891E1
1.983730356E0,2.250195122E1,-2.659050226E0,-5.590500236E-1,2.266541183E1
1.985692901E0,2.303895187E1,-1.930950046E0,8.580000401E-1,2.313564427E1
1.987655589E0,2.368995094E1,-1.087950110E0,1.777950048E0,2.378147425E1
1.989617966E0,2.403495026E1,-2.059500068E-1,3.004050255E0,2.422283153E1
1.991580435E0,2.430405045E1,4.440000355E-1,4.498950005E0,2.472093354E1
1.993543841E0,2.411205101E1,1.402950048E0,5.649000168E0,2.480464625E1
1.995506972E0,2.403495026E1,1.708950043E0,6.799050331E0,2.503650194E1
1.997470220E0,2.361405182E1,1.978050113E0,7.066950321E0,2.472807943E1
1.999433433E0,2.296200180E1,1.863000035E0,7.680000305E0,2.428387738E1
2.001396802E0,2.196600151E1,2.053950071E0,7.335000515E0,2.324921861E1
2.003360125E0,2.066205025E1,2.208000183E0,6.837000370E0,2.187556078E1
2.005323346E0,1.951305008E1,2.245950222E0,6.646050453E0,2.073580002E1
2.007286594E0,1.824795151E1,1.978050113E0,6.301050186E0,1.940627862E1
2.009249866E0,1.729005051E1,1.900950074E0,5.380950451E0,1.820752826E1
2.011213130E0,1.621605110E1,1.824000120E0,4.690950394E0,1.697917269E1
2.013176491E0,1.522005081E1,1.939050078E0,3.310950041E0,1.569624962E1
2.015139823E0,1.384005070E1,2.092950106E0,2.161050081E0,1.416324754E1
2.017104163E0,1.269000053E1,2.092950106E0,1.050000072E0,1.290422620E1
2.019068207E0,1.165605068E1,2.169000149E0,-2.910000086E-1,1.185971164E1
2.021031480E0,1.062105083E1,2.131050110E0,-1.786050081E0,1.097898312E1
2.022994979E0,9.816000938E0,1.900950074E0,-3.241950035E0,1.051083848E1
2.024958163E0,9.010950089E0,1.633050084E0,-4.200000286E0,1.007492315E1
2.026921440E0,8.091000557E0,1.173000097E0,-6.001950264E0,1.014217069E1
2.028884842E0,7.324050426E0,7.890000343E-1,-7.840950489E0,1.075847295E1
2.030848207E0,6.520050526E0,3.289500177E-1,-9.298050880E0,1.136103064E1
2.032812857E0,5.868000507E0,-5.295000225E-2,-1.048605061E1,1.201638427E1
2.034777130E0,5.485050201E0,-5.130000114E-1,-1.136700058E1,1.263161300E1
2.036740364E0,4.909950256E0,-1.164000034E0,-1.186605072E1,1.289440450E1
2.038703902E0,3.990000248E0,-1.701000094E0,-1.171200085E1,1.248937417E1
2.040667229E0,3.147000074E0,-2.161050081E0,-1.098405075E1,1.162854754E1
2.042630608E0,2.227050066E0,-2.391000032E0,-9.834000587E0,1.036263483E1
2.044593092E0,1.345050097E0,-2.581950188E0,-8.185950279E0,8.688233912E0
2.046555839E0,3.870000243E-1,-2.581950188E0,-6.460950375E0,6.968508846E0
2.048518972E0,-7.620000243E-1,-2.544000149E0,-4.774950027E0,5.463765053E0
2.050481991E0,-1.758000135E0,-2.428950071E0,-3.280050039E0,4.443994958E0
2.052445068E0,-2.640000105E0,-2.428950071E0,-2.284050226E0,4.252797249E0
2.054408135E0,-3.291000128E0,-2.428950071E0,-1.555950046E0,4.376238206E0
2.056371574E0,-3.865950108E0,-2.428950071E0,-1.018950105E0,4.677994014E0
2.058334904E0,-4.134000301E0,-2.544000149E0,-4.440000355E-1,4.874323674E0
2.060297578E0,-4.288050175E0,-2.544000149E0,3.220500052E-1,4.996301358E0
2.062260444E0,-4.326000214E0,-2.506050110E0,9.730500579E-1,5.093269227E0
2.064223942E0,-4.326000214E0,-2.773950100E0,1.050000072E0,5.245147963E0
2.066187269E0,-4.402950287E0,-2.773950100E0,9.349500537E-1,5.287239543E0
2.068151520E0,-4.518000126E0,-2.851050138E0,5.509500504E-1,5.370694367E0
2.070115500E0,-4.288050175E0,-2.965950251E0,1.300500035E-1,5.215472001E0
2.072078604E0,-4.018949986E0,-3.157050133E0,-3.670500219E-1,5.123831598E0
2.074041964E0,-3.865950108E0,-3.426000118E0,-1.057050109E0,5.272608650E0
2.076004833E0,-3.712950230E0,-3.655950069E0,-1.900950074E0,5.546673012E0
2.077967863E0,-3.712950230E0,-3.808950186E0,-2.590050220E0,5.916287778E0
2.079931127E0,-3.712950230E0,-4.153950214E0,-3.241950035E0,6.446048543E0
2.081894322E0,-3.598050117E0,-4.461000443E0,-3.625050068E0,6.781406756E0
2.083857874E0,-3.483000278E0,-4.690050125E0,-3.970050097E0,7.063225813E0
2.085821322E0,-3.367950201E0,-4.920000076E0,-4.047000408E0,7.206087816E0
2.087784430E0,-3.061050177E0,-5.341950417E0,-3.894000292E0,7.284895381E0
2.089747603E0,-2.755050182E0,-5.725050449E0,-3.510000229E0,7.258553972E0
2.091710618E0,-2.332950115E0,-6.109050274E0,-2.782050133E0,7.106543072E0
2.093673680E0,-1.758000135E0,-6.645000458E0,-1.786050081E0,7.101870912E0
2.095635903E0,-1.068000078E0,-7.297050476E0,-5.209500194E-1,7.393169736E0
2.097598372E0,-3.019500077E-1,-8.101950645E0,8.200500607E-1,8.148942273E0
2.099562444E0,5.020500422E-1,-8.983050346E0,1.969950080E0,9.210209069E0
2.101526053E0,1.306950092E0,-1.001805019E1,2.812950134E0,1.048723685E1
2.103489355E0,1.882050037E0,-1.101495075E1,3.273000240E0,1.164404496E1
2.105452747E0,2.610000134E0,-1.239405060E1,3.388050079E0,1.311119652E1
2.107415950E0,3.376950264E0,-1.408095074E1,3.043050051E0,1.479652393E1
2.109379209E0,4.027950287E0,-1.607400131E1,2.620950222E0,1.677698667E1
2.111342234E0,4.564949989E0,-1.806705093E1,2.545050144E0,1.880782757E1
2.113305342E0,5.293050289E0,-1.975305176E1,3.426000118E0,2.073492011E1
2.115268593E0,5.830050468E0,-2.117100143E1,4.153950214E0,2.234851433E1
2.117231802E0,6.175050259E0,-2.216805077E1,3.963000298E0,2.335078354E1
2.119194903E0,6.750000477E0,-2.304900169E1,3.618000269E0,2.428804050E1
2.121158035E0,7.438950539E0,-2.393100166E1,3.771000147E0,2.534267681E1
2.123121048E0,8.014050484E0,-2.488905144E1,4.116000175E0,2.646944170E1
2.125084103E0,8.473950386E0,-2.603895187E1,4.690950394E0,2.778200614E1
2.127047048E0,9.931050301E0,-2.776395226E1,4.192950249E0,2.978327780E1
2.129010026E0,1.115700054E1,-2.987205124E1,1.777950048E0,3.193711341E1
2.130973794E0,1.249905014E1,-3.220995331E1,-4.060500264E-1,3.455245611E1
2.132937331E0,1.384005070E1,-3.496905136E1,-3.049950123E0,3.773173402E1
2.134900365E0,1.610205078E1,-3.883995056E1,-6.805950165E0,4.259270779E1
2.136863554E0,1.721295166E1,-4.263495255E1,-9.796050072E0,4.701050394E1
2.138826431E0,1.790295029E1,-4.616100311E1,-1.267095089E1,5.110681788E1
2.140789400E0,2.008800125E1,-4.957200241E1,-1.661805153E1,5.600956038E1
2.142752494E0,2.058600044E1,-5.225505066E1,-1.945500183E1,5.943795782E1
2.144715552E0,1.847805023E1,-5.378805161E1,-2.144805145E1,6.078331800E1
2.146678933E0,1.510500050E1,-5.497605133E1,-2.137095070E1,6.088714802E1
2.148642230E0,1.046700096E1,-5.601105118E1,-2.079600143E1,6.065698343E1
2.150605630E0,7.975950241E0,-5.785095215E1,-1.918605042E1,6.146912214E1
2.152568999E0,5.944950104E0,-5.907705307E1,-1.926300049E1,6.242198186E1
2.154532567E0,3.607050180E0,-6.030405426E1,-2.087295151E1,6.391611593E1
2.156496076E0,2.111999989E0,-6.126195145E1,-2.221395111E1,6.519928575E1
2.158458520E0,6.169500351E-1,-6.248805237E1,-2.390100098E1,6.690586793E1
2.160421290E0,-3.400500119E-1,-6.390705490E1,-2.562495041E1,6.885394240E1
2.162384824E0,-9.529500604E-1,-6.463500214E1,-2.535705185E1,6.943753807E1
2.164348134E0,-7.620000243E-1,-6.586095428E1,-2.271195030E1,6.967121809E1
2.166312568E0,2.719500065E-1,-6.770100403E1,-1.799805069E1,7.005304941E1
2.168276672E0,1.729050040E0,-6.869805145E1,-1.259400082E1,6.986430236E1
2.170239555E0,3.415050268E0,-6.980895233E1,-7.036050320E0,7.024570021E1
2.172202809E0,4.680000305E0,-7.088204956E1,-2.820000172E0,7.109233259E1
2.174165315E0,4.987050056E0,-7.103594971E1,1.087950110E0,7.121910175E1
2.176128040E0,4.948050022E0,-7.092105103E1,5.725950241E0,7.132366496E1
2.178091537E0,4.027950287E0,-7.030695343E1,7.335000515E0,7.080320838E1
2.180054807E0,6.169500351E-1,-6.781605530E1,7.297050476E0,6.821029929E1
2.182017190E0,-4.555950165E0,-6.252705383E1,6.454050541E0,6.302415340E1
2.183979823E0,-8.542050362E0,-5.516805267E1,5.994000435E0,5.614631512E1
2.185943335E0,-1.134000015E1,-4.876695251E1,5.457000256E0,5.036457200E1
2.187906590E0,-1.180005074E1,-4.351605225E1,5.227050304E0,4.538953685E1
2.189869952E0,-1.348605061E1,-3.930000305E1,5.725950241E0,4.194222582E1
2.191833283E0,-1.444500065E1,-3.500805283E1,5.802000046E0,3.831298750E1
2.193796362E0,-1.440600109E1,-3.113700104E1,4.996950150E0,3.467009103E1
2.195759515E0,-1.387005043E1,-2.795505142E1,4.461000443E0,3.152401821E1
2.197722894E0,-1.275795078E1,-2.508105087E1,4.384050369E0,2.847883984E1
2.199686206E0,-1.233705044E1,-2.228295135E1,5.035950184E0,2.596331121E1
2.201649289E0,-1.172295094E1,-1.948500061E1,5.572050095E0,2.341240205E1
2.203612439E0,-1.091805077E1,-1.680195045E1,6.070950508E0,2.093718729E1
2.205575868E0,-9.922050476E0,-1.469400024E1,6.339000225E0,1.882932959E1
2.207539211E0,-9.462000847E0,-1.308405018E1,6.991050243E0,1.759535770E1
2.209502558E0,-7.929000378E0,-1.216395092E1,8.524050713E0,1.683716691E1
2.211465903E0,-5.935950279E0,-1.143600082E1,8.677050591E0,1.553411818E1
2.213429161E0,-4.018949986E0,-1.063095093E1,9.481950760E0,1.480123194E1
2.215392444E0,-1.720050097E0,-9.940950394E0,1.059300041E1,1.462849017E1
2.217355679E0,-1.870500147E-1,-9.021000862E0,1.132200050E1,1.447760822E1
2.219318919E0,3.870000243E-1,-8.293050766E0,1.132200050E1,1.403966365E1
2.221282282E0,3.109500110E-1,-7.642050266E0,1.101495075E1,1.340995012E1
2.223245609E0,1.189500093E-1,-7.066950321E0,1.059300041E1,1.273450406E1
2.225209725E0,1.960500032E-1,-6.684000492E0,1.024800014E1,1.223665825E1
2.227173609E0,6.169500351E-1,-6.645000458E0,1.040205002E1,1.235877433E1
2.229135869E0,7.320000529E-1,-6.109050274E0,1.009500027E1,1.182223962E1
2.231098607E0,4.639500082E-1,-5.494950294E0,1.024800014E1,1.163749266E1
2.233061516E0,-7.200000435E-2,-4.575000286E0,1.047795010E1,1.143342686E1
2.235024375E0,-7.230000496E-1,-3.771000147E0,1.063200092E1,1.130409726E1
2.236987669E0,-1.375050068E0,-3.004050255E0,1.105305099E1,1.153624796E1
2.238950836E0,-2.140950203E0,-1.930950046E0,1.116795063E1,1.153409542E1
2.240913391E0,-2.755050182E0,-8.959500194E-1,1.128300095E1,1.164899731E1
2.242876102E0,-3.253050089E0,1.380000114E-1,1.124505043E1,1.170694401E1
2.244839241E0,-3.559950113E0,1.479000092E0,1.151295090E1,1.214119946E1
2.246802254E0,-4.018949986E0,3.280950069E0,1.124505043E1,1.238417343E1
2.248765342E0,-4.402950287E0,5.119950294E0,1.097700024E1,1.288776150E1
2.250728408E0,-4.824000359E0,6.654000282E0,1.120695019E1,1.389756927E1
2.252691536E0,-5.898000240E0,8.377950668E0,1.120695019E1,1.518460394E1
2.254654643E0,-6.856050491E0,9.835050583E0,1.159005070E1,1.667521884E1
2.256617895E0,-8.197050095E0,1.129095078E1,1.109205055E1,1.782444347E1
2.258581105E0,-8.542050362E0,1.178895092E1,1.063200092E1,1.802735232E1
2.260544520E0,-8.389050484E0,1.228800011E1,1.021005058E1,1.804483991E1
2.262507874E0,-7.852050304E0,1.259400082E1,9.673050880E0,1.771528899E1
2.264470929E0,-6.549000263E0,1.267095089E1,1.013295078E1,1.749625938E1
2.266434054E0,-5.974050522E0,1.320795059E1,1.017195034E1,1.770897547E1
2.268397257E0,-5.476050377E0,1.389705086E1,1.066995049E1,1.835655179E1
2.270360437E0,-5.284050465E0,1.458705044E1,1.113000011E1,1.909398157E1
2.272323676E0,-5.629050255E0,1.516200066E1,1.182000065E1,2.003209640E1
2.274286898E0,-6.357000351E0,1.558395100E1,1.216500092E1,2.076675780E1
2.276250147E0,-7.162050247E0,1.581405067E1,1.266300106E1,2.148792122E1
2.278213408E0,-8.619000435E0,1.585200119E1,1.277805042E1,2.210999057E1
2.280176634E0,-9.730050087E0,1.573695087E1,1.362105083E1,2.297517189E1
2.282139871E0,-1.107195091E1,1.531605053E1,1.354500103E1,2.325159250E1
2.284103235E0,-1.214505100E1,1.443405056E1,1.354500103E1,2.322307327E1
2.286066562E0,-1.302600098E1,1.332300091E1,1.362105083E1,2.308055633E1
2.288029398E0,-1.367805099E1,1.221105099E1,1.362105083E1,2.284145072E1
2.289992391E0,-1.390800095E1,1.094595051E1,1.320000076E1,2.207909289E1
2.291955526E0,-1.406100082E1,9.681000710E0,1.285500050E1,2.137017914E1
2.293918620E0,-1.410000038E1,8.647050858E0,1.243305016E1,2.069208147E1
2.295881829E0,-1.410000038E1,7.765050411E0,1.189605045E1,2.001554483E1
2.297845004E0,-1.410000038E1,7.228050232E0,1.090005016E1,1.923189576E1
2.299808240E0,-1.344795036E1,6.193950176E0,1.074705029E1,1.829512169E1
2.301771461E0,-1.298805046E1,5.389050484E0,1.005705070E1,1.728801865E1
2.303734693E0,-1.245195103E1,4.813950062E0,9.865050316E0,1.659953064E1
2.305697922E0,-1.180005074E1,4.392000198E0,9.558000565E0,1.580779042E1
2.307661153E0,-1.137795067E1,4.201050282E0,9.328050613E0,1.530095138E1
2.309624384E0,-1.065000057E1,4.047000408E0,9.328050613E0,1.472457988E1
2.311587810E0,-9.691950798E0,3.549000263E0,9.022050858E0,1.370863650E1
2.313551168E0,-8.809950829E0,3.088950157E0,9.098999977E0,1.303643537E1
2.315514378E0,-8.044050217E0,2.859000206E0,8.830050468E0,1.228211779E1
2.317477632E0,-7.431000233E0,2.782050133E0,8.677050591E0,1.175800894E1
2.319440678E0,-7.047000408E0,2.743950129E0,7.987050533E0,1.099920239E1
2.321403785E0,-6.433950424E0,2.629050016E0,7.756950378E0,1.041527250E1
2.323367050E0,-5.323050022E0,2.208000183E0,8.677050591E0,1.041639733E1
2.325330259E0,-5.016000271E0,2.398950100E0,9.214050293E0,1.076168867E1
2.327293494E0,-4.210950375E0,2.169000149E0,1.074705029E1,1.174460534E1
2.329256721E0,-3.598050117E0,2.053950071E0,1.224105072E1,1.292315744E1
2.331219952E0,-3.291000128E0,2.016000032E0,1.327605057E1,1.382564489E1
2.333183182E0,-2.946000099E0,1.978050113E0,1.408095074E1,1.452118358E1
2.335146453E0,-3.367950201E0,2.284050226E0,1.362105083E1,1.421594175E1
2.337109716E0,-3.751050234E0,2.476050138E0,1.327605057E1,1.401623062E1
2.339072942E0,-4.173000336E0,2.782050133E0,1.308495045E1,1.401319603E1
2.341036179E0,-4.633050442E0,2.821050167E0,1.228005028E1,1.342472030E1
2.342999228E0,-5.361000061E0,3.204000235E0,1.090005016E1,1.256252493E1
2.344962333E0,-5.821050167E0,3.241950035E0,1.051695061E1,1.244994438E1
2.346925619E0,-6.319050312E0,3.127050161E0,9.634950638E0,1.193905831E1
2.348888827E0,-6.664050102E0,3.166050196E0,8.715000153E0,1.141861048E1
2.350852061E0,-6.741000175E0,2.859000206E0,8.524050713E0,1.123718853E1
2.352815288E0,-7.009050369E0,2.782050133E0,7.258950233E0,1.046704106E1
2.354778520E0,-7.086000443E0,2.667000055E0,6.147000313E0,9.752430692E0
2.356741750E0,-7.086000443E0,2.361000061E0,4.843950272E0,8.902223194E0
2.358704995E0,-7.086000443E0,1.939050078E0,4.078050137E0,8.402488345E0
2.360668225E0,-6.894000530E0,1.594050050E0,3.157950163E0,7.748605559E0
2.362631232E0,-6.702000141E0,1.288050056E0,2.008050203E0,7.113940150E0
2.364594304E0,-6.549000263E0,9.430500269E-1,1.432950020E0,6.769940440E0
2.366558282E0,-6.396000385E0,7.510500550E-1,5.509500504E-1,6.463469894E0
2.368521994E0,-6.204000473E0,4.060500264E-1,-1.369500011E-1,6.218782340E0
2.370485709E0,-6.051000118E0,1.380000114E-1,-8.659500480E-1,6.114206074E0
2.372449437E0,-5.668050289E0,-5.295000225E-2,-1.555950046E0,5.877973999E0
2.374411682E0,-5.398950100E0,-9.105000645E-2,-1.900950074E0,5.724557928E0
2.376374362E0,-5.323050022E0,-5.295000225E-2,-2.743950129E0,5.988900362E0
2.378338227E0,-5.092950344E0,-1.290000081E-1,-2.859000206E0,5.841974528E0
2.380301745E0,-4.900950432E0,-1.680000126E-1,-3.012000084E0,5.754970343E0
2.382264678E0,-4.786050320E0,-1.290000081E-1,-2.935050249E0,5.615820388E0
2.384227800E0,-4.594050407E0,-5.295000225E-2,-3.241950035E0,5.623019018E0
2.386190689E0,-4.479000092E0,-5.295000225E-2,-2.974050045E0,5.376729414E0
2.388153646E0,-4.441050053E0,-1.290000081E-1,-2.667000055E0,5.181935533E0
2.390116743E0,-4.210950375E0,-3.589500189E-1,-2.322000027E0,4.822098329E0
2.392079798E0,-4.057950020E0,-5.890500546E-1,-2.053950071E0,4.586136634E0
2.394042899E0,-3.904950142E0,-1.048950076E0,-1.708950043E0,4.389697270E0
2.396006004E0,-3.828000069E0,-1.471050024E0,-1.632000089E0,4.413728241E0
2.397969077E0,-3.636000156E0,-1.893000126E0,-1.708950043E0,4.441222451E0
2.399932160E0,-3.559950113E0,-2.391000032E0,-2.206950188E0,4.822940503E0
2.401895236E0,-3.367950201E0,-3.118950129E0,-2.514000177E0,5.233654111E0
2.403858314E0,-3.061050177E0,-3.732000113E0,-3.549000263E0,5.991098054E0
2.405821346E0,-2.908050060E0,-4.422000408E0,-4.392000198E0,6.877536514E0
2.407784391E0,-2.524950027E0,-4.996950150E0,-4.813050270E0,7.383111562E0
2.409747518E0,-2.140950203E0,-5.610000134E0,-5.464950085E0,8.119202467E0
2.411710620E0,-1.950000048E0,-6.339000225E0,-6.346950531E0,9.179825983E0
2.413673513E0,-2.140950203E0,-6.874950409E0,-7.803000450E0,1.061769405E1
2.415636468E0,-2.026050091E0,-7.756950378E0,-9.643050194E0,1.254047747E1
2.417599730E0,-1.489950061E0,-8.907000542E0,-1.144395065E1,1.457801826E1
2.419562913E0,-8.770500422E-1,-9.979950905E0,-1.301595020E1,1.642509046E1
2.421526152E0,-3.780000210E-1,-1.116795063E1,-1.381995106E1,1.777236767E1
2.423489374E0,8.100000024E-2,-1.231800079E1,-1.412700081E1,1.874331498E1
2.425453462E0,5.410500169E-1,-1.339095020E1,-1.381995106E1,1.925100854E1
2.427417297E0,1.114950061E0,-1.454100037E1,-1.332195091E1,1.975242217E1
2.429380281E0,1.459950089E0,-1.553700066E1,-1.290105057E1,2.024764059E1
2.431343521E0,2.074050188E0,-1.630395126E1,-1.244100094E1,2.061307874E1
2.433306570E0,2.686950207E0,-1.668704987E1,-1.136700058E1,2.036875148E1
2.435269675E0,3.415050268E0,-1.691700172E1,-1.086900043E1,2.039565361E1
2.437232702E0,4.066950321E0,-1.703205109E1,-1.044795036E1,2.039094201E1
2.439195752E0,4.603050232E0,-1.714695168E1,-9.298050880E0,2.004145138E1
2.441158712E0,4.756950378E0,-1.703205109E1,-7.650000572E0,1.926763737E1
2.443121689E0,4.372950077E0,-1.657200050E1,-5.656950474E0,1.804868366E1
2.445084603E0,3.837000132E0,-1.588200092E1,-3.241950035E0,1.665745369E1
2.447047535E0,3.031950235E0,-1.492395115E1,-6.105000153E-2,1.522894505E1
2.449009916E0,2.188950062E0,-1.396605110E1,2.736000061E0,1.439888128E1
2.450972458E0,1.422000051E0,-1.281600094E1,5.496000290E0,1.401706044E1
2.452934662E0,7.320000529E-1,-1.143600082E1,7.909950256E0,1.392426845E1
2.454896978E0,-7.200000435E-2,-1.028595066E1,1.009500027E1,1.441232096E1
2.456860229E0,-7.230000496E-1,-9.289950371E0,1.143705082E1,1.475235705E1
2.458823206E0,-1.375050068E0,-8.446949959E0,1.208805084E1,1.481089800E1
2.460786076E0,-1.911000133E0,-7.564950466E0,1.220295048E1,1.448421201E1
2.462748978E0,-2.179949999E0,-6.913050175E0,1.208805084E1,1.409480109E1
2.464712323E0,-2.179949999E0,-6.454050541E0,1.182000065E1,1.364255715E1
2.466675528E0,-2.179949999E0,-6.147000313E0,1.155105019E1,1.326516322E1
2.468638719E0,-2.026050091E0,-6.070050240E0,1.116795063E1,1.287142223E1
2.470601915E0,-1.950000048E0,-6.109050274E0,1.036305046E1,1.218670629E1
2.472564836E0,-1.720050097E0,-6.492000103E0,9.558000565E0,1.168161001E1
2.474527838E0,-1.452000022E0,-7.143000126E0,8.638950348E0,1.130319503E1
2.476491077E0,-1.183050036E0,-8.025000572E0,7.909950256E0,1.132994063E1
2.478454235E0,-6.079500318E-1,-9.481050491E0,8.983950615E0,1.307559904E1
2.480417884E0,1.570500135E-1,-1.135905075E1,1.132200050E1,1.603871547E1
2.482381389E0,5.790000558E-1,-1.319895077E1,1.224105072E1,1.801085409E1
2.484343627E0,1.960500032E-1,-1.507695103E1,1.204995060E1,1.930166307E1
2.486306237E0,-1.336950064E0,-1.680195045E1,9.442950249E0,1.931999700E1
2.488270365E0,-4.824000359E0,-1.802805138E1,1.432950020E0,1.871723702E1
2.490234030E0,-7.123950481E0,-1.814295006E1,-7.075050354E0,2.073580586E1
2.492197187E0,-7.507050514E0,-1.822005081E1,-8.838000298E0,2.159713658E1
2.494160493E0,-8.121000290E0,-1.891005135E1,-7.036050320E0,2.174963659E1
2.496123486E0,-1.011405087E1,-1.983000183E1,-6.270000458E0,2.312651948E1
2.498086570E0,-1.321800041E1,-2.098005104E1,-6.768000126E0,2.570377214E1
2.500049519E0,-1.636095047E1,-2.216805077E1,-7.150950432E0,2.846470213E1
2.502012502E0,-1.904400063E1,-2.320305061E1,-7.687950134E0,3.098645018E1
2.503975729E0,-2.080695152E1,-2.370105171E1,-7.189950466E0,3.234755743E1
2.505938885E0,-2.142000008E1,-2.362395096E1,-5.617950439E0,3.238006840E1
2.507902173E0,-2.038500023E1,-2.304900169E1,-4.353000164E0,3.107657194E1
2.509865423E0,-1.728105164E1,-2.197605133E1,-3.472050190E0,2.817155853E1
2.511828457E0,-1.352505112E1,-2.059605026E1,-2.667000055E0,2.478380890E1
2.513791565E0,-9.883950233E0,-2.044305038E1,-5.590500236E-1,2.271394546E1
2.515753736E0,-6.396000385E0,-2.109495163E1,5.035950184E0,2.261120517E1
2.517716181E0,-3.943050146E0,-2.071095085E1,1.070805073E1,2.364642637E1
2.519679545E0,-3.138000250E0,-1.940805054E1,6.721950531E0,2.077748999E1
2.521642640E0,-2.908050060E0,-1.783695030E1,2.620950222E0,1.826151503E1
2.523605739E0,-2.716050148E0,-1.687905121E1,1.279950023E0,1.714402433E1
2.525568820E0,-2.448000193E0,-1.649505043E1,7.050000429E-1,1.669060870E1
2.527531716E0,-2.140950203E0,-1.641900063E1,6.280500293E-1,1.656990332E1
2.529494666E0,-1.950000048E0,-1.603499985E1,1.356000066E0,1.620994931E1
2.531457719E0,-2.218050003E0,-1.534605026E1,2.122950077E0,1.565017321E1
2.533420741E0,-2.755050182E0,-1.469400024E1,3.388050079E0,1.532914962E1
2.535383678E0,-3.022950172E0,-1.400400066E1,4.996950150E0,1.517299486E1
2.537346651E0,-3.138000250E0,-1.358205032E1,6.913950443E0,1.556026501E1
2.539309745E0,-3.022950172E0,-1.342905045E1,9.022050858E0,1.645828136E1
2.541272803E0,-2.985000134E0,-1.327605057E1,1.182000065E1,1.802432134E1
2.543235704E0,-2.563050032E0,-1.335300064E1,1.477095032E1,2.007617555E1
2.545198651E0,-1.642950058E0,-1.385100079E1,1.615095139E1,2.134016725E1
2.547161585E0,-6.079500318E-1,-1.465605068E1,1.703205109E1,2.247799344E1
2.549124512E0,4.639500082E-1,-1.549905109E1,1.710900116E1,2.309012246E1
2.551088290E0,1.422000051E0,-1.618905067E1,1.657200050E1,2.321074421E1
2.553051818E0,2.304000139E0,-1.676399994E1,1.603605080E1,2.331297998E1
2.555014683E0,3.070050240E0,-1.707000160E1,1.595895100E1,2.356901101E1
2.556977743E0,3.990000248E0,-1.733895111E1,1.615095139E1,2.402941028E1
2.558940661E0,5.101050377E0,-1.818195152E1,1.549905109E1,2.442999511E1
2.560903608E0,6.366000175E0,-1.948500061E1,1.477095032E1,2.526602819E1
2.562866842E0,7.324050426E0,-2.067300034E1,1.480905056E1,2.646360966E1
2.564829991E0,8.053050041E0,-2.201505089E1,1.542300034E1,2.806034604E1
2.566792921E0,9.010950089E0,-2.354805183E1,1.687905121E1,3.034156121E1
2.568755916E0,1.054395008E1,-2.534895134E1,1.787595177E1,3.276116403E1
2.570718985E0,1.027605057E1,-2.649900055E1,1.756905174E1,3.341355750E1
2.572682015E0,1.073595047E1,-2.703495216E1,1.722405052E1,3.380557923E1
2.574644966E0,1.177005100E1,-2.749500084E1,1.572900105E1,3.379216841E1
2.576607940E0,1.222995090E1,-2.776395226E1,1.281600094E1,3.293415589E1
2.578571529E0,1.177005100E1,-2.711205101E1,7.144050121E0,3.040780924E1
2.580534938E0,1.035195065E1,-2.588595200E1,-7.120500207E-1,2.788821271E1
2.582497813E0,9.241050720E0,-2.511900139E1,-9.412950516E0,2.837190312E1
2.584460820E0,9.355950356E0,-2.657595062E1,-1.063905048E1,3.011651297E1
2.586423729E0,1.016100025E1,-2.925795174E1,-6.960000515E0,3.174453139E1
2.588386666E0,1.039095020E1,-3.109800148E1,-2.667000055E0,3.289635894E1
2.590348911E0,9.586050034E0,-3.171105194E1,1.356000066E0,3.315602369E1
2.592311359E0,8.934000015E0,-3.186495209E1,3.118950129E0,3.324032758E1
2.594274337E0,8.743050575E0,-3.213300323E1,3.081000090E0,3.344343571E1
2.596237178E0,8.473950386E0,-3.182595062E1,2.736000061E0,3.304821727E1
2.598200296E0,8.551050186E0,-3.094500160E1,2.583000183E0,3.220846897E1
2.600163332E0,9.624000549E0,-2.983305168E1,2.161050081E0,3.142137006E1
2.602126957E0,1.119600010E1,-2.891400146E1,1.165050030E0,3.102784621E1
2.604090409E0,1.215405083E1,-2.787900162E1,-4.819500148E-1,3.041696827E1
2.606053062E0,1.192395020E1,-2.665200043E1,-2.322000027E0,2.928995389E1
2.608015949E0,1.065900040E1,-2.542605209E1,-4.084949970E0,2.787086706E1
2.609979012E0,8.473950386E0,-2.408400154E1,-6.193050385E0,2.627167369E1
2.611942024E0,6.366000175E0,-2.301105118E1,-7.650000572E0,2.507103794E1
2.613904933E0,4.297049999E0,-2.212995148E1,-8.377950668E0,2.404972866E1
2.615867872E0,2.533950090E0,-2.143995094E1,-8.953050613E0,2.337198140E1
2.617830067E0,1.422000051E0,-2.105595016E1,-9.259050369E0,2.304571837E1
2.619792483E0,3.490500152E-1,-2.082600021E1,-9.144000053E0,2.274767807E1
2.621755176E0,-1.030050039E0,-2.094105148E1,-9.106050491E0,2.285845130E1
2.623717788E0,-2.524950027E0,-2.082600021E1,-8.761050224E0,2.273441573E1
2.625680585E0,-3.636000156E0,-2.052000046E1,-8.416049957E0,2.247489294E1
2.627643327E0,-4.786050320E0,-2.009805107E1,-7.573050499E0,2.200429568E1
2.629606243E0,-5.361000061E0,-1.994505119E1,-7.495950222E0,2.197122342E1
2.631569135E0,-6.088950157E0,-1.975305176E1,-7.458000183E0,2.197453377E1
2.633531884E0,-6.511050224E0,-1.940805054E1,-7.803000450E0,2.190783003E1
2.635494675E0,-6.856050491E0,-1.921695137E1,-8.416049957E0,2.207094346E1
2.637457215E0,-6.894000530E0,-1.902495003E1,-9.028950691E0,2.215847281E1
2.639419829E0,-6.741000175E0,-1.902495003E1,-9.604050636E0,2.235235101E1
2.641382873E0,-6.741000175E0,-1.891005135E1,-1.014105034E1,2.249159904E1
2.643345774E0,-6.511050224E0,-1.871805000E1,-1.109895039E1,2.271444190E1
2.645308701E0,-6.166050434E0,-1.856505013E1,-1.282395077E1,2.339091656E1
2.647271620E0,-5.553000450E0,-1.879500008E1,-1.466400051E1,2.447694329E1
2.649234500E0,-4.518000126E0,-1.917795181E1,-1.654200172E1,2.572632857E1
2.651197392E0,-3.022950172E0,-1.952295113E1,-1.853505135E1,2.708933327E1
2.653160855E0,-8.770500422E-1,-2.044305038E1,-1.979895020E1,2.847254739E1
2.655124154E0,1.459950089E0,-2.124795151E1,-2.087295151E1,2.982091552E1
2.657086878E0,3.529950142E0,-2.163105011E1,-2.171595192E1,3.085361315E1
2.659049771E0,5.599950314E0,-2.182305145E1,-2.244405174E1,3.180157979E1
2.661012833E0,7.363050461E0,-2.178495026E1,-2.271195030E1,3.232075581E1
2.662975846E0,8.743050575E0,-2.136300087E1,-2.236695099E1,3.214186112E1
2.664938781E0,9.892050743E0,-2.067300034E1,-2.156295013E1,3.146722786E1
2.666901752E0,1.050600052E1,-1.975305176E1,-2.079600143E1,3.054558522E1
2.668864442E0,1.081200027E1,-1.856505013E1,-2.018295097E1,2.947731240E1
2.670827214E0,1.111905098E1,-1.741500092E1,-1.968495178E1,2.853792001E1
2.672790027E0,1.157895088E1,-1.641900063E1,-1.888005066E1,2.757012873E1
2.674752827E0,1.203900051E1,-1.557600117E1,-1.799805069E1,2.667356696E1
2.676715942E0,1.276695061E1,-1.457895088E1,-1.688700104E1,2.570431171E1
2.678678971E0,1.353405094E1,-1.362105083E1,-1.543005085E1,2.463310841E1
2.680641877E0,1.449195099E1,-1.304595089E1,-1.374405098E1,2.385607712E1
2.682604819E0,1.567995071E1,-1.277805042E1,-1.201905060E1,2.352864221E1
2.684567694E0,1.671495056E1,-1.247100067E1,-1.021800041E1,2.322332798E1
2.686530589E0,1.759605026E1,-1.208805084E1,-8.493000031E0,2.297548710E1
2.688493552E0,1.836300087E1,-1.128300095E1,-6.652950287E0,2.255587859E1
2.690456501E0,1.909095001E1,-1.051605034E1,-4.429950237E0,2.224131620E1
2.692418880E0,1.955100060E1,-9.903000832E0,-1.977000117E0,2.200498987E1
2.694381426E0,2.012595177E1,-9.328050613E0,4.750500321E-1,2.218765727E1
2.696344367E0,2.081595039E1,-8.485050201E0,2.698050022E0,2.264021514E1
2.698307193E0,2.146695137E1,-7.564950466E0,5.035950184E0,2.331135498E1
2.700270007E0,2.188905144E1,-6.721950531E0,6.952050209E0,2.393002703E1
2.702232819E0,2.231100082E1,-5.764050484E0,7.795050144E0,2.432627885E1
2.704195536E0,2.246400070E1,-5.074050426E0,8.791950226E0,2.465107917E1
2.706158281E0,2.257905197E1,-4.651950359E0,9.673050880E0,2.500044286E1
2.708121233E0,2.261700058E1,-4.077000141E0,9.634950638E0,2.491952887E1
2.710084125E0,2.238705063E1,-3.732000113E0,9.098999977E0,2.445198686E1
2.712046851E0,2.204205132E1,-3.426000118E0,7.948950291E0,2.368069496E1
2.714009642E0,2.173605156E1,-3.004050255E0,6.262050152E0,2.281871003E1
2.715972451E0,2.135205078E1,-2.620950222E0,4.996950150E0,2.208503936E1
2.717935255E0,2.081595039E1,-2.199000120E0,3.502950191E0,2.122286626E1
2.719898199E0,2.039400101E1,-1.777950048E0,2.430000067E0,2.061507419E1
2.721861101E0,1.966605186E1,-1.356000066E0,4.360500276E-1,1.971756759E1
2.723824583E0,1.886100006E1,-8.580000401E-1,-2.092050076E0,1.899605646E1
2.725787885E0,1.824795151E1,-4.740000367E-1,-4.698000431E0,1.884896863E1
2.727750339E0,1.778805161E1,-5.130000114E-1,-6.883050442E0,1.908020787E1
2.729713041E0,1.656105042E1,-3.979500234E-1,-7.765050411E0,1.829543011E1
2.731675506E0,1.556505108E1,-2.830500007E-1,-8.953050613E0,1.795850906E1
2.733638041E0,1.483695030E1,-1.290000081E-1,-1.060095024E1,1.823545671E1
2.735600771E0,1.433805084E1,-9.105000645E-2,-1.106100082E1,1.810894065E1
2.737563467E0,1.364895058E1,-9.105000645E-2,-1.132905006E1,1.773836287E1
2.739526249E0,1.307400036E1,-1.290000081E-1,-1.079295063E1,1.695387595E1
2.741489005E0,1.249905014E1,-1.680000126E-1,-1.025595093E1,1.616907566E1
2.743451957E0,1.177005100E1,-3.589500189E-1,-9.028950691E0,1.483862852E1
2.745414851E0,1.050600052E1,-5.509500504E-1,-7.420050144E0,1.287387809E1
2.747377825E0,8.973000526E0,-8.190000653E-1,-5.695050240E0,1.065922590E1
2.749340775E0,7.554000378E0,-1.164000034E0,-4.009050369E0,8.630776480E0
2.751303694E0,6.213000298E0,-1.509000063E0,-2.130000114E0,6.739091510E0
2.753266623E0,5.025000095E0,-1.663050056E0,-2.140500098E-1,5.297374713E0
2.755229184E0,3.760050297E0,-1.969050050E0,9.730500579E-1,4.354533586E0
2.757191853E0,2.419050217E0,-2.046000004E0,1.050000072E0,3.337726789E0
2.759155184E0,1.153950095E0,-2.199000120E0,4.750500321E-1,2.528413511E0
2.761118318E0,4.050000105E-3,-2.199000120E0,9.195000678E-2,2.200925427E0
2.763081566E0,-1.106999993E0,-2.199000120E0,-9.900000691E-2,2.463909803E0
2.765044780E0,-1.950000048E0,-2.275950193E0,-3.670500219E-1,3.019466043E0
2.767008149E0,-2.563050032E0,-2.428950071E0,-5.970000029E-1,3.581261358E0
2.768971472E0,-3.445050240E0,-2.428950071E0,-9.810000658E-1,4.327878318E0
2.770934557E0,-3.865950108E0,-2.659050226E0,-1.363950014E0,4.886356309E0
2.772897709E0,-4.249050140E0,-2.736000061E0,-1.786050081E0,5.360046485E0
2.774860728E0,-4.555950165E0,-2.889000177E0,-2.284050226E0,5.858317964E0
2.776823786E0,-4.708950043E0,-3.118950129E0,-2.859000206E0,6.330556262E0
2.778786686E0,-4.863000393E0,-3.349050045E0,-3.549000263E0,6.889144497E0
2.780749632E0,-4.939050198E0,-3.502050161E0,-4.162050247E0,7.347192283E0
2.782712901E0,-5.092950344E0,-3.579000235E0,-4.468050003E0,7.662301007E0
2.784676082E0,-4.978050232E0,-3.808950186E0,-4.429950237E0,7.675515926E0
2.786638647E0,-4.824000359E0,-4.116000175E0,-3.970050097E0,7.481559642E0
2.788601392E0,-4.518000126E0,-4.537050247E0,-3.204000235E0,7.159802203E0
2.790564344E0,-3.943050146E0,-5.149950027E0,-2.130000114E0,6.826897555E0
2.792527236E0,-3.253050089E0,-5.955000401E0,-8.269500136E-1,6.835803609E0
2.794489199E0,-2.524950027E0,-6.837000370E0,5.899500251E-1,7.312180778E0
2.796451449E0,-1.642950058E0,-7.680000305E0,2.122950077E0,8.135638058E0
2.798414351E0,-8.770500422E-1,-8.677050591E0,3.388050079E0,9.356244282E0
2.800377062E0,-1.480500102E-1,-9.673050880E0,4.231050014E0,1.055895906E1
2.802340697E0,6.550500393E-1,-1.105305099E1,4.345950127E0,1.189480178E1
2.804304062E0,1.498950124E0,-1.262400055E1,4.116000175E0,1.336239869E1
2.806266896E0,2.419050217E0,-1.442595100E1,3.502950191E0,1.504096162E1
2.808229896E0,3.031950235E0,-1.618905067E1,2.928000212E0,1.672875576E1
2.810192491E0,3.568050146E0,-1.783695030E1,3.118950129E0,1.845577492E1
2.812155204E0,4.335000038E0,-1.936995125E1,4.269000053E0,2.030299481E1
2.814117982E0,4.717950344E0,-2.040495110E1,4.996950150E0,2.153115407E1
2.816080741E0,5.062950134E0,-2.128605080E1,4.843950272E0,2.240966927E1
2.818043700E0,5.446050167E0,-2.205300140E1,4.690950394E0,2.319481297E1
2.820006563E0,5.905950069E0,-2.304900169E1,5.304000378E0,2.437763617E1
2.821969362E0,6.442950249E0,-2.473605156E1,4.959000111E0,2.603796338E1
2.823932180E0,7.095000267E0,-2.661405182E1,3.081000090E0,2.771532689E1
2.825896157E0,7.899000168E0,-2.837700081E1,6.660000086E-1,2.946339992E1
2.827859794E0,8.473950386E0,-2.971800232E1,-1.516950130E0,3.093975816E1
2.829822596E0,9.586050034E0,-3.106005096E1,-3.549000263E0,3.269884591E1
2.831785642E0,1.131105042E1,-3.309105301E1,-7.113000393E0,3.568686629E1
2.833748363E0,1.284405041E1,-3.604199982E1,-1.320705032E1,4.047742037E1
2.835711180E0,1.407000065E1,-3.914700317E1,-1.615800095E1,4.462660384E1
2.837673941E0,1.403205109E1,-4.190700150E1,-1.803600121E1,4.773251063E1
2.839636719E0,1.288200092E1,-4.435995102E1,-1.987605095E1,5.028726085E1
2.841599534E0,1.069695091E1,-4.608405304E1,-2.025900078E1,5.146447139E1
2.843562336E0,8.282999992E0,-4.796205139E1,-2.052795029E1,5.282388859E1
2.845524921E0,4.795050144E0,-4.934205246E1,-2.102595139E1,5.384906014E1
2.847487569E0,1.498950124E0,-5.076000214E1,-2.106405067E1,5.497743991E1
2.849449638E0,-2.065050125E0,-5.187195206E1,-2.102595139E1,5.600941415E1
2.851411877E0,-4.978050232E0,-5.344305420E1,-1.937805176E1,5.706531272E1
2.853375112E0,-6.817050457E0,-5.447805405E1,-1.792094994E1,5.775370981E1
2.855338044E0,-7.468950272E0,-5.543595123E1,-1.845795059E1,5.890353001E1
2.857301326E0,-8.695050240E0,-5.616405106E1,-2.025900078E1,6.033598961E1
2.859264505E0,-9.769050598E0,-5.719905090E1,-2.286600113E1,6.237002310E1
2.861227700E0,-9.730050087E0,-5.869395447E1,-2.340195084E1,6.393203789E1
2.863190890E0,-7.201050282E0,-6.084000397E1,-2.183100128E1,6.503809518E1
2.865154002E0,-4.173000336E0,-6.283305359E1,-1.914795113E1,6.581831498E1
2.867117131E0,-1.873050094E0,-6.379200363E1,-1.431900024E1,6.540612977E1
2.869081279E0,1.230000019E0,-6.505605316E1,-1.006395054E1,6.584137038E1
2.871045129E0,4.335000038E0,-6.536295319E1,-4.507050037E0,6.566141466E1
2.873007128E0,6.213000298E0,-6.520995331E1,1.680000126E-1,6.550547769E1
2.874969670E0,7.861050606E0,-6.524805450E1,3.808950186E0,6.583018179E1
2.876932848E0,9.739050865E0,-6.455805206E1,6.186000347E0,6.558092557E1
2.878895832E0,1.065900040E1,-6.375300217E1,7.756950378E0,6.510168856E1
2.880858430E0,1.042905045E1,-6.183705139E1,8.217000008E0,6.324638414E1
2.882821142E0,7.593000412E0,-5.850195312E1,8.254950523E0,5.956741041E1
2.884783740E0,3.607050180E0,-5.348205185E1,8.064000130E0,5.420672264E1
2.886746372E0,1.570500135E-1,-4.846095276E1,8.293950081E0,4.916582365E1
2.888709114E0,-2.295000076E0,-4.397595215E1,7.105050564E0,4.460530390E1
2.890671827E0,-4.402950287E0,-3.960705185E1,5.649000168E0,4.024941901E1
2.892635146E0,-6.396000385E0,-3.577395248E1,4.576050282E0,3.662819588E1
2.894598288E0,-7.239000320E0,-3.194100189E1,5.341950417E0,3.318383886E1
2.896561175E0,-5.514000416E0,-2.872200203E1,6.339000225E0,2.992558312E1
2.898524137E0,-3.061050177E0,-2.584695053E1,7.258950233E0,2.702086672E1
2.900487237E0,-2.332950115E0,-2.354805183E1,8.101950645E0,2.501189728E1
2.902450293E0,-1.987950087E0,-2.167005157E1,8.524050713E0,2.337097605E1
2.904413060E0,-1.605000019E0,-1.990695000E1,8.754000664E0,2.180585267E1
2.906375911E0,-7.230000496E-1,-1.860300064E1,9.060000420E0,2.070453983E1
2.908340062E0,1.570500135E-1,-1.760700035E1,9.175050735E0,1.985478990E1
2.910303832E0,7.699500322E-1,-1.680195045E1,8.869050026E0,1.901468933E1
2.912267011E0,1.153950095E0,-1.595895100E1,8.677050591E0,1.820194838E1
2.914230367E0,1.077000022E0,-1.484700108E1,8.791950226E0,1.728848631E1
2.916192495E0,7.320000529E-1,-1.381200027E1,8.983950615E0,1.649298470E1
2.918154983E0,8.100000024E-2,-1.285395050E1,9.252000809E0,1.583761735E1
2.920118656E0,-5.320500135E-1,-1.185795021E1,9.481950760E0,1.519215095E1
2.922081981E0,-1.336950064E0,-1.082295036E1,9.634950638E0,1.455183713E1
2.924045400E0,-2.179949999E0,-9.979950905E0,1.017195034E1,1.441596947E1
2.926008774E0,-3.022950172E0,-9.021000862E0,1.055505085E1,1.421005921E1
2.927971846E0,-3.330000162E0,-8.178000450E0,1.116795063E1,1.423698401E1
2.929935007E0,-3.406050205E0,-7.372950554E0,1.189605045E1,1.440408256E1
2.931898609E0,-2.946000099E0,-6.645000458E0,1.266300106E1,1.460090900E1
2.933862082E0,-2.601000071E0,-5.764050484E0,1.281600094E1,1.429123366E1
2.935825388E0,-2.140950203E0,-4.959000111E0,1.320000076E1,1.426237603E1
2.937788757E0,-1.911000133E0,-3.732000113E0,1.362105083E1,1.425176383E1
2.939751829E0,-2.103000164E0,-1.930950046E0,1.369800091E1,1.399236959E1
2.941714988E0,-2.256000042E0,-4.360500276E-1,1.419600105E1,1.438075526E1
2.943677465E0,-2.677950144E0,7.510500550E-1,1.434900093E1,1.461606380E1
2.945640142E0,-2.985000134E0,2.245950222E0,1.450305080E1,1.497641482E1
2.947603492E0,-3.520950079E0,3.741000175E0,1.480905056E1,1.567482537E1
2.949566659E0,-3.904950142E0,5.274000168E0,1.446405029E1,1.588308737E1
2.951529722E0,-4.134000301E0,6.730050087E0,1.404300022E1,1.611177792E1
2.953492815E0,-3.675000191E0,7.687950134E0,1.381305027E1,1.622992796E1
2.955455889E0,-3.675000191E0,9.030000687E0,1.335300064E1,1.653327448E1
2.957418969E0,-3.712950230E0,1.033305073E1,1.297005081E1,1.699353273E1
2.959382381E0,-3.828000069E0,1.209600067E1,1.266300106E1,1.792535669E1
2.961345712E0,-4.134000301E0,1.389705086E1,1.342995071E1,1.976313632E1
2.963309241E0,-4.863000393E0,1.527705097E1,1.388895035E1,2.121178920E1
2.965272712E0,-5.284050465E0,1.635000038E1,1.473300076E1,2.263415589E1
2.967235948E0,-5.821050167E0,1.738500023E1,1.519305038E1,2.381074627E1
2.969199253E0,-6.625950336E0,1.822800064E1,1.557600117E1,2.487518920E1
2.971162323E0,-7.929000378E0,1.907205009E1,1.580595112E1,2.600846463E1
2.973125439E0,-9.270000458E0,1.960800171E1,1.611194992E1,2.701854122E1
2.975088824E0,-1.072695065E1,1.949295044E1,1.661100006E1,2.776630890E1
2.977052130E0,-1.245195103E1,1.922504997E1,1.672605133E1,2.836220062E1
2.979015394E0,-1.421505070E1,1.861200142E1,1.676399994E1,2.880114507E1
2.980978670E0,-1.540305042E1,1.730895042E1,1.680195045E1,2.862095851E1
2.982941882E0,-1.666800117E1,1.600500107E1,1.657200050E1,2.843613059E1
2.984905089E0,-1.708905029E1,1.420395088E1,1.649595070E1,2.767497516E1
2.986868189E0,-1.739595032E1,1.244100094E1,1.603605080E1,2.673111515E1
2.988831320E0,-1.739595032E1,1.090800095E1,1.557600117E1,2.577237638E1
2.990794027E0,-1.728105164E1,9.451050758E0,1.549905109E1,2.506347324E1
2.992756858E0,-1.705095100E1,8.148000717E0,1.515405083E1,2.422333797E1
2.994719981E0,-1.693605042E1,7.152000427E0,1.434900093E1,2.332112222E1
2.996683015E0,-1.670595169E1,6.040050507E0,1.346805096E1,2.229258685E1
2.998646099E0,-1.620795059E1,4.966950417E0,1.323795033E1,2.150840737E1
3.000609169E0,-1.586295033E1,4.201050282E0,1.312305069E1,2.101181753E1
3.002572203E0,-1.570905113E1,3.664050102E0,1.320000076E1,2.084321402E1
3.004535248E0,-1.540305042E1,3.166050196E0,1.308495045E1,2.045712014E1
3.006498135E0,-1.486605072E1,2.514000177E0,1.327605057E1,2.008913088E1
3.008461079E0,-1.429095078E1,2.208000183E0,1.320000076E1,1.957923796E1
3.010424178E0,-1.333305073E1,1.708950043E0,1.346805096E1,1.902837745E1
3.012387231E0,-1.233705044E1,1.363950014E0,1.358295059E1,1.839999239E1
3.014350357E0,-1.141695023E1,1.096050024E0,1.369800091E1,1.786570197E1
3.016313462E0,-1.068795013E1,1.173000097E0,1.369800091E1,1.741388630E1
3.018276645E0,-1.018995094E1,1.210950017E0,1.377405071E1,1.717632013E1
3.020239822E0,-9.654000282E0,1.173000097E0,1.362105083E1,1.673644755E1
3.022202748E0,-9.154950142E0,9.430500269E-1,1.381305027E1,1.659827742E1
3.024165747E0,-8.734050751E0,9.040500522E-1,1.411905098E1,1.662674200E1
3.026128612E0,-8.503950119E0,1.096050024E0,1.423395061E1,1.661697456E1
3.028091516E0,-8.619000435E0,1.326000094E0,1.423395061E1,1.669283663E1
3.030054468E0,-8.542050362E0,1.747950077E0,1.381305027E1,1.633469656E1
3.032017419E0,-8.503950119E0,2.208000183E0,1.411905098E1,1.662949287E1
3.033980517E0,-8.311950684E0,2.361000061E0,1.411905098E1,1.655326089E1
3.035943572E0,-8.464950562E0,2.782050133E0,1.381305027E1,1.643762601E1
3.037906609E0,-8.580000877E0,3.280950069E0,1.312305069E1,1.601859881E1
3.039869651E0,-8.464950562E0,3.472050190E0,1.239495087E1,1.540601595E1
3.041832419E0,-8.274000168E0,3.894000292E0,1.155105019E1,1.473258557E1
3.043795267E0,-8.005949974E0,4.239000320E0,1.028700066E1,1.370717846E1
3.045758337E0,-7.776000500E0,4.431000233E0,9.022050858E0,1.270816071E1
3.047721342E0,-7.699050426E0,4.699050426E0,8.064000130E0,1.209894832E1
3.049684297E0,-7.546050549E0,4.736999989E0,6.991050243E0,1.132505326E1
3.051647267E0,-7.392000198E0,5.119950294E0,5.457000256E0,1.051828930E1
3.053610296E0,-7.009050369E0,5.082000256E0,4.039050102E0,9.553399364E0
3.055573322E0,-6.817050457E0,5.044050217E0,2.928000212E0,8.971499583E0
3.057536228E0,-6.319050312E0,4.966950417E0,1.548000097E0,8.185187694E0
3.059499170E0,-5.629050255E0,4.431000233E0,7.429500222E-1,7.202218031E0
3.061463396E0,-4.978050232E0,4.009050369E0,-2.520000041E-1,6.396637631E0
3.063427245E0,-4.210950375E0,3.472050190E0,-1.441050053E0,5.644808308E0
3.065390355E0,-3.636000156E0,3.127050161E0,-2.437050104E0,5.379419398E0
3.067353693E0,-3.175950050E0,2.935950041E0,-3.127050161E0,5.337125076E0
3.069316725E0,-2.830950022E0,2.590950012E0,-3.855000257E0,5.439515326E0
3.071279847E0,-2.640000105E0,2.245950222E0,-4.774950027E0,5.900342424E0
3.073242916E0,-2.485950232E0,1.900950074E0,-5.464950085E0,6.297558191E0
3.075206001E0,-2.256000042E0,1.594050050E0,-5.809950352E0,6.433199425E0
3.077169251E0,-2.103000164E0,1.326000094E0,-6.270000458E0,6.744908575E0
3.079132456E0,-1.950000048E0,1.173000097E0,-6.499950409E0,6.886783337E0
3.081095826E0,-1.681950092E0,1.018950105E0,-6.805950165E0,7.084361162E0
3.083059148E0,-1.642950058E0,1.096050024E0,-6.921000481E0,7.197281306E0
3.085022409E0,-1.375050068E0,1.057950020E0,-6.997950554E0,7.209808103E0
3.086985688E0,-1.222050071E0,1.018950105E0,-6.921000481E0,7.101543026E0
3.088948876E0,-9.919500351E-1,1.134000063E0,-6.615000248E0,6.784404859E0
3.090912083E0,-7.230000496E-1,1.249050021E0,-6.615000248E0,6.770604353E0
3.092875183E0,-5.320500135E-1,1.134000063E0,-6.270000458E0,6.393898584E0
3.094838314E0,-4.549500346E-1,6.360000372E-1,-5.464950085E0,5.520611833E0
3.096802462E0,-4.549500346E-1,9.900000691E-2,-4.660050392E0,4.683252096E0
3.098766312E0,-4.930500090E-1,-3.589500189E-1,-4.009050369E0,4.055173028E0
3.100729257E0,-6.079500318E-1,-7.039500475E-1,-3.625050068E0,3.742477375E0
3.102692468E0,-6.469500065E-1,-1.279050112E0,-3.394950151E0,3.685132295E0
3.104655836E0,-6.469500065E-1,-1.930950046E0,-3.357000113E0,3.926393020E0
3.106619158E0,-6.469500065E-1,-2.736000061E0,-3.702000141E0,4.648553075E0
3.108582553E0,-4.170000255E-1,-3.502050161E0,-4.468050003E0,5.692250450E0
3.110545927E0,-2.629500031E-1,-4.192049980E0,-5.427000046E0,6.862561857E0
3.112509289E0,-5.700000525E-1,-4.767000198E0,-7.726050377E0,9.096210495E0
3.114472672E0,-8.770500422E-1,-5.533950329E0,-1.140600014E1,1.270789763E1
3.116436282E0,-6.850500107E-1,-6.913050175E0,-1.642695045E1,1.783547750E1
3.118399826E0,5.020500422E-1,-9.213000298E0,-2.209905052E1,2.394784881E1
3.120364040E0,2.419050217E0,-1.193400097E1,-2.662200165E1,2.927461622E1
3.122328057E0,5.140050411E0,-1.465605068E1,-2.746500206E1,3.155227849E1
3.124291499E0,7.708050251E0,-1.699394989E1,-2.439900208E1,3.071676535E1
3.126255121E0,9.279000282E0,-1.864200020E1,-1.872600174E1,2.800512737E1
3.128218465E0,9.816000938E0,-1.983000183E1,-1.232595062E1,2.532808532E1
3.130181890E0,9.969000816E0,-2.067300034E1,-6.423000336E0,2.383293632E1
3.132144412E0,9.700950623E0,-2.098005104E1,-7.890000343E-1,2.312776482E1
3.134107198E0,8.704050064E0,-2.078805161E1,3.733050108E0,2.284380091E1
3.136070459E0,7.248000145E0,-2.025105095E1,8.064000130E0,2.297099625E1
3.138033581E0,5.868000507E0,-1.921695137E1,1.224105072E1,2.352802526E1
3.139996875E0,4.335000038E0,-1.779900169E1,1.592100048E1,2.427086613E1
3.141960119E0,2.917050123E0,-1.645695114E1,1.879500008E1,2.515139062E1
3.143923168E0,1.804950118E0,-1.530705070E1,2.048205185E1,2.563353456E1
3.145886275E0,7.320000529E-1,-1.431105042E1,2.059695053E1,2.509136025E1
3.147849138E0,-4.549500346E-1,-1.358205032E1,1.971495056E1,2.394490230E1
3.149812093E0,-1.413000107E0,-1.312305069E1,1.822005081E1,2.249847284E1
3.151775866E0,-2.256000042E0,-1.281600094E1,1.580595112E1,2.047358071E1
3.153739399E0,-3.100050211E0,-1.285395050E1,1.320000076E1,1.868353219E1
3.155702759E0,-3.828000069E0,-1.304595089E1,1.082295036E1,1.737776377E1
3.157666170E0,-4.518000126E0,-1.362105083E1,8.677050591E0,1.677010906E1
3.159629405E0,-5.131050110E0,-1.484700108E1,7.450050354E0,1.738575182E1
3.161592698E0,-5.706000328E0,-1.649505043E1,6.991050243E0,1.880212520E1
3.163556098E0,-6.511050224E0,-1.867995071E1,7.297050476E0,2.108509614E1
3.165519466E0,-7.929000378E0,-2.212995148E1,7.411950588E0,2.464834296E1
3.167483349E0,-9.577050209E0,-2.550195122E1,4.959000111E0,2.768864548E1
3.169447081E0,-1.164705086E1,-2.745705223E1,7.050000429E-1,2.983354716E1
3.171410956E0,-1.302600098E1,-2.787900162E1,-2.935050249E0,3.091164752E1
3.173374782E0,-1.429095078E1,-2.849205208E1,-3.012000084E0,3.201718992E1
3.175337912E0,-1.655294991E1,-2.979495049E1,-3.855000257E0,3.430160713E1
3.177301246E0,-1.881405067E1,-3.151995087E1,-3.625050068E0,3.688653946E1
3.179264324E0,-2.088405037E1,-3.286095047E1,-3.319050074E0,3.907686936E1
3.181227477E0,-2.176500130E1,-3.336000061E1,-3.664050102E0,4.000037731E1
3.183190690E0,-2.176500130E1,-3.339795303E1,-3.510000229E0,4.001822897E1
3.185153874E0,-2.092200089E1,-3.358905029E1,-3.433950186E0,3.972085642E1
3.187117294E0,-1.854600143E1,-3.339795303E1,-2.859000206E0,3.830863242E1
3.189080644E0,-1.479000092E1,-3.232500076E1,-7.890000343E-1,3.555660730E1
3.191042774E0,-1.087995052E1,-3.048495102E1,2.200050116E0,3.244296199E1
3.193005261E0,-6.931950092E0,-2.707395172E1,4.192950249E0,2.826007123E1
3.194968478E0,-4.978050232E0,-2.197605133E1,2.736000061E0,2.269831519E1
3.196931485E0,-4.518000126E0,-1.791300011E1,1.701000094E0,1.855212385E1
3.198895430E0,-4.210950375E0,-1.530705070E1,5.130000114E-1,1.588398795E1
3.200859100E0,-3.598050117E0,-1.358205032E1,-1.747050047E0,1.415875134E1
3.202822076E0,-3.022950172E0,-1.235595036E1,-4.162050247E0,1.338396052E1
3.204785256E0,-2.601000071E0,-1.147395039E1,-6.078000069E0,1.324231187E1
3.206748346E0,-2.869950056E0,-1.063095093E1,-6.576000214E0,1.282565826E1
3.208711473E0,-3.520950079E0,-1.005600071E1,-5.388000488E0,1.193946351E1
3.210674496E0,-3.943050146E0,-9.673050880E0,-2.935050249E0,1.085034920E1
3.212637550E0,-4.363950253E0,-9.711000443E0,-5.970000029E-1,1.066320779E1
3.214600090E0,-4.824000359E0,-9.750000000E0,1.203000069E0,1.094443642E1
3.216562781E0,-5.092950344E0,-9.940950394E0,2.928000212E0,1.154702659E1
3.218525982E0,-4.939050198E0,-1.036305046E1,4.498950005E0,1.232994659E1
3.220489023E0,-4.134000301E0,-1.113000011E1,6.147000313E0,1.336983447E1
3.222452422E0,-3.100050211E0,-1.216395092E1,8.332050323E0,1.506635576E1
3.224415716E0,-1.720050097E0,-1.319895077E1,1.059300041E1,1.701124720E1
3.226379837E0,-1.870500147E-1,-1.427205086E1,1.323795033E1,1.946714546E1
3.228343716E0,1.077000022E0,-1.511595058E1,1.534605026E1,2.156740944E1
3.230306701E0,1.843950033E0,-1.561395073E1,1.733895111E1,2.340587180E1
3.232269948E0,2.725050211E0,-1.611194992E1,2.005995178E1,2.587320031E1
3.234232816E0,3.798000097E0,-1.668704987E1,2.228295135E1,2.809648304E1
3.236195795E0,5.025000095E0,-1.768395042E1,2.389305115E1,3.014714948E1
3.238159068E0,6.405000210E0,-1.867995071E1,2.538795090E1,3.216384052E1
3.240122254E0,7.822950363E0,-1.975305176E1,2.669100189E1,3.411438389E1
3.242085639E0,9.049050331E0,-2.086500168E1,2.722695160E1,3.547591437E1
3.244048957E0,9.969000816E0,-2.190000153E1,2.726595116E1,3.636513628E1
3.246011679E0,1.016100025E1,-2.255100060E1,2.703600121E1,3.664340207E1
3.247974575E0,9.892050743E0,-2.308800125E1,2.695905113E1,3.684696606E1
3.249937817E0,9.355950356E0,-2.370105171E1,2.619300079E1,3.654239934E1
3.251900957E0,8.359050751E0,-2.416095161E1,2.431500053E1,3.528235484E1
3.253864024E0,7.746000290E0,-2.442900085E1,2.105700111E1,3.316886943E1
3.255827113E0,7.285950184E0,-2.504205132E1,1.703205109E1,3.114932051E1
3.257790367E0,7.056000233E0,-2.577105141E1,1.143705082E1,2.906441744E1
3.259753573E0,7.285950184E0,-2.611605072E1,3.694050074E0,2.736382980E1
3.261717709E0,7.132950306E0,-2.596200180E1,-4.545000076E0,2.730497287E1
3.263681573E0,6.442950249E0,-2.619195175E1,-8.761050224E0,2.835993557E1
3.265644741E0,5.752950191E0,-2.761005211E1,-8.224950790E0,2.937790375E1
3.267608113E0,5.868000507E0,-2.937300110E1,-6.499950409E0,3.065054614E1
3.269571634E0,6.250950336E0,-3.021705055E1,-4.966950417E0,3.125404167E1
3.271535111E0,6.481050491E0,-3.060000229E1,-4.276950359E0,3.156986633E1
3.273498301E0,6.595950127E0,-3.060000229E1,-2.935050249E0,3.144012115E1
3.275461575E0,6.442950249E0,-2.983305168E1,-1.479000092E0,3.055666902E1
3.277424452E0,6.595950127E0,-2.883705139E1,-1.171950102E0,2.960499211E1
3.279387435E0,6.940950394E0,-2.764905167E1,-1.861950040E0,2.856770394E1
3.281350707E0,7.248000145E0,-2.642205048E1,-2.974050045E0,2.755908618E1
3.283313895E0,7.669050217E0,-2.531100082E1,-4.736999989E0,2.686820170E1
3.285277313E0,7.363050461E0,-2.416095161E1,-6.883050442E0,2.617904655E1
3.287240664E0,6.595950127E0,-2.327895164E1,-8.646000862E0,2.569376342E1
3.289204059E0,6.060000420E0,-2.258895111E1,-9.298050880E0,2.516819556E1
3.291167438E0,5.178000450E0,-2.205300140E1,-9.757950783E0,2.466503929E1
