"Time (s)","Acceleration x (m/s^2)","Acceleration y (m/s^2)","Acceleration z (m/s^2)","Absolute acceleration (m/s^2)"
4.045937800E-2,1.459950089E0,2.589405060E1,-5.733000278E0,2.656126132E1
4.242184100E-2,1.729050040E0,2.505105209E1,-6.154950142E0,2.585397912E1
4.438683900E-2,1.959000111E0,2.432295036E1,-6.499950409E0,2.525258306E1
4.635080300E-2,2.227050066E0,2.347905159E1,-6.883050442E0,2.456831290E1
4.831507000E-2,2.380050182E0,2.271300125E1,-7.150950432E0,2.393075755E1
5.027883400E-2,2.419050217E0,2.217600060E1,-7.266000271E0,2.346106490E1
5.224275200E-2,2.494950056E0,2.156295013E1,-7.266000271E0,2.289061717E1
5.420645100E-2,2.494950056E0,2.102595139E1,-7.228050232E0,2.237320088E1
5.617021400E-2,2.494950056E0,2.056605148E1,-7.150950432E0,2.191628028E1
5.813407300E-2,2.457000017E0,2.002995110E1,-7.036050320E0,2.137151829E1
6.009790400E-2,2.457000017E0,1.953195000E1,-6.921000481E0,2.086705939E1
6.206174800E-2,2.380050182E0,1.911000061E1,-6.844950199E0,2.043795747E1
6.402559200E-2,2.457000017E0,1.861200142E1,-6.691050529E0,1.993021834E1
6.598921400E-2,2.419050217E0,1.819005013E1,-6.499950409E0,1.946738510E1
6.795290100E-2,2.341950178E0,1.776900101E1,-6.270000458E0,1.898776009E1
6.991681900E-2,2.304000139E0,1.726995087E1,-6.040050507E0,1.844022315E1
7.188066900E-2,2.341950178E0,1.677195168E1,-5.887050152E0,1.792876050E1
7.384449600E-2,2.341950178E0,1.635000038E1,-5.695050240E0,1.747114307E1
7.580834400E-2,2.341950178E0,1.588995075E1,-5.427000046E0,1.695368972E1
7.777254900E-2,2.610000134E0,1.539195061E1,-5.272950172E0,1.647811420E1
7.973665000E-2,2.649000168E0,1.481700039E1,-4.966950417E0,1.585027756E1
8.170081300E-2,2.649000168E0,1.439595032E1,-4.660050392E0,1.536153173E1
8.366495700E-2,2.839950085E0,1.385895061E1,-4.200000286E0,1.475722979E1
8.562905400E-2,3.031950235E0,1.336095047E1,-3.855000257E0,1.423266478E1
8.759317500E-2,3.184950113E0,1.301595020E1,-3.625050068E0,1.388163733E1
8.955715400E-2,3.415050268E0,1.255605030E1,-3.280050039E0,1.341922858E1
9.152117500E-2,3.300000191E0,1.205805016E1,-3.012000084E0,1.285918813E1
9.348499100E-2,3.376950264E0,1.155900097E1,-2.974050045E0,1.240400218E1
9.544886700E-2,3.415050268E0,1.106100082E1,-2.743950129E0,1.189695633E1
9.741290800E-2,3.492000103E0,1.067805004E1,-2.820000172E0,1.158305738E1
9.937691800E-2,3.376950264E0,1.029495049E1,-2.974050045E0,1.123542488E1
1.013410970E-1,3.376950264E0,9.796050072E0,-3.204000235E0,1.084582904E1
1.033052260E-1,3.300000191E0,9.336000443E0,-2.935050249E0,1.032789550E1
1.052692050E-1,3.262050152E0,8.877000809E0,-2.743950129E0,9.847404575E0
1.072332280E-1,3.031950235E0,8.340000153E0,-2.245050192E0,9.153609951E0
1.091974030E-1,2.955000162E0,7.842000484E0,-2.322000027E0,8.696015276E0
1.111615340E-1,2.572050095E0,7.381950378E0,-2.437050104E0,8.188274928E0
1.131254680E-1,2.111999989E0,6.922050476E0,-2.590050220E0,7.686591370E0
1.150894590E-1,1.575000048E0,6.385050297E0,-2.514000177E0,7.040574503E0
1.170533250E-1,1.345050097E0,5.772000313E0,-1.786050081E0,6.189921023E0
1.190172280E-1,8.089500666E-1,5.197050095E0,-1.326000094E0,5.424205577E0
1.209803340E-1,3.870000243E-1,4.736999989E0,-9.810000658E-1,4.852968065E0
1.229436800E-1,4.200000316E-2,4.162050247E0,-5.209500194E-1,4.194736605E0
1.249072050E-1,-1.870500147E-1,3.586950064E0,-2.205000073E-2,3.591891517E0
1.268706780E-1,-4.930500090E-1,3.127050161E0,3.600000143E-1,3.186085535E0
1.288347690E-1,-7.230000496E-1,2.629050016E0,9.730500579E-1,2.895075038E0
1.307986780E-1,-1.030050039E0,2.245950222E0,1.318050027E0,2.800455562E0
1.327623600E-1,-1.375050068E0,1.786050081E0,1.624950051E0,2.778704779E0
1.347261220E-1,-1.873050094E0,1.363950014E0,1.893000126E0,2.992010323E0
1.366897570E-1,-2.256000042E0,9.040500522E-1,2.008050203E0,3.152635137E0
1.386534300E-1,-2.410050154E0,3.679500222E-1,2.085000038E0,3.207951702E0
1.406180710E-1,-2.524950027E0,-5.295000225E-2,2.122950077E0,3.299256488E0
1.425824280E-1,-2.640000105E0,-3.589500189E-1,2.161050081E0,3.430536856E0
1.445461680E-1,-2.677950144E0,-7.810500264E-1,2.085000038E0,3.482625630E0
1.465101030E-1,-2.601000071E0,-1.240950108E0,2.008050203E0,3.512466962E0
1.484739340E-1,-2.677950144E0,-1.585950017E0,1.816050053E0,3.603427843E0
1.504377950E-1,-2.640000105E0,-1.893000126E0,1.663050056E0,3.649491131E0
1.524018180E-1,-2.716050148E0,-2.122950077E0,1.548000097E0,3.778908538E0
1.543657930E-1,-2.908050060E0,-2.391000032E0,1.432950020E0,4.028272839E0
1.563293990E-1,-2.985000134E0,-2.581950188E0,1.126049995E0,4.104227231E0
1.582931410E-1,-2.946000099E0,-2.736000061E0,9.349500537E-1,4.127801415E0
1.602568250E-1,-3.061050177E0,-2.889000177E0,7.050000429E-1,4.267713119E0
1.622205260E-1,-2.946000099E0,-3.042000055E0,5.899500251E-1,4.275596093E0
1.641843510E-1,-3.061050177E0,-3.118950129E0,4.360500276E-1,4.391812577E0
1.661481390E-1,-2.985000134E0,-3.234000206E0,3.220500052E-1,4.412788159E0
1.681125220E-1,-3.022950172E0,-3.310950041E0,2.449500114E-1,4.490057731E0
1.700767410E-1,-3.061050177E0,-3.310950041E0,1.680000126E-1,4.512276849E0
1.720402080E-1,-3.022950172E0,-3.426000118E0,1.680000126E-1,4.572081425E0
1.740038960E-1,-2.985000134E0,-3.426000118E0,1.300500035E-1,4.545834974E0
1.759675440E-1,-2.830950022E0,-3.426000118E0,1.680000126E-1,4.447468813E0
1.779312040E-1,-2.830950022E0,-3.387000084E0,2.449500114E-1,4.421091280E0
1.798942350E-1,-2.524950027E0,-3.310950041E0,2.830500007E-1,4.173473388E0
1.818574440E-1,-1.911000133E0,-3.271950245E0,5.130000114E-1,3.823708792E0
1.838213980E-1,-1.222050071E0,-3.271950245E0,7.810500264E-1,3.578980850E0
1.857851340E-1,-6.079500318E-1,-3.157050133E0,1.087950110E0,3.394142635E0
1.877491790E-1,-2.629500031E-1,-3.042000055E0,1.432950020E0,3.372870113E0
1.897131340E-1,4.200000316E-2,-2.851050138E0,1.585950017E0,3.262742458E0
1.916769580E-1,2.340000123E-1,-2.620950222E0,1.816050053E0,3.197213453E0
1.936408240E-1,5.020500422E-1,-2.428950071E0,2.200050116E0,3.315429566E0
1.956051610E-1,8.470500112E-1,-2.199000120E0,2.430000067E0,3.384966111E0
1.975693600E-1,1.077000022E0,-2.008050203E0,2.545050144E0,3.416061314E0
1.995330120E-1,1.306950092E0,-1.816050053E0,2.698050022E0,3.505086341E0
2.014968240E-1,1.422000051E0,-1.624050021E0,2.851050138E0,3.576046631E0
2.034604450E-1,1.690050125E0,-1.471050024E0,3.004050255E0,3.747609309E0
2.054241260E-1,1.882050037E0,-1.318050027E0,3.043050051E0,3.813072492E0
2.073878640E-1,2.149950027E0,-1.087950110E0,3.196050167E0,4.002581321E0
2.093515860E-1,2.341950178E0,-9.340500236E-1,3.234000206E0,4.100724011E0
2.113157690E-1,2.494950056E0,-7.810500264E-1,3.234000206E0,4.158554107E0
2.132798170E-1,2.725050211E0,-6.280500293E-1,3.196050167E0,4.246773147E0
2.152436100E-1,2.878050089E0,-5.509500504E-1,3.157950163E0,4.308058438E0
2.172074920E-1,2.992950201E0,-4.360500276E-1,3.043050051E0,4.290459666E0
2.191709710E-1,3.184950113E0,-2.830500007E-1,2.889000177E0,4.309332495E0
2.211345690E-1,3.337950230E0,-2.059500068E-1,2.545050144E0,4.202571520E0
2.230982760E-1,3.415050268E0,-1.680000126E-1,2.238000154E0,4.086494467E0
2.250619510E-1,3.492000103E0,-1.290000081E-1,1.969950080E0,4.011409857E0
2.270251410E-1,3.492000103E0,-5.295000225E-2,1.585950017E0,3.835636307E0
2.289884490E-1,3.529950142E0,6.105000153E-2,1.432950020E0,3.810199584E0
2.309524310E-1,3.607050180E0,1.380000114E-1,1.165050030E0,3.793045818E0
2.329162160E-1,3.682950258E0,2.140500098E-1,8.200500607E-1,3.779209192E0
2.348809740E-1,3.798000097E0,2.910000086E-1,5.899500251E-1,3.854546248E0
2.368454470E-1,3.874950171E0,3.679500222E-1,1.300500035E-1,3.894552483E0
2.388093570E-1,4.027950287E0,4.440000355E-1,-2.910000086E-1,4.062782366E0
2.407734390E-1,4.066950321E0,5.980500579E-1,-4.819500148E-1,4.138843390E0
2.427372440E-1,4.182000160E0,7.510500550E-1,-7.510500550E-1,4.314774352E0
2.447011310E-1,4.219950199E0,7.890000343E-1,-1.018950105E0,4.412341788E0
2.466649700E-1,4.335000038E0,9.040500522E-1,-1.249050021E0,4.601049639E0
2.486288240E-1,4.297049999E0,1.018950105E0,-1.441050053E0,4.645376547E0
2.505927790E-1,4.297049999E0,1.096050024E0,-1.708950043E0,4.752522972E0
2.525567210E-1,4.258049965E0,1.134000063E0,-1.671000123E0,4.712662417E0
2.545205520E-1,4.182000160E0,1.173000097E0,-1.747050047E0,4.681585034E0
2.564844150E-1,4.105050087E0,1.210950017E0,-1.708950043E0,4.608508046E0
2.584484370E-1,3.990000248E0,1.249050021E0,-1.632000089E0,4.488168025E0
2.604124130E-1,3.760050297E0,1.288050056E0,-1.555950046E0,4.268258629E0
2.623760530E-1,3.568050146E0,1.326000094E0,-1.441050053E0,4.070120803E0
2.643397950E-1,3.300000191E0,1.363950014E0,-1.287000060E0,3.795619851E0
2.663038380E-1,2.992950201E0,1.402950048E0,-1.249050021E0,3.533574069E0
2.682677930E-1,2.649000168E0,1.402950048E0,-1.134000063E0,3.204906687E0
2.702314860E-1,2.304000139E0,1.441050053E0,-1.018950105E0,2.902292406E0
2.721952560E-1,1.843950033E0,1.479000092E0,-1.018950105E0,2.574073098E0
2.741593040E-1,1.422000051E0,1.518000126E0,-8.269500136E-1,2.238359857E0
2.761232640E-1,1.153950095E0,1.518000126E0,-7.890000343E-1,2.063600315E0
2.780865060E-1,8.089500666E-1,1.518000126E0,-7.120500207E-1,1.861649759E0
2.800499590E-1,3.490500152E-1,1.518000126E0,-5.970000029E-1,1.668103504E0
2.820139160E-1,4.200000316E-2,1.441050053E0,-3.289500177E-1,1.478714769E0
2.839777260E-1,-2.250000089E-1,1.441050053E0,-2.205000073E-2,1.458676270E0
2.859409780E-1,-3.400500119E-1,1.402950048E0,4.360500276E-1,1.507992863E0
2.879044050E-1,-4.549500346E-1,1.402950048E0,1.126049995E0,1.855596121E0
2.898683670E-1,-4.549500346E-1,1.402950048E0,1.701000094E0,2.251366184E0
2.918321720E-1,-4.549500346E-1,1.441050053E0,2.391000032E0,2.828513027E0
2.937962060E-1,-3.400500119E-1,1.555950046E0,3.118950129E0,3.502065742E0
2.957601720E-1,-3.400500119E-1,1.671000123E0,3.924000263E0,4.278510662E0
2.977241340E-1,-2.629500031E-1,1.900950074E0,4.921050072E0,5.281996564E0
2.996880970E-1,-3.299999982E-2,2.053950071E0,6.109050274E0,6.445176114E0
3.016521020E-1,1.960500032E-1,2.245950222E0,7.489050388E0,7.821035975E0
3.036160950E-1,4.639500082E-1,2.551950216E0,8.830050468E0,9.203123969E0
3.055806820E-1,7.699500322E-1,2.896950245E0,1.017195034E1,1.060441972E1
3.075450950E-1,9.240000248E-1,3.204000235E0,1.132200050E1,1.180284241E1
3.095088360E-1,1.153950095E0,3.511050224E0,1.224105072E1,1.278680559E1
3.114727810E-1,1.306950092E0,3.894000292E0,1.270095062E1,1.334861429E1
3.134365650E-1,1.384050012E0,4.201050282E0,1.266300106E1,1.341327752E1
3.154003960E-1,1.729050040E0,4.507050037E0,1.197300053E1,1.290952577E1
3.173642430E-1,2.111999989E0,4.890000343E0,1.086195087E1,1.209771152E1
3.193280860E-1,2.457000017E0,5.350050449E0,9.252000809E0,1.096628505E1
3.212917540E-1,2.686950207E0,5.887050152E0,7.527000427E0,9.926368739E0
3.232554730E-1,2.686950207E0,6.730050087E0,5.802000046E0,9.283128789E0
3.252192050E-1,2.494950056E0,7.957050323E0,4.153950214E0,9.316368821E0
3.271829330E-1,2.111999989E0,9.412950516E0,2.812950134E0,1.004872479E1
3.291467540E-1,1.651950121E0,1.083105087E1,1.624950051E0,1.107614847E1
3.311105480E-1,1.230000019E0,1.244100094E1,8.200500607E-1,1.252852292E1
3.330744170E-1,6.940500140E-1,1.439595032E1,1.300500035E-1,1.441325792E1
3.350382540E-1,2.719500065E-1,1.627395058E1,-2.205000073E-2,1.627623760E1
3.370022820E-1,2.719500065E-1,1.838205147E1,-2.205000073E-2,1.838407624E1
3.389662540E-1,3.109500110E-1,2.095005035E1,9.195000678E-2,2.095255962E1
3.409312060E-1,3.490500152E-1,2.390100098E1,-2.205000073E-2,2.390355977E1
3.428958700E-1,8.850000501E-1,2.704395103E1,-5.209500194E-1,2.706344216E1
3.448597810E-1,1.690050125E0,2.999505234E1,-1.363950014E0,3.007357301E1
3.468238960E-1,2.572050095E0,3.294600296E1,-2.859000206E0,3.316969151E1
3.487880550E-1,3.529950142E0,3.528404999E1,-4.507050037E0,3.574546449E1
3.507522010E-1,4.756950378E0,3.700905228E1,-6.270000458E0,3.783664141E1
3.527161330E-1,5.830050468E0,3.823500061E1,-8.148000717E0,3.952587350E1
3.546801270E-1,7.018050194E0,3.854205322E1,-9.796050072E0,4.038199465E1
3.566441580E-1,7.516050339E0,3.823500061E1,-1.083105087E1,4.044401003E1
3.586081880E-1,6.405000210E0,3.743100357E1,-1.106100082E1,3.955312624E1
3.605723630E-1,4.182000160E0,3.601200104E1,-1.048605061E1,3.774003976E1
3.625364950E-1,1.882050037E0,3.428805161E1,-9.028950691E0,3.550682393E1
3.644995720E-1,-3.019500077E-1,3.248595047E1,-7.611000538E0,3.336698190E1
3.664629590E-1,-2.410050154E0,3.045495224E1,-7.113000393E0,3.136729558E1
3.684268830E-1,-4.173000336E0,2.838495064E1,-7.150950432E0,2.956781099E1
3.703906490E-1,-5.668050289E0,2.654595184E1,-7.534950256E0,2.817072645E1
3.723544640E-1,-6.817050457E0,2.497395134E1,-7.918050289E0,2.707149687E1
3.743182640E-1,-7.852050304E0,2.382405090E1,-8.148000717E0,2.637479879E1
3.762818040E-1,-8.542050362E0,2.294295120E1,-8.263050079E0,2.583841386E1
3.782454200E-1,-8.887050629E0,2.236800194E1,-8.148000717E0,2.541057054E1
3.802096240E-1,-8.964000702E0,2.183100128E1,-8.185950279E0,2.497910542E1
3.821736530E-1,-8.887050629E0,2.140995026E1,-8.148000717E0,2.457143778E1
3.841378290E-1,-8.656949997E0,2.091105080E1,-7.995000362E0,2.400280941E1
3.861019610E-1,-8.464950562E0,2.052795029E1,-7.765050411E0,2.352335305E1
3.880661190E-1,-8.464950562E0,2.018295097E1,-7.342950344E0,2.308518611E1
3.900302690E-1,-8.542050362E0,1.999200058E1,-6.997950554E0,2.283895846E1
3.919941140E-1,-8.695050240E0,1.980000114E1,-7.036050320E0,2.274093112E1
3.939580450E-1,-9.193950653E0,1.960800171E1,-7.113000393E0,2.279467557E1
3.959223710E-1,-9.499950409E0,1.926300049E1,-7.305000305E0,2.268645576E1
3.978865810E-1,-9.654000282E0,1.895700073E1,-7.342950344E0,2.250525534E1
3.998503660E-1,-9.654000282E0,1.853505135E1,-7.381050587E0,2.216365849E1
4.018142760E-1,-9.654000282E0,1.811295128E1,-7.381050587E0,2.181189201E1
4.037781560E-1,-9.499950409E0,1.765395164E1,-7.266000271E0,2.132383236E1
4.057420450E-1,-9.462000847E0,1.730895042E1,-7.266000271E0,2.102198813E1
4.077061980E-1,-9.193950653E0,1.696395111E1,-7.189950466E0,2.059125430E1
4.096702740E-1,-9.040050507E0,1.665705109E1,-7.113000393E0,2.024289106E1
4.116340820E-1,-8.925000191E0,1.635000038E1,-6.844950199E0,1.984518793E1
4.135979680E-1,-9.001950264E0,1.623495102E1,-6.538050175E0,1.968133235E1
4.155616720E-1,-9.040050507E0,1.612005043E1,-6.193050385E0,1.949185502E1
4.175254290E-1,-9.117000580E0,1.600500107E1,-5.695050240E0,1.927986919E1
4.194891100E-1,-9.117000580E0,1.585200119E1,-5.235000134E0,1.902132665E1
4.214528140E-1,-9.040050507E0,1.558395100E1,-4.927950382E0,1.867797464E1
4.234166380E-1,-9.001950264E0,1.546905041E1,-4.545000076E0,1.846574274E1
4.253804270E-1,-9.001950264E0,1.546905041E1,-4.276950359E0,1.840160138E1
4.273443240E-1,-8.925000191E0,1.539195061E1,-4.047000408E0,1.824680751E1
4.293081920E-1,-8.809950829E0,1.543095112E1,-3.894000292E0,1.819045696E1
4.312720350E-1,-8.619000435E0,1.543095112E1,-3.664050102E0,1.805066991E1
4.332358860E-1,-8.350950241E0,1.535400105E1,-3.549000263E0,1.783477280E1
4.351999100E-1,-8.121000290E0,1.543095112E1,-3.357000113E0,1.775765604E1
4.371638840E-1,-8.044050217E0,1.562205029E1,-3.049950123E0,1.783416370E1
4.391277140E-1,-7.891050339E0,1.569900036E1,-2.514000177E0,1.774957703E1
4.410915830E-1,-7.621950150E0,1.566000080E1,-1.747050047E0,1.750376911E1
4.430552000E-1,-7.507050514E0,1.562205029E1,-9.040500522E-1,1.735573591E1
4.450188910E-1,-7.507050514E0,1.539195061E1,2.070000172E-1,1.712631893E1
4.469820430E-1,-7.431000233E0,1.508595085E1,1.126049995E0,1.685448505E1
4.489453530E-1,-7.354050159E0,1.485600090E1,1.585950017E0,1.665226873E1
4.509091600E-1,-7.201050282E0,1.439595032E1,2.275950193E0,1.625664356E1
4.528728170E-1,-7.047000408E0,1.397400093E1,2.812950134E0,1.590111962E1
4.548368760E-1,-6.741000175E0,1.351395035E1,3.157950163E0,1.542856398E1
4.568008170E-1,-6.433950424E0,1.320795059E1,3.043050051E0,1.500352727E1
4.587648270E-1,-5.898000240E0,1.282395077E1,2.659050226E0,1.436351866E1
4.607288170E-1,-5.169000149E0,1.228800011E1,2.275950193E0,1.352381080E1
4.626926200E-1,-4.518000126E0,1.167405033E1,1.893000126E0,1.266014320E1
4.646564920E-1,-3.790050268E0,1.098495007E1,1.663050056E0,1.173879655E1
4.666203340E-1,-3.175950050E0,1.048605061E1,1.471050024E0,1.105476839E1
4.685841850E-1,-2.601000071E0,1.010295010E1,1.432950020E0,1.053034414E1
4.705481640E-1,-2.103000164E0,9.873000145E0,1.279950023E0,1.017531393E1
4.725121060E-1,-1.567050099E0,9.720000267E0,1.279950023E0,9.928359546E0
4.744760010E-1,-1.030050039E0,9.681000710E0,1.126049995E0,9.800549291E0
4.764398960E-1,-6.469500065E-1,9.796050072E0,1.126049995E0,9.881757430E0
4.784037340E-1,-1.870500147E-1,1.021800041E1,1.318050027E0,1.030435714E1
4.803675880E-1,1.570500135E-1,1.067805004E1,1.240950108E0,1.075106388E1
4.823314330E-1,3.109500110E-1,1.129095078E1,1.203000069E0,1.135911390E1
4.842952810E-1,4.639500082E-1,1.182795048E1,1.050000072E0,1.188352482E1
4.862605230E-1,6.169500351E-1,1.221105099E1,8.580000401E-1,1.225669440E1
4.882253560E-1,8.089500666E-1,1.267095089E1,5.509500504E-1,1.270869555E1
4.901899350E-1,8.470500112E-1,1.309305096E1,2.449500114E-1,1.312270847E1
4.921545880E-1,8.850000501E-1,1.362900066E1,2.070000172E-1,1.365927279E1
4.941174400E-1,1.000050068E0,1.401195049E1,2.830500007E-1,1.405044391E1
4.960808190E-1,1.306950092E0,1.416600037E1,3.600000143E-1,1.423071625E1
4.980448880E-1,1.575000048E0,1.420395088E1,3.979500234E-1,1.429654539E1
5.000087490E-1,1.767000079E0,1.420395088E1,3.220500052E-1,1.431706067E1
5.019726380E-1,2.188950062E0,1.393605042E1,5.509500504E-1,1.411766799E1
5.039365190E-1,2.764050245E0,1.339905071E1,1.203000069E0,1.373396312E1
5.059007190E-1,2.955000162E0,1.297800064E1,1.624950051E0,1.340898912E1
5.078648260E-1,3.337950230E0,1.236405087E1,2.353049994E0,1.302107944E1
5.098288090E-1,3.607050180E0,1.167405033E1,3.196050167E0,1.262968720E1
5.117928280E-1,3.952050209E0,1.102305031E1,3.924000263E0,1.235006547E1
5.137568250E-1,4.488000393E0,1.010295010E1,4.690950394E0,1.200902843E1
5.157208280E-1,4.948050022E0,9.220950127E0,5.188950062E0,1.168051039E1
5.176850070E-1,5.485050201E0,8.263050079E0,5.649000168E0,1.141380634E1
5.196491340E-1,6.097950459E0,7.228050232E0,6.031950474E0,1.121669009E1
5.216131130E-1,6.481050491E0,6.309000492E0,6.223950386E0,1.097930148E1
5.235771360E-1,6.711000443E0,5.389050484E0,6.568950176E0,1.082730338E1
5.255411320E-1,6.711000443E0,4.545000076E0,6.721950531E0,1.052991793E1
5.275051360E-1,6.673050404E0,3.817050219E0,6.876000404E0,1.031401259E1
5.294687750E-1,6.634950161E0,3.088950157E0,6.876000404E0,1.004208934E1
5.314325210E-1,6.558000088E0,2.476050138E0,6.721950531E0,9.711993018E0
5.333961590E-1,6.405000210E0,1.900950074E0,6.376950264E0,9.235969551E0
5.353598280E-1,6.328050137E0,1.441050053E0,6.070950508E0,8.886916443E0
5.373237040E-1,6.213000298E0,9.430500269E-1,5.802000046E0,8.553006523E0
5.392875190E-1,5.983050346E0,5.209500194E-1,5.649000168E0,8.244967148E0
5.412521370E-1,5.715000153E0,6.105000153E-2,5.841000080E0,8.172039879E0
5.432165190E-1,5.331000328E0,-9.105000645E-2,6.415950298E0,8.342198321E0
5.451804140E-1,4.872000217E0,-1.680000126E-1,6.339000225E0,7.996720201E0
5.471444490E-1,4.564949989E0,-3.979500234E-1,4.996950150E0,6.779870458E0
5.491082620E-1,4.488000393E0,-7.429500222E-1,3.847950220E0,5.958258400E0
5.510721410E-1,4.258049965E0,-1.087950110E0,3.157950163E0,5.411771815E0
5.530359810E-1,4.182000160E0,-1.432950020E0,2.928000212E0,5.302419857E0
5.549998330E-1,3.492000103E0,-1.164000034E0,2.736000061E0,4.586355539E0
5.569635290E-1,3.147000074E0,-1.471050024E0,3.004050255E0,4.592593556E0
5.589272810E-1,3.147000074E0,-1.816050053E0,3.618000269E0,5.127530908E0
5.608911420E-1,3.184950113E0,-2.122950077E0,4.000950336E0,5.537005314E0
5.628549710E-1,3.108000040E0,-2.506050110E0,4.308000088E0,5.873569286E0
5.648188210E-1,2.955000162E0,-2.773950100E0,4.308000088E0,5.914870233E0
5.667826640E-1,2.725050211E0,-3.004050255E0,4.153950214E0,5.805645440E0
5.687459160E-1,2.494950056E0,-3.310950041E0,3.847950220E0,5.656313893E0
5.707093480E-1,2.304000139E0,-3.579000235E0,3.502950191E0,5.512560146E0
5.726731290E-1,2.149950027E0,-3.808950186E0,3.043050051E0,5.328277419E0
5.746368070E-1,1.996950150E0,-4.116000175E0,2.736000061E0,5.330568795E0
5.766004580E-1,1.920000076E0,-4.422000408E0,2.545050144E0,5.451400567E0
5.785641170E-1,1.843950033E0,-4.614000320E0,2.314950228E0,5.481618852E0
5.805278140E-1,1.729050040E0,-4.843950272E0,1.969950080E0,5.507646647E0
5.824915000E-1,1.651950121E0,-5.035050392E0,1.740000129E0,5.577479010E0
5.844554190E-1,1.575000048E0,-5.227050304E0,1.510050058E0,5.664179659E0
5.864192690E-1,1.422000051E0,-5.380050182E0,1.395000100E0,5.736989575E0
5.883829360E-1,1.384050012E0,-5.380050182E0,1.203000069E0,5.683990109E0
5.903466560E-1,1.306950092E0,-5.457000256E0,1.011000037E0,5.701674439E0
5.923099780E-1,1.230000019E0,-5.419050217E0,8.580000401E-1,5.622736822E0
5.942734200E-1,1.077000022E0,-5.188950062E0,6.660000086E-1,5.341225309E0
5.962367950E-1,8.850000501E-1,-5.074050426E0,7.050000429E-1,5.198676551E0
5.982001890E-1,7.320000529E-1,-4.767000198E0,7.429500222E-1,4.879763284E0
6.001632120E-1,6.169500351E-1,-4.345950127E0,7.429500222E-1,4.451952896E0
6.021263430E-1,4.260000288E-1,-3.732000113E0,7.050000429E-1,3.821822330E0
6.040897750E-1,2.719500065E-1,-3.118950129E0,7.050000429E-1,3.209179299E0
6.060531150E-1,2.340000123E-1,-2.467050076E0,7.050000429E-1,2.576454374E0
6.080170480E-1,2.340000123E-1,-1.777950048E0,6.660000086E-1,1.912960635E0
6.099808070E-1,3.109500110E-1,-1.240950108E0,5.899500251E-1,1.408789591E0
6.119455240E-1,3.109500110E-1,-6.660000086E-1,3.979500234E-1,8.358290148E-1
6.139099610E-1,4.639500082E-1,-3.210000098E-1,2.070000172E-1,6.009489358E-1
6.158737070E-1,6.169500351E-1,-9.105000645E-2,5.295000225E-2,6.258763074E-1
6.178376560E-1,8.089500666E-1,1.759500057E-1,1.500000060E-2,8.279997673E-1
6.198018440E-1,1.000050068E0,3.679500222E-1,9.195000678E-2,1.069552318E0
6.217659610E-1,1.153950095E0,5.980500579E-1,2.070000172E-1,1.316097907E0
6.237289060E-1,1.306950092E0,6.739500165E-1,3.979500234E-1,1.523381564E0
6.256921940E-1,1.384050012E0,8.280000687E-1,6.280500293E-1,1.730787505E0
6.276563530E-1,1.575000048E0,9.430500269E-1,1.011000037E0,2.095731275E0
6.296202300E-1,1.804950118E0,1.057950020E0,1.356000066E0,2.493158509E0
6.315840270E-1,2.074050188E0,1.096050024E0,1.510050058E0,2.789849640E0
6.335478480E-1,2.304000139E0,1.134000063E0,1.585950017E0,3.018213087E0
6.355115630E-1,2.494950056E0,1.210950017E0,1.701000094E0,3.253394696E0
6.374753090E-1,2.686950207E0,1.249050021E0,1.816050053E0,3.475322311E0
6.394393060E-1,2.992950201E0,1.363950014E0,1.930950046E0,3.814010832E0
6.414032300E-1,3.262050152E0,1.441050053E0,2.085000038E0,4.130958921E0
6.433667490E-1,3.568050146E0,1.671000123E0,2.314950228E0,4.569706535E0
6.453303860E-1,3.837000132E0,1.939050078E0,2.736000061E0,5.095898503E0
6.472942670E-1,4.182000160E0,2.131050110E0,3.349050045E0,5.765989604E0
6.492580760E-1,4.450050354E0,2.398950100E0,4.231050014E0,6.592396678E0
6.512221420E-1,4.488000393E0,2.743950129E0,5.380950451E0,7.525027415E0
6.531861090E-1,4.488000393E0,3.051000118E0,6.568950176E0,8.520672254E0
6.551501150E-1,4.297049999E0,3.511050224E0,7.948950291E0,9.694221119E0
6.571141090E-1,4.066950321E0,3.856050253E0,9.289950371E0,1.084953392E1
6.590780660E-1,3.721950293E0,4.354050159E0,1.047795010E1,1.194144485E1
6.610420340E-1,3.337950230E0,4.774950027E0,1.128300095E1,1.269835304E1
6.630060380E-1,3.031950235E0,5.274000168E0,1.159005070E1,1.308957888E1
6.649700320E-1,2.764050245E0,5.809950352E0,1.132200050E1,1.302241115E1
6.669338990E-1,2.457000017E0,6.424050331E0,1.063200092E1,1.266272938E1
6.688978040E-1,2.227050066E0,7.305000305E0,9.481950760E0,1.217498138E1
6.708618190E-1,2.074050188E0,8.071949959E0,7.756950378E0,1.138544419E1
6.728258020E-1,2.457000017E0,8.647050858E0,5.380950451E0,1.047678221E1
6.747905260E-1,2.839950085E0,9.145050049E0,2.620950222E0,9.928073174E0
6.767550320E-1,3.262050152E0,9.565950394E0,-3.289500177E-1,1.011219987E1
6.787194420E-1,3.568050146E0,9.949950218E0,-3.739950180E0,1.121248048E1
6.806838810E-1,3.874950171E0,1.052505016E1,-5.962950230E0,1.270231062E1
6.826480310E-1,3.952050209E0,1.171305084E1,-6.921000481E0,1.416737479E1
6.846122650E-1,3.415050268E0,1.339905071E1,-7.495950222E0,1.572852180E1
6.865761510E-1,2.341950178E0,1.500900078E1,-7.726050377E0,1.704249657E1
6.885401590E-1,7.320000529E-1,1.696395111E1,-7.495950222E0,1.856073089E1
6.905029410E-1,-1.106999993E0,1.933995056E1,-6.844950199E0,2.054537612E1
6.924660820E-1,-3.022950172E0,2.167800140E1,-5.580000401E0,2.258783693E1
6.944300030E-1,-4.671000004E0,2.436105156E1,-4.392000198E0,2.519064787E1
6.963936960E-1,-6.051000118E0,2.769495201E1,-3.088950157E0,2.851607586E1
6.983572050E-1,-6.931950092E0,3.106800079E1,-1.479000092E0,3.186628385E1
7.003207710E-1,-7.392000198E0,3.447900009E1,-1.369500011E-1,3.526275471E1
7.022841690E-1,-7.776000500E0,3.815895081E1,9.349500537E-1,3.895440722E1
7.042476170E-1,-7.315950394E0,4.141695023E1,1.240950108E0,4.207644060E1
7.062124320E-1,-6.931950092E0,4.410000229E1,5.295000225E-2,4.464151585E1
7.081768460E-1,-6.319050312E0,4.632300186E1,-5.590500236E-1,4.675535729E1
7.101403700E-1,-5.590950489E0,4.839195251E1,-1.786050081E0,4.874658727E1
7.121041550E-1,-4.824000359E0,5.011695099E1,-2.743950129E0,5.042329837E1
7.140676960E-1,-4.173000336E0,5.157300186E1,-3.394950151E0,5.185281226E1
7.160313090E-1,-4.018949986E0,5.207205200E1,-4.429950237E0,5.241445428E1
7.179950140E-1,-3.828000069E0,5.168805313E1,-5.311950207E0,5.210110590E1
7.199586920E-1,-3.751050234E0,5.007900238E1,-5.809950352E0,5.055425185E1
7.219223680E-1,-3.483000278E0,4.770195389E1,-6.078000069E0,4.821358502E1
7.238860580E-1,-3.022950172E0,4.463595200E1,-5.962950230E0,4.513383668E1
7.258499310E-1,-2.601000071E0,4.160805130E1,-6.001950264E0,4.211909948E1
7.278137500E-1,-2.103000164E0,3.858000183E1,-6.040050507E0,3.910653860E1
7.297774210E-1,-1.873050094E0,3.578205109E1,-6.346950531E0,3.638883452E1
7.317411360E-1,-1.681950092E0,3.329100037E1,-6.538050175E0,3.396859964E1
7.337051290E-1,-1.567050099E0,3.110700226E1,-6.768000126E0,3.187329699E1
7.356690480E-1,-1.336950064E0,2.911305046E1,-7.113000393E0,2.999919861E1
7.376328830E-1,-1.030050039E0,2.727405167E1,-7.534950256E0,2.831449051E1
7.395967420E-1,-7.230000496E-1,2.551095200E1,-8.263050079E0,2.682553629E1
7.415604060E-1,-4.930500090E-1,2.393895149E1,-8.838000298E0,2.552306302E1
7.435241270E-1,-7.200000435E-2,2.259795189E1,-9.028950691E0,2.433504806E1
7.454880380E-1,1.189500093E-1,2.137095070E1,-9.451050758E0,2.336779928E1
7.474518940E-1,3.490500152E-1,2.041305161E1,-9.528000832E0,2.252992036E1
7.494164590E-1,4.639500082E-1,1.945500183E1,-9.489000320E0,2.165071530E1
7.513808170E-1,6.169500351E-1,1.864995003E1,-9.373950005E0,2.088234187E1
7.533445310E-1,6.940500140E-1,1.803705025E1,-9.259050369E0,2.028661876E1
7.553084340E-1,6.169500351E-1,1.753905106E1,-8.991000175E0,1.971895087E1
7.572714040E-1,4.639500082E-1,1.704000092E1,-8.416049957E0,1.901070166E1
7.592346550E-1,3.870000243E-1,1.654200172E1,-7.840950489E0,1.831032754E1
7.611987820E-1,2.719500065E-1,1.612005043E1,-7.381050587E0,1.773160710E1
7.631626530E-1,1.960500032E-1,1.577505112E1,-6.921000481E0,1.722762087E1
7.651264510E-1,1.570500135E-1,1.535400105E1,-6.730050087E0,1.676495115E1
7.670902700E-1,1.189500093E-1,1.500900078E1,-6.538050175E0,1.637163259E1
7.690539410E-1,8.100000024E-2,1.458705044E1,-6.307950497E0,1.589272918E1
7.710176550E-1,8.100000024E-2,1.408905029E1,-5.962950230E0,1.529917235E1
7.729815230E-1,2.719500065E-1,1.362900066E1,-5.925000191E0,1.486368875E1
7.749453450E-1,3.870000243E-1,1.309305096E1,-5.656950474E0,1.426810573E1
7.769097360E-1,6.550500393E-1,1.255605030E1,-5.427000046E0,1.369437181E1
7.788739610E-1,7.699500322E-1,1.205805016E1,-5.311950207E0,1.319872007E1
7.808375820E-1,8.850000501E-1,1.159800053E1,-4.890000343E0,1.261780269E1
7.828013660E-1,1.306950092E0,1.098495007E1,-4.698000431E0,1.201867108E1
7.847652220E-1,1.384050012E0,1.052505016E1,-4.507050037E0,1.153281299E1
7.867290570E-1,1.575000048E0,1.018005085E1,-4.237950325E0,1.113886365E1
7.886927260E-1,1.843950033E0,9.796050072E0,-3.778950214E0,1.066035710E1
7.906564430E-1,2.074050188E0,9.336000443E0,-3.394950151E0,1.014831390E1
7.926199650E-1,2.149950027E0,9.067950249E0,-3.357000113E0,9.905526568E0
7.945835340E-1,2.341950178E0,8.722949982E0,-3.394950151E0,9.648848302E0
7.965472470E-1,2.572050095E0,8.340000153E0,-3.970050097E0,9.588135481E0
7.985109170E-1,2.610000134E0,7.995000362E0,-3.664050102E0,9.173733953E0
8.004747930E-1,2.494950056E0,7.687950134E0,-3.319050074E0,8.737588136E0
8.024386090E-1,2.610000134E0,7.305000305E0,-3.165000200E0,8.378087874E0
8.044021460E-1,2.686950207E0,7.036950111E0,-3.204000235E0,8.185596239E0
8.063657650E-1,2.610000134E0,6.691950321E0,-3.204000235E0,7.865107584E0
8.083292900E-1,2.457000017E0,6.499950409E0,-3.357000113E0,7.717230990E0
8.102928420E-1,2.265000105E0,6.232050419E0,-3.510000229E0,7.502584855E0
8.122567370E-1,1.920000076E0,5.925000191E0,-3.625050068E0,7.206456518E0
8.142205320E-1,1.651950121E0,5.503950119E0,-3.625050068E0,6.794364879E0
8.161841390E-1,1.422000051E0,5.044050217E0,-3.586950064E0,6.350648588E0
8.181478180E-1,1.422000051E0,4.584000111E0,-3.357000113E0,5.857012115E0
8.201113320E-1,1.306950092E0,4.085999966E0,-3.012000084E0,5.241722882E0
8.220748950E-1,1.269000053E0,3.664050102E0,-2.551950216E0,4.641990327E0
8.240380680E-1,1.192050099E0,3.166050196E0,-2.053950071E0,3.957722600E0
8.260013560E-1,1.039050102E0,2.743950129E0,-1.594050050E0,3.339144050E0
8.279654920E-1,8.850000501E-1,2.284050226E0,-1.171950102E0,2.715433219E0
8.299293690E-1,8.850000501E-1,1.978050113E0,-8.659500480E-1,2.333618825E0
8.318932110E-1,7.320000529E-1,1.555950046E0,-5.209500194E-1,1.796717436E0
8.338570640E-1,5.410500169E-1,1.210950017E0,-2.520000041E-1,1.350051505E0
8.358202330E-1,3.109500110E-1,8.280000687E-1,-1.759500057E-1,9.017940051E-1
8.377836020E-1,1.960500032E-1,4.060500264E-1,5.295000225E-2,4.539999234E-1
8.397482050E-1,2.340000123E-1,-1.500000060E-2,1.300500035E-1,2.681305823E-1
8.417124460E-1,2.340000123E-1,-2.830500007E-1,2.070000172E-1,4.215712463E-1
8.436753240E-1,1.960500032E-1,-5.890500546E-1,2.830500007E-1,6.822996947E-1
8.456386020E-1,1.189500093E-1,-1.087950110E0,5.509500504E-1,1.225287928E0
8.476024100E-1,8.100000024E-2,-1.509000063E0,7.429500222E-1,1.683929014E0
8.495660620E-1,1.189500093E-1,-1.854000092E0,1.050000072E0,2.134002248E0
8.515301260E-1,4.200000316E-2,-2.199000120E0,1.356000066E0,2.583815339E0
8.534940660E-1,8.100000024E-2,-2.581950188E0,1.510050058E0,2.992203026E0
8.554580310E-1,4.200000316E-2,-2.926950216E0,1.548000097E0,3.311360124E0
8.574219890E-1,4.200000316E-2,-3.310950041E0,1.585950017E0,3.671429099E0
8.593858170E-1,-7.200000435E-2,-3.541050196E0,1.663050056E0,3.912793884E0
8.613496830E-1,-1.099500060E-1,-3.847050190E0,1.777950048E0,4.239456397E0
8.633133910E-1,-4.170000255E-1,-4.077000141E0,1.816050053E0,4.482617200E0
8.652771450E-1,-5.700000525E-1,-4.192049980E0,1.740000129E0,4.574470849E0
8.672406460E-1,-7.230000496E-1,-4.384050369E0,1.740000129E0,4.771815918E0
8.692042220E-1,-9.150000215E-1,-4.537050247E0,1.585950017E0,4.892574725E0
8.711677540E-1,-9.919500351E-1,-4.614000320E0,1.701000094E0,5.016608929E0
8.731312990E-1,-1.183050036E0,-4.690050125E0,1.740000129E0,5.140406405E0
8.750950350E-1,-1.375050068E0,-4.767000198E0,1.816050053E0,5.283284147E0
8.770587010E-1,-1.528050065E0,-4.767000198E0,1.930950046E0,5.365425982E0
8.790223980E-1,-1.795950055E0,-4.843950272E0,2.122950077E0,5.585356557E0
8.809860860E-1,-2.103000164E0,-4.843950272E0,2.506050110E0,5.845233193E0
8.829499140E-1,-2.140950203E0,-4.804950237E0,3.118950129E0,6.115477451E0
8.849137010E-1,-2.140950203E0,-4.767000198E0,3.963000298E0,6.558454850E0
8.868775880E-1,-2.065050125E0,-4.614000320E0,5.035950184E0,7.135420466E0
8.888414560E-1,-1.911000133E0,-4.498950005E0,6.070950508E0,7.794158885E0
8.908052990E-1,-1.758000135E0,-4.384050369E0,6.913950443E0,8.373360905E0
8.927691500E-1,-1.681950092E0,-4.153950214E0,7.642050266E0,8.859186801E0
8.947329500E-1,-1.452000022E0,-4.039050102E0,7.948950291E0,9.033716872E0
8.966967650E-1,-1.144950032E0,-3.808950186E0,8.025000572E0,8.956542094E0
8.986602870E-1,-7.230000496E-1,-3.694050074E0,7.795050144E0,8.656300698E0
9.006239050E-1,-2.250000089E-1,-3.541050196E0,7.374000549E0,8.183247863E0
9.025877890E-1,1.570500135E-1,-3.234000206E0,6.799050331E0,7.530637917E0
9.045515950E-1,4.260000288E-1,-2.889000177E0,6.301050186E0,6.944856478E0
9.065159440E-1,8.850000501E-1,-2.581950188E0,6.262050152E0,6.831029495E0
9.084801340E-1,1.153950095E0,-2.428950071E0,6.223950386E0,6.780041127E0
9.104436210E-1,1.306950092E0,-2.161050081E0,5.841000080E0,6.363610448E0
9.124073040E-1,1.498950124E0,-1.893000126E0,5.611050129E0,6.108533744E0
9.143707730E-1,1.575000048E0,-1.585950017E0,5.457000256E0,5.897008936E0
9.163343040E-1,1.729050040E0,-1.279050112E0,5.188950062E0,5.617008632E0
9.182978880E-1,1.767000079E0,-9.730500579E-1,4.843950272E0,5.247186859E0
9.202614560E-1,1.843950033E0,-6.280500293E-1,4.461000443E0,4.867763708E0
9.222251830E-1,1.996950150E0,-4.360500276E-1,3.924000263E0,4.424446586E0
9.241888540E-1,2.035050154E0,-1.680000126E-1,3.388050079E0,3.955823109E0
9.261514700E-1,1.996950150E0,2.295000106E-2,2.928000212E0,3.544223729E0
9.281143950E-1,1.996950150E0,3.679500222E-1,2.430000067E0,3.166717140E0
9.300785330E-1,2.035050154E0,7.129500508E-1,1.855050087E0,2.844457370E0
9.320423160E-1,2.035050154E0,1.018950105E0,1.395000100E0,2.669403252E0
9.340067290E-1,2.074050188E0,1.402950048E0,8.959500194E-1,2.659450969E0
9.359709460E-1,2.111999989E0,1.786050081E0,2.830500007E-1,2.780402156E0
9.379345950E-1,2.149950027E0,2.208000183E0,-1.369500011E-1,3.084850925E0
9.398984100E-1,2.227050066E0,2.706000090E0,-5.970000029E-1,3.555080517E0
9.418620360E-1,2.341950178E0,3.051000118E0,-1.210950017E0,4.032335837E0
9.438257170E-1,2.494950056E0,3.511050224E0,-1.824000120E0,4.677523479E0
9.457894100E-1,2.533950090E0,3.856050253E0,-2.322000027E0,5.165434225E0
9.477531000E-1,2.572050095E0,4.162050247E0,-2.782050133E0,5.628312970E0
9.497171530E-1,2.610000134E0,4.431000233E0,-3.280050039E0,6.099556707E0
9.516811000E-1,2.686950207E0,4.621950150E0,-3.739950180E0,6.524519289E0
9.536451540E-1,2.610000134E0,4.736999989E0,-3.970050097E0,6.709140583E0
9.556091770E-1,2.533950090E0,4.660050392E0,-4.162050247E0,6.742376063E0
9.575727540E-1,2.304000139E0,4.545000076E0,-4.315050125E0,6.677207494E0
9.595364720E-1,2.035050154E0,4.392000198E0,-4.582950115E0,6.665922789E0
9.615003840E-1,1.651950121E0,4.162050247E0,-4.890000343E0,6.630513164E0
9.634642390E-1,1.306950092E0,3.931950092E0,-5.082000256E0,6.557063113E0
9.654282190E-1,1.153950095E0,3.664050102E0,-5.197050095E0,6.462676973E0
9.673921620E-1,8.850000501E-1,3.396000147E0,-5.272950172E0,6.334038649E0
9.693557990E-1,6.550500393E-1,3.166050196E0,-5.119950294E0,6.055316293E0
9.713195350E-1,5.790000558E-1,2.896950245E0,-4.774950027E0,5.614954101E0
9.732834440E-1,5.020500422E-1,2.667000055E0,-4.353000164E0,5.129673866E0
9.752473020E-1,6.169500351E-1,2.590950012E0,-3.625050068E0,4.498292710E0
9.772111020E-1,7.699500322E-1,2.361000061E0,-2.704950094E0,3.672042940E0
9.791749190E-1,9.619500637E-1,2.284050226E0,-1.632000089E0,2.967432838E0
9.811377150E-1,1.192050099E0,2.284050226E0,-5.590500236E-1,2.636362229E0
9.831008230E-1,1.230000019E0,2.361000061E0,4.360500276E-1,2.697658422E0
9.850646150E-1,1.306950092E0,2.551950216E0,1.663050056E0,3.314559388E0
9.870282060E-1,1.306950092E0,2.782050133E0,3.004050255E0,4.297934320E0
9.889920960E-1,1.384050012E0,3.051000118E0,4.537950039E0,5.640672541E0
9.909558980E-1,1.537050128E0,3.549000263E0,6.109050274E0,7.230381817E0
9.929195920E-1,1.690050125E0,4.009050369E0,7.527000427E0,8.693934076E0
9.948833040E-1,1.959000111E0,4.468950272E0,8.830050468E0,1.008855734E1
9.968471720E-1,2.111999989E0,4.929000378E0,9.903000832E0,1.126166125E1
9.988109940E-1,2.380050182E0,5.427000046E0,1.051695061E1,1.207158724E1
1.000774845E0,2.649000168E0,5.964000225E0,1.063200092E1,1.247501279E1
1.002738687E0,2.878050089E0,6.538950443E0,1.017195034E1,1.243018982E1
1.004702519E0,3.184950113E0,7.228050232E0,9.175050735E0,1.210661693E1
1.006666364E0,3.568050146E0,7.957050323E0,7.834050179E0,1.172254127E1
1.008630166E0,3.913050175E0,8.722949982E0,6.223950386E0,1.140786468E1
1.010593981E0,4.372950077E0,9.451050758E0,4.345950127E0,1.128416303E1
1.012558778E0,4.680000305E0,1.021800041E1,2.314950228E0,1.147470827E1
1.014523287E0,4.909950256E0,1.110000038E1,3.220500052E-1,1.214171883E1
1.016487182E0,4.987050056E0,1.221105099E1,-1.479000092E0,1.327282471E1
1.018451270E0,5.101050377E0,1.328400040E1,-2.514000177E0,1.445010652E1
1.020415074E0,5.101050377E0,1.477905083E1,-2.820000172E0,1.588689583E1
1.022378962E0,5.140050411E0,1.657995033E1,-2.284050226E0,1.750804834E1
1.024342621E0,5.446050167E0,1.845795059E1,-1.441050053E0,1.929849807E1
1.026306347E0,5.523000240E0,2.075805092E1,-1.018950105E0,2.150438255E1
1.028270148E0,5.407950401E0,2.367105103E1,-1.018950105E0,2.430232177E1
1.030233941E0,5.446050167E0,2.658405113E1,-9.040500522E-1,2.715121624E1
1.032197617E0,5.905950069E0,2.911305046E1,-7.120500207E-1,2.971459185E1
1.034161328E0,7.132950306E0,3.110700226E1,-7.120500207E-1,3.192227412E1
1.036125061E0,7.708050251E0,3.248595047E1,-6.739500165E-1,3.339468858E1
1.038088788E0,7.248000145E0,3.363600159E1,-1.786050081E0,3.445437684E1
1.040052960E0,5.293050289E0,3.455595016E1,-3.931950092E0,3.517940171E1
1.042017008E0,2.686950207E0,3.478605270E1,-6.193050385E0,3.543505379E1
1.043979919E0,3.870000243E-1,3.421095276E1,-8.340000153E0,3.521497778E1
1.045943164E0,-1.336950064E0,3.310005188E1,-1.006395054E1,3.462201569E1
1.047907112E0,-2.716050148E0,3.191100121E1,-1.148205090E1,3.402243993E1
1.049870854E0,-4.018949986E0,3.064695168E1,-1.255605030E1,3.336228417E1
1.051834224E0,-5.245950222E0,2.941995049E1,-1.355205059E1,3.281328322E1
1.053797703E0,-6.511050224E0,2.838495064E1,-1.443405056E1,3.250293853E1
1.055761611E0,-7.737000465E0,2.738895035E1,-1.485495090E1,3.210428856E1
1.057725393E0,-8.464950562E0,2.666100121E1,-1.408905029E1,3.132037215E1
1.059689026E0,-9.424050331E0,2.616195107E1,-1.305405045E1,3.071919011E1
1.061652703E0,-1.026705074E1,2.581695175E1,-1.228695011E1,3.037921118E1
1.063616442E0,-1.095705032E1,2.554905128E1,-1.152105045E1,3.009228434E1
1.065580162E0,-1.153200054E1,2.528100204E1,-1.071600056E1,2.978168512E1
1.067543806E0,-1.210695076E1,2.485905075E1,-1.017900085E1,2.946460112E1
1.069507472E0,-1.275795078E1,2.443800163E1,-9.834000587E0,2.926924665E1
1.071470989E0,-1.341000080E1,2.409300041E1,-9.373950005E0,2.912338801E1
1.073434549E0,-1.375500107E1,2.370900154E1,-8.608050346E0,2.873004245E1
1.075398084E0,-1.432995033E1,2.351805115E1,-7.726050377E0,2.860311278E1
1.077361626E0,-1.509600067E1,2.340300179E1,-7.228050232E0,2.877211217E1
1.079324983E0,-1.578600121E1,2.340300179E1,-7.228050232E0,2.914005897E1
1.081288395E0,-1.624604988E1,2.332605171E1,-7.495950222E0,2.939775663E1
1.083251954E0,-1.651395035E1,2.336400032E1,-7.879950523E0,2.967626471E1
1.085215470E0,-1.670595169E1,2.328795052E1,-8.340000153E0,2.984917191E1
1.087178888E0,-1.685895157E1,2.324895096E1,-8.646000862E0,2.999152046E1
1.089142328E0,-1.682100105E1,2.317305183E1,-8.953050613E0,3.000155868E1
1.091105882E0,-1.616895103E1,2.282805061E1,-9.336000443E0,2.949094398E1
1.093069403E0,-1.528800106E1,2.232900047E1,-9.067950249E0,2.854005887E1
1.095033305E0,-1.452105045E1,2.198505020E1,-8.530950546E0,2.769441200E1
1.096997095E0,-1.367805099E1,2.152500153E1,-8.032950401E0,2.673841921E1
1.098960732E0,-1.306500053E1,2.114100075E1,-7.458000183E0,2.594721408E1
1.100924410E0,-1.237500095E1,2.064300156E1,-6.652950287E0,2.497070102E1
1.102887744E0,-1.183800030E1,2.014500046E1,-6.001950264E0,2.412431764E1
1.104851179E0,-1.137795067E1,1.949295044E1,-5.158050060E0,2.315250221E1
1.106815095E0,-1.076505089E1,1.880295181E1,-4.009050369E0,2.203428697E1
1.108778870E0,-1.026705074E1,1.822800064E1,-3.127050161E0,2.115303243E1
1.110742598E0,-9.577050209E0,1.757700157E1,-2.820000172E0,2.021443237E1
1.112706337E0,-8.809950829E0,1.700205040E1,-2.743950129E0,1.934461718E1
1.114670156E0,-8.082000732E0,1.635000038E1,-2.743950129E0,1.844371195E1
1.116633951E0,-7.123950481E0,1.543095112E1,-2.782050133E0,1.722221605E1
1.118597626E0,-6.280950069E0,1.451100063E1,-2.820000172E0,1.606150286E1
1.120561337E0,-5.323050022E0,1.336095047E1,-2.590050220E0,1.461363128E1
1.122525080E0,-4.402950287E0,1.194300079E1,-1.861950040E0,1.286421770E1
1.124488807E0,-3.790050268E0,1.071600056E1,-9.040500522E-1,1.140238815E1
1.126451774E0,-3.445050240E0,9.796050072E0,-2.205000073E-2,1.038419252E1
1.128414963E0,-3.330000162E0,8.914950371E0,6.660000086E-1,9.539853102E0
1.130379056E0,-3.253050089E0,8.263050079E0,1.395000100E0,8.989235606E0
1.132342884E0,-3.330000162E0,7.765050411E0,1.663050056E0,8.611076846E0
1.134306788E0,-3.330000162E0,7.305000305E0,1.930950046E0,8.257148334E0
1.136270663E0,-3.406050205E0,7.036950111E0,1.930950046E0,8.052851231E0
1.138234460E0,-3.367950201E0,6.807000160E0,1.624950051E0,7.766518036E0
1.140198280E0,-3.100050211E0,6.538950443E0,1.395000100E0,7.369817466E0
1.142161996E0,-2.830950022E0,6.270000458E0,1.126049995E0,6.971023767E0
1.144125742E0,-2.601000071E0,6.117000103E0,8.200500607E-1,6.697415451E0
1.146089445E0,-2.295000076E0,6.001950264E0,7.050000429E-1,6.464321881E0
1.148053146E0,-2.065050125E0,5.964000225E0,7.810500264E-1,6.359541638E0
1.150016657E0,-1.720050097E0,5.887050152E0,1.240950108E0,6.257466659E0
1.151980223E0,-1.297950029E0,6.040050507E0,1.663050056E0,6.397860571E0
1.153943712E0,-6.469500065E-1,6.309000492E0,2.200050116E0,6.712842321E0
1.155907223E0,-3.299999982E-2,6.615000248E0,2.773950100E0,7.173152476E0
1.157871712E0,5.020500422E-1,7.189950466E0,3.234000206E0,7.899759445E0
1.159835914E0,1.153950095E0,7.765050411E0,3.733050108E0,8.692713720E0
1.161799880E0,1.537050128E0,8.340000153E0,3.963000298E0,9.360742332E0
1.163763916E0,2.149950027E0,8.953050613E0,3.733050108E0,9.935545456E0
1.165727324E0,2.610000134E0,9.565950394E0,3.273000240E0,1.044184075E1
1.167690916E0,3.184950113E0,1.010295010E1,2.736000061E0,1.094071315E1
1.169654808E0,3.607050180E0,1.079295063E1,2.238000154E0,1.159772560E1
1.171618610E0,4.105050087E0,1.132905006E1,1.930950046E0,1.220358061E1
1.173582285E0,4.564949989E0,1.171305084E1,1.893000126E0,1.271289809E1
1.175545997E0,4.872000217E0,1.209600067E1,2.008050203E0,1.319400940E1
1.177509506E0,5.293050289E0,1.213395023E1,2.620950222E0,1.349512911E1
1.179473074E0,5.752950191E0,1.213395023E1,3.541050196E0,1.388770034E1
1.181436943E0,6.021000385E0,1.194300079E1,4.308000088E0,1.405156854E1
1.183400740E0,6.213000298E0,1.178895092E1,4.806000233E0,1.416609949E1
1.185364416E0,6.289950371E0,1.132905006E1,5.035950184E0,1.390221728E1
1.187328127E0,6.558000088E0,1.087005043E1,5.611050129E0,1.387981430E1
1.189291860E0,6.750000477E0,1.025595093E1,6.186000347E0,1.374822302E1
1.191255586E0,6.979950428E0,9.490050316E0,6.492000103E0,1.345090437E1
1.193219113E0,7.248000145E0,8.608050346E0,6.568950176E0,1.303008608E1
1.195182685E0,7.554000378E0,7.765050411E0,6.646050453E0,1.270940267E1
1.197146352E0,7.630950451E0,7.113000393E0,6.607050419E0,1.234825067E1
1.199109991E0,7.593000412E0,6.462000370E0,6.454050541E0,1.187711549E1
1.201073692E0,7.554000378E0,5.772000313E0,6.223950386E0,1.136294274E1
1.203037375E0,7.401000500E0,5.158950329E0,6.031950474E0,1.085237317E1
1.205001109E0,7.285950184E0,4.392000198E0,5.841000080E0,1.031949697E1
1.206964832E0,7.018050194E0,3.625950098E0,5.419050217E0,9.579491004E0
1.208928654E0,6.595950127E0,2.974050045E0,4.996950150E0,8.793238456E0
1.210892447E0,6.289950371E0,2.245950222E0,4.768050194E0,8.206221464E0
1.212856168E0,5.868000507E0,1.708950043E0,4.729050159E0,7.727732890E0
1.214819911E0,5.407950401E0,1.134000063E0,5.266050339E0,7.633031498E0
1.216783783E0,4.987050056E0,6.739500165E-1,5.611050129E0,7.537158645E0
1.218747610E0,4.642050266E0,1.759500057E-1,5.035950184E0,6.851305228E0
1.220712135E0,4.527000427E0,-2.440500110E-1,4.231050014E0,6.201215808E0
1.222676456E0,4.372950077E0,-6.280500293E-1,3.655950069E0,5.734379664E0
1.224640222E0,4.258049965E0,-1.087950110E0,3.081000090E0,5.367232667E0
1.226604151E0,4.258049965E0,-1.548000097E0,2.812950134E0,5.332914987E0
1.228567865E0,4.182000160E0,-2.046000004E0,2.698050022E0,5.380958584E0
1.230531630E0,4.143000126E0,-2.428950071E0,2.851050138E0,5.585045692E0
1.232495444E0,4.105050087E0,-2.926950216E0,2.928000212E0,5.830236618E0
1.234459244E0,4.105050087E0,-3.349050045E0,2.928000212E0,6.053160964E0
1.236422783E0,4.027950287E0,-3.847050190E0,2.698050022E0,6.188994474E0
1.238386399E0,3.913050175E0,-4.269000053E0,2.238000154E0,6.208459376E0
1.240350045E0,3.721950293E0,-4.614000320E0,1.893000126E0,6.222970546E0
1.242313692E0,3.568050146E0,-4.959000111E0,1.432950020E0,6.275030653E0
1.244277437E0,3.453000069E0,-5.304000378E0,1.165050030E0,6.435291062E0
1.246241154E0,3.262050152E0,-5.686950207E0,1.050000072E0,6.639644117E0
1.248204798E0,2.878050089E0,-5.839950085E0,1.087950110E0,6.600895753E0
1.250168463E0,2.610000134E0,-6.031950474E0,1.279950023E0,6.695879276E0
1.252132564E0,2.304000139E0,-6.184950352E0,1.510050058E0,6.770692629E0
1.254096538E0,2.035050154E0,-6.339000225E0,1.624950051E0,6.853088038E0
1.256060543E0,1.690050125E0,-6.454050541E0,1.855050087E0,6.924756215E0
1.258024538E0,1.422000051E0,-6.529950142E0,2.085000038E0,7.000682692E0
1.259988495E0,1.269000053E0,-6.529950142E0,2.122950077E0,6.982659022E0
1.261952463E0,1.000050068E0,-6.300000191E0,2.085000038E0,6.710985598E0
1.263915427E0,7.320000529E-1,-5.955000401E0,1.969950080E0,6.314947123E0
1.265878689E0,5.410500169E-1,-5.533950329E0,1.816050053E0,5.849391349E0
1.267842409E0,5.020500422E-1,-4.843950272E0,1.624950051E0,5.133845649E0
1.269805995E0,3.870000243E-1,-4.153950214E0,1.510050058E0,4.436814463E0
1.271769572E0,3.870000243E-1,-3.463950157E0,1.471050024E0,3.783213962E0
1.273733151E0,3.490500152E-1,-2.889000177E0,1.471050024E0,3.260697182E0
1.275696997E0,3.109500110E-1,-2.314050198E0,1.510050058E0,2.780605942E0
1.277660764E0,1.960500032E-1,-1.738950133E0,1.510050058E0,2.311413928E0
1.279624309E0,4.200000316E-2,-1.203000069E0,1.510050058E0,1.931119971E0
1.281587920E0,8.100000024E-2,-7.429500222E-1,1.471050024E0,1.650007245E0
1.283551941E0,4.050000105E-3,-3.589500189E-1,1.471050024E0,1.514215867E0
1.285515841E0,4.050000105E-3,-1.290000081E-1,1.471050024E0,1.476700910E0
1.287479016E0,4.050000105E-3,9.900000691E-2,1.471050024E0,1.474383117E0
1.289442395E0,4.200000316E-2,3.679500222E-1,1.471050024E0,1.516950689E0
1.291406455E0,8.100000024E-2,5.209500194E-1,1.471050024E0,1.562670181E0
1.293370316E0,1.960500032E-1,7.129500508E-1,1.510050058E0,1.681363898E0
1.295334025E0,2.719500065E-1,7.890000343E-1,1.548000097E0,1.758630763E0
1.297297779E0,4.639500082E-1,9.430500269E-1,1.510050058E0,1.839794592E0
1.299262523E0,5.020500422E-1,9.810000658E-1,1.510050058E0,1.869402726E0
1.301226990E0,6.940500140E-1,1.018950105E0,1.471050024E0,1.919362631E0
1.303190551E0,8.850000501E-1,1.096050024E0,1.471050024E0,2.036796238E0
1.305154377E0,1.077000022E0,1.096050024E0,1.432950020E0,2.101095063E0
1.307118225E0,1.230000019E0,1.134000063E0,1.395000100E0,2.178274884E0
1.309082067E0,1.306950092E0,1.173000097E0,1.356000066E0,2.218734763E0
1.311045851E0,1.384050012E0,1.210950017E0,1.356000066E0,2.284891804E0
1.313009665E0,1.651950121E0,1.210950017E0,1.279950023E0,2.415286982E0
1.314973156E0,1.882050037E0,1.288050056E0,1.165050030E0,2.560962097E0
1.316936742E0,2.111999989E0,1.288050056E0,9.730500579E-1,2.658278261E0
1.318901218E0,2.265000105E0,1.288050056E0,5.899500251E-1,2.671579954E0
1.320865433E0,2.457000017E0,1.326000094E0,2.449500114E-1,2.802699742E0
1.322829177E0,2.725050211E0,1.402950048E0,-1.759500057E-1,3.070036791E0
1.324793055E0,3.070050240E0,1.594050050E0,-3.670500219E-1,3.478639066E0
1.326755859E0,3.300000191E0,1.786050081E0,-1.759500057E-1,3.756452390E0
1.328718978E0,3.607050180E0,1.978050113E0,5.130000114E-1,4.145679952E0
1.330682542E0,3.837000132E0,2.284050226E0,1.701000094E0,4.778373862E0
1.332645976E0,3.874950171E0,2.667000055E0,3.463950157E0,5.841838650E0
1.334609738E0,3.837000132E0,3.051000118E0,5.419050217E0,7.307344044E0
1.336573418E0,3.721950293E0,3.433950186E0,7.527000427E0,9.071971301E0
1.338536933E0,3.300000191E0,3.856050253E0,9.367050171E0,1.065367325E1
1.340500497E0,2.802000046E0,4.276950359E0,1.093800068E1,1.207407833E1
1.342464345E0,2.149950027E0,4.852050304E0,1.208805084E1,1.320172907E1
1.344428110E0,1.767000079E0,5.427000046E0,1.289295101E1,1.409974484E1
1.346391671E0,1.459950089E0,5.964000225E0,1.300800037E1,1.438432573E1
1.348355281E0,1.269000053E0,6.615000248E0,1.220295048E1,1.393845722E1
1.350319166E0,1.039050102E0,7.420050144E0,1.051695061E1,1.291290127E1
1.352282971E0,8.089500666E-1,7.957050323E0,7.374000549E0,1.087864579E1
1.354247005E0,9.240000248E-1,8.722949982E0,4.039050102E0,9.656995297E0
1.356210971E0,1.114950061E0,9.643050194E0,8.200500607E-1,9.741869060E0
1.358175508E0,1.230000019E0,1.052505016E1,-2.169000149E0,1.081638307E1
1.360139884E0,1.192050099E0,1.167405033E1,-4.852050304E0,1.269830015E1
1.362102694E0,5.790000558E-1,1.305405045E1,-7.611000538E0,1.512186507E1
1.364065963E0,-6.850500107E-1,1.489395046E1,-9.949050903E0,1.792435962E1
1.366029772E0,-2.295000076E0,1.692495155E1,-1.129095078E1,2.047453491E1
1.367993423E0,-3.636000156E0,1.884195137E1,-1.090695095E1,2.207263481E1
1.369957453E0,-4.900950432E0,2.137095070E1,-8.683950424E0,2.358278703E1
1.371921361E0,-6.472050190E0,2.455200195E1,-6.691050529E0,2.625753969E1
1.373885062E0,-7.891050339E0,2.807895088E1,-4.774950027E0,2.955497092E1
1.375848824E0,-8.925000191E0,3.206505203E1,-2.974050045E0,3.341658516E1
1.377812819E0,-9.730050087E0,3.689400101E1,-1.824000120E0,3.819905969E1
1.379776745E0,-9.960000038E0,4.229805374E1,-1.555950046E0,4.348273142E1
1.381740963E0,-1.007505035E1,4.716600037E1,-2.322000027E0,4.828591839E1
1.383705110E0,-9.960000038E0,5.107500076E1,-3.510000229E0,5.215532001E1
1.385668860E0,-9.232050896E0,5.387295151E1,-5.235000134E0,5.490838637E1
1.387632727E0,-8.350950241E0,5.621100235E1,-6.615000248E0,5.721165426E1
1.389596749E0,-7.354050159E0,5.720805359E1,-7.611000538E0,5.817878289E1
1.391560725E0,-6.013050079E0,5.747595215E1,-7.650000572E0,5.829377630E1
1.393524605E0,-4.402950287E0,5.682405090E1,-7.420050144E0,5.747535016E1
1.395488507E0,-2.295000076E0,5.502300262E1,-6.960000515E0,5.550891325E1
1.397453243E0,1.189500093E-1,5.203305435E1,-6.499950409E0,5.243760339E1
1.399417735E0,1.996950150E0,4.789395142E1,-6.385050297E0,4.835894188E1
1.401381652E0,2.917050123E0,4.341000366E1,-6.307950497E0,4.396280063E1
1.403345737E0,2.878050089E0,3.934695053E1,-6.193050385E0,3.993519202E1
1.405309833E0,2.457000017E0,3.593595123E1,-6.117000103E0,3.653555981E1
1.407273942E0,2.074050188E0,3.302295303E1,-6.385050297E0,3.369845662E1
1.409237924E0,1.804950118E0,3.045495224E1,-6.691050529E0,3.123350954E1
1.411201944E0,1.729050040E0,2.819400215E1,-6.997950554E0,2.910090520E1
1.413166120E0,1.651950121E0,2.635395050E1,-7.150950432E0,2.735682252E1
1.415130250E0,1.575000048E0,2.466705132E1,-7.381050587E0,2.579581271E1
1.417094043E0,1.614000082E0,2.317305183E1,-7.650000572E0,2.445644775E1
1.419057939E0,1.804950118E0,2.190795135E1,-7.918050289E0,2.336475332E1
1.421021822E0,1.882050037E0,2.068095016E1,-8.185950279E0,2.232159479E1
1.422985709E0,1.920000076E0,1.968495178E1,-8.530950546E0,2.153975033E1
1.424949548E0,1.767000079E0,1.884195137E1,-8.683950424E0,2.082192152E1
1.426913401E0,1.614000082E0,1.815195084E1,-8.646000862E0,2.017056386E1
1.428877425E0,1.384050012E0,1.761495018E1,-8.455050468E0,1.958800507E1
1.430841399E0,1.114950061E0,1.704000092E1,-8.185950279E0,1.893712034E1
1.432804278E0,6.940500140E-1,1.661894989E1,-7.995000362E0,1.845511397E1
1.434767478E0,1.960500032E-1,1.615904999E1,-7.726050377E0,1.791215192E1
1.436731479E0,-3.299999982E-2,1.577505112E1,-7.458000183E0,1.744921470E1
1.438695245E0,-4.170000255E-1,1.531605053E1,-7.266000271E0,1.695730087E1
1.440659105E0,-7.999500632E-1,1.481700039E1,-6.997950554E0,1.640593589E1
1.442622937E0,-1.144950032E0,1.454895115E1,-7.036050320E0,1.620150901E1
1.444586786E0,-1.681950092E0,1.420395088E1,-7.036050320E0,1.594011232E1
1.446550630E0,-2.065050125E0,1.382100105E1,-6.960000515E0,1.561172986E1
1.448514837E0,-2.295000076E0,1.336095047E1,-6.768000126E0,1.515215656E1
1.450478937E0,-2.524950027E0,1.286295033E1,-6.460950375E0,1.461419664E1
1.452442926E0,-2.640000105E0,1.228800011E1,-6.193050385E0,1.401136754E1
1.454406944E0,-2.755050182E0,1.167405033E1,-6.040050507E0,1.342966726E1
1.456370896E0,-2.793000221E0,1.113795090E1,-5.809950352E0,1.286896746E1
1.458334867E0,-2.793000221E0,1.060095024E1,-5.350050449E0,1.219852598E1
1.460298871E0,-2.830950022E0,1.010295010E1,-4.582950115E0,1.144933668E1
1.462262865E0,-2.755050182E0,9.451050758E0,-3.970050097E0,1.061479909E1
1.464226737E0,-2.830950022E0,8.761950493E0,-3.204000235E0,9.749444701E0
1.466190642E0,-2.985000134E0,8.187000275E0,-2.935050249E0,9.195200882E0
1.468154612E0,-3.175950050E0,7.612050533E0,-2.053950071E0,8.499922525E0
1.470118563E0,-3.330000162E0,6.997950554E0,-1.326000094E0,7.862473484E0
1.472082392E0,-3.291000128E0,6.462000370E0,-1.287000060E0,7.365086542E0
1.474046257E0,-3.291000128E0,6.001950264E0,-1.018950105E0,6.920429765E0
1.476010085E0,-3.175950050E0,5.656950474E0,-1.018950105E0,6.567039417E0
1.477973934E0,-2.716050148E0,5.427000046E0,-1.018950105E0,6.153658848E0
1.479938004E0,-2.371050119E0,5.119950294E0,-8.659500480E-1,5.708383236E0
1.481902009E0,-2.371050119E0,4.929000378E0,-8.659500480E-1,5.537760637E0
1.483866144E0,-2.524950027E0,4.813950062E0,-9.420000315E-1,5.516960386E0
1.485830240E0,-2.677950144E0,4.545000076E0,-7.890000343E-1,5.333944480E0
1.487794230E0,-2.640000105E0,4.315950394E0,-6.360000372E-1,5.099168991E0
1.489758247E0,-2.563050032E0,4.047000408E0,-1.759500057E-1,4.793578639E0
1.491722109E0,-2.601000071E0,3.856050253E0,1.500000060E-2,4.651295510E0
1.493686016E0,-2.677950144E0,3.433950186E0,1.300500035E-1,4.356643646E0
1.495650211E0,-2.755050182E0,3.166050196E0,1.680000126E-1,4.200285628E0
1.497614322E0,-2.640000105E0,2.706000090E0,-1.759500057E-1,3.784573350E0
1.499578153E0,-2.524950027E0,2.245950222E0,-6.739500165E-1,3.445848758E0
1.501542045E0,-2.448000193E0,1.824000120E0,-1.018950105E0,3.218375475E0
1.503506017E0,-2.218050003E0,1.363950014E0,-1.287000060E0,2.904561002E0
1.505469966E0,-1.758000135E0,8.280000687E-1,-1.479000092E0,2.442046245E0
1.507434516E0,-1.489950061E0,3.289500177E-1,-1.824000120E0,2.378052930E0
1.509398890E0,-1.375050068E0,-9.105000645E-2,-2.206950188E0,2.601861242E0
1.511362841E0,-1.183050036E0,-3.589500189E-1,-2.475000143E0,2.766600479E0
1.513326906E0,-9.529500604E-1,-7.810500264E-1,-2.667000055E0,2.937863553E0
1.515290579E0,-6.850500107E-1,-1.203000069E0,-2.935050249E0,3.245153717E0
1.517254367E0,-4.170000255E-1,-1.548000097E0,-3.049950123E0,3.445633334E0
1.519218177E0,-2.629500031E-1,-1.969050050E0,-3.088950157E0,3.672589533E0
1.521181981E0,-7.200000435E-2,-2.314050198E0,-3.088950157E0,3.860262347E0
1.523146015E0,-3.299999982E-2,-2.581950188E0,-2.935050249E0,3.909229558E0
1.525109981E0,1.189500093E-1,-2.851050138E0,-2.704950094E0,3.931843208E0
1.527073672E0,1.960500032E-1,-3.042000055E0,-2.359950066E0,3.855069941E0
1.529037444E0,3.109500110E-1,-3.310950041E0,-1.977000117E0,3.868799497E0
1.531001482E0,3.490500152E-1,-3.349050045E0,-1.441050053E0,3.662594350E0
1.532965442E0,3.490500152E-1,-3.579000235E0,-1.018950105E0,3.737557746E0
1.534929449E0,3.870000243E-1,-3.694050074E0,-5.970000029E-1,3.761938858E0
1.536893442E0,4.260000288E-1,-3.808950186E0,-6.105000153E-2,3.833184661E0
1.538857219E0,5.020500422E-1,-3.886050224E0,4.750500321E-1,3.947038526E0
1.540821059E0,7.320000529E-1,-4.000950336E0,1.087950110E0,4.210351899E0
1.542785085E0,9.619500637E-1,-4.116000175E0,1.624950051E0,4.528495119E0
1.544749057E0,1.000050068E0,-4.116000175E0,2.122950077E0,4.737982125E0
1.546713081E0,1.077000022E0,-4.116000175E0,2.773950100E0,5.078994551E0
1.548677077E0,1.269000053E0,-4.153950214E0,3.310950041E0,5.461506541E0
1.550641122E0,1.306950092E0,-4.269000053E0,3.886050224E0,5.918941320E0
1.552605153E0,1.537050128E0,-4.269000053E0,4.308000088E0,6.256656400E0
1.554569104E0,1.882050037E0,-4.384050369E0,4.768050194E0,6.745095450E0
1.556533079E0,2.304000139E0,-4.345950127E0,5.151000023E0,7.122394287E0
1.558497087E0,2.610000134E0,-4.269000053E0,5.533950329E0,7.460634584E0
1.560461082E0,2.764050245E0,-4.077000141E0,5.686950207E0,7.523516901E0
1.562425127E0,2.802000046E0,-3.655950069E0,5.917050362E0,7.498577208E0
1.564389158E0,2.917050123E0,-3.349050045E0,5.994000435E0,7.460117884E0
1.566352929E0,3.031950235E0,-2.965950251E0,5.917050362E0,7.280183246E0
1.568316776E0,2.917050123E0,-2.467050076E0,5.841000080E0,6.979455525E0
1.570280666E0,2.764050245E0,-2.161050081E0,5.686950207E0,6.682178826E0
1.572244543E0,2.686950207E0,-1.738950133E0,5.496000290E0,6.360005359E0
1.574208340E0,2.610000134E0,-1.471050024E0,5.304000378E0,6.091675375E0
1.576172160E0,2.610000134E0,-1.240950108E0,5.112000465E0,5.872359545E0
1.578136190E0,2.610000134E0,-1.011000037E0,4.843950272E0,5.594468340E0
1.580100158E0,2.725050211E0,-9.340500236E-1,4.806000233E0,5.603212144E0
1.582064339E0,2.686950207E0,-7.429500222E-1,4.768050194E0,5.523221777E0
1.584028461E0,2.686950207E0,-7.039500475E-1,4.308000088E0,5.125827917E0
1.585992801E0,2.649000168E0,-6.280500293E-1,3.886050224E0,4.744790309E0
1.587957077E0,2.610000134E0,-5.509500504E-1,3.541050196E0,4.433360254E0
1.589921076E0,2.494950056E0,-4.360500276E-1,3.118950129E0,4.017806032E0
1.591885156E0,2.380050182E0,-2.830500007E-1,2.851050138E0,3.724680264E0
1.593849162E0,2.341950178E0,-2.059500068E-1,2.467950106E0,3.408507557E0
1.595813176E0,2.304000139E0,-1.290000081E-1,2.161050081E0,3.161517847E0
1.597776452E0,2.265000105E0,-9.105000645E-2,1.969950080E0,3.003201441E0
1.599739945E0,2.341950178E0,2.295000106E-2,1.740000129E0,2.917680207E0
1.601704211E0,2.341950178E0,9.900000691E-2,1.510050058E0,2.788329754E0
1.603668250E0,2.304000139E0,2.530499995E-1,1.395000100E0,2.705268235E0
1.605632219E0,2.188950062E0,3.679500222E-1,1.165050030E0,2.506836884E0
1.607596227E0,2.111999989E0,4.060500264E-1,8.959500194E-1,2.329838409E0
1.609560226E0,1.959000111E0,5.980500579E-1,5.899500251E-1,2.131522071E0
1.611524227E0,1.959000111E0,7.510500550E-1,3.979500234E-1,2.135444179E0
1.613489082E0,1.843950033E0,8.280000687E-1,1.680000126E-1,2.028289881E0
1.615453687E0,1.767000079E0,9.430500269E-1,1.500000060E-2,2.002962215E0
1.617417644E0,1.729050040E0,9.810000658E-1,-1.759500057E-1,1.995728833E0
1.619381781E0,1.651950121E0,1.134000063E0,-4.440000355E-1,2.052323409E0
1.621345757E0,1.690050125E0,1.210950017E0,-5.209500194E-1,2.143375443E0
1.623309781E0,1.690050125E0,1.288050056E0,-6.739500165E-1,2.229248976E0
1.625273732E0,1.729050040E0,1.441050053E0,-8.269500136E-1,2.397933615E0
1.627237704E0,1.729050040E0,1.479000092E0,-1.018950105E0,2.493053274E0
1.629201542E0,1.690050125E0,1.555950046E0,-1.210950017E0,2.596853849E0
1.631165410E0,1.729050040E0,1.708950043E0,-1.326000094E0,2.769187704E0
1.633129477E0,1.614000082E0,1.824000120E0,-1.594050050E0,2.910836351E0
1.635093485E0,1.537050128E0,1.939050078E0,-1.824000120E0,3.073990036E0
1.637057305E0,1.459950089E0,2.016000032E0,-2.053950071E0,3.227138251E0
1.639021180E0,1.384050012E0,2.053950071E0,-2.206950188E0,3.317368605E0
1.640985234E0,1.345050097E0,2.092950106E0,-2.437050104E0,3.482644558E0
1.642949212E0,1.306950092E0,2.169000149E0,-2.667000055E0,3.677712534E0
1.644913172E0,1.230000019E0,2.169000149E0,-2.859000206E0,3.793592476E0
1.646877137E0,1.077000022E0,2.208000183E0,-2.974050045E0,3.857482019E0
1.648841187E0,9.619500637E-1,2.245950222E0,-2.935050249E0,3.818921352E0
1.650805212E0,8.470500112E-1,2.208000183E0,-2.859000206E0,3.710342398E0
1.652769393E0,6.940500140E-1,2.284050226E0,-2.551950216E0,3.494429963E0
1.654733524E0,6.550500393E-1,2.284050226E0,-2.322000027E0,3.322297415E0
1.656697097E0,5.020500422E-1,2.361000061E0,-1.900950074E0,3.072456138E0
1.658660834E0,4.639500082E-1,2.322000027E0,-1.171950102E0,2.642044809E0
1.660625238E0,6.550500393E-1,2.284050226E0,-1.759500057E-1,2.382631821E0
1.662589447E0,7.699500322E-1,2.361000061E0,1.050000072E0,2.696227826E0
1.664553592E0,9.619500637E-1,2.361000061E0,2.275950193E0,3.417545683E0
1.666517756E0,1.077000022E0,2.398950100E0,3.655950069E0,4.503427754E0
1.668482088E0,1.306950092E0,2.476050138E0,5.188950062E0,5.896112751E0
1.670446370E0,1.459950089E0,2.629050016E0,6.760950089E0,7.399581363E0
1.672410503E0,1.729050040E0,2.859000206E0,8.715000153E0,9.333526872E0
1.674374679E0,1.996950150E0,3.127050161E0,1.070805073E1,1.133263442E1
1.676338888E0,2.227050066E0,3.511050224E0,1.270095062E1,1.336418244E1
1.678303077E0,2.533950090E0,3.894000292E0,1.442595100E1,1.515559975E1
1.680267226E0,2.725050211E0,4.239000320E0,1.595895100E1,1.673568461E1
1.682231387E0,2.992950201E0,4.660050392E0,1.699394989E1,1.787367207E1
1.684195494E0,3.184950113E0,5.119950294E0,1.741604996E1,1.843031726E1
1.686159617E0,3.262050152E0,5.848950386E0,1.687905121E1,1.815911786E1
1.688123760E0,3.300000191E0,6.730050087E0,1.546095085E1,1.718210047E1
1.690087908E0,3.337950230E0,7.842000484E0,1.346805096E1,1.593823327E1
1.692051703E0,3.568050146E0,9.145050049E0,1.135995007E1,1.501370666E1
1.694015602E0,3.568050146E0,1.083105087E1,9.328050613E0,1.473279244E1
1.695979618E0,3.453000069E0,1.267095089E1,7.219950199E0,1.498679041E1
1.697943600E0,2.992950201E0,1.462605095E1,4.882050037E0,1.570711717E1
1.699907989E0,2.839950085E0,1.661894989E1,2.583000183E0,1.705657357E1
1.701872273E0,2.917050123E0,1.857299995E1,6.280500293E-1,1.881116572E1
1.703836945E0,3.184950113E0,2.071995163E1,-1.057050109E0,2.098994182E1
1.705801503E0,3.760050297E0,2.317305183E1,-2.590050220E0,2.361856621E1
1.707765364E0,4.527000427E0,2.585595131E1,-3.970050097E0,2.654779179E1
1.709729429E0,5.485050201E0,2.888400078E1,-5.962950230E0,2.999880084E1
1.711693478E0,6.595950127E0,3.229500198E1,-8.148000717E0,3.395384554E1
1.713657521E0,7.822950363E0,3.478605270E1,-1.014105034E1,3.706897513E1
1.715621468E0,9.508950233E0,3.689400101E1,-1.033305073E1,3.947606087E1
1.717585444E0,1.123395061E1,3.911700058E1,-9.412950516E0,4.177253904E1
1.719549447E0,1.150200081E1,4.068795013E1,-9.604050636E0,4.335946376E1
1.721513442E0,1.039095020E1,4.122495270E1,-9.873000145E0,4.364567221E1
1.723477483E0,8.167950630E0,4.084200287E1,-9.528000832E0,4.272665931E1
1.725441514E0,5.599950314E0,3.915495300E1,-9.412950516E0,4.065800568E1
1.727404924E0,2.917050123E0,3.647205353E1,-9.489000320E0,3.779895497E1
1.729368516E0,8.100000024E-2,3.352095032E1,-9.757950783E0,3.491243725E1
1.731332585E0,-2.677950144E0,3.068505096E1,-1.052400017E1,3.254993624E1
1.733296514E0,-5.208000183E0,2.781000137E1,-1.144395065E1,3.052021377E1
1.735260382E0,-7.584000587E0,2.535705185E1,-1.228695011E1,2.917989524E1
1.737224275E0,-9.577050209E0,2.332605171E1,-1.270905018E1,2.823728981E1
1.739188428E0,-1.114800072E1,2.194605064E1,-1.267095089E1,2.768501500E1
1.741152504E0,-1.225995064E1,2.121795082E1,-1.209600067E1,2.732802699E1
1.743116312E0,-1.260495090E1,2.095005035E1,-1.106100082E1,2.683533373E1
1.745080198E0,-1.210695076E1,2.095005035E1,-9.757950783E0,2.609023706E1
1.747044008E0,-1.111005020E1,2.087295151E1,-8.377950668E0,2.508591991E1
1.749007861E0,-1.045905018E1,2.075805092E1,-7.075050354E0,2.429701105E1
1.750971345E0,-1.007505035E1,2.075805092E1,-5.887050152E0,2.381303586E1
1.752934938E0,-1.011405087E1,2.071995163E1,-5.350050449E0,2.366925137E1
1.754898512E0,-1.042005062E1,2.068095016E1,-5.350050449E0,2.376767120E1
1.756862092E0,-1.076505089E1,2.071995163E1,-5.542050362E0,2.399827157E1
1.758825818E0,-1.130205059E1,2.071995163E1,-6.001950264E0,2.435315483E1
1.760789490E0,-1.195305061E1,2.071995163E1,-6.691050529E0,2.483871920E1
1.762753141E0,-1.252800083E1,2.071995163E1,-7.420050144E0,2.532438241E1
1.764716799E0,-1.337100029E1,2.079600143E1,-8.110050201E0,2.601980474E1
1.766680857E0,-1.387005043E1,2.083500099E1,-8.914050102E0,2.656945341E1
1.768644797E0,-1.410000038E1,2.071995163E1,-9.718950272E0,2.688093006E1
1.770608852E0,-1.429095078E1,2.052795029E1,-9.988050461E0,2.693304975E1
1.772572874E0,-1.421505070E1,2.026005173E1,-9.873000145E0,2.664607840E1
1.774536691E0,-1.410000038E1,1.995300102E1,-9.528000832E0,2.622432192E1
1.776500569E0,-1.379295063E1,1.960800171E1,-8.991000175E0,2.560385327E1
1.778464544E0,-1.348605061E1,1.945500183E1,-8.263050079E0,2.507286688E1
1.780428490E0,-1.306500053E1,1.907205009E1,-7.189950466E0,2.421017806E1
1.782392350E0,-1.260495090E1,1.880295181E1,-5.887050152E0,2.339002231E1
1.784356246E0,-1.229805088E1,1.864995003E1,-4.736999989E0,2.283641523E1
1.786320218E0,-1.218300056E1,1.857299995E1,-4.047000408E0,2.257786620E1
1.788284167E0,-1.183800030E1,1.849695015E1,-3.586950064E0,2.225177806E1
1.790247862E0,-1.141695023E1,1.845795059E1,-3.319050074E0,2.195583717E1
1.792211631E0,-1.099500084E1,1.849695015E1,-3.127050161E0,2.174409462E1
1.794175247E0,-1.045905018E1,1.834305000E1,-2.896950245E0,2.131317749E1
1.796138920E0,-9.960000038E0,1.815195084E1,-2.704950094E0,2.088089258E1
1.798102975E0,-9.462000847E0,1.799805069E1,-2.475000143E0,2.048377198E1
1.800066918E0,-8.848950386E0,1.761495018E1,-2.206950188E0,1.983585193E1
1.802030749E0,-8.311950684E0,1.730895042E1,-1.747050047E0,1.928057242E1
1.803994613E0,-7.891050339E0,1.681005096E1,-1.326000094E0,1.861732433E1
1.805958125E0,-7.546050549E0,1.635000038E1,-9.040500522E-1,1.803004986E1
1.807921751E0,-7.239000320E0,1.600500107E1,-6.739500165E-1,1.757889056E1
1.809885770E0,-6.931950092E0,1.546905041E1,-4.060500264E-1,1.695607057E1
1.811849673E0,-6.586950302E0,1.497105026E1,-3.289500177E-1,1.635935415E1
1.813813375E0,-6.357000351E0,1.447200108E1,-2.205000073E-2,1.580666805E1
1.815777136E0,-6.088950157E0,1.405095100E1,2.070000172E-1,1.531494000E1
1.817740582E0,-5.782950401E0,1.362900066E1,5.130000114E-1,1.481402523E1
1.819704127E0,-5.437950134E0,1.328400040E1,5.509500504E-1,1.436452276E1
1.821668249E0,-5.169000149E0,1.297800064E1,5.509500504E-1,1.398036513E1
1.823632202E0,-4.863000393E0,1.282395077E1,3.220500052E-1,1.371882656E1
1.825596570E0,-4.633050442E0,1.247895050E1,1.680000126E-1,1.331230957E1
1.827560817E0,-4.249050140E0,1.198095036E1,1.300500035E-1,1.271276962E1
1.829524659E0,-3.828000069E0,1.136805058E1,-2.205000073E-2,1.199527593E1
1.831488670E0,-3.520950079E0,1.067805004E1,-2.140500098E-1,1.124560623E1
1.833452847E0,-3.214950085E0,9.988050461E0,-4.440000355E-1,1.050210417E1
1.835416976E0,-2.601000071E0,9.451050758E0,-2.910000086E-1,9.806744761E0
1.837380775E0,-1.911000133E0,9.030000687E0,-1.369500011E-1,9.231012361E0
1.839344671E0,-1.068000078E0,8.800050735E0,2.449500114E-1,8.868005279E0
1.841308151E0,-4.930500090E-1,8.647050858E0,7.050000429E-1,8.689741763E0
1.843271751E0,4.050000105E-3,8.647050858E0,1.356000066E0,8.752727639E0
1.845236720E0,3.870000243E-1,8.761950493E0,2.046000004E0,9.005979207E0
1.847201288E0,6.550500393E-1,9.030000687E0,2.851050138E0,9.492022432E0
1.849165237E0,1.114950061E0,9.220950127E0,3.349050045E0,9.873457909E0
1.851129367E0,1.614000082E0,9.220950127E0,3.733050108E0,1.007802464E1
1.853093360E0,2.227050066E0,9.375000000E0,4.078050137E0,1.046331066E1
1.855057382E0,2.802000046E0,9.490050316E0,4.153950214E0,1.073161505E1
1.857021558E0,3.337950230E0,9.565950394E0,4.192950249E0,1.096495100E1
1.858985688E0,3.645000219E0,9.681000710E0,3.771000147E0,1.101036981E1
1.860949802E0,4.335000038E0,9.643050194E0,3.349050045E0,1.109039127E1
1.862913920E0,4.795050144E0,9.720000267E0,3.004050255E0,1.124700978E1
1.864877945E0,4.987050056E0,9.796050072E0,2.353049994E0,1.124144606E1
1.866841997E0,5.254950047E0,9.757950783E0,1.855050087E0,1.123713995E1
1.868806167E0,5.560950279E0,9.565950394E0,1.740000129E0,1.120085601E1
1.870770303E0,5.944950104E0,9.259950638E0,2.008050203E0,1.118576699E1
1.872734460E0,6.021000385E0,8.991000175E0,2.583000183E0,1.112485594E1
1.874698611E0,6.213000298E0,8.685000420E0,3.310950041E0,1.118002662E1
1.876662731E0,6.520050526E0,8.302050591E0,4.345950127E0,1.141588303E1
1.878626884E0,6.634950161E0,7.995000362E0,5.227050304E0,1.163033316E1
1.880591219E0,6.865050316E0,7.650000572E0,5.994000435E0,1.189871698E1
1.882555500E0,7.248000145E0,7.228050232E0,6.646050453E0,1.220443374E1
1.884519588E0,7.630950451E0,6.615000248E0,6.991050243E0,1.228268768E1
1.886483733E0,8.014050484E0,5.964000225E0,7.029000282E0,1.221479221E1
1.888448072E0,8.398050308E0,5.274000168E0,6.837000370E0,1.204520240E1
1.890412351E0,8.857950211E0,4.468950272E0,6.454050541E0,1.183594385E1
1.892376485E0,9.279000282E0,3.702000141E0,6.070950508E0,1.169021349E1
1.894340661E0,9.624000549E0,2.935950041E0,5.649000168E0,1.153916774E1
1.896304676E0,9.931050301E0,2.131050110E0,5.341950417E0,1.147621753E1
1.898268738E0,1.008405018E1,1.402950048E0,5.112000465E0,1.139249251E1
1.900233612E0,1.023705006E1,5.980500579E-1,4.921050072E0,1.137416333E1
1.902198259E0,1.016100025E1,-5.295000225E-2,5.035950184E0,1.134061392E1
1.904162329E0,9.931050301E0,-4.740000367E-1,5.112000465E0,1.117957892E1
1.906126569E0,9.508950233E0,-8.959500194E-1,5.227050304E0,1.088783339E1
1.908090708E0,9.049050331E0,-1.356000066E0,5.533950329E0,1.069339302E1
1.910054876E0,8.512949944E0,-1.738950133E0,5.841000080E0,1.046955330E1
1.912018982E0,7.899000168E0,-2.122950077E0,6.186000347E0,1.025513145E1
1.913983107E0,7.248000145E0,-2.544000149E0,6.262050152E0,9.910535554E0
1.915947265E0,6.520050526E0,-2.965950251E0,5.802000046E0,9.217978318E0
1.917911413E0,5.791050434E0,-3.271950245E0,5.074050426E0,8.365877794E0
1.919875568E0,5.062950134E0,-3.541050196E0,4.384050369E0,7.575777068E0
1.921839721E0,4.335000038E0,-3.808950186E0,3.886050224E0,6.957133978E0
1.923803501E0,3.837000132E0,-3.924000263E0,3.655950069E0,6.594415743E0
1.925767401E0,3.300000191E0,-4.192049980E0,3.463950157E0,6.360993239E0
1.927731283E0,3.031950235E0,-4.269000053E0,3.426000118E0,6.257360506E0
1.929695170E0,2.764050245E0,-4.614000320E0,3.310950041E0,6.315960963E0
1.931659324E0,2.533950090E0,-4.920000076E0,3.196050167E0,6.390777768E0
1.933623399E0,2.304000139E0,-5.304000378E0,2.812950134E0,6.430670658E0
1.935587470E0,1.843950033E0,-5.265000343E0,2.314950228E0,6.039815800E0
1.937551516E0,1.422000051E0,-5.341950417E0,1.930950046E0,5.855517610E0
1.939515687E0,1.306950092E0,-5.649000168E0,1.510050058E0,5.991625207E0
1.941479822E0,1.230000019E0,-5.839950085E0,1.165050030E0,6.080728461E0
1.943444700E0,1.039050102E0,-5.994000435E0,7.050000429E-1,6.124107395E0
1.945409360E0,8.089500666E-1,-5.955000401E0,2.449500114E-1,6.014684571E0
1.947373008E0,6.169500351E-1,-5.878950119E0,-6.105000153E-2,5.911548778E0
1.949336963E0,3.109500110E-1,-5.764050484E0,-2.910000086E-1,5.779762010E0
1.951301150E0,4.200000316E-2,-5.494950294E0,-4.440000355E-1,5.513019025E0
1.953265269E0,-1.870500147E-1,-5.074050426E0,-4.819500148E-1,5.100318741E0
1.955229474E0,-4.930500090E-1,-4.651950359E0,-4.819500148E-1,4.702766874E0
1.957193654E0,-7.620000243E-1,-4.116000175E0,-3.289500177E-1,4.198846222E0
1.959157957E0,-9.150000215E-1,-3.541050196E0,-1.369500011E-1,3.659920331E0
1.961122211E0,-1.068000078E0,-2.965950251E0,1.500000060E-2,3.152413370E0
1.963085493E0,-1.183050036E0,-2.391000032E0,2.449500114E-1,2.678896984E0
1.965049059E0,-1.260000110E0,-1.816050053E0,3.979500234E-1,2.245885636E0
1.967013313E0,-1.183050036E0,-1.393950105E0,4.360500276E-1,1.879586101E0
1.968977365E0,-1.144950032E0,-1.011000037E0,4.360500276E-1,1.588449331E0
1.970941712E0,-1.068000078E0,-5.890500546E-1,3.979500234E-1,1.282952982E0
1.972905976E0,-9.529500604E-1,-3.589500189E-1,3.979500234E-1,1.093308353E0
1.974869751E0,-7.620000243E-1,-1.680000126E-1,5.130000114E-1,9.338292419E-1
1.976833670E0,-6.850500107E-1,-5.295000225E-2,6.660000086E-1,9.568977120E-1
1.978797143E0,-5.320500135E-1,1.759500057E-1,7.810500264E-1,9.612880761E-1
1.980760747E0,-3.019500077E-1,4.060500264E-1,1.050000072E0,1.165568780E0
1.982725013E0,-1.480500102E-1,5.590500236E-1,1.203000069E0,1.334790208E0
1.984689071E0,1.189500093E-1,7.129500508E-1,1.318050027E0,1.503230772E0
1.986653918E0,3.490500152E-1,7.890000343E-1,1.395000100E0,1.640238473E0
1.988618533E0,6.169500351E-1,9.040500522E-1,1.432950020E0,1.803130501E0
1.990582834E0,8.850000501E-1,9.430500269E-1,1.471050024E0,1.958713000E0
1.992547227E0,1.153950095E0,1.018950105E0,1.471050024E0,2.129283521E0
1.994511535E0,1.345050097E0,1.057950020E0,1.432950020E0,2.231986507E0
1.996475858E0,1.575000048E0,1.134000063E0,1.318050027E0,2.346025824E0
1.998440163E0,1.843950033E0,1.249050021E0,1.165050030E0,2.513487468E0
2.000404473E0,2.074050188E0,1.402950048E0,1.050000072E0,2.715226173E0
2.002368420E0,2.341950178E0,1.479000092E0,8.959500194E-1,2.911167866E0
2.004332473E0,2.610000134E0,1.518000126E0,6.280500293E-1,3.083970155E0
2.006297475E0,2.878050089E0,1.633050084E0,3.600000143E-1,3.328607051E0
2.008262216E0,3.147000074E0,1.747950077E0,1.500000060E-2,3.599883879E0
2.010225910E0,3.300000191E0,1.900950074E0,-3.289500177E-1,3.822541113E0
2.012189911E0,3.568050146E0,2.092950106E0,-5.209500194E-1,4.169269830E0
2.014153054E0,3.798000097E0,2.361000061E0,-9.900000691E-2,4.473133916E0
2.016116449E0,3.990000248E0,2.706000090E0,1.011000037E0,4.925917127E0
2.018080790E0,4.219950199E0,3.088950157E0,2.545050144E0,5.816087430E0
2.020044813E0,4.335000038E0,3.549000263E0,4.690950394E0,7.307027015E0
2.022008630E0,4.258049965E0,4.085999966E0,7.105050564E0,9.236239968E0
2.023972507E0,3.952050209E0,4.660050392E0,9.289950371E0,1.111926025E1
2.025936527E0,3.529950142E0,5.274000168E0,1.113000011E1,1.281220232E1
2.027900505E0,3.184950113E0,5.887050152E0,1.262505054E1,1.428961749E1
2.029864060E0,2.839950085E0,6.538950443E0,1.335300064E1,1.513690244E1
2.031827771E0,2.533950090E0,7.305000305E0,1.346805096E1,1.552972405E1
2.033791819E0,2.419050217E0,8.071949959E0,1.297005081E1,1.546707465E1
2.035755769E0,2.380050182E0,9.067950249E0,1.189605045E1,1.514623310E1
2.037720183E0,2.227050066E0,9.873000145E0,9.826950073E0,1.410690723E1
2.039684461E0,2.419050217E0,1.056300068E1,6.760950089E0,1.277259697E1
2.041648340E0,2.725050211E0,1.155900097E1,4.116000175E0,1.256892436E1
2.043612357E0,3.031950235E0,1.274805069E1,1.816050053E0,1.322889097E1
2.045577479E0,3.108000040E0,1.401195049E1,-4.819500148E-1,1.436059528E1
2.047542278E0,2.992950201E0,1.539195061E1,-3.472050190E0,1.606004442E1
2.049506097E0,2.533950090E0,1.700205040E1,-6.232050419E0,1.828466771E1
2.051470203E0,1.422000051E0,1.914795113E1,-7.803000450E0,2.072565880E1
2.053433284E0,-1.870500147E-1,2.140995026E1,-8.914050102E0,2.319226696E1
2.055396665E0,-1.681950092E0,2.409300041E1,-9.067950249E0,2.579785547E1
2.057360951E0,-3.406050205E0,2.758005142E1,-8.377950668E0,2.902499736E1
2.059324971E0,-4.633050442E0,3.045495224E1,-6.997950554E0,3.159019760E1
2.061289193E0,-5.629050255E0,3.325305176E1,-5.464950085E0,3.416602607E1
2.063253355E0,-6.433950424E0,3.651105118E1,-4.162050247E0,3.730650397E1
2.065217317E0,-7.468950272E0,3.999900055E1,-3.664050102E0,4.085499390E1
2.067181314E0,-8.121000290E0,4.321800232E1,-4.237950325E0,4.417812347E1
2.069145135E0,-7.852050304E0,4.540305328E1,-5.235000134E0,4.637345327E1
2.071109007E0,-6.817050457E0,4.716600037E1,-6.193050385E0,4.805681680E1
2.073073208E0,-5.706000328E0,4.850700378E1,-6.460950375E0,4.926694364E1
2.075037312E0,-4.555950165E0,4.950405121E1,-6.730050087E0,5.016673541E1
2.077001099E0,-3.445050240E0,4.996395111E1,-6.997950554E0,5.056912194E1
2.078964991E0,-2.332950115E0,4.969500351E1,-7.495950222E0,5.031128402E1
2.080928829E0,-1.413000107E0,4.866105270E1,-7.534950256E0,4.926124334E1
2.082892683E0,-5.320500135E-1,4.655295181E1,-7.150950432E0,4.710197970E1
2.084857608E0,3.109500110E-1,4.387005234E1,-6.652950287E0,4.437273859E1
2.086822220E0,8.470500112E-1,4.107195282E1,-5.848050117E0,4.149484899E1
2.088786136E0,1.269000053E0,3.808200073E1,-5.272950172E0,3.846625982E1
2.090750242E0,1.345050097E0,3.539895248E1,-5.082000256E0,3.578717261E1
2.092714224E0,1.575000048E0,3.290805054E1,-5.388000488E0,3.338339354E1
2.094678242E0,1.651950121E0,3.087705231E1,-5.848050117E0,3.146936587E1
2.096642239E0,1.767000079E0,2.903700066E1,-6.270000458E0,2.975873993E1
2.098606242E0,2.074050188E0,2.746500206E1,-6.768000126E0,2.836254305E1
2.100570450E0,2.227050066E0,2.597100067E1,-7.036050320E0,2.699923391E1
2.102534609E0,2.572050095E0,2.462895203E1,-7.458000183E0,2.586160255E1
2.104498403E0,2.839950085E0,2.340300179E1,-7.879950523E0,2.485677834E1
2.106462304E0,3.031950235E0,2.232900047E1,-8.340000153E0,2.402774619E1
2.108426320E0,3.070050240E0,2.144805145E1,-8.875950813E0,2.341423974E1
2.110390302E0,3.070050240E0,2.052795029E1,-9.489000320E0,2.282242490E1
2.112354276E0,2.992950201E0,1.964700127E1,-9.949050903E0,2.222489648E1
2.114318242E0,2.764050245E0,1.891800117E1,-1.029405022E1,2.171400958E1
2.116282652E0,2.457000017E0,1.834305000E1,-1.040895081E1,2.123324255E1
2.118246932E0,2.111999989E0,1.773000145E1,-1.037100029E1,2.064875644E1
2.120211200E0,1.729050040E0,1.711695099E1,-1.021800041E1,2.000967660E1
2.122175472E0,1.345050097E0,1.650405121E1,-1.006395054E1,1.937720224E1
2.124139259E0,1.077000022E0,1.592895031E1,-9.796050072E0,1.873109671E1
2.126103179E0,6.169500351E-1,1.535400105E1,-9.373950005E0,1.799991428E1
2.128067012E0,1.189500093E-1,1.477905083E1,-8.914050102E0,1.725962867E1
2.130030871E0,-1.870500147E-1,1.416600037E1,-8.340000153E0,1.643977362E1
2.131995120E0,-3.780000210E-1,1.343700027E1,-7.458000183E0,1.537262590E1
2.133959254E0,-6.469500065E-1,1.274805069E1,-6.730050087E0,1.443000052E1
2.135923201E0,-7.230000496E-1,1.194300079E1,-6.652950287E0,1.369013311E1
2.137887193E0,-6.850500107E-1,1.129095078E1,-6.921000481E0,1.326103731E1
2.139851193E0,-7.230000496E-1,1.075500011E1,-6.997950554E0,1.285161735E1
2.141815191E0,-9.150000215E-1,1.044795036E1,-7.113000393E0,1.267247673E1
2.143779552E0,-9.529500604E-1,1.021800041E1,-6.615000248E0,1.220958126E1
2.145743806E0,-1.144950032E0,9.835050583E0,-5.809950352E0,1.148018526E1
2.147708104E0,-1.106999993E0,9.375000000E0,-5.235000134E0,1.079450325E1
2.149672403E0,-1.068000078E0,8.953050613E0,-4.582950115E0,1.011440415E1
2.151636712E0,-1.068000078E0,8.532000542E0,-4.084949970E0,9.519583692E0
2.153601018E0,-1.413000107E0,8.032950401E0,-3.394950151E0,8.834622119E0
2.155565147E0,-1.681950092E0,7.612050533E0,-2.590050220E0,8.214659432E0
2.157529328E0,-1.758000135E0,7.036950111E0,-2.169000149E0,7.570587361E0
2.159493511E0,-1.873050094E0,6.499950409E0,-1.824000120E0,7.006043706E0
2.161457669E0,-1.987950087E0,6.040050507E0,-9.420000315E-1,6.428181681E0
2.163421687E0,-1.987950087E0,5.464950085E0,-5.970000029E-1,5.845856137E0
2.165385746E0,-1.987950087E0,5.082000256E0,-3.670500219E-1,5.469314204E0
2.167350051E0,-1.720050097E0,4.736999989E0,-2.910000086E-1,5.048011711E0
2.169314283E0,-1.681950092E0,4.507050037E0,-3.670500219E-1,4.824643186E0
2.171278618E0,-1.260000110E0,4.047000408E0,-2.910000086E-1,4.248587246E0
2.173242912E0,-1.144950032E0,3.778950214E0,-2.910000086E-1,3.959299977E0
2.175207088E0,-9.529500604E-1,3.511050224E0,-3.289500177E-1,3.652916042E0
2.177171299E0,-7.620000243E-1,3.166050196E0,-4.440000355E-1,3.286586970E0
2.179135263E0,-5.320500135E-1,2.782050133E0,-4.060500264E-1,2.861425656E0
2.181099299E0,-4.170000255E-1,2.437050104E0,-2.520000041E-1,2.485277899E0
2.183062688E0,-3.400500119E-1,2.053950071E0,-6.105000153E-2,2.082803882E0
2.185026280E0,-7.200000435E-2,1.594050050E0,5.509500504E-1,1.688113006E0
2.186990709E0,4.200000316E-2,1.173000097E0,1.240950108E0,1.708113110E0
2.188954893E0,1.189500093E-1,8.280000687E-1,1.510050058E0,1.726263131E0
2.190919267E0,1.960500032E-1,4.830000103E-1,1.510050058E0,1.597490467E0
2.192883585E0,1.570500135E-1,1.380000114E-1,1.471050024E0,1.485832051E0
2.194848766E0,2.340000123E-1,-2.059500068E-1,1.395000100E0,1.429404313E0
2.196813681E0,1.960500032E-1,-4.740000367E-1,1.165050030E0,1.272970232E0
2.198777570E0,1.960500032E-1,-8.190000653E-1,8.580000401E-1,1.202231583E0
2.200741760E0,2.719500065E-1,-1.240950108E0,4.750500321E-1,1.356313573E0
2.202707349E0,4.260000288E-1,-1.585950017E0,5.295000225E-2,1.643020750E0
2.204672528E0,8.089500666E-1,-2.008050203E0,-1.759500057E-1,2.172009262E0
2.206636462E0,1.230000019E0,-2.391000032E0,-4.060500264E-1,2.719312013E0
2.208600760E0,1.498950124E0,-2.773950100E0,-5.590500236E-1,3.202216039E0
2.210564889E0,1.920000076E0,-3.157050133E0,-7.510500550E-1,3.770602342E0
2.212529068E0,2.188950062E0,-3.502050161E0,-8.269500136E-1,4.211852803E0
2.214493262E0,2.341950178E0,-3.694050074E0,-7.510500550E-1,4.437883816E0
2.216457451E0,2.304000139E0,-3.961950302E0,-5.970000029E-1,4.621890938E0
2.218421748E0,2.149950027E0,-4.077000141E0,-4.440000355E-1,4.630480677E0
2.220386003E0,1.843950033E0,-4.192049980E0,-1.759500057E-1,4.583055004E0
2.222349059E0,1.575000048E0,-4.269000053E0,1.300500035E-1,4.552131326E0
2.224312467E0,1.306950092E0,-4.345950127E0,4.750500321E-1,4.563011460E0
2.226276567E0,1.153950095E0,-4.306950092E0,7.810500264E-1,4.526749282E0
2.228240465E0,8.089500666E-1,-4.269000053E0,1.203000069E0,4.508433301E0
2.230203597E0,6.169500351E-1,-4.422000408E0,1.432950020E0,4.689142855E0
2.232166943E0,3.870000243E-1,-4.345950127E0,1.471050024E0,4.604458676E0
2.234131415E0,8.100000024E-2,-4.231050014E0,1.585950017E0,4.519245809E0
2.236095557E0,-1.099500060E-1,-4.153950214E0,1.816050053E0,4.534912257E0
2.238059353E0,-2.250000089E-1,-4.039050102E0,2.122950077E0,4.568530153E0
2.240023251E0,-4.549500346E-1,-3.924000263E0,2.506050110E0,4.678145439E0
2.241987133E0,-6.469500065E-1,-3.732000113E0,2.928000212E0,4.787437142E0
2.243951020E0,-7.230000496E-1,-3.579000235E0,3.388050079E0,4.981049597E0
2.245914679E0,-6.469500065E-1,-3.387000084E0,3.771000147E0,5.109868490E0
2.247878405E0,-5.700000525E-1,-3.081000090E0,4.269000053E0,5.295453056E0
2.249842271E0,-5.700000525E-1,-2.773950100E0,4.882050037E0,5.643944701E0
2.251806095E0,-5.320500135E-1,-2.428950071E0,5.266050339E0,5.823586681E0
2.253769882E0,-5.700000525E-1,-2.046000004E0,5.533950329E0,5.927530879E0
2.255733694E0,-4.170000255E-1,-1.701000094E0,5.611050129E0,5.878024659E0
2.257697365E0,-3.400500119E-1,-1.432950020E0,5.496000290E0,5.689903247E0
2.259661078E0,-1.870500147E-1,-1.164000034E0,5.341950417E0,5.470495228E0
2.261624946E0,-7.200000435E-2,-9.340500236E-1,5.151000023E0,5.235497558E0
2.263588769E0,1.189500093E-1,-7.429500222E-1,5.074050426E0,5.129533270E0
2.265553033E0,3.109500110E-1,-6.280500293E-1,4.882050037E0,4.932093807E0
2.267517162E0,5.410500169E-1,-4.740000367E-1,4.576050282E0,4.632239991E0
2.269481861E0,7.320000529E-1,-3.979500234E-1,4.345950127E0,4.425095570E0
2.271446393E0,8.850000501E-1,-2.440500110E-1,4.153950214E0,4.254184749E0
2.273410258E0,1.000050068E0,-1.680000126E-1,3.847950220E0,3.979327209E0
2.275374318E0,1.077000022E0,-1.680000126E-1,3.502950191E0,3.668625505E0
2.277337394E0,1.077000022E0,-5.295000225E-2,3.196050167E0,3.373050462E0
2.279300767E0,1.114950061E0,1.380000114E-1,3.004050255E0,3.207253588E0
2.281264377E0,1.153950095E0,2.910000086E-1,2.812950134E0,3.054336308E0
2.283227918E0,1.114950061E0,4.060500264E-1,2.506050110E0,2.772774317E0
2.285191952E0,1.077000022E0,6.360000372E-1,2.122950077E0,2.464009360E0
2.287155841E0,9.619500637E-1,8.659500480E-1,1.701000094E0,2.137432743E0
2.289119923E0,9.240000248E-1,1.134000063E0,1.432950020E0,2.047700649E0
2.291083936E0,8.470500112E-1,1.363950014E0,1.126049995E0,1.961081833E0
2.293048790E0,7.699500322E-1,1.671000123E0,5.899500251E-1,1.932124607E0
2.295013398E0,9.619500637E-1,1.900950074E0,2.070000172E-1,2.140515853E0
2.296977295E0,1.077000022E0,2.169000149E0,-9.900000691E-2,2.423693812E0
2.298941400E0,1.153950095E0,2.398950100E0,-5.209500194E-1,2.712554392E0
2.300905396E0,1.039050102E0,2.706000090E0,-1.096050024E0,3.098933245E0
2.302869414E0,1.039050102E0,2.974050045E0,-1.632000089E0,3.547960411E0
2.304833096E0,1.039050102E0,3.166050196E0,-2.245050192E0,4.017928486E0
2.306796876E0,9.240000248E-1,3.319050074E0,-2.743950129E0,4.404444544E0
2.308760868E0,9.240000248E-1,3.396000147E0,-3.280050039E0,4.810958460E0
2.310724797E0,9.619500637E-1,3.433950186E0,-3.778950214E0,5.195943276E0
2.312688651E0,9.619500637E-1,3.357000113E0,-4.315050125E0,5.551076946E0
2.314652544E0,9.619500637E-1,3.319050074E0,-4.890000343E0,5.987782951E0
2.316616337E0,9.619500637E-1,3.166050196E0,-5.043000221E0,6.031672488E0
2.318580159E0,8.470500112E-1,3.051000118E0,-5.158050060E0,6.052402487E0
2.320544188E0,7.320000529E-1,2.935950041E0,-4.927950382E0,5.782760733E0
2.322508157E0,6.550500393E-1,2.821050167E0,-4.660050392E0,5.486664219E0
2.324472380E0,6.169500351E-1,2.667000055E0,-4.084949970E0,4.917350191E0
2.326436534E0,5.790000558E-1,2.590950012E0,-3.127050161E0,4.102036780E0
2.328399742E0,5.020500422E-1,2.551950216E0,-2.092050076E0,3.337840270E0
2.330363228E0,5.410500169E-1,2.590950012E0,-9.420000315E-1,2.809469905E0
2.332326235E0,5.410500169E-1,2.590950012E0,3.220500052E-1,2.666359558E0
2.334289382E0,4.260000288E-1,2.782050133E0,1.777950048E0,3.329021679E0
2.336253410E0,3.870000243E-1,3.012000084E0,3.541050196E0,4.664863343E0
2.338217167E0,3.490500152E-1,3.357000113E0,5.341950417E0,6.318838495E0
2.340181344E0,3.870000243E-1,3.702000141E0,6.991050243E0,7.920186713E0
2.342145398E0,2.719500065E-1,4.201050282E0,8.332050323E0,9.335193778E0
2.344110110E0,4.260000288E-1,4.699050426E0,9.289950371E0,1.041948793E1
2.346074629E0,6.169500351E-1,5.274000168E0,9.826950073E0,1.116980988E1
2.348038373E0,8.470500112E-1,5.848950386E0,9.826950073E0,1.146719940E1
2.350002367E0,1.114950061E0,6.538950443E0,9.442950249E0,1.153994350E1
2.351966502E0,1.306950092E0,7.305000305E0,8.677050591E0,1.141763351E1
2.353930596E0,1.384050012E0,8.148000717E0,7.719000340E0,1.130877873E1
2.355894265E0,1.690050125E0,9.183000565E0,6.531000137E0,1.139463609E1
2.357858059E0,2.149950027E0,1.025595093E1,5.380950451E0,1.177970468E1
2.359822030E0,2.304000139E0,1.132905006E1,4.116000175E0,1.227180710E1
2.361785962E0,2.572050095E0,1.255605030E1,2.965950251E0,1.315548181E1
2.363749794E0,2.725050211E0,1.382100105E1,2.085000038E0,1.424054753E1
2.365713656E0,2.878050089E0,1.535400105E1,1.510050058E0,1.569422733E1
2.367677543E0,3.223050117E0,1.696395111E1,1.395000100E0,1.732367497E1
2.369641423E0,3.492000103E0,1.876500130E1,1.318050027E0,1.913260553E1
2.371605384E0,3.874950171E0,2.068095016E1,1.240950108E0,2.107740249E1
2.373569331E0,4.450050354E0,2.263605118E1,8.200500607E-1,2.308389575E1
2.375534106E0,5.293050289E0,2.478195190E1,5.295000225E-2,2.534096141E1
2.377498639E0,6.097950459E0,2.750400162E1,-9.810000658E-1,2.818896000E1
2.379462368E0,7.324050426E0,3.041700172E1,-1.900950074E0,3.134404760E1
2.381426333E0,8.589000702E0,3.286995316E1,-3.625050068E0,3.416644174E1
2.383390343E0,9.318000793E0,3.482400131E1,-5.119950294E0,3.641085137E1
2.385354336E0,9.586050034E0,3.597405243E1,-5.925000191E0,3.769788364E1
2.387318293E0,9.279000282E0,3.585900116E1,-6.270000458E0,3.756701633E1
2.389282261E0,8.781000137E0,3.486300278E1,-5.695050240E0,3.640011708E1
2.391246265E0,7.899000168E0,3.329100037E1,-4.736999989E0,3.454162819E1
2.393210259E0,6.711000443E0,3.160500145E1,-3.855000257E0,3.253881790E1
2.395174315E0,5.215950012E0,2.995695114E1,-3.931950092E0,3.066081029E1
2.397138346E0,3.607050180E0,2.823195076E1,-4.813050270E0,2.886553841E1
2.399101441E0,1.920000076E0,2.650695038E1,-6.346950531E0,2.732377353E1
2.401064810E0,5.020500422E-1,2.482095146E1,-8.416049957E0,2.621376704E1
2.403028556E0,-8.770500422E-1,2.332605171E1,-1.044795036E1,2.557408008E1
2.404992192E0,-1.873050094E0,2.229105186E1,-1.175100040E1,2.526826706E1
2.406956269E0,-2.524950027E0,2.171595192E1,-1.190400028E1,2.489303443E1
2.408920206E0,-2.755050182E0,2.156295013E1,-1.125195026E1,2.447769402E1
2.410884038E0,-2.755050182E0,2.160105133E1,-1.014105034E1,2.402158659E1
2.412847901E0,-2.793000221E0,2.164005089E1,-8.875950813E0,2.355578815E1
2.414811923E0,-2.908050060E0,2.148600197E1,-7.650000572E0,2.299190172E1
2.416775899E0,-3.253050089E0,2.133300018E1,-6.691050529E0,2.259312703E1
2.418739646E0,-3.598050117E0,2.106495094E1,-6.001950264E0,2.219688108E1
2.420703483E0,-3.943050146E0,2.075805092E1,-5.503050327E0,2.183409914E1
2.422667196E0,-4.326000214E0,2.049000168E1,-5.082000256E0,2.154950517E1
2.424630945E0,-4.747950077E0,2.029800034E1,-4.774950027E0,2.138578957E1
2.426594987E0,-5.361000061E0,2.010600090E1,-4.084949970E0,2.120562213E1
2.428558943E0,-5.668050289E0,1.995300102E1,-4.123950005E0,2.114842802E1
2.430522931E0,-6.013050079E0,1.995300102E1,-4.315050125E0,2.128141627E1
2.432486923E0,-6.472050190E0,1.987695122E1,-4.736999989E0,2.143408016E1
2.434450565E0,-6.894000530E0,1.972305107E1,-5.158050060E0,2.152048948E1
2.436414309E0,-7.123950481E0,1.960800171E1,-5.503050327E0,2.157563358E1
2.438377812E0,-7.392000198E0,1.953195000E1,-5.733000278E0,2.165654704E1
2.440341386E0,-7.813950539E0,1.949295044E1,-5.925000191E0,2.182059960E1
2.442305117E0,-8.005949974E0,1.949295044E1,-6.270000458E0,2.198597866E1
2.444268788E0,-8.158950806E0,1.957005119E1,-6.499950409E0,2.217667101E1
2.446232305E0,-8.389050484E0,1.960800171E1,-6.538050175E0,2.230685991E1
2.448195867E0,-8.464950562E0,1.957005119E1,-6.499950409E0,2.229106653E1
2.450159941E0,-8.464950562E0,1.953195000E1,-6.346950531E0,2.221342476E1
2.452123865E0,-8.197050095E0,1.949295044E1,-5.962950230E0,2.197097000E1
2.454087863E0,-7.813950539E0,1.922504997E1,-5.388000488E0,2.144040388E1
2.456051850E0,-7.507050514E0,1.907205009E1,-4.774950027E0,2.104516690E1
2.458015628E0,-7.086000443E0,1.888005066E1,-4.276950359E0,2.061455844E1
2.459979467E0,-6.702000141E0,1.872705078E1,-3.855000257E0,2.026031253E1
2.461942999E0,-6.204000473E0,1.842000008E1,-3.472050190E0,1.974439559E1
2.463906621E0,-5.743950367E0,1.819005013E1,-3.472050190E0,1.938881177E1
2.465870483E0,-5.284050465E0,1.803705025E1,-3.625050068E0,1.914150879E1
2.467834258E0,-4.978050232E0,1.776900101E1,-3.549000263E0,1.879132203E1
2.469798162E0,-4.708950043E0,1.730895042E1,-3.394950151E0,1.825649643E1
2.471762028E0,-4.555950165E0,1.696395111E1,-3.357000113E0,1.788300224E1
2.473725511E0,-4.479000092E0,1.638899994E1,-3.165000200E0,1.728230271E1
2.475689107E0,-4.479000092E0,1.558395100E1,-2.514000177E0,1.640856994E1
2.477652936E0,-4.671000004E0,1.474095058E1,-1.824000120E0,1.557051192E1
2.479616706E0,-5.053950310E0,1.412700081E1,-1.018950105E0,1.503837840E1
2.481579665E0,-5.514000416E0,1.339905071E1,-2.520000041E-1,1.449145488E1
2.483542862E0,-6.013050079E0,1.274805069E1,3.600000143E-1,1.409961587E1
2.485506999E0,-6.357000351E0,1.209600067E1,9.730500579E-1,1.369932524E1
2.487470860E0,-6.586950302E0,1.163595009E1,1.318050027E0,1.343579192E1
2.489434874E0,-6.625950336E0,1.117605019E1,1.510050058E0,1.308004460E1
2.491398850E0,-6.586950302E0,1.098495007E1,1.510050058E0,1.289718161E1
2.493362675E0,-6.396000385E0,1.087005043E1,1.395000100E0,1.268908360E1
2.495326544E0,-6.127950191E0,1.056300068E1,7.429500222E-1,1.223440769E1
2.497290971E0,-5.668050289E0,1.037100029E1,1.500000060E-2,1.181882676E1
2.499255235E0,-5.092950344E0,1.002600002E1,-7.510500550E-1,1.127044346E1
2.501219000E0,-4.402950287E0,9.910950661E0,-1.441050053E0,1.094027145E1
2.503182919E0,-3.828000069E0,9.873000145E0,-1.900950074E0,1.075840730E1
2.505146752E0,-3.214950085E0,9.835050583E0,-2.322000027E0,1.060451829E1
2.507110611E0,-2.485950232E0,9.720000267E0,-2.475000143E0,1.033363341E1
2.509074634E0,-1.911000133E0,9.604950905E0,-2.359950066E0,1.007354792E1
2.511038609E0,-1.489950061E0,9.604950905E0,-2.130000114E0,9.950474037E0
2.513002389E0,-1.183050036E0,9.451050758E0,-2.053950071E0,9.743750752E0
2.514966227E0,-1.030050039E0,9.375000000E0,-1.939050078E0,9.628683362E0
2.516929759E0,-9.150000215E-1,9.259950638E0,-1.516950130E0,9.427886749E0
2.518893380E0,-8.770500422E-1,9.106050491E0,-7.510500550E-1,9.178967726E0
2.520856184E0,-9.529500604E-1,9.067950249E0,-6.105000153E-2,9.118089857E0
2.522819227E0,-1.106999993E0,9.106050491E0,5.130000114E-1,9.187424751E0
2.524783029E0,-1.068000078E0,9.106050491E0,1.356000066E0,9.268199172E0
2.526746609E0,-9.529500604E-1,9.067950249E0,1.855050087E0,9.304678735E0
2.528710456E0,-1.030050039E0,9.220950127E0,2.161050081E0,9.526650081E0
2.530674225E0,-6.850500107E-1,9.298050880E0,2.506050110E0,9.654187218E0
2.532637770E0,-2.250000089E-1,9.412950516E0,2.773950100E0,9.815755782E0
2.534601380E0,1.189500093E-1,9.681000710E0,2.851050138E0,1.009279004E1
2.536565781E0,6.550500393E-1,9.796050072E0,2.698050022E0,1.018190363E1
2.538529936E0,1.230000019E0,9.796050072E0,2.736000061E0,1.024505702E1
2.540493415E0,1.804950118E0,9.528000832E0,3.157950163E0,1.019869080E1
2.542457092E0,2.341950178E0,9.259950638E0,3.655950069E0,1.022728641E1
2.544420921E0,3.031950235E0,8.800050735E0,4.384050369E0,1.028851363E1
2.546384705E0,3.798000097E0,8.187000275E0,5.151000023E0,1.039156290E1
2.548348448E0,4.564949989E0,7.534950256E0,5.764050484E0,1.052798755E1
2.550312189E0,5.025000095E0,6.883050442E0,6.223950386E0,1.055294119E1
2.552276368E0,5.446050167E0,6.193950176E0,6.531000137E0,1.052038231E1
2.554240418E0,5.599950314E0,5.580000401E0,6.376950264E0,1.015683724E1
2.556204275E0,5.715000153E0,4.929000378E0,6.070950508E0,9.685696234E0
2.558168189E0,5.830050468E0,4.276950359E0,5.572050095E0,9.128501251E0
2.560132051E0,5.905950069E0,3.664050102E0,5.266050339E0,8.719908001E0
2.562095909E0,5.868000507E0,3.012000084E0,5.035950184E0,8.298576306E0
2.564059887E0,5.752950191E0,2.437050104E0,4.921050072E0,7.953136672E0
2.566023830E0,5.599950314E0,1.824000120E0,4.843950272E0,7.625632707E0
2.567987885E0,5.407950401E0,1.210950017E0,4.653000355E0,7.236210320E0
2.569951907E0,5.293050289E0,7.510500550E-1,4.498950005E0,6.987203210E0
2.571917087E0,5.215950012E0,1.759500057E-1,4.384050369E0,6.815936515E0
2.573881951E0,5.215950012E0,-2.059500068E-1,4.345950127E0,6.792336302E0
2.575845804E0,5.062950134E0,-6.660000086E-1,4.345950127E0,6.705542676E0
2.577809953E0,4.987050056E0,-1.164000034E0,4.345950127E0,6.716609773E0
2.579773972E0,4.833000183E0,-1.585950017E0,4.423050404E0,6.740660435E0
2.581738030E0,4.717950344E0,-1.969050050E0,4.231050014E0,6.636113153E0
2.583701996E0,4.450050354E0,-2.351999998E0,4.116000175E0,6.502023500E0
2.585666006E0,4.219950199E0,-2.697000027E0,4.000950336E0,6.410100812E0
2.587630184E0,4.027950287E0,-3.118950129E0,3.963000298E0,6.454270274E0
2.589594312E0,3.874950171E0,-3.502050161E0,3.886050224E0,6.510067627E0
2.591558246E0,3.721950293E0,-3.732000113E0,3.733050108E0,6.458823572E0
2.593522237E0,3.529950142E0,-4.000950336E0,3.733050108E0,6.511821151E0
2.595486402E0,3.337950230E0,-4.231050014E0,3.771000147E0,6.577548029E0
2.597450527E0,3.223050117E0,-4.498950005E0,3.694050074E0,6.653916828E0
2.599414507E0,3.147000074E0,-4.767000198E0,3.655950069E0,6.781878152E0
2.601378529E0,2.992950201E0,-4.920000076E0,3.388050079E0,6.681544357E0
2.603342525E0,2.955000162E0,-5.149950027E0,3.196050167E0,6.743051825E0
2.605306529E0,2.992950201E0,-5.380050182E0,2.889000177E0,6.800662681E0
2.607270562E0,3.070050240E0,-5.649000168E0,2.736000061E0,6.987281854E0
2.609234563E0,3.108000040E0,-5.764050484E0,2.314950228E0,6.945713555E0
2.611198248E0,3.070050240E0,-5.878950119E0,1.816050053E0,6.876430816E0
2.613162025E0,2.992950201E0,-5.878950119E0,1.432950020E0,6.750788929E0
2.615126017E0,2.878050089E0,-5.764050484E0,1.087950110E0,6.533841576E0
2.617089946E0,2.533950090E0,-5.533950329E0,7.429500222E-1,6.131678729E0
2.619054924E0,2.188950062E0,-5.227050304E0,3.979500234E-1,5.680838097E0
2.621019581E0,1.767000079E0,-4.843950272E0,2.070000172E-1,5.160328722E0
2.622983469E0,1.422000051E0,-4.498950005E0,5.295000225E-2,4.718626812E0
2.624947583E0,1.306950092E0,-4.153950214E0,-1.369500011E-1,4.356853937E0
2.626911742E0,1.192050099E0,-3.808950186E0,-2.140500098E-1,3.996861564E0
2.628875888E0,1.039050102E0,-3.463950157E0,-2.140500098E-1,3.622760441E0
2.630839649E0,9.240000248E-1,-3.004050255E0,-2.205000073E-2,3.143020869E0
2.632803516E0,8.089500666E-1,-2.581950188E0,2.070000172E-1,2.713616773E0
2.634766502E0,7.320000529E-1,-2.161050081E0,5.509500504E-1,2.347234008E0
2.636729746E0,5.410500169E-1,-1.777950048E0,7.050000429E-1,1.987678685E0
2.638694190E0,5.410500169E-1,-1.432950020E0,6.660000086E-1,1.670220612E0
2.640658283E0,5.790000558E-1,-1.126049995E0,7.050000429E-1,1.449225558E0
2.642622642E0,5.410500169E-1,-6.660000086E-1,5.509500504E-1,1.019724026E0
2.644586913E0,6.940500140E-1,-3.979500234E-1,4.360500276E-1,9.111582023E-1
2.646551588E0,8.470500112E-1,-1.680000126E-1,3.600000143E-1,9.355841683E-1
2.648516144E0,1.000050068E0,-5.295000225E-2,2.830500007E-1,1.040683018E0
2.650479194E0,1.153950095E0,1.380000114E-1,1.680000126E-1,1.174252456E0
2.652442685E0,1.269000053E0,2.910000086E-1,9.195000678E-2,1.305180809E0
2.654405852E0,1.384050012E0,4.440000355E-1,1.300500035E-1,1.459329802E0
2.656369127E0,1.575000048E0,5.590500236E-1,3.220500052E-1,1.702021823E0
2.658333205E0,1.804950118E0,5.980500579E-1,4.750500321E-1,1.959893194E0
2.660297048E0,2.035050154E0,7.129500508E-1,7.050000429E-1,2.268645403E0
2.662261255E0,2.227050066E0,7.890000343E-1,1.050000072E0,2.585492835E0
2.664225356E0,2.380050182E0,9.040500522E-1,1.279950023E0,2.849599521E0
2.666189349E0,2.533950090E0,9.430500269E-1,1.471050024E0,3.078024462E0
2.668153367E0,2.686950207E0,1.018950105E0,1.548000097E0,3.264087167E0
2.670117048E0,2.802000046E0,1.134000063E0,1.663050056E0,3.450057374E0
2.672080828E0,2.878050089E0,1.249050021E0,1.855050087E0,3.644792051E0
2.674045000E0,3.070050240E0,1.363950014E0,2.046000004E0,3.933406174E0
2.676009057E0,3.147000074E0,1.479000092E0,2.046000004E0,4.034497088E0
2.677973043E0,3.376950264E0,1.518000126E0,2.122950077E0,4.267907508E0
2.679937054E0,3.453000069E0,1.708950043E0,1.930950046E0,4.309557727E0
2.681901052E0,3.682950258E0,1.786050081E0,1.585950017E0,4.389685063E0
2.683865054E0,3.913050175E0,1.747950077E0,1.165050030E0,4.441242249E0
2.685829774E0,4.219950199E0,1.824000120E0,6.660000086E-1,4.645267714E0
2.687794283E0,4.564949989E0,1.900950074E0,2.449500114E-1,4.950997889E0
2.689757122E0,4.833000183E0,2.016000032E0,3.979500234E-1,5.251715065E0
2.691720478E0,5.178000450E0,2.284050226E0,1.087950110E0,5.763003517E0
2.693684723E0,5.446050167E0,2.514000177E0,2.046000004E0,6.337647460E0
2.695648707E0,5.599950314E0,2.821050167E0,3.618000269E0,7.239315818E0
2.697612576E0,5.331000328E0,3.396000147E0,5.419050217E0,8.325772441E0
2.699576478E0,5.062950134E0,3.894000292E0,7.297050476E0,9.697610427E0
2.701540444E0,4.680000305E0,4.431000233E0,8.944950104E0,1.102489448E1
2.703504394E0,4.297049999E0,5.005050182E0,1.017195034E1,1.212368507E1
2.705468403E0,3.874950171E0,5.580000401E0,1.093800068E1,1.287600490E1
2.707432394E0,3.453000069E0,6.232050419E0,1.113000011E1,1.321508851E1
2.709396216E0,3.147000074E0,6.960000515E0,1.063200092E1,1.309139642E1
2.711360088E0,2.764050245E0,7.842000484E0,9.520050049E0,1.263994851E1
2.713323795E0,2.457000017E0,8.800050735E0,7.834050179E0,1.203536806E1
2.715287550E0,2.380050182E0,9.910950661E0,5.533950329E0,1.159811140E1
2.717251771E0,2.380050182E0,1.098495007E1,2.736000061E0,1.156803627E1
2.719215855E0,2.649000168E0,1.186605072E1,5.295000225E-2,1.215825503E1
2.721179842E0,2.764050245E0,1.282395077E1,-2.514000177E0,1.335716601E1
2.723143857E0,2.304000139E0,1.412700081E1,-5.119950294E0,1.520179133E1
2.725106543E0,1.192050099E0,1.585200119E1,-7.189950466E0,1.744712907E1
2.727069622E0,-5.320500135E-1,1.761495018E1,-8.953050613E0,1.976680709E1
2.729033463E0,-2.601000071E0,1.972305107E1,-9.528000832E0,2.205780462E1
2.730997081E0,-4.747950077E0,2.267400169E1,-9.412950516E0,2.500513987E1
2.732961102E0,-6.472050190E0,2.577900124E1,-8.148000717E0,2.779989666E1
2.734925004E0,-7.852050304E0,2.945805168E1,-6.193050385E0,3.110924904E1
2.736889066E0,-9.309000015E0,3.336795044E1,-4.200000286E0,3.489581064E1
2.738853081E0,-1.038195038E1,3.769905090E1,-2.820000172E0,3.920402701E1
2.740816855E0,-1.072695065E1,4.206795120E1,-2.169000149E0,4.346820160E1
2.742780699E0,-1.118700027E1,4.624605179E1,-1.632000089E0,4.760787441E1
2.744744589E0,-1.111005020E1,4.954200363E1,-2.782050133E0,5.084862970E1
2.746708466E0,-1.030500031E1,5.230200195E1,-4.200000286E0,5.347272615E1
2.748672492E0,-9.040050507E0,5.464005280E1,-5.772000313E0,5.568279690E1
2.750636471E0,-8.197050095E0,5.644095230E1,-7.381050587E0,5.750871790E1
2.752600655E0,-7.315950394E0,5.720805359E1,-8.761050224E0,5.833558542E1
2.754564779E0,-6.280950069E0,5.716905212E1,-9.565950394E0,5.830315825E1
2.756528759E0,-4.824000359E0,5.582805252E1,-1.010295010E1,5.693954714E1
2.758492781E0,-2.601000071E0,5.280000305E1,-1.021800041E1,5.384248375E1
2.760458007E0,-3.019500077E-1,4.923495102E1,-9.757950783E0,5.019351730E1
2.762422870E0,1.459950089E0,4.536405182E1,-8.646000862E0,4.620370096E1
2.764386723E0,2.419050217E0,4.160805130E1,-7.650000572E0,4.237457074E1
2.766350872E0,2.686950207E0,3.823500061E1,-7.381050587E0,3.903350972E1
2.768314846E0,2.457000017E0,3.536100006E1,-7.687950134E0,3.627039773E1
2.770278872E0,2.265000105E0,3.283095169E1,-8.224950790E0,3.392125337E1
2.772242863E0,2.265000105E0,3.072300148E1,-8.455050468E0,3.194559318E1
2.774206868E0,2.610000134E0,2.876895142E1,-8.569950104E0,3.013152354E1
2.776170551E0,2.992950201E0,2.689005089E1,-8.761050224E0,2.843920865E1
2.778134329E0,3.529950142E0,2.524200058E1,-9.067950249E0,2.705266832E1
2.780098186E0,3.837000132E0,2.370900154E1,-9.451050758E0,2.581010819E1
2.782062019E0,4.143000126E0,2.232900047E1,-1.010295010E1,2.485595126E1
2.784026202E0,4.372950077E0,2.114100075E1,-1.079295063E1,2.413612206E1
2.785990269E0,4.527000427E0,2.002995110E1,-1.129095078E1,2.343455234E1
2.787954259E0,4.564949989E0,1.899495125E1,-1.175100040E1,2.279765233E1
2.789918271E0,4.564949989E0,1.815195084E1,-1.186605072E1,2.216157141E1
2.791882269E0,4.258049965E0,1.746195030E1,-1.194195080E1,2.157917716E1
2.793846271E0,4.027950287E0,1.677195168E1,-1.190400028E1,2.095776632E1
2.795810315E0,3.682950258E0,1.627395058E1,-1.186605072E1,2.047458790E1
2.797774346E0,3.184950113E0,1.569900036E1,-1.155900097E1,1.975381034E1
2.799738521E0,2.802000046E0,1.523895073E1,-1.117605019E1,1.910447386E1
2.801702654E0,2.457000017E0,1.481700039E1,-1.079295063E1,1.849508402E1
2.803666632E0,2.188950062E0,1.447200108E1,-1.025595093E1,1.787218081E1
2.805630656E0,1.959000111E0,1.405095100E1,-9.873000145E0,1.728418460E1
2.807594666E0,1.804950118E0,1.359105110E1,-9.604050636E0,1.673954311E1
2.809558670E0,1.651950121E0,1.309305096E1,-9.528000832E0,1.627696908E1
2.811522849E0,1.345050097E0,1.263300037E1,-8.608050346E0,1.534602193E1
2.813486976E0,1.153950095E0,1.209600067E1,-7.458000183E0,1.425715960E1
2.815451090E0,1.114950061E0,1.155900097E1,-7.342950344E0,1.373945184E1
2.817415208E0,9.240000248E-1,1.083105087E1,-6.346950531E0,1.258766142E1
2.819379178E0,8.089500666E-1,1.002600002E1,-4.660050392E0,1.108562792E1
2.821343198E0,8.850000501E-1,9.259950638E0,-3.127050161E0,9.813681960E0
2.823307060E0,8.089500666E-1,8.455050468E0,-2.359950066E0,8.815420747E0
2.825270968E0,6.169500351E-1,7.650000572E0,-1.479000092E0,7.816046147E0
2.827234217E0,4.639500082E-1,6.883050442E0,-7.510500550E-1,6.939431474E0
2.829197660E0,5.020500422E-1,6.232050419E0,-9.900000691E-2,6.253023882E0
2.831160884E0,2.719500065E-1,5.427000046E0,3.600000143E-1,5.445721836E0
2.833124183E0,4.050000105E-3,4.774950027E0,9.730500579E-1,4.873088403E0
2.835088483E0,4.050000105E-3,3.970950127E0,1.395000100E0,4.208858110E0
2.837052489E0,-1.480500102E-1,3.357000113E0,1.585950017E0,3.715724158E0
2.839016309E0,-3.019500077E-1,2.629050016E0,1.930950046E0,3.275919089E0
2.840980183E0,-4.170000255E-1,1.978050113E0,2.353049994E0,3.102163042E0
2.842944159E0,-4.549500346E-1,1.326000094E0,2.889000177E0,3.211164557E0
2.844908105E0,-5.320500135E-1,8.659500480E-1,3.273000240E0,3.427167530E0
2.846872835E0,-5.700000525E-1,2.910000086E-1,3.847950220E0,3.900807860E0
2.848837335E0,-6.079500318E-1,-1.290000081E-1,4.269000053E0,4.314001124E0
2.850801295E0,-6.850500107E-1,-5.130000114E-1,4.690950394E0,4.768383177E0
2.852765414E0,-6.079500318E-1,-8.959500194E-1,4.921050072E0,5.038756145E0
2.854729379E0,-4.930500090E-1,-1.240950108E0,4.690950394E0,4.877301618E0
2.856693400E0,-3.400500119E-1,-1.432950020E0,4.116000175E0,4.371548606E0
2.858657396E0,-7.200000435E-2,-1.663050056E0,3.618000269E0,3.982567694E0
2.860621400E0,2.719500065E-1,-1.930950046E0,3.118950129E0,3.678365777E0
2.862586434E0,6.169500351E-1,-2.122950077E0,2.620950222E0,3.428837185E0
2.864551167E0,8.470500112E-1,-2.238000154E0,1.855050087E0,3.027763075E0
2.866515223E0,1.039050102E0,-2.428950071E0,1.279950023E0,2.935591188E0
2.868479477E0,1.077000022E0,-2.620950222E0,5.130000114E-1,2.879666322E0
2.870444153E0,1.192050099E0,-2.851050138E0,-2.205000073E-2,3.090300395E0
2.872408706E0,1.192050099E0,-3.081000090E0,-3.289500177E-1,3.319902575E0
2.874372297E0,1.230000019E0,-3.463950157E0,-5.970000029E-1,3.724011243E0
2.876336170E0,1.345050097E0,-3.771000147E0,-6.360000372E-1,4.053899101E0
2.878300194E0,1.345050097E0,-4.077000141E0,-5.590500236E-1,4.329391047E0
2.880264139E0,1.422000051E0,-4.498950005E0,-4.819500148E-1,4.742880043E0
2.882228328E0,1.459950089E0,-4.843950272E0,-2.910000086E-1,5.067542748E0
2.884192446E0,1.422000051E0,-5.074050426E0,-1.369500011E-1,5.271321198E0
2.886156112E0,1.422000051E0,-5.265000343E0,5.295000225E-2,5.453908366E0
2.888119910E0,1.422000051E0,-5.457000256E0,2.830500007E-1,5.646330953E0
2.890083408E0,1.422000051E0,-5.533950329E0,4.360500276E-1,5.730342923E0
2.892046991E0,1.384050012E0,-5.533950329E0,6.660000086E-1,5.743148674E0
2.894011016E0,1.345050097E0,-5.533950329E0,8.200500607E-1,5.753802926E0
2.895974912E0,1.384050012E0,-5.494950294E0,1.126049995E0,5.777374989E0
2.897938615E0,1.306950092E0,-5.419050217E0,1.240950108E0,5.710882678E0
2.899902375E0,1.269000053E0,-5.227050304E0,1.356000066E0,5.547175155E0
2.901866396E0,1.192050099E0,-4.996950150E0,1.510050058E0,5.354507019E0
2.903830354E0,1.153950095E0,-4.767000198E0,1.740000129E0,5.204180258E0
2.905794317E0,1.192050099E0,-4.537050247E0,2.122950077E0,5.149050924E0
2.907758278E0,1.230000019E0,-4.269000053E0,2.659050226E0,5.177625866E0
2.909722285E0,1.269000053E0,-3.847050190E0,3.234000206E0,5.183523284E0
2.911686278E0,1.230000019E0,-3.502050161E0,3.771000147E0,5.291285051E0
2.913650329E0,1.192050099E0,-3.042000055E0,4.308000088E0,5.406811679E0
2.915614359E0,1.153950095E0,-2.581950188E0,4.806000233E0,5.576352377E0
2.917578355E0,1.230000019E0,-2.083950043E0,5.227050304E0,5.760017597E0
2.919542361E0,1.192050099E0,-1.701000094E0,5.533950329E0,5.910921333E0
2.921506135E0,1.269000053E0,-1.356000066E0,5.841000080E0,6.129141804E0
2.923469977E0,1.306950092E0,-1.011000037E0,5.917050362E0,6.143429384E0
2.925434034E0,1.345050097E0,-5.509500504E-1,5.878950119E0,6.055968975E0
2.927398038E0,1.422000051E0,-2.440500110E-1,5.841000080E0,6.016554370E0
2.929361137E0,1.537050128E0,-5.295000225E-2,5.764050484E0,5.965702371E0
2.931324501E0,1.614000082E0,2.140500098E-1,5.611050129E0,5.842490669E0
2.933288744E0,1.651950121E0,5.590500236E-1,5.304000378E0,5.583358858E0
2.935252730E0,1.690050125E0,8.280000687E-1,4.959000111E0,5.304105545E0
2.937216948E0,1.729050040E0,1.057950020E0,4.768050194E0,5.181039947E0
2.939181105E0,1.729050040E0,1.288050056E0,4.423050404E0,4.920575359E0
2.941145438E0,1.537050128E0,1.479000092E0,4.153950214E0,4.669610985E0
2.943109720E0,1.459950089E0,1.671000123E0,3.771000147E0,4.375401442E0
2.945073628E0,1.306950092E0,1.863000035E0,3.310950041E0,4.017620919E0
2.947037645E0,1.230000019E0,2.092950106E0,2.812950134E0,3.715646465E0
2.949002042E0,1.039050102E0,2.284050226E0,2.314950228E0,3.414015979E0
2.950966331E0,8.470500112E-1,2.551950216E0,1.855050087E0,3.266673301E0
2.952930102E0,7.320000529E-1,2.706000090E0,1.471050024E0,3.165793540E0
2.954894025E0,5.410500169E-1,2.896950245E0,1.279950023E0,3.212993605E0
2.956857992E0,4.639500082E-1,3.088950157E0,9.730500579E-1,3.271649293E0
2.958821946E0,3.109500110E-1,3.280950069E0,7.429500222E-1,3.378357294E0
2.960785959E0,2.340000123E-1,3.433950186E0,5.130000114E-1,3.479933749E0
2.962749951E0,1.570500135E-1,3.549000263E0,3.600000143E-1,3.570667667E0
2.964715034E0,8.100000024E-2,3.702000141E0,1.300500035E-1,3.705169233E0
2.966679797E0,8.100000024E-2,3.702000141E0,-6.105000153E-2,3.703389413E0
2.968643893E0,4.050000105E-3,3.702000141E0,-4.060500264E-1,3.724204354E0
2.970608184E0,-1.099500060E-1,3.664050102E0,-7.120500207E-1,3.734215766E0
2.972572299E0,-1.870500147E-1,3.664050102E0,-1.096050024E0,3.829043812E0
2.974536476E0,-1.480500102E-1,3.511050224E0,-1.594050050E0,3.858806557E0
2.976500805E0,-2.629500031E-1,3.280950069E0,-2.092050076E0,3.900057638E0
2.978465090E0,-4.170000255E-1,3.127050161E0,-2.667000055E0,4.131007266E0
2.980429178E0,-5.320500135E-1,2.859000206E0,-3.319050074E0,4.412828207E0
2.982393323E0,-6.079500318E-1,2.514000177E0,-4.084949970E0,4.834937062E0
2.984357344E0,-6.469500065E-1,2.245950222E0,-4.813050270E0,5.350541058E0
2.986321401E0,-6.469500065E-1,1.939050078E0,-5.542050362E0,5.907011235E0
2.988285525E0,-6.469500065E-1,1.671000123E0,-5.925000191E0,6.190025281E0
2.990249629E0,-4.930500090E-1,1.249050021E0,-5.962950230E0,6.112282692E0
2.992213612E0,-1.480500102E-1,9.430500269E-1,-5.617950439E0,5.698476051E0
2.994177631E0,1.570500135E-1,5.590500236E-1,-4.927950382E0,4.962045607E0
2.996143035E0,5.790000558E-1,2.140500098E-1,-3.970050097E0,4.017755124E0
2.998108057E0,9.619500637E-1,-5.295000225E-2,-2.743950129E0,2.908163327E0
3.000071342E0,1.230000019E0,-1.290000081E-1,-1.249050021E0,1.757744863E0
3.002035136E0,1.345050097E0,-1.290000081E-1,7.050000429E-1,1.524081961E0
3.003998495E0,1.384050012E0,1.380000114E-1,3.081000090E0,3.380414174E0
3.005961982E0,1.459950089E0,6.360000372E-1,5.725950241E0,5.943269847E0
3.007926410E0,1.575000048E0,1.134000063E0,8.293950081E0,8.517992090E0
3.009890576E0,1.614000082E0,1.786050081E0,1.063200092E1,1.090111989E1
3.011854863E0,1.575000048E0,2.551950216E0,1.262505054E1,1.297632368E1
3.013819115E0,2.149950027E0,3.127050161E0,1.396605110E1,1.447243280E1
3.015783298E0,2.572050095E0,3.778950214E0,1.465605068E1,1.535238509E1
3.017747501E0,3.223050117E0,4.468950272E0,1.431105042E1,1.533511436E1
3.019711667E0,3.529950142E0,5.580000401E0,1.316100025E1,1.472443140E1
3.021675829E0,3.798000097E0,6.960000515E0,1.151295090E1,1.397907187E1
3.023639982E0,4.182000160E0,8.302050591E0,9.405000687E0,1.322373651E1
3.025604137E0,4.756950378E0,9.796050072E0,6.799050331E0,1.283815638E1
3.027568650E0,4.948050022E0,1.155900097E1,3.618000269E0,1.308371615E1
3.029533058E0,4.833000183E0,1.370595074E1,-2.140500098E-1,1.453467557E1
3.031497104E0,4.219950199E0,1.650405121E1,-3.778950214E0,1.744913037E1
3.033461271E0,3.300000191E0,1.945500183E1,-6.499950409E0,2.077586226E1
3.035424702E0,2.686950207E0,2.252100182E1,-8.224950790E0,2.412602412E1
3.037388348E0,2.341950178E0,2.554905128E1,-9.259050369E0,2.727579084E1
3.039352272E0,2.380050182E0,2.869200134E1,-9.988050461E0,3.047386966E1
3.041316115E0,2.917050123E0,3.206505203E1,-1.021800041E1,3.377993895E1
3.043279982E0,4.182000160E0,3.585900116E1,-8.683950424E0,3.713176651E1
3.045243827E0,5.905950069E0,3.919395065E1,-7.495950222E0,4.033900450E1
3.047208215E0,7.438950539E0,4.114800262E1,-7.113000393E0,4.241569143E1
3.049172443E0,9.394050598E0,4.160805130E1,-6.460950375E0,4.314188220E1
3.051136540E0,1.234500027E1,4.030500031E1,-5.388000488E0,4.249614842E1
3.053100675E0,1.525800037E1,3.777600098E1,-3.165000200E0,4.086379879E1
3.055064526E0,1.556505108E1,3.555300140E1,-1.441050053E0,3.883765375E1
3.057028454E0,1.184700012E1,3.378900146E1,-8.269500136E-1,3.581524645E1
3.058992600E0,6.750000477E0,3.183495140E1,-1.861950040E0,3.259591224E1
3.060956682E0,2.074050188E0,3.003300095E1,-3.625050068E0,3.032200221E1
3.062920128E0,-1.795950055E0,2.830905151E1,-5.503050327E0,2.889483340E1
3.064883761E0,-4.018949986E0,2.562600136E1,-6.997950554E0,2.686661900E1
3.066847643E0,-5.553000450E0,2.317305183E1,-8.340000153E0,2.524642050E1
3.068811452E0,-6.241950512E0,2.118000031E1,-9.489000320E0,2.403321631E1
3.070775125E0,-6.319050312E0,1.983795166E1,-9.949050903E0,2.307505876E1
3.072738838E0,-5.859000206E0,1.926300049E1,-9.834000587E0,2.240755763E1
3.074702931E0,-4.900950432E0,1.895700073E1,-8.914050102E0,2.151389042E1
3.076666913E0,-4.057950020E0,1.876500130E1,-7.687950134E0,2.068083193E1
3.078630872E0,-3.751050234E0,1.872705078E1,-6.385050297E0,2.013806535E1
3.080594838E0,-3.828000069E0,1.891800117E1,-5.311950207E0,2.001902016E1
3.082558529E0,-4.134000301E0,1.914795113E1,-4.392000198E0,2.007544910E1
3.084522300E0,-4.555950165E0,1.926300049E1,-3.894000292E0,2.017382234E1
3.086486653E0,-4.900950432E0,1.926300049E1,-3.817050219E0,2.023987093E1
3.088450836E0,-5.169000149E0,1.922504997E1,-3.739950180E0,2.025606912E1
3.090414986E0,-5.514000416E0,1.911000061E1,-4.123950005E0,2.031263862E1
3.092379146E0,-5.859000206E0,1.891800117E1,-4.621950150E0,2.033669282E1
3.094343164E0,-6.280950069E0,1.872705078E1,-5.043000221E0,2.038589257E1
3.096307223E0,-6.778950214E0,1.861200142E1,-5.542050362E0,2.056878910E1
3.098271032E0,-7.201050282E0,1.842000008E1,-6.040050507E0,2.067930700E1
3.100234915E0,-7.507050514E0,1.822800064E1,-6.538050175E0,2.076925408E1
3.102198929E0,-7.813950539E0,1.811295128E1,-6.960000515E0,2.091837552E1
3.104162908E0,-7.852050304E0,1.799805069E1,-7.266000271E0,2.093750899E1
3.106127047E0,-7.929000378E0,1.788300133E1,-7.420050144E0,2.092194847E1
3.108091139E0,-8.044050217E0,1.788300133E1,-7.495950222E0,2.099280234E1
3.110055124E0,-8.005949974E0,1.792200089E1,-7.228050232E0,2.091741047E1
3.112019141E0,-7.852050304E0,1.792200089E1,-6.691050529E0,2.067904657E1
3.113983512E0,-7.699050426E0,1.788300133E1,-5.887050152E0,2.034046394E1
3.115947769E0,-7.392000198E0,1.780695152E1,-5.235000134E0,1.997834868E1
3.117911771E0,-7.239000320E0,1.784505081E1,-4.429950237E0,1.976040038E1
3.119875848E0,-7.086000443E0,1.788300133E1,-3.778950214E0,1.960340796E1
3.121839969E0,-6.625950336E0,1.776900101E1,-3.012000084E0,1.920189468E1
3.123804077E0,-6.166050434E0,1.757700157E1,-2.398950100E0,1.878100433E1
3.125768293E0,-5.629050255E0,1.730895042E1,-1.977000117E0,1.830831781E1
3.127732471E0,-5.208000183E0,1.700205040E1,-1.516950130E0,1.784640360E1
3.129696801E0,-4.786050320E0,1.669500160E1,-1.171950102E0,1.740697628E1
3.131661086E0,-4.402950287E0,1.638899994E1,-9.040500522E-1,1.699419303E1
3.133625398E0,-4.173000336E0,1.612005043E1,-8.659500480E-1,1.667392657E1
3.135589702E0,-3.904950142E0,1.562205029E1,-8.269500136E-1,1.612392437E1
3.137554170E0,-3.712950230E0,1.500900078E1,-7.510500550E-1,1.547966989E1
3.139518572E0,-3.712950230E0,1.431900024E1,-7.120500207E-1,1.480968543E1
3.141482369E0,-3.751050234E0,1.385895061E1,-7.890000343E-1,1.437927019E1
3.143446343E0,-3.790050268E0,1.347600079E1,-1.096050024E0,1.404166671E1
3.145410302E0,-3.790050268E0,1.297800064E1,-1.249050021E0,1.357766945E1
3.147374266E0,-3.751050234E0,1.251795101E1,-1.249050021E0,1.312743697E1
3.149338147E0,-3.712950230E0,1.217295074E1,-1.096050024E0,1.277372518E1
3.151302045E0,-3.865950108E0,1.201905060E1,-8.269500136E-1,1.265254891E1
3.153266197E0,-3.865950108E0,1.178895092E1,-5.209500194E-1,1.241758120E1
3.155230274E0,-3.865950108E0,1.171305084E1,-1.369500011E-1,1.233531052E1
3.157193226E0,-3.675000191E0,1.171305084E1,1.680000126E-1,1.227719066E1
3.159156507E0,-3.406050205E0,1.167405033E1,3.220500052E-1,1.216504605E1
3.161121184E0,-2.985000134E0,1.163595009E1,3.600000143E-1,1.201811800E1
3.163085442E0,-2.448000193E0,1.148295021E1,2.830500007E-1,1.174440155E1
3.165049534E0,-1.950000048E0,1.113795090E1,1.300500035E-1,1.130811051E1
3.167013675E0,-1.528050065E0,1.090800095E1,9.195000678E-2,1.101489339E1
3.168977515E0,-1.106999993E0,1.067805004E1,9.195000678E-2,1.073567215E1
3.170941444E0,-7.620000243E-1,1.067805004E1,1.500000060E-2,1.070521470E1
3.172905646E0,-4.549500346E-1,1.060095024E1,1.500000060E-2,1.061071866E1
3.174869760E0,-3.019500077E-1,1.083105087E1,-1.369500011E-1,1.083612440E1
3.176833696E0,-1.099500060E-1,1.090800095E1,-1.369500011E-1,1.090941469E1
3.178797685E0,8.100000024E-2,1.117605019E1,-9.900000691E-2,1.117678217E1
3.180761866E0,3.109500110E-1,1.129095078E1,1.500000060E-2,1.129524167E1
3.182725990E0,5.020500422E-1,1.144395065E1,5.295000225E-2,1.145508029E1
3.184690311E0,8.470500112E-1,1.163595009E1,1.680000126E-1,1.166794979E1
3.186654587E0,1.230000019E0,1.171305084E1,3.600000143E-1,1.178295634E1
3.188619126E0,1.422000051E0,1.171305084E1,3.600000143E-1,1.180454337E1
3.190583587E0,1.804950118E0,1.163595009E1,2.449500114E-1,1.177765596E1
3.192547689E0,2.457000017E0,1.152105045E1,2.449500114E-1,1.178267598E1
3.194511897E0,2.802000046E0,1.132905006E1,1.680000126E-1,1.167162386E1
3.196476055E0,3.070050240E0,1.117605019E1,1.500000060E-2,1.159006174E1
3.198440218E0,3.492000103E0,1.094595051E1,-9.900000691E-2,1.148989548E1
3.200404505E0,3.874950171E0,1.056300068E1,-6.105000153E-2,1.125148654E1
3.202368755E0,4.066950321E0,1.025595093E1,1.500000060E-2,1.103289805E1
3.204332037E0,4.372950077E0,9.835050583E0,5.130000114E-1,1.077562441E1
3.206295603E0,4.527000427E0,9.490050316E0,1.432950020E0,1.061169796E1
3.208259992E0,4.909950256E0,9.030000687E0,2.506050110E0,1.057964135E1
3.210224139E0,5.101050377E0,8.647050858E0,3.808950186E0,1.073779796E1
3.212188160E0,5.370000362E0,8.187000275E0,5.112000465E0,1.104519924E1
3.214152218E0,5.715000153E0,7.650000572E0,6.262050152E0,1.141915091E1
3.216116163E0,5.905950069E0,7.189950466E0,7.029000282E0,1.166115255E1
3.218080141E0,6.213000298E0,6.615000248E0,7.335000515E0,1.166884028E1
3.220044194E0,6.558000088E0,5.925000191E0,7.182000160E0,1.138833257E1
3.222008221E0,6.826050282E0,5.274000168E0,6.799050331E0,1.098349333E1
3.223972397E0,7.171050549E0,4.621950150E0,6.376950264E0,1.065137943E1
3.225936529E0,7.285950184E0,3.970950127E0,5.686950207E0,1.005956846E1
3.227900507E0,7.516050339E0,3.319050074E0,5.266050339E0,9.759015947E0
3.229864531E0,7.669050217E0,2.821050167E0,4.882050037E0,9.518774492E0
3.231828482E0,7.708050251E0,2.245950222E0,4.537950039E0,9.222327343E0
3.233792454E0,7.746000290E0,1.671000123E0,4.345950127E0,9.037701279E0
3.235756278E0,7.630950451E0,1.057950020E0,4.153950214E0,8.752483385E0
3.237720146E0,7.516050339E0,4.830000103E-1,4.192950249E0,8.620042546E0
3.239684934E0,7.171050549E0,-5.295000225E-2,4.269000053E0,8.345725321E0
3.241649452E0,6.787950516E0,-3.210000098E-1,4.308000088E0,8.046003851E0
3.243613485E0,6.328050137E0,-7.810500264E-1,4.192950249E0,7.631191877E0
3.245577670E0,5.752950191E0,-1.240950108E0,4.078050137E0,7.160089803E0
3.247541503E0,5.254950047E0,-1.663050056E0,3.694050074E0,6.635227308E0
3.249505439E0,4.795050144E0,-2.083950043E0,3.349050045E0,6.208984609E0
3.251469045E0,4.335000038E0,-2.428950071E0,2.928000212E0,5.767599936E0
3.253432747E0,3.913050175E0,-2.812050104E0,2.583000183E0,5.467309887E0
3.255396627E0,3.607050180E0,-3.234000206E0,2.275950193E0,5.352524416E0
3.257360447E0,3.376950264E0,-3.579000235E0,2.161050081E0,5.374306766E0
3.259324478E0,3.223050117E0,-3.924000263E0,2.085000038E0,5.489358367E0
3.261288447E0,3.147000074E0,-4.269000053E0,2.085000038E0,5.698701263E0
3.263252318E0,2.955000162E0,-4.575000286E0,2.238000154E0,5.888233884E0
3.265216218E0,2.878050089E0,-4.843950272E0,2.238000154E0,6.062645564E0
3.267180398E0,2.649000168E0,-5.112000465E0,2.275950193E0,6.191098443E0
3.269144476E0,2.457000017E0,-5.304000378E0,2.275950193E0,6.272895533E0
3.271108509E0,2.227050066E0,-5.494950294E0,2.200050116E0,6.324116638E0
3.273072555E0,1.920000076E0,-5.725050449E0,2.122950077E0,6.400743704E0
3.275036502E0,1.651950121E0,-5.917050362E0,2.046000004E0,6.475070671E0
3.277000478E0,1.422000051E0,-6.031950474E0,1.855050087E0,6.468981488E0
3.278964530E0,1.306950092E0,-6.147000313E0,1.663050056E0,6.500728180E0
3.280928557E0,1.153950095E0,-6.184950352E0,1.432950020E0,6.452794545E0
3.282892553E0,9.619500637E-1,-6.223950386E0,1.240950108E0,6.418945669E0
3.284856559E0,6.940500140E-1,-6.184950352E0,9.349500537E-1,6.293603727E0
3.286819837E0,5.790000558E-1,-6.031950474E0,6.280500293E-1,6.092135457E0
3.288783328E0,4.639500082E-1,-5.917050362E0,4.360500276E-1,5.951207795E0
3.290748307E0,3.490500152E-1,-5.610000134E0,3.220500052E-1,5.630066928E0
3.292712856E0,1.570500135E-1,-5.188950062E0,2.070000172E-1,5.195451516E0
3.294675861E0,-3.299999982E-2,-4.614000320E0,3.220500052E-1,4.625343681E0
3.296639319E0,-2.250000089E-1,-4.000950336E0,4.360500276E-1,4.030926472E0
3.298603231E0,-3.019500077E-1,-3.426000118E0,6.660000086E-1,3.503170939E0
3.300567010E0,-3.780000210E-1,-2.851050138E0,9.730500579E-1,3.036148436E0
3.302531242E0,-3.400500119E-1,-2.391000032E0,1.087950110E0,2.648801731E0
3.304495331E0,-2.629500031E-1,-2.046000004E0,1.165050030E0,2.369092715E0
3.306459496E0,4.050000105E-3,-1.663050056E0,1.279950023E0,2.098576649E0
3.308423639E0,1.189500093E-1,-1.471050024E0,1.279950023E0,1.953563241E0
3.310387795E0,2.340000123E-1,-1.279050112E0,1.165050030E0,1.745871349E0
3.312351947E0,4.260000288E-1,-1.087950110E0,1.011000037E0,1.545067164E0
