"Time (s)","Acceleration x (m/s^2)","Acceleration y (m/s^2)","Acceleration z (m/s^2)","Absolute acceleration (m/s^2)"
3.369434400E-2,-1.781700134E1,-1.898700142E1,4.153950214E0,2.636677952E1
3.565659100E-2,-1.931205177E1,-1.963800049E1,3.733050108E0,2.779464103E1
3.762142000E-2,-2.023200035E1,-2.013600159E1,3.426000118E0,2.874943260E1
3.958487200E-2,-2.046195030E1,-2.044305038E1,2.965950251E0,2.907587626E1
4.154872800E-2,-2.038500023E1,-2.032800102E1,2.314950228E0,2.888139288E1
4.351329200E-2,-2.023200035E1,-1.986795044E1,4.360500276E-1,2.835946813E1
4.547764900E-2,-1.923600006E1,-1.887195015E1,-2.092050076E0,2.702870464E1
4.744140900E-2,-1.697400093E1,-1.726200104E1,-2.359950066E0,2.432411872E1
4.940534400E-2,-1.467495060E1,-1.538400078E1,-2.092050076E0,2.136348119E1
5.136881400E-2,-1.314105034E1,-1.385100079E1,-1.516950130E0,1.915303016E1
5.333242000E-2,-1.229805088E1,-1.235595036E1,-1.402050018E0,1.748934844E1
5.529615200E-2,-1.210695076E1,-1.105305099E1,-2.322000027E0,1.655716996E1
5.725986100E-2,-1.172295094E1,-1.070805073E1,-3.664050102E0,1.629463691E1
5.922355200E-2,-1.130205059E1,-1.086105061E1,-4.315050125E0,1.625787272E1
6.118724800E-2,-1.068795013E1,-1.143600082E1,-4.966950417E0,1.642208846E1
6.315089400E-2,-9.807000160E0,-1.254795074E1,-5.733000278E0,1.692618127E1
6.511455500E-2,-8.772000313E0,-1.342905045E1,-5.542050362E0,1.697061306E1
6.707811300E-2,-8.044050217E0,-1.373595047E1,-4.315050125E0,1.649250547E1
6.904170400E-2,-7.507050514E0,-1.377405071E1,-2.514000177E0,1.588711671E1
7.100469300E-2,-6.817050457E0,-1.396605110E1,-3.670500219E-1,1.554533647E1
7.296785800E-2,-6.127950191E0,-1.423395061E1,1.740000129E0,1.559438117E1
7.493141400E-2,-5.361000061E0,-1.454100037E1,3.310950041E0,1.584750465E1
7.689485600E-2,-4.441050053E0,-1.488600063E1,4.690950394E0,1.622716722E1
7.885860100E-2,-3.291000128E0,-1.553700066E1,6.301050186E0,1.708602659E1
8.082225000E-2,-1.681950092E0,-1.634205055E1,7.909950256E0,1.823345511E1
8.278689600E-2,-2.250000089E-1,-1.691700172E1,9.787950516E0,1.954583198E1
8.475125000E-2,1.192050099E0,-1.756905174E1,1.174305058E1,2.116581677E1
8.671519000E-2,2.649000168E0,-1.814295006E1,1.323795033E1,2.261475553E1
8.867925200E-2,4.105050087E0,-1.871805000E1,1.415805054E1,2.382576813E1
9.064285400E-2,5.523000240E0,-1.925505066E1,1.503900051E1,2.504859365E1
9.260657800E-2,6.903000355E0,-1.990695000E1,1.599705029E1,2.645455896E1
9.457049000E-2,7.516050339E0,-2.032800102E1,1.549905109E1,2.664468471E1
9.653434600E-2,7.438950539E0,-2.036595154E1,1.507800102E1,2.640939382E1
9.849819100E-2,6.940950394E0,-2.021295166E1,1.542300034E1,2.635543865E1
1.004620400E-1,6.787950516E0,-2.044305038E1,1.530795097E1,2.642589533E1
1.024258640E-1,7.363050461E0,-2.117100143E1,1.496295071E1,2.695024504E1
1.043896790E-1,8.091000557E0,-2.201505089E1,1.492395115E1,2.780019916E1
1.063533960E-1,8.781000137E0,-2.281905174E1,1.542300034E1,2.890819996E1
1.083171410E-1,9.586050034E0,-2.389305115E1,1.634205055E1,3.049316095E1
1.102810030E-1,1.019895077E1,-2.481195068E1,1.737705040E1,3.196268722E1
1.122448310E-1,1.019895077E1,-2.523405075E1,1.845000076E1,3.288127799E1
1.142085060E-1,1.027605057E1,-2.577105141E1,1.856505013E1,3.338271097E1
1.161722230E-1,1.016100025E1,-2.615400124E1,1.722405052E1,3.292332947E1
1.181359110E-1,9.853950500E0,-2.623095131E1,1.469400024E1,3.163979757E1
1.200996070E-1,1.000695038E1,-2.623095131E1,1.162800026E1,3.038769903E1
1.220630730E-1,1.050600052E1,-2.653695107E1,8.907000542E0,2.989850293E1
1.240266070E-1,1.127205086E1,-2.749500084E1,7.411950588E0,3.062631570E1
1.259901590E-1,1.200000095E1,-2.841495132E1,6.952050209E0,3.161867302E1
1.279536960E-1,1.261395073E1,-2.879895210E1,6.568950176E0,3.211919211E1
1.299172800E-1,1.303500080E1,-2.895195198E1,5.802000046E0,3.227677143E1
1.318808500E-1,1.353405094E1,-2.895195198E1,4.843950272E0,3.232413823E1
1.338443390E-1,1.395495033E1,-2.860695076E1,3.771000147E0,3.205181294E1
1.358078520E-1,1.410795021E1,-2.791695213E1,2.928000212E0,3.141597779E1
1.377714250E-1,1.422300053E1,-2.695905113E1,2.430000067E0,3.057759118E1
1.397349900E-1,1.445295048E1,-2.584695053E1,1.548000097E0,2.965381820E1
1.416996050E-1,1.387905025E1,-2.462100029E1,2.070000172E-1,2.826419184E1
1.436639130E-1,1.288200092E1,-2.335605049E1,-1.096050024E0,2.669554959E1
1.456275010E-1,1.226895046E1,-2.212995148E1,-2.782050133E0,2.545587753E1
1.475913000E-1,1.157895088E1,-2.105595016E1,-5.119950294E0,2.456906657E1
1.495551220E-1,1.100400066E1,-2.009805107E1,-8.301000595E0,2.437060316E1
1.515189270E-1,1.027605057E1,-1.929300117E1,-1.175100040E1,2.481739551E1
1.534824660E-1,9.508950233E0,-1.883295059E1,-1.462500095E1,2.567081642E1
1.554460830E-1,8.167950630E0,-1.825800133E1,-1.776795006E1,2.675387970E1
1.574096080E-1,6.787950516E0,-1.802805138E1,-1.999095154E1,2.776193531E1
1.593731600E-1,5.370000362E0,-1.818195152E1,-2.079600143E1,2.814061017E1
1.613366850E-1,3.952050209E0,-1.845000076E1,-2.098800087E1,2.822264002E1
1.633001940E-1,2.533950090E0,-1.860300064E1,-2.075805092E1,2.798909098E1
1.652626560E-1,1.114950061E0,-1.871805000E1,-2.002905083E1,2.743667958E1
1.672254250E-1,-1.480500102E-1,-1.879500008E1,-1.922504997E1,2.688636259E1
1.691890940E-1,-1.336950064E0,-1.864200020E1,-1.807500076E1,2.600033191E1
1.711525000E-1,-3.100050211E0,-1.825800133E1,-1.696305084E1,2.511394070E1
1.731160420E-1,-5.053950310E0,-1.768395042E1,-1.638795090E1,2.463390856E1
1.750795580E-1,-6.702000141E0,-1.722405052E1,-1.527705097E1,2.397859480E1
1.770431460E-1,-8.619000435E0,-1.672500038E1,-1.458705044E1,2.380745360E1
1.790067120E-1,-9.807000160E0,-1.634205055E1,-1.370505047E1,2.347484349E1
1.809700660E-1,-1.042005062E1,-1.611194992E1,-1.259400082E1,2.295171544E1
1.829334830E-1,-1.072695065E1,-1.584405041E1,-1.144395065E1,2.229496378E1
1.848966220E-1,-1.084200096E1,-1.580505085E1,-1.159695053E1,2.240173830E1
1.868598530E-1,-1.065000057E1,-1.580505085E1,-1.224900055E1,2.265524573E1
1.888236240E-1,-1.053495026E1,-1.584405041E1,-1.255605030E1,2.279634860E1
1.907872360E-1,-1.111005020E1,-1.595895100E1,-1.270905018E1,2.323018056E1
1.927506280E-1,-1.107195091E1,-1.611194992E1,-1.293900108E1,2.344356578E1
1.947140840E-1,-1.049700069E1,-1.611194992E1,-1.347495079E1,2.348097640E1
1.966774360E-1,-9.577050209E0,-1.615005112E1,-1.397400093E1,2.340548534E1
1.986408010E-1,-8.464950562E0,-1.615005112E1,-1.381995106E1,2.287947959E1
2.006045930E-1,-7.239000320E0,-1.611194992E1,-1.366695023E1,2.233346333E1
2.025682600E-1,-5.859000206E0,-1.599705029E1,-1.351395035E1,2.174535250E1
2.045319130E-1,-3.828000069E0,-1.611194992E1,-1.328400040E1,2.123000663E1
2.064955700E-1,-1.452000022E0,-1.638000107E1,-1.286205101E1,2.087690339E1
2.084600180E-1,6.940500140E-1,-1.668704987E1,-1.244100094E1,2.082589357E1
2.104242450E-1,2.610000134E0,-1.676399994E1,-1.213395023E1,2.085848851E1
2.123878020E-1,4.372950077E0,-1.676399994E1,-1.178895092E1,2.095551837E1
2.143515550E-1,5.830050468E0,-1.660995102E1,-1.148205090E1,2.101707530E1
2.163151020E-1,6.979950428E0,-1.626495171E1,-1.102200031E1,2.085072787E1
2.182787090E-1,8.014050484E0,-1.588200092E1,-1.075395012E1,2.078726537E1
2.202422170E-1,8.896050453E0,-1.526895046E1,-1.048605061E1,2.054842620E1
2.222057670E-1,9.471000671E0,-1.450200081E1,-1.025595093E1,2.012939171E1
2.241694820E-1,1.004595089E1,-1.362105083E1,-1.029405022E1,1.980963465E1
2.261331490E-1,1.054395008E1,-1.266300106E1,-1.040895081E1,1.949032416E1
2.280968460E-1,1.119600010E1,-1.185795021E1,-1.052400017E1,1.940917260E1
2.300605340E-1,1.184700012E1,-1.116795063E1,-1.056300068E1,1.940751186E1
2.320241830E-1,1.226895046E1,-1.032495022E1,-1.052400017E1,1.918036293E1
2.339878440E-1,1.272900105E1,-9.595950127E0,-1.071600056E1,1.920787324E1
2.359514060E-1,1.311195087E1,-8.868000031E0,-1.040895081E1,1.894494490E1
2.379149970E-1,1.345695019E1,-8.217000008E0,-9.718950272E0,1.852205690E1
2.398784810E-1,1.376400089E1,-7.680000305E0,-8.875950813E0,1.808901955E1
2.418419970E-1,1.429995060E1,-7.258050442E0,-7.765050411E0,1.781751642E1
2.438055880E-1,1.460700035E1,-6.798000336E0,-6.652950287E0,1.743097861E1
2.457691540E-1,1.479795074E1,-6.607050419E0,-5.197050095E0,1.701886574E1
2.477324640E-1,1.487505054E1,-6.300000191E0,-4.276950359E0,1.671075808E1
2.496958490E-1,1.476000023E1,-5.955000401E0,-3.433950186E0,1.628224955E1
2.516592330E-1,1.453005028E1,-5.649000168E0,-2.667000055E0,1.581601888E1
2.536226180E-1,1.422300053E1,-5.304000378E0,-1.824000120E0,1.528898755E1
2.555863570E-1,1.376400089E1,-4.882050037E0,-6.739500165E-1,1.461972441E1
2.575499950E-1,1.330395031E1,-4.537050247E0,2.449500114E-1,1.405844655E1
2.595127970E-1,1.295895100E1,-4.153950214E0,9.730500579E-1,1.364318657E1
2.614758440E-1,1.238400078E1,-3.771000147E0,1.663050056E0,1.305180650E1
2.634394660E-1,1.192395020E1,-3.349050045E0,2.353049994E0,1.260688577E1
2.654029190E-1,1.146405029E1,-2.889000177E0,2.545050144E0,1.209330606E1
2.673666470E-1,1.081200027E1,-2.467050076E0,2.698050022E0,1.141337636E1
2.693302980E-1,1.050600052E1,-2.008050203E0,2.736000061E0,1.104056198E1
2.712938180E-1,1.046700096E1,-1.548000097E0,2.620950222E0,1.090063271E1
2.732573770E-1,1.046700096E1,-1.164000034E0,2.928000212E0,1.093097390E1
2.752207310E-1,1.077405071E1,-8.190000653E-1,2.812950134E0,1.116528631E1
2.771841460E-1,1.069695091E1,-4.740000367E-1,2.583000183E0,1.101459599E1
2.791467910E-1,1.065900040E1,-1.290000081E-1,1.624950051E0,1.078292136E1
2.811096710E-1,1.046700096E1,1.759500057E-1,7.050000429E-1,1.049219198E1
2.830740420E-1,1.027605057E1,5.209500194E-1,-6.105000153E-2,1.028942813E1
2.850379760E-1,9.777000427E0,9.430500269E-1,-2.520000041E-1,9.825608618E0
2.870005470E-1,9.049050331E0,1.518000126E0,1.500000060E-2,9.175503326E0
2.889635170E-1,8.512949944E0,2.016000032E0,5.509500504E-1,8.765735499E0
2.909277330E-1,8.896050453E0,2.092950106E0,1.300500035E-1,9.139861422E0
2.928915870E-1,9.202950478E0,2.092950106E0,-5.970000029E-1,9.456804251E0
2.948550720E-1,9.241050720E0,2.092950106E0,-9.040500522E-1,9.518128233E0
2.968186660E-1,9.010950089E0,2.169000149E0,-1.326000094E0,9.362695092E0
2.987819690E-1,8.628000259E0,2.131050110E0,-1.632000089E0,9.035883318E0
3.007453580E-1,8.282999992E0,2.092950106E0,-1.861950040E0,8.743877113E0
3.027090720E-1,7.669050217E0,1.900950074E0,-2.053950071E0,8.163740154E0
3.046727120E-1,6.903000355E0,1.633050084E0,-2.130000114E0,7.406427409E0
3.066360990E-1,6.175050259E0,1.134000063E0,-2.284050226E0,6.680874739E0
3.085995600E-1,5.331000328E0,4.440000355E-1,-2.359950066E0,5.846885055E0
3.105639670E-1,4.450050354E0,-2.059500068E-1,-2.475000143E0,5.096173983E0
3.125280960E-1,3.607050180E0,-8.190000653E-1,-2.704950094E0,4.582393166E0
3.144915200E-1,2.992950201E0,-1.624050021E0,-3.049950123E0,4.571376721E0
3.164551610E-1,2.572050095E0,-2.351999998E0,-3.357000113E0,4.839090352E0
3.184183220E-1,2.341950178E0,-2.965950251E0,-3.433950186E0,5.106232016E0
3.203816230E-1,2.265000105E0,-3.541050196E0,-3.472050190E0,5.452008298E0
3.223450660E-1,1.996950150E0,-3.924000263E0,-3.433950186E0,5.583690701E0
3.243084670E-1,1.767000079E0,-4.537050247E0,-3.241950035E0,5.849560176E0
3.262720080E-1,1.729050040E0,-5.227050304E0,-2.935050249E0,6.239085581E0
3.282354910E-1,1.459950089E0,-5.955000401E0,-2.629050016E0,6.671235869E0
3.301990390E-1,1.269000053E0,-6.645000458E0,-2.092050076E0,7.081176861E0
3.321625680E-1,1.114950061E0,-7.488000393E0,-1.249050021E0,7.672899679E0
3.341248930E-1,1.230000019E0,-8.599950790E0,-2.910000086E-1,8.692337698E0
3.360875700E-1,1.459950089E0,-9.787950516E0,8.959500194E-1,9.936707503E0
3.380510790E-1,1.882050037E0,-1.113000011E1,2.046000004E0,1.147192795E1
3.400143410E-1,2.304000139E0,-1.258605099E1,2.965950251E0,1.313445686E1
3.419780620E-1,2.494950056E0,-1.400400066E1,3.463950157E0,1.464021042E1
3.439416490E-1,2.878050089E0,-1.542195034E1,4.039050102E0,1.619980402E1
3.459050000E-1,3.376950264E0,-1.691700172E1,4.690950394E0,1.787718535E1
3.478684200E-1,3.607050180E0,-1.802805138E1,5.802000046E0,1.927912477E1
3.498315930E-1,3.913050175E0,-1.891005135E1,7.144050121E0,2.058979008E1
3.517948570E-1,4.105050087E0,-1.967700005E1,8.254950523E0,2.172970260E1
3.537584420E-1,4.297049999E0,-2.040495110E1,8.830050468E0,2.264500959E1
3.557219320E-1,4.258049965E0,-2.109495163E1,9.098999977E0,2.336492616E1
3.576852990E-1,4.105050087E0,-2.163105011E1,8.754000664E0,2.369359181E1
3.596487030E-1,3.874950171E0,-2.209095192E1,7.527000427E0,2.365758084E1
3.616119730E-1,3.913050175E0,-2.278095055E1,6.031950474E0,2.388866041E1
3.635752650E-1,4.182000160E0,-2.381595039E1,4.423050404E0,2.458153765E1
3.655384850E-1,4.450050354E0,-2.500395203E1,2.200050116E0,2.549197493E1
3.675017270E-1,4.027950287E0,-2.603895187E1,4.360500276E-1,2.635225869E1
3.694659910E-1,2.649000168E0,-2.688195038E1,-1.096050024E0,2.703438151E1
3.714299560E-1,1.690050125E0,-2.780205154E1,-3.049950123E0,2.801985966E1
3.733927270E-1,1.114950061E0,-2.895195198E1,-4.392000198E0,2.930440757E1
3.753558620E-1,3.109500110E-1,-2.998695183E1,-5.503050327E0,3.048930194E1
3.773194240E-1,-1.144950032E0,-3.121305084E1,-6.270000458E0,3.185715554E1
3.792828600E-1,-2.946000099E0,-3.236295319E1,-6.117000103E0,3.306746658E1
3.812462370E-1,-5.016000271E0,-3.324495316E1,-5.772000313E0,3.411309362E1
3.832096310E-1,-6.970950127E0,-3.389595032E1,-5.119950294E0,3.498204517E1
3.851730290E-1,-9.117000580E0,-3.412605286E1,-4.660050392E0,3.562896649E1
3.871364150E-1,-1.118700027E1,-3.408795166E1,-4.852050304E0,3.620331222E1
3.890996640E-1,-1.329495049E1,-3.420300293E1,-3.894000292E0,3.690209149E1
3.910629540E-1,-1.517295074E1,-3.404895020E1,-2.820000172E0,3.738317596E1
3.930259940E-1,-1.685895157E1,-3.401100159E1,-2.322000027E0,3.803109466E1
3.949891080E-1,-1.820100021E1,-3.378105164E1,-1.977000117E0,3.842322719E1
3.969516220E-1,-1.915904999E1,-3.358905029E1,-1.134000063E0,3.868564918E1
3.989143230E-1,-1.950405121E1,-3.358905029E1,3.600000143E-1,3.884278457E1
4.008775990E-1,-1.931205177E1,-3.362805176E1,1.663050056E0,3.881451976E1
4.028407060E-1,-1.885200119E1,-3.351300049E1,3.043050051E0,3.857174230E1
4.048039580E-1,-1.827705002E1,-3.351300049E1,4.882050037E0,3.848384300E1
4.067671680E-1,-1.712805176E1,-3.416400146E1,7.450050354E0,3.893651761E1
4.087305640E-1,-1.440600109E1,-3.512295151E1,1.001805019E1,3.926214360E1
4.106939180E-1,-1.252800083E1,-3.608100128E1,1.005705070E1,3.949599634E1
4.126575330E-1,-1.091805077E1,-3.677099991E1,9.022050858E0,3.940441179E1
4.146210720E-1,-8.236050606E0,-3.765195084E1,6.952050209E0,3.916417921E1
4.165844310E-1,-5.476050377E0,-3.853395081E1,3.771000147E0,3.910336219E1
4.185478430E-1,-2.371050119E0,-3.976005173E1,1.585950017E0,3.986224817E1
4.205127990E-1,3.490500152E-1,-4.106295013E1,-3.289500177E-1,4.106575115E1
4.224773020E-1,2.992950201E0,-4.240500259E1,-3.394950151E0,4.264584015E1
4.244403610E-1,4.027950287E0,-4.275000381E1,-7.458000183E0,4.358220940E1
4.264038430E-1,3.415050268E0,-4.186800385E1,-9.220950127E0,4.300718818E1
4.283670300E-1,2.764050245E0,-4.094805145E1,-1.117605019E1,4.253571428E1
4.303303040E-1,1.767000079E0,-3.976005173E1,-1.205700016E1,4.158551738E1
4.322929700E-1,8.089500666E-1,-3.811200333E1,-1.071600056E1,3.959812957E1
4.342557940E-1,1.960500032E-1,-3.677099991E1,-8.608050346E0,3.776563783E1
4.362192740E-1,-1.030050039E0,-3.531405258E1,-6.307950497E0,3.588779113E1
4.381825610E-1,-2.026050091E0,-3.374295044E1,-4.237950325E0,3.406834023E1
4.401458290E-1,-2.755050182E0,-3.198000145E1,-2.859000206E0,3.222552833E1
4.421091020E-1,-3.445050240E0,-2.994795227E1,-1.671000123E0,3.019172830E1
4.440716190E-1,-3.483000278E0,-2.826195145E1,-1.369500011E-1,2.847609429E1
4.460343470E-1,-3.330000162E0,-2.688195038E1,1.356000066E0,2.712133650E1
4.479979780E-1,-3.022950172E0,-2.527200127E1,2.046000004E0,2.553425918E1
4.499613450E-1,-2.140950203E0,-2.377800179E1,2.698050022E0,2.402616304E1
4.519247330E-1,-1.873050094E0,-2.193795013E1,2.506050110E0,2.215992464E1
4.538881150E-1,-2.563050032E0,-1.983000183E1,1.701000094E0,2.006717717E1
4.558515450E-1,-2.908050060E0,-1.802805138E1,1.432950020E0,1.831722515E1
4.578149610E-1,-2.332950115E0,-1.680195045E1,1.203000069E0,1.700574622E1
4.597787010E-1,-1.183050036E0,-1.580505085E1,1.165050030E0,1.589202886E1
4.617423460E-1,1.570500135E-1,-1.500105095E1,1.165050030E0,1.504704409E1
4.637071280E-1,1.039050102E0,-1.427205086E1,1.395000100E0,1.437765927E1
4.656715760E-1,2.074050188E0,-1.346700096E1,1.432950020E0,1.370091766E1
4.676352750E-1,2.686950207E0,-1.277805042E1,1.585950017E0,1.315346006E1
4.695991940E-1,2.686950207E0,-1.204905033E1,2.046000004E0,1.251341006E1
4.715628470E-1,2.878050089E0,-1.155105019E1,2.698050022E0,1.220612169E1
4.735265780E-1,3.184950113E0,-1.124400043E1,3.618000269E0,1.223361676E1
4.754902640E-1,3.147000074E0,-1.086105061E1,4.384050369E0,1.212789872E1
4.774539630E-1,2.878050089E0,-1.024800014E1,4.843950272E0,1.169480797E1
4.794176630E-1,2.725050211E0,-9.634950638E0,4.882050037E0,1.113968514E1
4.813813570E-1,2.649000168E0,-8.983050346E0,4.843950272E0,1.054401487E1
4.833449130E-1,2.494950056E0,-8.332050323E0,4.806000233E0,9.937075858E0
4.853085100E-1,2.304000139E0,-7.642050266E0,4.806000233E0,9.317026733E0
4.872722180E-1,1.920000076E0,-7.066950321E0,5.188950062E0,8.975154031E0
4.892358930E-1,1.690050125E0,-6.415050507E0,5.533950329E0,8.639082629E0
4.911996180E-1,1.575000048E0,-5.764050484E0,5.802000046E0,8.328751867E0
4.931633070E-1,1.575000048E0,-5.074050426E0,5.917050362E0,7.952238544E0
4.951273150E-1,1.422000051E0,-4.422000408E0,6.109050274E0,7.674416395E0
4.970912300E-1,1.306950092E0,-3.961950302E0,6.415950298E0,7.653076961E0
4.990543890E-1,1.000050068E0,-3.271950245E0,6.760950089E0,7.577348127E0
5.010177700E-1,7.699500322E-1,-2.620950222E0,7.066950321E0,7.576542085E0
5.029808240E-1,4.639500082E-1,-1.893000126E0,7.297050476E0,7.552856727E0
5.049439530E-1,4.639500082E-1,-1.318050027E0,7.680000305E0,7.806081614E0
5.069069760E-1,3.109500110E-1,-5.890500546E-1,7.834050179E0,7.862315949E0
5.088700300E-1,8.100000024E-2,1.759500057E-1,7.909950256E0,7.912321560E0
5.108334700E-1,-3.400500119E-1,1.288050056E0,8.217000008E0,8.324289524E0
5.127967970E-1,-8.770500422E-1,2.514000177E0,8.791950226E0,9.186283386E0
5.147602470E-1,-1.873050094E0,3.817050219E0,8.754000664E0,9.731943107E0
5.167236530E-1,-2.716050148E0,4.890000343E0,8.677050591E0,1.032377057E1
5.186871690E-1,-3.636000156E0,5.964000225E0,8.524050713E0,1.102040092E1
5.206506530E-1,-4.210950375E0,6.922050476E0,8.332050323E0,1.162195975E1
5.226140670E-1,-4.555950165E0,7.650000572E0,8.293950081E0,1.216835234E1
5.245775020E-1,-4.900950432E0,8.263050079E0,7.987050533E0,1.249360989E1
5.265411960E-1,-5.169000149E0,8.877000809E0,7.680000305E0,1.282583762E1
5.285048110E-1,-5.553000450E0,9.375000000E0,7.450050354E0,1.319960944E1
5.304683830E-1,-5.743950367E0,9.643050194E0,7.105050564E0,1.328394243E1
5.324319670E-1,-6.319050312E0,9.949950218E0,6.837000370E0,1.362631573E1
5.343956320E-1,-6.625950336E0,1.002600002E1,6.376950264E0,1.360475612E1
5.363592730E-1,-7.047000408E0,9.988050461E0,6.376950264E0,1.378719919E1
5.383228200E-1,-7.584000587E0,1.014105034E1,5.994000435E0,1.401021085E1
5.402863770E-1,-8.082000732E0,1.021800041E1,5.686950207E0,1.421505086E1
5.422499560E-1,-8.427000046E0,1.025595093E1,5.611050129E0,1.441120199E1
5.442135290E-1,-8.464950562E0,1.014105034E1,5.457000256E0,1.429248550E1
5.461772420E-1,-8.350950241E0,9.988050461E0,5.188950062E0,1.401516053E1
5.481409130E-1,-8.158950806E0,9.873000145E0,4.653000355E0,1.362699609E1
5.501046080E-1,-7.966950417E0,9.873000145E0,4.308000088E0,1.339803327E1
5.520682660E-1,-7.660950184E0,9.757950783E0,4.192950249E0,1.309536532E1
5.540318290E-1,-7.354050159E0,9.796050072E0,4.000950336E0,1.288612643E1
5.559954200E-1,-6.970950127E0,9.757950783E0,3.924000263E0,1.261782577E1
5.579587690E-1,-6.664050102E0,9.835050583E0,4.231050014E0,1.261108909E1
5.599221890E-1,-6.357000351E0,9.873000145E0,5.074050426E0,1.279193391E1
5.618856050E-1,-6.166050434E0,9.643050194E0,5.878950119E0,1.286742591E1
5.638489960E-1,-6.127950191E0,9.490050316E0,7.029000282E0,1.330487405E1
5.658123800E-1,-6.241950512E0,9.220950127E0,8.025000572E0,1.372546909E1
5.677757660E-1,-6.319050312E0,8.991000175E0,9.060000420E0,1.424261523E1
5.697393290E-1,-6.357000351E0,8.838000298E0,9.442950249E0,1.441148889E1
5.717028400E-1,-6.280950069E0,8.647050858E0,1.009500027E1,1.470138948E1
5.736661400E-1,-6.280950069E0,8.224950790E0,1.063200092E1,1.483710190E1
5.756295160E-1,-6.241950512E0,8.032950401E0,1.044000053E1,1.457682577E1
5.775927210E-1,-6.319050312E0,7.918050289E0,9.979950905E0,1.422059553E1
5.795559770E-1,-5.974050522E0,7.534950256E0,9.481950760E0,1.350452314E1
5.815194280E-1,-6.051000118E0,7.189950466E0,8.524050713E0,1.268737288E1
5.834828220E-1,-5.821050167E0,6.768000126E0,7.987050533E0,1.197845679E1
5.854461850E-1,-5.629050255E0,6.309000492E0,7.219950199E0,1.111833508E1
5.874095400E-1,-5.323050022E0,6.001950264E0,6.339000225E0,1.022453874E1
5.893727940E-1,-5.361000061E0,5.734050274E0,5.188950062E0,9.409827679E0
5.913360780E-1,-5.284050465E0,5.274000168E0,4.690950394E0,8.817101717E0
5.932997940E-1,-5.208000183E0,5.005050182E0,3.463950157E0,8.010789220E0
5.952633840E-1,-5.092950344E0,4.621950150E0,2.812950134E0,7.430562216E0
5.972266370E-1,-5.016000271E0,4.276950359E0,2.506050110E0,7.052152171E0
5.991899620E-1,-4.978050232E0,3.856050253E0,2.085000038E0,6.633048532E0
6.011533560E-1,-5.053950310E0,3.472050190E0,2.085000038E0,6.476478319E0
6.031167300E-1,-5.437950134E0,3.204000235E0,1.432950020E0,6.472268916E0
6.050802520E-1,-5.476050377E0,2.629050016E0,1.318050027E0,6.215809488E0
6.070437300E-1,-5.629050255E0,2.169000149E0,1.510050058E0,6.218602704E0
6.090069050E-1,-5.821050167E0,1.747950077E0,1.356000066E0,6.227253865E0
6.109701790E-1,-5.935950279E0,1.363950014E0,1.356000066E0,6.239759734E0
6.129334480E-1,-5.935950279E0,6.739500165E-1,1.240950108E0,6.101612206E0
6.148967180E-1,-6.013050079E0,1.380000114E-1,8.959500194E-1,6.080998413E0
6.168609770E-1,-6.241950512E0,-9.105000645E-2,5.130000114E-1,6.263657503E0
6.188249470E-1,-6.319050312E0,-3.979500234E-1,6.660000086E-1,6.366499594E0
6.207883930E-1,-6.166050434E0,-9.340500236E-1,1.050000072E0,6.324170108E0
6.227520060E-1,-6.013050079E0,-1.393950105E0,7.429500222E-1,6.217060631E0
6.247162970E-1,-5.821050167E0,-1.624050021E0,2.830500007E-1,6.049981886E0
6.266803890E-1,-5.514000416E0,-2.083950043E0,1.680000126E-1,5.897056246E0
6.286434730E-1,-5.092950344E0,-2.428950071E0,-2.520000041E-1,5.648136477E0
6.306068530E-1,-4.671000004E0,-2.659050226E0,-6.739500165E-1,5.416917737E0
6.325700430E-1,-4.402950287E0,-2.851050138E0,-1.249050021E0,5.392085318E0
6.345332990E-1,-4.249050140E0,-3.042000055E0,-2.245050192E0,5.687569059E0
6.364970200E-1,-4.173000336E0,-3.310950041E0,-3.127050161E0,6.176954321E0
6.384606050E-1,-4.326000214E0,-3.541050196E0,-4.353000164E0,7.085331662E0
6.404240010E-1,-4.441050053E0,-3.808950186E0,-6.040050507E0,8.409116316E0
6.423874530E-1,-4.671000004E0,-4.153950214E0,-7.687950134E0,9.908487306E0
6.443509600E-1,-4.824000359E0,-4.729050159E0,-9.220950127E0,1.143069622E1
6.463144510E-1,-4.633050442E0,-5.572050095E0,-1.075395012E1,1.296766524E1
6.482779980E-1,-4.173000336E0,-6.529950142E0,-1.224900055E1,1.449455743E1
6.502415280E-1,-3.445050240E0,-7.909950256E0,-1.374405098E1,1.622758828E1
6.522047530E-1,-2.601000071E0,-9.213000298E0,-1.450995064E1,1.738341863E1
6.541680680E-1,-1.681950092E0,-1.047795010E1,-1.485495090E1,1.825612118E1
6.561315650E-1,-6.469500065E-1,-1.155105019E1,-1.477905083E1,1.876874125E1
6.580950320E-1,3.490500152E-1,-1.273905087E1,-1.439505100E1,1.922557532E1
6.600591240E-1,1.537050128E0,-1.346700096E1,-1.355205059E1,1.916717802E1
6.620230320E-1,2.188950062E0,-1.411905098E1,-1.286205101E1,1.922424144E1
6.639863280E-1,2.955000162E0,-1.461705112E1,-1.309200096E1,1.984416032E1
6.659498040E-1,3.453000069E0,-1.492395115E1,-1.293900108E1,2.005156544E1
6.679131540E-1,4.027950287E0,-1.503900051E1,-1.286205101E1,2.019475863E1
6.698765540E-1,4.527000427E0,-1.488600063E1,-1.267095089E1,2.006588508E1
6.718399360E-1,4.717950344E0,-1.457895088E1,-1.247895050E1,1.976180837E1
6.738033230E-1,4.603050232E0,-1.404195023E1,-1.213395023E1,1.912059586E1
6.757665270E-1,4.603050232E0,-1.362105083E1,-1.194195080E1,1.869040626E1
6.777297850E-1,4.450050354E0,-1.323795033E1,-1.125195026E1,1.793467763E1
6.796933430E-1,4.527000427E0,-1.277805042E1,-1.094595051E1,1.742372343E1
6.816568320E-1,4.756950378E0,-1.224105072E1,-1.010295010E1,1.656929390E1
6.836202450E-1,5.062950134E0,-1.170405102E1,-9.298050880E0,1.578201586E1
6.855836800E-1,5.140050411E0,-1.101495075E1,-8.185950279E0,1.465465934E1
6.875471900E-1,5.140050411E0,-1.032495022E1,-6.960000515E0,1.347094363E1
6.895106780E-1,4.909950256E0,-9.520050049E0,-5.809950352E0,1.218583143E1
6.914740770E-1,4.527000427E0,-8.638050079E0,-4.123950005E0,1.058851291E1
6.934375120E-1,4.105050087E0,-7.603050232E0,-2.130000114E0,8.899140944E0
6.954001220E-1,3.837000132E0,-6.529950142E0,3.600000143E-1,7.582375543E0
6.973629740E-1,3.568050146E0,-5.494950294E0,2.851050138E0,7.145204509E0
6.993264940E-1,3.223050117E0,-4.231050014E0,5.611050129E0,7.731346573E0
7.012898180E-1,2.878050089E0,-2.965950251E0,8.254950523E0,9.231697642E0
7.032531680E-1,2.610000134E0,-1.701000094E0,1.059300041E1,1.104161038E1
7.052165100E-1,2.304000139E0,-5.509500504E-1,1.231800079E1,1.254372776E1
7.071791820E-1,2.149950027E0,9.900000691E-2,1.316100025E1,1.333581695E1
7.091420500E-1,1.882050037E0,5.590500236E-1,1.297005081E1,1.311780726E1
7.111053420E-1,1.729050040E0,7.129500508E-1,1.182000065E1,1.196705173E1
7.130685100E-1,1.729050040E0,5.209500194E-1,1.024800014E1,1.040588823E1
7.150323330E-1,1.651950121E0,-1.500000060E-2,8.446949959E0,8.606981341E0
7.169959670E-1,1.459950089E0,-7.429500222E-1,6.876000404E0,7.068437632E0
7.189587690E-1,1.345050097E0,-2.008050203E0,5.611050129E0,6.109444241E0
7.209218150E-1,1.192050099E0,-3.463950157E0,4.423050404E0,5.743109698E0
7.228841760E-1,3.870000243E-1,-5.227050304E0,4.078050137E0,6.640957523E0
7.248467380E-1,-5.320500135E-1,-7.182000160E0,4.843950272E0,8.679173794E0
7.268098220E-1,-1.260000110E0,-9.097949982E0,7.258950233E0,1.170694890E1
7.287727780E-1,-2.332950115E0,-1.116795063E1,1.162800026E1,1.629037039E1
7.307357410E-1,-4.134000301E0,-1.350600052E1,1.496295071E1,2.057648907E1
7.326987010E-1,-6.702000141E0,-1.549905109E1,1.592100048E1,2.320809443E1
7.346621580E-1,-9.999000549E0,-1.802805138E1,1.703205109E1,2.674100620E1
7.366254700E-1,-1.252800083E1,-1.963800049E1,1.350600052E1,2.692608249E1
7.385889350E-1,-1.505805111E1,-2.071095085E1,9.022050858E0,2.714932393E1
7.405524030E-1,-1.835400009E1,-2.304900169E1,7.219950199E0,3.033567997E1
7.425154590E-1,-2.172705078E1,-2.623095131E1,5.994000435E0,3.458403654E1
7.444786360E-1,-2.487000084E1,-2.872200203E1,4.000950336E0,3.820311435E1
7.464424160E-1,-2.728395081E1,-3.044700050E1,2.238000154E0,4.094438247E1
7.484060190E-1,-2.877900124E1,-3.144300079E1,9.195000678E-2,4.262512951E1
7.503691490E-1,-2.866395187E1,-3.205605316E1,-1.363950014E0,4.302409837E1
7.523324440E-1,-2.624895096E1,-3.182595062E1,-8.659500480E-1,4.126316068E1
7.542948980E-1,-2.207205200E1,-3.037005234E1,3.600000143E-1,3.754524149E1
7.562575980E-1,-1.758705139E1,-2.772495079E1,1.356000066E0,3.286055400E1
7.582209640E-1,-1.390800095E1,-2.454405022E1,1.816050053E0,2.826908080E1
7.601841340E-1,-1.134000015E1,-2.147805023E1,2.583000183E0,2.442486715E1
7.621475150E-1,-9.346950531E0,-1.879500008E1,2.773950100E0,2.117338686E1
7.641108310E-1,-7.699050426E0,-1.676399994E1,2.545050144E0,1.862214681E1
7.660742720E-1,-6.357000351E0,-1.526895046E1,1.816050053E0,1.663882025E1
7.680376770E-1,-5.437950134E0,-1.404195023E1,7.050000429E-1,1.507463740E1
7.700017790E-1,-4.708950043E0,-1.304595089E1,-5.209500194E-1,1.387956894E1
7.719656770E-1,-4.134000301E0,-1.227900028E1,-1.249050021E0,1.301629488E1
7.739288860E-1,-3.751050234E0,-1.151295090E1,-1.747050047E0,1.223399363E1
7.758923280E-1,-3.483000278E0,-1.082295036E1,-1.747050047E0,1.150303131E1
7.778559270E-1,-3.061050177E0,-1.036305046E1,-1.824000120E0,1.095855006E1
7.798194800E-1,-2.563050032E0,-9.940950394E0,-1.441050053E0,1.036669405E1
7.817833760E-1,-2.103000164E0,-9.826050758E0,-1.171950102E0,1.011668672E1
7.837471720E-1,-1.681950092E0,-9.787950516E0,-1.134000063E0,9.995943555E0
7.857106330E-1,-1.413000107E0,-9.826050758E0,-5.590500236E-1,9.942855713E0
7.876742170E-1,-1.222050071E0,-9.865050316E0,2.830500007E-1,9.944482964E0
7.896370270E-1,-1.222050071E0,-9.903000832E0,1.471050024E0,1.008597145E1
7.916000630E-1,-1.452000022E0,-9.903000832E0,2.773950100E0,1.038617007E1
7.935635070E-1,-1.681950092E0,-9.979950905E0,4.461000443E0,1.106023965E1
7.955268310E-1,-1.720050097E0,-1.017105007E1,6.186000347E0,1.202811008E1
7.974903520E-1,-1.528050065E0,-1.047795010E1,7.564950466E0,1.301348726E1
7.994538220E-1,-1.375050068E0,-1.070805073E1,8.025000572E0,1.345190497E1
8.014172380E-1,-1.068000078E0,-1.097595024E1,7.795050144E0,1.350462567E1
8.033806700E-1,-7.230000496E-1,-1.128300095E1,7.297050476E0,1.345644028E1
8.053440460E-1,-6.469500065E-1,-1.151295090E1,6.952050209E0,1.346467916E1
8.073074390E-1,-4.930500090E-1,-1.151295090E1,6.607050419E0,1.328323198E1
8.092708260E-1,-7.230000496E-1,-1.155105019E1,6.454050541E0,1.325157567E1
8.112342120E-1,-9.150000215E-1,-1.162800026E1,6.301050186E0,1.325710559E1
8.131977300E-1,-8.380500674E-1,-1.166595078E1,6.223950386E0,1.324893557E1
8.151612100E-1,-9.529500604E-1,-1.178100014E1,6.147000313E0,1.332237557E1
8.171243990E-1,-1.144950032E0,-1.201095104E1,6.070950508E0,1.350667596E1
8.190876740E-1,-1.413000107E0,-1.231800079E1,6.301050186E0,1.390801734E1
8.210511360E-1,-1.336950064E0,-1.270095062E1,6.607050419E0,1.437896719E1
8.230145330E-1,-1.375050068E0,-1.327605057E1,7.144050121E0,1.513874940E1
8.249780510E-1,-1.452000022E0,-1.392705059E1,7.872000217E0,1.606360575E1
8.269415330E-1,-1.720050097E0,-1.446405029E1,8.830050468E0,1.703341171E1
8.289047220E-1,-1.950000048E0,-1.507695103E1,9.979950905E0,1.818560894E1
8.308679970E-1,-1.720050097E0,-1.595895100E1,1.147500038E1,1.973125244E1
8.328315850E-1,-1.336950064E0,-1.703205109E1,1.342995071E1,2.173112459E1
8.347950770E-1,-1.068000078E0,-1.795200157E1,1.595895100E1,2.404377469E1
8.367584890E-1,-1.068000078E0,-1.887195015E1,1.936995125E1,2.706448111E1
8.387219250E-1,-1.222050071E0,-2.021295166E1,2.370105171E1,3.117365351E1
8.406854800E-1,-1.106999993E0,-2.205300140E1,2.404605103E1,3.264617726E1
8.426490000E-1,-1.413000107E0,-2.320305061E1,2.243700027E1,3.230784902E1
8.446125260E-1,-7.230000496E-1,-2.408400154E1,2.136300087E1,3.220154756E1
8.465760300E-1,-7.200000435E-2,-2.500395203E1,2.101800156E1,3.266434127E1
8.485401590E-1,6.940500140E-1,-2.588595200E1,2.059695053E1,3.308774074E1
8.505041050E-1,1.804950118E0,-2.680500221E1,2.044305038E1,3.375921056E1
8.524675300E-1,3.070050240E0,-2.734200096E1,2.009895134E1,3.407312827E1
8.544311070E-1,4.335000038E0,-2.764905167E1,1.921695137E1,3.394927839E1
8.563948590E-1,5.140050411E0,-2.761005211E1,1.772205162E1,3.320852615E1
8.583585620E-1,5.560950279E0,-2.761005211E1,1.534605026E1,3.207398329E1
8.603220730E-1,6.213000298E0,-2.772495079E1,1.285500050E1,3.118533801E1
8.622856410E-1,7.248000145E0,-2.803200150E1,1.059300041E1,3.083080070E1
8.642489940E-1,7.899000168E0,-2.818500137E1,7.909950256E0,3.032088091E1
8.662124100E-1,8.896050453E0,-2.849205208E1,3.541050196E0,3.005787387E1
8.681766900E-1,1.016100025E1,-2.864505196E1,-3.012000084E0,3.054270899E1
8.701407160E-1,1.142595100E1,-2.891400146E1,-1.113705063E1,3.302432034E1
8.721039920E-1,1.341900063E1,-2.895195198E1,-2.282700157E1,3.923464161E1
8.740674870E-1,1.476000023E1,-2.845395088E1,-3.309900284E1,4.607633792E1
8.760309870E-1,1.476000023E1,-2.768700218E1,-3.919305038E1,5.020480948E1
8.779944850E-1,1.372500038E1,-2.707395172E1,-3.654900360E1,4.751004274E1
8.799578560E-1,1.222995090E1,-2.607705116E1,-3.451695251E1,4.495558149E1
8.819212610E-1,1.085100079E1,-2.500395203E1,-3.156600189E1,4.170556690E1
8.838845070E-1,9.355950356E0,-2.385405159E1,-2.685195160E1,3.711572294E1
8.858477990E-1,7.285950184E0,-2.293395042E1,-2.255895042E1,3.298419919E1
8.878111530E-1,5.983050346E0,-2.239800072E1,-1.876500130E1,2.982603898E1
8.897744890E-1,5.293050289E0,-2.186100197E1,-1.585200119E1,2.751737143E1
8.917377290E-1,4.756950378E0,-2.132505035E1,-1.309200096E1,2.547129441E1
8.937010110E-1,4.335000038E0,-2.086500168E1,-1.060095024E1,2.380169461E1
8.956640530E-1,3.070050240E0,-2.029005051E1,-9.259050369E0,2.251313776E1
8.976271650E-1,7.320000529E-1,-1.956195068E1,-8.148000717E0,2.120367077E1
8.995900550E-1,-9.919500351E-1,-1.867995071E1,-6.805950165E0,1.990591573E1
9.015530110E-1,-2.140950203E0,-1.756905174E1,-5.617950439E0,1.856923838E1
9.035167980E-1,-2.793000221E0,-1.668704987E1,-4.468050003E0,1.749919868E1
9.054803310E-1,-3.175950050E0,-1.603499985E1,-3.970050097E0,1.682168769E1
9.074437360E-1,-3.751050234E0,-1.549905109E1,-4.392000198E0,1.654027292E1
9.094071790E-1,-4.057950020E0,-1.546095085E1,-5.082000256E0,1.677303450E1
9.113705080E-1,-4.824000359E0,-1.523100090E1,-5.464950085E0,1.688549814E1
9.133338710E-1,-5.245950222E0,-1.484700108E1,-5.464950085E0,1.666790671E1
9.152973180E-1,-5.208000183E0,-1.457895088E1,-6.040050507E0,1.661780024E1
9.172607300E-1,-5.361000061E0,-1.419600105E1,-6.691050529E0,1.658423724E1
9.192241110E-1,-5.208000183E0,-1.388895035E1,-7.150950432E0,1.646700640E1
9.211875010E-1,-4.939050198E0,-1.362105083E1,-8.110050201E0,1.660422106E1
9.231508400E-1,-4.863000393E0,-1.331400108E1,-9.028950691E0,1.680575343E1
9.251141940E-1,-4.518000126E0,-1.304595089E1,-9.949050903E0,1.701742559E1
9.270776260E-1,-4.057950020E0,-1.277805042E1,-1.048605061E1,1.702065769E1
9.290410040E-1,-3.483000278E0,-1.258605099E1,-1.094595051E1,1.703977121E1
9.310042550E-1,-2.755050182E0,-1.243305016E1,-1.152105045E1,1.717281693E1
9.329675440E-1,-1.681950092E0,-1.243305016E1,-1.201905060E1,1.737432789E1
9.349322060E-1,-4.930500090E-1,-1.250895023E1,-1.286205101E1,1.794851778E1
9.368964660E-1,1.230000019E0,-1.277805042E1,-1.385895061E1,1.889079101E1
9.388593050E-1,2.878050089E0,-1.312305069E1,-1.470195103E1,1.991594828E1
9.408225540E-1,4.450050354E0,-1.327605057E1,-1.550700092E1,2.089314587E1
9.427857820E-1,5.830050468E0,-1.342905045E1,-1.596705055E1,2.166276962E1
9.447490160E-1,7.018050194E0,-1.335300064E1,-1.635000038E1,2.224585730E1
9.467122460E-1,8.091000557E0,-1.316100025E1,-1.638795090E1,2.252201484E1
9.486754780E-1,9.049050331E0,-1.285395050E1,-1.627305031E1,2.262568279E1
9.506388730E-1,1.000695038E1,-1.254795074E1,-1.585200119E1,2.255828153E1
9.526022300E-1,1.092705059E1,-1.216395092E1,-1.535295105E1,2.242933888E1
9.545656190E-1,1.188495064E1,-1.174305058E1,-1.454895115E1,2.215453155E1
9.565289990E-1,1.269000053E1,-1.128300095E1,-1.378200054E1,2.186974538E1
9.584922500E-1,1.349505043E1,-1.086105061E1,-1.293900108E1,2.162166865E1
9.604555390E-1,1.433805084E1,-1.047795010E1,-1.209600067E1,2.148674876E1
9.624190890E-1,1.510500050E1,-1.001805019E1,-1.132905006E1,2.137451157E1
9.643825520E-1,1.567995071E1,-9.711000443E0,-1.040895081E1,2.117806981E1
9.663459250E-1,1.625505066E1,-9.366000175E0,-9.451050758E0,2.100645119E1
9.683093240E-1,1.660004997E1,-9.136050224E0,-8.455050468E0,2.074890241E1
9.702727500E-1,1.702095032E1,-8.907000542E0,-7.420050144E0,2.059379888E1
9.722361680E-1,1.732800102E1,-8.677050591E0,-6.193050385E0,2.034464793E1
9.741993560E-1,1.744305038E1,-8.407950401E0,-4.966950417E0,1.999060362E1
9.761625880E-1,1.752000046E1,-8.140049934E0,-4.009050369E0,1.973026391E1
9.781261770E-1,1.759605026E1,-7.909950256E0,-3.204000235E0,1.955642900E1
9.800896620E-1,1.740495110E1,-7.872000217E0,-2.551950216E0,1.927208240E1
9.820530760E-1,1.702095032E1,-7.603050232E0,-1.900950074E0,1.873853606E1
9.840165110E-1,1.679100037E1,-7.335000515E0,-1.171950102E0,1.836064794E1
9.859792920E-1,1.636995125E1,-7.182000160E0,-5.209500194E-1,1.788373057E1
9.879422710E-1,1.567995071E1,-6.952050209E0,4.360500276E-1,1.715756382E1
9.899057690E-1,1.514295101E1,-6.721950531E0,8.959500194E-1,1.659205565E1
9.918691150E-1,1.445295048E1,-6.492000103E0,1.548000097E0,1.591948954E1
9.938328670E-1,1.380195045E1,-6.070050240E0,1.663050056E0,1.516921494E1
9.957965000E-1,1.322700024E1,-5.686950207E0,1.663050056E0,1.449347003E1
9.977598280E-1,1.234500027E1,-5.341950417E0,1.701000094E0,1.355835046E1
9.997232560E-1,1.184700012E1,-4.959000111E0,1.740000129E0,1.296035086E1
1.001686812E0,1.138695049E1,-4.498950005E0,1.663050056E0,1.235592684E1
1.003650331E0,1.104195023E1,-4.116000175E0,1.279950023E0,1.185345495E1
1.005614369E0,1.077405071E1,-3.732000113E0,9.730500579E-1,1.144354928E1
1.007578254E0,1.077405071E1,-3.387000084E0,2.070000172E-1,1.129578626E1
1.009541594E0,1.077405071E1,-3.081000090E0,-6.360000372E-1,1.122395770E1
1.011505097E0,1.035195065E1,-2.620950222E0,-1.287000060E0,1.075586498E1
1.013468956E0,9.700950623E0,-2.083950043E0,-1.747050047E0,1.007489328E1
1.015432710E0,9.126000404E0,-1.585950017E0,-2.398950100E0,9.568389751E0
1.017396438E0,8.551050186E0,-1.203000069E0,-2.782050133E0,9.072346521E0
1.019360174E0,8.053050041E0,-7.810500264E-1,-2.820000172E0,8.568200224E0
1.021322888E0,7.669050217E0,-3.210000098E-1,-2.859000206E0,8.190925125E0
1.023285919E0,7.018050194E0,1.380000114E-1,-2.130000114E0,7.335459973E0
1.025249363E0,6.634950161E0,5.980500579E-1,-1.402050018E0,6.807787582E0
1.027212686E0,6.826050282E0,7.890000343E-1,-1.479000092E0,7.028863690E0
1.029176082E0,6.787950516E0,9.430500269E-1,-2.437050104E0,7.273570565E0
1.031139456E0,6.481050491E0,9.810000658E-1,-3.088950157E0,7.246239692E0
1.033102854E0,6.097950459E0,7.890000343E-1,-3.357000113E0,7.005495743E0
1.035066269E0,5.791050434E0,6.739500165E-1,-3.241950035E0,6.670885532E0
1.037029829E0,4.948050022E0,4.440000355E-1,-3.165000200E0,5.890463591E0
1.038993346E0,3.645000219E0,6.105000153E-2,-2.820000172E0,4.608921205E0
1.040957564E0,2.572050095E0,-3.210000098E-1,-2.322000027E0,3.479966497E0
1.042921577E0,1.651950121E0,-7.429500222E-1,-2.092050076E0,2.767234623E0
1.044884212E0,1.077000022E0,-1.279050112E0,-1.861950040E0,2.502549937E0
1.046847227E0,5.020500422E-1,-1.701000094E0,-1.786050081E0,2.517028101E0
1.048810314E0,1.189500093E-1,-2.122950077E0,-1.861950040E0,2.826291578E0
1.050773379E0,-4.930500090E-1,-2.467050076E0,-2.014950037E0,3.223268223E0
1.052736818E0,-1.030050039E0,-2.736000061E0,-2.322000027E0,3.733414462E0
1.054700148E0,-1.567050099E0,-3.042000055E0,-2.629050016E0,4.315242095E0
1.056663706E0,-2.065050125E0,-3.463950157E0,-2.859000206E0,4.943406203E0
1.058627177E0,-2.140950203E0,-4.039050102E0,-2.820000172E0,5.371219086E0
1.060590593E0,-2.448000193E0,-4.461000443E0,-2.551950216E0,5.692598686E0
1.062554025E0,-2.640000105E0,-4.920000076E0,-2.092050076E0,5.962606378E0
1.064517221E0,-2.716050148E0,-5.419050217E0,-1.479000092E0,6.239429055E0
1.066480487E0,-2.716050148E0,-5.955000401E0,-6.360000372E-1,6.575975534E0
1.068442953E0,-2.410050154E0,-6.568950176E0,3.220500052E-1,7.004510287E0
1.070405680E0,-2.026050091E0,-7.258050442E0,1.318050027E0,7.649930134E0
1.072368996E0,-1.681950092E0,-7.948050499E0,1.855050087E0,8.333167085E0
1.074332139E0,-1.106999993E0,-8.638050079E0,2.736000061E0,9.128365379E0
1.076295881E0,-5.320500135E-1,-9.328050613E0,3.388050079E0,9.938535546E0
1.078259447E0,-2.629500031E-1,-1.005600071E1,3.541050196E0,1.066448918E1
1.080222767E0,1.189500093E-1,-1.082295036E1,3.847950220E0,1.148725923E1
1.082186184E0,1.960500032E-1,-1.147395039E1,3.541050196E0,1.200953827E1
1.084149428E0,3.109500110E-1,-1.220295048E1,3.043050051E0,1.258049458E1
1.086112723E0,3.109500110E-1,-1.308405018E1,2.698050022E0,1.336295375E1
1.088077023E0,5.790000558E-1,-1.419600105E1,2.583000183E0,1.444069170E1
1.090041028E0,9.240000248E-1,-1.534605026E1,3.043050051E0,1.567211499E1
1.092004594E0,1.269000053E0,-1.634205055E1,3.733050108E0,1.681096786E1
1.093968309E0,1.345050097E0,-1.737705040E1,4.269000053E0,1.794423032E1
1.095931457E0,1.306950092E0,-1.825800133E1,4.231050014E0,1.878734987E1
1.097894771E0,1.306950092E0,-1.921695137E1,4.116000175E0,1.969621273E1
1.099858032E0,1.153950095E0,-2.025105095E1,3.541050196E0,2.059067026E1
1.101821309E0,8.089500666E-1,-2.128605080E1,2.353049994E0,2.143098698E1
1.103785617E0,6.169500351E-1,-2.228295135E1,1.318050027E0,2.233042329E1
1.105749620E0,7.320000529E-1,-2.331795120E1,2.070000172E-1,2.333035622E1
1.107712314E0,6.940500140E-1,-2.435295105E1,-1.594050050E0,2.441493244E1
1.109675391E0,4.260000288E-1,-2.554095078E1,-3.280050039E0,2.575423015E1
1.111638692E0,-3.299999982E-2,-2.638395119E1,-4.276950359E0,2.672837955E1
1.113601927E0,-6.469500065E-1,-2.726505089E1,-5.043000221E0,2.773505716E1
1.115565288E0,-1.480500102E-1,-2.860695076E1,-4.200000286E0,2.891400271E1
1.117528615E0,-7.620000243E-1,-3.048495102E1,-3.894000292E0,3.074209038E1
1.119491875E0,-1.987950087E0,-3.201795197E1,-3.702000141E0,3.229250685E1
1.121455155E0,-3.214950085E0,-3.324495316E1,-4.123950005E0,3.365367406E1
1.123418556E0,-4.633050442E0,-3.439395142E1,-4.353000164E0,3.497653014E1
1.125381922E0,-5.743950367E0,-3.558300018E1,-3.433950186E0,3.620683474E1
1.127344960E0,-5.974050522E0,-3.677099991E1,-1.824000120E0,3.729775718E1
1.129308087E0,-6.166050434E0,-3.749895096E1,1.680000126E-1,3.800289101E1
1.131270570E0,-6.586950302E0,-3.792000198E1,1.930950046E0,3.853625608E1
1.133233241E0,-6.931950092E0,-3.830400085E1,3.541050196E0,3.908692173E1
1.135196747E0,-7.354050159E0,-3.849495316E1,4.537950039E0,3.945296520E1
1.137160008E0,-7.621950150E0,-3.857205200E1,5.380950451E0,3.968440434E1
1.139123609E0,-7.123950481E0,-3.926205063E1,7.909950256E0,4.067956002E1
1.141087100E0,-4.671000004E0,-4.033500290E1,1.051695061E1,4.194445077E1
1.143050647E0,-2.332950115E0,-4.179195023E1,9.405000687E0,4.290062701E1
1.145014177E0,-9.529500604E-1,-4.275000381E1,6.568950176E0,4.326224736E1
1.146979204E0,1.960500032E-1,-4.378500366E1,2.659050226E0,4.386610912E1
1.148943793E0,5.790000558E-1,-4.474305344E1,-1.441050053E0,4.476999773E1
1.150907306E0,1.153950095E0,-4.577805328E1,-6.232050419E0,4.621471860E1
1.152871121E0,1.843950033E0,-4.662105179E1,-1.037100029E1,4.779623697E1
1.154834432E0,2.380050182E0,-4.704195404E1,-1.178895092E1,4.855501460E1
1.156797891E0,2.533950090E0,-4.700400162E1,-1.129095078E1,4.840746472E1
1.158761263E0,2.610000134E0,-4.627605057E1,-1.140600014E1,4.773239776E1
1.160724660E0,2.610000134E0,-4.497300339E1,-1.102200031E1,4.637744738E1
1.162687682E0,2.533950090E0,-4.359300232E1,-1.025595093E1,4.485482453E1
1.164650814E0,2.227050066E0,-4.171500015E1,-8.875950813E0,4.270694900E1
1.166614286E0,1.843950033E0,-3.987495041E1,-7.726050377E0,4.065837769E1
1.168577658E0,6.169500351E-1,-3.753705215E1,-7.036050320E0,3.819577092E1
1.170540640E0,-2.103000164E0,-3.466305161E1,-6.460950375E0,3.532270709E1
1.172503737E0,-4.057950020E0,-3.228600311E1,-4.621950150E0,3.286663017E1
1.174466182E0,-3.904950142E0,-3.052305222E1,-1.287000060E0,3.079872922E1
1.176428785E0,-3.520950079E0,-2.906700134E1,7.050000429E-1,2.928796138E1
1.178392618E0,-3.330000162E0,-2.784000206E1,7.050000429E-1,2.804731076E1
1.180356090E0,-3.061050177E0,-2.653695107E1,1.432950020E0,2.675132045E1
1.182319506E0,-2.793000221E0,-2.508105087E1,1.548000097E0,2.528351770E1
1.184282939E0,-2.640000105E0,-2.331795120E1,1.432950020E0,2.351063152E1
1.186246478E0,-2.218050003E0,-2.182305145E1,1.471050024E0,2.198475173E1
1.188209966E0,-1.528050065E0,-2.052000046E1,1.471050024E0,2.062933213E1
1.190173513E0,-1.106999993E0,-1.921695137E1,1.471050024E0,1.930493867E1
1.192137043E0,-7.999500632E-1,-1.806705093E1,1.548000097E0,1.815088300E1
1.194100404E0,-4.170000255E-1,-1.710900116E1,2.046000004E0,1.723594865E1
1.196063814E0,2.340000123E-1,-1.630395126E1,2.928000212E0,1.656643498E1
1.198028144E0,1.192050099E0,-1.565205097E1,3.502950191E0,1.608348044E1
1.199992201E0,1.882050037E0,-1.519200039E1,4.269000053E0,1.589224181E1
1.201955832E0,2.610000134E0,-1.480905056E1,4.959000111E0,1.583388017E1
1.203919588E0,3.031950235E0,-1.423395061E1,5.304000378E0,1.548968987E1
1.205883403E0,3.492000103E0,-1.365900040E1,5.457000256E0,1.511757945E1
1.207847201E0,3.990000248E0,-1.296900082E1,5.572050095E0,1.466842958E1
1.209810580E0,4.335000038E0,-1.216395092E1,5.419050217E0,1.400428622E1
1.211774069E0,4.411950111E0,-1.132095051E1,5.227050304E0,1.322691495E1
1.213737615E0,4.450050354E0,-1.040100002E1,5.304000378E0,1.249464564E1
1.215701144E0,4.297049999E0,-9.366000175E0,5.341950417E0,1.160702512E1
1.217664640E0,4.105050087E0,-8.485050201E0,5.457000256E0,1.089157312E1
1.219628146E0,3.721950293E0,-7.411950588E0,5.686950207E0,1.005640732E1
1.221591741E0,3.337950230E0,-6.454050541E0,5.956050396E0,9.395276283E0
1.223555273E0,2.917050123E0,-5.725050449E0,6.223950386E0,8.945554342E0
1.225518813E0,2.572050095E0,-5.074050426E0,6.454050541E0,8.603266694E0
1.227482350E0,2.341950178E0,-4.498950005E0,6.721950531E0,8.420801667E0
1.229445710E0,2.227050066E0,-4.000950336E0,6.913950443E0,8.292771932E0
1.231409122E0,2.265000105E0,-3.502050161E0,7.374000549E0,8.471745092E0
1.233372861E0,2.227050066E0,-3.042000055E0,7.680000305E0,8.555461473E0
1.235336504E0,1.882050037E0,-2.620950222E0,7.680000305E0,8.330299940E0
1.237300026E0,1.498950124E0,-2.199000120E0,7.909950256E0,8.345643538E0
1.239263583E0,1.230000019E0,-1.701000094E0,8.179050446E0,8.444120295E0
1.241225361E0,6.940500140E-1,-9.730500579E-1,8.370000839E0,8.454906616E0
1.243187660E0,-1.870500147E-1,2.295000106E-2,8.446949959E0,8.449051900E0
1.245151175E0,-1.183050036E0,1.363950014E0,8.524050713E0,8.713174369E0
1.247114340E0,-2.218050003E0,2.514000177E0,8.944950104E0,9.552595201E0
1.249077763E0,-3.022950172E0,3.741000175E0,9.405000687E0,1.056349128E1
1.251041110E0,-3.675000191E0,4.584000111E0,9.673050880E0,1.131753492E1
1.253004367E0,-4.633050442E0,5.350050449E0,9.750000000E0,1.204785027E1
1.254967650E0,-5.476050377E0,6.079050064E0,9.673050880E0,1.266924981E1
1.256931284E0,-6.396000385E0,6.691950321E0,9.597000122E0,1.333392033E1
1.258894778E0,-7.239000320E0,7.305000305E0,9.405000687E0,1.393629050E1
1.260858460E0,-7.813950539E0,7.687950134E0,9.481950760E0,1.449378455E1
1.262822086E0,-8.464950562E0,8.224950790E0,9.252000809E0,1.499682375E1
1.264785430E0,-9.232050896E0,8.685000420E0,9.098999977E0,1.560294192E1
1.266748857E0,-9.883950233E0,8.953050613E0,8.944950104E0,1.605807335E1
1.268712273E0,-1.026705074E1,8.991000175E0,8.869050026E0,1.627607027E1
1.270675665E0,-1.072695065E1,9.030000687E0,8.677050591E0,1.648937808E1
1.272639049E0,-1.122495079E1,9.067950249E0,8.293950081E0,1.664382318E1
1.274602435E0,-1.134000015E1,9.067950249E0,8.064000130E0,1.660877549E1
1.276566043E0,-1.145505047E1,8.991000175E0,7.642050266E0,1.644558292E1
1.278529586E0,-1.137795067E1,8.838000298E0,7.105050564E0,1.606392711E1
1.280493139E0,-1.111005020E1,8.800050735E0,6.607050419E0,1.563736626E1
1.282456679E0,-1.084200096E1,8.838000298E0,6.109050274E0,1.526367352E1
1.284419857E0,-1.072695065E1,8.914950371E0,5.611050129E0,1.503421743E1
1.286383141E0,-1.057395077E1,8.953050613E0,5.496000290E0,1.490542080E1
1.288346497E0,-1.061205006E1,9.183000565E0,4.959000111E0,1.488404474E1
1.290309831E0,-1.053495026E1,9.336000443E0,4.996950150E0,1.493705433E1
1.292273288E0,-1.045905018E1,9.528000832E0,4.882050037E0,1.496692831E1
1.294236696E0,-1.038195038E1,9.757950783E0,4.653000355E0,1.498842585E1
1.296200212E0,-1.034400082E1,9.873000145E0,4.653000355E0,1.503744982E1
1.298163696E0,-1.018995094E1,9.910950661E0,5.112000465E0,1.510611108E1
1.300126389E0,-1.018995094E1,1.014105034E1,4.921050072E0,1.519515502E1
1.302089314E0,-9.922050476E0,1.010295010E1,5.956050396E0,1.536200581E1
1.304052917E0,-9.883950233E0,1.044795036E1,5.956050396E0,1.556684539E1
1.306016317E0,-9.462000847E0,1.037100029E1,6.684000492E0,1.554872887E1
1.307979744E0,-9.079050064E0,1.018005085E1,7.834050179E0,1.573006445E1
1.309943163E0,-8.580000877E0,9.949950218E0,8.830050468E0,1.582996259E1
1.311906857E0,-7.660950184E0,9.220950127E0,1.028700066E1,1.579678643E1
1.313870471E0,-6.817050457E0,8.761950493E0,1.105305099E1,1.566569148E1
1.315833867E0,-6.357000351E0,8.302050591E0,1.166595078E1,1.566620263E1
1.317797324E0,-5.782950401E0,7.765050411E0,1.228005028E1,1.563771588E1
1.319761010E0,-5.629050255E0,7.497000217E0,1.204995060E1,1.526736809E1
1.321724629E0,-5.208000183E0,7.228050232E0,1.143705082E1,1.449738278E1
1.323688020E0,-4.939050198E0,6.844950199E0,1.105305099E1,1.390746190E1
1.325651478E0,-4.900950432E0,6.807000160E0,1.021005058E1,1.321361795E1
1.327614805E0,-4.479000092E0,6.424050331E0,9.520050049E0,1.232725506E1
1.329578170E0,-4.441050053E0,6.232050419E0,8.293950081E0,1.128498941E1
1.331541602E0,-4.249050140E0,5.772000313E0,7.564950466E0,1.042107913E1
1.333505014E0,-4.057950020E0,5.427000046E0,6.492000103E0,9.384314210E0
1.335468350E0,-4.249050140E0,5.197050095E0,5.188950062E0,8.484630783E0
1.337431708E0,-4.134000301E0,4.929000378E0,4.039050102E0,7.595981105E0
1.339394782E0,-4.096050262E0,4.699050426E0,3.234000206E0,7.022639105E0
1.341357939E0,-3.981000185E0,4.354050159E0,2.773950100E0,6.519272538E0
1.343321137E0,-3.790050268E0,3.856050253E0,1.930950046E0,5.741269256E0
1.345284322E0,-3.675000191E0,3.433950186E0,1.087950110E0,5.145996087E0
1.347248327E0,-3.598050117E0,2.935950041E0,1.300500035E-1,4.645716338E0
1.349212091E0,-3.559950113E0,2.322000027E0,-3.670500219E-1,4.266105326E0
1.351175430E0,-3.483000278E0,1.633050084E0,-1.057050109E0,3.989423323E0
1.353138881E0,-3.520950079E0,9.430500269E-1,-1.555950046E0,3.963257922E0
1.355103335E0,-3.712950230E0,2.530499995E-1,-2.169000149E0,4.307504539E0
1.357067495E0,-3.675000191E0,-4.740000367E-1,-2.896950245E0,4.703469268E0
1.359031063E0,-3.520950079E0,-1.432950020E0,-3.586950064E0,5.226532883E0
1.360994804E0,-3.330000162E0,-2.199000120E0,-4.315050125E0,5.877428025E0
1.362958339E0,-3.175950050E0,-2.812050104E0,-5.119950294E0,6.648922885E0
1.364921944E0,-2.793000221E0,-3.502050161E0,-6.001950264E0,7.489233108E0
1.366885426E0,-2.448000193E0,-4.077000141E0,-7.036050320E0,8.492387132E0
1.368848944E0,-2.140950203E0,-4.537050247E0,-8.455050468E0,9.831397212E0
1.370812351E0,-1.642950058E0,-5.112000465E0,-9.949050903E0,1.130554941E1
1.372775790E0,-1.260000110E0,-5.725050449E0,-1.186605072E1,1.323506564E1
1.374739447E0,-6.850500107E-1,-6.529950142E0,-1.389705086E1,1.537002163E1
1.376703063E0,-1.099500060E-1,-7.488000393E0,-1.596705055E1,1.763601265E1
1.378667354E0,5.410500169E-1,-8.677050591E0,-1.776795006E1,1.978089966E1
1.380631448E0,1.153950095E0,-1.001805019E1,-1.903305054E1,2.153949728E1
1.382594712E0,1.614000082E0,-1.147395039E1,-1.949295044E1,2.267667636E1
1.384558219E0,2.188950062E0,-1.308405018E1,-1.914795113E1,2.329437494E1
1.386521518E0,2.419050217E0,-1.450200081E1,-1.876500130E1,2.383873120E1
1.388484892E0,2.494950056E0,-1.584405041E1,-1.807500076E1,2.416535457E1
1.390448143E0,2.649000168E0,-1.714695168E1,-1.738500023E1,2.456162427E1
1.392411431E0,2.686950207E0,-1.825800133E1,-1.638795090E1,2.468074651E1
1.394374472E0,3.031950235E0,-1.898700142E1,-1.512405109E1,2.446294885E1
1.396337585E0,3.184950113E0,-1.929300117E1,-1.336005020E1,2.368237199E1
1.398300936E0,3.031950235E0,-1.933200073E1,-1.182705021E1,2.286477840E1
1.400264241E0,2.725050211E0,-1.894799995E1,-1.060095024E1,2.188224730E1
1.402227505E0,2.494950056E0,-1.852695084E1,-1.014105034E1,2.126766525E1
1.404190781E0,2.265000105E0,-1.798995018E1,-9.834000587E0,2.062707203E1
1.406154004E0,2.494950056E0,-1.722405052E1,-8.838000298E0,1.951929664E1
1.408117243E0,2.533950090E0,-1.638000107E1,-7.840950489E0,1.833591674E1
1.410080263E0,2.341950178E0,-1.569000053E1,-7.305000305E0,1.746493278E1
1.412043368E0,1.882050037E0,-1.484700108E1,-6.960000515E0,1.650506469E1
1.414006574E0,1.498950124E0,-1.419600105E1,-6.768000126E0,1.579807340E1
1.415969750E0,1.384050012E0,-1.354395103E1,-6.193050385E0,1.495687391E1
1.417932496E0,1.306950092E0,-1.270095062E1,-5.427000046E0,1.387352135E1
1.419895368E0,1.306950092E0,-1.178100014E1,-4.890000343E0,1.282233154E1
1.421858645E0,1.345050097E0,-1.097595024E1,-4.392000198E0,1.189833220E1
1.423821813E0,1.729050040E0,-1.017105007E1,-3.817050219E0,1.100044299E1
1.425785010E0,2.188950062E0,-9.250950813E0,-2.782050133E0,9.905119700E0
1.427748198E0,2.380050182E0,-8.025000572E0,-5.970000029E-1,8.391762750E0
1.429710716E0,2.610000134E0,-6.760050297E0,2.545050144E0,7.680342502E0
1.431673431E0,2.802000046E0,-5.494950294E0,6.568950176E0,9.010926113E0
1.433636909E0,2.649000168E0,-4.269000053E0,1.032495022E1,1.148242833E1
1.435600178E0,2.457000017E0,-3.502050161E0,1.293105030E1,1.362032548E1
1.437563223E0,2.035050154E0,-3.387000084E0,1.385100079E1,1.440359058E1
1.439526334E0,1.114950061E0,-3.847050190E0,1.331505108E1,1.390444152E1
1.441488684E0,-4.170000255E-1,-4.843950272E0,1.201095104E1,1.295764979E1
1.443451257E0,-2.332950115E0,-6.454050541E0,1.059300041E1,1.262177018E1
1.445414414E0,-4.057950020E0,-8.332050323E0,9.903000832E0,1.356316506E1
1.447377404E0,-5.437950134E0,-1.028595066E1,9.712050438E0,1.515572520E1
1.449340541E0,-6.778950214E0,-1.189605045E1,9.634950638E0,1.674223570E1
1.451303635E0,-7.354050159E0,-1.396605110E1,1.001805019E1,1.869475774E1
1.453267069E0,-7.891050339E0,-1.672500038E1,1.078500080E1,2.140818898E1
1.455230404E0,-9.615000725E0,-1.952295113E1,1.151295090E1,2.461994919E1
1.457193614E0,-1.233705044E1,-2.262795067E1,1.162800026E1,2.827432325E1
1.459156863E0,-1.540305042E1,-2.565600204E1,1.086195087E1,3.183498673E1
1.461120405E0,-1.812405014E1,-2.803200150E1,8.754000664E0,3.450951795E1
1.463083861E0,-2.034705162E1,-2.968005180E1,4.843950272E0,3.630939051E1
1.465047459E0,-2.138205147E1,-3.094500160E1,7.810500264E-1,3.762173957E1
1.467011015E0,-2.084505081E1,-3.117495155E1,9.730500579E-1,3.751453817E1
1.468974506E0,-1.846905136E1,-2.994795227E1,2.161050081E0,3.525132396E1
1.470938017E0,-1.490505028E1,-2.711205101E1,3.771000147E0,3.116800083E1
1.472901425E0,-1.164705086E1,-2.339400101E1,4.498950005E0,2.651742122E1
1.474864863E0,-8.772000313E0,-1.979205132E1,4.461000443E0,2.210370579E1
1.476828239E0,-6.472050190E0,-1.653404999E1,3.349050045E0,1.806871271E1
1.478791633E0,-4.057950020E0,-1.362105083E1,8.580000401E-1,1.423854446E1
1.480756046E0,-1.795950055E0,-1.093800068E1,-1.555950046E0,1.119313522E1
1.482720164E0,-1.870500147E-1,-8.332050323E0,-2.896950245E0,8.823285727E0
1.484684685E0,8.089500666E-1,-5.917050362E0,-3.394950151E0,6.869612196E0
1.486649087E0,1.000050068E0,-3.847050190E0,-2.820000172E0,4.873632759E0
1.488612524E0,9.619500637E-1,-2.199000120E0,-2.053950071E0,3.159060042E0
1.490576243E0,5.790000558E-1,-1.048950076E0,-1.363950014E0,1.815460539E0
1.492537732E0,-1.099500060E-1,-5.295000225E-2,-1.249050021E0,1.254997475E0
1.494499868E0,-1.106999993E0,6.739500165E-1,-1.555950046E0,2.025003248E0
1.496463330E0,-2.026050091E0,1.057950020E0,-2.169000149E0,3.150983792E0
1.498426404E0,-2.869950056E0,1.018950105E0,-2.743950129E0,4.099284687E0
1.500389977E0,-3.559950113E0,9.430500269E-1,-3.088950157E0,4.806682976E0
1.502353404E0,-4.018949986E0,6.739500165E-1,-3.241950035E0,5.207341706E0
1.504317543E0,-4.326000214E0,2.910000086E-1,-2.667000055E0,5.090368174E0
1.506281476E0,-4.633050442E0,-5.295000225E-2,-1.747050047E0,4.951781898E0
1.508244362E0,-4.900950432E0,-4.740000367E-1,-4.060500264E-1,4.940533149E0
1.510207555E0,-5.284050465E0,-1.126049995E0,1.165050030E0,5.526890579E0
1.512170971E0,-5.782950401E0,-1.509000063E0,2.353049994E0,6.423117686E0
1.514134322E0,-6.241950512E0,-2.199000120E0,3.694050074E0,7.579152569E0
1.516097204E0,-6.625950336E0,-3.004050255E0,4.996950150E0,8.825930353E0
1.518060233E0,-6.664050102E0,-3.886050224E0,6.684000492E0,1.020719416E1
1.520023813E0,-6.778950214E0,-4.843950272E0,8.599950790E0,1.197402079E1
1.521987231E0,-6.817050457E0,-5.764050484E0,1.044000053E1,1.373645027E1
1.523950611E0,-6.931950092E0,-6.760050297E0,1.197300053E1,1.539814774E1
1.525914002E0,-7.162050247E0,-7.642050266E0,1.273995018E1,1.649249001E1
1.527877367E0,-7.431000233E0,-8.407950401E0,1.304595089E1,1.720785370E1
1.529840753E0,-7.431000233E0,-9.250950813E0,1.304595089E1,1.763509824E1
1.531804362E0,-7.239000320E0,-1.024800014E1,1.254795074E1,1.774473726E1
1.533767905E0,-6.970950127E0,-1.135905075E1,1.159005070E1,1.766214751E1
1.535731218E0,-6.741000175E0,-1.235595036E1,1.040205002E1,1.750180668E1
1.537694599E0,-6.357000351E0,-1.335300064E1,9.289950371E0,1.746474327E1
1.539658170E0,-5.821050167E0,-1.434900093E1,8.562000275E0,1.769424487E1
1.541621712E0,-5.398950100E0,-1.526895046E1,8.332050323E0,1.821297815E1
1.543585385E0,-5.323050022E0,-1.603499985E1,8.485050201E0,1.890640523E1
1.545549019E0,-5.743950367E0,-1.684005165E1,8.638950348E0,1.977907401E1
1.547512542E0,-6.088950157E0,-1.768395042E1,8.869050026E0,2.069921412E1
1.549476098E0,-6.357000351E0,-1.845000076E1,9.098999977E0,2.153150673E1
1.551439499E0,-6.357000351E0,-1.929300117E1,9.558000565E0,2.244964861E1
1.553402945E0,-6.166050434E0,-2.017500114E1,1.021005058E1,2.343706428E1
1.555366498E0,-5.935950279E0,-2.090295029E1,1.113000011E1,2.441404798E1
1.557330019E0,-5.629050255E0,-2.170800018E1,1.235595036E1,2.560455014E1
1.559293696E0,-5.169000149E0,-2.297295189E1,1.312305069E1,2.695717976E1
1.561257327E0,-4.210950375E0,-2.462100029E1,1.442595100E1,2.884499646E1
1.563220901E0,-2.524950027E0,-2.684400177E1,1.618905067E1,3.144934285E1
1.565184488E0,-7.999500632E-1,-2.925795174E1,1.833495140E1,3.453748837E1
1.567149053E0,3.870000243E-1,-3.171105194E1,2.002200127E1,3.750494793E1
1.569113332E0,1.498950124E0,-3.343605042E1,2.190000153E1,3.999782976E1
1.571077105E0,2.649000168E0,-3.450900269E1,2.366295052E1,4.192640809E1
1.573041026E0,3.645000219E0,-3.508395004E1,2.488905144E1,4.316983274E1
1.575004364E0,4.680000305E0,-3.535305023E1,2.538795090E1,4.377543391E1
1.576967873E0,5.944950104E0,-3.531405258E1,2.496600151E1,4.365462144E1
1.578931371E0,7.210050106E0,-3.512295151E1,2.324100113E1,4.272880385E1
1.580894873E0,8.282999992E0,-3.481605148E1,2.059695053E1,4.129164444E1
1.582857516E0,9.547050476E0,-3.454800034E1,1.634205055E1,3.939255153E1
1.584820411E0,1.058205032E1,-3.416400146E1,1.105305099E1,3.743432544E1
1.586784493E0,1.177005100E1,-3.358905029E1,5.151000023E0,3.596235812E1
1.588748207E0,1.315005016E1,-3.278505325E1,-1.861950040E0,3.537301788E1
1.590711716E0,1.460700035E1,-3.171105194E1,-1.094595051E1,3.658919386E1
1.592675286E0,1.479795074E1,-3.037005234E1,-1.976100159E1,3.913842880E1
1.594638459E0,1.433805084E1,-2.902800179E1,-2.892105103E1,4.341234596E1
1.596601748E0,1.376400089E1,-2.795505142E1,-3.685500336E1,4.826203366E1
1.598564963E0,1.280505085E1,-2.707395172E1,-4.107105255E1,5.083108839E1
1.600528204E0,1.261395073E1,-2.649900055E1,-3.789000320E1,4.792662231E1
1.602491433E0,1.234500027E1,-2.592405128E1,-3.386595154E1,4.439997906E1
1.604454666E0,1.157895088E1,-2.508105087E1,-3.076095200E1,4.134449642E1
1.606418075E0,1.058205032E1,-2.431395149E1,-2.689005089E1,3.776536592E1
1.608381433E0,9.700950623E0,-2.354805183E1,-2.255895042E1,3.402242543E1
1.610344938E0,8.781000137E0,-2.289600182E1,-1.849605179E1,3.071541623E1
1.612308414E0,7.899000168E0,-2.243595123E1,-1.558305073E1,2.843585028E1
1.614271424E0,6.940950394E0,-2.205300140E1,-1.278600025E1,2.641956596E1
1.616234570E0,5.485050201E0,-2.132505035E1,-1.044795036E1,2.437218117E1
1.618197860E0,4.027950287E0,-2.074995041E1,-8.646000862E0,2.283720991E1
1.620161107E0,2.955000162E0,-1.994505119E1,-6.844950199E0,2.129296683E1
1.622124514E0,2.035050154E0,-1.887195015E1,-6.232050419E0,1.997824777E1
1.624087875E0,1.345050097E0,-1.810500145E1,-4.890000343E0,1.880192385E1
1.626050904E0,1.077000022E0,-1.718505096E1,-4.162050247E0,1.771464276E1
1.628014031E0,7.320000529E-1,-1.638000107E1,-3.586950064E0,1.678411361E1
1.629976513E0,-5.320500135E-1,-1.580505085E1,-2.590050220E0,1.602470186E1
1.631939184E0,-2.716050148E0,-1.492395115E1,-2.475000143E0,1.536967378E1
1.633902712E0,-4.210950375E0,-1.427205086E1,-2.782050133E0,1.513814195E1
1.635866005E0,-5.016000271E0,-1.381200027E1,-3.127050161E0,1.502364979E1
1.637829226E0,-5.514000416E0,-1.358205032E1,-4.162050247E0,1.523807579E1
1.639792468E0,-5.629050255E0,-1.342905045E1,-5.733000278E0,1.564905412E1
1.641755697E0,-5.245950222E0,-1.346700096E1,-7.342950344E0,1.621107734E1
1.643718930E0,-5.016000271E0,-1.323795033E1,-8.569950104E0,1.654834228E1
1.645682461E0,-4.671000004E0,-1.289295101E1,-9.528000832E0,1.669818034E1
1.647645914E0,-4.096050262E0,-1.285395050E1,-1.044795036E1,1.706345035E1
1.649608973E0,-3.291000128E0,-1.277805042E1,-1.113705063E1,1.726682227E1
1.651572147E0,-2.448000193E0,-1.270095062E1,-1.113705063E1,1.706870670E1
1.653535521E0,-1.758000135E0,-1.243305016E1,-1.109895039E1,1.675881858E1
1.655498837E0,-8.770500422E-1,-1.197300053E1,-1.113705063E1,1.637546503E1
1.657463164E0,3.490500152E-1,-1.193400097E1,-1.098405075E1,1.622318051E1
1.659427206E0,1.920000076E0,-1.208805084E1,-1.083105087E1,1.634377669E1
1.661390795E0,3.645000219E0,-1.224105072E1,-1.098405075E1,1.684573300E1
1.663354516E0,5.215950012E0,-1.235595036E1,-1.136700058E1,1.758079480E1
1.665318204E0,6.673050404E0,-1.250895023E1,-1.186605072E1,1.848801226E1
1.667281901E0,7.783950329E0,-1.258605099E1,-1.190400028E1,1.899220327E1
1.669245458E0,8.704050064E0,-1.250895023E1,-1.190400028E1,1.933751655E1
1.671209056E0,9.394050598E0,-1.212600040E1,-1.159695053E1,1.922959527E1
1.673172539E0,9.853950500E0,-1.178100014E1,-1.132905006E1,1.908506432E1
1.675136056E0,1.023705006E1,-1.132095051E1,-1.106100082E1,1.884958497E1
1.677099282E0,1.069695091E1,-1.082295036E1,-1.056300068E1,1.852398436E1
1.679062594E0,1.115700054E1,-1.040100002E1,-1.006395054E1,1.827409541E1
1.681025756E0,1.177005100E1,-9.865050316E0,-9.451050758E0,1.803262817E1
1.682988969E0,1.249905014E1,-9.595950127E0,-8.646000862E0,1.797392122E1
1.684952201E0,1.338000107E1,-9.250950813E0,-7.956000328E0,1.810807722E1
1.686915428E0,1.410795021E1,-8.715000153E0,-7.420050144E0,1.816707546E1
1.688878480E0,1.456800079E1,-8.407950401E0,-7.036050320E0,1.823256102E1
1.690841584E0,1.518195057E1,-7.987050533E0,-6.805950165E0,1.845550208E1
1.692805011E0,1.587195110E1,-7.717950344E0,-7.075050354E0,1.901425588E1
1.694768346E0,1.652295113E1,-7.564950466E0,-7.381050587E0,1.961418612E1
1.696731605E0,1.729005051E1,-7.335000515E0,-8.224950790E0,2.050360687E1
1.698694887E0,1.755795097E1,-7.297050476E0,-8.530950546E0,2.084000253E1
1.700658109E0,1.763505173E1,-7.219950199E0,-8.377950668E0,2.081616650E1
1.702621348E0,1.798005104E1,-7.335000515E0,-7.879950523E0,2.095657625E1
1.704584738E0,1.794105148E1,-7.297050476E0,-7.458000183E0,2.075451856E1
1.706548097E0,1.771095085E1,-7.219950199E0,-6.615000248E0,2.023767994E1
1.708511486E0,1.744305038E1,-7.066950321E0,-6.232050419E0,1.982524265E1
1.710474866E0,1.713600159E1,-6.874950409E0,-5.542050362E0,1.927749506E1
1.712438072E0,1.686795044E1,-6.721950531E0,-4.966950417E0,1.882506222E1
1.714401329E0,1.633095169E1,-6.492000103E0,-4.621950150E0,1.817163921E1
1.716364889E0,1.594800091E1,-6.339000225E0,-4.660050392E0,1.778307416E1
1.718328346E0,1.541205120E1,-6.070050240E0,-4.123950005E0,1.706996766E1
1.720291584E0,1.479795074E1,-5.649000168E0,-3.664050102E0,1.625779236E1
1.722254887E0,1.422300053E1,-5.304000378E0,-3.894000292E0,1.567129230E1
1.724218105E0,1.372500038E1,-5.035050392E0,-4.200000286E0,1.521076495E1
1.726181348E0,1.303500080E1,-4.575000286E0,-4.429950237E0,1.450745783E1
1.728144730E0,1.246005058E1,-4.116000175E0,-5.005050182E0,1.404438839E1
1.730108058E0,1.150200081E1,-3.655950069E0,-4.621950150E0,1.292379266E1
1.732071138E0,1.085100079E1,-3.349050045E0,-4.582950115E0,1.224597019E1
1.734034291E0,1.016100025E1,-3.118950129E0,-4.582950115E0,1.157485239E1
1.735997129E0,9.241050720E0,-2.736000061E0,-4.315050125E0,1.055946837E1
1.737960060E0,8.359050751E0,-2.428950071E0,-4.315050125E0,9.715615548E0
1.739923031E0,7.401000500E0,-2.083950043E0,-4.009050369E0,8.671224887E0
1.741885986E0,6.442950249E0,-1.548000097E0,-3.241950035E0,7.376866017E0
1.743849399E0,5.715000153E0,-1.011000037E0,-2.245050192E0,6.222828793E0
1.745812678E0,5.331000328E0,-7.810500264E-1,-1.402050018E0,5.567346576E0
1.747776126E0,5.140050411E0,-7.039500475E-1,-2.245050192E0,5.652956241E0
1.749739524E0,5.062950134E0,-7.810500264E-1,-3.012000084E0,5.942697007E0
1.751702917E0,4.680000305E0,-7.039500475E-1,-3.165000200E0,5.693432602E0
1.753666305E0,3.529950142E0,-4.740000367E-1,-2.935050249E0,4.615164570E0
1.755629508E0,2.111999989E0,-2.830500007E-1,-2.743950129E0,3.474179552E0
1.757592766E0,9.240000248E-1,-2.440500110E-1,-2.704950094E0,2.868813599E0
1.759555046E0,-2.250000089E-1,-3.979500234E-1,-2.551950216E0,2.592573843E0
1.761517612E0,-1.106999993E0,-7.039500475E-1,-2.284050226E0,2.633985590E0
1.763481161E0,-1.720050097E0,-1.126049995E0,-2.359950066E0,3.129844283E0
1.765444405E0,-2.218050003E0,-1.432950020E0,-2.475000143E0,3.619215009E0
1.767407454E0,-2.410050154E0,-1.816050053E0,-2.551950216E0,3.952066478E0
1.769370560E0,-2.830950022E0,-2.008050203E0,-2.782050133E0,4.448184639E0
1.771333856E0,-3.175950050E0,-2.199000120E0,-3.049950123E0,4.921834618E0
1.773297097E0,-3.406050205E0,-2.391000032E0,-3.204000235E0,5.252016437E0
1.775260336E0,-3.675000191E0,-2.428950071E0,-3.241950035E0,5.469521449E0
1.777223569E0,-3.943050146E0,-2.620950222E0,-3.088950157E0,5.653197113E0
1.779186619E0,-4.096050262E0,-2.889000177E0,-2.782050133E0,5.732691577E0
1.781149723E0,-4.057950020E0,-3.271950245E0,-2.092050076E0,5.616875492E0
1.783113155E0,-4.134000301E0,-3.732000113E0,-1.479000092E0,5.762397470E0
1.785076491E0,-4.173000336E0,-4.231050014E0,-8.659500480E-1,6.005462972E0
1.787039498E0,-3.981000185E0,-4.920000076E0,-3.670500219E-1,6.339518037E0
1.789002588E0,-3.712950230E0,-5.610000134E0,2.070000172E-1,6.730598035E0
1.790964807E0,-3.291000128E0,-6.492000103E0,6.660000086E-1,7.308919427E0
1.792927281E0,-2.640000105E0,-7.488000393E0,1.203000069E0,8.030377301E0
1.794890460E0,-2.065050125E0,-8.523000717E0,1.432950020E0,8.885905638E0
1.796853433E0,-1.375050068E0,-9.634950638E0,1.471050024E0,9.843120677E0
1.798816668E0,-5.320500135E-1,-1.078500080E1,1.855050087E0,1.095630094E1
1.800779822E0,1.189500093E-1,-1.189605045E1,2.046000004E0,1.207129991E1
1.802743832E0,5.790000558E-1,-1.293105030E1,2.085000038E0,1.311085535E1
1.804707591E0,8.850000501E-1,-1.408095074E1,1.777950048E0,1.422032015E1
1.806670552E0,1.306950092E0,-1.542195034E1,1.740000129E0,1.557473182E1
1.808633747E0,1.843950033E0,-1.695495033E1,2.506050110E0,1.723806195E1
1.810596953E0,2.494950056E0,-1.829700089E1,3.618000269E0,1.881741064E1
1.812560146E0,2.917050123E0,-1.944705009E1,4.345950127E0,2.013912166E1
1.814523203E0,3.492000103E0,-2.063505173E1,4.690950394E0,2.144771410E1
1.816486300E0,3.721950293E0,-2.190000153E1,4.576050282E0,2.268045892E1
1.818449373E0,3.913050175E0,-2.316405106E1,4.000950336E0,2.383050202E1
1.820412454E0,3.798000097E0,-2.454405022E1,2.851050138E0,2.499927384E1
1.822375754E0,3.607050180E0,-2.603895187E1,1.395000100E0,2.632458643E1
1.824338990E0,3.529950142E0,-2.741895103E1,5.509500504E-1,2.765073181E1
1.826302716E0,3.492000103E0,-2.879895210E1,-6.739500165E-1,2.901771727E1
1.828266298E0,3.837000132E0,-2.998695183E1,-8.659500480E-1,3.024383771E1
1.830229650E0,4.219950199E0,-3.125100136E1,-1.134000063E0,3.155501579E1
1.832193069E0,4.717950344E0,-3.286095047E1,-1.210950017E0,3.321998677E1
1.834156457E0,5.485050201E0,-3.470100021E1,-1.708950043E0,3.517336637E1
1.836119848E0,6.213000298E0,-3.696195221E1,-3.012000084E0,3.760132216E1
1.838082871E0,5.638050079E0,-3.887895203E1,-4.237950325E0,3.951355138E1
1.840046002E0,4.795050144E0,-4.029705048E1,-4.545000076E0,4.083505612E1
1.842008934E0,3.376950264E0,-4.110195160E1,-4.392000198E0,4.147365289E1
1.843971925E0,1.651950121E0,-4.156200027E1,-3.357000113E0,4.173006417E1
1.845934315E0,5.790000558E-1,-4.209795380E1,-1.057050109E0,4.211520284E1
1.847896867E0,-9.150000215E-1,-4.225200272E1,2.830500007E-1,4.226285693E1
1.849859492E0,-2.716050148E0,-4.259595108E1,1.279950023E0,4.270164223E1
1.851822096E0,-4.747950077E0,-4.286505127E1,4.576050282E0,4.336929659E1
1.853785750E0,-4.594050407E0,-4.297995377E1,6.684000492E0,4.373851378E1
1.855749096E0,-3.865950108E0,-4.301805115E1,6.109050274E0,4.362131119E1
1.857712288E0,-3.828000069E0,-4.313295364E1,4.729050159E0,4.355994938E1
1.859675540E0,-4.057950020E0,-4.366995239E1,3.426000118E0,4.399169441E1
1.861639352E0,-3.559950113E0,-4.474305344E1,1.318050027E0,4.490380086E1
1.863602999E0,-3.559950113E0,-4.543305206E1,-1.096050024E0,4.558548881E1
1.865566115E0,-2.946000099E0,-4.639095306E1,-4.200000286E0,4.667375542E1
1.867529386E0,-1.681950092E0,-4.708095169E1,-7.381050587E0,4.768568838E1
1.869492765E0,-1.870500147E-1,-4.819200134E1,-9.336000443E0,4.908833757E1
1.871456129E0,1.960500032E-1,-4.907400131E1,-9.336000443E0,4.995454879E1
1.873419562E0,1.960500032E-1,-4.976400375E1,-1.014105034E1,5.078715790E1
1.875382975E0,4.050000105E-3,-4.995495224E1,-1.071600056E1,5.109138810E1
1.877346535E0,-6.850500107E-1,-4.968705368E1,-1.063905048E1,5.081792983E1
1.879310052E0,-2.256000042E0,-4.846095276E1,-9.298050880E0,4.939642931E1
1.881273235E0,-3.865950108E0,-4.719600296E1,-7.266000271E0,4.790827721E1
1.883236516E0,-5.169000149E0,-4.531800079E1,-5.235000134E0,4.591127296E1
1.885199738E0,-6.511050224E0,-4.286505127E1,-3.012000084E0,4.346123031E1
1.887162977E0,-7.507050514E0,-4.006695175E1,-1.326000094E0,4.078571694E1
1.889125260E0,-8.274000168E0,-3.730695343E1,-1.759500057E-1,3.821385628E1
1.891087823E0,-8.809950829E0,-3.462405014E1,8.200500607E-1,3.573671171E1
1.893051412E0,-9.117000580E0,-3.182595062E1,1.624950051E0,3.314590918E1
1.895014687E0,-9.001950264E0,-2.937300110E1,2.353049994E0,3.081144505E1
1.896978045E0,-8.619000435E0,-2.699700165E1,3.004050255E0,2.849823827E1
1.898941379E0,-7.468950272E0,-2.500395203E1,3.771000147E0,2.636670774E1
1.900904953E0,-6.051000118E0,-2.354805183E1,4.308000088E0,2.469178431E1
1.902868456E0,-4.863000393E0,-2.182305145E1,4.308000088E0,2.276956768E1
1.904831787E0,-3.790050268E0,-1.975305176E1,3.963000298E0,2.050007088E1
1.906795193E0,-2.755050182E0,-1.776000023E1,3.924000263E0,1.839580625E1
1.908758439E0,-1.873050094E0,-1.622700119E1,3.924000263E0,1.679945423E1
1.910721732E0,-1.336950064E0,-1.507695103E1,3.963000298E0,1.564631775E1
1.912685446E0,-7.620000243E-1,-1.404195023E1,3.886050224E0,1.458966746E1
1.914649037E0,-2.250000089E-1,-1.319895077E1,4.000950336E0,1.379385841E1
1.916613333E0,3.109500110E-1,-1.231800079E1,4.308000088E0,1.305330220E1
1.918577422E0,9.240000248E-1,-1.162800026E1,4.576050282E0,1.253013975E1
1.920540687E0,1.384050012E0,-1.120605087E1,4.959000111E0,1.233218767E1
1.922504193E0,1.882050037E0,-1.074600029E1,5.572050095E0,1.225015824E1
1.924467692E0,2.533950090E0,-1.051605034E1,5.956050396E0,1.234839075E1
1.926431193E0,3.070050240E0,-1.021005058E1,6.415950298E0,1.244326161E1
1.928394057E0,3.607050180E0,-9.826050758E0,6.837000370E0,1.250226614E1
1.930357111E0,4.143000126E0,-9.250950813E0,7.029000282E0,1.233496599E1
1.932320686E0,4.372950077E0,-8.485050201E0,7.105050564E0,1.189960137E1
1.934284109E0,4.450050354E0,-7.642050266E0,7.603950500E0,1.166293032E1
1.936247489E0,4.527000427E0,-7.143000126E0,8.101950645E0,1.171143834E1
1.938210881E0,4.372950077E0,-6.339000225E0,8.599950790E0,1.154403612E1
1.940174654E0,3.913050175E0,-5.035050392E0,8.485050201E0,1.061413072E1
1.942138326E0,3.108000040E0,-3.463950157E0,8.025000572E0,9.276812444E0
1.944101662E0,2.304000139E0,-2.199000120E0,7.872000217E0,8.491902354E0
1.946065097E0,1.804950118E0,-1.471050024E0,7.564950466E0,7.915194796E0
1.948028293E0,1.767000079E0,-1.240950108E0,8.064000130E0,8.348074301E0
1.949991559E0,1.537050128E0,-7.810500264E-1,8.179050446E0,8.358793479E0
1.951953887E0,1.306950092E0,-1.680000126E-1,7.987050533E0,8.095018145E0
1.953916487E0,8.850000501E-1,4.830000103E-1,7.834050179E0,7.898661678E0
1.955879104E0,5.410500169E-1,1.441050053E0,8.254950523E0,8.397235767E0
1.957841716E0,-1.099500060E-1,2.629050016E0,8.944950104E0,9.323954384E0
1.959805053E0,-9.919500351E-1,4.009050369E0,9.214050293E0,1.009728540E1
1.961768177E0,-2.103000164E0,5.427000046E0,9.520050049E0,1.115823876E1
1.963731416E0,-3.022950172E0,6.577050209E0,9.787950516E0,1.217373371E1
1.965694629E0,-4.057950020E0,7.803000450E0,1.013295078E1,1.341754322E1
1.967657863E0,-4.939050198E0,8.685000420E0,9.903000832E0,1.406744023E1
1.969621090E0,-5.782950401E0,9.565950394E0,9.979950905E0,1.498497055E1
1.971584322E0,-6.817050457E0,1.029495049E1,9.712050438E0,1.570929999E1
1.973547552E0,-7.699050426E0,1.087005043E1,9.634950638E0,1.643975814E1
1.975510793E0,-8.619000435E0,1.129095078E1,9.520050049E0,1.709982722E1
1.977474023E0,-9.270000458E0,1.140600014E1,9.712050438E0,1.761685759E1
1.979437615E0,-1.015200043E1,1.140600014E1,9.750000000E0,1.811691066E1
1.981401100E0,-1.095705032E1,1.136805058E1,9.826950073E0,1.859727059E1
1.983364603E0,-1.149300098E1,1.129095078E1,9.903000832E0,1.891147975E1
1.985328100E0,-1.195305061E1,1.117605019E1,1.013295078E1,1.924723898E1
1.987291655E0,-1.225995064E1,1.098495007E1,1.032495022E1,1.943142081E1
1.989255186E0,-1.225995064E1,1.075500011E1,1.044000053E1,1.936414285E1
1.991218592E0,-1.233705044E1,1.071600056E1,1.040205002E1,1.937106414E1
1.993182034E0,-1.237500095E1,1.079295063E1,1.001805019E1,1.923511793E1
1.995145364E0,-1.245195103E1,1.087005043E1,1.028700066E1,1.946873040E1
1.997108727E0,-1.241295052E1,1.102305031E1,9.903000832E0,1.933024584E1
1.999072140E0,-1.206795025E1,1.094595051E1,1.001805019E1,1.912617540E1
2.001035552E0,-1.187700081E1,1.117605019E1,9.481950760E0,1.886463984E1
2.002998933E0,-1.210695076E1,1.144395065E1,9.214050293E0,1.903788292E1
2.004962323E0,-1.210695076E1,1.155900097E1,8.944950104E0,1.897895920E1
2.006925886E0,-1.214505100E1,1.178895092E1,9.289950371E0,1.930763594E1
2.008889398E0,-1.241295052E1,1.221105099E1,9.367050171E0,1.977201901E1
2.010852906E0,-1.191495037E1,1.198095036E1,1.001805019E1,1.964358785E1
2.012816409E0,-1.153200054E1,1.155900097E1,1.093800068E1,1.965292341E1
2.014779458E0,-1.095705032E1,1.106100082E1,1.204995060E1,1.968766112E1
2.016742640E0,-1.072695065E1,1.060095024E1,1.308495045E1,1.996656065E1
2.018706013E0,-1.038195038E1,1.014105034E1,1.339095020E1,1.974698314E1
2.020669330E0,-9.844950676E0,9.490050316E0,1.427295113E1,1.976616409E1
2.022632583E0,-9.385050774E0,8.991000175E0,1.427295113E1,1.930374047E1
2.024595862E0,-8.887050629E0,8.532000542E0,1.392795086E1,1.859469057E1
2.026559084E0,-8.350950241E0,8.032950401E0,1.350600052E1,1.779546886E1
2.028522323E0,-7.776000500E0,7.573050499E0,1.254795074E1,1.659121290E1
2.030485687E0,-7.431000233E0,7.228050232E0,1.135995007E1,1.537897721E1
2.032449014E0,-7.009050369E0,6.883050442E0,9.865050316E0,1.392201093E1
2.034412384E0,-6.625950336E0,6.424050331E0,9.214050293E0,1.304110284E1
2.036375759E0,-6.549000263E0,6.232050419E0,7.909950256E0,1.201229245E1
2.038338831E0,-6.664050102E0,6.154950142E0,6.415950298E0,1.111113825E1
2.040301992E0,-6.625950336E0,5.772000313E0,5.457000256E0,1.034398653E1
2.042265594E0,-6.625950336E0,5.464950085E0,4.231050014E0,9.574480744E0
2.044229067E0,-6.664050102E0,5.119950294E0,3.273000240E0,9.018646537E0
2.046192592E0,-6.817050457E0,4.699050426E0,2.161050081E0,8.557066629E0
2.048156087E0,-6.931950092E0,4.239000320E0,1.395000100E0,8.244215007E0
2.050120174E0,-7.086000443E0,3.778950214E0,7.050000429E-1,8.061568833E0
2.052084087E0,-7.086000443E0,3.319050074E0,9.195000678E-2,7.825340278E0
2.054047247E0,-7.315950394E0,3.051000118E0,-3.670500219E-1,7.935140679E0
2.056010627E0,-7.239000320E0,2.476050138E0,-4.819500148E-1,7.665913236E0
2.057974206E0,-7.086000443E0,1.824000120E0,-6.739500165E-1,7.347964843E0
2.059937716E0,-6.741000175E0,1.134000063E0,-7.510500550E-1,6.876853619E0
2.061901935E0,-6.511050224E0,3.289500177E-1,-6.739500165E-1,6.554097326E0
2.063865947E0,-6.166050434E0,-3.589500189E-1,-8.659500480E-1,6.236897671E0
2.065828910E0,-5.859000206E0,-9.340500236E-1,-1.018950105E0,6.019849847E0
2.067792180E0,-5.476050377E0,-1.509000063E0,-1.210950017E0,5.807805856E0
2.069755569E0,-5.053950310E0,-1.930950046E0,-1.287000060E0,5.561236460E0
2.071718933E0,-4.824000359E0,-2.351999998E0,-1.479000092E0,5.566895429E0
2.073682142E0,-4.518000126E0,-2.812050104E0,-1.939050078E0,5.663909086E0
2.075645396E0,-4.096050262E0,-3.463950157E0,-2.130000114E0,5.771782994E0
2.077608757E0,-3.675000191E0,-4.039050102E0,-2.782050133E0,6.128568762E0
2.079572087E0,-3.100050211E0,-4.537050247E0,-3.433950186E0,6.479749234E0
2.081535180E0,-2.485950232E0,-5.074050426E0,-3.855000257E0,6.840099653E0
2.083498333E0,-1.873050094E0,-5.649000168E0,-4.774950027E0,7.630181342E0
2.085461712E0,-1.297950029E0,-6.109050274E0,-5.809950352E0,8.529987844E0
2.087425024E0,-8.380500674E-1,-6.645000458E0,-6.921000481E0,9.631126967E0
2.089388466E0,-3.780000210E-1,-7.219950199E0,-8.263050079E0,1.097946089E1
2.091351870E0,4.200000316E-2,-7.872000217E0,-9.681000710E0,1.247765708E1
2.093314897E0,1.960500032E-1,-8.599950790E0,-1.136700058E1,1.425504442E1
2.095278286E0,3.109500110E-1,-9.405000687E0,-1.305405045E1,1.609220186E1
2.097241849E0,3.109500110E-1,-1.040100002E1,-1.450995064E1,1.785542379E1
2.099205361E0,5.410500169E-1,-1.185795021E1,-1.592805099E1,1.986470556E1
2.101169580E0,9.240000248E-1,-1.358205032E1,-1.684800148E1,2.166058681E1
2.103133592E0,1.345050097E0,-1.507695103E1,-1.719300079E1,2.290683060E1
2.105096879E0,1.843950033E0,-1.622700119E1,-1.734705162E1,2.382511111E1
2.107060372E0,2.265000105E0,-1.703205109E1,-1.707795143E1,2.422555293E1
2.109023558E0,2.610000134E0,-1.779900169E1,-1.681005096E1,2.462101491E1
2.110986834E0,3.070050240E0,-1.848795128E1,-1.700205040E1,2.530413541E1
2.112950057E0,3.337950230E0,-1.887195015E1,-1.677195168E1,2.546744544E1
2.114913295E0,3.529950142E0,-1.891005135E1,-1.638795090E1,2.527084337E1
2.116876164E0,3.952050209E0,-1.879500008E1,-1.581300068E1,2.487813737E1
2.118839141E0,4.488000393E0,-1.864200020E1,-1.493205070E1,2.430293104E1
2.120802414E0,4.948050022E0,-1.837305069E1,-1.416495037E1,2.372125649E1
2.122765601E0,5.025000095E0,-1.768395042E1,-1.290105057E1,2.245907020E1
2.124728839E0,5.407950401E0,-1.722405052E1,-1.209600067E1,2.173078637E1
2.126692062E0,5.830050468E0,-1.664895058E1,-1.125195026E1,2.092327480E1
2.128655509E0,6.289950371E0,-1.584405041E1,-1.048605061E1,2.001386185E1
2.130618866E0,6.481050491E0,-1.500105095E1,-9.681000710E0,1.899361260E1
2.132581761E0,6.405000210E0,-1.408095074E1,-8.683950424E0,1.774001681E1
2.134544791E0,6.366000175E0,-1.304595089E1,-7.305000305E0,1.625071759E1
2.136508190E0,6.289950371E0,-1.208805084E1,-5.695050240E0,1.476882006E1
2.138471481E0,6.213000298E0,-1.097595024E1,-3.510000229E0,1.309171333E1
2.140433791E0,5.905950069E0,-9.673050880E0,-1.287000060E0,1.140633722E1
2.142396396E0,5.446050167E0,-8.101950645E0,1.087950110E0,9.822662680E0
2.144359958E0,5.178000450E0,-6.607050419E0,3.655950069E0,9.155914745E0
2.146323240E0,5.215950012E0,-5.188950062E0,6.568950176E0,9.863186285E0
2.148286598E0,5.254950047E0,-3.732000113E0,9.712050438E0,1.165616783E1
2.150249933E0,5.178000450E0,-2.199000120E0,1.266300106E1,1.385636626E1
2.152212426E0,4.833000183E0,-5.130000114E-1,1.457895088E1,1.536772165E1
2.154175165E0,4.027950287E0,9.040500522E-1,1.595895100E1,1.648422904E1
2.156138840E0,3.108000040E0,2.131050110E0,1.657200050E1,1.699506515E1
2.158102240E0,2.419050217E0,2.859000206E0,1.634205055E1,1.676568825E1
2.160065668E0,1.767000079E0,3.204000235E0,1.549905109E1,1.592509000E1
2.162029087E0,1.269000053E0,3.241950035E0,1.385100079E1,1.428183545E1
2.163992443E0,1.039050102E0,2.859000206E0,1.224105072E1,1.261335919E1
2.165955834E0,8.089500666E-1,2.208000183E0,1.063200092E1,1.088894433E1
2.167918857E0,4.639500082E-1,1.096050024E0,8.944950104E0,9.023785659E0
2.169881988E0,2.340000123E-1,-3.589500189E-1,7.182000160E0,7.194770839E0
2.171845550E0,-2.250000089E-1,-2.046000004E0,5.802000046E0,6.156293166E0
2.173808986E0,-1.260000110E0,-4.116000175E0,5.457000256E0,6.950389163E0
2.175772413E0,-2.140950203E0,-6.262050152E0,6.876000404E0,9.543391506E0
2.177735839E0,-3.100050211E0,-8.332050323E0,1.032495022E1,1.362490260E1
2.179699396E0,-4.518000126E0,-1.032495022E1,1.243305016E1,1.678087180E1
2.181662914E0,-6.396000385E0,-1.235595036E1,1.503900051E1,2.048779799E1
2.183626232E0,-8.772000313E0,-1.488600063E1,1.756905174E1,2.464168386E1
2.185589608E0,-1.164705086E1,-1.829700089E1,2.005995178E1,2.954379293E1
2.187552698E0,-1.390800095E1,-2.132505035E1,1.500105095E1,2.955032644E1
2.189515858E0,-1.636095047E1,-2.393100166E1,8.830050468E0,3.030418011E1
2.191479595E0,-1.984905052E1,-2.665200043E1,5.611050129E0,3.370159962E1
2.193443163E0,-2.536800194E1,-2.968005180E1,2.928000212E0,3.915372502E1
2.195407102E0,-3.054195213E1,-3.355095291E1,-9.643050194E0,4.638389482E1
2.197370933E0,-3.153900146E1,-3.504600143E1,-5.809950352E0,4.750459297E1
2.199334622E0,-3.180705070E1,-3.565904999E1,-4.084949970E0,4.795772239E1
2.201298339E0,-3.088695145E1,-3.562095261E1,-4.698000431E0,4.738066317E1
2.203261982E0,-2.862600136E1,-3.412605286E1,-4.890000343E0,4.481012766E1
2.205225647E0,-2.452500153E1,-3.071505165E1,-5.350050449E0,3.966753254E1
2.207189209E0,-1.950405121E1,-2.672895050E1,-6.040050507E0,3.363520505E1
2.209152801E0,-1.517295074E1,-2.266605186E1,-6.997950554E0,2.815918417E1
2.211116349E0,-1.187700081E1,-1.936995125E1,-8.722949982E0,2.433820075E1
2.213079897E0,-9.117000580E0,-1.703205109E1,-1.071600056E1,2.209169825E1
2.215043208E0,-6.625950336E0,-1.546095085E1,-1.247895050E1,2.094441273E1
2.217006589E0,-4.747950077E0,-1.400400066E1,-1.347495079E1,2.000573326E1
2.218970153E0,-3.214950085E0,-1.293105030E1,-1.312995052E1,1.870677863E1
2.220933664E0,-2.103000164E0,-1.185795021E1,-1.236405087E1,1.725987679E1
2.222897092E0,-1.452000022E0,-1.090005016E1,-1.075395012E1,1.538072953E1
2.224860531E0,-1.413000107E0,-9.940950394E0,-8.914050102E0,1.342681471E1
2.226824040E0,-1.758000135E0,-9.136050224E0,-7.075050354E0,1.168821268E1
2.228787529E0,-2.601000071E0,-8.217000008E0,-4.966950417E0,9.947607096E0
2.230751076E0,-3.138000250E0,-7.488000393E0,-3.472050190E0,8.830194107E0
2.232714606E0,-3.790050268E0,-6.874950409E0,-2.169000149E0,8.144567871E0
2.234677822E0,-4.173000336E0,-6.492000103E0,-1.210950017E0,7.811939393E0
2.236641137E0,-4.518000126E0,-6.454050541E0,-2.140500098E-1,7.881174464E0
2.238603272E0,-4.863000393E0,-6.607050419E0,1.126049995E0,8.280693005E0
2.240565752E0,-5.016000271E0,-6.913050175E0,2.430000067E0,8.880057531E0
2.242529291E0,-5.053950310E0,-7.258050442E0,4.039050102E0,9.722943776E0
2.244492519E0,-5.053950310E0,-7.527000427E0,5.802000046E0,1.076389120E1
2.246455742E0,-5.092950344E0,-7.717950344E0,7.756950378E0,1.206959734E1
2.248418972E0,-5.053950310E0,-7.717950344E0,9.252000809E0,1.306555357E1
2.250382518E0,-5.245950222E0,-7.642050266E0,1.017195034E1,1.376188576E1
2.252345972E0,-5.169000149E0,-7.527000427E0,1.078500080E1,1.413119033E1
2.254309210E0,-5.016000271E0,-7.450050354E0,1.128300095E1,1.442115180E1
2.256272512E0,-4.900950432E0,-7.450050354E0,1.185795021E1,1.483689821E1
2.258235910E0,-4.671000004E0,-7.642050266E0,1.247100067E1,1.535399072E1
2.260199280E0,-4.479000092E0,-7.909950256E0,1.289295101E1,1.577520018E1
2.262162802E0,-4.518000126E0,-8.293050766E0,1.335300064E1,1.635511059E1
2.264126280E0,-4.863000393E0,-8.677050591E0,1.385100079E1,1.705257173E1
2.266089334E0,-5.361000061E0,-9.175050735E0,1.457895088E1,1.804072300E1
2.268052512E0,-5.974050522E0,-9.750000000E0,1.565295029E1,1.938470099E1
2.270016082E0,-6.511050224E0,-1.047795010E1,1.726200104E1,2.121692468E1
2.271979558E0,-6.931950092E0,-1.147395039E1,1.883400154E1,2.311759251E1
2.273942748E0,-6.817050457E0,-1.327605057E1,2.044305038E1,2.531094634E1
2.275906022E0,-5.323050022E0,-1.611194992E1,2.212995148E1,2.788663738E1
2.277869245E0,-3.061050177E0,-1.986795044E1,2.347095108E1,3.090292911E1
2.279832483E0,-1.106999993E0,-2.393100166E1,2.397000122E1,3.388922023E1
2.281797292E0,-3.299999982E-2,-2.699700165E1,2.389305115E1,3.605158915E1
2.283761384E0,1.000050068E0,-2.918205070E1,2.485095024E1,3.834269046E1
2.285724829E0,2.074050188E0,-3.117495155E1,2.634600067E1,4.086919427E1
2.287688463E0,2.955000162E0,-3.316800308E1,2.726595116E1,4.303812899E1
2.289651985E0,3.721950293E0,-3.458595276E1,2.707395172E1,4.407992632E1
2.291615540E0,4.564949989E0,-3.550605011E1,2.684400177E1,4.474504211E1
2.293579245E0,5.331000328E0,-3.615705109E1,2.646105194E1,4.512138271E1
2.295542913E0,6.136050224E0,-3.673200226E1,2.546400070E1,4.511437059E1
2.297506430E0,7.210050106E0,-3.692400360E1,2.400795174E1,4.462901087E1
2.299469992E0,8.282999992E0,-3.700094986E1,2.220705032E1,4.394122738E1
2.301433526E0,8.818950653E0,-3.684705353E1,2.025195122E1,4.296068869E1
2.303397069E0,9.241050720E0,-3.646395111E1,1.825905037E1,4.181398892E1
2.305360781E0,9.624000549E0,-3.588899994E1,1.672605133E1,4.074803672E1
2.307324447E0,1.000695038E1,-3.512295151E1,1.538400078E1,3.962862928E1
2.309288144E0,1.050600052E1,-3.443295288E1,1.335300064E1,3.839670451E1
2.311251831E0,1.096605015E1,-3.401100159E1,1.024800014E1,3.717558327E1
2.313216065E0,1.131105042E1,-3.347400284E1,5.764050484E0,3.580046097E1
2.315180139E0,1.207695103E1,-3.293805313E1,-2.140500098E-1,3.508295751E1
2.317143572E0,1.315005016E1,-3.228600311E1,-8.761050224E0,3.594531704E1
2.319107203E0,1.433805084E1,-3.167295074E1,-1.964595032E1,3.993393137E1
2.321070726E0,1.556505108E1,-3.094500160E1,-3.129795074E1,4.668431921E1
2.323034280E0,1.636995125E1,-2.991000175E1,-4.421400070E1,5.583423114E1
2.324997501E0,1.594800091E1,-2.845395088E1,-5.318295288E1,6.238904175E1
2.326960819E0,1.529700089E1,-2.722695160E1,-4.923495102E1,5.830424968E1
2.328924394E0,1.479795074E1,-2.600100136E1,-4.348605347E1,5.278321953E1
2.330887893E0,1.341900063E1,-2.446800041E1,-3.999795151E1,4.877077759E1
2.332851260E0,1.169400024E1,-2.327895164E1,-3.539895248E1,4.395162191E1
2.334814665E0,9.892050743E0,-2.190000153E1,-3.026295090E1,3.864335560E1
2.336778046E0,8.398050308E0,-2.067300034E1,-2.547195053E1,3.386326115E1
2.338741434E0,7.132950306E0,-1.963800049E1,-2.064300156E1,2.937113475E1
2.340704623E0,5.638050079E0,-1.864200020E1,-1.677195168E1,2.570233731E1
2.342667881E0,3.760050297E0,-1.764495087E1,-1.412700081E1,2.291406601E1
2.344630521E0,2.149950027E0,-1.676399994E1,-1.209600067E1,2.078382090E1
2.346593343E0,5.410500169E-1,-1.572900105E1,-1.048605061E1,1.891167540E1
2.348556688E0,-6.850500107E-1,-1.477095032E1,-8.914050102E0,1.726587837E1
2.350519879E0,-1.567050099E0,-1.423395061E1,-7.420050144E0,1.612817845E1
2.352483098E0,-2.524950027E0,-1.369695091E1,-6.730050087E0,1.546852970E1
2.354446322E0,-3.598050117E0,-1.342905045E1,-6.652950287E0,1.541256332E1
2.356409689E0,-4.288050175E0,-1.342905045E1,-6.691050529E0,1.560438808E1
2.358373014E0,-5.092950344E0,-1.342905045E1,-6.883050442E0,1.592651633E1
2.360336275E0,-5.935950279E0,-1.316100025E1,-7.228050232E0,1.614596369E1
2.362299555E0,-6.241950512E0,-1.293105030E1,-7.650000572E0,1.626949651E1
2.364262732E0,-7.239000320E0,-1.277805042E1,-7.995000362E0,1.672129567E1
2.366225939E0,-8.580000877E0,-1.247100067E1,-8.493000031E0,1.735722680E1
2.368188994E0,-9.040050507E0,-1.224105072E1,-8.953050613E0,1.765567759E1
2.370152093E0,-9.577050209E0,-1.181895065E1,-9.144000053E0,1.774880904E1
2.372115526E0,-9.807000160E0,-1.124400043E1,-9.565950394E0,1.772321091E1
2.374078861E0,-9.424050331E0,-1.090005016E1,-9.949050903E0,1.751020937E1
2.376042240E0,-8.772000313E0,-1.074600029E1,-1.029405022E1,1.727402621E1
2.378005616E0,-8.121000290E0,-1.028595066E1,-1.048605061E1,1.678417958E1
2.379968868E0,-7.086000443E0,-9.940950394E0,-1.060095024E1,1.616830365E1
2.381932156E0,-5.553000450E0,-1.005600071E1,-1.086900043E1,1.581436482E1
2.383895736E0,-3.483000278E0,-1.017105007E1,-1.083105087E1,1.526083921E1
2.385859231E0,-1.297950029E0,-1.044000053E1,-1.106100082E1,1.526512446E1
2.387823479E0,6.940500140E-1,-1.063095093E1,-1.167405033E1,1.580450171E1
2.389787520E0,2.494950056E0,-1.086105061E1,-1.217205048E1,1.650290910E1
2.391750793E0,4.143000126E0,-1.109100056E1,-1.263195038E1,1.731302728E1
2.393714291E0,5.523000240E0,-1.109100056E1,-1.316895103E1,1.808134664E1
2.395677611E0,6.826050282E0,-1.101495075E1,-1.355205059E1,1.875052473E1
2.397640983E0,8.053050041E0,-1.097595024E1,-1.374405098E1,1.934481936E1
2.399604409E0,9.088050842E0,-1.082295036E1,-1.385895061E1,1.979392419E1
2.401567823E0,9.969000816E0,-1.063095093E1,-1.405005074E1,2.024356739E1
2.403531204E0,1.085100079E1,-1.040100002E1,-1.412700081E1,2.062758278E1
2.405494594E0,1.169400024E1,-1.024800014E1,-1.405005074E1,2.095650434E1
2.407458337E0,1.242195034E1,-1.001805019E1,-1.378200054E1,2.108577053E1
2.409421976E0,1.315005016E1,-9.787950516E0,-1.332195091E1,2.112349807E1
2.411385453E0,1.391700077E1,-9.595950127E0,-1.236405087E1,2.094361294E1
2.413348978E0,1.468305111E1,-9.328050613E0,-1.152105045E1,2.086478185E1
2.415312339E0,1.556505108E1,-9.097949982E0,-1.033305073E1,2.078016954E1
2.417275748E0,1.660004997E1,-8.830050468E0,-9.028950691E0,2.085793377E1
2.419238948E0,1.744305038E1,-8.715000153E0,-7.803000450E0,2.100233440E1
2.421202209E0,1.813305092E1,-8.830050468E0,-6.652950287E0,2.123768053E1
2.423165488E0,1.866900063E1,-8.907000542E0,-5.388000488E0,2.137514426E1
2.425128755E0,1.889895058E1,-8.752950668E0,-4.353000164E0,2.127752544E1
2.427092160E0,1.912905121E1,-8.715000153E0,-3.049950123E0,2.124085741E1
2.429055524E0,1.893795013E1,-8.562000275E0,-1.402050018E0,2.083073566E1
2.431017606E0,1.840095139E1,-8.178000450E0,-1.369500011E-1,2.013686814E1
2.432980064E0,1.786500168E1,-7.717950344E0,9.349500537E-1,1.948330501E1
2.434943633E0,1.709805107E1,-7.258050442E0,2.046000004E0,1.868712826E1
2.436906890E0,1.636995125E1,-6.837000370E0,3.157950163E0,1.801922660E1
2.438870837E0,1.567995071E1,-6.223950386E0,4.423050404E0,1.744023474E1
2.440834582E0,1.514295101E1,-5.572050095E0,5.266050339E0,1.697315509E1
2.442798041E0,1.464495087E1,-4.996950150E0,6.415950298E0,1.675137352E1
2.444761584E0,1.410795021E1,-4.306950092E0,7.066950321E0,1.635621793E1
2.446724941E0,1.376400089E1,-3.502050161E0,7.105050564E0,1.588061143E1
2.448688353E0,1.345695019E1,-2.889000177E0,7.219950199E0,1.554231357E1
2.450651418E0,1.322700024E1,-2.238000154E0,7.029000282E0,1.514493397E1
2.452614584E0,1.284405041E1,-1.509000063E0,6.454050541E0,1.445342452E1
2.454577960E0,1.257495022E1,-9.730500579E-1,5.649000168E0,1.381981918E1
2.456541274E0,1.253700066E1,-5.130000114E-1,4.078050137E0,1.319356083E1
2.458503605E0,1.249905014E1,-1.290000081E-1,2.506050110E0,1.274845805E1
2.460466214E0,1.230705070E1,2.530499995E-1,1.356000066E0,1.238411351E1
2.462430497E0,1.207695103E1,6.360000372E-1,-2.140500098E-1,1.209558017E1
2.464394289E0,1.203900051E1,9.040500522E-1,-2.130000114E0,1.225935318E1
2.466357560E0,1.192395020E1,1.173000097E0,-3.970050097E0,1.262211612E1
2.468320984E0,1.161705017E1,1.249050021E0,-5.542050362E0,1.293175560E1
2.470284386E0,1.142595100E1,1.326000094E0,-6.883050442E0,1.340473856E1
2.472247777E0,1.131105042E1,1.479000092E0,-8.032950401E0,1.395190291E1
2.474211385E0,1.108095074E1,1.786050081E0,-8.530950546E0,1.409803395E1
2.476174929E0,1.077405071E1,1.978050113E0,-8.530950546E0,1.388416250E1
2.478138601E0,1.039095020E1,1.939050078E0,-8.110050201E0,1.332308807E1
2.480102236E0,1.019895077E1,1.708950043E0,-7.420050144E0,1.272777479E1
2.482065754E0,9.700950623E0,1.402950048E0,-6.615000248E0,1.182518246E1
2.484029310E0,8.512949944E0,9.430500269E-1,-5.580000401E0,1.022233166E1
2.485993430E0,6.787950516E0,2.910000086E-1,-4.545000076E0,8.174226502E0
2.487957385E0,5.215950012E0,-2.440500110E-1,-3.472050190E0,6.270632142E0
2.489920493E0,3.874950171E0,-7.039500475E-1,-2.475000143E0,4.651495480E0
2.491883849E0,2.725050211E0,-1.126049995E0,-1.708950043E0,3.407990242E0
2.493847018E0,1.651950121E0,-1.509000063E0,-1.287000060E0,2.581160504E0
2.495810238E0,8.850000501E-1,-1.816050053E0,-1.018950105E0,2.262636117E0
2.497772930E0,4.050000105E-3,-2.046000004E0,-1.171950102E0,2.357880289E0
2.499735777E0,-6.079500318E-1,-2.238000154E0,-1.363950014E0,2.690466051E0
2.501699072E0,-1.068000078E0,-2.467050076E0,-1.671000123E0,3.165312252E0
2.503662236E0,-1.452000022E0,-2.697000027E0,-1.747050047E0,3.526229867E0
2.505625635E0,-1.642950058E0,-2.773950100E0,-1.555950046E0,3.579813486E0
2.507588982E0,-1.567050099E0,-3.004050255E0,-1.018950105E0,3.538110126E0
2.509552373E0,-1.260000110E0,-3.387000084E0,-4.819500148E-1,3.645770928E0
2.511515751E0,-1.260000110E0,-3.771000147E0,-7.120500207E-1,4.039190218E0
2.513479137E0,-1.297950029E0,-4.116000175E0,-1.096050024E0,4.452803317E0
2.515442520E0,-1.528050065E0,-4.306950092E0,-1.096050024E0,4.699583147E0
2.517405905E0,-2.140950203E0,-4.651950359E0,-1.210950017E0,5.262196296E0
2.519369289E0,-2.179949999E0,-5.380050182E0,-5.970000029E-1,5.835540332E0
2.521331819E0,-2.065050125E0,-6.109050274E0,3.600000143E-1,6.458678447E0
2.523294599E0,-1.758000135E0,-6.990000248E0,1.203000069E0,7.307385107E0
2.525258086E0,-1.222050071E0,-7.872000217E0,1.740000129E0,8.154102909E0
2.527221366E0,-6.079500318E-1,-8.638050079E0,2.122950077E0,8.915852704E0
2.529184604E0,-1.870500147E-1,-9.366000175E0,2.200050116E0,9.622742203E0
2.531147844E0,2.719500065E-1,-1.024800014E1,2.238000154E0,1.049305048E1
2.533111928E0,3.490500152E-1,-1.101495075E1,1.855050087E0,1.117551730E1
2.535075765E0,6.550500393E-1,-1.197300053E1,1.510050058E0,1.208561473E1
2.537038938E0,6.940500140E-1,-1.312305069E1,9.730500579E-1,1.317736663E1
2.539002305E0,1.039050102E0,-1.457895088E1,1.050000072E0,1.465359799E1
2.540965351E0,1.345050097E0,-1.615005112E1,1.855050087E0,1.631179088E1
2.542928478E0,1.614000082E0,-1.756905174E1,2.620950222E0,1.783664642E1
2.544891501E0,2.188950062E0,-1.879500008E1,3.463950157E0,1.923648827E1
2.546854555E0,2.610000134E0,-1.994505119E1,3.694050074E0,2.045148341E1
2.548817860E0,2.802000046E0,-2.117100143E1,3.234000206E0,2.159910330E1
2.550781092E0,2.802000046E0,-2.232105064E1,2.698050022E0,2.265744867E1
2.552744489E0,2.686950207E0,-2.347095108E1,2.008050203E0,2.370943929E1
2.554707847E0,2.341950178E0,-2.473605156E1,1.011000037E0,2.486722941E1
2.556671912E0,1.920000076E0,-2.584695053E1,4.360500276E-1,2.592183234E1
2.558635770E0,1.306950092E0,-2.730405045E1,-4.819500148E-1,2.733956044E1
2.560598579E0,5.410500169E-1,-2.860695076E1,-5.590500236E-1,2.861752791E1
2.562561695E0,6.550500393E-1,-3.010200119E1,1.300500035E-1,3.010940848E1
2.564524239E0,1.039050102E0,-3.190305138E1,-1.369500011E-1,3.192026108E1
2.566486940E0,-2.250000089E-1,-3.374295044E1,-2.520000041E-1,3.374464155E1
2.568450441E0,-5.320500135E-1,-3.588899994E1,-1.134000063E0,3.591085282E1
2.570413707E0,-1.144950032E0,-3.765195084E1,-1.824000120E0,3.771348948E1
2.572377112E0,-2.563050032E0,-3.922395325E1,-1.747050047E0,3.934640921E1
2.574340476E0,-4.249050140E0,-4.052700043E1,-1.786050081E0,4.078826014E1
2.576303676E0,-5.284050465E0,-4.152300262E1,-1.249050021E0,4.187649773E1
2.578266931E0,-6.204000473E0,-4.202205276E1,-1.096050024E0,4.249169173E1
2.580230113E0,-7.086000443E0,-4.156200027E1,-1.441050053E0,4.218634725E1
2.582193316E0,-8.350950241E0,-4.114005280E1,-1.479000092E0,4.200511582E1
2.584156595E0,-9.499950409E0,-4.056495285E1,-1.326000094E0,4.168360270E1
2.586119852E0,-1.057395077E1,-3.972195053E1,-4.060500264E-1,4.110725806E1
2.588082494E0,-1.111005020E1,-3.941505051E1,2.046000004E0,4.100201871E1
2.590045316E0,-1.087995052E1,-3.937695312E1,4.192950249E0,4.106700126E1
2.592008796E0,-1.087995052E1,-3.903195190E1,5.572050095E0,4.090127547E1
2.593972083E0,-1.061205006E1,-3.861000061E1,6.454050541E0,4.055863067E1
2.595935305E0,-9.385050774E0,-3.887895203E1,7.642050266E0,4.071919720E1
2.597898546E0,-7.929000378E0,-3.895500183E1,1.105305099E1,4.126173955E1
2.599861954E0,-5.284050465E0,-3.945405197E1,1.281600094E1,4.181857585E1
2.601825313E0,-2.563050032E0,-4.106295013E1,1.113000011E1,4.262173157E1
2.603789243E0,-3.780000210E-1,-4.252005386E1,7.066950321E0,4.310498407E1
2.605753005E0,1.077000022E0,-4.370805359E1,9.349500537E-1,4.373131612E1
2.607716731E0,1.882050037E0,-4.478100204E1,-5.005050182E0,4.509912176E1
2.609680468E0,2.457000017E0,-4.504905319E1,-1.113705063E1,4.647029093E1
2.611643597E0,3.108000040E0,-4.470405197E1,-1.523895073E1,4.733220411E1
2.613606915E0,2.955000162E0,-4.336305237E1,-1.401195049E1,4.566641100E1
2.615570265E0,3.337950230E0,-4.244295120E1,-1.293900108E1,4.449678379E1
2.617533605E0,3.223050117E0,-4.140795135E1,-1.228695011E1,4.331253433E1
2.619496818E0,2.380050182E0,-4.010505295E1,-1.132905006E1,4.174239196E1
2.621460069E0,1.459950089E0,-3.864900208E1,-9.910950661E0,3.992622896E1
2.623422289E0,8.100000024E-2,-3.707700348E1,-7.956000328E0,3.792108502E1
2.625384790E0,-1.030050039E0,-3.550605011E1,-5.580000401E0,3.595659887E1
2.627348145E0,-1.452000022E0,-3.389595032E1,-3.204000235E0,3.407798952E1
2.629311250E0,-2.179949999E0,-3.209505081E1,-1.516950130E0,3.220474509E1
2.631273422E0,-3.828000069E0,-2.998695183E1,-2.140500098E-1,3.023105492E1
2.633235867E0,-4.594050407E0,-2.791695213E1,9.730500579E-1,2.830915650E1
2.635199220E0,-4.671000004E0,-2.596200180E1,2.275950193E0,2.647685268E1
2.637162283E0,-4.363950253E0,-2.458200073E1,3.234000206E0,2.517493951E1
2.639125362E0,-4.096050262E0,-2.316405106E1,3.349050045E0,2.376061921E1
2.641088437E0,-4.210950375E0,-2.128605080E1,2.773950100E0,2.187516539E1
2.643051875E0,-4.288050175E0,-1.929300117E1,2.620950222E0,1.993681641E1
2.645015206E0,-3.943050146E0,-1.756905174E1,2.698050022E0,1.820710569E1
2.646978115E0,-3.291000128E0,-1.599705029E1,2.353049994E0,1.650070132E1
2.648941141E0,-2.524950027E0,-1.442595100E1,1.930950046E0,1.477200065E1
2.650904181E0,-1.605000019E0,-1.312305069E1,1.893000126E0,1.335567048E1
2.652867216E0,-7.999500632E-1,-1.204905033E1,2.736000061E0,1.238164893E1
2.654831382E0,1.960500032E-1,-1.132095051E1,3.502950191E0,1.185213129E1
2.656795216E0,1.000050068E0,-1.074600029E1,4.576050282E0,1.172249370E1
2.658758209E0,1.077000022E0,-1.005600071E1,4.921050072E0,1.124721357E1
2.660721449E0,5.790000558E-1,-9.405000687E0,5.035950184E0,1.068410376E1
2.662683777E0,3.870000243E-1,-8.599950790E0,5.266050339E0,1.009159099E1
2.664646372E0,3.490500152E-1,-7.795050144E0,5.304000378E0,9.434885408E0
2.666610567E0,5.020500422E-1,-7.219950199E0,5.496000290E0,9.087670456E0
2.668574293E0,1.077000022E0,-6.798000336E0,6.223950386E0,9.279563353E0
2.670537470E0,1.651950121E0,-6.454050541E0,6.837000370E0,9.546113431E0
2.672500818E0,2.304000139E0,-6.031950474E0,7.105050564E0,9.600759693E0
2.674463848E0,3.108000040E0,-5.725050449E0,7.144050121E0,9.668160064E0
2.676426972E0,3.798000097E0,-5.572050095E0,7.258950233E0,9.907820421E0
2.678390175E0,4.411950111E0,-5.572050095E0,7.680000305E0,1.046400739E1
2.680353355E0,4.527000427E0,-5.533950329E0,8.064000130E0,1.077712565E1
2.682316635E0,4.258049965E0,-5.419050217E0,8.140049934E0,1.066571646E1
2.684279889E0,3.607050180E0,-5.380050182E0,8.179050446E0,1.043324576E1
2.686243297E0,2.802000046E0,-5.074050426E0,8.101950645E0,9.961867107E0
2.688206659E0,1.920000076E0,-4.729050159E0,8.101950645E0,9.575589797E0
2.690168967E0,1.039050102E0,-4.269000053E0,7.948950291E0,9.082389404E0
2.692131584E0,1.189500093E-1,-3.771000147E0,8.101950645E0,8.937348347E0
2.694095243E0,-9.529500604E-1,-3.004050255E0,8.179050446E0,8.765232338E0
2.696058591E0,-1.950000048E0,-2.161050081E0,8.446949959E0,8.934405478E0
2.698021848E0,-2.985000134E0,-1.240950108E0,8.599950790E0,9.187455391E0
2.699985131E0,-3.904950142E0,-2.440500110E-1,8.869050026E0,9.693721906E0
2.701947947E0,-5.053950310E0,7.890000343E-1,8.944950104E0,1.030422569E1
2.703910900E0,-6.013050079E0,1.747950077E0,9.252000809E0,1.117191209E1
2.705874204E0,-6.970950127E0,2.590950012E0,9.328050613E0,1.192978189E1
2.707837418E0,-7.813950539E0,3.472050190E0,9.597000122E0,1.285361299E1
2.709801012E0,-8.656949997E0,4.201050282E0,9.979950905E0,1.386329783E1
2.711764495E0,-9.346950531E0,4.890000343E0,1.001805019E1,1.454781486E1
2.713727998E0,-1.003695011E1,5.695050240E0,9.979950905E0,1.525691269E1
2.715691495E0,-1.049700069E1,6.309000492E0,9.979950905E0,1.579841545E1
2.717654851E0,-1.099500084E1,6.922050476E0,9.942000389E0,1.635995715E1
2.719618256E0,-1.153200054E1,7.650000572E0,9.597000122E0,1.684078254E1
2.721581681E0,-1.203000069E1,8.224950790E0,9.481950760E0,1.738614742E1
2.723545100E0,-1.264305019E1,8.838000298E0,9.136950493E0,1.792877106E1
2.725508435E0,-1.321800041E1,9.336000443E0,8.944950104E0,1.849022908E1
2.727471794E0,-1.371600056E1,9.835050583E0,8.677050591E0,1.897756829E1
2.729435358E0,-1.402305031E1,1.033305073E1,8.562000275E0,1.940942364E1
2.731398865E0,-1.456005096E1,1.090800095E1,8.370000839E0,2.002589531E1
2.733362454E0,-1.471305084E1,1.132905006E1,8.254950523E0,2.032155133E1
2.735326019E0,-1.482795048E1,1.186605072E1,8.101950645E0,2.064734558E1
2.737289554E0,-1.471305084E1,1.232595062E1,8.064000130E0,2.081900627E1
2.739253098E0,-1.452105045E1,1.274805069E1,8.217000008E0,2.099744727E1
2.741216649E0,-1.440600109E1,1.320795059E1,7.948950291E0,2.109901981E1
2.743180189E0,-1.417605114E1,1.366695023E1,8.064000130E0,2.127848802E1
2.745143547E0,-1.367805099E1,1.397400093E1,8.332050323E0,2.125523097E1
2.747106958E0,-1.314105034E1,1.397400093E1,9.442950249E0,2.138058033E1
2.749070338E0,-1.279695034E1,1.412700081E1,9.979950905E0,2.151588971E1
2.751033728E0,-1.206795025E1,1.382100105E1,1.116795063E1,2.147972566E1
2.752997032E0,-1.130205059E1,1.336095047E1,1.251000023E1,2.151165848E1
2.754960386E0,-1.034400082E1,1.297800064E1,1.358295059E1,2.144582478E1
2.756923775E0,-9.346950531E0,1.244100094E1,1.515405083E1,2.172071005E1
2.758887153E0,-8.848950386E0,1.198095036E1,1.549905109E1,2.149575956E1
2.760850539E0,-8.464950562E0,1.144395065E1,1.538400078E1,2.095917161E1
2.762813922E0,-7.813950539E0,1.083105087E1,1.492395115E1,2.002732643E1
2.764777348E0,-7.047000408E0,1.025595093E1,1.461795044E1,1.919711487E1
2.766740764E0,-6.319050312E0,9.681000710E0,1.327605057E1,1.760413844E1
2.768704278E0,-5.629050255E0,9.067950249E0,1.174305058E1,1.586862204E1
2.770667764E0,-5.169000149E0,8.877000809E0,1.009500027E1,1.440238648E1
2.772631132E0,-4.863000393E0,8.532000542E0,8.907000542E0,1.325814711E1
2.774594535E0,-4.708950043E0,8.263050079E0,7.450050354E0,1.208120265E1
2.776557921E0,-4.633050442E0,8.110050201E0,6.376950264E0,1.130944585E1
2.778521309E0,-4.555950165E0,7.765050411E0,5.074050426E0,1.033434456E1
2.780484737E0,-4.671000004E0,7.497000217E0,3.733050108E0,9.589521177E0
2.782448153E0,-4.518000126E0,7.152000427E0,2.430000067E0,8.801609829E0
2.784411173E0,-4.402950287E0,6.691950321E0,1.510050058E0,8.151590121E0
2.786374309E0,-4.363950253E0,6.462000370E0,7.810500264E-1,7.836552158E0
2.788338618E0,-4.363950253E0,6.193950176E0,-9.900000691E-2,7.577524767E0
2.790302596E0,-4.288050175E0,5.580000401E0,-6.360000372E-1,7.065994255E0
2.792265835E0,-4.096050262E0,4.852050304E0,-1.057050109E0,6.437186873E0
2.794229290E0,-3.904950142E0,4.162050247E0,-1.363950014E0,5.867849479E0
2.796192482E0,-3.675000191E0,3.357000113E0,-1.786050081E0,5.288199226E0
2.798155752E0,-3.598050117E0,2.514000177E0,-2.284050226E0,4.948034658E0
2.800119175E0,-3.330000162E0,1.708950043E0,-2.743950129E0,4.640977660E0
2.802082539E0,-2.946000099E0,9.430500269E-1,-3.088950157E0,4.371484074E0
2.804046829E0,-2.524950027E0,2.295000106E-2,-3.625050068E0,4.417792134E0
2.806010847E0,-1.834950089E0,-6.280500293E-1,-4.200000286E0,4.626174561E0
2.807974169E0,-1.375050068E0,-1.356000066E0,-4.813050270E0,5.186034301E0
2.809937695E0,-9.150000215E-1,-1.969050050E0,-5.580000401E0,5.987552723E0
2.811901235E0,-5.320500135E-1,-2.467050076E0,-6.460950375E0,6.936374632E0
2.813864770E0,-2.250000089E-1,-3.004050255E0,-7.495950222E0,8.078626905E0
2.815828850E0,2.340000123E-1,-3.387000084E0,-8.683950424E0,9.324029201E0
2.817792770E0,5.790000558E-1,-3.771000147E0,-9.910950661E0,1.061991649E1
2.819756064E0,1.000050068E0,-4.306950092E0,-1.155900097E1,1.237579988E1
2.821719541E0,1.422000051E0,-4.882050037E0,-1.351395035E1,1.443895255E1
2.823682835E0,1.882050037E0,-5.419050217E0,-1.550700092E1,1.653406469E1
2.825646204E0,2.494950056E0,-6.070050240E0,-1.757595062E1,1.876124532E1
2.827609635E0,2.917050123E0,-6.990000248E0,-1.899495125E1,2.044938771E1
2.829573048E0,3.147000074E0,-8.293050766E0,-1.968495178E1,2.159110065E1
2.831536429E0,3.070050240E0,-9.787950516E0,-1.983795166E1,2.233323778E1
2.833499820E0,3.147000074E0,-1.158900070E1,-2.002905083E1,2.335318873E1
2.835462978E0,3.300000191E0,-1.339095020E1,-1.999095154E1,2.428673902E1
2.837426204E0,3.147000074E0,-1.496205044E1,-1.999095154E1,2.516753278E1
2.839389615E0,3.223050117E0,-1.641900063E1,-1.991400146E1,2.601036501E1
2.841352972E0,3.300000191E0,-1.760700035E1,-1.933995056E1,2.636152785E1
2.843316227E0,3.376950264E0,-1.841205025E1,-1.815105057E1,2.607427898E1
2.845279512E0,3.300000191E0,-1.879500008E1,-1.665705109E1,2.532981208E1
2.847242539E0,3.415050268E0,-1.902495003E1,-1.512405109E1,2.454278333E1
2.849205652E0,3.337950230E0,-1.906305122E1,-1.359000111E1,2.364804355E1
2.851168856E0,3.376950264E0,-1.871805000E1,-1.182705021E1,2.239750668E1
2.853132034E0,3.607050180E0,-1.833495140E1,-1.014105034E1,2.126081268E1
2.855095274E0,3.568050146E0,-1.768395042E1,-8.683950424E0,2.002159033E1
2.857058496E0,3.529950142E0,-1.687905121E1,-7.765050411E0,1.891187261E1
2.859021936E0,3.300000191E0,-1.611194992E1,-7.420050144E0,1.804278459E1
2.860985293E0,3.147000074E0,-1.511595058E1,-6.385050297E0,1.670821471E1
2.862948727E0,2.992950201E0,-1.415700054E1,-5.503050327E0,1.548101993E1
2.864912139E0,2.725050211E0,-1.331400108E1,-4.698000431E0,1.437914224E1
2.866875340E0,2.533950090E0,-1.239405060E1,-3.433950186E0,1.310821907E1
2.868838603E0,2.494950056E0,-1.147395039E1,-2.398950100E0,1.198462660E1
2.870801048E0,2.572050095E0,-1.036305046E1,-9.420000315E-1,1.071893748E1
2.872763743E0,2.839950085E0,-9.289950371E0,9.349500537E-1,9.759232858E0
2.874726930E0,3.108000040E0,-8.101950645E0,2.851050138E0,9.133989019E0
2.876689972E0,3.300000191E0,-6.913050175E0,5.266050339E0,9.295781309E0
2.878653235E0,3.376950264E0,-5.764050484E0,7.564950466E0,1.009240044E1
2.880616433E0,3.147000074E0,-4.422000408E0,1.028700066E1,1.163099650E1
2.882579631E0,2.917050123E0,-3.157050133E0,1.266300106E1,1.337264906E1
2.884542825E0,2.839950085E0,-2.046000004E0,1.423395061E1,1.465799381E1
2.886505927E0,2.955000162E0,-1.318050027E0,1.480905056E1,1.515840560E1
2.888469056E0,3.300000191E0,-1.048950076E0,1.427295113E1,1.468698170E1
2.890432483E0,3.492000103E0,-1.011000037E0,1.308495045E1,1.358057856E1
2.892395823E0,3.415050268E0,-1.318050027E0,1.147500038E1,1.204472739E1
2.894359174E0,2.955000162E0,-1.893000126E0,9.558000565E0,1.018188834E1
2.896322519E0,2.035050154E0,-2.889000177E0,7.564950466E0,8.349624345E0
2.898285010E0,6.550500393E-1,-4.461000443E0,6.186000347E0,7.654816510E0
2.900247752E0,-1.030050039E0,-6.184950352E0,6.454050541E0,8.998298857E0
2.902211246E0,-2.677950144E0,-8.217000008E0,8.293950081E0,1.197831850E1
2.904174519E0,-4.134000301E0,-1.001805019E1,8.869050026E0,1.400397574E1
2.906137609E0,-6.204000473E0,-1.162800026E1,9.022050858E0,1.597176927E1
2.908100752E0,-8.964000702E0,-1.388895035E1,1.001805019E1,1.932918984E1
2.910063952E0,-1.260495090E1,-1.722405052E1,1.082295036E1,2.393092055E1
2.912027135E0,-1.659105110E1,-2.151600075E1,1.235595036E1,2.984745842E1
2.913990374E0,-2.038500023E1,-2.508105087E1,1.116795063E1,3.419547439E1
2.915953596E0,-2.391195107E1,-2.849205208E1,8.370000839E0,3.812657012E1
2.917917028E0,-2.705400085E1,-3.171105194E1,6.721950531E0,4.222196580E1
2.919880385E0,-2.943105125E1,-3.420300293E1,5.725950241E0,4.548426864E1
2.921844495E0,-3.165405083E1,-3.654104996E1,-1.977000117E0,4.838528490E1
2.923808385E0,-3.215205002E1,-3.799695206E1,-9.259050369E0,5.062857592E1
2.925770602E0,-2.835795212E1,-3.692400360E1,-1.057050109E0,4.656901164E1
2.927733310E0,-2.222505188E1,-3.443295288E1,1.663050056E0,4.101642245E1
2.929696990E0,-1.593900108E1,-3.048495102E1,3.118950129E0,3.454145110E1
2.931660385E0,-1.080300045E1,-2.600100136E1,4.153950214E0,2.846071315E1
2.933623634E0,-6.931950092E0,-2.205300140E1,4.653000355E0,2.358044137E1
2.935586926E0,-3.828000069E0,-1.879500008E1,4.000950336E0,1.959370348E1
2.937551182E0,-1.260000110E0,-1.641900063E1,2.122950077E0,1.660355681E1
2.939515155E0,3.109500110E-1,-1.454100037E1,5.295000225E-2,1.454442110E1
2.941479238E0,1.039050102E0,-1.331400108E1,-1.900950074E0,1.348910157E1
2.943443265E0,1.039050102E0,-1.208805084E1,-3.394950151E0,1.259866202E1
2.945406360E0,1.767000079E0,-1.124400043E1,-5.503050327E0,1.264252340E1
2.947369728E0,2.304000139E0,-1.024800014E1,-7.650000572E0,1.299432308E1
2.949332890E0,2.149950027E0,-9.097949982E0,-9.373950005E0,1.323880348E1
2.951296113E0,1.422000051E0,-7.872000217E0,-1.006395054E1,1.285587694E1
2.953258282E0,8.089500666E-1,-6.798000336E0,-9.643050194E0,1.182605707E1
2.955220747E0,-7.200000435E-2,-5.839950085E0,-8.301000595E0,1.014971979E1
2.957183747E0,-6.469500065E-1,-5.112000465E0,-6.615000248E0,8.385065375E0
2.959146591E0,-9.529500604E-1,-4.690050125E0,-5.005050182E0,6.924970131E0
2.961109528E0,-1.222050071E0,-4.461000443E0,-3.855000257E0,6.021209040E0
2.963072437E0,-1.605000019E0,-4.269000053E0,-2.820000172E0,5.362162575E0
2.965035574E0,-2.026050091E0,-4.116000175E0,-1.861950040E0,4.951080121E0
2.966998654E0,-2.716050148E0,-3.961950302E0,-8.659500480E-1,4.880967946E0
2.968961146E0,-3.291000128E0,-4.116000175E0,2.449500114E-1,5.275617480E0
2.970923810E0,-3.904950142E0,-4.345950127E0,1.663050056E0,6.074673127E0
2.972887182E0,-4.363950253E0,-4.729050159E0,3.043050051E0,7.118155016E0
2.974850347E0,-4.900950432E0,-5.188950062E0,4.653000355E0,8.520265852E0
2.976813414E0,-5.323050022E0,-5.649000168E0,6.223950386E0,9.949051354E0
2.978776507E0,-5.629050255E0,-6.147000313E0,7.795050144E0,1.141203866E1
2.980739536E0,-5.514000416E0,-6.837000370E0,9.098999977E0,1.264676145E1
2.982702584E0,-5.245950222E0,-7.488000393E0,9.787950516E0,1.339380898E1
2.984665890E0,-4.824000359E0,-8.062950134E0,1.013295078E1,1.381878562E1
2.986629121E0,-4.363950253E0,-8.523000717E0,1.051695061E1,1.422293405E1
2.988592657E0,-3.943050146E0,-9.060000420E0,1.078500080E1,1.462694412E1
2.990556111E0,-3.598050117E0,-9.595950127E0,1.097700024E1,1.501741515E1
2.992519485E0,-3.175950050E0,-1.013295078E1,1.116795063E1,1.541059608E1
2.994482882E0,-2.716050148E0,-1.066995049E1,1.159005070E1,1.598605789E1
2.996446308E0,-2.640000105E0,-1.128300095E1,1.185795021E1,1.657970730E1
2.998409726E0,-3.214950085E0,-1.189605045E1,1.208805084E1,1.726189137E1
3.000372912E0,-4.018949986E0,-1.262400055E1,1.224105072E1,1.803775683E1
3.002336176E0,-4.747950077E0,-1.346700096E1,1.231800079E1,1.885832146E1
3.004298860E0,-5.245950222E0,-1.438695049E1,1.231800079E1,1.965292553E1
3.006261714E0,-5.706000328E0,-1.523100090E1,1.270095062E1,2.063627813E1
3.008224783E0,-6.166050434E0,-1.618905067E1,1.331505108E1,2.184939644E1
3.010187789E0,-6.396000385E0,-1.722405052E1,1.366005039E1,2.289484034E1
3.012150694E0,-6.357000351E0,-1.841205025E1,1.396605110E1,2.396801267E1
3.014113632E0,-6.088950157E0,-1.971495056E1,1.438800049E1,2.515490306E1
3.016076418E0,-5.668050289E0,-2.105595016E1,1.503900051E1,2.648870264E1
3.018039248E0,-5.131050110E0,-2.216805077E1,1.576800060E1,2.768356901E1
3.020002186E0,-4.708950043E0,-2.312595177E1,1.634205055E1,2.870620964E1
3.021965092E0,-4.288050175E0,-2.377800179E1,1.722405052E1,2.967235514E1
3.023927974E0,-3.904950142E0,-2.442900085E1,1.845000076E1,3.086142003E1
3.025890863E0,-3.138000250E0,-2.523405075E1,2.094195175E1,3.294191412E1
3.027853791E0,-2.065050125E0,-2.669100189E1,2.320305061E1,3.542676350E1
3.029816707E0,-1.068000078E0,-2.803200150E1,2.488905144E1,3.750198146E1
3.031780578E0,-1.870500147E-1,-2.925795174E1,2.607795143E1,3.919339585E1
3.033744169E0,7.320000529E-1,-3.006300163E1,2.577105141E1,3.960387584E1
3.035706983E0,1.422000051E0,-3.048495102E1,2.443005180E1,3.909196534E1
3.037670022E0,2.188950062E0,-3.056205177E1,2.316495132E1,3.841152797E1
3.039632880E0,2.764050245E0,-3.060000229E1,2.067300034E1,3.703205445E1
3.041595791E0,2.992950201E0,-3.067695236E1,1.779900169E1,3.559266242E1
3.043558581E0,3.453000069E0,-3.086805153E1,1.511595058E1,3.454347662E1
3.045521407E0,4.258049965E0,-3.125100136E1,1.247100067E1,3.391580654E1
3.047484696E0,5.215950012E0,-3.155805206E1,9.979950905E0,3.350695756E1
3.049447856E0,6.136050224E0,-3.178800201E1,7.066950321E0,3.313713885E1
3.051411775E0,7.132950306E0,-3.198000145E1,2.314950228E0,3.284750321E1
3.053375472E0,8.665950775E0,-3.228600311E1,-5.772000313E0,3.392345335E1
3.055338804E0,1.088895035E1,-3.236295319E1,-1.592805099E1,3.767801464E1
3.057302243E0,1.399305058E1,-3.228600311E1,-2.980305099E1,4.611304924E1
3.059265141E0,1.652295113E1,-3.186495209E1,-4.291095352E1,5.594401682E1
3.061228185E0,1.767300034E1,-3.075300217E1,-5.670900345E1,6.688791487E1
3.063191267E0,1.690605164E1,-2.941200066E1,-5.605695343E1,6.552299133E1
3.065154337E0,1.533495045E1,-2.803200150E1,-4.992495346E1,5.927440249E1
3.067117550E0,1.403205109E1,-2.630700111E1,-4.616895294E1,5.495933934E1
3.069080721E0,1.330395031E1,-2.485095024E1,-3.969195175E1,4.868280862E1
3.071043833E0,1.226895046E1,-2.343300056E1,-3.344400024E1,4.263958036E1
3.073006959E0,1.119600010E1,-2.220600128E1,-2.712000084E1,3.679607801E1
3.074970207E0,1.012200069E1,-2.105595016E1,-2.121795082E1,3.155961616E1
3.076933419E0,9.088050842E0,-1.998300171E1,-1.573695087E1,2.701045442E1
3.078896609E0,8.014050484E0,-1.871805000E1,-1.113705063E1,2.320828080E1
3.080859805E0,6.865050316E0,-1.760700035E1,-7.228050232E0,2.023314329E1
3.082822856E0,5.485050201E0,-1.668704987E1,-5.197050095E0,1.831809866E1
3.084785954E0,3.837000132E0,-1.588200092E1,-5.005050182E0,1.708833083E1
3.086748532E0,2.149950027E0,-1.496205044E1,-5.695050240E0,1.615298225E1
3.088711262E0,4.260000288E-1,-1.400400066E1,-6.232050419E0,1.533401327E1
3.090674217E0,-8.380500674E-1,-1.316100025E1,-6.997950554E0,1.492935255E1
3.092637106E0,-1.413000107E0,-1.258605099E1,-7.458000183E0,1.469785751E1
3.094600586E0,-1.642950058E0,-1.235595036E1,-7.495950222E0,1.454503571E1
3.096563885E0,-1.834950089E0,-1.189605045E1,-7.381050587E0,1.411959511E1
3.098527240E0,-1.950000048E0,-1.143600082E1,-7.228050232E0,1.366855242E1
3.100490578E0,-2.601000071E0,-1.101495075E1,-7.113000393E0,1.336746483E1
3.102453971E0,-3.138000250E0,-1.059300041E1,-7.036050320E0,1.309827116E1
3.104417347E0,-3.675000191E0,-1.024800014E1,-7.036050320E0,1.296275964E1
3.106380940E0,-4.134000301E0,-9.903000832E0,-7.075050354E0,1.285362678E1
3.108344482E0,-4.594050407E0,-9.595950127E0,-7.075050354E0,1.277669345E1
3.110307795E0,-4.594050407E0,-9.213000298E0,-7.305000305E0,1.262330001E1
3.112271176E0,-4.441050053E0,-8.791950226E0,-7.956000328E0,1.266172404E1
3.114234246E0,-4.134000301E0,-8.599950790E0,-8.722949982E0,1.292822372E1
3.116197407E0,-3.943050146E0,-8.332050323E0,-9.220950127E0,1.303827551E1
3.118160603E0,-3.598050117E0,-8.101950645E0,-9.604050636E0,1.307001750E1
3.120123789E0,-2.677950144E0,-7.948050499E0,-9.373950005E0,1.257830920E1
3.122086893E0,-1.297950029E0,-8.140049934E0,-9.451050758E0,1.254063187E1
3.124050022E0,1.570500135E-1,-8.446949959E0,-9.910950661E0,1.302315520E1
3.126013945E0,1.729050040E0,-8.791950226E0,-1.048605061E1,1.379294240E1
3.127977636E0,3.147000074E0,-9.097949982E0,-1.060095024E1,1.431979222E1
3.129940789E0,4.258049965E0,-9.021000862E0,-1.056300068E1,1.452881376E1
3.131904099E0,5.254950047E0,-8.868000031E0,-1.048605061E1,1.470418926E1
3.133867136E0,6.213000298E0,-8.638050079E0,-1.017900085E1,1.472512615E1
3.135830253E0,7.018050194E0,-8.446949959E0,-9.910950661E0,1.479293531E1
3.137793502E0,7.861050606E0,-8.178000450E0,-9.643050194E0,1.488839229E1
3.139756713E0,8.551050186E0,-8.025000572E0,-9.298050880E0,1.496578911E1
3.141719813E0,9.318000793E0,-7.756950378E0,-8.991000175E0,1.509415457E1
3.143682945E0,1.000695038E1,-7.642050266E0,-8.608050346E0,1.525249222E1
3.145646372E0,1.069695091E1,-7.219950199E0,-8.493000031E0,1.544938475E1
3.147609713E0,1.138695049E1,-6.798000336E0,-8.608050346E0,1.581056548E1
3.149572881E0,1.200000095E1,-6.684000492E0,-8.608050346E0,1.621031820E1
3.151536099E0,1.257495022E1,-6.529950142E0,-8.953050613E0,1.676086922E1
3.153499152E0,1.291995049E1,-6.415050507E0,-9.028950691E0,1.701763627E1
3.155462253E0,1.318905067E1,-6.223950386E0,-9.067950249E0,1.717312836E1
3.157425505E0,1.334205055E1,-6.147000313E0,-9.028950691E0,1.724290800E1
3.159388713E0,1.345695019E1,-5.994000435E0,-8.455050468E0,1.698544754E1
3.161351813E0,1.364895058E1,-5.955000401E0,-7.840950489E0,1.682962822E1
3.163314945E0,1.372500038E1,-5.878950119E0,-7.266000271E0,1.660519346E1
3.165278566E0,1.360995102E1,-5.802000046E0,-6.423000336E0,1.612913217E1
3.167242034E0,1.341900063E1,-5.610000134E0,-5.464950085E0,1.553728930E1
3.169205361E0,1.322700024E1,-5.341950417E0,-4.621950150E0,1.499507895E1
3.171168729E0,1.291995049E1,-5.149950027E0,-3.394950151E0,1.431687090E1
3.173131936E0,1.253700066E1,-4.843950272E0,-2.322000027E0,1.363935203E1
3.175095190E0,1.230705070E1,-4.575000286E0,-1.479000092E0,1.321293177E1
3.177058781E0,1.207695103E1,-4.345950127E0,-4.819500148E-1,1.284415448E1
3.179022270E0,1.192395020E1,-4.077000141E0,2.449500114E-1,1.260406755E1
3.180984917E0,1.184700012E1,-3.886050224E0,5.509500504E-1,1.248023815E1
3.182947811E0,1.169400024E1,-3.694050074E0,1.126049995E0,1.231517910E1
3.184911098E0,1.154100037E1,-3.426000118E0,1.471050024E0,1.212832035E1
3.186874270E0,1.123395061E1,-3.234000206E0,1.777950048E0,1.182461459E1
3.188837530E0,1.127205086E1,-3.081000090E0,1.624950051E0,1.179797248E1
3.190800751E0,1.115700054E1,-2.926950216E0,1.510050058E0,1.163296823E1
3.192764164E0,1.108095074E1,-2.812050104E0,1.050000072E0,1.148031337E1
3.194727520E0,1.100400066E1,-2.544000149E0,3.600000143E-1,1.129998086E1
3.196691495E0,1.081200027E1,-2.428950071E0,-1.759500057E-1,1.108287448E1
3.198655289E0,1.058205032E1,-2.314050198E0,-1.096050024E0,1.088742132E1
3.200618740E0,1.027605057E1,-2.122950077E0,-1.977000117E0,1.067767118E1
3.202582291E0,1.012200069E1,-2.122950077E0,-2.629050016E0,1.067116297E1
3.204545467E0,9.816000938E0,-1.816050053E0,-2.859000206E0,1.038391999E1
3.206508753E0,9.471000671E0,-1.624050021E0,-3.012000084E0,1.007023022E1
3.208472153E0,8.896050453E0,-1.509000063E0,-2.974050045E0,9.500619376E0
3.210435520E0,8.282999992E0,-1.318050027E0,-2.935050249E0,8.885936344E0
3.212398758E0,7.783950329E0,-1.011000037E0,-2.896950245E0,8.366858701E0
3.214362045E0,6.940950394E0,-7.810500264E-1,-2.974050045E0,7.591561446E0
3.216325221E0,5.983050346E0,-5.509500504E-1,-2.896950245E0,6.670289209E0
3.218288430E0,4.948050022E0,-7.429500222E-1,-2.629050016E0,5.652174603E0
3.220251664E0,3.913050175E0,-1.126049995E0,-2.551950216E0,4.805455251E0
3.222214890E0,3.031950235E0,-1.548000097E0,-2.629050016E0,4.301270803E0
3.224178157E0,2.227050066E0,-2.083950043E0,-2.935050249E0,4.232861886E0
3.226141419E0,1.459950089E0,-2.467050076E0,-3.357000113E0,4.414435422E0
3.228103925E0,8.850000501E-1,-2.851050138E0,-3.817050219E0,4.845780056E0
3.230066652E0,2.340000123E-1,-3.310950041E0,-4.468050003E0,5.566023447E0
3.232030103E0,-3.019500077E-1,-3.616950274E0,-4.966950417E0,6.151755809E0
3.233993342E0,-7.999500632E-1,-3.808950186E0,-5.311950207E0,6.585198298E0
3.235956747E0,-1.375050068E0,-3.886050224E0,-5.503050327E0,6.875733556E0
3.237920106E0,-1.834950089E0,-3.886050224E0,-5.617950439E0,7.073174345E0
3.239883361E0,-2.179949999E0,-3.886050224E0,-5.503050327E0,7.080757816E0
3.241846647E0,-2.448000193E0,-3.961950302E0,-5.197050095E0,6.978472958E0
3.243810183E0,-2.793000221E0,-4.000950336E0,-4.890000343E0,6.908006745E0
3.245773645E0,-2.908050060E0,-4.000950336E0,-4.315050125E0,6.563841583E0
3.247737076E0,-2.869950056E0,-4.153950214E0,-3.664050102E0,6.238363476E0
3.249700507E0,-2.677950144E0,-4.461000443E0,-2.820000172E0,5.918136775E0
3.251663838E0,-2.295000076E0,-5.188950062E0,-1.900950074E0,5.983798065E0
3.253627199E0,-2.065050125E0,-5.917050362E0,-9.810000658E-1,6.343364890E0
3.255589867E0,-1.950000048E0,-6.760050297E0,-6.105000153E-2,7.035943953E0
3.257552738E0,-1.567050099E0,-7.642050266E0,8.580000401E-1,7.848104380E0
3.259516435E0,-8.770500422E-1,-8.562000275E0,1.548000097E0,8.744905361E0
3.261479890E0,-2.250000089E-1,-9.520050049E0,2.046000004E0,9.740025357E0
3.263444299E0,2.719500065E-1,-1.040100002E1,2.314950228E0,1.065897522E1
3.265408428E0,6.169500351E-1,-1.105305099E1,2.391000032E0,1.132552183E1
3.267372047E0,6.550500393E-1,-1.143600082E1,2.200050116E0,1.166410845E1
3.269335815E0,7.699500322E-1,-1.181895065E1,1.777950048E0,1.197670756E1
3.271299329E0,6.940500140E-1,-1.235595036E1,1.471050024E0,1.246255202E1
3.273262907E0,7.320000529E-1,-1.323795033E1,1.318050027E0,1.332352839E1
3.275226439E0,9.619500637E-1,-1.454100037E1,1.356000066E0,1.463573626E1
3.277189984E0,1.306950092E0,-1.599705029E1,1.740000129E0,1.614439026E1
3.279153565E0,1.537050128E0,-1.733895111E1,2.583000183E0,1.759754638E1
3.281117135E0,2.111999989E0,-1.860300064E1,3.081000090E0,1.897431786E1
3.283080494E0,2.380050182E0,-1.998300171E1,3.310950041E0,2.039478822E1
3.285043912E0,2.341950178E0,-2.132505035E1,3.349050045E0,2.171309834E1
