"Time (s)","Acceleration x (m/s^2)","Acceleration y (m/s^2)","Acceleration z (m/s^2)","Absolute acceleration (m/s^2)"
3.597734900E-2,1.537050128E0,9.988050461E0,-2.475000143E0,1.040429242E1
3.793727300E-2,6.169500351E-1,9.220950127E0,-2.590050220E0,9.597651209E0
3.990011800E-2,-1.480500102E-1,8.455050468E0,-2.398950100E0,8.790037475E0
4.186183800E-2,4.200000316E-2,7.842000484E0,-2.322000027E0,8.178656352E0
4.382388700E-2,1.570500135E-1,7.342950344E0,-2.359950066E0,7.714463609E0
4.578604800E-2,-1.099500060E-1,6.922050476E0,-2.169000149E0,7.254752473E0
4.774818300E-2,-7.999500632E-1,6.270000458E0,-1.632000089E0,6.528112295E0
4.971016100E-2,-1.375050068E0,5.580000401E0,-1.402050018E0,5.915480658E0
5.167218500E-2,-1.758000135E0,4.929000378E0,-1.249050021E0,5.380124084E0
5.363395500E-2,-2.140950203E0,4.315950394E0,-9.040500522E-1,4.901877402E0
5.559580000E-2,-2.256000042E0,3.664050102E0,-5.590500236E-1,4.339047853E0
5.755661900E-2,-2.371050119E0,3.088950157E0,-6.105000153E-2,3.894511374E0
5.951773200E-2,-2.677950144E0,2.551950216E0,3.600000143E-1,3.716647265E0
6.147947800E-2,-2.908050060E0,2.053950071E0,7.429500222E-1,3.636954878E0
6.344103800E-2,-3.175950050E0,1.555950046E0,1.011000037E0,3.678282254E0
6.540311400E-2,-3.406050205E0,1.057950020E0,1.126049995E0,3.740110271E0
6.736503800E-2,-3.598050117E0,5.590500236E-1,1.087950110E0,3.800281176E0
6.932778200E-2,-3.712950230E0,-1.500000060E-2,9.730500579E-1,3.838365645E0
7.129027900E-2,-3.751050234E0,-3.979500234E-1,8.959500194E-1,3.877043786E0
7.325183400E-2,-3.904950142E0,-8.959500194E-1,7.050000429E-1,4.067970883E0
7.521366500E-2,-3.981000185E0,-1.471050024E0,5.899500251E-1,4.284902762E0
7.717645900E-2,-3.904950142E0,-2.008050203E0,4.360500276E-1,4.412600238E0
7.913897100E-2,-3.828000069E0,-2.544000149E0,2.070000172E-1,4.600909724E0
8.110085800E-2,-3.790050268E0,-2.965950251E0,5.295000225E-2,4.812914463E0
8.306291500E-2,-3.675000191E0,-3.387000084E0,-2.910000086E-1,5.006203849E0
8.502472500E-2,-3.520950079E0,-3.732000113E0,-7.510500550E-1,5.185459525E0
8.698660700E-2,-3.483000278E0,-4.077000141E0,-1.018950105E0,5.458157235E0
8.894831200E-2,-3.291000128E0,-4.345950127E0,-1.326000094E0,5.610369025E0
9.091006900E-2,-3.138000250E0,-4.575000286E0,-1.632000089E0,5.782827810E0
9.287227000E-2,-2.869950056E0,-4.843950272E0,-1.671000123E0,5.873049376E0
9.483435500E-2,-2.563050032E0,-4.959000111E0,-1.747050047E0,5.849195793E0
9.679598100E-2,-2.295000076E0,-5.112000465E0,-1.747050047E0,5.869561992E0
9.875774100E-2,-2.065050125E0,-5.188950062E0,-1.708950043E0,5.840389115E0
1.007194220E-1,-1.911000133E0,-5.265000343E0,-1.555950046E0,5.813185931E0
1.026811260E-1,-1.758000135E0,-5.265000343E0,-1.326000094E0,5.706931692E0
1.046428110E-1,-1.642950058E0,-5.304000378E0,-8.659500480E-1,5.619748605E0
1.066045060E-1,-1.567050099E0,-5.304000378E0,-3.670500219E-1,5.542814424E0
1.085656570E-1,-1.452000022E0,-5.265000343E0,3.600000143E-1,5.473402296E0
1.105269670E-1,-1.413000107E0,-5.074050426E0,9.349500537E-1,5.349456854E0
1.124887240E-1,-1.336950064E0,-4.920000076E0,1.585950017E0,5.339388886E0
1.144503500E-1,-1.297950029E0,-4.729050159E0,2.046000004E0,5.313633945E0
1.164123690E-1,-1.144950032E0,-4.537050247E0,2.314950228E0,5.220606294E0
1.183742730E-1,-1.030050039E0,-4.269000053E0,2.467950106E0,5.037473798E0
1.203366500E-1,-9.529500604E-1,-4.116000175E0,2.467950106E0,4.892887592E0
1.222988880E-1,-6.850500107E-1,-3.886050224E0,2.659050226E0,4.758279938E0
1.242606680E-1,-3.780000210E-1,-3.732000113E0,2.698050022E0,4.620625799E0
1.262225830E-1,-1.870500147E-1,-3.579000235E0,2.812950134E0,4.555976168E0
1.281847920E-1,1.189500093E-1,-3.387000084E0,2.812950134E0,4.404384989E0
1.301469040E-1,2.719500065E-1,-3.157050133E0,2.965950251E0,4.340251518E0
1.321094710E-1,5.410500169E-1,-2.926950216E0,3.004050255E0,4.228958574E0
1.340719040E-1,6.940500140E-1,-2.620950222E0,3.081000090E0,4.104101246E0
1.360336510E-1,8.089500666E-1,-2.351999998E0,3.043050051E0,3.930198190E0
1.379955990E-1,8.850000501E-1,-2.046000004E0,2.928000212E0,3.680017166E0
1.399577180E-1,9.619500637E-1,-1.777950048E0,3.004050255E0,3.620880036E0
1.419198030E-1,1.192050099E0,-1.471050024E0,3.310950041E0,3.814100390E0
1.438817900E-1,1.153950095E0,-1.240950108E0,3.310950041E0,3.719401587E0
1.458438050E-1,1.230000019E0,-9.340500236E-1,3.157950163E0,3.515394533E0
1.478058460E-1,1.269000053E0,-5.890500546E-1,3.081000090E0,3.383770479E0
1.497678800E-1,1.306950092E0,-4.360500276E-1,2.851050138E0,3.166503602E0
1.517298890E-1,1.306950092E0,-2.059500068E-1,2.620950222E0,2.935969008E0
1.536918960E-1,1.345050097E0,-1.290000081E-1,2.085000038E0,2.484557490E0
1.556533090E-1,1.459950089E0,-1.500000060E-2,1.701000094E0,2.241669152E0
1.576148960E-1,1.537050128E0,1.380000114E-1,1.356000066E0,2.054337674E0
1.595770110E-1,1.651950121E0,2.910000086E-1,8.959500194E-1,1.901669436E0
1.615389710E-1,1.804950118E0,4.060500264E-1,3.979500234E-1,1.892375696E0
1.635018740E-1,1.959000111E0,5.209500194E-1,-9.900000691E-2,2.029500273E0
1.654645050E-1,2.074050188E0,6.739500165E-1,-5.590500236E-1,2.251317334E0
1.674263980E-1,2.227050066E0,7.510500550E-1,-1.018950105E0,2.561657178E0
1.693885070E-1,2.188950062E0,9.040500522E-1,-1.287000060E0,2.695399418E0
1.713503080E-1,2.227050066E0,1.057950020E0,-1.708950043E0,2.999920081E0
1.733121990E-1,2.265000105E0,1.134000063E0,-2.092050076E0,3.285248109E0
1.752741720E-1,2.265000105E0,1.210950017E0,-2.130000114E0,3.336693859E0
1.772361200E-1,2.265000105E0,1.288050056E0,-2.245050192E0,3.439411110E0
1.791979950E-1,2.188950062E0,1.363950014E0,-2.398950100E0,3.522332125E0
1.811598910E-1,2.074050188E0,1.441050053E0,-2.475000143E0,3.536090376E0
1.831215480E-1,1.959000111E0,1.402950048E0,-2.590050220E0,3.537557126E0
1.850832760E-1,1.729050040E0,1.402950048E0,-2.743950129E0,3.533715493E0
1.870451550E-1,1.498950124E0,1.402950048E0,-2.629050016E0,3.335719458E0
1.890069800E-1,1.345050097E0,1.402950048E0,-2.551950216E0,3.207784049E0
1.909691450E-1,1.192050099E0,1.479000092E0,-2.398950100E0,3.059965080E0
1.929312110E-1,8.850000501E-1,1.479000092E0,-2.322000027E0,2.891772896E0
1.948921650E-1,4.260000288E-1,1.518000126E0,-1.939050078E0,2.499142976E0
1.968534440E-1,4.200000316E-2,1.518000126E0,-1.479000092E0,2.119794720E0
1.988151420E-1,-3.400500119E-1,1.479000092E0,-1.057050109E0,1.849440514E0
2.007767310E-1,-6.850500107E-1,1.555950046E0,-7.120500207E-1,1.843173701E0
2.027386210E-1,-1.030050039E0,1.555950046E0,-2.910000086E-1,1.888561525E0
2.047004230E-1,-1.222050071E0,1.518000126E0,-2.205000073E-2,1.948901475E0
2.066617370E-1,-1.489950061E0,1.518000126E0,3.600000143E-1,2.157284306E0
2.086231940E-1,-1.642950058E0,1.555950046E0,8.200500607E-1,2.406812735E0
2.105851510E-1,-1.873050094E0,1.518000126E0,1.203000069E0,2.694410919E0
2.125469610E-1,-2.065050125E0,1.555950046E0,1.585950017E0,3.033257328E0
2.145089940E-1,-2.140950203E0,1.633050084E0,2.122950077E0,3.428911982E0
2.164709610E-1,-2.218050003E0,1.824000120E0,2.889000177E0,4.073456061E0
2.184331020E-1,-2.256000042E0,2.016000032E0,3.808950186E0,4.864349272E0
2.203951920E-1,-2.179949999E0,2.437050104E0,4.882050037E0,5.875866555E0
2.223569980E-1,-2.103000164E0,2.859000206E0,6.223950386E0,7.164778453E0
2.243188870E-1,-1.950000048E0,3.319050074E0,7.680000305E0,8.590750739E0
2.262809490E-1,-1.605000019E0,3.817050219E0,8.983950615E0,9.892283158E0
2.282429610E-1,-1.183050036E0,4.392000198E0,1.009500027E1,1.107241182E1
2.302051390E-1,-8.770500422E-1,5.082000256E0,1.082295036E1,1.198883639E1
2.321672690E-1,-6.469500065E-1,5.964000225E0,1.105305099E1,1.257607965E1
2.341293830E-1,-4.549500346E-1,7.152000427E0,1.093800068E1,1.307661839E1
2.360915020E-1,-3.019500077E-1,8.455050468E0,1.001805019E1,1.311260393E1
2.380534810E-1,-2.629500031E-1,1.014105034E1,8.524050713E0,1.325026359E1
2.400155020E-1,-1.480500102E-1,1.194300079E1,6.454050541E0,1.357615392E1
2.419773630E-1,-3.299999982E-2,1.393605042E1,4.153950214E0,1.454200442E1
2.439392710E-1,8.100000024E-2,1.592895031E1,2.046000004E0,1.606001666E1
2.459018450E-1,4.200000316E-2,1.799805069E1,2.449500114E-1,1.799976647E1
2.478642110E-1,-3.299999982E-2,1.976205063E1,-1.441050053E0,1.981454918E1
2.498261040E-1,-1.870500147E-1,2.137095070E1,-2.820000172E0,2.155701562E1
2.517881360E-1,-2.250000089E-1,2.298105049E1,-3.280050039E0,2.321503898E1
2.537498150E-1,-3.019500077E-1,2.455200195E1,-2.667000055E0,2.469827652E1
2.557115980E-1,4.200000316E-2,2.604705048E1,-1.555950046E0,2.609351611E1
2.576736240E-1,5.020500422E-1,2.742705154E1,-2.205000073E-2,2.743165501E1
2.596355860E-1,1.114950061E0,2.876895142E1,1.893000126E0,2.885271441E1
2.615974130E-1,1.959000111E0,2.984205055E1,3.426000118E0,3.010187933E1
2.635592800E-1,3.607050180E0,3.045495224E1,4.461000443E0,3.099057037E1
2.655212570E-1,5.905950069E0,3.103005219E1,4.000950336E0,3.183947218E1
2.674832010E-1,7.899000168E0,3.141300201E1,2.851050138E0,3.251614039E1
2.694450180E-1,9.394050598E0,3.137505150E1,1.969950080E0,3.281040607E1
2.714068820E-1,1.027605057E1,3.103005219E1,1.240950108E0,3.271087451E1
2.733696700E-1,1.031400013E1,3.068505096E1,4.750500321E-1,3.237555596E1
2.753321870E-1,9.471000671E0,3.049305153E1,-3.670500219E-1,3.193212757E1
2.772940990E-1,7.477950573E0,3.030195236E1,-1.134000063E0,3.123161888E1
2.792561890E-1,3.721950293E0,2.984205055E1,-1.747050047E0,3.012396187E1
2.812172600E-1,1.570500135E-1,2.857695198E1,-1.900950074E0,2.864053876E1
2.831786070E-1,-2.295000076E0,2.696700096E1,-1.786050081E0,2.712335048E1
2.851402220E-1,-4.134000301E0,2.528100204E1,-1.861950040E0,2.568435089E1
2.871017590E-1,-5.398950100E0,2.355600166E1,-2.206950188E0,2.426735473E1
2.890636130E-1,-6.051000118E0,2.206095123E1,-2.514000177E0,2.301348232E1
2.910253740E-1,-6.319050312E0,2.083500099E1,-2.551950216E0,2.192122517E1
2.929870280E-1,-6.396000385E0,1.976205063E1,-2.475000143E0,2.091824782E1
2.949487330E-1,-6.586950302E0,1.838205147E1,-2.629050016E0,1.970278240E1
2.969107830E-1,-6.970950127E0,1.792200089E1,-2.398950100E0,1.937904082E1
2.988727310E-1,-7.468950272E0,1.734705162E1,-1.786050081E0,1.897090912E1
3.008347400E-1,-7.891050339E0,1.692495155E1,-1.441050053E0,1.872963656E1
3.027967310E-1,-8.158950806E0,1.657995033E1,-1.516950130E0,1.854088372E1
3.047587230E-1,-8.464950562E0,1.635000038E1,-1.708950043E0,1.849049515E1
3.067207210E-1,-8.580000877E0,1.612005043E1,-2.014950037E0,1.837205662E1
3.086829460E-1,-8.695050240E0,1.596705055E1,-2.398950100E0,1.833863582E1
3.106451050E-1,-8.656949997E0,1.573695087E1,-2.743950129E0,1.816930567E1
3.126072140E-1,-8.580000877E0,1.566000080E1,-3.012000084E0,1.810867705E1
3.145693380E-1,-8.809950829E0,1.562205029E1,-3.049950123E0,1.819246779E1
3.165315010E-1,-8.925000191E0,1.558395100E1,-2.704950094E0,1.816127507E1
3.184936490E-1,-8.925000191E0,1.562205029E1,-2.359950066E0,1.814589342E1
3.204558040E-1,-9.079050064E0,1.558395100E1,-2.169000149E0,1.816571607E1
3.224179570E-1,-9.001950264E0,1.535400105E1,-1.900950074E0,1.789955496E1
3.243799320E-1,-8.580000877E0,1.520100117E1,-1.977000117E0,1.756688308E1
3.263419590E-1,-7.891050339E0,1.508595085E1,-2.092050076E0,1.715317061E1
3.283040170E-1,-7.431000233E0,1.485600090E1,-2.206950188E0,1.675682417E1
3.302660530E-1,-7.201050282E0,1.439595032E1,-2.130000114E0,1.623685349E1
3.322282270E-1,-6.931950092E0,1.408905029E1,-2.130000114E0,1.584582503E1
3.341903600E-1,-6.586950302E0,1.408905029E1,-2.206950188E0,1.570859260E1
3.361522930E-1,-6.204000473E0,1.428105068E1,-2.130000114E0,1.571543607E1
3.381142850E-1,-5.859000206E0,1.454895115E1,-1.977000117E0,1.580849115E1
3.400761370E-1,-5.476050377E0,1.489395046E1,-1.671000123E0,1.595647610E1
3.420380400E-1,-5.169000149E0,1.520100117E1,-1.171950102E0,1.609852372E1
3.439998310E-1,-5.016000271E0,1.543095112E1,-9.420000315E-1,1.625305741E1
3.459616550E-1,-4.863000393E0,1.573695087E1,-7.510500550E-1,1.648831319E1
3.479233700E-1,-4.633050442E0,1.600500107E1,-6.360000372E-1,1.667422297E1
3.498851170E-1,-4.210950375E0,1.646505165E1,-1.369500011E-1,1.699555190E1
3.518467590E-1,-3.904950142E0,1.692495155E1,1.680000126E-1,1.737040140E1
3.538084290E-1,-3.483000278E0,1.750005150E1,2.830500007E-1,1.784553756E1
3.557694490E-1,-3.291000128E0,1.773000145E1,5.899500251E-1,1.804249634E1
3.577306600E-1,-3.061050177E0,1.773000145E1,1.087950110E0,1.802516616E1
3.596922540E-1,-3.100050211E0,1.776900101E1,1.432950020E0,1.809422709E1
3.616537350E-1,-3.061050177E0,1.765395164E1,1.624950051E0,1.799090046E1
3.636158240E-1,-2.946000099E0,1.742400169E1,2.046000004E0,1.778934703E1
3.655777350E-1,-3.061050177E0,1.723200035E1,2.467950106E0,1.767491562E1
3.675395710E-1,-3.100050211E0,1.704000092E1,2.698050022E0,1.752858855E1
3.695014290E-1,-3.100050211E0,1.688700104E1,2.928000212E0,1.741706923E1
3.714632730E-1,-2.985000134E0,1.654200172E1,2.812950134E0,1.704290865E1
3.734251220E-1,-2.869950056E0,1.627395058E1,2.545050144E0,1.671990912E1
3.753872820E-1,-2.485950232E0,1.577505112E1,2.314950228E0,1.613664094E1
3.773493500E-1,-2.256000042E0,1.566000080E1,2.353049994E0,1.599568709E1
3.793116990E-1,-2.140950203E0,1.566000080E1,2.467950106E0,1.599718946E1
3.812739660E-1,-1.911000133E0,1.562205029E1,2.430000067E0,1.592498907E1
3.832359660E-1,-1.720050097E0,1.577505112E1,2.275950193E0,1.603093133E1
3.851980450E-1,-1.605000019E0,1.585200119E1,2.275950193E0,1.609477916E1
3.871601850E-1,-1.413000107E0,1.581405067E1,2.467950106E0,1.606771750E1
3.891222930E-1,-1.183050036E0,1.585200119E1,2.200050116E0,1.604760947E1
3.910844990E-1,-7.230000496E-1,1.558395100E1,1.663050056E0,1.568910428E1
3.930466770E-1,-3.019500077E-1,1.523895073E1,1.240950108E0,1.529237556E1
3.950095480E-1,4.050000105E-3,1.489395046E1,5.899500251E-1,1.490563041E1
3.969722160E-1,2.340000123E-1,1.451100063E1,2.830500007E-1,1.451564717E1
3.989339370E-1,2.340000123E-1,1.428105068E1,1.680000126E-1,1.428395564E1
4.008959250E-1,1.570500135E-1,1.405095100E1,2.449500114E-1,1.405396347E1
4.028570250E-1,1.189500093E-1,1.382100105E1,6.280500293E-1,1.383577486E1
4.048183860E-1,4.200000316E-2,1.355205059E1,1.165050030E0,1.360210207E1
4.067804950E-1,1.570500135E-1,1.332300091E1,1.548000097E0,1.341354995E1
4.087423840E-1,2.340000123E-1,1.305405045E1,1.893000126E0,1.319266609E1
4.107045980E-1,2.719500065E-1,1.305405045E1,1.893000126E0,1.319339378E1
4.126667060E-1,4.639500082E-1,1.293900108E1,1.855050087E0,1.307953399E1
4.146292280E-1,6.550500393E-1,1.286295033E1,1.624950051E0,1.298171962E1
4.165916290E-1,1.000050068E0,1.263300037E1,1.471050024E0,1.275761681E1
4.185535610E-1,1.306950092E0,1.228800011E1,1.432950020E0,1.244011298E1
4.205156310E-1,1.614000082E0,1.171305084E1,1.356000066E0,1.190123071E1
4.224777790E-1,1.920000076E0,1.098495007E1,1.318050027E0,1.122910433E1
4.244399180E-1,2.265000105E0,1.010295010E1,1.395000100E0,1.044728919E1
4.264020750E-1,2.533950090E0,9.336000443E0,1.624950051E0,9.809295081E0
4.283642260E-1,2.686950207E0,8.569950104E0,1.930950046E0,9.186528957E0
4.303260210E-1,2.917050123E0,7.765050411E0,2.122950077E0,8.562248907E0
4.322879200E-1,3.453000069E0,6.960000515E0,2.085000038E0,8.044379516E0
4.342502370E-1,3.645000219E0,6.385050297E0,2.200050116E0,7.674315240E0
4.362124420E-1,3.798000097E0,5.580000401E0,2.085000038E0,7.064590177E0
4.381744530E-1,4.105050087E0,4.813950062E0,1.855050087E0,6.592932749E0
4.401365210E-1,4.411950111E0,4.009050369E0,1.624950051E0,6.178855179E0
4.420986440E-1,4.717950344E0,3.280950069E0,1.510050058E0,5.941711873E0
4.440607500E-1,4.872000217E0,2.551950216E0,1.356000066E0,5.664589323E0
4.460227920E-1,4.948050022E0,1.786050081E0,1.126049995E0,5.379699109E0
4.479848430E-1,4.795050144E0,1.096050024E0,9.349500537E-1,5.006791702E0
4.499476900E-1,4.564949989E0,2.910000086E-1,6.280500293E-1,4.617130738E0
4.519103030E-1,4.372950077E0,-2.440500110E-1,6.280500293E-1,4.424556432E0
4.538721990E-1,4.066950321E0,-7.039500475E-1,5.899500251E-1,4.169373048E0
4.558343050E-1,3.913050175E0,-1.240950108E0,7.050000429E-1,4.165206345E0
4.577965060E-1,3.682950258E0,-1.663050056E0,8.959500194E-1,4.139152634E0
4.597586820E-1,3.415050268E0,-2.046000004E0,1.050000072E0,4.117181621E0
4.617209680E-1,3.262050152E0,-2.467050076E0,1.203000069E0,4.263158035E0
4.636832210E-1,3.031950235E0,-2.889000177E0,1.087950110E0,4.326971192E0
4.656453590E-1,2.802000046E0,-3.157050133E0,1.050000072E0,4.349789644E0
4.676075300E-1,2.686950207E0,-3.541050196E0,8.959500194E-1,4.534475090E0
4.695695460E-1,2.533950090E0,-3.847050190E0,8.580000401E-1,4.685815008E0
4.715316070E-1,2.380050182E0,-4.077000141E0,8.580000401E-1,4.798201026E0
4.734935520E-1,2.188950062E0,-4.306950092E0,7.810500264E-1,4.894012731E0
4.754555310E-1,1.959000111E0,-4.537050247E0,7.050000429E-1,4.991946658E0
4.774173990E-1,1.767000079E0,-4.767000198E0,8.200500607E-1,5.149666229E0
4.793793000E-1,1.498950124E0,-4.843950272E0,8.580000401E-1,5.142652018E0
4.813415340E-1,1.345050097E0,-4.959000111E0,7.429500222E-1,5.191610212E0
4.833036430E-1,1.269000053E0,-4.996950150E0,6.660000086E-1,5.198406289E0
4.852655810E-1,1.269000053E0,-5.035050392E0,4.750500321E-1,5.214188923E0
4.872275690E-1,1.192050099E0,-4.959000111E0,3.220500052E-1,5.110418940E0
4.891903360E-1,1.153950095E0,-4.843950272E0,-2.205000073E-2,4.979552315E0
4.911528740E-1,1.230000019E0,-4.729050159E0,-1.759500057E-1,4.889557635E0
4.931148220E-1,1.192050099E0,-4.537050247E0,-3.670500219E-1,4.705372897E0
4.950769150E-1,1.192050099E0,-4.192049980E0,-4.819500148E-1,4.384808125E0
4.970390330E-1,1.077000022E0,-3.771000147E0,-4.440000355E-1,3.946835085E0
4.990011440E-1,1.000050068E0,-3.387000084E0,-3.670500219E-1,3.550576774E0
5.009633050E-1,1.000050068E0,-2.926950216E0,-9.900000691E-2,3.094662939E0
5.029254520E-1,9.619500637E-1,-2.544000149E0,5.295000225E-2,2.720310347E0
5.048873070E-1,1.000050068E0,-2.161050081E0,1.300500035E-1,2.384774747E0
5.068492370E-1,1.077000022E0,-1.816050053E0,2.449500114E-1,2.125551069E0
5.088113830E-1,1.192050099E0,-1.509000063E0,3.220500052E-1,1.949815590E0
5.107734660E-1,1.306950092E0,-1.203000069E0,2.449500114E-1,1.793133631E0
5.127354980E-1,1.306950092E0,-8.959500194E-1,1.300500035E-1,1.589892444E0
5.146975450E-1,1.384050012E0,-6.280500293E-1,1.300500035E-1,1.525435766E0
5.166596380E-1,1.498950124E0,-2.830500007E-1,9.195000678E-2,1.528209272E0
5.186217400E-1,1.651950121E0,-9.105000645E-2,1.680000126E-1,1.662965216E0
5.205822820E-1,1.804950118E0,9.900000691E-2,2.449500114E-1,1.824183773E0
5.225432810E-1,1.959000111E0,4.440000355E-1,3.600000143E-1,2.040690441E0
5.245056770E-1,2.149950027E0,7.129500508E-1,4.750500321E-1,2.314358535E0
5.264676640E-1,2.341950178E0,9.430500269E-1,6.660000086E-1,2.611059172E0
5.284298650E-1,2.457000017E0,1.173000097E0,8.580000401E-1,2.854635245E0
5.303919900E-1,2.686950207E0,1.326000094E0,1.050000072E0,3.174976821E0
5.323541490E-1,2.802000046E0,1.479000092E0,1.279950023E0,3.417150507E0
5.343162980E-1,2.992950201E0,1.594050050E0,1.471050024E0,3.696313656E0
5.362782740E-1,3.184950113E0,1.594050050E0,1.471050024E0,3.853425873E0
5.382403000E-1,3.415050268E0,1.633050084E0,1.510050058E0,4.075496545E0
5.402024100E-1,3.607050180E0,1.671000123E0,1.585950017E0,4.279987135E0
5.421645090E-1,3.913050175E0,1.747950077E0,1.585950017E0,4.569740539E0
5.441267170E-1,4.143000126E0,1.747950077E0,1.585950017E0,4.768125100E0
5.460888930E-1,4.335000038E0,1.747950077E0,1.548000097E0,4.923805348E0
5.480512240E-1,4.642050266E0,1.786050081E0,1.510050058E0,5.197966597E0
5.500135090E-1,4.872000217E0,1.786050081E0,1.471050024E0,5.393546995E0
5.519756460E-1,5.062950134E0,1.786050081E0,1.432950020E0,5.556688287E0
5.539378230E-1,5.370000362E0,1.747950077E0,1.395000100E0,5.817066154E0
5.559001520E-1,5.523000240E0,1.824000120E0,1.318050027E0,5.963871559E0
5.578624370E-1,5.715000153E0,1.824000120E0,1.279950023E0,6.134042325E0
5.598243890E-1,5.944950104E0,1.863000035E0,1.165050030E0,6.338023544E0
5.617864390E-1,6.250950336E0,1.863000035E0,1.087950110E0,6.612774356E0
5.637483850E-1,6.481050491E0,1.939050078E0,9.349500537E-1,6.829206563E0
5.657103620E-1,6.634950161E0,2.092950106E0,5.509500504E-1,6.979007791E0
5.676723650E-1,6.787950516E0,2.245950222E0,2.830500007E-1,7.155465178E0
5.696343600E-1,7.056000233E0,2.322000027E0,3.600000143E-1,7.436963320E0
5.715961820E-1,7.324050426E0,2.476050138E0,8.959500194E-1,7.783011331E0
5.735580540E-1,7.363050461E0,2.706000090E0,1.663050056E0,8.018895439E0
5.755201010E-1,7.363050461E0,3.012000084E0,2.928000212E0,8.477018452E0
5.774821100E-1,7.285950184E0,3.241950035E0,4.537950039E0,9.175418283E0
5.794442890E-1,7.056000233E0,3.472050190E0,6.186000347E0,1.000544212E1
5.814064180E-1,6.787950516E0,3.778950214E0,7.680000305E0,1.092424559E1
5.833681710E-1,6.595950127E0,4.085999966E0,9.098999977E0,1.195799960E1
5.853300350E-1,5.944950104E0,4.392000198E0,1.001805019E1,1.244963562E1
5.872918970E-1,5.638050079E0,4.813950062E0,1.059300041E1,1.292955458E1
5.892537470E-1,5.370000362E0,5.427000046E0,1.090005016E1,1.330790468E1
5.912157720E-1,5.331000328E0,6.001950264E0,1.090005016E1,1.353713652E1
5.931777450E-1,5.446050167E0,6.538950443E0,1.101495075E1,1.391928430E1
5.951396150E-1,5.370000362E0,7.189950466E0,1.113000011E1,1.429717434E1
5.971015160E-1,5.025000095E0,8.071949959E0,1.101495075E1,1.455115604E1
5.990632880E-1,4.642050266E0,9.259950638E0,9.865050316E0,1.430435368E1
6.010251120E-1,4.143000126E0,1.060095024E1,7.909950256E0,1.386044404E1
6.029866470E-1,3.529950142E0,1.221105099E1,5.572050095E0,1.387869073E1
6.049482660E-1,2.649000168E0,1.385895061E1,2.928000212E0,1.441044410E1
6.069102850E-1,1.537050128E0,1.577505112E1,2.449500114E-1,1.585164854E1
6.088721870E-1,3.870000243E-1,1.784505081E1,-2.359950066E0,1.800458197E1
6.108340440E-1,-1.106999993E0,2.002995110E1,-4.507050037E0,2.056059070E1
6.127959010E-1,-2.524950027E0,2.206095123E1,-6.232050419E0,2.306294418E1
6.147577890E-1,-4.096050262E0,2.409300041E1,-7.266000271E0,2.549598118E1
6.167196680E-1,-5.169000149E0,2.597100067E1,-7.420050144E0,2.750033786E1
6.186815090E-1,-6.088950157E0,2.792505074E1,-7.075050354E0,2.944384673E1
6.206433620E-1,-6.702000141E0,3.014805222E1,-5.887050152E0,3.144008934E1
6.226053810E-1,-7.086000443E0,3.237105179E1,-4.429950237E0,3.343233248E1
6.245673550E-1,-7.276950359E0,3.474795151E1,-2.704950094E0,3.560464711E1
6.265291800E-1,-7.392000198E0,3.720105362E1,-9.420000315E-1,3.794005036E1
6.284910490E-1,-7.392000198E0,3.965400314E1,2.449500114E-1,4.033784368E1
6.304523060E-1,-7.392000198E0,4.218300247E1,8.580000401E-1,4.283437321E1
6.324137420E-1,-7.813950539E0,4.406100082E1,7.810500264E-1,4.475533103E1
6.343767510E-1,-8.503950119E0,4.498095322E1,1.300500035E-1,4.577794483E1
6.363393220E-1,-9.309000015E0,4.494300079E1,-6.739500165E-1,4.590190639E1
6.383011800E-1,-1.011405087E1,4.394595337E1,-1.249050021E0,4.511209337E1
6.402632470E-1,-1.068795013E1,4.214505386E1,-1.632000089E0,4.350978358E1
6.422252810E-1,-1.095705032E1,3.988395309E1,-2.284050226E0,4.142467322E1
6.441873240E-1,-1.076505089E1,3.750705338E1,-2.743950129E0,3.911770233E1
6.461491550E-1,-1.022895050E1,3.513105011E1,-3.165000200E0,3.672654811E1
6.481110350E-1,-9.615000725E0,3.279300308E1,-3.433950186E0,3.434561550E1
6.500730550E-1,-8.964000702E0,3.087705231E1,-3.357000113E0,3.232669358E1
6.520350330E-1,-8.389050484E0,2.926695061E1,-3.394950151E0,3.063423334E1
6.539968580E-1,-7.737000465E0,2.792505074E1,-3.549000263E0,2.919357871E1
6.559587280E-1,-7.239000320E0,2.673705101E1,-3.664050102E0,2.794097861E1
6.579209240E-1,-6.625950336E0,2.566395187E1,-3.931950092E0,2.679555700E1
6.598830280E-1,-6.241950512E0,2.470605087E1,-4.507050037E0,2.587787464E1
6.618448310E-1,-5.629050255E0,2.393895149E1,-4.966950417E0,2.508844758E1
6.638067230E-1,-5.131050110E0,2.321100044E1,-5.119950294E0,2.431649867E1
6.657686950E-1,-4.671000004E0,2.255895042E1,-5.695050240E0,2.373095199E1
6.677306440E-1,-4.210950375E0,2.202300072E1,-6.232050419E0,2.327193838E1
6.696923190E-1,-3.790050268E0,2.148600197E1,-6.460950375E0,2.275426644E1
6.716540880E-1,-3.598050117E0,2.106495094E1,-6.805950165E0,2.242764099E1
6.736160820E-1,-3.367950201E0,2.068095016E1,-7.150950432E0,2.214002891E1
6.755780100E-1,-3.214950085E0,2.045100021E1,-7.150950432E0,2.190240639E1
6.775397080E-1,-3.138000250E0,2.010600090E1,-7.266000271E0,2.160770876E1
6.795014730E-1,-3.253050089E0,1.991505051E1,-6.997950554E0,2.135797002E1
6.814634520E-1,-3.330000162E0,1.964700127E1,-6.615000248E0,2.099647085E1
6.834253790E-1,-3.367950201E0,1.926300049E1,-6.346950531E0,2.055942746E1
6.853868970E-1,-3.445050240E0,1.880295181E1,-6.730050087E0,2.026605394E1
6.873485350E-1,-3.214950085E0,1.842000008E1,-6.154950142E0,1.968541892E1
6.893102360E-1,-3.100050211E0,1.799805069E1,-5.848050117E0,1.917654375E1
6.912719180E-1,-3.022950172E0,1.757700157E1,-5.388000488E0,1.863115029E1
6.932339030E-1,-3.022950172E0,1.696395111E1,-5.197050095E0,1.799786639E1
6.951958160E-1,-2.869950056E0,1.631204987E1,-4.927950382E0,1.728017011E1
6.971578760E-1,-2.640000105E0,1.581405067E1,-4.736999989E0,1.671804319E1
6.991198930E-1,-2.295000076E0,1.539195061E1,-4.582950115E0,1.622290358E1
7.010820700E-1,-2.026050091E0,1.493205070E1,-4.123950005E0,1.562299526E1
7.030442000E-1,-1.681950092E0,1.439595032E1,-3.739950180E0,1.496861948E1
7.050065280E-1,-1.297950029E0,1.382100105E1,-3.702000141E0,1.436696034E1
7.069687730E-1,-7.999500632E-1,1.328400040E1,-3.549000263E0,1.377316193E1
7.089305520E-1,-2.629500031E-1,1.278600025E1,-3.433950186E0,1.324171284E1
7.108924670E-1,1.570500135E-1,1.224900055E1,-3.280050039E0,1.268153805E1
7.128552020E-1,5.020500422E-1,1.175100040E1,-3.165000200E0,1.218011868E1
7.148176960E-1,8.089500666E-1,1.121400070E1,-3.204000235E0,1.169075829E1
7.167795980E-1,1.114950061E0,1.063995075E1,-3.241950035E0,1.117863613E1
7.187416840E-1,1.306950092E0,1.014105034E1,-3.241950035E0,1.072656798E1
7.207034890E-1,1.614000082E0,9.528000832E0,-3.204000235E0,1.018103205E1
7.226653760E-1,2.035050154E0,9.030000687E0,-3.241950035E0,9.807781684E0
7.246273940E-1,2.457000017E0,8.532000542E0,-3.319050074E0,9.478817211E0
7.265893740E-1,3.108000040E0,8.032950401E0,-3.586950064E0,9.330282266E0
7.285512180E-1,3.453000069E0,7.573050499E0,-3.739950180E0,9.124775651E0
7.305130880E-1,3.682950258E0,7.075050354E0,-3.664050102E0,8.777569326E0
7.324747490E-1,4.027950287E0,6.538950443E0,-3.394950151E0,8.396900794E0
7.344364720E-1,4.219950199E0,6.079050064E0,-3.241950035E0,8.079175044E0
7.363983390E-1,4.297049999E0,5.580000401E0,-2.896950245E0,7.615337411E0
7.383601630E-1,4.219950199E0,5.119950294E0,-2.398950100E0,7.055269824E0
7.403221740E-1,4.066950321E0,4.699050426E0,-2.092050076E0,6.557273316E0
7.422841440E-1,3.913050175E0,4.315950394E0,-1.824000120E0,6.104618408E0
7.442458340E-1,3.529950142E0,3.894000292E0,-1.210950017E0,5.393531887E0
7.462076070E-1,3.184950113E0,3.511050224E0,-8.659500480E-1,4.818843262E0
7.481692860E-1,2.764050245E0,3.127050161E0,-4.819500148E-1,4.201272698E0
7.501309920E-1,2.494950056E0,2.782050133E0,-2.205000073E-2,3.736986075E0
7.520919610E-1,2.304000139E0,2.514000177E0,6.660000086E-1,3.474502777E0
7.540531460E-1,1.804950118E0,2.092950106E0,1.165050030E0,2.999271019E0
7.560148790E-1,1.345050097E0,1.863000035E0,1.356000066E0,2.668082658E0
7.579764510E-1,9.619500637E-1,1.518000126E0,1.471050024E0,2.322425560E0
7.599374890E-1,4.260000288E-1,1.134000063E0,1.471050024E0,1.905628595E0
7.618986840E-1,4.200000316E-2,6.739500165E-1,1.471050024E0,1.618629296E0
7.638620570E-1,-3.400500119E-1,9.900000691E-2,1.471050024E0,1.513083998E0
7.658247780E-1,-6.079500318E-1,-3.210000098E-1,1.432950020E0,1.589336342E0
7.677868360E-1,-7.230000496E-1,-8.190000653E-1,1.356000066E0,1.741328906E0
7.697490880E-1,-8.770500422E-1,-1.432950020E0,1.279950023E0,2.112068795E0
7.717110900E-1,-1.030050039E0,-1.854000092E0,1.011000037E0,2.349561767E0
7.736731650E-1,-1.106999993E0,-2.391000032E0,8.959500194E-1,2.782994175E0
7.756352710E-1,-1.106999993E0,-2.851050138E0,5.130000114E-1,3.101145738E0
7.775973780E-1,-1.260000110E0,-3.310950041E0,4.360500276E-1,3.569331881E0
7.795597660E-1,-1.260000110E0,-3.694050074E0,3.220500052E-1,3.916289370E0
7.815220710E-1,-1.297950029E0,-4.039050102E0,2.449500114E-1,4.249541212E0
7.834828930E-1,-1.452000022E0,-4.345950127E0,2.070000172E-1,4.586767443E0
7.854441500E-1,-1.413000107E0,-4.575000286E0,3.600000143E-1,4.801749361E0
7.874062950E-1,-1.489950061E0,-4.767000198E0,5.130000114E-1,5.020698267E0
7.893681670E-1,-1.452000022E0,-4.920000076E0,8.580000401E-1,5.201044980E0
7.913298740E-1,-1.489950061E0,-4.996950150E0,1.395000100E0,5.397729825E0
7.932916300E-1,-1.489950061E0,-4.996950150E0,1.930950046E0,5.560398372E0
7.952532660E-1,-1.642950058E0,-4.959000111E0,2.467950106E0,5.777693719E0
7.972149380E-1,-1.720050097E0,-4.959000111E0,3.004050255E0,6.047691491E0
7.991768130E-1,-1.834950089E0,-4.959000111E0,3.388050079E0,6.279936884E0
8.011386280E-1,-1.987950087E0,-4.843950272E0,3.579000235E0,6.342321536E0
8.031006600E-1,-2.140950203E0,-4.690050125E0,3.808950186E0,6.410018679E0
8.050626280E-1,-2.218050003E0,-4.422000408E0,4.039050102E0,6.386529508E0
8.070244990E-1,-1.681950092E0,-4.192049980E0,4.231050014E0,6.189024428E0
8.089863990E-1,-9.919500351E-1,-3.961950302E0,4.308000088E0,5.936318710E0
8.109481960E-1,-4.930500090E-1,-3.771000147E0,4.384050369E0,5.803743452E0
8.129100200E-1,-1.870500147E-1,-3.387000084E0,4.384050369E0,5.543162898E0
8.148720490E-1,4.200000316E-2,-3.196050167E0,4.423050404E0,5.457094057E0
8.168340180E-1,1.960500032E-1,-2.851050138E0,4.384050369E0,5.233241838E0
8.187962480E-1,2.719500065E-1,-2.544000149E0,4.384050369E0,5.076001498E0
8.207584020E-1,2.340000123E-1,-2.238000154E0,4.308000088E0,4.860274216E0
8.227205320E-1,3.490500152E-1,-2.008050203E0,4.153950214E0,4.627029708E0
8.246826550E-1,3.870000243E-1,-1.738950133E0,3.963000298E0,4.345007243E0
8.266453990E-1,6.169500351E-1,-1.471050024E0,3.924000263E0,4.235846265E0
8.286079610E-1,7.320000529E-1,-1.318050027E0,3.886050224E0,4.168268981E0
8.305696850E-1,8.089500666E-1,-1.087950110E0,3.771000147E0,4.007303053E0
8.325316550E-1,8.470500112E-1,-7.810500264E-1,3.808950186E0,3.979401259E0
8.344937740E-1,9.240000248E-1,-5.509500504E-1,3.733050108E0,3.884969126E0
8.364558640E-1,1.000050068E0,-2.440500110E-1,3.502950191E0,3.651071157E0
8.384173090E-1,9.619500637E-1,-1.680000126E-1,3.234000206E0,3.378213916E0
8.403789430E-1,9.240000248E-1,-1.500000060E-2,2.889000177E0,3.033203434E0
8.423408690E-1,7.699500322E-1,2.910000086E-1,2.353049994E0,2.492859468E0
8.443027100E-1,6.169500351E-1,5.590500236E-1,1.930950046E0,2.102791562E0
8.462643690E-1,6.550500393E-1,7.510500550E-1,1.510050058E0,1.809258942E0
8.482260880E-1,7.320000529E-1,8.280000687E-1,1.203000069E0,1.633590327E0
8.501891710E-1,8.089500666E-1,1.057950020E0,5.899500251E-1,1.456605467E0
8.521518550E-1,1.039050102E0,1.173000097E0,1.680000126E-1,1.576000745E0
8.541135580E-1,1.192050099E0,1.249050021E0,-3.289500177E-1,1.757645445E0
8.560755490E-1,1.306950092E0,1.288050056E0,-8.659500480E-1,2.029054207E0
8.580372300E-1,1.384050012E0,1.326000094E0,-1.249050021E0,2.287792963E0
8.599990060E-1,1.498950124E0,1.288050056E0,-1.632000089E0,2.563074074E0
8.619606840E-1,1.575000048E0,1.249050021E0,-2.092050076E0,2.901279825E0
8.639223910E-1,1.614000082E0,1.173000097E0,-2.590050220E0,3.269447298E0
8.658842150E-1,1.537050128E0,1.134000063E0,-3.012000084E0,3.566598344E0
8.678460040E-1,1.384050012E0,9.810000658E-1,-3.510000229E0,3.898468567E0
8.698075460E-1,1.269000053E0,9.810000658E-1,-3.739950180E0,4.069391799E0
8.717691600E-1,1.077000022E0,8.280000687E-1,-4.047000408E0,4.268925563E0
8.737299640E-1,6.940500140E-1,7.510500550E-1,-4.237950325E0,4.359587660E0
8.756910060E-1,2.719500065E-1,6.739500165E-1,-4.237950325E0,4.299812599E0
8.776529440E-1,-3.299999982E-2,5.980500579E-1,-4.237950325E0,4.280067269E0
8.796146190E-1,-3.780000210E-1,5.209500194E-1,-4.084949970E0,4.135346321E0
8.815765650E-1,-7.999500632E-1,4.060500264E-1,-3.894000292E0,3.996002377E0
8.835384140E-1,-1.068000078E0,3.289500177E-1,-3.778950214E0,3.940722904E0
8.855002610E-1,-1.336950064E0,2.530499995E-1,-3.357000113E0,3.622280984E0
8.874621080E-1,-1.528050065E0,2.140500098E-1,-2.896950245E0,3.282236300E0
8.894237290E-1,-1.681950092E0,1.759500057E-1,-2.359950066E0,2.903322033E0
8.913854160E-1,-1.795950055E0,2.530499995E-1,-1.671000123E0,2.466112794E0
8.933463780E-1,-1.795950055E0,3.679500222E-1,-9.040500522E-1,2.044047533E0
8.953075600E-1,-1.642950058E0,7.510500550E-1,4.360500276E-1,1.858359681E0
8.972693380E-1,-1.375050068E0,1.134000063E0,1.969950080E0,2.656580913E0
8.992309420E-1,-1.068000078E0,1.747950077E0,3.771000147E0,4.291432831E0
9.011926950E-1,-7.230000496E-1,2.437050104E0,5.764050484E0,6.299700014E0
9.031544040E-1,-2.629500031E-1,3.088950157E0,7.564950466E0,8.175526364E0
9.051169650E-1,1.570500135E-1,3.778950214E0,8.983950615E0,9.747640642E0
9.070792650E-1,6.550500393E-1,4.507050037E0,1.005705070E1,1.104023820E1
9.090412150E-1,1.077000022E0,5.311950207E0,1.036305046E1,1.169485181E1
9.110032670E-1,1.306950092E0,6.309000492E0,1.013295078E1,1.200784316E1
9.129651230E-1,1.422000051E0,7.573050499E0,9.136950493E0,1.195228189E1
9.149270360E-1,1.537050128E0,8.953050613E0,7.450050354E0,1.174831429E1
9.168893800E-1,1.498950124E0,1.044795036E1,5.533950329E0,1.191768117E1
9.188515870E-1,1.345050097E0,1.198095036E1,3.541050196E0,1.256548318E1
9.208134170E-1,1.384050012E0,1.339905071E1,1.930950046E0,1.360803889E1
9.227753580E-1,1.306950092E0,1.466400051E1,7.050000429E-1,1.473899775E1
9.247382230E-1,1.269000053E0,1.588995075E1,-6.105000153E-2,1.594065943E1
9.267008170E-1,1.230000019E0,1.734705162E1,-1.057050109E0,1.742269941E1
9.286625500E-1,1.153950095E0,1.918695068E1,-1.786050081E0,1.930442054E1
9.306245260E-1,8.470500112E-1,2.121795082E1,-1.441050053E0,2.128369226E1
9.325854930E-1,8.089500666E-1,2.309595108E1,-5.590500236E-1,2.311687465E1
9.345467560E-1,1.000050068E0,2.470605087E1,9.730500579E-1,2.474542132E1
9.365090170E-1,1.422000051E0,2.635395050E1,2.353049994E0,2.649697408E1
9.384709850E-1,1.729050040E0,2.788695145E1,3.733050108E0,2.818878036E1
9.404328120E-1,2.341950178E0,2.888400078E1,4.231050014E0,2.928603790E1
9.423946800E-1,3.913050175E0,2.953500175E1,3.963000298E0,3.005550967E1
9.443565220E-1,5.599950314E0,2.976495171E1,3.502950191E0,3.048905465E1
9.463183720E-1,6.787950516E0,2.922795105E1,3.157950163E0,3.017154361E1
9.482804420E-1,8.743050575E0,2.865405083E1,2.545050144E0,3.006614113E1
9.502424470E-1,1.016100025E1,2.842395210E1,1.930950046E0,3.024724033E1
9.522042770E-1,1.069695091E1,2.819400215E1,1.624950051E0,3.019879102E1
9.541661510E-1,9.853950500E0,2.838495064E1,1.165050030E0,3.006930503E1
9.561290280E-1,8.091000557E0,2.884500122E1,3.979500234E-1,2.996092037E1
9.580916110E-1,5.830050468E0,2.922795105E1,-3.670500219E-1,2.980599498E1
9.600528360E-1,3.031950235E0,2.938200188E1,-1.555950046E0,2.957897458E1
9.620144590E-1,4.050000105E-3,2.896005058E1,-2.551950216E0,2.907227195E1
9.639761620E-1,-3.061050177E0,2.819400215E1,-3.664050102E0,2.859540258E1
9.659378410E-1,-5.245950222E0,2.708205223E1,-4.736999989E0,2.798922499E1
9.678998960E-1,-6.817050457E0,2.600895119E1,-5.580000401E0,2.746041011E1
9.698618410E-1,-7.966950417E0,2.493600082E1,-6.078000069E0,2.687412363E1
9.718239860E-1,-8.887050629E0,2.393895149E1,-6.423000336E0,2.633074250E1
9.737860720E-1,-9.654000282E0,2.305800056E1,-6.844950199E0,2.591764755E1
9.757479130E-1,-1.003695011E1,2.221500015E1,-6.460950375E0,2.521885166E1
9.777098330E-1,-1.061205006E1,2.148600197E1,-6.154950142E0,2.474161066E1
9.796719810E-1,-1.118700027E1,2.095005035E1,-5.580000401E0,2.439651593E1
9.816340620E-1,-1.180005074E1,2.045100021E1,-5.119950294E0,2.415985302E1
9.835960940E-1,-1.245195103E1,2.006805038E1,-4.927950382E0,2.412596994E1
9.855581410E-1,-1.291095066E1,1.976205063E1,-4.852050304E0,2.409924655E1
9.875199080E-1,-1.325595093E1,1.941705132E1,-4.966950417E0,2.402941350E1
9.894817570E-1,-1.348605061E1,1.891800117E1,-5.005050182E0,2.376583381E1
9.914437820E-1,-1.333305073E1,1.842000008E1,-5.082000256E0,2.330007234E1
9.934057550E-1,-1.329495049E1,1.799805069E1,-4.927950382E0,2.291222887E1
9.953678050E-1,-1.298805046E1,1.761495018E1,-4.698000431E0,2.238408213E1
9.973298320E-1,-1.272000027E1,1.746195030E1,-4.315050125E0,2.203038295E1
9.992917590E-1,-1.241295052E1,1.730895042E1,-4.200000286E0,2.170993108E1
1.001253733E0,-1.195305061E1,1.742400169E1,-4.200000286E0,2.154324155E1
1.003215781E0,-1.145505047E1,1.734705162E1,-4.237950325E0,2.121552743E1
1.005177808E0,-1.087995052E1,1.742400169E1,-4.237950325E0,2.097449359E1
1.007139579E0,-1.022895050E1,1.757700157E1,-4.353000164E0,2.079738020E1
1.009101425E0,-9.577050209E0,1.761495018E1,-4.200000286E0,2.048527185E1
1.011063105E0,-9.117000580E0,1.761495018E1,-3.970050097E0,2.022788835E1
1.013024824E0,-8.503950119E0,1.757700157E1,-3.664050102E0,1.986689244E1
1.014986916E0,-7.776000500E0,1.723200035E1,-3.204000235E0,1.917481779E1
1.016948898E0,-6.970950127E0,1.665705109E1,-2.820000172E0,1.827577351E1
1.018910858E0,-6.280950069E0,1.619700050E1,-2.782050133E0,1.759354888E1
1.020872824E0,-5.706000328E0,1.566000080E1,-2.590050220E0,1.686719968E1
1.022834709E0,-5.323050022E0,1.504695034E1,-1.900950074E0,1.607355553E1
1.024796608E0,-4.939050198E0,1.447200108E1,-1.018950105E0,1.532551113E1
1.026757679E0,-4.594050407E0,1.378200054E1,-1.369500011E-1,1.452816552E1
1.028718992E0,-4.479000092E0,1.324605083E1,7.429500222E-1,1.400254546E1
1.030680568E0,-4.633050442E0,1.286295033E1,1.855050087E0,1.379716849E1
1.032642067E0,-4.900950432E0,1.263300037E1,2.506050110E0,1.378014154E1
1.034603847E0,-5.092950344E0,1.240305042E1,2.506050110E0,1.364016459E1
1.036565538E0,-5.553000450E0,1.205805016E1,2.046000004E0,1.343199552E1
1.038527051E0,-5.668050289E0,1.194300079E1,1.585950017E0,1.331455217E1
1.040488617E0,-5.284050465E0,1.194300079E1,1.087950110E0,1.310496443E1
1.042451186E0,-4.326000214E0,1.190400028E1,5.899500251E-1,1.267941409E1
1.044413461E0,-3.636000156E0,1.190400028E1,1.500000060E-2,1.244692512E1
1.046374158E0,-3.100050211E0,1.194300079E1,-9.900000691E-2,1.233918070E1
1.048335314E0,-2.563050032E0,1.213395023E1,7.050000429E-1,1.242171481E1
1.050297277E0,-2.065050125E0,1.259400082E1,2.238000154E0,1.295692607E1
1.052259004E0,-1.681950092E0,1.305405045E1,3.579000235E0,1.363988386E1
1.054221096E0,-1.489950061E0,1.347600079E1,4.537950039E0,1.429739623E1
1.056183081E0,-1.297950029E0,1.382100105E1,4.921050072E0,1.472825442E1
1.058145264E0,-1.106999993E0,1.431900024E1,5.074050426E0,1.523171706E1
1.060107389E0,-7.999500632E-1,1.466400051E1,4.690950394E0,1.541680404E1
1.062069188E0,-6.469500065E-1,1.500900078E1,3.771000147E0,1.548899902E1
1.064031083E0,-6.079500318E-1,1.546905041E1,2.965950251E0,1.576255007E1
1.065992696E0,-5.320500135E-1,1.592895031E1,2.467950106E0,1.612778078E1
1.067954391E0,-3.780000210E-1,1.612005043E1,1.969950080E0,1.624437174E1
1.069917194E0,1.189500093E-1,1.612005043E1,1.510050058E0,1.619106007E1
1.071879683E0,6.550500393E-1,1.592895031E1,1.203000069E0,1.598773773E1
1.073841555E0,1.230000019E0,1.562205029E1,9.730500579E-1,1.570057902E1
1.075803608E0,1.690050125E0,1.508595085E1,1.050000072E0,1.521659235E1
1.077765464E0,2.304000139E0,1.451100063E1,1.356000066E0,1.475521237E1
1.079727377E0,2.878050089E0,1.397400093E1,1.777950048E0,1.437765561E1
1.081689175E0,3.300000191E0,1.351395035E1,2.238000154E0,1.408990773E1
1.083651001E0,3.645000219E0,1.305405045E1,2.736000061E0,1.382678401E1
1.085612670E0,3.952050209E0,1.259400082E1,3.196050167E0,1.358095336E1
1.087574385E0,4.258049965E0,1.228800011E1,3.808950186E0,1.355116370E1
1.089536074E0,4.527000427E0,1.182795048E1,4.039050102E0,1.329315881E1
1.091497770E0,4.527000427E0,1.152105045E1,4.231050014E0,1.308167117E1
1.093459623E0,4.680000305E0,1.098495007E1,4.269000053E0,1.268053202E1
1.095421442E0,4.756950378E0,1.056300068E1,4.498950005E0,1.242763499E1
1.097383114E0,4.948050022E0,9.988050461E0,4.614000320E0,1.206372040E1
1.099344829E0,5.254950047E0,9.259950638E0,4.537950039E0,1.157385745E1
1.101306696E0,5.293050289E0,8.532000542E0,4.231050014E0,1.089555867E1
1.103268519E0,5.178000450E0,7.803000450E0,3.579000235E0,1.002535522E1
1.105230535E0,5.062950134E0,7.075050354E0,3.043050051E0,9.216829997E0
1.107192505E0,4.948050022E0,6.424050331E0,2.659050226E0,8.533590674E0
1.109154376E0,5.062950134E0,5.656950474E0,2.430000067E0,7.971163845E0
1.111116276E0,5.254950047E0,4.736999989E0,2.085000038E0,7.375696173E0
1.113078292E0,5.331000328E0,3.970950127E0,1.777950048E0,6.881069378E0
1.115040274E0,5.407950401E0,3.127050161E0,1.585950017E0,6.445122785E0
1.117002247E0,5.254950047E0,2.437050104E0,1.510050058E0,5.986147708E0
1.118964213E0,5.215950012E0,1.747950077E0,1.548000097E0,5.714697569E0
1.120926039E0,5.062950134E0,1.057950020E0,1.701000094E0,5.444825399E0
1.122887906E0,4.756950378E0,5.209500194E-1,1.969950080E0,5.175004265E0
1.124850649E0,4.527000427E0,-5.295000225E-2,2.275950193E0,5.067197041E0
1.126813135E0,4.297049999E0,-3.979500234E-1,2.851050138E0,5.172184240E0
1.128775053E0,3.990000248E0,-8.580000401E-1,3.234000206E0,5.207208790E0
1.130737137E0,3.721950293E0,-1.240950108E0,3.349050045E0,5.158391935E0
1.132698987E0,3.415050268E0,-1.624050021E0,3.426000118E0,5.102703559E0
1.134660906E0,3.108000040E0,-1.893000126E0,3.310950041E0,4.919908932E0
1.136622694E0,2.878050089E0,-2.238000154E0,3.118950129E0,4.797881502E0
1.138584521E0,2.610000134E0,-2.620950222E0,2.773950100E0,4.623448920E0
1.140546240E0,2.380050182E0,-3.004050255E0,2.275950193E0,4.457455113E0
1.142507988E0,2.304000139E0,-3.387000084E0,1.740000129E0,4.450593967E0
1.144469850E0,2.188950062E0,-3.694050074E0,1.471050024E0,4.538887143E0
1.146431678E0,2.149950027E0,-4.000950336E0,1.318050027E0,4.729391566E0
1.148393888E0,2.035050154E0,-4.231050014E0,1.279950023E0,4.866362647E0
1.150355986E0,1.843950033E0,-4.422000408E0,1.279950023E0,4.959083725E0
1.152317935E0,1.767000079E0,-4.537050247E0,1.356000066E0,5.054290297E0
1.154279921E0,1.651950121E0,-4.614000320E0,1.395000100E0,5.095484613E0
1.156241743E0,1.537050128E0,-4.651950359E0,1.471050024E0,5.115383995E0
1.158203613E0,1.422000051E0,-4.651950359E0,1.510050058E0,5.093424925E0
1.160165634E0,1.345050097E0,-4.575000286E0,1.510050058E0,5.002003454E0
1.162127611E0,1.345050097E0,-4.422000408E0,1.510050058E0,4.862458077E0
1.164089660E0,1.306950092E0,-4.269000053E0,1.395000100E0,4.677446449E0
1.166051688E0,1.345050097E0,-4.077000141E0,1.203000069E0,4.458508616E0
1.168013819E0,1.345050097E0,-3.847050190E0,1.011000037E0,4.198937485E0
1.169975919E0,1.306950092E0,-3.579000235E0,8.580000401E-1,3.905576179E0
1.171938082E0,1.269000053E0,-3.157050133E0,5.130000114E-1,3.441002134E0
1.173900227E0,1.230000019E0,-2.773950100E0,3.600000143E-1,3.055699464E0
1.175862918E0,1.153950095E0,-2.428950071E0,1.300500035E-1,2.692268983E0
1.177825452E0,1.114950061E0,-2.083950043E0,-6.105000153E-2,2.364252212E0
1.179787182E0,1.153950095E0,-1.701000094E0,-1.759500057E-1,2.062997951E0
1.181749147E0,1.114950061E0,-1.356000066E0,-2.520000041E-1,1.773514539E0
1.183711018E0,1.153950095E0,-1.048950076E0,-2.910000086E-1,1.586372620E0
1.185672916E0,1.306950092E0,-7.429500222E-1,-2.520000041E-1,1.524335029E0
1.187634757E0,1.306950092E0,-5.890500546E-1,-9.900000691E-2,1.436975822E0
1.189596612E0,1.345050097E0,-3.979500234E-1,1.500000060E-2,1.402764764E0
1.191558771E0,1.384050012E0,-2.059500068E-1,1.500000060E-2,1.399369444E0
1.193520841E0,1.537050128E0,-1.290000081E-1,-2.205000073E-2,1.542611520E0
1.195481929E0,1.690050125E0,-9.105000645E-2,5.295000225E-2,1.693329038E0
1.197443305E0,1.843950033E0,6.105000153E-2,5.295000225E-2,1.845720057E0
1.199405411E0,1.959000111E0,2.140500098E-1,5.295000225E-2,1.971370727E0
1.201367303E0,2.074050188E0,3.679500222E-1,1.500000060E-2,2.106489117E0
1.203329322E0,2.149950027E0,5.980500579E-1,5.295000225E-2,2.232208031E0
1.205291303E0,2.304000139E0,7.510500550E-1,9.195000678E-2,2.425066521E0
1.207253172E0,2.419050217E0,8.659500480E-1,5.295000225E-2,2.569917730E0
1.209215074E0,2.494950056E0,9.810000658E-1,5.295000225E-2,2.681406462E0
1.211177090E0,2.725050211E0,1.018950105E0,9.195000678E-2,2.910775287E0
1.213139072E0,2.802000046E0,1.018950105E0,9.195000678E-2,2.982937877E0
1.215101210E0,2.992950201E0,1.096050024E0,-2.205000073E-2,3.187406903E0
1.217063303E0,3.184950113E0,1.018950105E0,1.500000060E-2,3.344008304E0
1.219025647E0,3.453000069E0,1.057950020E0,-2.205000073E-2,3.611503000E0
1.220987918E0,3.645000219E0,9.810000658E-1,5.295000225E-2,3.775075023E0
1.222949016E0,3.874950171E0,9.430500269E-1,2.449500114E-1,3.995570383E0
1.224910458E0,4.105050087E0,9.040500522E-1,3.600000143E-1,4.218808211E0
1.226872553E0,4.297049999E0,8.659500480E-1,5.509500504E-1,4.417924189E0
1.228834456E0,4.527000427E0,8.659500480E-1,4.750500321E-1,4.633494889E0
1.230797510E0,4.833000183E0,8.280000687E-1,2.830500007E-1,4.911577362E0
1.232760226E0,5.101050377E0,7.890000343E-1,-2.205000073E-2,5.161755729E0
1.234722343E0,5.370000362E0,9.430500269E-1,-2.910000086E-1,5.459938484E0
1.236684626E0,5.676000118E0,1.057950020E0,-2.140500098E-1,5.777720398E0
1.238645812E0,6.060000420E0,1.249050021E0,5.295000225E-2,6.187611392E0
1.240607319E0,6.328050137E0,1.555950046E0,7.810500264E-1,6.563172877E0
1.242569448E0,6.595950127E0,1.863000035E0,1.855050087E0,7.100601244E0
1.244531394E0,6.711000443E0,2.322000027E0,3.426000118E0,7.884585460E0
1.246493538E0,6.673050404E0,2.743950129E0,5.380950451E0,9.000749511E0
1.248455624E0,6.595950127E0,3.166050196E0,7.527000427E0,1.049695991E1
1.250417295E0,6.442950249E0,3.741000175E0,9.520050049E0,1.208875689E1
1.252379088E0,6.213000298E0,4.239000320E0,1.124505043E1,1.352854965E1
1.254341303E0,5.868000507E0,4.774950027E0,1.231800079E1,1.445568128E1
1.256303394E0,5.523000240E0,5.274000168E0,1.285500050E1,1.495224556E1
1.258265513E0,5.331000328E0,5.925000191E0,1.258605099E1,1.489744512E1
1.260227624E0,5.215950012E0,6.768000126E0,1.185795021E1,1.461584563E1
1.262189651E0,5.025000095E0,7.726950169E0,1.024800014E1,1.378324678E1
1.264151703E0,4.756950378E0,8.953050613E0,8.562000275E0,1.327002415E1
1.266114054E0,4.297049999E0,1.033305073E1,6.837000370E0,1.311415838E1
1.268076317E0,3.645000219E0,1.201905060E1,4.806000233E0,1.344772256E1
1.270038273E0,2.992950201E0,1.362900066E1,2.659050226E0,1.420485685E1
1.272000319E0,2.149950027E0,1.508595085E1,4.360500276E-1,1.524461668E1
1.273962085E0,1.153950095E0,1.646505165E1,-1.671000123E0,1.658980916E1
1.275923934E0,-3.299999982E-2,1.822800064E1,-3.625050068E0,1.858499622E1
1.277885600E0,-1.183050036E0,2.014500046E1,-4.927950382E0,2.077270675E1
1.279847319E0,-2.524950027E0,2.206095123E1,-5.733000278E0,2.293312526E1
1.281809565E0,-3.790050268E0,2.428395081E1,-5.733000278E0,2.523771067E1
1.283771643E0,-5.016000271E0,2.708205223E1,-4.698000431E0,2.794045490E1
1.285733496E0,-6.127950191E0,3.053205109E1,-3.433950186E0,3.132969727E1
1.287695415E0,-6.856050491E0,3.390405273E1,-2.437050104E0,3.467606427E1
1.289657203E0,-7.201050282E0,3.762195206E1,-1.171950102E0,3.832283743E1
1.291619030E0,-7.392000198E0,4.141695023E1,-2.205000073E-2,4.207143828E1
1.293580384E0,-7.315950394E0,4.467405319E1,1.279950023E0,4.528722150E1
1.295541876E0,-6.817050457E0,4.754895401E1,2.275950193E0,4.808903361E1
1.297503917E0,-6.625950336E0,4.954200363E1,3.310950041E0,5.009267144E1
1.299465797E0,-6.664050102E0,5.034705353E1,3.234000206E0,5.088903733E1
1.301427818E0,-6.894000530E0,5.042400360E1,2.391000032E0,5.094923222E1
1.303389797E0,-7.123950481E0,4.919700241E1,1.624950051E0,4.973666836E1
1.305351826E0,-7.276950359E0,4.705095291E1,1.318050027E0,4.762859889E1
1.307313854E0,-7.507050514E0,4.452105331E1,3.220500052E-1,4.515067787E1
1.309276570E0,-7.392000198E0,4.126305008E1,-1.210950017E0,4.193742206E1
1.311239085E0,-6.778950214E0,3.789105225E1,-2.590050220E0,3.857971444E1
1.313200772E0,-6.051000118E0,3.478605270E1,-3.165000200E0,3.544998295E1
1.315162702E0,-5.208000183E0,3.191100121E1,-3.394950151E0,3.251093586E1
1.317124728E0,-4.363950253E0,2.949705124E1,-3.319050074E0,3.000226970E1
1.319086715E0,-3.636000156E0,2.758005142E1,-3.012000084E0,2.798127728E1
1.321048403E0,-3.061050177E0,2.600895119E1,-2.859000206E0,2.634405914E1
1.323010179E0,-2.448000193E0,2.474400139E1,-2.896950245E0,2.503299084E1
1.324972532E0,-1.950000048E0,2.359395027E1,-3.204000235E0,2.389021990E1
1.326934715E0,-1.642950058E0,2.263605118E1,-3.664050102E0,2.298946195E1
1.328897040E0,-1.489950061E0,2.183100128E1,-4.545000076E0,2.234881639E1
1.330859326E0,-1.297950029E0,2.125605011E1,-5.272950172E0,2.193874071E1
1.332821637E0,-1.030050039E0,2.068095016E1,-5.848050117E0,2.151656090E1
1.334783941E0,-8.770500422E-1,2.014500046E1,-6.499950409E0,2.118583526E1
1.336746250E0,-7.230000496E-1,1.987695122E1,-6.844950199E0,2.103495334E1
1.338708557E0,-5.700000525E-1,1.960800171E1,-6.997950554E0,2.082714438E1
1.340670690E0,-5.700000525E-1,1.941705132E1,-6.997950554E0,2.064747185E1
1.342632871E0,-4.930500090E-1,1.930200005E1,-6.844950199E0,2.048569372E1
1.344594840E0,-5.700000525E-1,1.907205009E1,-6.844950199E0,2.027119479E1
1.346556871E0,-7.230000496E-1,1.880295181E1,-6.652950287E0,1.995834345E1
1.348518686E0,-1.068000078E0,1.861200142E1,-6.652950287E0,1.979416501E1
1.350480564E0,-1.260000110E0,1.838205147E1,-6.883050442E0,1.966885355E1
1.352442804E0,-1.336950064E0,1.811295128E1,-6.307950497E0,1.922645779E1
1.354404941E0,-1.452000022E0,1.780695152E1,-5.887050152E0,1.881098578E1
1.356367098E0,-1.489950061E0,1.750005150E1,-5.235000134E0,1.832694683E1
1.358329249E0,-1.489950061E0,1.700205040E1,-4.660050392E0,1.769196820E1
1.360290864E0,-1.375050068E0,1.642695045E1,-4.429950237E0,1.706926838E1
1.362252636E0,-1.297950029E0,1.596705055E1,-4.315050125E0,1.659069122E1
1.364214659E0,-1.336950064E0,1.546905041E1,-4.276950359E0,1.610500731E1
1.366176619E0,-1.375050068E0,1.493205070E1,-4.276950359E0,1.559324230E1
1.368138626E0,-1.336950064E0,1.439595032E1,-3.894000292E0,1.497311121E1
1.370100619E0,-1.260000110E0,1.366695023E1,-3.549000263E0,1.417633703E1
1.372062576E0,-1.144950032E0,1.297800064E1,-3.204000235E0,1.341659527E1
1.374024544E0,-8.380500674E-1,1.224900055E1,-2.859000206E0,1.260611854E1
1.375986724E0,-5.320500135E-1,1.155900097E1,-2.629050016E0,1.186614868E1
1.377948845E0,-2.629500031E-1,1.083105087E1,-2.629050016E0,1.114866403E1
1.379911050E0,-1.099500060E-1,1.010295010E1,-2.475000143E0,1.040227453E1
1.381873230E0,1.570500135E-1,9.451050758E0,-2.437050104E0,9.761467019E0
1.383836056E0,3.490500152E-1,8.838000298E0,-2.475000143E0,9.184645387E0
1.385798692E0,5.790000558E-1,8.224950790E0,-2.475000143E0,8.608756140E0
1.387760764E0,9.619500637E-1,7.612050533E0,-2.359950066E0,8.027329915E0
1.389723001E0,1.153950095E0,6.922050476E0,-2.014950037E0,7.301123699E0
1.391685005E0,1.269000053E0,6.346950531E0,-1.594050050E0,6.665968627E0
1.393647078E0,1.345050097E0,5.848950386E0,-1.479000092E0,6.181166690E0
1.395609380E0,1.422000051E0,5.389050484E0,-1.555950046E0,5.786616438E0
1.397571615E0,1.959000111E0,4.813950062E0,-1.861950040E0,5.520747647E0
1.399533775E0,2.111999989E0,4.392000198E0,-2.245050192E0,5.365674241E0
1.401495943E0,2.074050188E0,3.970950127E0,-2.743950129E0,5.253512292E0
1.403458139E0,2.149950027E0,3.549000263E0,-2.935050249E0,5.082539518E0
1.405420326E0,2.227050066E0,3.166050196E0,-2.859000206E0,4.812224851E0
1.407382069E0,2.035050154E0,2.859000206E0,-2.398950100E0,4.250914359E0
1.409343943E0,1.767000079E0,2.514000177E0,-1.824000120E0,3.573438486E0
1.411305834E0,1.422000051E0,2.169000149E0,-1.326000094E0,2.912888951E0
1.413267716E0,1.269000053E0,1.747950077E0,-8.659500480E-1,2.327135598E0
1.415228836E0,9.240000248E-1,1.363950014E0,-3.289500177E-1,1.679983274E0
1.417190179E0,3.870000243E-1,9.810000658E-1,1.300500035E-1,1.062564422E0
1.419152651E0,-3.299999982E-2,4.440000355E-1,1.680000126E-1,4.758666155E-1
1.421114793E0,-6.469500065E-1,-5.295000225E-2,1.300500035E-1,6.620128526E-1
1.423076705E0,-8.380500674E-1,-3.979500234E-1,1.680000126E-1,9.428234940E-1
1.425038698E0,-9.150000215E-1,-1.048950076E0,2.449500114E-1,1.413337118E0
1.427000743E0,-9.919500351E-1,-1.738950133E0,5.295000225E-2,2.002677243E0
1.428962773E0,-9.529500604E-1,-2.351999998E0,-1.759500057E-1,2.543811356E0
1.430924769E0,-8.380500674E-1,-2.926950216E0,-2.140500098E-1,3.052078454E0
1.432886775E0,-8.770500422E-1,-3.463950157E0,-2.140500098E-1,3.579662676E0
1.434848580E0,-9.150000215E-1,-3.886050224E0,-1.759500057E-1,3.996194413E0
1.436810454E0,-9.150000215E-1,-4.345950127E0,-1.759500057E-1,4.444712133E0
1.438772475E0,-6.850500107E-1,-4.804950237E0,-9.900000691E-2,4.854548517E0
1.440734452E0,-6.850500107E-1,-5.188950062E0,-6.105000153E-2,5.234331224E0
1.442696232E0,-6.079500318E-1,-5.494950294E0,-9.900000691E-2,5.529365513E0
1.444658069E0,-6.079500318E-1,-5.764050484E0,-9.900000691E-2,5.796868312E0
1.446619975E0,-7.230000496E-1,-5.878950119E0,-6.105000153E-2,5.923555577E0
1.448581851E0,-9.150000215E-1,-5.994000435E0,-6.105000153E-2,6.063744170E0
1.450542972E0,-1.030050039E0,-6.031950474E0,1.300500035E-1,6.120648871E0
1.452504314E0,-1.222050071E0,-6.109050274E0,3.979500234E-1,6.242777094E0
1.454466426E0,-1.452000022E0,-6.070050240E0,7.810500264E-1,6.289980375E0
1.456428312E0,-1.489950061E0,-6.070050240E0,1.356000066E0,6.395638926E0
1.458390458E0,-1.375050068E0,-6.031950474E0,2.008050203E0,6.504418101E0
1.460352534E0,-1.068000078E0,-5.994000435E0,3.004050255E0,6.789181343E0
1.462314342E0,-8.770500422E-1,-5.917050362E0,3.886050224E0,7.133168167E0
1.464276228E0,-7.230000496E-1,-5.686950207E0,4.537950039E0,7.311437771E0
1.466238246E0,-4.170000255E-1,-5.227050304E0,4.959000111E0,7.217175764E0
1.468200226E0,2.340000123E-1,-4.575000286E0,5.188950062E0,6.921747349E0
1.470162815E0,6.940500140E-1,-3.847050190E0,5.227050304E0,6.527139915E0
1.472125226E0,8.470500112E-1,-3.234000206E0,4.996950150E0,6.012134550E0
1.474087111E0,9.240000248E-1,-2.544000149E0,4.843950272E0,5.548834746E0
1.476049151E0,1.000050068E0,-1.930950046E0,4.729050159E0,5.205053662E0
1.478011323E0,1.114950061E0,-1.393950105E0,4.653000355E0,4.983635504E0
1.479973457E0,1.269000053E0,-9.340500236E-1,4.806000233E0,5.057711816E0
1.481935420E0,1.306950092E0,-4.360500276E-1,4.996950150E0,5.183412869E0
1.483897444E0,1.345050097E0,-2.059500068E-1,5.266050339E0,5.439012901E0
1.485858584E0,1.459950089E0,-1.290000081E-1,5.341950417E0,5.539361833E0
1.487819983E0,1.537050128E0,2.295000106E-2,5.188950062E0,5.411862207E0
1.489782445E0,1.651950121E0,1.380000114E-1,5.074050426E0,5.337974423E0
1.491744596E0,1.651950121E0,2.530499995E-1,4.921050072E0,5.197086425E0
1.493706716E0,1.422000051E0,4.830000103E-1,4.576050282E0,4.816182029E0
1.495668839E0,1.384050012E0,5.209500194E-1,4.269000053E0,4.517891634E0
1.497630682E0,1.306950092E0,5.980500579E-1,3.924000263E0,4.178942508E0
1.499592608E0,1.269000053E0,6.739500165E-1,3.579000235E0,3.856658196E0
1.501554935E0,1.192050099E0,7.890000343E-1,3.310950041E0,3.606368626E0
1.503517144E0,1.153950095E0,9.040500522E-1,2.928000212E0,3.274460652E0
1.505479301E0,1.039050102E0,1.018950105E0,2.659050226E0,3.031242738E0
1.507441497E0,7.699500322E-1,1.096050024E0,2.238000154E0,2.608216517E0
1.509403238E0,6.169500351E-1,1.210950017E0,1.893000126E0,2.330338337E0
1.511365112E0,5.020500422E-1,1.363950014E0,1.510050058E0,2.095868570E0
1.513327313E0,3.870000243E-1,1.479000092E0,1.279950023E0,1.993861166E0
1.515289418E0,4.639500082E-1,1.633050084E0,8.580000401E-1,1.902174087E0
1.517252472E0,4.639500082E-1,1.824000120E0,3.979500234E-1,1.923691833E0
1.519215255E0,5.020500422E-1,1.939050078E0,-6.105000153E-2,2.003920296E0
1.521177708E0,6.550500393E-1,2.053950071E0,-5.970000029E-1,2.237009265E0
1.523140257E0,6.169500351E-1,2.284050226E0,-1.057050109E0,2.591306179E0
1.525101622E0,5.020500422E-1,2.361000061E0,-1.441050053E0,2.811227630E0
1.527063334E0,5.410500169E-1,2.437050104E0,-1.708950043E0,3.025303056E0
1.529025548E0,5.020500422E-1,2.476050138E0,-2.092050076E0,3.280175613E0
1.530987625E0,5.410500169E-1,2.398950100E0,-2.514000177E0,3.516801614E0
1.532950288E0,5.790000558E-1,2.284050226E0,-2.820000172E0,3.674850673E0
1.534912779E0,5.410500169E-1,2.131050110E0,-3.204000235E0,3.885836743E0
1.536873839E0,3.870000243E-1,1.939050078E0,-3.433950186E0,3.962536827E0
1.538835319E0,2.340000123E-1,1.747950077E0,-3.664050102E0,4.066367990E0
1.540797246E0,1.189500093E-1,1.518000126E0,-3.778950214E0,4.074179452E0
1.542759029E0,-1.099500060E-1,1.363950014E0,-3.664050102E0,3.911228937E0
1.544721246E0,-3.019500077E-1,1.173000097E0,-3.586950064E0,3.785936317E0
1.546683336E0,-6.079500318E-1,1.018950105E0,-3.472050190E0,3.669195427E0
1.548645456E0,-7.999500632E-1,7.890000343E-1,-3.280050039E0,3.467155811E0
1.550607567E0,-9.150000215E-1,5.590500236E-1,-3.049950123E0,3.232948765E0
1.552569628E0,-9.919500351E-1,3.679500222E-1,-2.782050133E0,2.976433274E0
1.554531680E0,-9.150000215E-1,9.900000691E-2,-2.322000027E0,2.497741012E0
1.556493445E0,-8.380500674E-1,6.105000153E-2,-1.747050047E0,1.938617777E0
1.558455295E0,-6.850500107E-1,2.295000106E-2,-1.018950105E0,1.228038898E0
1.560416239E0,-2.629500031E-1,1.380000114E-1,2.830500007E-1,4.102487175E-1
1.562377449E0,3.109500110E-1,3.679500222E-1,1.969950080E0,2.027999124E0
1.564340869E0,8.850000501E-1,9.810000658E-1,4.000950336E0,4.213453431E0
1.566303625E0,1.269000053E0,1.708950043E0,6.070950508E0,6.433297091E0
1.568265677E0,1.537050128E0,2.590950012E0,7.834050179E0,8.393323970E0
1.570227935E0,1.804950118E0,3.549000263E0,9.098999977E0,9.932021364E0
1.572189936E0,1.882050037E0,4.660050392E0,9.673050880E0,1.090073829E1
1.574152012E0,2.035050154E0,6.001950264E0,9.442950249E0,1.137251711E1
1.576114133E0,2.035050154E0,7.650000572E0,8.293950081E0,1.146531926E1
1.578076241E0,2.265000105E0,9.490050316E0,6.607050419E0,1.178322518E1
1.580038402E0,2.649000168E0,1.132905006E1,4.806000233E0,1.258817761E1
1.582000548E0,3.262050152E0,1.290105057E1,3.349050045E0,1.372203386E1
1.583962389E0,4.027950287E0,1.401195049E1,2.467950106E0,1.478681568E1
1.585924319E0,4.603050232E0,1.454895115E1,1.930950046E0,1.538143748E1
1.587886792E0,4.297049999E0,1.543095112E1,1.510050058E0,1.608910011E1
1.589849130E0,2.649000168E0,1.696395111E1,9.730500579E-1,1.719708305E1
1.591810352E0,1.230000019E0,1.903305054E1,7.050000429E-1,1.908577842E1
1.593771901E0,4.260000288E-1,2.125605011E1,6.660000086E-1,2.127074748E1
1.595734158E0,5.020500422E-1,2.336400032E1,1.087950110E0,2.339470454E1
1.597696207E0,4.639500082E-1,2.547195053E1,1.740000129E0,2.553552651E1
1.599659100E0,9.240000248E-1,2.746500206E1,2.773950100E0,2.762019032E1
1.601621745E0,1.498950124E0,2.907495117E1,3.694050074E0,2.934698695E1
1.603583455E0,2.533950090E0,3.037800217E1,3.847950220E0,3.072540707E1
1.605545439E0,4.411950111E0,3.129795074E1,2.736000061E0,3.172558464E1
1.607507847E0,6.520050526E0,3.145095062E1,1.432950020E0,3.215162048E1
1.609470130E0,9.010950089E0,3.099195099E1,4.360500276E-1,3.227829592E1
1.611432956E0,1.104195023E1,3.045495224E1,1.300500035E-1,3.239514923E1
1.613395610E0,1.180905056E1,3.010995102E1,-6.105000153E-2,3.234295213E1
1.615357499E0,1.119600010E1,3.014805222E1,-3.670500219E-1,3.216193707E1
1.617319612E0,9.049050331E0,3.072300148E1,-6.360000372E-1,3.203424149E1
1.619281593E0,6.136050224E0,3.118305206E1,-1.363950014E0,3.181028463E1
1.621243612E0,2.649000168E0,3.099195099E1,-2.667000055E0,3.121908258E1
1.623204407E0,-8.380500674E-1,3.030195236E1,-4.123950005E0,3.059277053E1
1.625165550E0,-3.712950230E0,2.941995049E1,-5.542050362E0,3.016676662E1
1.627128012E0,-6.241950512E0,2.853900146E1,-6.844950199E0,3.000483118E1
1.629090087E0,-7.929000378E0,2.754195213E1,-7.726050377E0,2.968366603E1
1.631051940E0,-9.232050896E0,2.673705101E1,-8.340000153E0,2.948993494E1
1.633013858E0,-1.034400082E1,2.608605194E1,-8.914050102E0,2.944385756E1
1.634975816E0,-1.145505047E1,2.558700180E1,-8.991000175E0,2.944063394E1
1.636937769E0,-1.260495090E1,2.501205063E1,-8.799000740E0,2.935830169E1
1.638899643E0,-1.360095024E1,2.447595024E1,-8.301000595E0,2.920555767E1
1.640861540E0,-1.463595104E1,2.390100098E1,-7.726050377E0,2.907164882E1
1.642823378E0,-1.559400082E1,2.347905159E1,-7.075050354E0,2.906019722E1
1.644785233E0,-1.624604988E1,2.286600113E1,-6.499950409E0,2.879301130E1
1.646747047E0,-1.678305054E1,2.236800194E1,-6.078000069E0,2.861713439E1
1.648708863E0,-1.689795113E1,2.190795135E1,-5.887050152E0,2.828703668E1
1.650670579E0,-1.682100105E1,2.144805145E1,-5.809950352E0,2.786970597E1
1.652632325E0,-1.639905167E1,2.098800087E1,-5.695050240E0,2.723708269E1
1.654594142E0,-1.574805069E1,2.068095016E1,-5.503050327E0,2.657040390E1
1.656555938E0,-1.528800106E1,2.056605148E1,-5.464950085E0,2.620212071E1
1.658517659E0,-1.471305084E1,2.052795029E1,-5.542050362E0,2.585700931E1
1.660479402E0,-1.413795090E1,2.029800034E1,-5.733000278E0,2.539208076E1
1.662441219E0,-1.344795036E1,2.014500046E1,-5.733000278E0,2.489047417E1
1.664403015E0,-1.260495090E1,1.995300102E1,-5.503050327E0,2.423407931E1
1.666364735E0,-1.172295094E1,1.980000114E1,-5.197050095E0,2.358976375E1
1.668326478E0,-1.095705032E1,1.953195000E1,-4.698000431E0,2.288285888E1
1.670288116E0,-1.030500031E1,1.941705132E1,-4.162050247E0,2.237269710E1
1.672249785E0,-9.346950531E0,1.903305054E1,-3.549000263E0,2.149925347E1
1.674211705E0,-8.427000046E0,1.834305000E1,-2.935050249E0,2.039843948E1
1.676173552E0,-7.431000233E0,1.761495018E1,-2.514000177E0,1.928280144E1
1.678135354E0,-6.396000385E0,1.692495155E1,-2.053950071E0,1.820937992E1
1.680097170E0,-5.553000450E0,1.635000038E1,-1.516950130E0,1.733376659E1
1.682059011E0,-4.900950432E0,1.562205029E1,-1.134000063E0,1.641199946E1
1.684020851E0,-4.671000004E0,1.485600090E1,-1.096050024E0,1.561154475E1
1.685981663E0,-4.594050407E0,1.405095100E1,-2.910000086E-1,1.478577709E1
1.687942776E0,-4.594050407E0,1.313100052E1,6.280500293E-1,1.392562101E1
1.689904522E0,-4.555950165E0,1.217295074E1,1.624950051E0,1.309877377E1
1.691866082E0,-4.747950077E0,1.140600014E1,2.353049994E0,1.257683240E1
1.693827802E0,-5.131050110E0,1.079295063E1,2.736000061E0,1.225973715E1
1.695789472E0,-5.629050255E0,1.029495049E1,2.736000061E0,1.204814959E1
1.697751213E0,-5.782950401E0,9.910950661E0,2.161050081E0,1.167645476E1
1.699712933E0,-5.361000061E0,9.757950783E0,1.011000037E0,1.117944749E1
1.701674622E0,-4.594050407E0,9.757950783E0,4.360500276E-1,1.079412073E1
1.703636320E0,-3.790050268E0,9.796050072E0,5.899500251E-1,1.052022429E1
1.705598159E0,-3.330000162E0,1.018005085E1,1.203000069E0,1.077819769E1
1.707559947E0,-2.985000134E0,1.083105087E1,1.930950046E0,1.139958143E1
1.709521624E0,-2.371050119E0,1.159800053E1,3.310950041E0,1.229218797E1
1.711483334E0,-1.873050094E0,1.217295074E1,4.423050404E0,1.308634484E1
1.713445247E0,-1.068000078E0,1.282395077E1,5.304000378E0,1.391857599E1
1.715407101E0,-2.250000089E-1,1.328400040E1,5.841000080E0,1.451318619E1
1.717369632E0,7.320000529E-1,1.351395035E1,6.186000347E0,1.488049994E1
1.719331957E0,1.230000019E0,1.385895061E1,5.533950329E0,1.497357734E1
1.721293587E0,1.498950124E0,1.405095100E1,4.729050159E0,1.490100638E1
1.723255421E0,1.920000076E0,1.412700081E1,4.269000053E0,1.488230203E1
1.725217448E0,2.265000105E0,1.435695076E1,3.579000235E0,1.496868409E1
1.727179419E0,2.725050211E0,1.431900024E1,2.928000212E0,1.486717363E1
1.729141544E0,3.262050152E0,1.405095100E1,2.275950193E0,1.460308682E1
1.731103634E0,3.760050297E0,1.389705086E1,1.855050087E0,1.451575736E1
1.733065620E0,4.258049965E0,1.366695023E1,1.585950017E0,1.440249129E1
1.735027637E0,4.642050266E0,1.351395035E1,1.624950051E0,1.438109688E1
1.736989273E0,4.948050022E0,1.343700027E1,1.855050087E0,1.443874601E1
1.738951021E0,5.254950047E0,1.336095047E1,2.353049994E0,1.454875739E1
1.740912735E0,5.599950314E0,1.332300091E1,3.004050255E0,1.476096591E1
1.742874469E0,5.905950069E0,1.324605083E1,3.924000263E0,1.502450954E1
1.744836288E0,6.175050259E0,1.313100052E1,4.921050072E0,1.532224377E1
1.746798082E0,6.481050491E0,1.290105057E1,5.841000080E0,1.557428660E1
1.748759803E0,7.018050194E0,1.236405087E1,6.607050419E0,1.567724139E1
1.750721546E0,7.516050339E0,1.163595009E1,7.105050564E0,1.556817557E1
1.752683224E0,7.861050606E0,1.048605061E1,7.105050564E0,1.490755236E1
1.754644925E0,8.053050041E0,9.375000000E0,6.837000370E0,1.412398011E1
1.756607111E0,8.053050041E0,8.340000153E0,6.339000225E0,1.321325627E1
1.758569154E0,7.899000168E0,7.267050266E0,5.764050484E0,1.218312362E1
1.760531012E0,7.438950539E0,6.232050419E0,4.996950150E0,1.091539960E1
1.762492925E0,6.903000355E0,5.311950207E0,4.384050369E0,9.751314093E0
1.764454904E0,6.289950371E0,4.699050426E0,3.694050074E0,8.677013111E0
1.766416856E0,5.485050201E0,4.354050159E0,3.081000090E0,7.650888187E0
1.768378864E0,5.293050289E0,3.664050102E0,3.081000090E0,7.136820445E0
1.770340856E0,5.485050201E0,2.935950041E0,3.234000206E0,7.011728438E0
1.772302903E0,5.560950279E0,2.245950222E0,3.388050079E0,6.888203231E0
1.774264933E0,5.638050079E0,1.633050084E0,3.502950191E0,6.835577614E0
1.776227087E0,5.715000153E0,9.810000658E-1,3.541050196E0,6.794308233E0
1.778189188E0,5.638050079E0,3.289500177E-1,3.388050079E0,6.585947172E0
1.780152252E0,5.485050201E0,-1.290000081E-1,3.310950041E0,6.408182807E0
1.782115034E0,5.215950012E0,-5.130000114E-1,3.118950129E0,6.098946913E0
1.784076901E0,4.909950256E0,-1.048950076E0,2.965950251E0,5.831360791E0
1.786039036E0,4.411950111E0,-1.471050024E0,2.928000212E0,5.495678047E0
1.788001187E0,3.990000248E0,-1.816050053E0,3.004050255E0,5.314363340E0
1.789963337E0,3.453000069E0,-2.199000120E0,2.965950251E0,5.055261803E0
1.791925357E0,3.031950235E0,-2.544000149E0,2.965950251E0,4.945858861E0
1.793887416E0,2.610000134E0,-2.926950216E0,2.851050138E0,4.848466269E0
1.795849585E0,2.227050066E0,-3.271950245E0,2.659050226E0,4.768223831E0
1.797811722E0,1.882050037E0,-3.616950274E0,2.506050110E0,4.785888504E0
1.799773824E0,1.843950033E0,-3.886050224E0,2.275950193E0,4.866362846E0
1.801735944E0,1.690050125E0,-4.116000175E0,2.430000067E0,5.069775852E0
1.803698103E0,1.690050125E0,-4.306950092E0,2.430000067E0,5.225991662E0
1.805660250E0,1.767000079E0,-4.422000408E0,2.467950106E0,5.363502085E0
1.807622405E0,1.614000082E0,-4.461000443E0,2.506050110E0,5.365240756E0
1.809584558E0,1.537050128E0,-4.614000320E0,2.275950193E0,5.369494514E0
1.811546757E0,1.384050012E0,-4.651950359E0,1.930950046E0,5.223485872E0
1.813508942E0,1.306950092E0,-4.690050125E0,1.624950051E0,5.132752808E0
1.815471226E0,1.269000053E0,-4.767000198E0,1.395000100E0,5.126468307E0
1.817433481E0,1.306950092E0,-4.920000076E0,1.050000072E0,5.197789862E0
1.819395978E0,1.269000053E0,-4.996950150E0,5.899500251E-1,5.189211208E0
1.821358404E0,1.306950092E0,-4.996950150E0,2.449500114E-1,5.170844210E0
1.823320731E0,1.345050097E0,-4.920000076E0,-6.105000153E-2,5.100910469E0
1.825283092E0,1.345050097E0,-4.843950272E0,-2.520000041E-1,5.033539311E0
1.827245525E0,1.345050097E0,-4.575000286E0,-4.060500264E-1,4.785881737E0
1.829207936E0,1.306950092E0,-4.231050014E0,-5.590500236E-1,4.463456026E0
1.831170092E0,1.269000053E0,-3.732000113E0,-5.970000029E-1,3.986802601E0
1.833132323E0,1.192050099E0,-3.271950245E0,-5.209500194E-1,3.521083749E0
1.835094598E0,1.192050099E0,-2.736000061E0,-4.440000355E-1,3.017253023E0
1.837056860E0,1.114950061E0,-2.351999998E0,-4.440000355E-1,2.640483604E0
1.839018861E0,1.000050068E0,-1.854000092E0,-3.670500219E-1,2.138256813E0
1.840980938E0,1.000050068E0,-1.432950020E0,-2.140500098E-1,1.760472466E0
1.842943059E0,1.000050068E0,-1.087950110E0,-1.369500011E-1,1.484079137E0
1.844905167E0,1.000050068E0,-7.039500475E-1,-2.205000073E-2,1.223164752E0
1.846867195E0,1.000050068E0,-4.360500276E-1,5.295000225E-2,1.092265292E0
1.848829246E0,1.077000022E0,-2.059500068E-1,2.070000172E-1,1.115882368E0
1.850790336E0,1.192050099E0,-9.105000645E-2,2.070000172E-1,1.213310575E0
1.852751708E0,1.306950092E0,6.105000153E-2,2.830500007E-1,1.338642204E0
1.854713049E0,1.306950092E0,1.759500057E-1,3.220500052E-1,1.357495176E0
1.856674400E0,1.384050012E0,3.289500177E-1,3.600000143E-1,1.467447634E0
1.858636574E0,1.459950089E0,4.060500264E-1,4.360500276E-1,1.576854627E0
1.860598494E0,1.614000082E0,4.440000355E-1,5.509500504E-1,1.762293464E0
1.862560508E0,1.729050040E0,5.590500236E-1,5.130000114E-1,1.888205493E0
1.864522494E0,1.843950033E0,5.980500579E-1,5.509500504E-1,2.015282004E0
1.866484812E0,1.959000111E0,6.360000372E-1,6.280500293E-1,2.153282220E0
1.868447032E0,2.074050188E0,5.590500236E-1,7.050000429E-1,2.260806531E0
1.870409167E0,2.227050066E0,5.209500194E-1,7.050000429E-1,2.393358724E0
1.872371333E0,2.419050217E0,5.590500236E-1,6.660000086E-1,2.570582987E0
1.874333350E0,2.610000134E0,5.980500579E-1,7.429500222E-1,2.778801775E0
1.876295410E0,2.764050245E0,5.980500579E-1,6.660000086E-1,2.905373236E0
1.878257759E0,2.992950201E0,6.739500165E-1,6.660000086E-1,3.139349541E0
1.880220023E0,3.184950113E0,6.739500165E-1,7.050000429E-1,3.330936942E0
1.882182188E0,3.453000069E0,7.129500508E-1,6.660000086E-1,3.588183839E0
1.884144362E0,3.682950258E0,7.510500550E-1,7.429500222E-1,3.831471457E0
1.886106152E0,4.105050087E0,7.510500550E-1,6.660000086E-1,4.225999102E0
1.888068054E0,4.488000393E0,7.890000343E-1,3.979500234E-1,4.574170176E0
1.890030791E0,4.795050144E0,8.659500480E-1,1.500000060E-2,4.872637927E0
1.891993283E0,5.178000450E0,9.040500522E-1,-4.819500148E-1,5.278377684E0
1.893955335E0,5.523000240E0,9.810000658E-1,-7.890000343E-1,5.664663612E0
1.895917516E0,5.868000507E0,1.173000097E0,-8.269500136E-1,6.040960644E0
1.897878629E0,6.175050259E0,1.402950048E0,-3.289500177E-1,6.340955973E0
1.899840055E0,6.405000210E0,1.747950077E0,7.429500222E-1,6.680668522E0
1.901802468E0,6.558000088E0,2.092950106E0,2.275950193E0,7.250362376E0
1.903764591E0,6.558000088E0,2.514000177E0,4.308000088E0,8.239321987E0
1.905726764E0,6.442950249E0,2.974050045E0,6.531000137E0,9.644197446E0
1.907688913E0,6.366000175E0,3.472050190E0,8.485050201E0,1.116141423E1
1.909651248E0,6.175050259E0,4.047000408E0,9.903000832E0,1.235228252E1
1.911613528E0,6.021000385E0,4.660050392E0,1.074705029E1,1.317071012E1
1.913575346E0,5.830050468E0,5.274000168E0,1.105305099E1,1.356372008E1
1.915537299E0,5.715000153E0,5.964000225E0,1.113000011E1,1.386028239E1
1.917499330E0,5.485050201E0,6.654000282E0,1.116795063E1,1.410973482E1
1.919461321E0,5.254950047E0,7.458000183E0,1.086195087E1,1.418514165E1
1.921423279E0,4.909950256E0,8.493000031E0,9.712050438E0,1.380444076E1
1.923385246E0,4.527000427E0,9.796050072E0,7.756950378E0,1.329009440E1
1.925346936E0,3.990000248E0,1.125300026E1,5.304000378E0,1.306455268E1
1.927308708E0,3.568050146E0,1.267095089E1,2.391000032E0,1.337912028E1
1.929271642E0,2.992950201E0,1.401195049E1,-5.590500236E-1,1.433893456E1
1.931234239E0,2.111999989E0,1.554600048E1,-3.127050161E0,1.599740972E1
1.933195597E0,1.114950061E0,1.734705162E1,-5.043000221E0,1.809959018E1
1.935157318E0,8.100000024E-2,1.911000061E1,-6.960000515E0,2.033814867E1
1.937119726E0,-1.030050039E0,2.056605148E1,-8.263050079E0,2.218786771E1
1.939081932E0,-2.332950115E0,2.240595055E1,-8.722949982E0,2.415696861E1
1.941044088E0,-3.712950230E0,2.478195190E1,-8.340000153E0,2.640997429E1
1.943006251E0,-5.092950344E0,2.803995132E1,-7.266000271E0,2.941040247E1
1.944968538E0,-6.204000473E0,3.110700226E1,-6.385050297E0,3.235589712E1
1.946930788E0,-6.702000141E0,3.409605026E1,-5.350050449E0,3.515793636E1
1.948892791E0,-7.009050369E0,3.746895218E1,-3.739950180E0,3.830191107E1
1.950854867E0,-7.392000198E0,4.072695160E1,-2.514000177E0,4.146862007E1
1.952816992E0,-7.507050514E0,4.375500107E1,-1.210950017E0,4.441083568E1
1.954779100E0,-7.584000587E0,4.655295181E1,9.195000678E-2,4.716675569E1
1.956740226E0,-7.929000378E0,4.877595139E1,1.011000037E0,4.942655766E1
1.958701640E0,-8.350950241E0,4.988700104E1,1.165050030E0,5.059455093E1
1.960663739E0,-8.887050629E0,5.011695099E1,7.810500264E-1,5.090479825E1
1.962625638E0,-9.346950531E0,4.877595139E1,7.050000429E-1,4.966846024E1
1.964588187E0,-9.424050331E0,4.647600174E1,5.899500251E-1,4.742551532E1
1.966550552E0,-9.270000458E0,4.375500107E1,2.070000172E-1,4.472667969E1
1.968512851E0,-8.619000435E0,4.049700165E1,-1.326000094E0,4.142526508E1
1.970475170E0,-8.121000290E0,3.739200211E1,-2.935050249E0,3.837612522E1
1.972436754E0,-7.660950184E0,3.451800156E1,-4.123950005E0,3.559760600E1
1.974398554E0,-7.315950394E0,3.183495140E1,-4.813050270E0,3.301746074E1
1.976360572E0,-6.970950127E0,2.965005112E1,-5.043000221E0,3.087315222E1
1.978322537E0,-6.741000175E0,2.796405220E1,-5.158050060E0,2.922387345E1
1.980284724E0,-6.357000351E0,2.650695038E1,-5.158050060E0,2.774230258E1
1.982246845E0,-5.974050522E0,2.524200058E1,-5.158050060E0,2.644718044E1
1.984208780E0,-5.821050167E0,2.416905022E1,-5.350050449E0,2.542932664E1
1.986170770E0,-5.629050255E0,2.336400032E1,-5.388000488E0,2.462911421E1
1.988132807E0,-5.361000061E0,2.255895042E1,-5.464950085E0,2.382251551E1
1.990094836E0,-5.092950344E0,2.183100128E1,-5.656950474E0,2.311994483E1
1.992056966E0,-4.824000359E0,2.118000031E1,-5.925000191E0,2.251597254E1
1.994019067E0,-4.594050407E0,2.052795029E1,-6.117000103E0,2.190707037E1
1.995980870E0,-4.441050053E0,2.002995110E1,-6.346950531E0,2.147569900E1
1.997942761E0,-4.441050053E0,1.953195000E1,-6.270000458E0,2.098887567E1
1.999904779E0,-4.363950253E0,1.907205009E1,-6.001950264E0,2.046486168E1
2.001866759E0,-4.210950375E0,1.845795059E1,-5.887050152E0,1.982638148E1
2.003828943E0,-4.363950253E0,1.803705025E1,-5.733000278E0,1.942283542E1
2.005791067E0,-4.402950287E0,1.776900101E1,-5.617950439E0,1.914901395E1
2.007753092E0,-4.479000092E0,1.757700157E1,-5.350050449E0,1.891125236E1
2.009715146E0,-4.594050407E0,1.730895042E1,-5.119950294E0,1.862576052E1
2.011677315E0,-4.363950253E0,1.707900047E1,-4.774950027E0,1.826298077E1
2.013639451E0,-4.288050175E0,1.661894989E1,-4.429950237E0,1.772572506E1
2.015601384E0,-4.057950020E0,1.631204987E1,-4.162050247E0,1.731682972E1
2.017563376E0,-3.828000069E0,1.581405067E1,-4.353000164E0,1.684299242E1
2.019525197E0,-3.559950113E0,1.535400105E1,-4.813050270E0,1.647980721E1
2.021487069E0,-3.291000128E0,1.485600090E1,-4.621950150E0,1.590263713E1
2.023449135E0,-2.830950022E0,1.428105068E1,-4.507050037E0,1.524060979E1
2.025411144E0,-2.410050154E0,1.374405098E1,-4.392000198E0,1.462863441E1
2.027372963E0,-2.065050125E0,1.332300091E1,-4.276950359E0,1.414422460E1
2.029334838E0,-1.795950055E0,1.278600025E1,-3.855000257E0,1.347472694E1
2.031297219E0,-1.336950064E0,1.209600067E1,-3.625050068E0,1.269809654E1
2.033259451E0,-1.030050039E0,1.148295021E1,-3.433950186E0,1.202959528E1
2.035221583E0,-6.850500107E-1,1.094595051E1,-3.165000200E0,1.141491797E1
2.037183751E0,-3.019500077E-1,1.033305073E1,-2.859000206E0,1.072552998E1
2.039146757E0,2.719500065E-1,9.643050194E0,-2.704950094E0,1.001893851E1
2.041109518E0,8.470500112E-1,9.030000687E0,-2.514000177E0,9.411620637E0
2.043071254E0,1.306950092E0,8.493000031E0,-2.475000143E0,8.942303605E0
2.045033290E0,1.537050128E0,7.918050289E0,-2.359950066E0,8.404011411E0
2.046995279E0,1.767000079E0,7.381950378E0,-2.206950188E0,7.904815608E0
2.048957285E0,1.996950150E0,6.654000282E0,-2.092050076E0,7.255356861E0
2.050919239E0,2.265000105E0,6.001950264E0,-1.671000123E0,6.629168414E0
2.052881208E0,2.533950090E0,5.389050484E0,-1.287000060E0,6.092547688E0
2.054843392E0,2.878050089E0,4.774950027E0,-1.249050021E0,5.713444323E0
2.056805513E0,3.337950230E0,4.162050247E0,-1.210950017E0,5.470920758E0
2.058767752E0,3.760050297E0,3.586950064E0,-1.287000060E0,5.353555655E0
2.060729932E0,3.990000248E0,3.166050196E0,-1.287000060E0,5.253603047E0
2.062691902E0,4.182000160E0,2.743950129E0,-1.287000060E0,5.164761060E0
2.064653934E0,4.335000038E0,2.361000061E0,-1.210950017E0,5.082612179E0
2.066616063E0,4.182000160E0,1.978050113E0,-1.018950105E0,4.737094775E0
2.068578163E0,4.027950287E0,1.633050084E0,-8.659500480E-1,4.431828694E0
2.070539933E0,3.837000132E0,1.210950017E0,-5.970000029E-1,4.067601131E0
2.072501823E0,3.682950258E0,8.659500480E-1,-5.590500236E-1,3.824464540E0
2.074463841E0,3.568050146E0,5.980500579E-1,-5.590500236E-1,3.660762577E0
2.076425821E0,3.337950230E0,1.759500057E-1,-5.209500194E-1,3.382936456E0
2.078388771E0,3.147000074E0,-9.105000645E-2,-4.819500148E-1,3.184992212E0
2.080351437E0,2.878050089E0,-3.210000098E-1,-5.209500194E-1,2.942380370E0
2.082313499E0,2.802000046E0,-7.810500264E-1,-7.510500550E-1,3.004216967E0
2.084275741E0,2.610000134E0,-1.164000034E0,-7.510500550E-1,2.954838906E0
2.086237520E0,2.380050182E0,-1.624050021E0,-7.510500550E-1,2.977625485E0
2.088199434E0,2.188950062E0,-2.046000004E0,-7.120500207E-1,3.079713237E0
2.090161628E0,1.959000111E0,-2.506050110E0,-6.739500165E-1,3.251488461E0
2.092123739E0,1.767000079E0,-2.889000177E0,-5.590500236E-1,3.432367730E0
2.094085876E0,1.729050040E0,-3.310950041E0,-5.590500236E-1,3.776842748E0
2.096048023E0,1.767000079E0,-3.847050190E0,-5.209500194E-1,4.265380800E0
2.098010178E0,1.614000082E0,-4.192049980E0,-6.739500165E-1,4.542299850E0
2.099972331E0,1.537050128E0,-4.498950005E0,-6.360000372E-1,4.796620715E0
2.101934485E0,1.345050097E0,-4.767000198E0,-4.440000355E-1,4.972985691E0
2.103896638E0,1.269000053E0,-4.959000111E0,-4.060500264E-1,5.134872915E0
2.105858419E0,1.077000022E0,-5.149950027E0,-2.140500098E-1,5.265712842E0
2.107820319E0,1.114950061E0,-5.304000378E0,2.830500007E-1,5.427306049E0
2.109781750E0,1.269000053E0,-5.533950329E0,9.730500579E-1,5.760364033E0
2.111743319E0,1.153950095E0,-5.686950207E0,1.510050058E0,5.996103289E0
2.113704491E0,8.089500666E-1,-5.839950085E0,1.701000094E0,6.136189251E0
2.115665780E0,3.109500110E-1,-5.802000046E0,1.663050056E0,6.043643762E0
2.117628145E0,-1.480500102E-1,-5.610000134E0,2.046000004E0,5.973285220E0
2.119590182E0,-4.170000255E-1,-5.380050182E0,2.506050110E0,5.949715635E0
2.121552356E0,-7.999500632E-1,-5.074050426E0,2.889000177E0,5.893405625E0
2.123514490E0,-9.529500604E-1,-4.690050125E0,3.310950041E0,5.819542436E0
2.125476647E0,-1.222050071E0,-4.306950092E0,3.847950220E0,5.903384315E0
2.127438797E0,-1.144950032E0,-3.924000263E0,3.963000298E0,5.693334699E0
2.129400903E0,-4.930500090E-1,-3.541050196E0,4.116000175E0,5.451934725E0
2.131363025E0,8.100000024E-2,-3.234000206E0,4.078050137E0,5.205363700E0
2.133325229E0,4.260000288E-1,-2.965950251E0,3.924000263E0,4.937217332E0
2.135287408E0,5.020500422E-1,-2.620950222E0,3.733050108E0,4.588801305E0
2.137249738E0,5.790000558E-1,-2.391000032E0,3.463950157E0,4.248655424E0
2.139212023E0,5.410500169E-1,-2.161050081E0,3.273000240E0,3.959217492E0
2.141173915E0,4.639500082E-1,-1.854000092E0,3.157950163E0,3.691234913E0
2.143135933E0,3.870000243E-1,-1.585950017E0,3.081000090E0,3.486770429E0
2.145097930E0,1.960500032E-1,-1.279050112E0,3.043050051E0,3.306744381E0
2.147059933E0,1.189500093E-1,-1.048950076E0,2.928000212E0,3.112495881E0
2.149022157E0,4.200000316E-2,-7.429500222E-1,2.773950100E0,2.872026792E0
2.150984316E0,-7.200000435E-2,-5.130000114E-1,2.659050226E0,2.709040627E0
2.152946636E0,-1.099500060E-1,-3.210000098E-1,2.467950106E0,2.491165939E0
2.154908918E0,-1.099500060E-1,-1.680000126E-1,2.161050081E0,2.170357220E0
2.156870330E0,-1.480500102E-1,-5.295000225E-2,1.969950080E0,1.976215025E0
2.158831997E0,-1.099500060E-1,1.759500057E-1,1.777950048E0,1.790015023E0
2.160794233E0,-3.299999982E-2,3.679500222E-1,1.777950048E0,1.815924721E0
2.162756303E0,4.200000316E-2,7.129500508E-1,1.701000094E0,1.844847716E0
2.164718624E0,1.189500093E-1,9.430500269E-1,1.548000097E0,1.816534271E0
2.166680859E0,1.189500093E-1,1.134000063E0,1.510050058E0,1.892182979E0
2.168643045E0,1.189500093E-1,1.326000094E0,1.432950020E0,1.955957851E0
2.170605246E0,1.570500135E-1,1.594050050E0,1.279950023E0,2.050349319E0
2.172567392E0,8.100000024E-2,1.747950077E0,1.087950110E0,2.060467402E0
2.174529554E0,-7.200000435E-2,1.978050113E0,8.200500607E-1,2.142509825E0
2.176491859E0,-4.549500346E-1,2.208000183E0,6.660000086E-1,2.350702098E0
2.178454109E0,-5.320500135E-1,2.361000061E0,5.130000114E-1,2.473978075E0
2.180417148E0,-6.469500065E-1,2.437050104E0,1.300500035E-1,2.524810988E0
2.182379955E0,-6.850500107E-1,2.551950216E0,-1.759500057E-1,2.648150643E0
2.184342043E0,-7.620000243E-1,2.629050016E0,-5.209500194E-1,2.786384207E0
2.186304342E0,-6.079500318E-1,2.667000055E0,-7.890000343E-1,2.846930556E0
2.188266606E0,-4.930500090E-1,2.667000055E0,-1.171950102E0,2.954565052E0
2.190228880E0,-3.780000210E-1,2.590950012E0,-1.594050050E0,3.065436599E0
2.192190878E0,-4.170000255E-1,2.590950012E0,-1.939050078E0,3.262947470E0
2.194152957E0,-3.400500119E-1,2.514000177E0,-2.284050226E0,3.413607526E0
2.196115303E0,-2.250000089E-1,2.361000061E0,-2.551950216E0,3.483876605E0
2.198077571E0,-2.250000089E-1,2.284050226E0,-2.859000206E0,3.666250485E0
2.200039512E0,-2.629500031E-1,2.208000183E0,-3.012000084E0,3.743868590E0
2.202001559E0,-2.629500031E-1,2.053950071E0,-3.012000084E0,3.655133117E0
2.203963730E0,-2.250000089E-1,1.978050113E0,-2.820000172E0,3.451913704E0
2.205925864E0,-2.250000089E-1,1.824000120E0,-2.782050133E0,3.334277191E0
2.207888202E0,-3.780000210E-1,1.708950043E0,-2.629050016E0,3.158369556E0
2.209850480E0,-4.549500346E-1,1.671000123E0,-2.590050220E0,3.115699133E0
2.211812608E0,-4.930500090E-1,1.671000123E0,-2.092050076E0,2.722501284E0
2.213774784E0,-3.400500119E-1,1.708950043E0,-1.363950014E0,2.212804533E0
2.215736033E0,-7.200000435E-2,1.824000120E0,5.295000225E-2,1.826188419E0
2.217697554E0,2.719500065E-1,2.053950071E0,1.816050053E0,2.755123499E0
2.219660716E0,6.550500393E-1,2.398950100E0,4.000950336E0,4.710802026E0
2.221623398E0,1.077000022E0,2.935950041E0,6.223950386E0,6.965435385E0
2.223585647E0,1.306950092E0,3.625950098E0,8.599950790E0,9.424159711E0
2.225548020E0,1.614000082E0,4.354050159E0,1.032495022E1,1.132110180E1
2.227510317E0,1.959000111E0,5.235000134E0,1.143705082E1,1.272984836E1
2.229472636E0,2.265000105E0,6.385050297E0,1.166595078E1,1.349049666E1
2.231434896E0,2.265000105E0,7.918050289E0,1.105305099E1,1.378389213E1
2.233397174E0,2.649000168E0,9.643050194E0,9.558000565E0,1.383332909E1
2.235359462E0,3.492000103E0,1.155900097E1,7.527000427E0,1.422885461E1
2.237321764E0,4.488000393E0,1.343700027E1,5.419050217E0,1.516776942E1
2.239284073E0,5.140050411E0,1.523895073E1,3.388050079E0,1.643546838E1
2.241246379E0,5.407950401E0,1.657995033E1,1.548000097E0,1.750819765E1
2.243209633E0,4.987050056E0,1.795995140E1,-6.105000153E-2,1.863958824E1
2.245172610E0,3.837000132E0,1.999200058E1,-1.441050053E0,2.040782405E1
2.247134573E0,2.419050217E0,2.259795189E1,-2.053950071E0,2.281968327E1
2.249096837E0,1.729050040E0,2.524200058E1,-2.053950071E0,2.538438335E1
2.251058792E0,1.230000019E0,2.792505074E1,-1.479000092E0,2.799122720E1
2.253020838E0,1.269000053E0,3.018705177E1,-4.060500264E-1,3.021644143E1
2.254981928E0,1.920000076E0,3.237105179E1,8.959500194E-1,3.244031628E1
2.256943299E0,3.376950264E0,3.409605026E1,1.510050058E0,3.429613226E1
2.258905420E0,5.062950134E0,3.520800018E1,1.548000097E0,3.560383470E1
2.260867311E0,6.673050404E0,3.562905121E1,1.087950110E0,3.626489387E1
2.262829330E0,8.014050484E0,3.555300140E1,3.979500234E-1,3.644721221E1
2.264791311E0,8.704050064E0,3.493905258E1,6.280500293E-1,3.601239134E1
2.266753180E0,8.857950211E0,3.394305038E1,1.893000126E0,3.513086109E1
2.268715082E0,7.822950363E0,3.340605164E1,3.463950157E0,3.448422522E1
2.270676684E0,5.523000240E0,3.306105042E1,4.039050102E0,3.376167223E1
2.272638381E0,1.996950150E0,3.241005325E1,3.579000235E0,3.266815888E1
2.274599757E0,-1.222050071E0,3.126000214E1,2.583000183E0,3.139033338E1
2.276561227E0,-3.559950113E0,2.949705124E1,1.087950110E0,2.973100927E1
2.278523812E0,-5.284050465E0,2.769495201E1,-5.590500236E-1,2.820007257E1
2.280486071E0,-6.511050224E0,2.570205116E1,-2.475000143E0,2.662921018E1
2.282447857E0,-7.621950150E0,2.424600029E1,-4.200000286E0,2.576048634E1
2.284409775E0,-8.389050484E0,2.286600113E1,-5.427000046E0,2.495360706E1
2.286371293E0,-9.079050064E0,2.171595192E1,-6.040050507E0,2.430008082E1
2.288332929E0,-9.654000282E0,2.091105080E1,-6.117000103E0,2.383043132E1
2.290294630E0,-1.038195038E1,2.026005173E1,-6.040050507E0,2.355285120E1
2.292256311E0,-1.095705032E1,1.964700127E1,-5.962950230E0,2.327269615E1
2.294218386E0,-1.145505047E1,1.907205009E1,-6.078000069E0,2.306303018E1
2.296180331E0,-1.195305061E1,1.861200142E1,-5.809950352E0,2.287001397E1
2.298142341E0,-1.245195103E1,1.822800064E1,-5.272950172E0,2.269614715E1
2.300104331E0,-1.287300014E1,1.788300133E1,-5.197050095E0,2.263901939E1
2.302065928E0,-1.314105034E1,1.757700157E1,-5.158050060E0,2.254426022E1
2.304027641E0,-1.321800041E1,1.734705162E1,-5.235000134E0,2.242857466E1
2.305989504E0,-1.294995022E1,1.704000092E1,-5.503050327E0,2.209856115E1
2.307951326E0,-1.237500095E1,1.673400116E1,-5.695050240E0,2.157779045E1
2.309913717E0,-1.195305061E1,1.642695045E1,-5.695050240E0,2.109866625E1
2.311875942E0,-1.149300098E1,1.612005043E1,-5.464950085E0,2.053803245E1
2.313838084E0,-1.091805077E1,1.592895031E1,-5.311950207E0,2.002878193E1
2.315800251E0,-1.003695011E1,1.566000080E1,-5.082000256E0,1.928218658E1
2.317762428E0,-9.346950531E0,1.554600048E1,-4.852050304E0,1.877727369E1
2.319724615E0,-8.772000313E0,1.569900036E1,-4.660050392E0,1.857747753E1
2.321686404E0,-8.158950806E0,1.581405067E1,-4.468050003E0,1.834710189E1
2.323648309E0,-7.660950184E0,1.585200119E1,-4.315050125E0,1.812721040E1
2.325610505E0,-7.315950394E0,1.600500107E1,-4.084949970E0,1.806571354E1
2.327572615E0,-6.931950092E0,1.608195114E1,-3.817050219E0,1.792347502E1
2.329534532E0,-6.433950424E0,1.623495102E1,-3.472050190E0,1.780518141E1
2.331496520E0,-5.935950279E0,1.635000038E1,-3.241950035E0,1.769373500E1
2.333458566E0,-5.323050022E0,1.654200172E1,-3.127050161E0,1.765647545E1
2.335420595E0,-4.824000359E0,1.650405121E1,-2.896950245E0,1.743694373E1
2.337382546E0,-4.249050140E0,1.623495102E1,-2.704950094E0,1.699837688E1
2.339344520E0,-3.943050146E0,1.604400063E1,-2.514000177E0,1.671160667E1
2.341306543E0,-3.636000156E0,1.577505112E1,-2.551950216E0,1.638856872E1
2.343268538E0,-3.291000128E0,1.516200066E1,-2.053950071E0,1.565042033E1
2.345230360E0,-3.175950050E0,1.466400051E1,-1.479000092E0,1.507670425E1
2.347192232E0,-3.100050211E0,1.412700081E1,-7.890000343E-1,1.448464650E1
2.349153353E0,-3.100050211E0,1.366695023E1,-6.105000153E-2,1.401426298E1
2.351114694E0,-3.175950050E0,1.328400040E1,7.810500264E-1,1.368069313E1
2.353077027E0,-3.291000128E0,1.297800064E1,1.510050058E0,1.347365703E1
2.355039072E0,-3.636000156E0,1.282395077E1,1.740000129E0,1.344253737E1
2.357001020E0,-4.096050262E0,1.274805069E1,1.893000126E0,1.352308669E1
2.358962997E0,-4.249050140E0,1.263300037E1,1.510050058E0,1.341370108E1
2.360924685E0,-4.134000301E0,1.232595062E1,1.279950023E0,1.306358639E1
2.362886458E0,-3.675000191E0,1.209600067E1,1.395000100E0,1.271868248E1
2.364848271E0,-3.061050177E0,1.194300079E1,1.510050058E0,1.242117335E1
2.366810072E0,-2.295000076E0,1.182795048E1,1.510050058E0,1.214280400E1
2.368771926E0,-1.605000019E0,1.178895092E1,1.740000129E0,1.202426668E1
2.370733764E0,-7.999500632E-1,1.175100040E1,2.046000004E0,1.195458266E1
2.372696152E0,4.200000316E-2,1.182795048E1,2.430000067E0,1.207506012E1
2.374658379E0,6.169500351E-1,1.209600067E1,2.698050022E0,1.240859918E1
2.376620517E0,1.269000053E0,1.240305042E1,2.736000061E0,1.276447090E1
2.378582684E0,1.804950118E0,1.255605030E1,2.506050110E0,1.293029509E1
2.380544836E0,2.227050066E0,1.286295033E1,1.930950046E0,1.319635598E1
2.382506992E0,2.572050095E0,1.301595020E1,2.200050116E0,1.344881489E1
2.384468785E0,2.686950207E0,1.309305096E1,2.008050203E0,1.351591471E1
2.386430684E0,2.380050182E0,1.309305096E1,1.395000100E0,1.338053241E1
2.388392881E0,1.996950150E0,1.316895103E1,9.730500579E-1,1.335499561E1
2.390354990E0,1.690050125E0,1.316895103E1,8.200500607E-1,1.330225631E1
2.392316837E0,1.498950124E0,1.290105057E1,7.810500264E-1,1.301130264E1
2.394278761E0,1.498950124E0,1.247895050E1,1.050000072E0,1.261243661E1
2.396240728E0,1.498950124E0,1.201905060E1,1.356000066E0,1.218782856E1
2.398202682E0,1.537050128E0,1.155900097E1,1.548000097E0,1.176304938E1
2.400164546E0,1.614000082E0,1.110000038E1,1.816050053E0,1.136279202E1
2.402126443E0,1.690050125E0,1.075500011E1,2.085000038E0,1.108483297E1
2.404088100E0,1.767000079E0,1.044795036E1,2.545050144E0,1.089767114E1
2.406049828E0,1.959000111E0,1.021800041E1,3.310950041E0,1.091822348E1
2.408011693E0,2.111999989E0,1.010295010E1,4.116000175E0,1.111177763E1
2.409973518E0,2.380050182E0,9.720000267E0,4.921050072E0,1.115167153E1
2.411935715E0,2.649000168E0,9.528000832E0,5.496000290E0,1.131397459E1
2.413897812E0,3.031950235E0,9.067950249E0,6.031950474E0,1.130508162E1
2.415859751E0,3.453000069E0,8.455050468E0,6.223950386E0,1.105208787E1
2.417821737E0,4.066950321E0,7.803000450E0,6.415950298E0,1.088996415E1
2.419783783E0,4.450050354E0,7.113000393E0,6.109050274E0,1.037873875E1
2.421745812E0,4.488000393E0,6.538950443E0,5.572050095E0,9.692665407E0
2.423707787E0,4.258049965E0,6.346950531E0,5.188950062E0,9.237963698E0
2.425669761E0,4.143000126E0,6.001950264E0,4.576050282E0,8.609767314E0
2.427631630E0,4.258049965E0,5.464950085E0,4.078050137E0,8.039102055E0
2.429593530E0,4.488000393E0,4.852050304E0,3.733050108E0,7.590797243E0
2.431555681E0,4.642050266E0,4.276950359E0,3.426000118E0,7.181811183E0
2.433517759E0,4.335000038E0,4.276950359E0,3.004050255E0,6.790349596E0
2.435479582E0,4.335000038E0,3.511050224E0,3.196050167E0,6.429186238E0
2.437441501E0,4.909950256E0,2.782050133E0,3.694050074E0,6.744881052E0
2.439403335E0,5.178000450E0,2.131050110E0,4.153950214E0,6.971969995E0
2.441365194E0,5.215950012E0,1.363950014E0,4.308000088E0,6.901112876E0
2.443327938E0,5.178000450E0,6.360000372E-1,4.384050369E0,6.814402567E0
2.445290422E0,5.062950134E0,-1.290000081E-1,4.345950127E0,6.673633760E0
2.447252301E0,4.717950344E0,-6.660000086E-1,4.269000053E0,6.397419239E0
2.449214385E0,4.527000427E0,-1.356000066E0,4.231050014E0,6.343047633E0
2.451176371E0,4.297049999E0,-2.008050203E0,4.116000175E0,6.279996955E0
2.453138385E0,4.182000160E0,-2.544000149E0,4.000950336E0,6.322077640E0
2.455100203E0,4.105050087E0,-3.042000055E0,3.886050224E0,6.419235694E0
2.457062078E0,4.027950287E0,-3.387000084E0,3.886050224E0,6.541982836E0
2.459024108E0,3.874950171E0,-3.694050074E0,3.808950186E0,6.570338369E0
2.460986086E0,3.760050297E0,-3.961950302E0,3.733050108E0,6.615942226E0
2.462947910E0,3.645000219E0,-4.192049980E0,3.579000235E0,6.608218543E0
2.464909780E0,3.529950142E0,-4.461000443E0,3.426000118E0,6.640673894E0
2.466871622E0,3.415050268E0,-4.575000286E0,3.234000206E0,6.561398729E0
2.468833472E0,3.184950113E0,-4.690050125E0,2.928000212E0,6.380725871E0
2.470795323E0,2.955000162E0,-4.804950237E0,2.545050144E0,6.188445118E0
2.472757170E0,2.839950085E0,-4.959000111E0,1.969950080E0,6.044642413E0
2.474719375E0,2.802000046E0,-5.074050426E0,1.624950051E0,6.019771977E0
2.476681475E0,2.725050211E0,-5.149950027E0,1.356000066E0,5.982191916E0
2.478643414E0,2.686950207E0,-5.188950062E0,8.959500194E-1,5.911652104E0
2.480605400E0,2.725050211E0,-5.112000465E0,5.130000114E-1,5.815635513E0
2.482568288E0,2.764050245E0,-4.996950150E0,1.680000126E-1,5.712942198E0
2.484530922E0,2.802000046E0,-4.767000198E0,5.295000225E-2,5.529764810E0
2.486492634E0,2.878050089E0,-4.575000286E0,-9.900000691E-2,5.405885768E0
2.488454616E0,2.764050245E0,-4.116000175E0,-1.369500011E-1,4.959857509E0
2.490416618E0,2.610000134E0,-3.694050074E0,-9.900000691E-2,4.524147173E0
2.492378614E0,2.533950090E0,-3.234000206E0,-6.105000153E-2,4.108939948E0
2.494340728E0,2.380050182E0,-2.773950100E0,-2.205000073E-2,3.655123012E0
2.496302855E0,2.304000139E0,-2.351999998E0,5.295000225E-2,3.292889967E0
2.498264474E0,2.341950178E0,-1.930950046E0,1.300500035E-1,3.038126350E0
2.500226242E0,2.265000105E0,-1.471050024E0,2.070000172E-1,2.708701286E0
2.502188100E0,2.265000105E0,-1.126049995E0,2.449500114E-1,2.541301748E0
2.504149932E0,2.227050066E0,-7.429500222E-1,2.830500007E-1,2.364708023E0
2.506111255E0,2.265000105E0,-4.740000367E-1,3.220500052E-1,2.336368489E0
2.508072717E0,2.341950178E0,-2.059500068E-1,3.600000143E-1,2.378391484E0
2.510034088E0,2.380050182E0,-5.295000225E-2,3.220500052E-1,2.402323621E0
2.511995486E0,2.457000017E0,2.295000106E-2,3.220500052E-1,2.478122675E0
2.513958174E0,2.533950090E0,2.910000086E-1,2.830500007E-1,2.566262139E0
2.515920484E0,2.610000134E0,4.440000355E-1,2.830500007E-1,2.662584089E0
2.517882617E0,2.649000168E0,7.129500508E-1,2.830500007E-1,2.757828306E0
2.519844799E0,2.725050211E0,8.659500480E-1,2.449500114E-1,2.869802893E0
2.521805867E0,2.802000046E0,1.018950105E0,2.830500007E-1,2.994925855E0
2.523767261E0,2.878050089E0,1.173000097E0,3.220500052E-1,3.124550807E0
2.525729364E0,3.070050240E0,1.249050021E0,3.600000143E-1,3.333906783E0
2.527691259E0,3.184950113E0,1.288050056E0,3.979500234E-1,3.458517658E0
2.529653242E0,3.262050152E0,1.326000094E0,5.899500251E-1,3.570334505E0
2.531615192E0,3.453000069E0,1.402950048E0,6.280500293E-1,3.779672625E0
2.533577021E0,3.529950142E0,1.441050053E0,7.810500264E-1,3.891941983E0
2.535538886E0,3.682950258E0,1.518000126E0,7.429500222E-1,4.052211954E0
2.537500953E0,3.760050297E0,1.671000123E0,7.429500222E-1,4.181171413E0
2.539462961E0,3.913050175E0,1.708950043E0,6.280500293E-1,4.315891421E0
2.541424901E0,4.143000126E0,1.747950077E0,5.509500504E-1,4.530267704E0
2.543386871E0,4.372950077E0,1.747950077E0,5.130000114E-1,4.737213407E0
2.545348516E0,4.488000393E0,1.747950077E0,3.979500234E-1,4.832788141E0
2.547310256E0,4.642050266E0,1.786050081E0,3.979500234E-1,4.989686342E0
2.549272705E0,4.833000183E0,1.786050081E0,3.220500052E-1,5.162517009E0
2.551234946E0,5.025000095E0,1.747950077E0,1.300500035E-1,5.321923377E0
2.553196656E0,5.331000328E0,1.747950077E0,-1.759500057E-1,5.613007427E0
2.555158539E0,5.599950314E0,1.708950043E0,-5.590500236E-1,5.881538123E0
2.557120379E0,5.905950069E0,1.786050081E0,-9.810000658E-1,6.247606121E0
2.559082232E0,6.136050224E0,1.863000035E0,-9.810000658E-1,6.487236901E0
2.561043536E0,6.328050137E0,2.053950071E0,-5.590500236E-1,6.676486078E0
2.563005001E0,6.289950371E0,2.361000061E0,5.899500251E-1,6.744318942E0
2.564966956E0,6.289950371E0,2.743950129E0,2.200050116E0,7.206452559E0
2.566928768E0,6.097950459E0,3.166050196E0,4.308000088E0,8.109731092E0
2.568890576E0,5.830050468E0,3.549000263E0,6.760950089E0,9.607046239E0
2.570852386E0,5.599950314E0,4.047000408E0,8.983950615E0,1.133353539E1
2.572813922E0,5.331000328E0,4.621950150E0,1.078500080E1,1.288791022E1
2.574775539E0,4.987050056E0,5.119950294E0,1.193505096E1,1.391150606E1
2.576737039E0,4.527000427E0,5.619000435E0,1.224105072E1,1.420951166E1
2.578698559E0,4.182000160E0,6.270000458E0,1.239495087E1,1.450644126E1
2.580660640E0,3.798000097E0,6.922050476E0,1.224105072E1,1.456649959E1
2.582622557E0,3.415050268E0,7.687950134E0,1.166595078E1,1.438268240E1
2.584584392E0,2.955000162E0,8.647050858E0,1.074705029E1,1.410682829E1
2.586546252E0,2.457000017E0,9.835050583E0,9.136950493E0,1.364730499E1
2.588507955E0,1.882050037E0,1.110000038E1,6.760950089E0,1.313250041E1
2.590469708E0,1.306950092E0,1.236405087E1,3.847950220E0,1.301478364E1
2.592431704E0,7.320000529E-1,1.370595074E1,1.126049995E0,1.377159752E1
2.594393629E0,-3.019500077E-1,1.531605053E1,-1.594050050E0,1.540173929E1
2.596355642E0,-1.489950061E0,1.700205040E1,-3.855000257E0,1.749716251E1
2.598317629E0,-2.485950232E0,1.853505135E1,-5.656950474E0,1.953789051E1
2.600279472E0,-3.712950230E0,2.052795029E1,-6.652950287E0,2.189622090E1
2.602241344E0,-5.284050465E0,2.313405037E1,-6.844950199E0,2.469734437E1
2.604203365E0,-6.549000263E0,2.654595184E1,-6.232050419E0,2.804309926E1
2.606165342E0,-7.660950184E0,2.999505234E1,-5.503050327E0,3.144323274E1
2.608127346E0,-8.464950562E0,3.352095032E1,-4.774950027E0,3.490142756E1
2.610089342E0,-9.154950142E0,3.743100357E1,-3.625050068E0,3.870444585E1
2.612051193E0,-9.346950531E0,4.137795258E1,-3.165000200E0,4.253842580E1
2.614013098E0,-9.001950264E0,4.501905060E1,-2.514000177E0,4.597901937E1
2.615975113E0,-8.350950241E0,4.823895264E1,-1.671000123E0,4.898496874E1
2.617937096E0,-7.660950184E0,5.065395355E1,-1.326000094E0,5.124716035E1
2.619898920E0,-6.894000530E0,5.164995193E1,-1.479000092E0,5.212899596E1
2.621860790E0,-6.241950512E0,5.180295181E1,-1.747050047E0,5.220689558E1
2.623822806E0,-6.088950157E0,5.126700211E1,-1.747050047E0,5.165687759E1
2.625784783E0,-6.051000118E0,4.938900375E1,-1.786050081E0,4.979034313E1
2.627746787E0,-6.241950512E0,4.662900162E1,-2.092050076E0,4.709142609E1
2.629708783E0,-6.013050079E0,4.360095215E1,-3.088950157E0,4.412189267E1
2.631670605E0,-5.437950134E0,4.022805023E1,-4.162050247E0,4.080673951E1
2.633632478E0,-4.747950077E0,3.700905228E1,-4.736999989E0,3.761186182E1
2.635594512E0,-4.096050262E0,3.405795288E1,-5.197050095E0,3.469482832E1
2.637556457E0,-3.559950113E0,3.160500145E1,-5.617950439E0,3.229722478E1
2.639518646E0,-3.138000250E0,2.949705124E1,-5.695050240E0,3.020524250E1
2.641480764E0,-2.793000221E0,2.781000137E1,-5.542050362E0,2.849405813E1
2.643442430E0,-2.256000042E0,2.631600189E1,-5.235000134E0,2.692632018E1
2.645404228E0,-1.873050094E0,2.485905075E1,-5.235000134E0,2.547323983E1
2.647365907E0,-1.528050065E0,2.374800110E1,-5.388000488E0,2.439944758E1
2.649327618E0,-1.375050068E0,2.278905106E1,-5.427000046E0,2.346665592E1
2.651289486E0,-1.222050071E0,2.179305077E1,-5.503050327E0,2.251030944E1
2.653251308E0,-1.144950032E0,2.110305023E1,-5.503050327E0,2.183880039E1
2.655213339E0,-1.068000078E0,2.037495041E1,-5.809950352E0,2.121402252E1
2.657175308E0,-1.030050039E0,1.968495178E1,-6.040050507E0,2.061651134E1
2.659137449E0,-1.030050039E0,1.907205009E1,-6.117000103E0,2.005546779E1
2.661099539E0,-1.222050071E0,1.842000008E1,-6.001950264E0,1.941167731E1
2.663061344E0,-1.336950064E0,1.792200089E1,-5.848050117E0,1.889934500E1
2.665023233E0,-1.567050099E0,1.750005150E1,-5.503050327E0,1.841170854E1
2.666985117E0,-1.950000048E0,1.704000092E1,-5.427000046E0,1.798934298E1
2.668947002E0,-2.295000076E0,1.661894989E1,-5.272950172E0,1.758580463E1
2.670909151E0,-2.563050032E0,1.619700050E1,-4.927950382E0,1.712298881E1
2.672871226E0,-3.022950172E0,1.581405067E1,-4.736999989E0,1.678277675E1
2.674832854E0,-3.291000128E0,1.543095112E1,-4.621950150E0,1.644102665E1
2.676794613E0,-3.520950079E0,1.497105026E1,-4.429950237E0,1.600480848E1
2.678756473E0,-3.675000191E0,1.447200108E1,-4.392000198E0,1.556387186E1
2.680718303E0,-3.943050146E0,1.397400093E1,-4.621950150E0,1.523754474E1
2.682680075E0,-3.981000185E0,1.351395035E1,-4.621950150E0,1.482692280E1
2.684641824E0,-3.981000185E0,1.301595020E1,-4.353000164E0,1.429027406E1
2.686603506E0,-3.943050146E0,1.247895050E1,-3.970050097E0,1.367600628E1
2.688565208E0,-4.096050262E0,1.194300079E1,-3.625050068E0,1.313597669E1
2.690527213E0,-3.865950108E0,1.144395065E1,-3.549000263E0,1.258987608E1
2.692489129E0,-3.865950108E0,1.090800095E1,-3.433950186E0,1.207153962E1
2.694450951E0,-3.636000156E0,1.037100029E1,-3.472050190E0,1.152533195E1
2.696412810E0,-3.520950079E0,9.835050583E0,-3.241950035E0,1.093780369E1
2.698374654E0,-3.367950201E0,9.336000443E0,-2.896950245E0,1.033906734E1
2.700336502E0,-3.367950201E0,8.800050735E0,-2.514000177E0,9.752137119E0
2.702298212E0,-3.367950201E0,8.263050079E0,-2.398950100E0,9.239915949E0
2.704259963E0,-2.985000134E0,7.687950134E0,-2.398950100E0,8.588932684E0
2.706221581E0,-2.677950144E0,7.189950466E0,-2.284050226E0,8.005228923E0
2.708183252E0,-2.332950115E0,6.730050087E0,-2.130000114E0,7.434590164E0
2.710144992E0,-2.026050091E0,6.270000458E0,-2.014950037E0,6.890414237E0
2.712106712E0,-1.605000019E0,5.809950352E0,-2.092050076E0,6.380299497E0
2.714068220E0,-1.183050036E0,5.350050449E0,-2.284050226E0,5.936289467E0
2.716029791E0,-1.030050039E0,5.005050182E0,-2.437050104E0,5.661337618E0
2.717991803E0,-8.770500422E-1,4.584000111E0,-2.514000177E0,5.301176349E0
2.719953697E0,-5.320500135E-1,4.276950359E0,-2.629050016E0,5.048493397E0
2.721915715E0,-3.019500077E-1,3.817050219E0,-2.629050016E0,4.644669005E0
2.723877697E0,4.200000316E-2,3.472050190E0,-2.551950216E0,4.309216452E0
2.725839745E0,2.340000123E-1,3.127050161E0,-2.514000177E0,4.019128713E0
2.727801774E0,2.719500065E-1,2.782050133E0,-2.437050104E0,3.708500095E0
2.729763564E0,3.490500152E-1,2.398950100E0,-2.359950066E0,3.383217671E0
2.731725410E0,4.260000288E-1,2.016000032E0,-2.245050192E0,3.047291013E0
2.733688337E0,7.699500322E-1,1.518000126E0,-2.284050226E0,2.848514151E0
2.735650947E0,1.039050102E0,1.096050024E0,-2.322000027E0,2.769952147E0
2.737613023E0,1.077000022E0,6.739500165E-1,-2.322000027E0,2.646851298E0
2.739575256E0,1.114950061E0,1.380000114E-1,-2.284050226E0,2.545396448E0
2.741538010E0,1.230000019E0,-2.830500007E-1,-2.284050226E0,2.609579044E0
2.743500591E0,1.384050012E0,-7.429500222E-1,-2.206950188E0,2.708910907E0
2.745462312E0,1.575000048E0,-1.279050112E0,-2.014950037E0,2.859478622E0
2.747424285E0,1.690050125E0,-1.816050053E0,-1.861950040E0,3.101800311E0
2.749386065E0,1.843950033E0,-2.351999998E0,-1.594050050E0,3.387189289E0
2.751347901E0,1.959000111E0,-2.889000177E0,-1.326000094E0,3.733936222E0
2.753309938E0,2.074050188E0,-3.349050045E0,-1.171950102E0,4.109901146E0
2.755271909E0,2.149950027E0,-3.694050074E0,-9.810000658E-1,4.385276753E0
2.757233780E0,2.111999989E0,-4.039050102E0,-7.120500207E-1,4.613185983E0
2.759195680E0,1.996950150E0,-4.269000053E0,-6.360000372E-1,4.755698414E0
2.761157831E0,1.959000111E0,-4.575000286E0,-4.440000355E-1,4.996543313E0
2.763119909E0,1.729050040E0,-4.651950359E0,-4.060500264E-1,4.979471138E0
2.765082121E0,1.459950089E0,-4.729050159E0,-3.289500177E-1,4.960199370E0
2.767044293E0,1.192050099E0,-4.575000286E0,-9.900000691E-2,4.728785474E0
2.769004778E0,8.089500666E-1,-4.461000443E0,3.220500052E-1,4.545177814E0
2.770965757E0,4.639500082E-1,-4.269000053E0,6.660000086E-1,4.345476623E0
2.772928156E0,1.960500032E-1,-4.039050102E0,1.050000072E0,4.177901564E0
2.774890139E0,4.050000105E-3,-3.771000147E0,1.471050024E0,4.047770582E0
2.776852258E0,-1.480500102E-1,-3.541050196E0,2.200050116E0,4.171471659E0
2.778814351E0,-3.400500119E-1,-3.387000084E0,2.391000032E0,4.159841912E0
2.780776516E0,-3.780000210E-1,-3.157050133E0,2.851050138E0,4.270636539E0
2.782738659E0,-4.549500346E-1,-3.004050255E0,3.273000240E0,4.465851323E0
2.784700636E0,-3.019500077E-1,-2.889000177E0,3.579000235E0,4.609418457E0
2.786662661E0,-1.480500102E-1,-2.773950100E0,3.924000263E0,4.807753740E0
2.788624701E0,4.200000316E-2,-2.620950222E0,4.269000053E0,5.009541448E0
2.790586736E0,8.100000024E-2,-2.391000032E0,4.461000443E0,5.062012160E0
2.792549226E0,3.109500110E-1,-2.275950193E0,4.384050369E0,4.949397623E0
2.794511582E0,4.639500082E-1,-2.238000154E0,4.231050014E0,4.808916565E0
2.796473567E0,5.020500422E-1,-1.930950046E0,4.192950249E0,4.643431286E0
2.798435661E0,2.719500065E-1,-1.624050021E0,4.039050102E0,4.361813958E0
2.800397954E0,1.570500135E-1,-1.279050112E0,4.078050137E0,4.276812693E0
2.802360192E0,8.100000024E-2,-8.959500194E-1,3.963000298E0,4.063823175E0
2.804322333E0,4.050000105E-3,-5.509500504E-1,3.924000263E0,3.962491694E0
2.806284502E0,8.100000024E-2,-2.830500007E-1,3.808950186E0,3.820311482E0
2.808245617E0,8.100000024E-2,-1.290000081E-1,3.502950191E0,3.506260408E0
2.810207041E0,8.100000024E-2,6.105000153E-2,3.273000240E0,3.274571526E0
2.812169172E0,1.570500135E-1,2.530499995E-1,3.043050051E0,3.057589348E0
2.814131072E0,2.340000123E-1,4.440000355E-1,2.889000177E0,2.932271144E0
2.816093224E0,3.490500152E-1,6.360000372E-1,2.698050022E0,2.793887235E0
2.818055302E0,4.639500082E-1,9.040500522E-1,2.391000032E0,2.597967910E0
2.820018010E0,6.550500393E-1,1.134000063E0,2.200050116E0,2.560325606E0
2.821980533E0,8.089500666E-1,1.363950014E0,2.161050081E0,2.680465875E0
2.823942596E0,8.850000501E-1,1.633050084E0,2.008050203E0,2.735387228E0
2.825904814E0,9.240000248E-1,2.016000032E0,1.893000126E0,2.915730038E0
2.827866596E0,9.240000248E-1,2.169000149E0,1.740000129E0,2.930177152E0
2.829828506E0,9.619500637E-1,2.361000061E0,1.510050058E0,2.963093045E0
2.831790565E0,1.000050068E0,2.514000177E0,1.395000100E0,3.044063454E0
2.833752581E0,1.114950061E0,2.667000055E0,1.165050030E0,3.116623895E0
2.835714726E0,1.230000019E0,2.782050133E0,8.200500607E-1,3.150426176E0
2.837676856E0,1.306950092E0,2.821050167E0,5.130000114E-1,3.151128623E0
2.839640050E0,1.269000053E0,2.859000206E0,1.300500035E-1,3.130679849E0
2.841602933E0,1.306950092E0,2.896950245E0,-3.289500177E-1,3.195097397E0
2.843564962E0,1.306950092E0,2.859000206E0,-7.890000343E-1,3.241067999E0
2.845527242E0,1.306950092E0,2.782050133E0,-1.210950017E0,3.303683010E0
2.847489049E0,1.269000053E0,2.629050016E0,-1.747050047E0,3.402124188E0
2.849451002E0,1.269000053E0,2.514000177E0,-1.900950074E0,3.397671145E0
2.851413189E0,1.192050099E0,2.284050226E0,-2.245050192E0,3.417326329E0
2.853375307E0,1.153950095E0,2.053950071E0,-2.398950100E0,3.362331527E0
2.855337288E0,1.077000022E0,1.786050081E0,-2.514000177E0,3.266512028E0
2.857299309E0,1.077000022E0,1.441050053E0,-2.590050220E0,3.153555842E0
2.859261305E0,1.039050102E0,1.173000097E0,-2.629050016E0,3.060630381E0
2.861223309E0,1.039050102E0,8.280000687E-1,-2.590050220E0,2.910939603E0
2.863185128E0,9.240000248E-1,5.590500236E-1,-2.551950216E0,2.771058080E0
2.865147002E0,6.550500393E-1,2.530499995E-1,-2.629050016E0,2.721218265E0
2.867109202E0,3.490500152E-1,9.900000691E-2,-2.551950216E0,2.577612620E0
2.869071307E0,4.200000316E-2,-9.105000645E-2,-2.629050016E0,2.630961439E0
2.871033636E0,-1.480500102E-1,-1.680000126E-1,-2.629050016E0,2.638569082E0
2.872995909E0,-2.629500031E-1,-2.440500110E-1,-2.590050220E0,2.614777860E0
2.874958223E0,-2.250000089E-1,-3.589500189E-1,-2.206950188E0,2.247242588E0
2.876920524E0,1.189500093E-1,-4.740000367E-1,-1.210950017E0,1.305842672E0
2.878882654E0,4.639500082E-1,-3.210000098E-1,3.600000143E-1,6.692463124E-1
2.880844834E0,7.699500322E-1,-9.105000645E-2,2.008050203E0,2.152528461E0
2.882806286E0,1.039050102E0,4.060500264E-1,4.000950336E0,4.153565376E0
2.884767935E0,1.230000019E0,1.134000063E0,6.031950474E0,6.259655159E0
2.886729994E0,1.306950092E0,1.939050078E0,8.064000130E0,8.396197463E0
2.888691933E0,1.384050012E0,2.743950129E0,9.787950516E0,1.025908534E1
2.890654124E0,1.575000048E0,3.778950214E0,1.109205055E1,1.182347983E1
2.892616241E0,1.843950033E0,4.966950417E0,1.147500038E1,1.263908153E1
2.894578415E0,2.149950027E0,6.654000282E0,1.105305099E1,1.307929437E1
2.896540562E0,2.725050211E0,8.493000031E0,9.558000565E0,1.307334399E1
2.898502853E0,3.760050297E0,1.037100029E1,7.144050121E0,1.314279565E1
2.900465101E0,4.948050022E0,1.224900055E1,4.461000443E0,1.394351959E1
2.902427239E0,6.250950336E0,1.374405098E1,2.314950228E0,1.527521889E1
2.904389410E0,7.438950539E0,1.474095058E1,7.429500222E-1,1.652832671E1
2.906352101E0,7.363050461E0,1.615904999E1,-6.360000372E-1,1.776890274E1
2.908314639E0,6.405000210E0,1.853505135E1,-1.555950046E0,1.967214113E1
2.910276368E0,4.411950111E0,2.179305077E1,-2.284050226E0,2.235216435E1
2.912238334E0,2.610000134E0,2.505105209E1,-2.820000172E0,2.534402716E1
2.914200024E0,1.345050097E0,2.796405220E1,-2.820000172E0,2.813804855E1
2.916161795E0,8.089500666E-1,3.076200104E1,-2.284050226E0,3.085728429E1
2.918123936E0,8.850000501E-1,3.329100037E1,-1.210950017E0,3.332477052E1
2.920085991E0,1.767000079E0,3.528404999E1,-4.819500148E-1,3.533155457E1
2.922048028E0,3.376950264E0,3.647205353E1,-1.759500057E-1,3.662847854E1
2.924010070E0,5.485050201E0,3.666405106E1,5.295000225E-2,3.707210837E1
2.925970981E0,7.210050106E0,3.628095245E1,7.810500264E-1,3.699868069E1
2.927932224E0,8.512949944E0,3.513105011E1,1.855050087E0,3.619533408E1
2.929894303E0,8.934000015E0,3.375105286E1,3.043050051E0,3.504582827E1
2.931856140E0,8.512949944E0,3.267795181E1,3.618000269E0,3.396187241E1
2.933818168E0,6.903000355E0,3.210300064E1,3.463950157E0,3.301897961E1
2.935780140E0,4.066950321E0,3.164295197E1,2.889000177E0,3.203377617E1
2.937741065E0,3.109500110E-1,3.095295143E1,2.467950106E0,3.105274014E1
2.939702296E0,-2.869950056E0,2.984205055E1,1.701000094E0,3.002795357E1
2.941665172E0,-5.437950134E0,2.853900146E1,7.810500264E-1,2.906296519E1
2.943627581E0,-7.276950359E0,2.708205223E1,-7.890000343E-1,2.805377124E1
2.945589332E0,-8.580000877E0,2.570205116E1,-2.245050192E0,2.718919086E1
2.947551276E0,-9.538950920E0,2.439900208E1,-3.241950035E0,2.639721817E1
2.949513600E0,-1.026705074E1,2.332605171E1,-3.855000257E0,2.577553193E1
2.951475812E0,-1.095705032E1,2.236800194E1,-4.200000286E0,2.525914616E1
2.953437412E0,-1.160805035E1,2.160105133E1,-4.200000286E0,2.487955494E1
2.955399195E0,-1.218300056E1,2.087295151E1,-4.084949970E0,2.451106737E1
2.957361231E0,-1.264305019E1,2.018295097E1,-3.664050102E0,2.409613022E1
2.959323193E0,-1.306500053E1,1.968495178E1,-3.280050039E0,2.385267897E1
2.961285200E0,-1.321800041E1,1.926300049E1,-3.127050161E0,2.357026019E1
2.963247193E0,-1.341000080E1,1.891800117E1,-3.241950035E0,2.341429328E1
2.965209232E0,-1.333305073E1,1.849695015E1,-3.319050074E0,2.304177727E1
2.967171231E0,-1.310295105E1,1.822800064E1,-3.319050074E0,2.269280562E1
2.969132917E0,-1.268205070E1,1.792200089E1,-3.433950186E0,2.222216325E1
2.971094694E0,-1.210695076E1,1.761495018E1,-3.549000263E0,2.166702862E1
2.973056731E0,-1.137795067E1,1.723200035E1,-3.702000141E0,2.097866541E1
2.975018692E0,-1.076505089E1,1.684905052E1,-3.817050219E0,2.035550777E1
2.976980815E0,-9.960000038E0,1.650405121E1,-3.778950214E0,1.964346639E1
2.978942904E0,-9.270000458E0,1.608195114E1,-3.664050102E0,1.892055296E1
2.980904890E0,-8.619000435E0,1.577505112E1,-3.510000229E0,1.831555371E1
2.982866906E0,-7.776000500E0,1.550700092E1,-3.394950151E0,1.767650836E1
2.984828723E0,-6.970950127E0,1.512405109E1,-3.204000235E0,1.695867579E1
2.986790598E0,-6.204000473E0,1.477905083E1,-3.088950157E0,1.632334458E1
2.988752828E0,-5.398950100E0,1.447200108E1,-2.935050249E0,1.572265872E1
2.990714933E0,-4.824000359E0,1.420395088E1,-2.667000055E0,1.523601291E1
2.992677141E0,-4.288050175E0,1.408905029E1,-2.437050104E0,1.492742194E1
2.994639318E0,-3.790050268E0,1.401195049E1,-2.284050226E0,1.469408463E1
2.996601469E0,-3.214950085E0,1.362900066E1,-2.245050192E0,1.418188328E1
2.998563627E0,-2.601000071E0,1.328400040E1,-2.206950188E0,1.371497346E1
3.000525715E0,-2.218050003E0,1.297800064E1,-2.169000149E0,1.334364298E1
3.002487838E0,-1.873050094E0,1.267095089E1,-2.130000114E0,1.298453748E1
3.004449637E0,-1.605000019E0,1.228800011E1,-2.130000114E0,1.257409528E1
3.006411531E0,-1.336950064E0,1.194300079E1,-2.014950037E0,1.218534887E1
3.008373188E0,-1.222050071E0,1.148295021E1,-1.747050047E0,1.167920099E1
3.010334915E0,-1.068000078E0,1.102305031E1,-1.479000092E0,1.117298991E1
3.012296806E0,-9.919500351E-1,1.067805004E1,-1.210950017E0,1.079217853E1
3.014258663E0,-9.919500351E-1,1.037100029E1,-5.590500236E-1,1.043331917E1
3.016219968E0,-9.919500351E-1,1.033305073E1,-2.205000073E-2,1.038057746E1
3.018181435E0,-1.106999993E0,1.044795036E1,5.509500504E-1,1.052086792E1
3.020143525E0,-1.144950032E0,1.071600056E1,6.660000086E-1,1.079755225E1
3.022105433E0,-1.183050036E0,1.094595051E1,5.899500251E-1,1.102549232E1
3.024067618E0,-1.222050071E0,1.121400070E1,4.750500321E-1,1.129038930E1
3.026029697E0,-1.336950064E0,1.159800053E1,3.220500052E-1,1.167924518E1
3.027991505E0,-1.336950064E0,1.213395023E1,2.070000172E-1,1.220913726E1
3.029953392E0,-1.144950032E0,1.282395077E1,4.750500321E-1,1.288372215E1
3.031915590E0,-7.999500632E-1,1.351395035E1,8.959500194E-1,1.356722155E1
3.033877697E0,-3.019500077E-1,1.401195049E1,1.318050027E0,1.407704466E1
3.035840570E0,3.490500152E-1,1.439595032E1,1.510050058E0,1.447913922E1
3.037803226E0,9.619500637E-1,1.451100063E1,1.318050027E0,1.460245675E1
3.039764934E0,1.345050097E0,1.458705044E1,9.349500537E-1,1.467873741E1
3.041726920E0,1.537050128E0,1.477905083E1,7.429500222E-1,1.487732641E1
3.043688787E0,1.882050037E0,1.474095058E1,5.130000114E-1,1.486946218E1
3.045650689E0,2.111999989E0,1.474095058E1,3.979500234E-1,1.489679604E1
3.047613577E0,2.304000139E0,1.451100063E1,2.449500114E-1,1.469481393E1
3.049576197E0,2.380050182E0,1.408905029E1,-2.205000073E-2,1.428868305E1
3.051538227E0,2.457000017E0,1.351395035E1,-9.900000691E-2,1.373584741E1
3.053500430E0,2.380050182E0,1.293900108E1,1.500000060E-2,1.315608653E1
3.055462395E0,1.959000111E0,1.259400082E1,2.070000172E-1,1.274713250E1
3.057424430E0,1.422000051E0,1.247895050E1,1.300500035E-1,1.256038227E1
3.059385398E0,1.230000019E0,1.236405087E1,1.680000126E-1,1.242621736E1
3.061346671E0,1.000050068E0,1.221105099E1,4.360500276E-1,1.225969029E1
3.063308074E0,7.699500322E-1,1.213395023E1,8.959500194E-1,1.219132059E1
3.065269438E0,5.790000558E-1,1.205805016E1,1.087950110E0,1.212086837E1
3.067231367E0,3.490500152E-1,1.213395023E1,1.126049995E0,1.219108579E1
3.069193130E0,2.340000123E-1,1.217295074E1,1.356000066E0,1.225047844E1
3.071155152E0,1.570500135E-1,1.224900055E1,1.471050024E0,1.233801716E1
3.073117111E0,3.490500152E-1,1.228800011E1,1.777950048E0,1.242086506E1
3.075079975E0,5.410500169E-1,1.194300079E1,2.122950077E0,1.214227821E1
3.077042573E0,7.699500322E-1,1.159800053E1,2.506050110E0,1.189061506E1
3.079004336E0,9.619500637E-1,1.106100082E1,2.773950100E0,1.144403278E1
3.080966344E0,1.153950095E0,1.063995075E1,3.043050051E0,1.112655861E1
3.082928501E0,1.345050097E0,9.988050461E0,3.349050045E0,1.062009642E1
3.084890597E0,1.651950121E0,9.298050880E0,3.771000147E0,1.016873303E1
3.086852582E0,1.959000111E0,8.685000420E0,3.847950220E0,9.699156387E0
3.088814599E0,2.149950027E0,8.263050079E0,4.153950214E0,9.495029443E0
3.090776775E0,2.341950178E0,7.687950134E0,4.000950336E0,8.977578265E0
3.092738904E0,2.494950056E0,7.113000393E0,3.771000147E0,8.428522556E0
3.094700913E0,2.764050245E0,6.346950531E0,3.234000206E0,7.640844988E0
3.096662968E0,3.147000074E0,5.503950119E0,2.353049994E0,6.762685905E0
3.098625453E0,3.223050117E0,4.966950417E0,2.200050116E0,6.316555154E0
3.100587812E0,3.492000103E0,4.201050282E0,1.663050056E0,5.710396105E0
3.102549977E0,3.874950171E0,3.357000113E0,1.510050058E0,5.344617831E0
3.104512199E0,4.219950199E0,2.514000177E0,1.510050058E0,5.138913091E0
3.106474554E0,4.450050354E0,1.747950077E0,1.510050058E0,5.013833743E0
3.108436846E0,4.642050266E0,9.040500522E-1,1.663050056E0,5.013149974E0
3.110399878E0,4.642050266E0,1.759500057E-1,2.238000154E0,5.156377970E0
3.112362693E0,4.680000305E0,-3.589500189E-1,2.506050110E0,5.320858495E0
3.114324734E0,4.642050266E0,-9.340500236E-1,2.851050138E0,5.527166273E0
3.116287002E0,4.372950077E0,-1.432950020E0,2.965950251E0,5.474751047E0
3.118249280E0,3.990000248E0,-1.930950046E0,3.157950163E0,5.442547132E0
3.120211548E0,3.529950142E0,-2.351999998E0,3.081000090E0,5.242615144E0
3.122173503E0,3.108000040E0,-2.773950100E0,3.196050167E0,5.250638064E0
3.124135550E0,2.686950207E0,-3.118950129E0,3.157950163E0,5.188468035E0
3.126097721E0,2.304000139E0,-3.463950157E0,3.118950129E0,5.199540099E0
3.128059856E0,1.996950150E0,-3.771000147E0,2.773950100E0,5.089504019E0
3.130022028E0,1.843950033E0,-4.116000175E0,2.545050144E0,5.178695724E0
3.131984178E0,1.575000048E0,-4.498950005E0,2.161050081E0,5.233671154E0
3.133946333E0,1.384050012E0,-4.843950272E0,1.701000094E0,5.317222018E0
3.135908486E0,1.345050097E0,-5.149950027E0,1.395000100E0,5.502469475E0
3.137870820E0,1.345050097E0,-5.457000256E0,1.050000072E0,5.717561692E0
3.139833101E0,1.384050012E0,-5.764050484E0,5.509500504E-1,5.953437526E0
3.141796134E0,1.345050097E0,-5.994000435E0,3.220500052E-1,6.151497150E0
3.143758947E0,1.306950092E0,-6.147000313E0,5.295000225E-2,6.284626886E0
3.145720809E0,1.384050012E0,-6.262050152E0,-9.900000691E-2,6.413943213E0
3.147682949E0,1.345050097E0,-6.262050152E0,-3.289500177E-1,6.413317393E0
3.149645330E0,1.345050097E0,-6.147000313E0,-4.819500148E-1,6.310867486E0
3.151607640E0,1.345050097E0,-5.955000401E0,-4.819500148E-1,6.124007295E0
3.153569883E0,1.306950092E0,-5.610000134E0,-3.670500219E-1,5.771910062E0
3.155532160E0,1.269000053E0,-5.074050426E0,-1.759500057E-1,5.233288380E0
3.157494338E0,1.192050099E0,-4.537050247E0,-2.205000073E-2,4.691086717E0
3.159456545E0,1.077000022E0,-3.961950302E0,5.295000225E-2,4.106066603E0
3.161418824E0,1.039050102E0,-3.387000084E0,1.680000126E-1,3.546775816E0
3.163381081E0,1.153950095E0,-2.812050104E0,2.830500007E-1,3.052760048E0
3.165342878E0,1.192050099E0,-2.275950193E0,3.600000143E-1,2.594327029E0
3.167304796E0,1.230000019E0,-1.738950133E0,3.979500234E-1,2.166843749E0
3.169267935E0,1.345050097E0,-1.279050112E0,2.830500007E-1,1.877563915E0
3.171230717E0,1.345050097E0,-8.959500194E-1,2.070000172E-1,1.629335818E0
3.173192584E0,1.384050012E0,-4.740000367E-1,1.300500035E-1,1.468735331E0
3.175154719E0,1.459950089E0,-2.059500068E-1,1.500000060E-2,1.474481152E0
3.177115901E0,1.575000048E0,-9.105000645E-2,-6.105000153E-2,1.578810425E0
3.179077382E0,1.690050125E0,9.900000691E-2,-1.369500011E-1,1.698477474E0
3.181039515E0,1.767000079E0,3.289500177E-1,-1.759500057E-1,1.805950110E0
3.183001457E0,1.843950033E0,5.980500579E-1,-9.900000691E-2,1.941034930E0
3.184963602E0,1.996950150E0,7.890000343E-1,-6.105000153E-2,2.148035860E0
3.186925688E0,2.111999989E0,9.040500522E-1,9.195000678E-2,2.299196654E0
3.188887863E0,2.265000105E0,1.057950020E0,1.300500035E-1,2.503277197E0
3.190850005E0,2.419050217E0,1.173000097E0,2.070000172E-1,2.696401711E0
3.192811486E0,2.610000134E0,1.288050056E0,2.830500007E-1,2.924259042E0
3.194773160E0,2.764050245E0,1.326000094E0,4.360500276E-1,3.096512496E0
3.196735531E0,2.917050123E0,1.441050053E0,6.660000086E-1,3.321048432E0
3.198697697E0,3.184950113E0,1.518000126E0,8.580000401E-1,3.631032315E0
3.200659749E0,3.337950230E0,1.708950043E0,1.126049995E0,3.915406821E0
3.202621810E0,3.682950258E0,1.708950043E0,1.356000066E0,4.280580455E0
3.204583978E0,3.952050209E0,1.786050081E0,1.510050058E0,4.592268168E0
3.206546115E0,4.335000038E0,1.863000035E0,1.548000097E0,4.965813001E0
3.208508407E0,4.642050266E0,1.939050078E0,1.624950051E0,5.286682187E0
3.210470654E0,4.948050022E0,2.016000032E0,1.510050058E0,5.552270376E0
3.212432953E0,5.293050289E0,2.169000149E0,1.510050058E0,5.916180710E0
3.214395250E0,5.676000118E0,2.361000061E0,1.777950048E0,6.399406614E0
3.216357560E0,5.983050346E0,2.514000177E0,2.391000032E0,6.916210631E0
3.218319866E0,6.213000298E0,2.859000206E0,3.310950041E0,7.598529137E0
3.220282219E0,6.405000210E0,3.166050196E0,4.843950272E0,8.632019217E0
3.222244558E0,6.558000088E0,3.549000263E0,6.646050453E0,9.988631270E0
3.224206700E0,6.558000088E0,3.894000292E0,8.370000839E0,1.132375898E1
3.226168887E0,6.520050526E0,4.276950359E0,9.787950516E0,1.251428538E1
3.228130674E0,6.481050491E0,4.774950027E0,1.093800068E1,1.358101698E1
3.230092579E0,6.520050526E0,5.274000168E0,1.162800026E1,1.433654514E1
3.232054730E0,6.558000088E0,5.734050274E0,1.220295048E1,1.499328843E1
3.234016808E0,6.442950249E0,6.385050297E0,1.231800079E1,1.529750368E1
3.235979004E0,6.366000175E0,6.997950554E0,1.224105072E1,1.547063647E1
3.237941145E0,6.289950371E0,7.650000572E0,1.189605045E1,1.547908269E1
3.239903346E0,5.905950069E0,8.608050346E0,1.105305099E1,1.520357567E1
3.241865529E0,5.446050167E0,9.835050583E0,9.673050880E0,1.483090003E1
3.243827859E0,4.987050056E0,1.117605019E1,7.948950291E0,1.459316884E1
3.245790145E0,4.411950111E0,1.259400082E1,6.031950474E0,1.464440463E1
3.247752430E0,3.874950171E0,1.401195049E1,3.808950186E0,1.502857601E1
3.249714703E0,3.184950113E0,1.543095112E1,1.510050058E0,1.582840519E1
3.251677601E0,2.265000105E0,1.657995033E1,-7.120500207E-1,1.674908934E1
3.253640316E0,1.269000053E0,1.799805069E1,-2.859000206E0,1.826784256E1
3.255601429E0,1.960500032E-1,1.960800171E1,-4.507050037E0,2.012027998E1
3.257563011E0,-1.068000078E0,2.152500153E1,-6.001950264E0,2.237162761E1
3.259525087E0,-2.218050003E0,2.363295174E1,-6.423000336E0,2.459046740E1
3.261487014E0,-2.869950056E0,2.608605194E1,-5.656950474E0,2.684622521E1
3.263449027E0,-3.598050117E0,2.915205193E1,-4.468050003E0,2.971113540E1
3.265411014E0,-4.708950043E0,3.260100174E1,-3.241950035E0,3.309848584E1
3.267372882E0,-5.743950367E0,3.612705231E1,-2.130000114E0,3.664278612E1
3.269334785E0,-6.433950424E0,3.915495300E1,-7.510500550E-1,3.968715332E1
3.271295873E0,-6.741000175E0,4.191495132E1,1.087950110E0,4.246749184E1
3.273257219E0,-6.511050224E0,4.436805344E1,2.314950228E0,4.490297246E1
3.275219285E0,-6.051000118E0,4.655295181E1,3.234000206E0,4.705582517E1
3.277181140E0,-5.169000149E0,4.827705383E1,4.078050137E0,4.872394670E1
3.279143210E0,-3.943050146E0,4.912005234E1,4.423050404E0,4.947616154E1
3.281105217E0,-2.677950144E0,4.892895126E1,4.614000320E0,4.921892611E1
3.283067217E0,-1.222050071E0,4.781700134E1,4.614000320E0,4.805463581E1
3.285029219E0,-3.019500077E-1,4.582395172E1,4.308000088E0,4.602699849E1
3.286991219E0,-7.200000435E-2,4.329495239E1,3.655950069E0,4.344909732E1
3.288953219E0,-4.549500346E-1,4.042005157E1,2.008050203E0,4.047245748E1
3.290916074E0,-7.230000496E-1,3.739200211E1,-4.819500148E-1,3.740209655E1
3.292878678E0,-1.183050036E0,3.463305283E1,-2.514000177E0,3.474432547E1
3.294840782E0,-1.605000019E0,3.214095306E1,-3.739950180E0,3.239759430E1
3.296803046E0,-1.950000048E0,3.026295090E1,-4.162050247E0,3.060998790E1
3.298765136E0,-2.218050003E0,2.869200134E1,-4.276950359E0,2.909369332E1
3.300727277E0,-2.448000193E0,2.723505211E1,-4.392000198E0,2.769531430E1
3.302689253E0,-2.485950232E0,2.600895119E1,-4.545000076E0,2.651985136E1
