"Time (s)","Acceleration x (m/s^2)","Acceleration y (m/s^2)","Acceleration z (m/s^2)","Absolute acceleration (m/s^2)"
3.371174800E-2,-8.542050362E0,1.596705055E1,-2.322000027E0,1.825664295E1
3.567333500E-2,-8.236050606E0,1.608195114E1,-2.014950037E0,1.818025593E1
3.763751700E-2,-8.005949974E0,1.615904999E1,-1.708950043E0,1.811437666E1
3.960022400E-2,-7.737000465E0,1.627395058E1,-1.326000094E0,1.806822957E1
4.156336400E-2,-7.507050514E0,1.638899994E1,-1.057050109E0,1.805747716E1
4.352641500E-2,-7.162050247E0,1.654200172E1,-7.890000343E-1,1.804315122E1
4.548950200E-2,-6.894000530E0,1.665705109E1,-4.440000355E-1,1.803279596E1
4.745172100E-2,-6.511050224E0,1.661894989E1,-6.105000153E-2,1.784900551E1
4.941419500E-2,-6.127950191E0,1.661894989E1,4.360500276E-1,1.771810962E1
5.137714900E-2,-5.821050167E0,1.650405121E1,8.580000401E-1,1.752154375E1
5.333996200E-2,-5.398950100E0,1.654200172E1,1.165050030E0,1.743971975E1
5.530272500E-2,-4.939050198E0,1.661894989E1,1.240950108E0,1.738170502E1
5.726550200E-2,-4.518000126E0,1.661894989E1,1.356000066E0,1.727543217E1
5.922813500E-2,-4.057950020E0,1.673400116E1,1.203000069E0,1.726096644E1
6.119081000E-2,-3.559950113E0,1.681005096E1,1.011000037E0,1.721258782E1
6.315427000E-2,-3.061050177E0,1.688700104E1,8.580000401E-1,1.718362582E1
6.511750000E-2,-2.563050032E0,1.696395111E1,9.730500579E-1,1.718405334E1
6.708034800E-2,-1.950000048E0,1.692495155E1,1.165050030E0,1.707670421E1
6.904332500E-2,-1.452000022E0,1.677195168E1,1.279950023E0,1.688327395E1
7.100623900E-2,-9.150000215E-1,1.665705109E1,1.395000100E0,1.674038832E1
7.296917100E-2,-6.469500065E-1,1.661894989E1,1.585950017E0,1.670698289E1
7.493209200E-2,-5.320500135E-1,1.673400116E1,1.893000126E0,1.684913415E1
7.689501700E-2,-5.700000525E-1,1.692495155E1,2.200050116E0,1.707685878E1
7.885796900E-2,-4.170000255E-1,1.707900047E1,2.430000067E0,1.725604377E1
8.082092300E-2,-2.250000089E-1,1.715505028E1,2.583000183E0,1.734987795E1
8.278361700E-2,4.050000105E-3,1.723200035E1,2.851050138E0,1.746626289E1
8.474638700E-2,3.109500110E-1,1.711695099E1,3.234000206E0,1.742255602E1
8.671010100E-2,6.169500351E-1,1.696395111E1,3.618000269E0,1.735644522E1
8.867353800E-2,8.470500112E-1,1.692495155E1,4.000950336E0,1.741203843E1
9.063649000E-2,8.470500112E-1,1.696395111E1,4.384050369E0,1.754175101E1
9.259959800E-2,8.470500112E-1,1.700205040E1,4.996950150E0,1.774138445E1
9.456249000E-2,9.240000248E-1,1.681005096E1,5.380950451E0,1.767445097E1
9.652544500E-2,1.230000019E0,1.646505165E1,4.882050037E0,1.721758515E1
9.848800200E-2,1.384050012E0,1.573695087E1,4.078050137E0,1.631556650E1
1.004506750E-1,1.575000048E0,1.497105026E1,3.273000240E0,1.540537249E1
1.024136850E-1,1.843950033E0,1.389705086E1,2.545050144E0,1.424799826E1
1.043765960E-1,2.188950062E0,1.290105057E1,2.046000004E0,1.324442238E1
1.063395220E-1,2.610000134E0,1.190400028E1,2.122950077E0,1.237029670E1
1.083024430E-1,3.070050240E0,1.087005043E1,2.314950228E0,1.153005635E1
1.102655460E-1,3.607050180E0,9.949950218E0,2.812950134E0,1.095102775E1
1.122285960E-1,4.105050087E0,9.067950249E0,3.426000118E0,1.052694803E1
1.141916290E-1,4.488000393E0,8.148000717E0,3.963000298E0,1.011125287E1
1.161546700E-1,4.872000217E0,7.228050232E0,4.308000088E0,9.723166204E0
1.181177520E-1,5.178000450E0,6.385050297E0,4.498950005E0,9.371291645E0
1.200808220E-1,5.485050201E0,5.580000401E0,4.498950005E0,9.025670686E0
1.220437210E-1,5.599950314E0,4.736999989E0,4.345950127E0,8.525602319E0
1.240066700E-1,5.638050079E0,4.085999966E0,4.269000053E0,8.167457736E0
1.259694490E-1,5.293050289E0,3.664050102E0,4.384050369E0,7.788551993E0
1.279322810E-1,5.215950012E0,3.204000235E0,4.614000320E0,7.665556144E0
1.298953540E-1,5.254950047E0,2.782050133E0,4.959000111E0,7.742479256E0
1.318583560E-1,4.987050056E0,2.476050138E0,5.380950451E0,7.743133752E0
1.338214910E-1,4.795050144E0,2.245950222E0,5.266050339E0,7.467803188E0
1.357845870E-1,4.680000305E0,2.053950071E0,4.498950005E0,6.808940071E0
1.377474710E-1,4.756950378E0,1.708950043E0,3.655950069E0,6.238193493E0
1.397104250E-1,4.795050144E0,1.210950017E0,3.004050255E0,5.786469024E0
1.416735220E-1,4.795050144E0,7.890000343E-1,2.620950222E0,5.521268605E0
1.436365770E-1,4.717950344E0,2.910000086E-1,2.583000183E0,5.386615487E0
1.456006940E-1,4.488000393E0,-1.290000081E-1,2.812950134E0,5.298252258E0
1.475645000E-1,4.297049999E0,-5.890500546E-1,3.234000206E0,5.410210347E0
1.495272440E-1,3.990000248E0,-1.164000034E0,3.655950069E0,5.535428526E0
1.514903190E-1,3.721950293E0,-1.738950133E0,3.924000263E0,5.681077328E0
1.534532160E-1,3.453000069E0,-2.238000154E0,4.153950214E0,5.846978412E0
1.554161650E-1,3.184950113E0,-2.736000061E0,4.231050014E0,5.960821066E0
1.573789480E-1,2.955000162E0,-3.234000206E0,4.039050102E0,5.958582803E0
1.593417800E-1,2.725050211E0,-3.771000147E0,3.426000118E0,5.777873101E0
1.613047380E-1,2.610000134E0,-4.306950092E0,2.736000061E0,5.731283986E0
1.632676450E-1,2.533950090E0,-4.882050037E0,2.085000038E0,5.882392437E0
1.652309310E-1,2.494950056E0,-5.457000256E0,1.510050058E0,6.187396767E0
1.671941060E-1,2.380050182E0,-5.955000401E0,1.318050027E0,6.547054644E0
1.691571220E-1,2.304000139E0,-6.376950264E0,8.580000401E-1,6.834476965E0
1.711201850E-1,2.149950027E0,-6.721950531E0,5.130000114E-1,7.076020992E0
1.730843710E-1,1.996950150E0,-6.952050209E0,1.680000126E-1,7.235125155E0
1.750482410E-1,1.843950033E0,-7.219950199E0,-3.670500219E-1,7.460734436E0
1.770111830E-1,1.767000079E0,-7.527000427E0,-1.057050109E0,7.803549170E0
1.789743970E-1,1.767000079E0,-7.717950344E0,-1.632000089E0,8.084087523E0
1.809372250E-1,1.767000079E0,-8.062950134E0,-2.206950188E0,8.544242698E0
1.829001660E-1,1.882050037E0,-8.370000839E0,-2.667000055E0,8.983981060E0
1.848633050E-1,1.959000111E0,-8.677050591E0,-2.974050045E0,9.379438259E0
1.868263900E-1,1.996950150E0,-8.907000542E0,-2.974050045E0,9.600387608E0
1.887896000E-1,1.959000111E0,-8.983050346E0,-2.629050016E0,9.562676349E0
1.907527740E-1,1.843950033E0,-9.021000862E0,-2.284050226E0,9.486595475E0
1.927157000E-1,1.651950121E0,-8.907000542E0,-2.014950037E0,9.280281327E0
1.946786990E-1,1.384050012E0,-8.599950790E0,-1.594050050E0,8.855266433E0
1.966419050E-1,1.153950095E0,-7.909950256E0,-1.287000060E0,8.096621705E0
1.986050630E-1,7.699500322E-1,-7.066950321E0,-9.420000315E-1,7.170911654E0
2.005667300E-1,3.490500152E-1,-6.262050152E0,-5.590500236E-1,6.296637590E0
2.025288340E-1,1.570500135E-1,-5.494950294E0,-2.140500098E-1,5.501359909E0
2.044918520E-1,8.100000024E-2,-4.804950237E0,5.295000225E-2,4.805924623E0
2.064546020E-1,1.570500135E-1,-4.306950092E0,2.070000172E-1,4.314780737E0
2.084168300E-1,2.340000123E-1,-3.771000147E0,3.979500234E-1,3.799152844E0
2.103792140E-1,4.639500082E-1,-3.387000084E0,5.899500251E-1,3.469158430E0
2.123433100E-1,6.940500140E-1,-3.004050255E0,7.810500264E-1,3.180575813E0
2.143069040E-1,1.000050068E0,-2.620950222E0,1.050000072E0,2.995326419E0
2.162698930E-1,1.230000019E0,-2.391000032E0,1.203000069E0,2.945673160E0
2.182330600E-1,1.384050012E0,-2.083950043E0,1.471050024E0,2.902142379E0
2.201958060E-1,1.651950121E0,-1.816050053E0,1.548000097E0,2.902288975E0
2.221586760E-1,2.074050188E0,-1.624050021E0,1.816050053E0,3.199571916E0
2.241219220E-1,2.380050182E0,-1.432950020E0,2.046000004E0,3.450231970E0
2.260850580E-1,2.572050095E0,-1.279050112E0,2.314950228E0,3.689228298E0
2.280483050E-1,2.839950085E0,-1.126049995E0,2.391000032E0,3.879456950E0
2.300115200E-1,3.108000040E0,-8.959500194E-1,2.353049994E0,3.999904369E0
2.319744480E-1,3.376950264E0,-7.039500475E-1,2.391000032E0,4.197168082E0
2.339374540E-1,3.645000219E0,-5.509500504E-1,2.238000154E0,4.312565043E0
2.359005420E-1,3.952050209E0,-4.740000367E-1,2.008050203E0,4.458210685E0
2.378636060E-1,4.182000160E0,-3.210000098E-1,1.777950048E0,4.555576003E0
2.398265060E-1,4.450050354E0,-2.059500068E-1,1.548000097E0,4.716107278E0
2.417894540E-1,4.603050232E0,-9.105000645E-2,1.395000100E0,4.810653471E0
2.437523730E-1,4.756950378E0,6.105000153E-2,9.349500537E-1,4.848343594E0
2.457153000E-1,4.909950256E0,2.140500098E-1,2.830500007E-1,4.922757990E0
2.476785370E-1,5.140050411E0,4.440000355E-1,-3.670500219E-1,5.172231625E0
2.496416830E-1,5.293050289E0,6.739500165E-1,-1.249050021E0,5.480028827E0
2.516044340E-1,5.485050201E0,8.659500480E-1,-2.130000114E0,5.947482298E0
2.535673000E-1,5.791050434E0,1.096050024E0,-2.859000206E0,6.550684923E0
2.555301920E-1,6.097950459E0,1.402950048E0,-3.319050074E0,7.083033391E0
2.574930720E-1,6.366000175E0,1.747950077E0,-3.241950035E0,7.354694265E0
2.594560480E-1,6.558000088E0,2.208000183E0,-2.245050192E0,7.274811360E0
2.614189950E-1,6.634950161E0,2.706000090E0,5.295000225E-2,7.165738191E0
2.633815100E-1,6.442950249E0,3.280950069E0,3.273000240E0,7.936546594E0
2.653441510E-1,6.175050259E0,3.931950092E0,6.876000404E0,1.004344855E1
2.673069410E-1,5.830050468E0,4.545000076E0,9.979950905E0,1.241957867E1
2.692696880E-1,5.560950279E0,5.197050095E0,1.208805084E1,1.428476359E1
2.712328660E-1,5.485050201E0,5.925000191E0,1.304595089E1,1.534236740E1
2.731959180E-1,5.485050201E0,6.499950409E0,1.316100025E1,1.566994125E1
2.751589550E-1,5.715000153E0,7.228050232E0,1.231800079E1,1.538307773E1
2.771219970E-1,6.060000420E0,8.032950401E0,1.063200092E1,1.463869328E1
2.790849600E-1,6.520050526E0,9.183000565E0,8.370000839E0,1.403194471E1
2.810479350E-1,7.171050549E0,1.048605061E1,5.419050217E0,1.381113060E1
2.830111640E-1,8.128950119E0,1.175100040E1,3.196050167E0,1.464174092E1
2.849743180E-1,8.743050575E0,1.305405045E1,1.356000066E0,1.576984155E1
2.869377870E-1,9.202950478E0,1.443405056E1,-4.060500264E-1,1.712311273E1
2.889011640E-1,9.318000793E0,1.585200119E1,-2.206950188E0,1.851976538E1
2.908641460E-1,8.818950653E0,1.792200089E1,-4.315050125E0,2.043505968E1
2.928272430E-1,7.669050217E0,2.052795029E1,-6.307950497E0,2.280353731E1
2.947903610E-1,5.983050346E0,2.367105103E1,-7.687950134E0,2.559726793E1
2.967534720E-1,3.108000040E0,2.777205086E1,-8.493000031E0,2.920749086E1
2.987155980E-1,-1.480500102E-1,3.175800133E1,-9.489000320E0,3.314564367E1
3.006780120E-1,-3.406050205E0,3.585900116E1,-9.067950249E0,3.714427094E1
3.026410710E-1,-6.741000175E0,4.015200043E1,-9.336000443E0,4.177062516E1
3.046039380E-1,-9.922050476E0,4.425300217E1,-9.336000443E0,4.630265857E1
3.065670510E-1,-1.314105034E1,4.850700378E1,-9.106050491E0,5.107383651E1
3.085300910E-1,-1.555605030E1,5.233995438E1,-9.067950249E0,5.535060295E1
3.104929960E-1,-1.739595032E1,5.575095367E1,-8.838000298E0,5.906689574E1
3.124559400E-1,-1.850699997E1,5.831895447E1,-8.071050644E0,6.171508208E1
3.144186650E-1,-1.862205124E1,5.962200165E1,-7.650000572E0,6.292921723E1
3.163814640E-1,-1.770195007E1,5.973705292E1,-7.075050354E0,6.270511036E1
3.183445430E-1,-1.593900108E1,5.862600327E1,-6.460950375E0,6.109667662E1
3.203075390E-1,-1.367805099E1,5.624895096E1,-5.772000313E0,5.817516266E1
3.222701350E-1,-1.122495079E1,5.241705322E1,-5.082000256E0,5.384583285E1
3.242328490E-1,-8.848950386E0,4.762605286E1,-4.429950237E0,4.864328620E1
3.261956260E-1,-7.009050369E0,4.310295105E1,-4.084949970E0,4.385975368E1
3.281583850E-1,-5.706000328E0,3.904005051E1,-4.353000164E0,3.969423880E1
3.301213360E-1,-4.939050198E0,3.555300140E1,-4.774950027E0,3.621063757E1
3.320842310E-1,-4.363950253E0,3.248595047E1,-5.350050449E0,3.321150523E1
3.340471150E-1,-3.636000156E0,2.976495171E1,-5.848050117E0,3.055114625E1
3.360100030E-1,-2.640000105E0,2.727405167E1,-6.346950531E0,2.812698483E1
3.379729310E-1,-1.834950089E0,2.512695122E1,-6.652950287E0,2.605748389E1
3.399358470E-1,-1.030050039E0,2.321100044E1,-7.075050354E0,2.428719585E1
3.418987710E-1,-3.019500077E-1,2.160105133E1,-7.342950344E0,2.281700051E1
3.438616930E-1,3.870000243E-1,2.022105026E1,-7.458000183E0,2.155602954E1
3.458253370E-1,9.619500637E-1,1.903305054E1,-7.611000538E0,2.052095733E1
3.477887700E-1,1.269000053E0,1.807500076E1,-7.687950134E0,1.968300259E1
3.497515970E-1,1.498950124E0,1.723200035E1,-7.611000538E0,1.889751351E1
3.517146080E-1,1.614000082E0,1.657995033E1,-7.803000450E0,1.839528650E1
3.536777400E-1,1.729050040E0,1.604400063E1,-7.918050289E0,1.797484605E1
3.556408370E-1,1.651950121E0,1.554600048E1,-8.185950279E0,1.764700689E1
3.576040900E-1,1.804950118E0,1.523895073E1,-8.455050468E0,1.752059767E1
3.595672980E-1,1.996950150E0,1.485600090E1,-8.569950104E0,1.726651724E1
3.615301690E-1,2.227050066E0,1.458705044E1,-8.722949982E0,1.714151828E1
3.634931420E-1,2.380050182E0,1.439595032E1,-8.683950424E0,1.697995935E1
3.654558760E-1,2.341950178E0,1.416600037E1,-8.340000153E0,1.660469511E1
3.674186810E-1,2.494950056E0,1.385895061E1,-7.995000362E0,1.619306391E1
3.693814440E-1,2.610000134E0,1.351395035E1,-7.420050144E0,1.563637103E1
3.713442190E-1,2.649000168E0,1.305405045E1,-6.883050442E0,1.499339249E1
3.733072870E-1,2.649000168E0,1.247895050E1,-6.385050297E0,1.426570274E1
3.752702790E-1,2.572050095E0,1.198095036E1,-6.040050507E0,1.366165522E1
3.772330110E-1,2.725050211E0,1.152105045E1,-5.542050362E0,1.307190975E1
3.791958200E-1,2.764050245E0,1.094595051E1,-4.852050304E0,1.228805104E1
3.811589420E-1,2.917050123E0,1.033305073E1,-4.237950325E0,1.154302134E1
3.831219720E-1,2.955000162E0,9.835050583E0,-3.817050219E0,1.095582577E1
3.850850570E-1,2.878050089E0,9.412950516E0,-3.433950186E0,1.042491360E1
3.870481250E-1,2.341950178E0,8.877000809E0,-2.935050249E0,9.638485045E0
3.890112490E-1,1.996950150E0,8.148000717E0,-2.590050220E0,8.779868207E0
3.909743560E-1,1.729050040E0,7.650000572E0,-2.284050226E0,8.168782543E0
3.929374290E-1,1.345050097E0,7.036950111E0,-1.900950074E0,7.412249174E0
3.949005120E-1,1.077000022E0,6.309000492E0,-1.402050018E0,6.552034837E0
3.968624780E-1,5.790000558E-1,5.695050240E0,-1.018950105E0,5.814387123E0
3.988247910E-1,1.189500093E-1,5.005050182E0,-6.360000372E-1,5.046699167E0
4.007881330E-1,3.490500152E-1,4.392000198E0,-4.060500264E-1,4.424520119E0
4.027511730E-1,8.100000024E-2,3.817050219E0,-1.369500011E-1,3.820364992E0
4.047140780E-1,-5.700000525E-1,3.280950069E0,2.449500114E-1,3.339091782E0
4.066770220E-1,-4.549500346E-1,2.743950129E0,2.070000172E-1,2.789102158E0
4.086401490E-1,-9.529500604E-1,2.092950106E0,2.449500114E-1,2.312694202E0
4.106032020E-1,-1.030050039E0,1.633050084E0,2.449500114E-1,1.946241549E0
4.125655640E-1,-2.256000042E0,1.096050024E0,6.280500293E-1,2.585596388E0
4.145281280E-1,-1.758000135E0,4.440000355E-1,1.011000037E0,2.076010979E0
4.164921930E-1,-1.260000110E0,6.105000153E-2,9.349500537E-1,1.570178010E0
4.184558180E-1,-2.448000193E0,-2.830500007E-1,1.087950110E0,2.693781299E0
4.204186480E-1,-1.911000133E0,-5.890500546E-1,9.730500579E-1,2.223899253E0
4.223817240E-1,-3.100050211E0,-9.340500236E-1,1.011000037E0,3.391884702E0
4.243448000E-1,-3.751050234E0,-1.356000066E0,1.050000072E0,4.124513812E0
4.263078760E-1,-2.830950022E0,-1.777950048E0,9.349500537E-1,3.471241277E0
4.282709090E-1,-2.640000105E0,-2.046000004E0,8.959500194E-1,3.458098178E0
4.302339550E-1,-2.985000134E0,-2.275950193E0,8.580000401E-1,3.850498558E0
4.321970710E-1,-2.946000099E0,-2.544000149E0,8.200500607E-1,3.977855634E0
4.341601740E-1,-1.413000107E0,-2.773950100E0,7.429500222E-1,3.200522331E0
4.361232470E-1,-6.850500107E-1,-2.812050104E0,7.050000429E-1,2.978916643E0
4.380863290E-1,-1.297950029E0,-2.926950216E0,8.959500194E-1,3.324821542E0
4.400495390E-1,-1.222050071E0,-3.118950129E0,9.730500579E-1,3.488277898E0
4.420127120E-1,-9.150000215E-1,-3.271950245E0,1.126049995E0,3.579227855E0
4.439760120E-1,-3.019500077E-1,-3.463950157E0,1.279950023E0,3.705185091E0
4.459392640E-1,5.020500422E-1,-3.694050074E0,1.356000066E0,3.966963117E0
4.479032130E-1,1.306950092E0,-3.847050190E0,1.318050027E0,4.271436478E0
4.498669570E-1,1.920000076E0,-3.886050224E0,1.203000069E0,4.498332558E0
4.518304610E-1,2.265000105E0,-4.000950336E0,1.279950023E0,4.772431365E0
4.537940360E-1,2.419050217E0,-4.116000175E0,1.050000072E0,4.888329116E0
4.557571620E-1,2.494950056E0,-4.306950092E0,9.349500537E-1,5.064457176E0
4.577204200E-1,2.533950090E0,-4.461000443E0,1.087950110E0,5.244527000E0
4.596836900E-1,2.533950090E0,-4.614000320E0,1.356000066E0,5.435865910E0
4.616469570E-1,2.494950056E0,-4.767000198E0,1.585950017E0,5.609305138E0
4.636103620E-1,2.494950056E0,-4.959000111E0,1.930950046E0,5.877501677E0
4.655737260E-1,2.380050182E0,-5.074050426E0,2.353049994E0,6.078443129E0
4.675371140E-1,2.304000139E0,-5.188950062E0,2.851050138E0,6.353117839E0
4.695004950E-1,2.188950062E0,-5.304000378E0,3.157950163E0,6.549547436E0
4.714635210E-1,1.959000111E0,-5.419050217E0,3.388050079E0,6.684509707E0
4.734266510E-1,1.651950121E0,-5.494950294E0,3.694050074E0,6.824179356E0
4.753895380E-1,1.422000051E0,-5.457000256E0,3.963000298E0,6.892481940E0
4.773524970E-1,1.345050097E0,-5.457000256E0,4.192950249E0,7.012049867E0
4.793152490E-1,1.192050099E0,-5.380050182E0,4.384050369E0,7.041720034E0
4.812780510E-1,1.000050068E0,-5.304000378E0,4.614000320E0,7.100811158E0
4.832411290E-1,8.470500112E-1,-5.227050304E0,4.690950394E0,7.074218275E0
4.852041260E-1,7.699500322E-1,-5.112000465E0,4.690950394E0,6.980715394E0
4.871670820E-1,7.699500322E-1,-5.035050392E0,4.576050282E0,6.847247015E0
4.891300510E-1,8.850000501E-1,-4.996950150E0,4.461000443E0,6.756719680E0
4.910930950E-1,9.240000248E-1,-4.959000111E0,4.308000088E0,6.633575423E0
4.930561210E-1,1.000050068E0,-4.843950272E0,4.192950249E0,6.484195105E0
4.950190270E-1,1.000050068E0,-4.651950359E0,4.153950214E0,6.316331583E0
4.969819690E-1,8.850000501E-1,-4.498950005E0,4.078050137E0,6.136307452E0
4.989449330E-1,9.240000248E-1,-4.306950092E0,4.000950336E0,5.950730942E0
5.009078900E-1,9.619500637E-1,-4.077000141E0,3.808950186E0,5.661747044E0
5.028711420E-1,9.619500637E-1,-3.808950186E0,3.579000235E0,5.314385395E0
5.048342940E-1,1.000050068E0,-3.616950274E0,3.310950041E0,5.004479952E0
5.067975380E-1,9.619500637E-1,-3.349050045E0,3.043050051E0,4.626190413E0
5.087607550E-1,1.000050068E0,-3.081000090E0,2.736000061E0,4.240089389E0
5.107236290E-1,1.039050102E0,-2.812050104E0,2.238000154E0,3.741108872E0
5.126866030E-1,1.039050102E0,-2.581950188E0,1.777950048E0,3.302604769E0
5.146493270E-1,1.077000022E0,-2.428950071E0,1.395000100E0,3.000958643E0
5.166121320E-1,1.114950061E0,-2.314050198E0,7.429500222E-1,2.673932813E0
5.185759750E-1,1.153950095E0,-2.122950077E0,5.295000225E-2,2.416882611E0
5.205395140E-1,1.269000053E0,-1.969050050E0,-7.120500207E-1,2.448373841E0
5.225023330E-1,1.306950092E0,-1.893000126E0,-1.594050050E0,2.798671753E0
5.244653630E-1,1.345050097E0,-1.777950048E0,-2.359950066E0,3.246479701E0
5.264281370E-1,1.498950124E0,-1.777950048E0,-3.204000235E0,3.958986657E0
5.283909830E-1,1.614000082E0,-1.663050056E0,-4.123950005E0,4.730506885E0
5.303542340E-1,1.690050125E0,-1.548000097E0,-5.005050182E0,5.504825252E0
5.323173660E-1,1.767000079E0,-1.432950020E0,-5.848050117E0,6.274976113E0
5.342806590E-1,1.729050040E0,-1.279050112E0,-6.538050175E0,6.882709010E0
5.362439040E-1,1.843950033E0,-1.048950076E0,-7.036050320E0,7.348908224E0
5.382067830E-1,1.651950121E0,-7.810500264E-1,-7.342950344E0,7.566894878E0
5.401697620E-1,1.651950121E0,-4.740000367E-1,-7.458000183E0,7.653455557E0
5.421320900E-1,1.537050128E0,-1.290000081E-1,-7.075050354E0,7.241236193E0
5.440946080E-1,1.422000051E0,2.140500098E-1,-6.499950409E0,6.657120764E0
5.460580050E-1,1.384050012E0,6.739500165E-1,-5.542050362E0,5.751880151E0
5.480211450E-1,1.306950092E0,1.057950020E0,-4.237950325E0,4.559342030E0
5.499843320E-1,1.192050099E0,1.288050056E0,-2.743950129E0,3.257194912E0
5.519475150E-1,9.619500637E-1,1.518000126E0,-1.096050024E0,2.104993578E0
5.539094930E-1,8.089500666E-1,1.786050081E0,2.449500114E-1,1.975949294E0
5.558718240E-1,5.790000558E-1,1.863000035E0,1.240950108E0,2.312134807E0
5.578343520E-1,3.490500152E-1,2.131050110E0,1.816050053E0,2.821568407E0
5.597968220E-1,1.570500135E-1,2.322000027E0,2.391000032E0,3.336649515E0
5.617601840E-1,4.200000316E-2,2.551950216E0,3.196050167E0,4.090103981E0
5.637232840E-1,-3.299999982E-2,2.974050045E0,4.461000443E0,5.361584432E0
5.656863130E-1,-7.200000435E-2,3.511050224E0,6.223950386E0,7.146342847E0
5.676493630E-1,-7.200000435E-2,4.123950005E0,8.677050591E0,9.607463484E0
5.696124440E-1,-3.299999982E-2,4.852050304E0,1.170495033E1,1.267080674E1
5.715755150E-1,1.570500135E-1,5.656950474E0,1.450305080E1,1.556805177E1
5.735393590E-1,4.260000288E-1,6.462000370E0,1.680195045E1,1.800678938E1
5.755029760E-1,8.089500666E-1,7.381950378E0,1.787595177E1,1.935709800E1
5.774657810E-1,1.153950095E0,8.761950493E0,1.776105118E1,1.983830427E1
5.794288240E-1,1.306950092E0,1.052505016E1,1.622700119E1,1.938557111E1
5.813919060E-1,1.384050012E0,1.263300037E1,1.335300064E1,1.843396102E1
5.833549760E-1,1.729050040E0,1.493205070E1,9.673050880E0,1.787522491E1
5.853182350E-1,2.725050211E0,1.730895042E1,5.496000290E0,1.836386894E1
5.872814380E-1,3.645000219E0,1.941705132E1,1.165050030E0,1.979053435E1
5.892450340E-1,3.837000132E0,2.152500153E1,-3.855000257E0,2.220156048E1
5.912085150E-1,3.337950230E0,2.359395027E1,-9.028950691E0,2.548211827E1
5.931716590E-1,2.533950090E0,2.600895119E1,-1.324500084E1,2.929703897E1
5.951349010E-1,1.306950092E0,2.903700066E1,-1.585200119E1,3.310802723E1
5.970973850E-1,-1.870500147E-1,3.252495193E1,-1.619700050E1,3.633524888E1
5.990601080E-1,-1.489950061E0,3.608895111E1,-1.420395088E1,3.881217031E1
6.010232900E-1,-2.371050119E0,3.915495300E1,-1.048605061E1,4.060405744E1
6.029863370E-1,-3.061050177E0,4.225995255E1,-6.307950497E0,4.283764532E1
6.049492400E-1,-2.985000134E0,4.456005096E1,-2.820000172E0,4.474886332E1
6.069121850E-1,-1.834950089E0,4.540305328E1,-2.205000073E-2,4.544012297E1
6.088757840E-1,1.960500032E-1,4.574805069E1,2.008050203E0,4.579251951E1
6.108391880E-1,2.533950090E0,4.471305084E1,3.234000206E0,4.490140951E1
6.128023900E-1,5.025000095E0,4.264305115E1,3.118950129E0,4.305122864E1
6.147656520E-1,6.787950516E0,4.022805023E1,2.200050116E0,4.085599733E1
6.167294620E-1,7.248000145E0,3.781395340E1,9.349500537E-1,3.851366912E1
6.186931110E-1,6.021000385E0,3.566699982E1,2.070000172E-1,3.617222927E1
6.206551310E-1,3.070050240E0,3.363600159E1,-2.205000073E-2,3.377582416E1
6.226176380E-1,-3.019500077E-1,3.129795074E1,2.449500114E-1,3.130036573E1
6.245800920E-1,-2.985000134E0,2.896005058E1,4.750500321E-1,2.911735613E1
6.265425610E-1,-4.863000393E0,2.666100121E1,2.830500007E-1,2.710235922E1
6.285062820E-1,-5.743950367E0,2.455200195E1,-9.420000315E-1,2.523254109E1
6.304696360E-1,-5.974050522E0,2.271300125E1,-2.629050016E0,2.363221550E1
6.324326180E-1,-6.013050079E0,2.114100075E1,-3.855000257E0,2.231501089E1
6.343957430E-1,-6.013050079E0,1.991505051E1,-5.119950294E0,2.142381616E1
6.363584970E-1,-6.166050434E0,1.911000061E1,-6.001950264E0,2.095795096E1
6.383213590E-1,-6.549000263E0,1.849695015E1,-6.423000336E0,2.064658574E1
6.402842910E-1,-7.047000408E0,1.815195084E1,-6.232050419E0,2.044485232E1
6.422472030E-1,-7.584000587E0,1.807500076E1,-5.848050117E0,2.045537601E1
6.442103030E-1,-8.082000732E0,1.803705025E1,-5.772000313E0,2.059052950E1
6.461733520E-1,-8.350950241E0,1.799805069E1,-6.078000069E0,2.075115138E1
6.481362540E-1,-8.656949997E0,1.788300133E1,-6.499950409E0,2.090439846E1
6.500992000E-1,-8.656949997E0,1.773000145E1,-6.768000126E0,2.085908820E1
6.520622530E-1,-8.656949997E0,1.746195030E1,-7.113000393E0,2.074746409E1
6.540252750E-1,-8.580000877E0,1.715505028E1,-7.342950344E0,2.053852684E1
6.559881820E-1,-8.427000046E0,1.688700104E1,-7.381050587E0,2.026487211E1
6.579511230E-1,-8.311950684E0,1.661894989E1,-7.228050232E0,1.993797206E1
6.599140430E-1,-8.121000290E0,1.646505165E1,-6.921000481E0,1.962011262E1
6.618769690E-1,-7.852050304E0,1.627395058E1,-6.385050297E0,1.916416000E1
6.638395760E-1,-7.660950184E0,1.608195114E1,-5.962950230E0,1.878499629E1
6.658022770E-1,-7.468950272E0,1.596705055E1,-5.350050449E0,1.842158954E1
6.677654020E-1,-7.276950359E0,1.585200119E1,-4.852050304E0,1.810476016E1
6.697284140E-1,-7.009050369E0,1.569900036E1,-4.660050392E0,1.781295790E1
6.716914570E-1,-6.664050102E0,1.535400105E1,-4.468050003E0,1.732392515E1
6.736544910E-1,-6.280950069E0,1.516200066E1,-4.315050125E0,1.696927386E1
6.756173960E-1,-6.013050079E0,1.489395046E1,-4.084949970E0,1.657327209E1
6.775803390E-1,-5.821050167E0,1.466400051E1,-3.778950214E0,1.622337822E1
6.795431230E-1,-5.553000450E0,1.424205112E1,-3.241950035E0,1.562632632E1
6.815059540E-1,-5.092950344E0,1.393605042E1,-2.743950129E0,1.508909894E1
6.834684870E-1,-4.633050442E0,1.397400093E1,-2.704950094E0,1.496845394E1
6.854311080E-1,-4.134000301E0,1.408905029E1,-2.782050133E0,1.494426645E1
6.873941270E-1,-3.790050268E0,1.424205112E1,-2.859000206E0,1.501247426E1
6.893570290E-1,-3.367950201E0,1.428105068E1,-2.704950094E0,1.492006207E1
6.913195320E-1,-3.022950172E0,1.439595032E1,-2.398950100E0,1.490424687E1
6.932821660E-1,-2.677950144E0,1.447200108E1,-2.014950037E0,1.485497411E1
6.952451370E-1,-2.410050154E0,1.454895115E1,-1.747050047E0,1.485033687E1
6.972080100E-1,-2.179949999E0,1.485600090E1,-1.363950014E0,1.507691296E1
6.991708080E-1,-1.911000133E0,1.516200066E1,-9.810000658E-1,1.531341068E1
7.011336280E-1,-1.911000133E0,1.554600048E1,-3.670500219E-1,1.566731560E1
7.030958570E-1,-1.950000048E0,1.604400063E1,2.449500114E-1,1.616392455E1
7.050582530E-1,-2.140950203E0,1.650405121E1,7.810500264E-1,1.666065465E1
7.070214010E-1,-2.218050003E0,1.696395111E1,1.318050027E0,1.715903957E1
7.089843280E-1,-2.371050119E0,1.734705162E1,1.510050058E0,1.757334145E1
7.109472960E-1,-2.332950115E0,1.761495018E1,1.624950051E0,1.784291425E1
7.129102510E-1,-2.295000076E0,1.776900101E1,1.510050058E0,1.798011883E1
7.148733290E-1,-2.218050003E0,1.792200089E1,1.240950108E0,1.810132091E1
7.168363850E-1,-1.987950087E0,1.780695152E1,7.810500264E-1,1.793458969E1
7.188005020E-1,-1.720050097E0,1.776900101E1,2.070000172E-1,1.785325791E1
7.207643080E-1,-1.489950061E0,1.750005150E1,-2.140500098E-1,1.756466826E1
7.227272610E-1,-1.297950029E0,1.730895042E1,-7.510500550E-1,1.737378817E1
7.246904640E-1,-1.106999993E0,1.707900047E1,-8.659500480E-1,1.713673177E1
7.266536840E-1,-8.770500422E-1,1.669500160E1,-7.120500207E-1,1.673317993E1
7.286169090E-1,-7.230000496E-1,1.635000038E1,-6.360000372E-1,1.637833134E1
7.305801860E-1,-4.930500090E-1,1.596705055E1,-4.819500148E-1,1.598192972E1
7.325434480E-1,-1.480500102E-1,1.562205029E1,-2.520000041E-1,1.562478409E1
7.345063140E-1,1.570500135E-1,1.512405109E1,1.300500035E-1,1.512542559E1
7.364692960E-1,5.410500169E-1,1.458705044E1,8.200500607E-1,1.462009773E1
7.384333080E-1,8.470500112E-1,1.416600037E1,1.279950023E0,1.424890635E1
7.403970050E-1,1.039050102E0,1.378200054E1,1.777950048E0,1.393500163E1
7.423601570E-1,1.153950095E0,1.343700027E1,2.314950228E0,1.368369730E1
7.443234690E-1,1.192050099E0,1.301595020E1,2.698050022E0,1.334598880E1
7.462864600E-1,1.230000019E0,1.278600025E1,2.928000212E0,1.317451660E1
7.482495460E-1,1.230000019E0,1.255605030E1,3.157950163E0,1.300538152E1
7.502128050E-1,1.269000053E0,1.217295074E1,3.118950129E0,1.263008079E1
7.521760100E-1,1.306950092E0,1.201905060E1,3.118950129E0,1.248573369E1
7.541390660E-1,1.306950092E0,1.178895092E1,2.812950134E0,1.219016697E1
7.561021660E-1,1.345050097E0,1.152105045E1,2.430000067E0,1.185110390E1
7.580655980E-1,1.384050012E0,1.121400070E1,1.777950048E0,1.143811665E1
7.600289330E-1,1.422000051E0,1.075500011E1,1.240950108E0,1.091934379E1
7.619920120E-1,1.537050128E0,1.037100029E1,7.810500264E-1,1.051333483E1
7.639551660E-1,1.690050125E0,9.835050583E0,7.050000429E-1,1.000407489E1
7.659185890E-1,1.804950118E0,9.259950638E0,8.959500194E-1,9.476669097E0
7.678819330E-1,2.149950027E0,8.722949982E0,1.510050058E0,9.110016064E0
7.698454600E-1,2.572050095E0,8.148000717E0,2.238000154E0,8.832553542E0
7.718089330E-1,2.992950201E0,7.650000572E0,3.043050051E0,8.760160573E0
7.737721640E-1,3.492000103E0,7.113000393E0,3.463950157E0,8.647993409E0
7.757354690E-1,4.143000126E0,6.462000370E0,3.579000235E0,8.469423918E0
7.776983260E-1,4.833000183E0,5.887050152E0,3.426000118E0,8.351809808E0
7.796613150E-1,5.446050167E0,5.389050484E0,3.349050045E0,8.361666326E0
7.816245410E-1,5.791050434E0,4.966950417E0,3.618000269E0,8.443742507E0
7.835876980E-1,6.021000385E0,4.468950272E0,3.808950186E0,8.410235650E0
7.855506360E-1,5.983050346E0,4.047000408E0,3.886050224E0,8.202224704E0
7.875136320E-1,6.021000385E0,3.511050224E0,3.733050108E0,7.906679608E0
7.894770820E-1,6.060000420E0,2.896950245E0,3.081000090E0,7.389755568E0
7.914403990E-1,5.944950104E0,2.322000027E0,2.238000154E0,6.763339453E0
7.934034360E-1,5.830050468E0,1.633050084E0,1.318050027E0,6.196256686E0
7.953665550E-1,5.791050434E0,9.040500522E-1,5.509500504E-1,5.887029606E0
7.973310160E-1,5.676000118E0,2.140500098E-1,-2.205000073E-2,5.680077548E0
7.992950870E-1,5.293050289E0,-2.440500110E-1,-1.759500057E-1,5.301594116E0
8.012571390E-1,4.948050022E0,-8.190000653E-1,9.195000678E-2,5.016215200E0
8.032197820E-1,4.527000427E0,-1.393950105E0,7.050000429E-1,4.788930447E0
8.051829320E-1,3.990000248E0,-1.969050050E0,9.730500579E-1,4.554567652E0
8.071459340E-1,3.492000103E0,-2.544000149E0,1.203000069E0,4.484775428E0
8.091090420E-1,3.070050240E0,-3.042000055E0,1.318050027E0,4.518432105E0
8.110721060E-1,2.610000134E0,-3.349050045E0,1.432950020E0,4.481247891E0
8.130353210E-1,2.380050182E0,-3.732000113E0,1.548000097E0,4.689218273E0
8.149984910E-1,2.111999989E0,-4.077000141E0,1.510050058E0,4.833500314E0
8.169613730E-1,1.959000111E0,-4.422000408E0,1.203000069E0,4.983871809E0
8.189243390E-1,1.729050040E0,-4.882050037E0,7.429500222E-1,5.232208075E0
8.208885440E-1,1.614000082E0,-5.304000378E0,3.600000143E-1,5.555809237E0
8.228523660E-1,1.459950089E0,-5.725050449E0,-2.205000073E-2,5.908311359E0
8.248149560E-1,1.345050097E0,-6.109050274E0,-2.520000041E-1,6.260443995E0
8.267779070E-1,1.306950092E0,-6.492000103E0,-3.289500177E-1,6.630414165E0
8.287406450E-1,1.153950095E0,-6.874950409E0,-2.910000086E-1,6.977193200E0
8.307034450E-1,9.619500637E-1,-7.027950287E0,-9.900000691E-2,7.094169025E0
8.326663990E-1,7.699500322E-1,-7.258050442E0,1.500000060E-2,7.298790603E0
8.346293320E-1,5.790000558E-1,-7.488000393E0,1.680000126E-1,7.512231024E0
8.365906320E-1,3.109500110E-1,-7.527000427E0,2.830500007E-1,7.538736144E0
8.385524110E-1,1.189500093E-1,-7.642050266E0,3.600000143E-1,7.651449627E0
8.405156650E-1,-7.200000435E-2,-7.603050232E0,2.830500007E-1,7.608657840E0
8.424784860E-1,-3.780000210E-1,-7.488000393E0,3.220500052E-1,7.504448688E0
8.444424940E-1,-5.320500135E-1,-7.335000515E0,2.830500007E-1,7.359716508E0
8.464061640E-1,-7.230000496E-1,-7.143000126E0,2.449500114E-1,7.183674574E0
8.483691400E-1,-8.380500674E-1,-6.952050209E0,1.680000126E-1,7.004395336E0
8.503323200E-1,-9.150000215E-1,-6.721950531E0,5.295000225E-2,6.784146791E0
8.522951990E-1,-9.919500351E-1,-6.415050507E0,-9.900000691E-2,6.492044276E0
8.542581660E-1,-1.144950032E0,-6.031950474E0,-6.105000153E-2,6.139956368E0
8.562211410E-1,-1.183050036E0,-5.725050449E0,-6.105000153E-2,5.846326807E0
8.581841040E-1,-1.222050071E0,-5.341950417E0,-9.900000691E-2,5.480843150E0
8.601475150E-1,-1.297950029E0,-4.959000111E0,-9.900000691E-2,5.127002767E0
8.621107940E-1,-1.375050068E0,-4.422000408E0,-6.105000153E-2,4.631260887E0
8.640738370E-1,-1.413000107E0,-3.924000263E0,5.295000225E-2,4.170989220E0
8.660369500E-1,-1.413000107E0,-3.426000118E0,2.830500007E-1,3.716740967E0
8.679991640E-1,-1.222050071E0,-2.926950216E0,4.360500276E-1,3.201653256E0
8.699616420E-1,-1.030050039E0,-2.506050110E0,7.429500222E-1,2.809495501E0
8.719251360E-1,-7.999500632E-1,-2.083950043E0,1.050000072E0,2.466833605E0
8.738883320E-1,-4.549500346E-1,-1.777950048E0,1.318050027E0,2.259500339E0
8.758517500E-1,-7.200000435E-2,-1.509000063E0,1.471050024E0,2.108614086E0
8.778151020E-1,2.719500065E-1,-1.318050027E0,1.624950051E0,2.109899369E0
8.797788520E-1,6.940500140E-1,-1.087950110E0,1.777950048E0,2.196917668E0
8.817424860E-1,1.114950061E0,-8.959500194E-1,1.893000126E0,2.372612390E0
8.837058740E-1,1.306950092E0,-7.039500475E-1,2.008050203E0,2.497184381E0
8.856693340E-1,1.537050128E0,-5.130000114E-1,1.930950046E0,2.520765794E0
8.876324810E-1,1.882050037E0,-3.589500189E-1,1.855050087E0,2.666864879E0
8.895957190E-1,2.149950027E0,-1.680000126E-1,1.740000129E0,2.770940197E0
8.915578670E-1,2.380050182E0,-9.105000645E-2,1.548000097E0,2.840639589E0
8.935203340E-1,2.610000134E0,6.105000153E-2,1.471050024E0,2.996634107E0
8.954837400E-1,2.725050211E0,2.140500098E-1,1.240950108E0,3.001944908E0
8.974468710E-1,2.992950201E0,3.289500177E-1,1.050000072E0,3.188802153E0
8.994102540E-1,3.184950113E0,5.209500194E-1,8.200500607E-1,3.329831565E0
9.013735630E-1,3.376950264E0,6.739500165E-1,7.050000429E-1,3.514971802E0
9.033368460E-1,3.607050180E0,8.280000687E-1,5.509500504E-1,3.741649513E0
9.053001230E-1,3.798000097E0,9.040500522E-1,3.979500234E-1,3.924343952E0
9.072631660E-1,4.066950321E0,1.057950020E0,3.600000143E-1,4.217694058E0
9.092262770E-1,4.297049999E0,1.173000097E0,3.979500234E-1,4.472016564E0
9.111894820E-1,4.564949989E0,1.288050056E0,3.600000143E-1,4.756831021E0
9.131526590E-1,4.795050144E0,1.441050053E0,4.360500276E-1,5.025860202E0
9.151158690E-1,5.062950134E0,1.633050084E0,4.750500321E-1,5.340972680E0
9.170790910E-1,5.407950401E0,1.863000035E0,3.979500234E-1,5.733677781E0
9.190429090E-1,5.715000153E0,1.978050113E0,2.070000172E-1,6.051178232E0
9.210065520E-1,6.021000385E0,2.245950222E0,-1.759500057E-1,6.428662104E0
9.229695330E-1,6.366000175E0,2.476050138E0,-6.360000372E-1,6.860122344E0
9.249327080E-1,6.711000443E0,2.782050133E0,-9.420000315E-1,7.325619014E0
9.268956950E-1,7.095000267E0,3.127050161E0,-8.659500480E-1,7.801752430E0
9.288587570E-1,7.363050461E0,3.511050224E0,-2.520000041E-1,8.161218645E0
9.308209350E-1,7.516050339E0,4.009050369E0,7.429500222E-1,8.550758580E0
9.327833720E-1,7.516050339E0,4.545000076E0,2.122950077E0,9.036313154E0
9.347467830E-1,7.554000378E0,5.082000256E0,3.924000263E0,9.914001532E0
9.367099090E-1,7.401000500E0,5.734050274E0,5.956050396E0,1.109633621E1
9.386729590E-1,7.248000145E0,6.346950531E0,7.987050533E0,1.251440224E1
9.406360450E-1,7.132950306E0,6.997950554E0,9.634950638E0,1.388101458E1
9.425990750E-1,7.056000233E0,7.726950169E0,1.070805073E1,1.497181514E1
9.445621220E-1,7.132950306E0,8.569950104E0,1.124505043E1,1.583585123E1
9.465250240E-1,7.324050426E0,9.565950394E0,1.132200050E1,1.653290105E1
9.484879680E-1,7.516050339E0,1.067805004E1,1.051695061E1,1.676657435E1
9.504512870E-1,7.746000290E0,1.190400028E1,8.869050026E0,1.674412708E1
9.524144990E-1,8.244000435E0,1.309305096E1,6.837000370E0,1.691555794E1
9.543777330E-1,8.665950775E0,1.443405056E1,4.308000088E0,1.737812945E1
9.563409610E-1,8.665950775E0,1.592895031E1,1.318050027E0,1.818151305E1
9.583045530E-1,8.244000435E0,1.757700157E1,-2.245050192E0,1.954366337E1
9.602680380E-1,7.324050426E0,1.922504997E1,-5.580000401E0,2.131620664E1
9.622310350E-1,5.791050434E0,2.133300018E1,-8.110050201E0,2.354582927E1
9.641941510E-1,3.529950142E0,2.374800110E1,-9.718950272E0,2.590146904E1
9.661561840E-1,9.619500637E-1,2.658405113E1,-9.757950783E0,2.833469121E1
9.681185350E-1,-1.987950087E0,2.980305099E1,-9.451050758E0,3.132883902E1
9.700817350E-1,-5.323050022E0,3.355905151E1,-9.259050369E0,3.521753560E1
9.720446870E-1,-8.809950829E0,3.758400345E1,-8.799000740E0,3.959286505E1
9.740076110E-1,-1.222200012E1,4.206795120E1,-8.032950401E0,4.453782771E1
9.759705400E-1,-1.509600067E1,4.662900162E1,-7.918050289E0,4.964724110E1
9.779335960E-1,-1.751100159E1,5.119005203E1,-7.611000538E0,5.463500648E1
9.798966150E-1,-1.904400063E1,5.521500397E1,-7.189950466E0,5.884782078E1
9.818597470E-1,-1.957995033E1,5.847195435E1,-7.611000538E0,6.213108102E1
9.838228460E-1,-1.915904999E1,6.069495392E1,-7.918050289E0,6.413768119E1
9.857857490E-1,-1.800900078E1,6.192195129E1,-7.840950489E0,6.496254818E1
9.877487030E-1,-1.628400040E1,6.192195129E1,-7.879950523E0,6.451038941E1
9.897113960E-1,-1.459800053E1,6.084900284E1,-7.573050499E0,6.303216528E1
9.916741650E-1,-1.310295105E1,5.801205444E1,-6.652950287E0,5.984436092E1
9.936371130E-1,-1.126305008E1,5.299200439E1,-5.427000046E0,5.444686544E1
9.956000090E-1,-9.424050331E0,4.731900406E1,-4.353000164E0,4.844429255E1
9.975629680E-1,-8.005949974E0,4.233600235E1,-4.162050247E0,4.328689169E1
9.995259180E-1,-7.086000443E0,3.811995316E1,-4.545000076E0,3.903843307E1
1.001488792E0,-6.280950069E0,3.463305283E1,-5.235000134E0,3.558516416E1
1.003451689E0,-5.629050255E0,3.156600189E1,-5.656950474E0,3.255917338E1
1.005415021E0,-4.978050232E0,2.888400078E1,-6.193050385E0,2.995697512E1
1.007378226E0,-4.210950375E0,2.658405113E1,-6.652950287E0,2.772554103E1
1.009341287E0,-3.406050205E0,2.462895203E1,-6.921000481E0,2.580865559E1
1.011304387E0,-2.448000193E0,2.275095177E1,-7.228050232E0,2.399673356E1
1.013267819E0,-1.605000019E0,2.118000031E1,-7.534950256E0,2.253761108E1
1.015231154E0,-7.620000243E-1,1.995300102E1,-7.879950523E0,2.146617139E1
1.017194188E0,-1.480500102E-1,1.884195137E1,-8.185950279E0,2.054387578E1
1.019157310E0,1.189500093E-1,1.792200089E1,-8.722949982E0,1.993243892E1
1.021120228E0,3.490500152E-1,1.723200035E1,-9.183000565E0,1.952923888E1
1.023083185E0,4.260000288E-1,1.665705109E1,-9.451050758E0,1.915623103E1
1.025046958E0,6.550500393E-1,1.615904999E1,-9.796050072E0,1.890784451E1
1.027010491E0,8.089500666E-1,1.562205029E1,-1.006395054E1,1.860069772E1
1.028972454E0,5.410500169E-1,1.504695034E1,-1.037100029E1,1.828280877E1
1.030934877E0,2.719500065E-1,1.470195103E1,-1.060095024E1,1.812736790E1
1.032898015E0,1.570500135E-1,1.439595032E1,-1.040895081E1,1.776553706E1
1.034860947E0,1.189500093E-1,1.397400093E1,-9.757950783E0,1.704419123E1
1.036824094E0,1.960500032E-1,1.359105110E1,-9.298050880E0,1.646841996E1
1.038787178E0,-3.299999982E-2,1.313100052E1,-8.530950546E0,1.565890740E1
1.040750434E0,-5.700000525E-1,1.263300037E1,-7.650000572E0,1.477971946E1
1.042713639E0,-6.850500107E-1,1.205805016E1,-6.960000515E0,1.393942159E1
1.044676495E0,-8.770500422E-1,1.152105045E1,-6.040050507E0,1.303786909E1
1.046639468E0,-8.770500422E-1,1.102305031E1,-5.082000256E0,1.216978149E1
1.048603463E0,9.619500637E-1,1.063995075E1,-4.698000431E0,1.167069441E1
1.050567158E0,3.682950258E0,1.014105034E1,-4.392000198E0,1.164880639E1
1.052530310E0,3.337950230E0,9.604950905E0,-4.468050003E0,1.110677561E1
1.054493621E0,2.649000168E0,9.183000565E0,-4.429950237E0,1.053419007E1
1.056456819E0,2.265000105E0,8.800050735E0,-4.392000198E0,1.009261037E1
1.058420064E0,1.882050037E0,8.340000153E0,-4.276950359E0,9.559812721E0
1.060383426E0,1.690050125E0,7.803000450E0,-3.931950092E0,8.899624541E0
1.062346754E0,1.422000051E0,7.305000305E0,-3.472050190E0,8.212201052E0
1.064309834E0,1.306950092E0,6.615000248E0,-3.012000084E0,7.385018032E0
1.066272987E0,1.306950092E0,6.001950264E0,-2.437050104E0,6.608383972E0
1.068235977E0,1.230000019E0,5.274000168E0,-1.900950074E0,5.739476370E0
1.070199035E0,1.192050099E0,4.584000111E0,-1.363950014E0,4.928934986E0
1.072162159E0,1.077000022E0,3.817050219E0,-9.810000658E-1,4.085604306E0
1.074125264E0,1.000050068E0,3.127050161E0,-6.360000372E-1,3.344105097E0
1.076088157E0,7.699500322E-1,2.398950100E0,-4.060500264E-1,2.551991626E0
1.078051112E0,6.550500393E-1,1.747950077E0,-2.520000041E-1,1.883593382E0
1.080013249E0,4.260000288E-1,1.096050024E0,-6.105000153E-2,1.177509568E0
1.081975636E0,1.570500135E-1,5.590500236E-1,1.500000060E-2,5.808843565E-1
1.083939732E0,-1.099500060E-1,9.900000691E-2,5.295000225E-2,1.571423174E-1
1.085903327E0,-4.549500346E-1,-2.830500007E-1,1.300500035E-1,5.513708736E-1
1.087865820E0,-9.529500604E-1,-7.810500264E-1,2.449500114E-1,1.256245784E0
1.089828636E0,-1.336950064E0,-1.279050112E0,3.220500052E-1,1.878063063E0
1.091791046E0,-1.528050065E0,-1.701000094E0,4.750500321E-1,2.335382379E0
1.093753569E0,-1.681950092E0,-2.083950043E0,5.509500504E-1,2.734108603E0
1.095716739E0,-1.758000135E0,-2.506050110E0,5.899500251E-1,3.117513859E0
1.097679720E0,-1.720050097E0,-2.889000177E0,7.429500222E-1,3.443380475E0
1.099642409E0,-1.413000107E0,-3.387000084E0,7.050000429E-1,3.737026081E0
1.101605184E0,-1.260000110E0,-3.771000147E0,5.509500504E-1,4.013924307E0
1.103568328E0,-1.144950032E0,-4.116000175E0,4.360500276E-1,4.294474083E0
1.105531352E0,-9.150000215E-1,-4.537050247E0,3.220500052E-1,4.639586856E0
1.107494979E0,-5.320500135E-1,-4.920000076E0,2.830500007E-1,4.956772667E0
1.109458429E0,-2.250000089E-1,-5.380050182E0,1.680000126E-1,5.387373105E0
1.111421803E0,1.960500032E-1,-5.686950207E0,1.680000126E-1,5.692807942E0
1.113385200E0,6.550500393E-1,-5.994000435E0,1.300500035E-1,6.031089849E0
1.115348051E0,1.114950061E0,-6.339000225E0,1.680000126E-1,6.438498388E0
1.117311055E0,1.384050012E0,-6.721950531E0,1.680000126E-1,6.865015468E0
1.119272702E0,1.651950121E0,-6.913050175E0,2.830500007E-1,7.113319845E0
1.121234747E0,1.996950150E0,-7.219950199E0,4.360500276E-1,7.503707777E0
1.123197640E0,2.227050066E0,-7.297050476E0,6.660000086E-1,7.658345360E0
1.125160284E0,2.419050217E0,-7.372950554E0,8.959500194E-1,7.811205429E0
1.127123270E0,2.494950056E0,-7.335000515E0,1.318050027E0,7.859024380E0
1.129086145E0,2.494950056E0,-7.143000126E0,1.548000097E0,7.722922431E0
1.131049121E0,2.380050182E0,-6.874950409E0,1.930950046E0,7.527160824E0
1.133012068E0,2.227050066E0,-6.607050419E0,2.467950106E0,7.396191247E0
1.134974943E0,2.188950062E0,-6.223950386E0,3.081000090E0,7.281594766E0
1.136937839E0,2.149950027E0,-5.878950119E0,3.579000235E0,7.210657550E0
1.138900964E0,2.111999989E0,-5.494950294E0,4.000950336E0,7.117768350E0
1.140864009E0,2.111999989E0,-5.149950027E0,4.308000088E0,7.038564768E0
1.142827137E0,2.074050188E0,-4.690050125E0,4.537950039E0,6.847718227E0
1.144790240E0,2.111999989E0,-4.269000053E0,4.959000111E0,6.875797227E0
1.146752953E0,2.227050066E0,-3.924000263E0,5.419050217E0,7.051498799E0
1.148715781E0,2.227050066E0,-3.541050196E0,5.533950329E0,6.937102762E0
1.150678836E0,2.188950062E0,-3.196050167E0,5.496000290E0,6.724006115E0
1.152641837E0,2.265000105E0,-2.889000177E0,5.266050339E0,6.419332806E0
1.154604568E0,2.341950178E0,-2.620950222E0,5.112000465E0,6.203761719E0
1.156567378E0,2.494950056E0,-2.391000032E0,4.921050072E0,6.013184742E0
1.158530364E0,2.572050095E0,-2.122950077E0,4.806000233E0,5.849786061E0
1.160493299E0,2.686950207E0,-1.893000126E0,4.423050404E0,5.510583069E0
1.162456376E0,2.878050089E0,-1.777950048E0,4.192950249E0,5.387495752E0
1.164419429E0,2.878050089E0,-1.624050021E0,4.039050102E0,5.218681492E0
1.166382286E0,2.955000162E0,-1.393950105E0,3.771000147E0,4.989545567E0
1.168345200E0,2.839950085E0,-1.203000069E0,3.426000118E0,4.609772495E0
1.170308169E0,2.725050211E0,-1.011000037E0,3.157950163E0,4.291930680E0
1.172271121E0,2.610000134E0,-8.190000653E-1,2.965950251E0,4.034813836E0
1.174233966E0,2.380050182E0,-6.280500293E-1,2.698050022E0,3.652199287E0
1.176196863E0,2.188950062E0,-4.740000367E-1,2.275950193E0,3.193137593E0
1.178159835E0,2.035050154E0,-3.210000098E-1,1.893000126E0,2.797841956E0
1.180122785E0,1.767000079E0,-2.059500068E-1,1.585950017E0,2.383262919E0
1.182085659E0,1.690050125E0,-1.290000081E-1,1.356000066E0,2.170632766E0
1.184048556E0,1.498950124E0,-9.105000645E-2,1.050000072E0,1.832386894E0
1.186011869E0,1.459950089E0,2.295000106E-2,5.899500251E-1,1.574808559E0
1.187975073E0,1.537050128E0,6.105000153E-2,9.195000678E-2,1.541007788E0
1.189937949E0,1.537050128E0,9.900000691E-2,-2.140500098E-1,1.555037461E0
1.191900921E0,1.575000048E0,1.380000114E-1,-7.120500207E-1,1.733979350E0
1.193863836E0,1.651950121E0,2.530499995E-1,-1.057050109E0,1.977455040E0
1.195826768E0,1.729050040E0,2.530499995E-1,-1.171950102E0,2.104071145E0
1.197789634E0,1.843950033E0,3.679500222E-1,-1.363950014E0,2.322907356E0
1.199752527E0,1.920000076E0,4.440000355E-1,-1.441050053E0,2.441344216E0
1.201715140E0,2.035050154E0,5.590500236E-1,-1.479000092E0,2.577092805E0
1.203677835E0,1.959000111E0,7.129500508E-1,-1.516950130E0,2.578200323E0
1.205640616E0,1.996950150E0,9.040500522E-1,-1.516950130E0,2.665755821E0
1.207603371E0,1.959000111E0,1.096050024E0,-1.671000123E0,2.798436796E0
1.209566142E0,1.920000076E0,1.402950048E0,-1.900950074E0,3.044385047E0
1.211528909E0,1.843950033E0,1.671000123E0,-2.169000149E0,3.301053587E0
1.213491814E0,1.690050125E0,2.016000032E0,-2.475000143E0,3.611945634E0
1.215454679E0,1.614000082E0,2.131050110E0,-2.667000055E0,3.776143553E0
1.217417433E0,1.384050012E0,2.322000027E0,-2.974050045E0,4.018986468E0
1.219380219E0,1.269000053E0,2.476050138E0,-3.127050161E0,4.185645486E0
1.221342986E0,1.077000022E0,2.590950012E0,-3.204000235E0,4.258939835E0
1.223305758E0,7.320000529E-1,2.706000090E0,-3.165000200E0,4.227941205E0
1.225267671E0,3.870000243E-1,2.821050167E0,-2.896950245E0,4.062070135E0
1.227229835E0,8.100000024E-2,2.782050133E0,-2.437050104E0,3.699402269E0
1.229192887E0,-1.870500147E-1,2.896950245E0,-1.632000089E0,3.330275172E0
1.231155679E0,-4.170000255E-1,3.012000084E0,-7.510500550E-1,3.132109467E0
1.233117534E0,-6.469500065E-1,3.088950157E0,3.220500052E-1,3.172360886E0
1.235079671E0,-7.230000496E-1,3.241950035E0,1.395000100E0,3.602637143E0
1.237042368E0,-7.620000243E-1,3.396000147E0,2.391000032E0,4.222598985E0
1.239004900E0,-7.999500632E-1,3.741000175E0,3.808950186E0,5.398435323E0
1.240967529E0,-6.850500107E-1,4.162050247E0,5.572050095E0,6.988540480E0
1.242930130E0,-4.930500090E-1,4.584000111E0,7.909950256E0,9.155515736E0
1.244892888E0,-3.780000210E-1,5.044050217E0,1.070805073E1,1.184262120E1
1.246855597E0,-2.629500031E-1,5.619000435E0,1.342995071E1,1.456042186E1
1.248818602E0,-2.250000089E-1,6.193950176E0,1.572900105E1,1.690612663E1
1.250781520E0,4.050000105E-3,6.807000160E0,1.718595123E1,1.848491783E1
1.252745525E0,3.870000243E-1,7.497000217E0,1.745400047E1,1.899991878E1
1.254709212E0,1.000050068E0,8.263050079E0,1.630395126E1,1.830565278E1
1.256671969E0,1.614000082E0,9.259950638E0,1.388895035E1,1.677064769E1
1.258634992E0,2.341950178E0,1.029495049E1,1.082295036E1,1.511975498E1
1.260597943E0,3.070050240E0,1.148295021E1,7.603950500E0,1.411040103E1
1.262560916E0,3.760050297E0,1.274805069E1,4.039050102E0,1.389117347E1
1.264524550E0,4.105050087E0,1.412700081E1,2.830500007E-1,1.471406488E1
1.266487991E0,4.027950287E0,1.558395100E1,-3.894000292E0,1.656040913E1
1.268451141E0,3.376950264E0,1.726995087E1,-8.148000717E0,1.939187747E1
1.270414377E0,2.494950056E0,1.911000061E1,-1.148205090E1,2.243333216E1
1.272376526E0,1.230000019E0,2.140995026E1,-1.347495079E1,2.532732060E1
1.274338993E0,-3.299999982E-2,2.386305046E1,-1.385895061E1,2.759559346E1
1.276302038E0,-1.068000078E0,2.620095062E1,-1.255605030E1,2.907378264E1
1.278264914E0,-1.950000048E0,2.865405083E1,-1.002600002E1,3.042002310E1
1.280227767E0,-2.140950203E0,3.072300148E1,-7.113000393E0,3.160824675E1
1.282190650E0,-1.911000133E0,3.260100174E1,-4.123950005E0,3.291632117E1
1.284153446E0,-9.529500604E-1,3.390405273E1,-1.708950043E0,3.396046843E1
1.286116267E0,3.870000243E-1,3.459405136E1,9.195000678E-2,3.459633815E1
1.288079028E0,1.422000051E0,3.482400131E1,1.126049995E0,3.487120790E1
1.290041806E0,1.959000111E0,3.470895004E1,1.585950017E0,3.480034672E1
1.292004687E0,2.149950027E0,3.409605026E1,2.085000038E0,3.422733051E1
1.293967552E0,1.459950089E0,3.352095032E1,2.506050110E0,3.364618629E1
1.295929630E0,-4.549500346E-1,3.290805054E1,2.467950106E0,3.300359901E1
1.297891939E0,-2.677950144E0,3.187305069E1,1.893000126E0,3.204132061E1
1.299855867E0,-4.402950287E0,3.034005165E1,1.011000037E0,3.067453058E1
1.301819321E0,-5.629050255E0,2.869200134E1,-3.670500219E-1,2.924127004E1
1.303782494E0,-6.433950424E0,2.704395103E1,-1.861950040E0,2.786104563E1
1.305745732E0,-6.778950214E0,2.554905128E1,-3.280050039E0,2.663582016E1
1.307708826E0,-6.778950214E0,2.420805168E1,-4.621950150E0,2.556064075E1
1.309671963E0,-6.357000351E0,2.313405037E1,-5.848050117E0,2.469403633E1
1.311635208E0,-5.629050255E0,2.229105186E1,-6.615000248E0,2.392353294E1
1.313598422E0,-5.092950344E0,2.175495148E1,-6.844950199E0,2.336812787E1
1.315561612E0,-5.016000271E0,2.140995026E1,-6.460950375E0,2.291920829E1
1.317524809E0,-5.553000450E0,2.118000031E1,-5.809950352E0,2.265355932E1
1.319487685E0,-6.127950191E0,2.110305023E1,-5.158050060E0,2.257201770E1
1.321450655E0,-6.778950214E0,2.098800087E1,-4.927950382E0,2.259944781E1
1.323413930E0,-7.392000198E0,2.079600143E1,-4.774950027E0,2.258130843E1
1.325377115E0,-7.891050339E0,2.060505104E1,-4.852050304E0,2.259157356E1
1.327339864E0,-8.350950241E0,2.033595085E1,-4.927950382E0,2.252940217E1
1.329302737E0,-8.772000313E0,2.014500046E1,-5.158050060E0,2.256932683E1
1.331265667E0,-9.001950264E0,1.995300102E1,-5.503050327E0,2.257079798E1
1.333228581E0,-9.154950142E0,1.972305107E1,-5.848050117E0,2.251691688E1
1.335191686E0,-9.309000015E0,1.953195000E1,-6.346950531E0,2.254857718E1
1.337154735E0,-9.385050774E0,1.922504997E1,-6.883050442E0,2.247349790E1
1.339117807E0,-9.385050774E0,1.888005066E1,-7.228050232E0,2.228856660E1
1.341080879E0,-9.270000458E0,1.864995003E1,-7.687950134E0,2.220040814E1
1.343043732E0,-9.040050507E0,1.853505135E1,-7.956000328E0,2.210358755E1
1.345006650E0,-9.040050507E0,1.845795059E1,-8.110050201E0,2.209505301E1
1.346969753E0,-9.001950264E0,1.826700020E1,-8.071050644E0,2.190571303E1
1.348932802E0,-8.887050629E0,1.792200089E1,-7.803000450E0,2.147241488E1
1.350895394E0,-8.580000877E0,1.761495018E1,-7.228050232E0,2.088414698E1
1.352858117E0,-8.005949974E0,1.769205093E1,-6.844950199E0,2.059022206E1
1.354821028E0,-7.507050514E0,1.750005150E1,-6.154950142E0,2.001227176E1
1.356783884E0,-7.086000443E0,1.738500023E1,-5.119950294E0,1.945927867E1
1.358746819E0,-6.778950214E0,1.738500023E1,-4.084949970E0,1.910181183E1
1.360709730E0,-6.549000263E0,1.742400169E1,-3.549000263E0,1.894942327E1
1.362672315E0,-6.051000118E0,1.776900101E1,-3.664050102E0,1.912530424E1
1.364634982E0,-5.169000149E0,1.795995140E1,-3.970050097E0,1.910601253E1
1.366597813E0,-4.633050442E0,1.803705025E1,-3.778950214E0,1.900212627E1
1.368560595E0,-4.633050442E0,1.819005013E1,-3.204000235E0,1.904228709E1
1.370523678E0,-4.747950077E0,1.830495071E1,-2.704950094E0,1.910316742E1
1.372486672E0,-5.284050465E0,1.834305000E1,-2.053950071E0,1.919915060E1
1.374449488E0,-5.361000061E0,1.811295128E1,-1.057050109E0,1.891921459E1
1.376412328E0,-5.169000149E0,1.799805069E1,-3.670500219E-1,1.872920492E1
1.378374184E0,-5.169000149E0,1.776900101E1,-9.900000691E-2,1.850583044E1
1.380336328E0,-5.131050110E0,1.738500023E1,3.600000143E-1,1.812996162E1
1.382299159E0,-4.747950077E0,1.715505028E1,5.899500251E-1,1.780973950E1
1.384261788E0,-4.402950287E0,1.715505028E1,6.660000086E-1,1.772357970E1
1.386224946E0,-3.943050146E0,1.707900047E1,8.200500607E-1,1.754743240E1
1.388187946E0,-3.367950201E0,1.700205040E1,1.126049995E0,1.736896068E1
1.390151261E0,-3.022950172E0,1.700205040E1,1.279950023E0,1.731606819E1
1.392114484E0,-2.716050148E0,1.696395111E1,1.395000100E0,1.723654812E1
1.394077716E0,-2.448000193E0,1.684905052E1,1.471050024E0,1.708938842E1
1.396040946E0,-2.295000076E0,1.661894989E1,1.624950051E0,1.685517676E1
1.398004168E0,-2.140950203E0,1.638899994E1,2.046000004E0,1.665440190E1
1.399967398E0,-1.950000048E0,1.608195114E1,2.353049994E0,1.636974334E1
1.401930765E0,-1.834950089E0,1.577505112E1,2.545050144E0,1.608404675E1
1.403894091E0,-1.720050097E0,1.543095112E1,2.314950228E0,1.569814700E1
1.405857126E0,-1.567050099E0,1.523895073E1,2.046000004E0,1.545533505E1
1.407820247E0,-1.297950029E0,1.489395046E1,1.585950017E0,1.503428323E1
1.409783366E0,-1.030050039E0,1.474095058E1,1.395000100E0,1.484259588E1
1.411746482E0,-7.230000496E-1,1.451100063E1,1.279950023E0,1.458527136E1
1.413709687E0,-3.780000210E-1,1.428105068E1,1.011000037E0,1.432178109E1
1.415672865E0,-3.299999982E-2,1.397400093E1,8.200500607E-1,1.399808105E1
1.417636871E0,1.960500032E-1,1.374405098E1,5.130000114E-1,1.375501879E1
1.419600634E0,5.020500422E-1,1.339905071E1,9.195000678E-2,1.340876836E1
1.421564334E0,6.169500351E-1,1.328400040E1,-1.369500011E-1,1.329902437E1
1.423528040E0,7.320000529E-1,1.316895103E1,-2.910000086E-1,1.319248939E1
1.425490964E0,8.470500112E-1,1.293900108E1,-2.520000041E-1,1.296914595E1
1.427454117E0,8.850000501E-1,1.274805069E1,1.300500035E-1,1.277939492E1
1.429416279E0,9.619500637E-1,1.251795101E1,5.899500251E-1,1.256871061E1
1.431378732E0,9.619500637E-1,1.213395023E1,9.349500537E-1,1.220787565E1
1.433342085E0,1.269000053E0,1.167405033E1,1.165050030E0,1.180047261E1
1.435305182E0,1.459950089E0,1.132905006E1,1.777950048E0,1.156027404E1
1.437268076E0,1.882050037E0,1.079295063E1,2.430000067E0,1.122206737E1
1.439231030E0,2.227050066E0,1.033305073E1,2.773950100E0,1.092824270E1
1.441194172E0,2.457000017E0,9.988050461E0,2.928000212E0,1.069444652E1
1.443157259E0,2.802000046E0,9.604950905E0,3.004050255E0,1.044655944E1
1.445120314E0,3.376950264E0,9.106050491E0,3.618000269E0,1.036406651E1
1.447083362E0,3.874950171E0,8.532000542E0,3.886050224E0,1.014453835E1
1.449046623E0,4.450050354E0,7.803000450E0,4.269000053E0,9.945558086E0
1.451009821E0,4.833000183E0,7.189950466E0,5.151000023E0,1.007899200E1
1.452972878E0,5.331000328E0,6.462000370E0,6.070950508E0,1.034569734E1
1.454935977E0,5.830050468E0,5.809950352E0,7.066950321E0,1.084835464E1
1.456899275E0,6.213000298E0,5.158950329E0,7.719000340E0,1.117135209E1
1.458862514E0,6.481050491E0,4.468950272E0,8.179050446E0,1.135219795E1
1.460825519E0,6.787950516E0,3.970950127E0,8.485050201E0,1.156895821E1
1.462788592E0,6.903000355E0,3.396000147E0,8.599950790E0,1.153877743E1
1.464751669E0,6.865050316E0,2.974050045E0,8.677050591E0,1.145709808E1
1.466714744E0,6.750000477E0,2.551950216E0,8.370000839E0,1.105132890E1
1.468677526E0,6.558000088E0,2.131050110E0,7.527000427E0,1.020805932E1
1.470640381E0,6.213000298E0,1.786050081E0,6.339000225E0,9.053964405E0
1.472603450E0,5.944950104E0,1.441050053E0,4.882050037E0,7.826459580E0
1.474566456E0,5.944950104E0,9.810000658E-1,3.388050079E0,6.912573776E0
1.476530266E0,5.983050346E0,4.830000103E-1,2.467950106E0,6.490066115E0
1.478493840E0,6.097950459E0,-1.500000060E-2,2.085000038E0,6.444567476E0
1.480457018E0,6.097950459E0,-4.740000367E-1,2.238000154E0,6.512934862E0
1.482420309E0,5.752950191E0,-1.011000037E0,2.506050110E0,6.356008506E0
1.484383529E0,5.293050289E0,-1.663050056E0,2.736000061E0,6.186098381E0
1.486346770E0,4.833000183E0,-2.199000120E0,2.965950251E0,6.081969516E0
1.488310179E0,4.258049965E0,-2.773950100E0,3.081000090E0,5.942924382E0
1.490273538E0,3.913050175E0,-3.426000118E0,3.310950041E0,6.165373359E0
1.492236739E0,3.568050146E0,-3.924000263E0,3.388050079E0,6.293460356E0
1.494199992E0,3.376950264E0,-4.498950005E0,3.426000118E0,6.586487762E0
1.496163084E0,3.300000191E0,-4.804950237E0,3.502950191E0,6.800603509E0
1.498126223E0,3.147000074E0,-5.265000343E0,3.463950157E0,7.044344453E0
1.500089424E0,3.070050240E0,-5.610000134E0,3.157950163E0,7.132317940E0
1.502052606E0,2.917050123E0,-5.994000435E0,2.812950134E0,7.235323842E0
1.504015875E0,2.686950207E0,-6.300000191E0,2.238000154E0,7.205438814E0
1.505979129E0,2.572050095E0,-6.529950142E0,1.432950020E0,7.163032619E0
1.507943077E0,2.265000105E0,-6.721950531E0,7.050000429E-1,7.128244488E0
1.509906821E0,1.996950150E0,-6.837000370E0,-2.205000073E-2,7.122701044E0
1.511870100E0,1.690050125E0,-6.952050209E0,-5.590500236E-1,7.176336702E0
1.513833516E0,1.459950089E0,-7.027950287E0,-9.810000658E-1,7.244715359E0
1.515797036E0,1.269000053E0,-7.143000126E0,-9.810000658E-1,7.320872425E0
1.517760553E0,1.077000022E0,-7.182000160E0,-8.659500480E-1,7.313749027E0
1.519723781E0,8.470500112E-1,-7.219950199E0,-6.739500165E-1,7.300642658E0
1.521687093E0,6.940500140E-1,-7.335000515E0,-4.819500148E-1,7.383509585E0
1.523649544E0,5.020500422E-1,-7.411950588E0,-2.910000086E-1,7.434631583E0
1.525612247E0,3.109500110E-1,-7.372950554E0,-1.369500011E-1,7.380775371E0
1.527575367E0,1.960500032E-1,-7.297050476E0,1.500000060E-2,7.299699052E0
1.529538379E0,4.050000105E-3,-7.182000160E0,1.680000126E-1,7.183965946E0
1.531501647E0,-1.099500060E-1,-6.837000370E0,9.195000678E-2,6.838502604E0
1.533464840E0,-1.870500147E-1,-6.415050507E0,-9.900000691E-2,6.418540466E0
1.535427538E0,-3.400500119E-1,-5.802000046E0,-2.910000086E-1,5.819237024E0
1.537390381E0,-4.930500090E-1,-5.149950027E0,-4.819500148E-1,5.195898326E0
1.539353483E0,-5.700000525E-1,-4.461000443E0,-6.360000372E-1,4.542017289E0
1.541316519E0,-5.320500135E-1,-3.847050190E0,-7.510500550E-1,3.955622399E0
1.543279648E0,-4.930500090E-1,-3.271950245E0,-7.510500550E-1,3.393056572E0
1.545242749E0,-3.400500119E-1,-2.851050138E0,-6.739500165E-1,2.949293056E0
1.547205418E0,-1.870500147E-1,-2.428950071E0,-5.209500194E-1,2.491219597E0
1.549168213E0,-3.299999982E-2,-2.083950043E0,-2.140500098E-1,2.095174023E0
1.551130623E0,1.189500093E-1,-1.738950133E0,1.500000060E-2,1.743078217E0
1.553093174E0,3.870000243E-1,-1.432950020E0,3.600000143E-1,1.527322752E0
1.555056881E0,6.940500140E-1,-1.203000069E0,8.200500607E-1,1.612884586E0
1.557020249E0,1.000050068E0,-9.340500236E-1,1.240950108E0,1.847297148E0
1.558983097E0,1.269000053E0,-7.429500222E-1,1.471050024E0,2.079981741E0
1.560946097E0,1.422000051E0,-5.509500504E-1,1.548000097E0,2.173001243E0
1.562909324E0,1.729050040E0,-3.210000098E-1,1.701000094E0,2.446641856E0
1.564872514E0,1.996950150E0,-2.059500068E-1,1.777950048E0,2.681665840E0
1.566834852E0,2.265000105E0,-1.290000081E-1,1.777950048E0,2.882355435E0
1.568797439E0,2.494950056E0,2.295000106E-2,1.663050056E0,2.998505957E0
1.570760554E0,2.725050211E0,2.140500098E-1,1.548000097E0,3.141340536E0
1.572723514E0,2.992950201E0,3.679500222E-1,1.471050024E0,3.355164124E0
1.574686282E0,3.108000040E0,6.739500165E-1,1.279950023E0,3.428140157E0
1.576649117E0,3.376950264E0,8.280000687E-1,1.011000037E0,3.620980292E0
1.578612370E0,3.568050146E0,1.096050024E0,7.429500222E-1,3.805822150E0
1.580575500E0,3.682950258E0,1.288050056E0,5.509500504E-1,3.940398648E0
1.582538569E0,3.798000097E0,1.555950046E0,3.979500234E-1,4.123608796E0
1.584501656E0,3.798000097E0,1.824000120E0,3.220500052E-1,4.225576574E0
1.586465496E0,3.874950171E0,2.016000032E0,2.830500007E-1,4.377169434E0
1.588429115E0,3.913050175E0,2.245950222E0,2.449500114E-1,4.518434970E0
1.590391379E0,4.066950321E0,2.361000061E0,3.220500052E-1,4.713610337E0
1.592354040E0,4.143000126E0,2.514000177E0,3.979500234E-1,4.862407959E0
1.594318269E0,4.335000038E0,2.706000090E0,1.680000126E-1,5.113011424E0
1.596282038E0,4.642050266E0,2.821050167E0,-2.205000073E-2,5.432075195E0
1.598245367E0,5.062950134E0,2.935950041E0,-4.060500264E-1,5.866697821E0
1.600208818E0,5.446050167E0,3.088950157E0,-6.360000372E-1,6.293295762E0
1.602171786E0,5.752950191E0,3.357000113E0,-6.360000372E-1,6.691067307E0
1.604134895E0,6.097950459E0,3.741000175E0,-2.205000073E-2,7.154059569E0
1.606097426E0,6.442950249E0,4.162050247E0,1.279950023E0,7.776409340E0
1.608060126E0,6.366000175E0,4.699050426E0,2.889000177E0,8.423381457E0
1.610023457E0,6.175050259E0,5.235000134E0,5.266050339E0,9.657523402E0
1.611986596E0,5.830050468E0,5.772000313E0,8.179050446E0,1.158457346E1
1.613949708E0,5.560950279E0,6.346950531E0,1.090005016E1,1.378473948E1
1.615912828E0,5.407950401E0,6.730050087E0,1.312305069E1,1.570840416E1
1.617876077E0,5.215950012E0,7.305000305E0,1.423395061E1,1.682778994E1
1.619839288E0,5.025000095E0,8.071949959E0,1.438800049E1,1.724591430E1
1.621802557E0,5.178000450E0,8.991000175E0,1.350600052E1,1.703120145E1
1.623765784E0,5.407950401E0,1.002600002E1,1.182000065E1,1.641581613E1
1.625729015E0,5.638050079E0,1.117605019E1,9.367050171E0,1.563436393E1
1.627692245E0,6.021000385E0,1.228800011E1,6.568950176E0,1.517888331E1
1.629655972E0,6.328050137E0,1.347600079E1,3.579000235E0,1.531195802E1
1.631619553E0,6.442950249E0,1.466400051E1,2.070000172E-1,1.601834473E1
1.633582750E0,5.905950069E0,1.615904999E1,-3.049950123E0,1.747275990E1
1.635546073E0,4.756950378E0,1.788300133E1,-6.193050385E0,1.951369228E1
1.637508702E0,2.802000046E0,1.964700127E1,-9.144000053E0,2.185105489E1
1.639471535E0,5.410500169E-1,2.194605064E1,-1.098405075E1,2.454732663E1
1.641434517E0,-2.065050125E0,2.489700127E1,-1.086900043E1,2.724445401E1
1.643397456E0,-4.900950432E0,2.807895088E1,-1.010295010E1,3.024097218E1
1.645360737E0,-7.621950150E0,3.141300201E1,-8.148000717E0,3.333557762E1
1.647323917E0,-1.030500031E1,3.497805023E1,-6.921000481E0,3.711545873E1
1.649286977E0,-1.272000027E1,3.949995041E1,-6.652950287E0,4.202744623E1
1.651250073E0,-1.459800053E1,4.478895187E1,-5.925000191E0,4.747902123E1
1.653212786E0,-1.620795059E1,4.935000229E1,-6.117000103E0,5.230237163E1
1.655175612E0,-1.697400093E1,5.306805420E1,-6.844950199E0,5.613544716E1
1.657138682E0,-1.720395088E1,5.617305374E1,-7.189950466E0,5.918685057E1
1.659101683E0,-1.666800117E1,5.885595322E1,-7.150950432E0,6.158718685E1
1.661064594E0,-1.559400082E1,6.054195404E1,-6.691050529E0,6.287504447E1
1.663027531E0,-1.417605114E1,6.119400406E1,-6.346950531E0,6.313438318E1
1.664990316E0,-1.283505058E1,6.034995270E1,-6.538050175E0,6.204515625E1
1.666953146E0,-1.137795067E1,5.747595215E1,-6.385050297E0,5.893820242E1
1.668916019E0,-9.691950798E0,5.306805420E1,-6.040050507E0,5.428291165E1
1.670878893E0,-7.966950417E0,4.816200256E1,-5.580000401E0,4.913437895E1
1.672841691E0,-6.511050224E0,4.352505112E1,-5.503050327E0,4.435208465E1
1.674804511E0,-5.398950100E0,3.953895187E1,-5.772000313E0,4.032112802E1
1.676767631E0,-4.594050407E0,3.608895111E1,-6.385050297E0,3.693624993E1
1.678730663E0,-3.751050234E0,3.306105042E1,-6.844950199E0,3.396993929E1
1.680693388E0,-2.908050060E0,3.041700172E1,-7.266000271E0,3.140773008E1
1.682656203E0,-2.218050003E0,2.819400215E1,-7.687950134E0,2.930744070E1
1.684619279E0,-1.297950029E0,2.620095062E1,-8.110050201E0,2.745810267E1
1.686582278E0,-5.700000525E-1,2.443800163E1,-8.530950546E0,2.589049905E1
1.688545954E0,8.100000024E-2,2.278905106E1,-8.991000175E0,2.449868350E1
1.690509432E0,8.850000501E-1,2.144805145E1,-9.412950516E0,2.343940643E1
1.692472396E0,1.384050012E0,2.037495041E1,-9.681000710E0,2.260035339E1
1.694435511E0,1.920000076E0,1.926300049E1,-1.002600002E1,2.180069413E1
1.696398581E0,2.457000017E0,1.830495071E1,-1.021800041E1,2.110724051E1
1.698361665E0,2.610000134E0,1.753905106E1,-1.056300068E1,2.063994661E1
1.700324605E0,2.955000162E0,1.684905052E1,-1.063905048E1,2.014477413E1
1.702287588E0,3.031950235E0,1.635000038E1,-1.040895081E1,1.961788703E1
1.704250834E0,2.955000162E0,1.596705055E1,-1.002600002E1,1.908400916E1
1.706213989E0,2.955000162E0,1.554600048E1,-9.681000710E0,1.855079329E1
1.708176919E0,2.992950201E0,1.523895073E1,-9.259050369E0,1.808074622E1
1.710139915E0,2.992950201E0,1.481700039E1,-8.991000175E0,1.758804525E1
1.712103140E0,2.917050123E0,1.454895115E1,-9.028950691E0,1.736960309E1
1.714066297E0,2.725050211E0,1.424205112E1,-8.569950104E0,1.684357336E1
1.716029591E0,2.533950090E0,1.385895061E1,-7.840950489E0,1.612364474E1
1.717992841E0,2.188950062E0,1.332300091E1,-7.113000393E0,1.526068905E1
1.719955889E0,1.767000079E0,1.270905018E1,-6.499950409E0,1.438372695E1
1.721918997E0,1.498950124E0,1.190400028E1,-5.925000191E0,1.338124439E1
1.723882202E0,1.192050099E0,1.090800095E1,-5.197050095E0,1.214144957E1
1.725845379E0,1.153950095E0,9.949950218E0,-4.123950005E0,1.083236234E1
1.727808476E0,1.306950092E0,9.106050491E0,-3.204000235E0,9.741349578E0
1.729771603E0,1.230000019E0,8.340000153E0,-2.629050016E0,8.830651538E0
1.731734671E0,8.089500666E-1,7.687950134E0,-2.322000027E0,8.071595976E0
1.733697757E0,9.619500637E-1,6.997950554E0,-1.861950040E0,7.305033732E0
1.735659750E0,4.260000288E-1,6.385050297E0,-1.363950014E0,6.542988840E0
1.737622064E0,-3.400500119E-1,5.809950352E0,-1.134000063E0,5.929343407E0
1.739585075E0,-7.999500632E-1,5.235000134E0,-8.269500136E-1,5.359943360E0
1.741547861E0,-9.150000215E-1,4.621950150E0,-6.360000372E-1,4.754381587E0
1.743511709E0,3.490500152E-1,3.970950127E0,-5.209500194E-1,4.020157925E0
1.745475245E0,3.184950113E0,3.241950035E0,-6.739500165E-1,4.594383079E0
1.747437749E0,3.147000074E0,2.743950129E0,-1.287000060E0,4.369123588E0
1.749400555E0,2.457000017E0,2.322000027E0,-1.747050047E0,3.805353738E0
1.751363681E0,2.227050066E0,1.900950074E0,-1.708950043E0,3.390261558E0
1.753326711E0,2.035050154E0,1.441050053E0,-1.594050050E0,2.959569216E0
1.755289256E0,1.804950118E0,9.810000658E-1,-1.555950046E0,2.577049981E0
1.757251944E0,1.498950124E0,4.830000103E-1,-1.326000094E0,2.058741541E0
1.759215762E0,1.537050128E0,6.105000153E-2,-1.287000060E0,2.005646867E0
1.761179249E0,1.269000053E0,-1.680000126E-1,-1.210950017E0,1.762096786E0
1.763142092E0,9.619500637E-1,-3.210000098E-1,-9.040500522E-1,1.358563737E0
1.765105113E0,8.470500112E-1,-5.130000114E-1,-4.819500148E-1,1.101334895E0
1.767066622E0,4.260000288E-1,-6.280500293E-1,-1.759500057E-1,7.790258457E-1
1.769028574E0,8.100000024E-2,-8.190000653E-1,1.680000126E-1,8.399679228E-1
1.770990897E0,4.050000105E-3,-1.048950076E0,5.130000114E-1,1.167682181E0
1.772953111E0,-3.019500077E-1,-1.318050027E0,8.580000401E-1,1.601434903E0
1.774915835E0,-4.930500090E-1,-1.585950017E0,1.165050030E0,2.028713223E0
1.776878413E0,-4.930500090E-1,-1.930950046E0,1.432950020E0,2.454590017E0
1.778841395E0,-3.019500077E-1,-2.238000154E0,1.471050024E0,2.695145019E0
1.780804259E0,-2.250000089E-1,-2.544000149E0,1.510050058E0,2.966953478E0
1.782766968E0,-1.480500102E-1,-2.812050104E0,1.471050024E0,3.177032069E0
1.784729723E0,4.200000316E-2,-3.196050167E0,1.432950020E0,3.502834057E0
1.786692523E0,1.189500093E-1,-3.463950157E0,1.318050027E0,3.708147202E0
1.788655321E0,4.639500082E-1,-3.847050190E0,1.240950108E0,4.068783841E0
1.790618807E0,7.699500322E-1,-4.192049980E0,1.126049995E0,4.408411809E0
1.792582091E0,1.000050068E0,-4.461000443E0,8.959500194E-1,4.658685600E0
1.794545088E0,1.192050099E0,-4.920000076E0,7.429500222E-1,5.116576876E0
1.796508170E0,1.269000053E0,-5.265000343E0,5.899500251E-1,5.447809723E0
1.798471097E0,1.345050097E0,-5.610000134E0,5.509500504E-1,5.795240048E0
1.800434079E0,1.422000051E0,-5.994000435E0,6.280500293E-1,6.192299427E0
1.802397351E0,1.614000082E0,-6.300000191E0,8.200500607E-1,6.554958487E0
1.804360538E0,1.651950121E0,-6.568950176E0,1.011000037E0,6.848515656E0
1.806323732E0,1.575000048E0,-6.837000370E0,1.318050027E0,7.138799275E0
1.808286923E0,1.459950089E0,-7.066950321E0,1.510050058E0,7.372482098E0
1.810250145E0,1.345050097E0,-7.219950199E0,1.816050053E0,7.565373648E0
1.812213369E0,1.114950061E0,-7.297050476E0,2.122950077E0,7.680948920E0
1.814175926E0,9.240000248E-1,-7.335000515E0,2.391000032E0,7.769999341E0
1.816138679E0,4.639500082E-1,-7.297050476E0,2.620950222E0,7.767340299E0
1.818101765E0,8.100000024E-2,-7.066950321E0,2.928000212E0,7.649936802E0
1.820064754E0,-1.480500102E-1,-6.721950531E0,3.196050167E0,7.444546623E0
1.822027663E0,-1.870500147E-1,-6.492000103E0,3.502950191E0,7.379140403E0
1.823990598E0,-3.019500077E-1,-6.147000313E0,3.579000235E0,7.119412148E0
1.825954059E0,-3.019500077E-1,-5.878950119E0,3.655950069E0,6.929588676E0
1.827917365E0,-4.170000255E-1,-5.457000256E0,3.694050074E0,6.602934708E0
1.829880449E0,-4.549500346E-1,-5.149950027E0,3.847950220E0,6.444818517E0
1.831843598E0,-4.930500090E-1,-4.729050159E0,4.078050137E0,6.263984885E0
1.833806782E0,-4.549500346E-1,-4.384050369E0,4.269000053E0,6.136060514E0
1.835769966E0,-3.780000210E-1,-3.961950302E0,4.461000443E0,5.978332473E0
1.837733071E0,-3.019500077E-1,-3.616950274E0,4.461000443E0,5.751002351E0
1.839696199E0,-1.870500147E-1,-3.271950245E0,4.423050404E0,5.504908808E0
1.841659446E0,-7.200000435E-2,-3.004050255E0,4.345950127E0,5.283633640E0
1.843622658E0,1.960500032E-1,-2.697000027E0,4.192950249E0,4.989296196E0
1.845585673E0,3.109500110E-1,-2.467050076E0,4.192950249E0,4.874818743E0
1.847548742E0,4.639500082E-1,-2.314050198E0,4.078050137E0,4.711748173E0
1.849512585E0,5.790000558E-1,-2.083950043E0,3.847950220E0,4.414160140E0
1.851476202E0,7.699500322E-1,-1.816050053E0,3.541050196E0,4.053380976E0
1.853439187E0,8.470500112E-1,-1.548000097E0,3.273000240E0,3.718377145E0
1.855402357E0,1.114950061E0,-1.318050027E0,2.965950251E0,3.431796964E0
1.857365437E0,1.306950092E0,-1.126049995E0,2.659050226E0,3.169645917E0
1.859328530E0,1.384050012E0,-9.340500236E-1,2.161050081E0,2.730967106E0
1.861291784E0,1.384050012E0,-7.810500264E-1,1.740000129E0,2.356530082E0
1.863254990E0,1.422000051E0,-5.509500504E-1,1.471050024E0,2.118871935E0
1.865218360E0,1.498950124E0,-3.210000098E-1,1.087950110E0,1.879768050E0
1.867181682E0,1.690050125E0,-2.059500068E-1,4.750500321E-1,1.767585179E0
1.869144353E0,1.843950033E0,-9.105000645E-2,9.195000678E-2,1.848484956E0
1.871107218E0,1.920000076E0,9.900000691E-2,-4.060500264E-1,1.964962574E0
1.873070195E0,2.188950062E0,2.910000086E-1,-9.810000658E-1,2.416308032E0
1.875033139E0,2.304000139E0,4.830000103E-1,-1.555950046E0,2.821823204E0
1.876996554E0,2.265000105E0,7.510500550E-1,-2.130000114E0,3.198625040E0
1.878959831E0,2.304000139E0,1.057950020E0,-2.629050016E0,3.652338823E0
1.880923081E0,2.227050066E0,1.363950014E0,-3.204000235E0,4.133488737E0
1.882886353E0,2.149950027E0,1.633050084E0,-3.549000263E0,4.459208513E0
1.884849396E0,2.111999989E0,2.016000032E0,-3.931950092E0,4.897451542E0
1.886812506E0,2.111999989E0,2.398950100E0,-4.237950325E0,5.308081432E0
1.888775577E0,1.996950150E0,2.859000206E0,-4.545000076E0,5.728762325E0
1.890738660E0,1.959000111E0,3.241950035E0,-4.736999989E0,6.065236216E0
1.892701736E0,1.882050037E0,3.472050190E0,-4.736999989E0,6.167366841E0
1.894664814E0,1.804950118E0,3.586950064E0,-4.545000076E0,6.064740834E0
1.896628025E0,1.690050125E0,3.741000175E0,-4.315050125E0,5.955754303E0
1.898591197E0,1.422000051E0,3.741000175E0,-3.894000292E0,5.583941684E0
1.900554259E0,1.269000053E0,3.741000175E0,-3.433950186E0,5.234258049E0
1.902517353E0,9.619500637E-1,3.702000141E0,-2.896950245E0,4.798173996E0
1.904479520E0,5.410500169E-1,3.702000141E0,-2.322000027E0,4.403319690E0
1.906441963E0,1.570500135E-1,3.702000141E0,-1.671000123E0,4.064690783E0
1.908404967E0,-1.480500102E-1,3.702000141E0,-9.810000658E-1,3.832634209E0
1.910367807E0,-4.170000255E-1,3.702000141E0,-2.910000086E-1,3.736759970E0
1.912329709E0,-6.079500318E-1,3.702000141E0,3.220500052E-1,3.765385039E0
1.914291886E0,-7.620000243E-1,3.702000141E0,1.087950110E0,3.933075708E0
1.916255061E0,-7.999500632E-1,3.931950092E0,1.855050087E0,4.420561328E0
1.918217951E0,-8.380500674E-1,4.276950359E0,3.388050079E0,5.520282206E0
1.920181060E0,-9.150000215E-1,4.699050426E0,5.649000168E0,7.404694649E0
1.922144105E0,-9.150000215E-1,5.350050449E0,8.332050323E0,9.944009626E0
1.924107188E0,-1.144950032E0,6.040050507E0,1.135995007E1,1.291671731E1
1.926070259E0,-1.260000110E0,6.768000126E0,1.423395061E1,1.581134960E1
1.928033013E0,-1.297950029E0,7.534950256E0,1.645695114E1,1.814638781E1
1.929995867E0,-1.183050036E0,8.416950226E0,1.753095055E1,1.948278434E1
1.931958936E0,-8.380500674E-1,9.528000832E0,1.737705040E1,1.983549869E1
1.933921942E0,-1.870500147E-1,1.079295063E1,1.607400131E1,1.936223874E1
1.935885437E0,5.790000558E-1,1.217295074E1,1.362105083E1,1.827700732E1
1.937848788E0,1.459950089E0,1.351395035E1,1.047795010E1,1.716233511E1
1.939811968E0,2.419050217E0,1.489395046E1,6.876000404E0,1.658194638E1
1.941775189E0,3.337950230E0,1.631204987E1,2.965950251E0,1.691217737E1
1.943739186E0,3.837000132E0,1.780695152E1,-1.326000094E0,1.826385416E1
1.945702956E0,3.760050297E0,1.945500183E1,-5.809950352E0,2.064922753E1
1.947665735E0,3.031950235E0,2.167800140E1,-1.048605061E1,2.427108824E1
1.949628804E0,1.614000082E0,2.416905022E1,-1.412700081E1,2.804140040E1
1.951590936E0,1.570500135E-1,2.723505211E1,-1.604295158E1,3.160931862E1
1.953553343E0,-1.144950032E0,3.060795212E1,-1.673295021E1,3.490199516E1
1.955516399E0,-2.295000076E0,3.390405273E1,-1.550700092E1,3.735262902E1
1.957479264E0,-3.022950172E0,3.670200348E1,-1.247895050E1,3.888315178E1
1.959442512E0,-3.253050089E0,3.865695190E1,-8.071050644E0,3.962428705E1
1.961405648E0,-2.563050032E0,4.003695297E1,-3.778950214E0,4.029649232E1
1.963368914E0,-8.380500674E-1,3.999900055E1,-2.140500098E-1,4.000835151E1
1.965332129E0,1.575000048E0,3.884895325E1,2.046000004E0,3.893466206E1
1.967295183E0,3.492000103E0,3.712395096E1,3.118950129E0,3.741803909E1
1.969258285E0,4.948050022E0,3.536100006E1,3.310950041E0,3.585869371E1
1.971220997E0,5.560950279E0,3.371295166E1,3.273000240E0,3.432491527E1
1.973183823E0,4.717950344E0,3.217995071E1,2.275950193E0,3.260350031E1
1.975147173E0,2.494950056E0,3.057000160E1,1.203000069E0,3.069522736E1
1.977110365E0,-2.250000089E-1,2.869200134E1,-1.369500011E-1,2.869321037E1
1.979073378E0,-2.755050182E0,2.646900177E1,-1.516950130E0,2.665519638E1
1.981036444E0,-4.708950043E0,2.420805168E1,-3.049950123E0,2.484967148E1
1.982999387E0,-5.821050167E0,2.206095123E1,-4.468050003E0,2.324937989E1
1.984962367E0,-6.088950157E0,2.022105026E1,-5.580000401E0,2.184267823E1
1.986925280E0,-5.398950100E0,1.880295181E1,-6.270000458E0,2.054294440E1
1.988888213E0,-4.518000126E0,1.765395164E1,-6.346950531E0,1.929658298E1
1.990851089E0,-4.134000301E0,1.684905052E1,-5.925000191E0,1.833265091E1
1.992813982E0,-4.326000214E0,1.635000038E1,-5.503050327E0,1.778539719E1
1.994777270E0,-4.863000393E0,1.592895031E1,-5.197050095E0,1.744676361E1
1.996740442E0,-5.590950489E0,1.569900036E1,-4.966950417E0,1.738930522E1
1.998703373E0,-6.088950157E0,1.569900036E1,-4.698000431E0,1.748156556E1
2.000666372E0,-6.396000385E0,1.558395100E1,-4.621950150E0,1.746799281E1
2.002629282E0,-6.625950336E0,1.535400105E1,-4.966950417E0,1.744474598E1
2.004592218E0,-6.741000175E0,1.520100117E1,-5.235000134E0,1.743320815E1
2.006555273E0,-6.894000530E0,1.512405109E1,-5.695050240E0,1.756979687E1
2.008518293E0,-6.702000141E0,1.500900078E1,-5.733000278E0,1.740845204E1
2.010481394E0,-6.702000141E0,1.481700039E1,-6.040050507E0,1.734769485E1
2.012444461E0,-6.549000263E0,1.462605095E1,-6.154950142E0,1.716665902E1
2.014407180E0,-6.472050190E0,1.454895115E1,-6.193050385E0,1.708547003E1
2.016370001E0,-6.396000385E0,1.439595032E1,-6.078000069E0,1.688473545E1
2.018332940E0,-6.319050312E0,1.439595032E1,-5.925000191E0,1.680117287E1
2.020295845E0,-6.396000385E0,1.439595032E1,-5.772000313E0,1.677701386E1
2.022258812E0,-6.280950069E0,1.447200108E1,-5.695050240E0,1.677267856E1
2.024221764E0,-6.204000473E0,1.458705044E1,-5.695050240E0,1.684355246E1
2.026184503E0,-6.357000351E0,1.470195103E1,-5.772000313E0,1.702571012E1
2.028147305E0,-6.204000473E0,1.470195103E1,-5.848050117E0,1.699519568E1
2.030110248E0,-6.241950512E0,1.477905083E1,-5.580000401E0,1.698583804E1
2.032073149E0,-6.127950191E0,1.470195103E1,-5.043000221E0,1.670721367E1
2.034036251E0,-6.088950157E0,1.462605095E1,-4.621950150E0,1.650330584E1
2.035999298E0,-6.127950191E0,1.454895115E1,-4.162050247E0,1.632624927E1
2.037962156E0,-5.859000206E0,1.470195103E1,-4.047000408E0,1.633564996E1
2.039925069E0,-5.590950489E0,1.489395046E1,-4.084949970E0,1.642483802E1
2.041887993E0,-5.361000061E0,1.523895073E1,-4.084949970E0,1.666291563E1
2.043850913E0,-5.169000149E0,1.543095112E1,-3.778950214E0,1.670668368E1
2.045813892E0,-4.978050232E0,1.566000080E1,-3.319050074E0,1.676403002E1
2.047776846E0,-4.900950432E0,1.615904999E1,-2.629050016E0,1.708935679E1
2.049740260E0,-4.594050407E0,1.650405121E1,-1.939050078E0,1.724090835E1
2.051703539E0,-4.363950253E0,1.673400116E1,-1.402050018E0,1.735040636E1
2.053666762E0,-4.134000301E0,1.688700104E1,-9.420000315E-1,1.741114949E1
2.055630002E0,-3.828000069E0,1.715505028E1,-5.970000029E-1,1.758709025E1
2.057593056E0,-3.598050117E0,1.750005150E1,-5.209500194E-1,1.787370012E1
2.059556161E0,-3.445050240E0,1.773000145E1,-5.590500236E-1,1.807024791E1
2.061519233E0,-3.291000128E0,1.792200089E1,-5.209500194E-1,1.822910273E1
2.063482315E0,-3.291000128E0,1.799805069E1,-5.209500194E-1,1.830387662E1
2.065445211E0,-3.291000128E0,1.807500076E1,-2.910000086E-1,1.837446640E1
2.067408161E0,-3.138000250E0,1.807500076E1,-2.520000041E-1,1.834710337E1
2.069370257E0,-3.022950172E0,1.792200089E1,5.295000225E-2,1.817523445E1
2.071332580E0,-2.908050060E0,1.765395164E1,3.979500234E-1,1.789628811E1
2.073295920E0,-2.830950022E0,1.750005150E1,6.280500293E-1,1.773867321E1
2.075258962E0,-2.830950022E0,1.742400169E1,8.200500607E-1,1.767151932E1
2.077221911E0,-2.640000105E0,1.719405174E1,7.429500222E-1,1.741140404E1
2.079184888E0,-2.371050119E0,1.673400116E1,3.979500234E-1,1.690582851E1
2.081148521E0,-2.179949999E0,1.638899994E1,1.680000126E-1,1.653419865E1
2.083111962E0,-1.987950087E0,1.596705055E1,1.500000060E-2,1.609033480E1
2.085074753E0,-1.834950089E0,1.546905041E1,-1.369500011E-1,1.557810379E1
2.087037734E0,-1.567050099E0,1.485600090E1,-2.910000086E-1,1.494125462E1
2.089001006E0,-1.375050068E0,1.408905029E1,-5.590500236E-1,1.416702643E1
2.090964193E0,-1.336950064E0,1.343700027E1,-8.269500136E-1,1.352864584E1
2.092927136E0,-1.413000107E0,1.274805069E1,-1.018950105E0,1.286653120E1
2.094890137E0,-1.336950064E0,1.209600067E1,-1.210950017E0,1.222976155E1
2.096853226E0,-1.413000107E0,1.132905006E1,-1.134000063E0,1.147300749E1
2.098816289E0,-1.528050065E0,1.075500011E1,-7.890000343E-1,1.089162456E1
2.100779368E0,-1.681950092E0,1.021800041E1,-4.060500264E-1,1.036346299E1
2.102742443E0,-2.140950203E0,9.949950218E0,-9.900000691E-2,1.017816182E1
2.104704472E0,-2.716050148E0,9.643050194E0,3.979500234E-1,1.002615129E1
2.106666785E0,-2.946000099E0,9.490050316E0,7.429500222E-1,9.964534426E0
2.108630172E0,-2.869950056E0,9.220950127E0,1.356000066E0,9.751988040E0
2.110593244E0,-2.485950232E0,8.800050735E0,1.279950023E0,9.233586170E0
2.112556457E0,-2.218050003E0,8.608050346E0,1.432950020E0,9.003978140E0
2.114519629E0,-1.681950092E0,8.032950401E0,1.548000097E0,8.351859228E0
2.116482696E0,-1.068000078E0,7.534950256E0,1.740000129E0,7.806644604E0
2.118445790E0,-4.549500346E-1,7.228050232E0,1.969950080E0,7.505490857E0
2.120409043E0,-3.299999982E-2,7.036950111E0,2.046000004E0,7.328429019E0
2.122372249E0,5.020500422E-1,6.807000160E0,2.583000183E0,7.297889789E0
2.124336205E0,1.345050097E0,6.577050209E0,3.694050074E0,7.662424888E0
2.126299942E0,1.959000111E0,6.385050297E0,4.921050072E0,8.295979902E0
2.128262942E0,2.572050095E0,6.309000492E0,5.994000435E0,9.074523134E0
2.130226165E0,3.070050240E0,6.232050419E0,6.913950443E0,9.801345399E0
2.132189352E0,3.607050180E0,6.117000103E0,7.564950466E0,1.037578801E1
2.134152550E0,4.105050087E0,6.040050507E0,7.948950291E0,1.079441787E1
2.136115606E0,4.603050232E0,5.848950386E0,8.217000008E0,1.108681114E1
2.138078704E0,5.062950134E0,5.619000435E0,8.140049934E0,1.111157248E1
2.140041937E0,5.254950047E0,5.464950085E0,7.834050179E0,1.090195036E1
2.142005144E0,5.331000328E0,5.197050095E0,7.450050354E0,1.053243298E1
2.143968245E0,5.331000328E0,4.852050304E0,6.952050209E0,1.001463723E1
2.145931377E0,5.331000328E0,4.431000233E0,6.531000137E0,9.524037503E0
2.147894219E0,5.178000450E0,4.047000408E0,6.186000347E0,9.025325549E0
2.149857146E0,5.293050289E0,3.396000147E0,5.686950207E0,8.478832527E0
2.151819888E0,5.062950134E0,3.088950157E0,4.690950394E0,7.561751962E0
2.153782685E0,5.140050411E0,2.398950100E0,3.924000263E0,6.897308017E0
2.155745989E0,5.370000362E0,1.594050050E0,3.541050196E0,6.626985434E0
2.157709144E0,5.599950314E0,8.280000687E-1,3.426000118E0,6.616834926E0
2.159672793E0,5.676000118E0,6.105000153E-2,3.733050108E0,6.793847772E0
2.161636298E0,5.599950314E0,-4.740000367E-1,4.231050014E0,7.034621793E0
2.163599268E0,5.370000362E0,-1.203000069E0,4.882050037E0,7.356529455E0
2.165562387E0,5.101050377E0,-1.816050053E0,5.496000290E0,7.715229869E0
2.167525457E0,4.872000217E0,-2.351999998E0,5.841000080E0,7.961505639E0
2.169488541E0,4.603050232E0,-2.965950251E0,5.649000168E0,7.867409690E0
2.171451617E0,4.527000427E0,-3.541050196E0,5.304000378E0,7.820817691E0
2.173414695E0,4.527000427E0,-4.000950336E0,4.729050159E0,7.672369378E0
2.175377621E0,4.450050354E0,-4.498950005E0,4.269000053E0,7.633338768E0
2.177340603E0,4.450050354E0,-4.920000076E0,3.886050224E0,7.688350620E0
2.179303831E0,4.450050354E0,-5.380050182E0,3.502950191E0,7.811437010E0
2.181266986E0,4.450050354E0,-5.764050484E0,3.273000240E0,7.983718226E0
2.183229735E0,4.372950077E0,-6.031950474E0,3.043050051E0,8.047811659E0
2.185192603E0,4.297049999E0,-6.300000191E0,2.889000177E0,8.154812268E0
2.187155515E0,4.105050087E0,-6.529950142E0,2.773950100E0,8.196736194E0
2.189118428E0,3.874950171E0,-6.721950531E0,2.736000061E0,8.227123075E0
2.191081533E0,3.682950258E0,-6.952050209E0,2.736000061E0,8.329515055E0
2.193044582E0,3.415050268E0,-7.027950287E0,2.812950134E0,8.304657851E0
2.195007664E0,3.108000040E0,-7.105050564E0,2.851050138E0,8.262559813E0
2.196970736E0,2.802000046E0,-7.143000126E0,2.812950134E0,8.172291203E0
2.198933640E0,2.533950090E0,-7.182000160E0,2.773950100E0,8.105358013E0
2.200896589E0,2.304000139E0,-7.143000126E0,2.583000183E0,7.937427630E0
2.202859687E0,1.996950150E0,-6.913050175E0,2.275950193E0,7.547053856E0
2.204822741E0,1.804950118E0,-6.798000336E0,1.969950080E0,7.304201312E0
2.206786137E0,1.498950124E0,-6.568950176E0,1.624950051E0,6.930975441E0
2.208749433E0,1.306950092E0,-6.262050152E0,1.279950023E0,6.523776721E0
2.210712668E0,1.192050099E0,-5.878950119E0,7.810500264E-1,6.049221197E0
2.212675911E0,1.077000022E0,-5.457000256E0,3.600000143E-1,5.573901762E0
2.214639544E0,8.089500666E-1,-4.920000076E0,1.300500035E-1,4.987756406E0
2.216603063E0,6.169500351E-1,-4.269000053E0,9.195000678E-2,4.314330030E0
2.218565164E0,5.020500422E-1,-3.616950274E0,5.295000225E-2,3.652011395E0
2.220527680E0,4.639500082E-1,-3.004050255E0,2.449500114E-1,3.049519315E0
2.222490257E0,4.260000288E-1,-2.391000032E0,3.979500234E-1,2.461040715E0
2.224452823E0,5.790000558E-1,-1.816050053E0,7.050000429E-1,2.032314916E0
2.226416213E0,7.320000529E-1,-1.318050027E0,1.011000037E0,1.815268858E0
2.228379361E0,9.619500637E-1,-8.959500194E-1,1.279950023E0,1.834760590E0
2.230342022E0,1.192050099E0,-5.509500504E-1,1.471050024E0,1.971932446E0
2.232304825E0,1.384050012E0,-2.059500068E-1,1.471050024E0,2.030270429E0
2.234267217E0,1.614000082E0,-1.290000081E-1,1.471050024E0,2.187607241E0
2.236229737E0,1.920000076E0,6.105000153E-2,1.510050058E0,2.443435813E0
2.238193134E0,2.227050066E0,2.910000086E-1,1.548000097E0,2.727771490E0
2.240156274E0,2.572050095E0,4.830000103E-1,1.585950017E0,3.060060156E0
2.242119475E0,2.764050245E0,6.739500165E-1,1.548000097E0,3.238902080E0
2.244082658E0,3.070050240E0,9.040500522E-1,1.510050058E0,3.538752061E0
2.246045723E0,3.262050152E0,1.018950105E0,1.471050024E0,3.720647616E0
2.248008819E0,3.415050268E0,1.173000097E0,1.395000100E0,3.870984738E0
2.249971893E0,3.645000219E0,1.326000094E0,1.203000069E0,4.060974269E0
2.251934973E0,3.837000132E0,1.518000126E0,8.580000401E-1,4.214624356E0
2.253898634E0,4.105050087E0,1.747950077E0,5.130000114E-1,4.491095045E0
2.255862125E0,4.372950077E0,1.863000035E0,2.830500007E-1,4.761678151E0
2.257825137E0,4.603050232E0,2.053950071E0,1.500000060E-2,5.040536413E0
2.259788286E0,4.872000217E0,2.208000183E0,-2.520000041E-1,5.354918760E0
2.261751665E0,5.178000450E0,2.398950100E0,-6.739500165E-1,5.746377891E0
2.263714976E0,5.523000240E0,2.590950012E0,-9.810000658E-1,6.178908864E0
2.265678014E0,5.905950069E0,2.706000090E0,-1.402050018E0,6.645933114E0
2.267641132E0,6.213000298E0,3.012000084E0,-1.632000089E0,7.094853169E0
2.269604021E0,6.405000210E0,3.280950069E0,-1.479000092E0,7.346843017E0
2.271566978E0,6.520050526E0,3.702000141E0,-7.510500550E-1,7.535246518E0
2.273528859E0,6.481050491E0,4.276950359E0,1.165050030E0,7.851984553E0
2.275491055E0,6.175050259E0,4.929000378E0,4.116000175E0,8.908857832E0
2.277454237E0,5.599950314E0,5.695050240E0,7.834050179E0,1.118773359E1
2.279417130E0,5.025000095E0,6.424050331E0,1.135995007E1,1.398454555E1
2.281380298E0,4.411950111E0,7.228050232E0,1.415805054E1,1.649728490E1
2.283343375E0,3.952050209E0,7.995000362E0,1.599705029E1,1.831513990E1
2.285306407E0,3.682950258E0,8.953050613E0,1.672605133E1,1.932568320E1
2.287269453E0,3.415050268E0,1.006500053E1,1.661100006E1,1.972034805E1
2.289232534E0,3.492000103E0,1.106100082E1,1.557600117E1,1.942039177E1
2.291195605E0,4.027950287E0,1.194300079E1,1.381305027E1,1.869919809E1
2.293158324E0,4.756950378E0,1.263300037E1,1.128300095E1,1.759339040E1
2.295121146E0,5.446050167E0,1.336095047E1,7.909950256E0,1.645423268E1
2.297084986E0,6.060000420E0,1.424205112E1,3.618000269E0,1.589495364E1
2.299048528E0,6.366000175E0,1.546905041E1,-9.040500522E-1,1.675215763E1
2.301011031E0,6.097950459E0,1.719405174E1,-5.388000488E0,1.902238062E1
2.302973838E0,5.215950012E0,1.972305107E1,-8.838000298E0,2.223319877E1
2.304936250E0,3.529950142E0,2.309595108E1,-1.098405075E1,2.581729798E1
2.306898771E0,9.240000248E-1,2.719695091E1,-1.282395077E1,3.008291256E1
2.308860862E0,-2.026050091E0,3.168105125E1,-1.316895103E1,3.436881084E1
2.310823079E0,-5.208000183E0,3.712395096E1,-1.190400028E1,3.933212711E1
2.312785762E0,-8.427000046E0,4.306500244E1,-1.029405022E1,4.507301005E1
2.314748308E0,-1.065000057E1,4.858395386E1,-8.875950813E0,5.052331726E1
2.316711291E0,-1.191495037E1,5.368095398E1,-6.844950199E0,5.541176956E1
2.318674149E0,-1.256700039E1,5.885595322E1,-6.232050419E0,6.050447240E1
2.320636724E0,-1.279695034E1,6.318705368E1,-5.925000191E0,6.474157334E1
2.322599382E0,-1.245195103E1,6.571605682E1,-6.270000458E0,6.717859864E1
2.324562304E0,-1.156995010E1,6.617595673E1,-7.420050144E0,6.758829883E1
2.326525149E0,-1.045905018E1,6.479595184E1,-7.956000328E0,6.611508941E1
2.328488109E0,-8.656949997E0,6.115500259E1,-7.228050232E0,6.218618686E1
2.330451019E0,-6.778950214E0,5.575095367E1,-5.925000191E0,5.647325587E1
2.332413810E0,-5.323050022E0,4.988700104E1,-5.197050095E0,5.043864653E1
2.334376636E0,-4.671000004E0,4.475100327E1,-5.082000256E0,4.528020827E1
2.336339215E0,-4.288050175E0,4.030500031E1,-5.311950207E0,4.087905624E1
2.338301867E0,-4.018949986E0,3.631904984E1,-6.078000069E0,3.704277831E1
2.340264641E0,-3.904950142E0,3.310005188E1,-6.499950409E0,3.395749439E1
2.342227389E0,-3.790050268E0,3.057000160E1,-6.691050529E0,3.152236724E1
2.344190297E0,-3.712950230E0,2.827005196E1,-6.921000481E0,2.934079216E1
2.346153158E0,-3.520950079E0,2.623905182E1,-7.458000183E0,2.750466681E1
2.348116092E0,-3.483000278E0,2.459100151E1,-7.918050289E0,2.606806795E1
2.350079004E0,-3.406050205E0,2.321100044E1,-8.377950668E0,2.491067596E1
2.352041702E0,-3.138000250E0,2.213805199E1,-8.722949982E0,2.400063015E1
2.354004497E0,-2.869950056E0,2.121795082E1,-8.838000298E0,2.316351225E1
2.355967126E0,-2.218050003E0,2.033595085E1,-9.336000443E0,2.248625240E1
2.357929804E0,-1.834950089E0,1.937805176E1,-9.873000145E0,2.182549114E1
2.359892588E0,-1.452000022E0,1.853505135E1,-1.040895081E1,2.130733886E1
2.361855341E0,-1.106999993E0,1.784505081E1,-1.071600056E1,2.084475846E1
2.363818444E0,-8.380500674E-1,1.719405174E1,-1.106100082E1,2.046175658E1
2.365781433E0,-7.620000243E-1,1.654200172E1,-1.106100082E1,1.991391986E1
2.367744210E0,-5.700000525E-1,1.596705055E1,-1.102200031E1,1.941020593E1
2.369707050E0,-6.079500318E-1,1.558395100E1,-1.086900043E1,1.900958449E1
2.371670167E0,-6.850500107E-1,1.512405109E1,-1.063905048E1,1.850393499E1
2.373633202E0,-6.079500318E-1,1.477905083E1,-1.029405022E1,1.802102706E1
2.375596260E0,-4.549500346E-1,1.451100063E1,-9.718950272E0,1.747095055E1
2.377559298E0,-4.549500346E-1,1.412700081E1,-9.106050491E0,1.681366370E1
2.379522202E0,-4.549500346E-1,1.374405098E1,-8.530950546E0,1.618280056E1
2.381485146E0,-5.320500135E-1,1.343700027E1,-8.185950279E0,1.574312026E1
2.383447930E0,-4.170000255E-1,1.320795059E1,-7.918050289E0,1.540517342E1
2.385410761E0,-4.170000255E-1,1.274805069E1,-7.573050499E0,1.483367046E1
2.387373848E0,-3.780000210E-1,1.221105099E1,-7.495950222E0,1.433324527E1
2.389336850E0,-2.250000089E-1,1.175100040E1,-7.305000305E0,1.383834040E1
2.391299400E0,-5.320500135E-1,1.129095078E1,-6.460950375E0,1.301969763E1
2.393262083E0,-6.469500065E-1,1.067805004E1,-5.350050449E0,1.196086689E1
2.395225046E0,-8.770500422E-1,9.910950661E0,-4.392000198E0,1.087592872E1
2.397187927E0,-1.144950032E0,9.030000687E0,-3.319050074E0,9.688545627E0
2.399150902E0,-1.144950032E0,8.302050591E0,-2.551950216E0,8.760559599E0
2.401113850E0,-1.068000078E0,7.687950134E0,-2.169000149E0,8.059141585E0
2.403076590E0,-9.919500351E-1,7.075050354E0,-1.939050078E0,7.402716906E0
2.405039391E0,-1.106999993E0,6.499950409E0,-1.977000117E0,6.883555314E0
2.407001975E0,-1.144950032E0,5.925000191E0,-2.053950071E0,6.374578318E0
2.408964622E0,-1.413000107E0,5.427000046E0,-1.861950040E0,5.908955640E0
2.410927231E0,-1.795950055E0,4.813950062E0,-1.708950043E0,5.414800278E0
2.412889852E0,-1.873050094E0,4.123950005E0,-1.824000120E0,4.882853339E0
2.414852601E0,-2.830950022E0,3.472050190E0,-2.169000149E0,4.977345898E0
2.416815312E0,-3.022950172E0,2.782050133E0,-1.671000123E0,4.435118048E0
2.418777912E0,-3.520950079E0,2.208000183E0,-7.890000343E-1,4.230233483E0
2.420740545E0,-4.210950375E0,1.594050050E0,-9.420000315E-1,4.600050291E0
2.422702977E0,-4.249050140E0,9.810000658E-1,-1.171950102E0,4.515557027E0
2.424665468E0,-3.175950050E0,2.910000086E-1,-1.402050018E0,3.483831796E0
2.426629005E0,-4.170000255E-1,-2.440500110E-1,-1.900950074E0,1.961392519E0
2.428592235E0,8.100000024E-2,-5.130000114E-1,-2.206950188E0,2.267236014E0
2.430554566E0,-4.170000255E-1,-8.190000653E-1,-2.743950129E0,2.893771317E0
2.432517160E0,-7.999500632E-1,-1.164000034E0,-3.012000084E0,3.326704178E0
2.434479940E0,-9.919500351E-1,-1.471050024E0,-3.241950035E0,3.695699267E0
2.436442678E0,-1.144950032E0,-1.777950048E0,-3.165000200E0,3.806473856E0
2.438405498E0,-1.183050036E0,-2.122950077E0,-3.012000084E0,3.870228536E0
2.440368293E0,-1.336950064E0,-2.391000032E0,-2.896950245E0,3.987058734E0
2.442330698E0,-1.375050068E0,-2.736000061E0,-2.629050016E0,4.035884415E0
2.444293218E0,-1.297950029E0,-3.081000090E0,-2.284050226E0,4.048965456E0
2.446255801E0,-1.297950029E0,-3.349050045E0,-1.977000117E0,4.099919505E0
2.448218399E0,-1.222050071E0,-3.694050074E0,-1.516950130E0,4.176188456E0
2.450180973E0,-9.529500604E-1,-3.961950302E0,-1.096050024E0,4.219773651E0
2.452143555E0,-7.620000243E-1,-4.306950092E0,-6.739500165E-1,4.425457237E0
2.454106220E0,-6.469500065E-1,-4.651950359E0,-2.910000086E-1,4.705727092E0
2.456068860E0,-4.549500346E-1,-4.996950150E0,1.500000060E-2,5.017640415E0
2.458030707E0,-2.250000089E-1,-5.265000343E0,2.449500114E-1,5.275495629E0
2.459992786E0,8.100000024E-2,-5.610000134E0,5.509500504E-1,5.637571149E0
2.461956618E0,4.639500082E-1,-6.031950474E0,6.660000086E-1,6.086315153E0
2.463919937E0,7.699500322E-1,-6.376950264E0,7.050000429E-1,6.461837415E0
2.465882568E0,1.114950061E0,-6.798000336E0,6.280500293E-1,6.917396117E0
2.467845401E0,1.345050097E0,-7.105050564E0,3.979500234E-1,7.242186652E0
2.469808549E0,1.498950124E0,-7.603050232E0,5.295000225E-2,7.749582441E0
2.471771615E0,1.651950121E0,-7.987050533E0,-2.520000041E-1,8.159988935E0
2.473734289E0,1.767000079E0,-8.217000008E0,-5.209500194E-1,8.420971875E0
2.475697078E0,1.690050125E0,-8.407950401E0,-5.590500236E-1,8.594325820E0
2.477659888E0,1.575000048E0,-8.599950790E0,-3.670500219E-1,8.750685943E0
2.479622692E0,1.422000051E0,-8.715000153E0,-9.900000691E-2,8.830804765E0
2.481584574E0,1.269000053E0,-8.715000153E0,2.449500114E-1,8.810311533E0
2.483546713E0,1.077000022E0,-8.599950790E0,6.280500293E-1,8.689852098E0
2.485509184E0,7.320000529E-1,-8.407950401E0,1.165050030E0,8.519788472E0
2.487471557E0,3.870000243E-1,-8.140049934E0,1.585950017E0,8.302133425E0
2.489434439E0,3.870000243E-1,-7.756950378E0,2.314950228E0,8.104260777E0
2.491397172E0,3.870000243E-1,-7.335000515E0,2.928000212E0,7.907286944E0
2.493360088E0,4.639500082E-1,-6.837000370E0,3.310950041E0,7.610664481E0
2.495322946E0,4.260000288E-1,-6.223950386E0,3.886050224E0,7.349858555E0
2.497285926E0,4.639500082E-1,-5.686950207E0,4.153950214E0,7.057758472E0
2.499248870E0,4.639500082E-1,-5.265000343E0,4.192950249E0,6.746577652E0
2.501211790E0,3.109500110E-1,-4.729050159E0,4.192950249E0,6.327830363E0
2.503174718E0,2.719500065E-1,-4.269000053E0,4.078050137E0,5.910060167E0
2.505137489E0,1.189500093E-1,-3.694050074E0,3.924000263E0,5.390541078E0
2.507100285E0,2.340000123E-1,-3.196050167E0,4.231050014E0,5.307662094E0
2.509063005E0,2.719500065E-1,-2.812050104E0,4.843950272E0,5.607623100E0
2.511025747E0,2.340000123E-1,-2.391000032E0,4.882050037E0,5.441144156E0
2.512988880E0,2.719500065E-1,-2.083950043E0,5.112000465E0,5.527146944E0
2.514951899E0,3.490500152E-1,-1.701000094E0,5.151000023E0,5.435810746E0
2.516914847E0,4.260000288E-1,-1.318050027E0,5.341950417E0,5.518619950E0
2.518877819E0,5.020500422E-1,-8.959500194E-1,5.533950329E0,5.628444450E0
2.520841273E0,5.020500422E-1,-5.509500504E-1,5.649000168E0,5.697964821E0
2.522804586E0,5.410500169E-1,-2.059500068E-1,5.802000046E0,5.830810840E0
2.524766362E0,6.169500351E-1,-9.105000645E-2,5.878950119E0,5.911934705E0
2.526728588E0,4.639500082E-1,2.140500098E-1,5.956050396E0,5.977926341E0
2.528691770E0,3.870000243E-1,5.590500236E-1,5.956050396E0,5.994734545E0
2.530654668E0,3.870000243E-1,7.890000343E-1,5.956050396E0,6.020533730E0
2.532617416E0,3.490500152E-1,1.057950020E0,5.878950119E0,5.983573235E0
2.534580208E0,3.870000243E-1,1.326000094E0,5.686950207E0,5.852302788E0
2.536543152E0,3.870000243E-1,1.518000126E0,5.533950329E0,5.751408492E0
2.538506052E0,5.020500422E-1,1.786050081E0,5.266050339E0,5.583306843E0
2.540470115E0,6.169500351E-1,1.900950074E0,5.035950184E0,5.418028496E0
2.542433831E0,7.320000529E-1,2.131050110E0,4.729050159E0,5.238426678E0
2.544396754E0,8.089500666E-1,2.245950222E0,4.308000088E0,4.925196175E0
2.546359910E0,9.619500637E-1,2.398950100E0,3.963000298E0,4.731350850E0
2.548322838E0,1.114950061E0,2.551950216E0,3.502950191E0,4.475066881E0
2.550285833E0,1.153950095E0,2.667000055E0,3.043050051E0,4.207688644E0
2.552248904E0,1.269000053E0,2.896950245E0,2.545050144E0,4.059551957E0
2.554211966E0,1.306950092E0,3.051000118E0,1.893000126E0,3.821016847E0
2.556175002E0,1.384050012E0,3.166050196E0,1.356000066E0,3.711900383E0
2.558138045E0,1.537050128E0,3.280950069E0,6.280500293E-1,3.677173275E0
2.560101667E0,1.651950121E0,3.396000147E0,-2.140500098E-1,3.782535341E0
2.562065119E0,1.920000076E0,3.472050190E0,-8.269500136E-1,4.052823601E0
2.564028344E0,2.227050066E0,3.511050224E0,-1.594050050E0,4.452889089E0
2.565991646E0,2.419050217E0,3.549000263E0,-2.437050104E0,4.938260830E0
2.567954820E0,2.572050095E0,3.511050224E0,-3.204000235E0,5.404491916E0
2.569918031E0,2.686950207E0,3.511050224E0,-4.009050369E0,5.968220837E0
2.571881084E0,2.839950085E0,3.433950186E0,-4.698000431E0,6.475224970E0
2.573844184E0,2.725050211E0,3.433950186E0,-5.503050327E0,7.035728494E0
2.575807062E0,2.533950090E0,3.357000113E0,-6.193050385E0,7.486269156E0
2.577770016E0,2.380050182E0,3.396000147E0,-6.691050529E0,7.871951032E0
2.579732978E0,2.188950062E0,3.357000113E0,-6.960000515E0,8.031348535E0
2.581695937E0,1.996950150E0,3.319050074E0,-6.652950287E0,7.698418721E0
2.583658855E0,1.959000111E0,3.319050074E0,-5.695050240E0,6.876581422E0
2.585621785E0,2.149950027E0,3.396000147E0,-3.970050097E0,5.649460141E0
2.587584107E0,2.188950062E0,3.472050190E0,-1.786050081E0,4.476227182E0
2.589546617E0,2.188950062E0,3.778950214E0,7.050000429E-1,4.423685359E0
2.591509655E0,2.074050188E0,4.123950005E0,3.349050045E0,5.703050414E0
2.593472538E0,2.035050154E0,4.507050037E0,6.262050152E0,7.979235632E0
2.595435603E0,1.996950150E0,5.044050217E0,9.252000809E0,1.072519331E1
2.597398615E0,1.882050037E0,5.656950474E0,1.208805084E1,1.347828528E1
2.599361722E0,1.843950033E0,6.270000458E0,1.461795044E1,1.601241807E1
2.601324788E0,2.074050188E0,6.960000515E0,1.668704987E1,1.819892647E1
2.603288092E0,2.494950056E0,7.650000572E0,1.799100113E1,1.970846027E1
2.605251326E0,3.147000074E0,8.416950226E0,1.864200020E1,2.069475373E1
2.607214558E0,3.990000248E0,9.336000443E0,1.825905037E1,2.089195842E1
2.609177790E0,4.872000217E0,1.048605061E1,1.707105064E1,2.061830288E1
2.611141011E0,5.791050434E0,1.178895092E1,1.496295071E1,1.990993528E1
2.613104242E0,6.558000088E0,1.347600079E1,1.208805084E1,1.925437445E1
2.615067652E0,6.979950428E0,1.512405109E1,8.754000664E0,1.881725690E1
2.617031010E0,7.018050194E0,1.657995033E1,4.843950272E0,1.864434595E1
2.618995120E0,7.056000233E0,1.792200089E1,1.126049995E0,1.929386544E1
2.620959010E0,6.826050282E0,1.960800171E1,-2.475000143E0,2.090919222E1
2.622922097E0,6.136050224E0,2.156295013E1,-5.887050152E0,2.317907009E1
2.624885410E0,4.833000183E0,2.393895149E1,-8.646000862E0,2.590723104E1
2.626848627E0,3.453000069E0,2.696700096E1,-1.090695095E1,2.929341102E1
2.628811872E0,2.304000139E0,3.014805222E1,-1.148205090E1,3.234271111E1
2.630774920E0,1.459950089E0,3.310005188E1,-1.037100029E1,3.471746730E1
2.632738026E0,1.767000079E0,3.539895248E1,-8.569950104E0,3.646439594E1
2.634701117E0,2.802000046E0,3.735405350E1,-6.001950264E0,3.793678853E1
2.636664199E0,3.874950171E0,3.792900085E1,-3.625050068E0,3.829837245E1
2.638627095E0,5.638050079E0,3.739200211E1,-2.284050226E0,3.788358900E1
2.640590045E0,6.979950428E0,3.582105255E1,-1.441050053E0,3.652320001E1
2.642552423E0,7.630950451E0,3.409605026E1,-1.759500057E-1,3.493999151E1
2.644514968E0,7.285950184E0,3.275505066E1,6.660000086E-1,3.356221044E1
2.646478310E0,5.752950191E0,3.137505150E1,1.165050030E0,3.191939276E1
2.648441422E0,2.764050245E0,2.991795158E1,1.011000037E0,3.006236720E1
2.650404494E0,-5.700000525E-1,2.838495064E1,4.360500276E-1,2.839402160E1
2.652367578E0,-3.214950085E0,2.666100121E1,-1.759500057E-1,2.685471742E1
2.654330473E0,-5.245950222E0,2.489700127E1,-8.659500480E-1,2.545840795E1
2.656293424E0,-6.586950302E0,2.332605171E1,-1.977000117E0,2.431874035E1
2.658256572E0,-7.392000198E0,2.183100128E1,-3.394950151E0,2.329720950E1
2.660219658E0,-7.813950539E0,2.052795029E1,-4.966950417E0,2.251943966E1
2.662182554E0,-7.929000378E0,1.972305107E1,-6.078000069E0,2.210904510E1
2.664145506E0,-7.852050304E0,1.891800117E1,-6.960000515E0,2.163300880E1
2.666108064E0,-7.891050339E0,1.845795059E1,-7.495950222E0,2.142787636E1
2.668070737E0,-7.929000378E0,1.799805069E1,-7.611000538E0,2.108853254E1
2.670033848E0,-8.274000168E0,1.773000145E1,-7.228050232E0,2.085801382E1
2.671996855E0,-8.809950829E0,1.753905106E1,-6.960000515E0,2.082486861E1
2.673960079E0,-9.309000015E0,1.738500023E1,-6.768000126E0,2.084949735E1
2.675923240E0,-9.654000282E0,1.711695099E1,-6.576000214E0,2.072277760E1
2.677885988E0,-1.003695011E1,1.700205040E1,-6.270000458E0,2.071528400E1
2.679848857E0,-1.034400082E1,1.688700104E1,-6.154950142E0,2.073770885E1
2.681811928E0,-1.042005062E1,1.677195168E1,-6.270000458E0,2.071687051E1
2.683774937E0,-1.049700069E1,1.681005096E1,-6.576000214E0,2.088081933E1
2.685737846E0,-1.045905018E1,1.677195168E1,-7.036050320E0,2.098085074E1
2.687700785E0,-1.038195038E1,1.665705109E1,-7.534950256E0,2.102421746E1
2.689663525E0,-1.053495026E1,1.665705109E1,-7.956000328E0,2.125418709E1
2.691626324E0,-1.076505089E1,1.673400116E1,-8.224950790E0,2.153051163E1
2.693589074E0,-1.095705032E1,1.677195168E1,-8.455050468E0,2.174495788E1
2.695551848E0,-1.107195091E1,1.681005096E1,-8.493000031E0,2.184712704E1
2.697514841E0,-1.118700027E1,1.692495155E1,-8.301000595E0,2.192052853E1
2.699477769E0,-1.114800072E1,1.707900047E1,-7.918050289E0,2.187842996E1
2.701440692E0,-1.107195091E1,1.719405174E1,-7.495950222E0,2.178101885E1
2.703403617E0,-1.080300045E1,1.730895042E1,-7.150950432E0,2.162037640E1
2.705366899E0,-1.034400082E1,1.738500023E1,-6.921000481E0,2.138075849E1
2.707330077E0,-9.844950676E0,1.750005150E1,-6.652950287E0,2.115269732E1
2.709292957E0,-9.193950653E0,1.769205093E1,-6.460950375E0,2.095903802E1
2.711255925E0,-8.772000313E0,1.780695152E1,-6.154950142E0,2.078265920E1
2.713218840E0,-8.503950119E0,1.799805069E1,-5.772000313E0,2.072590128E1
2.715181771E0,-8.311950684E0,1.822800064E1,-5.427000046E0,2.075574284E1
2.717144698E0,-7.891050339E0,1.815195084E1,-5.235000134E0,2.047357372E1
2.719107622E0,-7.660950184E0,1.822800064E1,-4.852050304E0,2.035909029E1
2.721070679E0,-7.507050514E0,1.838205147E1,-4.392000198E0,2.033581297E1
2.723033697E0,-7.276950359E0,1.853505135E1,-4.162050247E0,2.034268412E1
2.724996470E0,-7.047000408E0,1.868805122E1,-3.739950180E0,2.031971212E1
2.726959315E0,-6.741000175E0,1.872705078E1,-3.549000263E0,2.021729253E1
2.728922278E0,-6.472050190E0,1.876500130E1,-3.433950186E0,2.014459534E1
2.730885187E0,-6.204000473E0,1.891800117E1,-3.280050039E0,2.017768863E1
2.732848248E0,-6.013050079E0,1.907205009E1,-3.280050039E0,2.026471303E1
2.734811264E0,-5.821050167E0,1.914795113E1,-3.319050074E0,2.028656577E1
2.736774217E0,-5.629050255E0,1.911000061E1,-3.472050190E0,2.022210332E1
2.738737189E0,-5.476050377E0,1.899495125E1,-3.625050068E0,2.009816630E1
2.740700288E0,-5.323050022E0,1.868805122E1,-3.472050190E0,1.973912999E1
2.742663346E0,-5.284050465E0,1.830495071E1,-2.896950245E0,1.927134481E1
2.744626606E0,-5.092950344E0,1.784505081E1,-2.206950188E0,1.868835495E1
2.746589807E0,-4.824000359E0,1.734705162E1,-1.632000089E0,1.807912066E1
2.748553179E0,-4.594050407E0,1.673400116E1,-1.134000063E0,1.739017108E1
2.750516500E0,-4.326000214E0,1.623495102E1,-7.890000343E-1,1.681994154E1
2.752479890E0,-4.134000301E0,1.573695087E1,-6.739500165E-1,1.628483313E1
2.754443264E0,-4.018949986E0,1.531605053E1,-5.970000029E-1,1.584581244E1
2.756406111E0,-3.943050146E0,1.493205070E1,-5.970000029E-1,1.545542596E1
2.758369112E0,-3.904950142E0,1.454895115E1,-7.120500207E-1,1.508070391E1
2.760332022E0,-3.675000191E0,1.389705086E1,-5.970000029E-1,1.438714906E1
2.762294958E0,-3.520950079E0,1.328400040E1,-4.440000355E-1,1.374986880E1
2.764257894E0,-3.367950201E0,1.274805069E1,-3.670500219E-1,1.319055005E1
2.766220850E0,-3.330000162E0,1.224900055E1,-3.670500219E-1,1.269888346E1
2.768183589E0,-3.291000128E0,1.178895092E1,-1.759500057E-1,1.224095601E1
2.770146391E0,-3.214950085E0,1.140600014E1,1.300500035E-1,1.185114578E1
2.772108433E0,-3.138000250E0,1.094595051E1,3.600000143E-1,1.139256240E1
2.774070698E0,-2.869950056E0,1.052505016E1,7.429500222E-1,1.093459048E1
2.776033688E0,-2.601000071E0,1.018005085E1,1.318050027E0,1.058942362E1
2.777996466E0,-2.410050154E0,9.949950218E0,1.777950048E0,1.039090744E1
2.779959594E0,-2.065050125E0,9.681000710E0,2.046000004E0,1.010803259E1
2.781922619E0,-1.911000133E0,9.490050316E0,2.545050144E0,1.000950832E1
2.783885526E0,-1.489950061E0,9.220950127E0,2.773950100E0,9.743750386E0
2.785848468E0,-9.919500351E-1,8.761950493E0,3.157950163E0,9.366343499E0
2.787811576E0,-4.549500346E-1,8.263050079E0,3.463950157E0,8.971283456E0
2.789774629E0,1.570500135E-1,7.687950134E0,3.733050108E0,8.547801184E0
2.791738251E0,6.940500140E-1,7.189950466E0,3.349050045E0,7.961986519E0
2.793701706E0,1.230000019E0,6.768000126E0,3.426000118E0,7.684803352E0
2.795664900E0,1.614000082E0,6.424050331E0,3.426000118E0,7.457271333E0
2.797628170E0,2.188950062E0,6.001950264E0,3.579000235E0,7.322851359E0
2.799591289E0,2.610000134E0,5.656950474E0,3.808950186E0,7.302142896E0
2.801554431E0,3.070050240E0,5.311950207E0,4.461000443E0,7.585680485E0
2.803517811E0,3.453000069E0,4.966950417E0,5.188950062E0,7.969881345E0
2.805481121E0,3.913050175E0,4.699050426E0,5.304000378E0,8.094779589E0
2.807443979E0,4.488000393E0,4.276950359E0,5.341950417E0,8.183574168E0
2.809406969E0,4.987050056E0,3.817050219E0,5.188950062E0,8.146517255E0
2.811370090E0,5.485050201E0,3.319050074E0,4.996950150E0,8.128430347E0
2.813333183E0,5.905950069E0,2.935950041E0,5.227050304E0,8.415586952E0
2.815296258E0,6.250950336E0,2.437050104E0,6.031950474E0,9.022085116E0
2.817259339E0,6.442950249E0,2.092950106E0,6.684000492E0,9.516717429E0
2.819222549E0,6.750000477E0,1.633050084E0,7.335000515E0,1.010106883E1
2.821185721E0,6.979950428E0,1.057950020E0,7.642050266E0,1.040384056E1
2.823149508E0,7.171050549E0,5.209500194E-1,7.642050266E0,1.049267779E1
2.825113111E0,7.363050461E0,-9.105000645E-2,7.603950500E0,1.058503025E1
2.827076459E0,7.516050339E0,-5.130000114E-1,7.564950466E0,1.067626607E1
2.829039882E0,7.554000378E0,-9.730500579E-1,7.489050388E0,1.068155531E1
2.831002945E0,7.669050217E0,-1.356000066E0,7.411950588E0,1.075128266E1
2.832966113E0,7.746000290E0,-1.701000094E0,7.411950588E0,1.085499578E1
2.834928814E0,7.938000202E0,-2.161050081E0,7.105050564E0,1.087031408E1
2.836891652E0,8.167950630E0,-2.620950222E0,6.531000137E0,1.078140809E1
2.838854588E0,8.282999992E0,-3.081000090E0,5.917050362E0,1.063541891E1
2.840817496E0,8.359050751E0,-3.387000084E0,5.227050304E0,1.042437307E1
2.842780737E0,8.282999992E0,-3.694050074E0,4.537950039E0,1.014135520E1
2.844743880E0,8.128950119E0,-4.039050102E0,3.886050224E0,9.873962837E0
2.846706942E0,7.938000202E0,-4.269000053E0,3.234000206E0,9.575748848E0
2.848670031E0,7.708050251E0,-4.575000286E0,2.698050022E0,9.360776688E0
2.850633106E0,7.438950539E0,-4.882050037E0,2.200050116E0,9.165839743E0
2.852596185E0,7.095000267E0,-5.074050426E0,1.701000094E0,8.886980243E0
2.854559126E0,6.787950516E0,-5.380050182E0,1.356000066E0,8.766980572E0
2.856522108E0,6.481050491E0,-5.649000168E0,1.011000037E0,8.656635573E0
2.858485184E0,6.213000298E0,-5.917050362E0,6.660000086E-1,8.605603622E0
2.860448212E0,5.905950069E0,-6.147000313E0,3.979500234E-1,8.533710992E0
2.862412198E0,5.715000153E0,-6.454050541E0,2.830500007E-1,8.625318106E0
2.864375904E0,5.370000362E0,-6.684000492E0,2.070000172E-1,8.576457047E0
2.866338874E0,5.025000095E0,-6.913050175E0,1.680000126E-1,8.548047302E0
2.868302060E0,4.680000305E0,-7.143000126E0,1.680000126E-1,8.541257382E0
2.870264058E0,4.297049999E0,-7.297050476E0,4.360500276E-1,8.479488426E0
2.872226421E0,3.760050297E0,-7.488000393E0,6.660000086E-1,8.405455617E0
2.874189439E0,3.223050117E0,-7.450050354E0,1.050000072E0,8.184974190E0
2.876152265E0,2.686950207E0,-7.450050354E0,1.279950023E0,8.022544718E0
2.878115205E0,2.111999989E0,-7.297050476E0,1.471050024E0,7.737666171E0
2.880078111E0,1.498950124E0,-6.990000248E0,1.510050058E0,7.306654920E0
2.882040818E0,1.153950095E0,-6.568950176E0,1.548000097E0,6.846824924E0
2.884003580E0,7.320000529E-1,-6.070050240E0,1.471050024E0,6.288507149E0
2.885966035E0,3.109500110E-1,-5.494950294E0,1.471050024E0,5.696942761E0
2.887928580E0,1.189500093E-1,-4.843950272E0,1.240950108E0,5.001795728E0
2.889891747E0,4.050000105E-3,-4.116000175E0,1.050000072E0,4.247819911E0
2.891854732E0,-3.299999982E-2,-3.387000084E0,8.200500607E-1,3.485016595E0
2.893817965E0,-3.299999982E-2,-2.544000149E0,8.200500607E-1,2.673108277E0
2.895781121E0,-3.299999982E-2,-1.777950048E0,8.959500194E-1,1.991211142E0
2.897744050E0,1.189500093E-1,-1.126049995E0,9.730500579E-1,1.492971571E0
2.899707046E0,2.340000123E-1,-5.130000114E-1,1.050000072E0,1.191815912E0
2.901669956E0,3.870000243E-1,-1.680000126E-1,1.165050030E0,1.239086193E0
2.903632892E0,6.169500351E-1,2.295000106E-2,1.165050030E0,1.318520239E0
2.905596127E0,8.850000501E-1,2.910000086E-1,1.203000069E0,1.521550281E0
2.907559275E0,1.153950095E0,5.209500194E-1,1.279950023E0,1.800350467E0
2.909522160E0,1.306950092E0,6.739500165E-1,1.279950023E0,1.949512562E0
2.911485123E0,1.498950124E0,9.040500522E-1,1.203000069E0,2.123997913E0
2.913448039E0,1.690050125E0,1.134000063E0,1.126049995E0,2.325986707E0
2.915410969E0,1.767000079E0,1.326000094E0,1.050000072E0,2.446030597E0
2.917374065E0,1.959000111E0,1.518000126E0,9.349500537E-1,2.648799241E0
2.919337116E0,2.074050188E0,1.747950077E0,8.959500194E-1,2.856525878E0
2.921300198E0,2.341950178E0,1.900950074E0,6.660000086E-1,3.088996250E0
2.923263270E0,2.494950056E0,2.092950106E0,3.600000143E-1,3.276402896E0
2.925227114E0,2.649000168E0,2.245950222E0,2.070000172E-1,3.479129675E0
2.927190732E0,2.917050123E0,2.322000027E0,5.295000225E-2,3.728762428E0
2.929153717E0,3.184950113E0,2.476050138E0,-1.759500057E-1,4.038030450E0
2.931116888E0,3.529950142E0,2.590950012E0,-4.060500264E-1,4.397550067E0
2.933079768E0,3.837000132E0,2.782050133E0,-4.819500148E-1,4.763890088E0
2.935042734E0,4.182000160E0,3.088950157E0,-2.205000073E-2,5.199156145E0
2.937005244E0,4.488000393E0,3.511050224E0,9.349500537E-1,5.774404974E0
2.938967888E0,4.527000427E0,3.931950092E0,2.545050144E0,6.513926975E0
2.940931057E0,4.297049999E0,4.468950272E0,4.882050037E0,7.891170242E0
2.942894058E0,3.874950171E0,5.197050095E0,7.909950256E0,1.022701724E1
2.944856834E0,3.337950230E0,5.925000191E0,1.128300095E1,1.317397622E1
2.946819676E0,2.878050089E0,6.691950321E0,1.411905098E1,1.588750994E1
2.948782612E0,2.457000017E0,7.612050533E0,1.622700119E1,1.809131643E1
2.950745520E0,2.341950178E0,8.455050468E0,1.718595123E1,1.929584227E1
2.952708951E0,2.304000139E0,9.565950394E0,1.710900116E1,1.973660924E1
2.954672222E0,2.457000017E0,1.063995075E1,1.603605080E1,1.940103931E1
2.956635447E0,2.955000162E0,1.163595009E1,1.377405071E1,1.827161278E1
2.958598686E0,3.682950258E0,1.251795101E1,1.082295036E1,1.695286037E1
2.960561915E0,4.680000305E0,1.332300091E1,7.335000515E0,1.591247902E1
2.962525147E0,5.560950279E0,1.431900024E1,3.234000206E0,1.569766522E1
2.964488941E0,5.983050346E0,1.546905041E1,-9.040500522E-1,1.661040994E1
2.966452554E0,6.097950459E0,1.669500160E1,-4.774950027E0,1.840402744E1
2.968415540E0,5.370000362E0,1.849695015E1,-7.879950523E0,2.081027845E1
2.970378710E0,3.952050209E0,2.110305023E1,-9.796050072E0,2.359915310E1
2.972340869E0,1.537050128E0,2.455200195E1,-1.067805004E1,2.681760757E1
2.974303325E0,-9.150000215E-1,2.834700203E1,-1.098405075E1,3.041445577E1
2.976266312E0,-3.598050117E0,3.267795181E1,-1.056300068E1,3.453073244E1
2.978229154E0,-6.241950512E0,3.723900223E1,-9.373950005E0,3.890470629E1
2.980192092E0,-8.887050629E0,4.195305252E1,-7.266000271E0,4.349520715E1
2.982155001E0,-1.107195091E1,4.639905167E1,-5.158050060E0,4.797984549E1
2.984117792E0,-1.264305019E1,5.103705215E1,-2.935050249E0,5.266157927E1
2.986080618E0,-1.302600098E1,5.529105377E1,-1.326000094E0,5.682020420E1
2.988043521E0,-1.306500053E1,5.916195297E1,-1.018950105E0,6.059595018E1
2.990006395E0,-1.180005074E1,6.192195129E1,-2.437050104E0,6.308334537E1
2.991969372E0,-9.615000725E0,6.288000488E1,-4.507050037E0,6.377034384E1
2.993932318E0,-6.817050457E0,6.165405273E1,-6.232050419E0,6.234206323E1
2.995895418E0,-3.559950113E0,5.893200302E1,-6.652950287E0,5.941309597E1
2.997858472E0,-1.099500060E-1,5.406495285E1,-6.193050385E0,5.441860977E1
2.999822224E0,1.651950121E0,4.835400391E1,-6.078000069E0,4.876249294E1
3.001785775E0,1.575000048E0,4.341000366E1,-6.154950142E0,4.387245667E1
3.003747870E0,4.639500082E-1,3.930900192E1,-6.040050507E0,3.977304479E1
3.005710392E0,-1.106999993E0,3.570600128E1,-5.733000278E0,3.618026076E1
3.007673563E0,-2.601000071E0,3.264000320E1,-5.656950474E0,3.322854344E1
3.009636544E0,-3.636000156E0,3.007200050E1,-5.848050117E0,3.085037117E1
3.011599309E0,-4.096050262E0,2.788695145E1,-6.232050419E0,2.886690391E1
3.013562148E0,-4.210950375E0,2.597100067E1,-6.576000214E0,2.711952724E1
3.015525219E0,-3.981000185E0,2.436105156E1,-6.844950199E0,2.561566979E1
3.017488222E0,-3.712950230E0,2.294295120E1,-7.075050354E0,2.429447153E1
3.019451133E0,-2.869950056E0,2.183100128E1,-7.113000393E0,2.313923086E1
3.021414071E0,-2.103000164E0,2.068095016E1,-7.305000305E0,2.203377723E1
3.023377370E0,-1.375050068E0,1.980000114E1,-7.420050144E0,2.118933581E1
3.025340549E0,-6.469500065E-1,1.899495125E1,-7.650000572E0,2.048778236E1
3.027303474E0,-1.099500060E-1,1.830495071E1,-7.956000328E0,1.995949025E1
3.029266474E0,3.109500110E-1,1.776900101E1,-8.263050079E0,1.959877760E1
3.031230284E0,7.699500322E-1,1.726995087E1,-8.455050468E0,1.924400957E1
3.033193857E0,1.114950061E0,1.684905052E1,-8.608050346E0,1.895342048E1
3.035156425E0,1.269000053E0,1.642695045E1,-8.799000740E0,1.867826214E1
3.037119301E0,1.306950092E0,1.604400063E1,-8.875950813E0,1.838207218E1
3.039082277E0,1.306950092E0,1.573695087E1,-8.875950813E0,1.811469691E1
3.041045223E0,1.269000053E0,1.531605053E1,-8.722949982E0,1.767149177E1
3.043008277E0,1.269000053E0,1.493205070E1,-8.646000862E0,1.730115113E1
3.044971299E0,1.306950092E0,1.470195103E1,-8.416049957E0,1.699074393E1
3.046934537E0,1.306950092E0,1.424205112E1,-8.071050644E0,1.642211915E1
3.048897732E0,1.114950061E0,1.385895061E1,-7.381050587E0,1.574145907E1
3.050860790E0,7.699500322E-1,1.324605083E1,-6.730050087E0,1.487764296E1
3.052823888E0,7.699500322E-1,1.270905018E1,-6.499950409E0,1.429552849E1
3.054786240E0,5.790000558E-1,1.224900055E1,-5.809950352E0,1.356940598E1
3.056748811E0,3.490500152E-1,1.167405033E1,-4.927950382E0,1.267635523E1
3.058711632E0,1.189500093E-1,1.090800095E1,-4.162050247E0,1.167567112E1
3.060674366E0,1.189500093E-1,1.021800041E1,-3.855000257E0,1.092166235E1
3.062637322E0,2.340000123E-1,9.565950394E0,-3.817050219E0,1.030204035E1
3.064600213E0,2.340000123E-1,8.914950371E0,-3.433950186E0,9.556312573E0
3.066563142E0,2.340000123E-1,8.263050079E0,-2.935050249E0,8.771959450E0
3.068526059E0,5.410500169E-1,7.687950134E0,-2.859000206E0,8.220169984E0
3.070489685E0,1.153950095E0,7.189950466E0,-2.782050133E0,7.795305733E0
3.072453117E0,1.422000051E0,6.768000126E0,-2.322000027E0,7.295176075E0
3.074415818E0,1.575000048E0,6.462000370E0,-2.206950188E0,7.007760203E0
3.076378734E0,1.422000051E0,6.193950176E0,-2.053950071E0,6.678758404E0
3.078341792E0,1.384050012E0,5.848950386E0,-2.053950071E0,6.351734090E0
3.080304809E0,1.422000051E0,5.427000046E0,-2.130000114E0,6.000942770E0
3.082267537E0,1.269000053E0,4.890000343E0,-2.169000149E0,5.497911070E0
3.084230349E0,9.240000248E-1,4.468950272E0,-1.939050078E0,4.958347283E0
3.086192795E0,5.790000558E-1,3.931950092E0,-1.594050050E0,4.282110245E0
3.088155349E0,6.169500351E-1,3.396000147E0,-1.249050021E0,3.670636225E0
3.090117209E0,4.260000288E-1,2.896950245E0,-9.040500522E-1,3.064490699E0
3.092079273E0,1.570500135E-1,2.284050226E0,-6.360000372E-1,2.376141029E0
3.094042031E0,4.050000105E-3,1.671000123E0,-3.289500177E-1,1.703075432E0
3.096004582E0,-3.780000210E-1,1.173000097E0,-9.900000691E-2,1.236371403E0
3.097967524E0,-5.320500135E-1,5.980500579E-1,1.500000060E-2,8.006035777E-1
3.099930352E0,-8.770500422E-1,2.295000106E-2,1.300500035E-1,8.869365718E-1
3.101893697E0,-1.260000110E0,-5.130000114E-1,2.449500114E-1,1.382305971E0
3.103856890E0,-1.567050099E0,-1.164000034E0,1.680000126E-1,1.959276932E0
3.105819534E0,-2.026050091E0,-1.701000094E0,1.300500035E-1,2.648621018E0
3.107782345E0,-2.563050032E0,-2.314050198E0,-1.369500011E-1,3.455836959E0
3.109744971E0,-2.793000221E0,-2.889000177E0,-4.060500264E-1,4.038817758E0
3.111707652E0,-2.946000099E0,-3.426000118E0,-6.739500165E-1,4.568435402E0
3.113670436E0,-2.869950056E0,-3.886050224E0,-9.420000315E-1,4.921926831E0
3.115633189E0,-2.985000134E0,-4.422000408E0,-1.096050024E0,5.446617213E0
3.117595922E0,-2.946000099E0,-4.959000111E0,-1.249050021E0,5.901756064E0
3.119558688E0,-2.985000134E0,-5.380050182E0,-1.402050018E0,6.310381131E0
3.121521593E0,-2.830950022E0,-5.764050484E0,-1.402050018E0,6.572997814E0
3.123484457E0,-2.716050148E0,-6.070050240E0,-1.363950014E0,6.788431185E0
3.125447076E0,-2.448000193E0,-6.415050507E0,-1.402050018E0,7.007947075E0
3.127409767E0,-2.256000042E0,-6.760050297E0,-1.363950014E0,7.255906273E0
3.129372679E0,-2.026050091E0,-7.105050564E0,-1.402050018E0,7.520130766E0
3.131335529E0,-1.834950089E0,-7.297050476E0,-1.402050018E0,7.653739722E0
3.133298510E0,-1.758000135E0,-7.642050266E0,-1.479000092E0,7.979908397E0
3.135261452E0,-1.605000019E0,-7.756950378E0,-1.402050018E0,8.044379932E0
3.137224373E0,-1.260000110E0,-7.872000217E0,-1.210950017E0,8.063646051E0
3.139187301E0,-7.620000243E-1,-8.140049934E0,-1.057050109E0,8.243689217E0
3.141150372E0,-3.780000210E-1,-8.332050323E0,-8.659500480E-1,8.385452647E0
3.143113391E0,4.200000316E-2,-8.446949959E0,-5.590500236E-1,8.465533919E0
3.145076344E0,6.169500351E-1,-8.523000717E0,9.195000678E-2,8.545795655E0
3.147039316E0,1.153950095E0,-8.446949959E0,7.050000429E-1,8.554506969E0
3.149002185E0,1.690050125E0,-8.178000450E0,1.432950020E0,8.472857047E0
3.150965085E0,2.227050066E0,-7.987050533E0,1.930950046E0,8.513594793E0
3.152927872E0,2.494950056E0,-7.642050266E0,2.353049994E0,8.376308992E0
3.154890695E0,2.457000017E0,-7.258050442E0,2.773950100E0,8.149291040E0
3.156853275E0,2.380050182E0,-6.874950409E0,2.965950251E0,7.856617776E0
3.158815926E0,2.304000139E0,-6.415050507E0,3.118950129E0,7.495941538E0
3.160778895E0,2.227050066E0,-5.917050362E0,3.273000240E0,7.119253300E0
3.162741770E0,2.149950027E0,-5.457000256E0,3.463950157E0,6.811760977E0
3.164704858E0,1.959000111E0,-4.882050037E0,3.579000235E0,6.362494533E0
3.166667900E0,1.920000076E0,-4.461000443E0,3.579000235E0,6.032923663E0
3.168630624E0,1.920000076E0,-4.039050102E0,3.694050074E0,5.800545834E0
3.170593441E0,1.959000111E0,-3.502050161E0,3.655950069E0,5.428444315E0
3.172556381E0,1.959000111E0,-3.004050255E0,3.502950191E0,5.013248389E0
3.174519285E0,1.920000076E0,-2.620950222E0,3.426000118E0,4.721573590E0
3.176481997E0,1.996950150E0,-2.238000154E0,3.196050167E0,4.383057296E0
3.178444790E0,2.111999989E0,-1.893000126E0,3.426000118E0,4.447636478E0
3.180407689E0,1.920000076E0,-1.548000097E0,3.426000118E0,4.221395670E0
3.182370557E0,1.804950118E0,-1.203000069E0,2.736000061E0,3.491525516E0
3.184333130E0,1.537050128E0,-8.580000401E-1,2.275950193E0,2.877261971E0
3.186295790E0,1.345050097E0,-3.589500189E-1,1.893000126E0,2.349777512E0
3.188258096E0,1.192050099E0,-9.105000645E-2,1.548000097E0,1.955908445E0
3.190220496E0,1.077000022E0,1.759500057E-1,1.432950020E0,1.801175508E0
3.192183688E0,8.850000501E-1,4.440000355E-1,1.165050030E0,1.528954771E0
3.194146648E0,7.320000529E-1,7.510500550E-1,8.959500194E-1,1.379357350E0
3.196109566E0,5.790000558E-1,9.430500269E-1,6.280500293E-1,1.272411591E0
3.198072497E0,3.870000243E-1,1.096050024E0,2.830500007E-1,1.196332720E0
3.200035415E0,1.960500032E-1,1.249050021E0,2.070000172E-1,1.281175463E0
3.201998339E0,2.340000123E-1,1.249050021E0,5.295000225E-2,1.271882724E0
3.203960856E0,1.960500032E-1,1.363950014E0,-6.105000153E-2,1.379319523E0
3.205923493E0,1.960500032E-1,1.441050053E0,-6.105000153E-2,1.455605702E0
3.207886104E0,1.570500135E-1,1.402950048E0,-1.759500057E-1,1.422635565E0
3.209848723E0,1.189500093E-1,1.518000126E0,-2.520000041E-1,1.543365637E0
3.211811547E0,4.200000316E-2,1.518000126E0,-3.289500177E-1,1.553800662E0
3.213774322E0,4.050000105E-3,1.633050084E0,-4.060500264E-1,1.682779131E0
3.215737270E0,4.200000316E-2,1.633050084E0,-3.670500219E-1,1.674318457E0
3.217700168E0,4.200000316E-2,1.708950043E0,-4.440000355E-1,1.766185234E0
3.219663411E0,8.100000024E-2,1.824000120E0,-5.209500194E-1,1.898664362E0
3.221626552E0,4.200000316E-2,1.939050078E0,-6.739500165E-1,2.053262728E0
3.223589619E0,4.200000316E-2,2.053950071E0,-9.420000315E-1,2.260052866E0
3.225552708E0,4.200000316E-2,2.208000183E0,-1.057050109E0,2.448343060E0
3.227515468E0,4.200000316E-2,2.284050226E0,-1.249050021E0,2.603608149E0
3.229478324E0,4.200000316E-2,2.398950100E0,-1.516950130E0,2.838637575E0
3.231441078E0,-7.200000435E-2,2.437050104E0,-1.747050047E0,2.999430125E0
3.233403862E0,-1.099500060E-1,2.514000177E0,-2.092050076E0,3.272454647E0
3.235366615E0,-2.250000089E-1,2.476050138E0,-2.322000027E0,3.401930836E0
3.237329387E0,-3.019500077E-1,2.514000177E0,-2.667000055E0,3.677534499E0
3.239292110E0,-4.930500090E-1,2.514000177E0,-3.012000084E0,3.954167385E0
3.241254848E0,-6.469500065E-1,2.514000177E0,-3.394950151E0,4.273690178E0
3.243217667E0,-7.230000496E-1,2.398950100E0,-3.778950214E0,4.534110208E0
3.245180462E0,-7.620000243E-1,2.361000061E0,-3.817050219E0,4.552454030E0
3.247143407E0,-8.770500422E-1,2.208000183E0,-3.970050097E0,4.626638018E0
3.249106308E0,-9.150000215E-1,2.169000149E0,-3.931950092E0,4.582795895E0
3.251069235E0,-9.919500351E-1,2.169000149E0,-3.778950214E0,4.468667725E0
3.253032154E0,-8.770500422E-1,2.131050110E0,-3.241950035E0,3.977540871E0
3.254995258E0,-7.999500632E-1,2.169000149E0,-2.359950066E0,3.303611064E0
3.256958308E0,-6.850500107E-1,2.208000183E0,-1.171950102E0,2.591915386E0
3.258920453E0,-6.079500318E-1,2.361000061E0,3.979500234E-1,2.470281108E0
3.260882857E0,-4.549500346E-1,2.629050016E0,2.467950106E0,3.634509767E0
3.262845913E0,-4.549500346E-1,3.012000084E0,4.996950150E0,5.852233320E0
3.264808778E0,-5.700000525E-1,3.549000263E0,8.140049934E0,8.898354672E0
3.266772027E0,-5.700000525E-1,4.162050247E0,1.151295090E1,1.225543148E1
3.268735163E0,-4.170000255E-1,4.736999989E0,1.492395115E1,1.566324921E1
3.270698236E0,-1.480500102E-1,5.350050449E0,1.760700035E1,1.840248407E1
3.272661324E0,4.260000288E-1,5.964000225E0,1.940895081E1,2.030906561E1
3.274624939E0,1.077000022E0,6.730050087E0,2.002200127E1,2.115027276E1
3.276588399E0,1.651950121E0,7.573050499E0,1.948500061E1,2.097010448E1
3.278551096E0,2.533950090E0,8.685000420E0,1.818195152E1,2.030845874E1
3.280514016E0,3.529950142E0,9.796050072E0,1.626600075E1,1.931336132E1
3.282477060E0,4.488000393E0,1.106100082E1,1.388895035E1,1.831367873E1
3.284440077E0,5.293050289E0,1.278600025E1,1.090005016E1,1.761559756E1
3.286403570E0,5.560950279E0,1.535400105E1,7.411950588E0,1.793339141E1
3.288366923E0,5.370000362E0,1.819005013E1,2.928000212E0,1.919083147E1
3.290330629E0,5.293050289E0,2.068095016E1,-2.284050226E0,2.146939604E1
3.292294231E0,5.140050411E0,2.290395164E1,-7.075050354E0,2.451667711E1
3.294257079E0,4.527000427E0,2.551095200E1,-1.098405075E1,2.814163775E1
3.296220151E0,3.760050297E0,2.869200134E1,-1.316895103E1,3.179292674E1
3.298182869E0,2.917050123E0,3.214095306E1,-1.374405098E1,3.507775624E1
