"Time (s)","Acceleration x (m/s^2)","Acceleration y (m/s^2)","Acceleration z (m/s^2)","Absolute acceleration (m/s^2)"
3.982566600E-2,2.878050089E0,-2.381595039E1,3.426000118E0,2.423262558E1
4.178797500E-2,1.690050125E0,-2.308800125E1,7.810500264E-1,2.316294693E1
4.375271900E-2,6.550500393E-1,-2.224500084E1,-1.900950074E0,2.233568365E1
4.571492400E-2,-3.019500077E-1,-2.136300087E1,-4.582950115E0,2.185114211E1
4.767787300E-2,-1.567050099E0,-2.074995041E1,-7.113000393E0,2.199115419E1
4.964083600E-2,-3.100050211E0,-2.025105095E1,-9.183000565E0,2.245089921E1
5.160379400E-2,-4.288050175E0,-2.005995178E1,-1.071600056E1,2.314350250E1
5.356688600E-2,-5.590950489E0,-1.960005188E1,-1.205700016E1,2.368104757E1
5.552994200E-2,-6.357000351E0,-1.948500061E1,-1.389705086E1,2.476297084E1
5.749302300E-2,-6.970950127E0,-1.921695137E1,-1.516200066E1,2.545135811E1
5.945609600E-2,-7.162050247E0,-1.936995125E1,-1.615800095E1,2.622157451E1
6.141899500E-2,-7.239000320E0,-1.948500061E1,-1.612005043E1,2.630445590E1
6.338194500E-2,-7.584000587E0,-1.948500061E1,-1.615800095E1,2.642467234E1
6.534501900E-2,-7.660950184E0,-1.952295113E1,-1.562205029E1,2.615118035E1
6.730807300E-2,-7.813950539E0,-1.952295113E1,-1.466400051E1,2.563662136E1
6.927097500E-2,-7.852050304E0,-1.936995125E1,-1.405005074E1,2.518439261E1
7.123392200E-2,-7.431000233E0,-1.967700005E1,-1.290105057E1,2.467470772E1
7.319702000E-2,-7.047000408E0,-1.983000183E1,-1.201905060E1,2.423523808E1
7.516007300E-2,-6.625950336E0,-1.983000183E1,-1.140600014E1,2.381657048E1
7.712313900E-2,-5.935950279E0,-1.994505119E1,-1.102200031E1,2.354835586E1
7.908621200E-2,-5.245950222E0,-2.002200127E1,-1.113705063E1,2.350392361E1
8.104942500E-2,-4.288050175E0,-2.005995178E1,-1.155900097E1,2.354569054E1
8.301259700E-2,-3.061050177E0,-2.021295166E1,-1.221105099E1,2.381266909E1
8.497606300E-2,-1.605000019E0,-2.036595154E1,-1.312995052E1,2.428463728E1
8.693944300E-2,4.200000316E-2,-2.074995041E1,-1.416495037E1,2.512385370E1
8.890312900E-2,1.651950121E0,-2.109495163E1,-1.508505058E1,2.598624010E1
9.086673600E-2,3.223050117E0,-2.140095139E1,-1.604295158E1,2.694002724E1
9.282936200E-2,4.833000183E0,-2.155500031E1,-1.646505165E1,2.755129497E1
9.479227600E-2,6.328050137E0,-2.155500031E1,-1.677195168E1,2.803498920E1
9.675556000E-2,7.746000290E0,-2.147805023E1,-1.696305084E1,2.844384391E1
9.871873600E-2,8.665950775E0,-2.182305145E1,-1.692495155E1,2.894474499E1
1.006819920E-1,9.279000282E0,-2.140095139E1,-1.657995033E1,2.861809427E1
1.026452450E-1,9.969000816E0,-2.036595154E1,-1.654200172E1,2.806761088E1
1.046079330E-1,1.065900040E1,-1.940805054E1,-1.646505165E1,2.759319918E1
1.065707860E-1,1.127205086E1,-1.825800133E1,-1.638795090E1,2.699960514E1
1.085340350E-1,1.200000095E1,-1.741500092E1,-1.604295158E1,2.654540592E1
1.104971680E-1,1.272900105E1,-1.653404999E1,-1.562205029E1,2.606627575E1
1.124600420E-1,1.357200050E1,-1.572900105E1,-1.497000027E1,2.560667061E1
1.144230020E-1,1.437705040E1,-1.519200039E1,-1.408905029E1,2.521899665E1
1.163862780E-1,1.506705093E1,-1.484700108E1,-1.316895103E1,2.491727786E1
1.183494620E-1,1.591005039E1,-1.419600105E1,-1.217205048E1,2.455229036E1
1.203127010E-1,1.656105042E1,-1.369695091E1,-1.098405075E1,2.413553865E1
1.222759240E-1,1.740495110E1,-1.327605057E1,-9.910950661E0,2.402941498E1
1.242393260E-1,1.790295029E1,-1.289295101E1,-8.455050468E0,2.362692729E1
1.262026830E-1,1.836300087E1,-1.243305016E1,-7.266000271E0,2.333613715E1
1.281661170E-1,1.870800018E1,-1.208805084E1,-5.733000278E0,2.299951165E1
1.301295290E-1,1.897605133E1,-1.162800026E1,-4.392000198E0,2.268458904E1
1.320928650E-1,1.909095001E1,-1.128300095E1,-3.012000084E0,2.237951356E1
1.340562230E-1,1.920600128E1,-1.090005016E1,-1.326000094E0,2.212328762E1
1.360181800E-1,1.935900116E1,-1.047795010E1,2.070000172E-1,2.201365969E1
1.379805410E-1,1.939800072E1,-1.013295078E1,1.318050027E0,2.192478915E1
1.399437400E-1,1.939800072E1,-9.750000000E0,2.391000032E0,2.184174473E1
1.419066930E-1,1.932105064E1,-9.481050491E0,3.694050074E0,2.183665090E1
1.438700160E-1,1.924395180E1,-9.097949982E0,4.653000355E0,2.178882252E1
1.458332310E-1,1.916805077E1,-8.677050591E0,5.419050217E0,2.172720604E1
1.477963920E-1,1.893795013E1,-8.254950523E0,6.339000225E0,2.160956009E1
1.497595890E-1,1.870800018E1,-7.680000305E0,6.991050243E0,2.139734701E1
1.517226900E-1,1.843905067E1,-7.143000126E0,7.335000515E0,2.109083387E1
1.536858200E-1,1.817100143E1,-6.415050507E0,8.064000130E0,2.088938161E1
1.556490220E-1,1.794105148E1,-5.878950119E0,8.140049934E0,2.055976157E1
1.576122020E-1,1.752000046E1,-5.265000343E0,7.795050144E0,1.988550858E1
1.595752690E-1,1.736595154E1,-4.690050125E0,7.105050564E0,1.934049086E1
1.615383960E-1,1.705994987E1,-4.269000053E0,6.070950508E0,1.860437291E1
1.635015990E-1,1.682999992E1,-3.886050224E0,4.729050159E0,1.790849517E1
1.654647790E-1,1.663800049E1,-3.502050161E0,3.388050079E0,1.733684801E1
1.674287390E-1,1.644600105E1,-3.118950129E0,1.701000094E0,1.682534403E1
1.693924710E-1,1.610205078E1,-2.659050226E0,2.070000172E-1,1.632144100E1
1.713554570E-1,1.564200115E1,-2.238000154E0,-1.632000089E0,1.588534762E1
1.733186790E-1,1.514295101E1,-1.816050053E0,-3.357000113E0,1.561654420E1
1.752813700E-1,1.453005028E1,-1.393950105E0,-4.813050270E0,1.536980517E1
1.772442170E-1,1.410795021E1,-1.011000037E0,-6.768000126E0,1.567999381E1
1.792067930E-1,1.372500038E1,-5.130000114E-1,-8.991000175E0,1.641575124E1
1.811694480E-1,1.334205055E1,-2.059500068E-1,-1.090695095E1,1.723410303E1
1.831312800E-1,1.280505085E1,-9.105000645E-2,-1.232595062E1,1.777376370E1
1.850933610E-1,1.230705070E1,6.105000153E-2,-1.332195091E1,1.813674724E1
1.870562480E-1,1.180905056E1,1.380000114E-1,-1.366695023E1,1.806262018E1
1.890188980E-1,1.108095074E1,1.759500057E-1,-1.309200096E1,1.715281076E1
1.909817330E-1,1.050600052E1,6.105000153E-2,-1.190400028E1,1.587718479E1
1.929445130E-1,9.853950500E0,-1.500000060E-2,-1.060095024E1,1.447344850E1
1.949083030E-1,8.973000526E0,-9.105000645E-2,-9.183000565E0,1.283941307E1
1.968718070E-1,7.669050217E0,-1.680000126E-1,-7.458000183E0,1.069880002E1
1.988343160E-1,6.442950249E0,-3.589500189E-1,-5.848050117E0,8.708624645E0
2.007971160E-1,5.140050411E0,-5.509500504E-1,-3.970050097E0,6.518048938E0
2.027600140E-1,3.990000248E0,-7.039500475E-1,-2.284050226E0,4.651078701E0
2.047228840E-1,2.955000162E0,-7.810500264E-1,-4.060500264E-1,3.083332892E0
2.066847660E-1,2.074050188E0,-8.580000401E-1,1.279950023E0,2.583818939E0
2.086469480E-1,1.384050012E0,-7.810500264E-1,2.391000032E0,2.870978010E0
2.106092310E-1,1.114950061E0,-1.087950110E0,3.426000118E0,3.763539012E0
2.125714840E-1,8.100000024E-2,-1.471050024E0,4.078050137E0,4.336016846E0
2.145345220E-1,-7.230000496E-1,-1.240950108E0,4.269000053E0,4.504114530E0
2.164973300E-1,-8.770500422E-1,-8.190000653E-1,4.116000175E0,4.287357616E0
2.184602940E-1,-1.336950064E0,-8.190000653E-1,3.924000263E0,4.225633047E0
2.204232290E-1,-1.681950092E0,-1.240950108E0,3.694050074E0,4.244398571E0
2.223865110E-1,-1.873050094E0,-1.624050021E0,3.310950041E0,4.136211467E0
2.243496910E-1,-2.140950203E0,-1.663050056E0,2.851050138E0,3.934194981E0
2.263123910E-1,-2.563050032E0,-1.701000094E0,2.353049994E0,3.872915059E0
2.282752310E-1,-2.830950022E0,-1.930950046E0,1.777950048E0,3.860563751E0
2.302385030E-1,-3.138000250E0,-2.238000154E0,1.395000100E0,4.098989575E0
2.322016340E-1,-3.214950085E0,-2.620950222E0,5.509500504E-1,4.184355395E0
2.341652430E-1,-3.291000128E0,-3.042000055E0,-1.759500057E-1,4.485020020E0
2.361287110E-1,-3.175950050E0,-3.426000118E0,-7.510500550E-1,4.731618298E0
2.380914060E-1,-3.175950050E0,-3.847050190E0,-1.210950017E0,5.133503076E0
2.400543280E-1,-3.061050177E0,-4.498950005E0,-1.363950014E0,5.609896520E0
2.420171870E-1,-2.908050060E0,-5.112000465E0,-1.326000094E0,6.028895435E0
2.439800780E-1,-2.640000105E0,-5.839950085E0,-9.420000315E-1,6.477806851E0
2.459423300E-1,-2.485950232E0,-6.568950176E0,-1.759500057E-1,7.025810514E0
2.479047700E-1,-2.140950203E0,-7.372950554E0,7.050000429E-1,7.709804972E0
2.498681350E-1,-1.873050094E0,-8.101950645E0,1.585950017E0,8.465527649E0
2.518312290E-1,-1.452000022E0,-8.752950668E0,2.620950222E0,9.251585244E0
2.537942740E-1,-1.144950032E0,-9.481050491E0,3.388050079E0,1.013311958E1
2.557573230E-1,-5.320500135E-1,-1.051605034E1,3.694050074E0,1.115869159E1
2.577213050E-1,8.089500666E-1,-1.135905075E1,3.771000147E0,1.199595250E1
2.596850140E-1,1.498950124E0,-1.254795074E1,4.345950127E0,1.336357744E1
2.616482090E-1,2.265000105E0,-1.388895035E1,5.380950451E0,1.506611413E1
2.636115540E-1,3.262050152E0,-1.534605026E1,6.415950298E0,1.695012236E1
2.655747340E-1,4.105050087E0,-1.664895058E1,7.411950588E0,1.868089942E1
2.675379530E-1,4.795050144E0,-1.810500145E1,8.179050446E0,2.043723194E1
2.695010510E-1,5.676000118E0,-1.975305176E1,7.987050533E0,2.204978475E1
2.714641840E-1,6.520050526E0,-2.155500031E1,6.607050419E0,2.346874970E1
2.734270710E-1,6.940950394E0,-2.350905037E1,4.806000233E0,2.497898877E1
2.753900300E-1,7.822950363E0,-2.580900192E1,2.391000032E0,2.707434235E1
2.773542220E-1,8.206049919E0,-2.841495132E1,-1.479000092E0,2.961310783E1
2.793180420E-1,7.438950539E0,-3.094500160E1,-4.123950005E0,3.209264827E1
2.812811720E-1,7.438950539E0,-3.339795303E1,-7.305000305E0,3.498748750E1
2.832445050E-1,8.053050041E0,-3.654104996E1,-1.171200085E1,3.920804651E1
2.852074930E-1,8.551050186E0,-3.979905319E1,-1.378200054E1,4.297707102E1
2.871705820E-1,9.126000404E0,-4.363095093E1,-1.485495090E1,4.698524586E1
2.891336680E-1,9.508950233E0,-4.719600296E1,-1.650300026E1,5.089432039E1
2.910967780E-1,9.163949966E0,-4.922700119E1,-1.849605179E1,5.337957996E1
2.930598050E-1,7.899000168E0,-5.056905365E1,-2.010600090E1,5.498976871E1
2.950228570E-1,6.673050404E0,-5.260005188E1,-2.098800087E1,5.702447930E1
2.969858030E-1,4.717950344E0,-5.390295410E1,-2.221395111E1,5.849142792E1
2.989487800E-1,2.111999989E0,-5.520600128E1,-2.221395111E1,5.954513200E1
3.009118420E-1,1.498950124E0,-5.670105362E1,-2.202195168E1,6.084589295E1
3.028748690E-1,1.114950061E0,-5.792805099E1,-2.137095070E1,6.175451190E1
3.048376400E-1,1.306950092E0,-5.942205429E1,-2.079600143E1,6.296953494E1
3.068004860E-1,1.729050040E0,-6.068700409E1,-2.083395004E1,6.418687992E1
3.087636020E-1,3.262050152E0,-6.252705383E1,-1.903305054E1,6.544104557E1
3.107266380E-1,4.372950077E0,-6.386805344E1,-1.657995033E1,6.612976406E1
3.126897120E-1,5.407950401E0,-6.501795197E1,-1.332195091E1,6.658869560E1
3.146527820E-1,6.405000210E0,-6.547800446E1,-8.991000175E0,6.640204198E1
3.166156810E-1,7.324050426E0,-6.547800446E1,-5.272950172E0,6.609701041E1
3.185786300E-1,6.865050316E0,-6.501795197E1,-1.018950105E0,6.538731722E1
3.205410080E-1,6.060000420E0,-6.406005096E1,1.548000097E0,6.436466452E1
3.225035530E-1,4.642050266E0,-6.206700134E1,3.579000235E0,6.234316746E1
3.244656400E-1,2.457000017E0,-6.011205292E1,4.423050404E0,6.032461463E1
3.264278610E-1,-3.400500119E-1,-5.811900330E1,4.653000355E0,5.830595673E1
3.283908580E-1,-2.677950144E0,-5.455500412E1,3.502950191E0,5.473290191E1
3.303536280E-1,-3.367950201E0,-5.171805191E1,3.273000240E0,5.193084356E1
3.323162630E-1,-4.633050442E0,-4.803900146E1,1.893000126E0,4.829900897E1
3.342789380E-1,-4.249050140E0,-4.416795349E1,1.203000069E0,4.438817131E1
3.362418330E-1,-5.476050377E0,-4.025805283E1,8.580000401E-1,4.063784085E1
3.382046810E-1,-6.166050434E0,-3.661695099E1,9.349500537E-1,3.714425136E1
3.401677970E-1,-6.396000385E0,-3.305295181E1,1.165050030E0,3.368625515E1
3.421308350E-1,-6.433950424E0,-3.006300163E1,1.432950020E0,3.077715274E1
3.440939190E-1,-6.013050079E0,-2.749500084E1,1.777950048E0,2.820093879E1
3.460569890E-1,-6.280950069E0,-2.511900139E1,2.698050022E0,2.603255728E1
3.480199480E-1,-6.433950424E0,-2.312595177E1,3.924000263E0,2.432289336E1
3.499829290E-1,-5.706000328E0,-2.197605133E1,5.457000256E0,2.335131953E1
3.519459760E-1,-4.210950375E0,-2.147805023E1,7.219950199E0,2.304704809E1
3.539090040E-1,-3.138000250E0,-2.098005104E1,8.599950790E0,2.289036349E1
3.558720890E-1,-2.946000099E0,-2.048100090E1,9.405000687E0,2.272893206E1
3.578351580E-1,-3.367950201E0,-1.986795044E1,1.001805019E1,2.250421900E1
3.597981170E-1,-3.636000156E0,-1.933200073E1,1.040205002E1,2.225195259E1
3.617610980E-1,-4.096050262E0,-1.875705147E1,1.063200092E1,2.194639039E1
3.637240110E-1,-4.555950165E0,-1.814295006E1,1.093800068E1,2.166940649E1
3.656869440E-1,-4.708950043E0,-1.741500092E1,1.093800068E1,2.109730614E1
3.676498650E-1,-4.671000004E0,-1.680195045E1,1.109205055E1,2.066778570E1
3.696127900E-1,-4.479000092E0,-1.615005112E1,1.139805031E1,2.026822991E1
3.715758470E-1,-4.326000214E0,-1.572900105E1,1.143705082E1,1.992289846E1
3.735388650E-1,-4.173000336E0,-1.526895046E1,1.143705082E1,1.952846413E1
3.755016370E-1,-3.790050268E0,-1.484700108E1,1.170495033E1,1.928221420E1
3.774644820E-1,-3.636000156E0,-1.431105042E1,1.162800026E1,1.879460165E1
3.794268330E-1,-3.559950113E0,-1.354395103E1,1.159005070E1,1.817803976E1
3.813893290E-1,-3.520950079E0,-1.266300106E1,1.170495033E1,1.759984510E1
3.833519580E-1,-3.636000156E0,-1.139805031E1,1.182000065E1,1.681809928E1
3.853145520E-1,-3.520950079E0,-1.013295078E1,1.197300053E1,1.607564999E1
3.872772160E-1,-3.406050205E0,-8.178000450E0,1.204995060E1,1.495600812E1
3.892398600E-1,-3.445050240E0,-5.839950085E0,1.189605045E1,1.369267704E1
3.912024270E-1,-3.406050205E0,-3.655950069E0,1.139805031E1,1.244518781E1
3.931650160E-1,-3.214950085E0,-1.164000034E0,1.078500080E1,1.131401973E1
3.951267610E-1,-3.100050211E0,1.249050021E0,1.047795010E1,1.099808508E1
3.970887660E-1,-2.908050060E0,3.856050253E0,9.750000000E0,1.088064238E1
3.990514850E-1,-2.869950056E0,6.499950409E0,9.712050438E0,1.203369820E1
4.010139950E-1,-3.175950050E0,9.490050316E0,9.634950638E0,1.389172371E1
4.029769440E-1,-3.981000185E0,1.251795101E1,9.367050171E0,1.613347727E1
4.049397640E-1,-4.708950043E0,1.516200066E1,9.520050049E0,1.851193743E1
4.069027350E-1,-5.245950222E0,1.769205093E1,9.787950516E0,2.088857667E1
4.088656720E-1,-4.978050232E0,1.838205147E1,1.021005058E1,2.160846902E1
4.108289080E-1,-3.175950050E0,1.600500107E1,1.051695061E1,1.941270120E1
4.127920570E-1,-4.249050140E0,1.788300133E1,1.086195087E1,2.135036628E1
4.147546270E-1,-5.284050465E0,1.891800117E1,1.113000011E1,2.257628978E1
4.167173670E-1,-6.511050224E0,1.949295044E1,1.109205055E1,2.335385359E1
4.186800770E-1,-7.852050304E0,1.968495178E1,1.109205055E1,2.392040146E1
4.206428090E-1,-9.001950264E0,1.941705132E1,1.124505043E1,2.417660335E1
4.226057640E-1,-1.076505089E1,1.945500183E1,1.116795063E1,2.488185158E1
4.245686530E-1,-1.237500095E1,1.895700073E1,1.113000011E1,2.522668087E1
4.265315830E-1,-1.363995075E1,1.842000008E1,1.135995007E1,2.558110875E1
4.284945000E-1,-1.459800053E1,1.765395164E1,1.162800026E1,2.568995948E1
4.304576280E-1,-1.547895050E1,1.665705109E1,1.182000065E1,2.562747890E1
4.324206770E-1,-1.597800064E1,1.543095112E1,1.212600040E1,2.530712632E1
4.343835800E-1,-1.636095047E1,1.420395088E1,1.251000023E1,2.501865357E1
4.363465260E-1,-1.651395035E1,1.301595020E1,1.258605099E1,2.450579922E1
4.383093100E-1,-1.655294991E1,1.182795048E1,1.266300106E1,2.396355898E1
4.402721410E-1,-1.670595169E1,1.090800095E1,1.281600094E1,2.371335460E1
4.422351850E-1,-1.693605042E1,9.988050461E0,1.285500050E1,2.349131740E1
4.441981870E-1,-1.712805176E1,9.145050049E0,1.270095062E1,2.320164313E1
4.461611430E-1,-1.712805176E1,8.302050591E0,1.254795074E1,2.279792247E1
4.481241120E-1,-1.693605042E1,7.612050533E0,1.247100067E1,2.236736405E1
4.500869820E-1,-1.659105110E1,6.883050442E0,1.247100067E1,2.186698923E1
4.520498810E-1,-1.601595116E1,6.270000458E0,1.231800079E1,2.115553688E1
4.540129820E-1,-1.524900055E1,5.734050274E0,1.185795021E1,2.014999587E1
4.559760280E-1,-1.440600109E1,5.427000046E0,1.170495033E1,1.933884845E1
4.579391100E-1,-1.356300068E1,4.929000378E0,1.178100014E1,1.862906322E1
4.599021820E-1,-1.283505058E1,4.354050159E0,1.201095104E1,1.810964442E1
4.618651260E-1,-1.222200012E1,3.970950127E0,1.247100067E1,1.790730548E1
4.638281070E-1,-1.160805035E1,3.586950064E0,1.273995018E1,1.760452709E1
4.657907950E-1,-1.118700027E1,3.127050161E0,1.312305069E1,1.752546368E1
4.677535690E-1,-1.103295040E1,2.859000206E0,1.392795086E1,1.799688006E1
4.697163370E-1,-1.091805077E1,2.706000090E0,1.477095032E1,1.856629318E1
4.716791070E-1,-1.084200096E1,2.361000061E0,1.607400131E1,1.953194369E1
4.736417410E-1,-1.080300045E1,2.169000149E0,1.691700172E1,2.018896549E1
4.756044150E-1,-1.087995052E1,2.245950222E0,1.745400047E1,2.068960484E1
4.775673600E-1,-1.091805077E1,2.131050110E0,1.779900169E1,2.098927508E1
4.795302070E-1,-1.068795013E1,2.245950222E0,1.776105118E1,2.085021605E1
4.814930090E-1,-1.084200096E1,2.361000061E0,1.699394989E1,2.029575421E1
4.834558240E-1,-1.076505089E1,2.322000027E0,1.618905067E1,1.957966717E1
4.854190800E-1,-1.065000057E1,2.361000061E0,1.523100090E1,1.873446615E1
4.873822070E-1,-1.065000057E1,2.629050016E0,1.362105083E1,1.748906636E1
4.893456210E-1,-1.076505089E1,2.743950129E0,1.224105072E1,1.653054463E1
4.913089610E-1,-1.084200096E1,2.821050167E0,1.028700066E1,1.520952634E1
4.932723980E-1,-1.080300045E1,2.974050045E0,8.293950081E0,1.394056672E1
4.952358070E-1,-1.091805077E1,3.166050196E0,6.415950298E0,1.305343344E1
4.971993230E-1,-1.118700027E1,3.549000263E0,4.078050137E0,1.242476845E1
4.991628070E-1,-1.084200096E1,3.204000235E0,2.353049994E0,1.154778969E1
5.011267850E-1,-1.053495026E1,3.051000118E0,1.279950023E0,1.104228467E1
5.030906010E-1,-1.068795013E1,3.702000141E0,-5.970000029E-1,1.132667171E1
5.050535070E-1,-1.022895050E1,2.896950245E0,-2.322000027E0,1.088188555E1
5.070166800E-1,-9.691950798E0,2.053950071E0,-3.549000263E0,1.052368871E1
5.089795600E-1,-9.232050896E0,1.671000123E0,-4.852050304E0,1.056245224E1
5.109425260E-1,-8.887050629E0,1.824000120E0,-5.809950352E0,1.077321532E1
5.129054630E-1,-8.695050240E0,2.208000183E0,-6.844950199E0,1.128417063E1
5.148684250E-1,-8.311950684E0,1.900950074E0,-7.495950222E0,1.135303506E1
5.168317000E-1,-7.737000465E0,1.671000123E0,-8.416049957E0,1.155349793E1
5.187948840E-1,-7.239000320E0,1.633050084E0,-8.799000740E0,1.151053397E1
5.207581230E-1,-6.664050102E0,1.326000094E0,-9.106050491E0,1.136168982E1
5.227213460E-1,-6.357000351E0,1.134000063E0,-9.451050758E0,1.144638677E1
5.246846020E-1,-6.127950191E0,8.280000687E-1,-9.681000710E0,1.148734662E1
5.266478310E-1,-5.974050522E0,4.440000355E-1,-9.796050072E0,1.148255253E1
5.286117380E-1,-5.668050289E0,9.900000691E-2,-9.604050636E0,1.115232638E1
5.305754470E-1,-5.398950100E0,-2.440500110E-1,-9.259050369E0,1.072092516E1
5.325384170E-1,-5.208000183E0,-6.280500293E-1,-9.144000053E0,1.054184280E1
5.345016030E-1,-5.092950344E0,-1.087950110E0,-9.298050880E0,1.065718203E1
5.364646420E-1,-5.053950310E0,-1.471050024E0,-9.489000320E0,1.085115335E1
5.384277380E-1,-4.978050232E0,-1.854000092E0,-9.718950272E0,1.107593314E1
5.403909900E-1,-4.900950432E0,-2.238000154E0,-1.060095024E1,1.189151403E1
5.423541970E-1,-5.053950310E0,-2.659050226E0,-1.178895092E1,1.309932539E1
5.443176120E-1,-5.476050377E0,-3.349050045E0,-1.332195091E1,1.478775304E1
5.462809660E-1,-5.437950134E0,-4.384050369E0,-1.466400051E1,1.624266328E1
5.482440260E-1,-4.594050407E0,-5.649000168E0,-1.543005085E1,1.706173998E1
5.502071830E-1,-3.445050240E0,-7.219950199E0,-1.569795036E1,1.761878820E1
5.521703810E-1,-2.103000164E0,-8.830050468E0,-1.543005085E1,1.790192365E1
5.541335660E-1,-6.469500065E-1,-1.032495022E1,-1.443405056E1,1.775851787E1
5.560975710E-1,6.940500140E-1,-1.174305058E1,-1.259400082E1,1.723339197E1
5.580613350E-1,1.767000079E0,-1.293105030E1,-9.949050903E0,1.641090994E1
5.600244120E-1,2.839950085E0,-1.392705059E1,-6.691050529E0,1.570981260E1
5.619877030E-1,3.415050268E0,-1.450200081E1,-2.896950245E0,1.517771117E1
5.639498870E-1,3.682950258E0,-1.484700108E1,1.471050024E0,1.536754866E1
5.659123950E-1,3.913050175E0,-1.519200039E1,5.802000046E0,1.672638760E1
5.678757040E-1,3.798000097E0,-1.523100090E1,1.044000053E1,1.885210345E1
5.698387780E-1,3.568050146E0,-1.496205044E1,1.500105095E1,2.148547101E1
5.718018600E-1,2.878050089E0,-1.457895088E1,1.864200020E1,2.384015840E1
5.737649360E-1,2.265000105E0,-1.415700054E1,2.170800018E1,2.601515254E1
5.757278340E-1,3.108000040E0,-1.227900028E1,2.305005074E1,2.630091921E1
5.776907850E-1,2.304000139E0,-1.155105019E1,2.350995064E1,2.629549307E1
5.796533870E-1,1.345050097E0,-1.101495075E1,2.297295189E1,2.551264036E1
5.816160920E-1,2.719500065E-1,-1.055505085E1,2.159295082E1,2.403619313E1
5.835792110E-1,-9.919500351E-1,-1.005600071E1,1.914000130E1,2.164363104E1
5.855421910E-1,-1.873050094E0,-9.979950905E0,1.657200050E1,1.943550713E1
5.875051050E-1,-2.755050182E0,-1.017105007E1,1.404300022E1,1.755694781E1
5.894680390E-1,-3.751050234E0,-9.826050758E0,1.189605045E1,1.587884340E1
5.914310040E-1,-4.555950165E0,-9.595950127E0,1.005705070E1,1.462816494E1
5.933939600E-1,-5.245950222E0,-1.013295078E1,8.370000839E0,1.415109887E1
5.953570580E-1,-5.898000240E0,-1.109100056E1,7.642050266E0,1.470366051E1
5.973201140E-1,-6.127950191E0,-1.262400055E1,8.140049934E0,1.622274873E1
5.992831950E-1,-6.051000118E0,-1.469400024E1,8.677050591E0,1.810578506E1
6.012462680E-1,-6.013050079E0,-1.779900169E1,9.098999977E0,2.087469840E1
6.032093460E-1,-4.786050320E0,-2.201505089E1,2.659050226E0,2.268566268E1
6.051724220E-1,-4.900950432E0,-2.488905144E1,4.384050369E0,2.574303972E1
6.071353200E-1,-4.708950043E0,-2.772495079E1,6.262050152E0,2.881076845E1
6.090982700E-1,-5.131050110E0,-3.044700050E1,7.719000340E0,3.182656879E1
6.110609630E-1,-6.051000118E0,-3.297600174E1,9.136950493E0,3.474931881E1
6.130237320E-1,-7.239000320E0,-3.504600143E1,8.446949959E0,3.676923042E1
6.149863660E-1,-8.964000702E0,-3.619605255E1,7.219950199E0,3.798203799E1
6.169490390E-1,-1.134000015E1,-3.588899994E1,5.878950119E0,3.809432995E1
6.189118240E-1,-1.298805046E1,-3.477795029E1,5.151000023E0,3.747970227E1
6.208745760E-1,-1.390800095E1,-3.343605042E1,3.234000206E0,3.635740248E1
6.228375280E-1,-1.352505112E1,-3.240105057E1,1.893000126E0,3.516160598E1
6.248004220E-1,-1.195305061E1,-3.171105194E1,3.541050196E0,3.407352742E1
6.267636660E-1,-9.769050598E0,-3.086805153E1,6.760950089E0,3.307538966E1
6.287268070E-1,-7.468950272E0,-2.964195061E1,6.454050541E0,3.124236262E1
6.306897530E-1,-6.166050434E0,-2.695905113E1,4.308000088E0,2.798873846E1
6.326527460E-1,-5.859000206E0,-2.385405159E1,1.930950046E0,2.463883578E1
6.346163320E-1,-5.629050255E0,-2.167005157E1,-1.708950043E0,2.245435041E1
6.365797440E-1,-4.978050232E0,-2.067300034E1,-5.311950207E0,2.191736166E1
6.385426290E-1,-3.828000069E0,-1.983000183E1,-8.032950401E0,2.173501436E1
6.405056690E-1,-2.755050182E0,-1.879500008E1,-9.336000443E0,2.116608688E1
6.424685320E-1,-1.720050097E0,-1.787505150E1,-8.838000298E0,2.001465182E1
6.444314430E-1,-5.320500135E-1,-1.691700172E1,-6.652950287E0,1.818597735E1
6.463954930E-1,3.870000243E-1,-1.584405041E1,-3.970050097E0,1.633845158E1
6.483592100E-1,9.619500637E-1,-1.480905056E1,-1.594050050E0,1.492562635E1
6.503214130E-1,1.306950092E0,-1.392705059E1,1.500000060E-2,1.398824799E1
6.522840590E-1,1.459950089E0,-1.346700096E1,1.126049995E0,1.359262880E1
6.542470230E-1,1.767000079E0,-1.289295101E1,1.585950017E0,1.310975639E1
6.562098980E-1,1.690050125E0,-1.235595036E1,1.969950080E0,1.262562798E1
6.581731900E-1,2.035050154E0,-1.193400097E1,3.081000090E0,1.249217234E1
6.601363590E-1,2.572050095E0,-1.170405102E1,4.116000175E0,1.267050549E1
6.620994660E-1,3.184950113E0,-1.162800026E1,5.341950417E0,1.318676350E1
6.640625920E-1,3.682950258E0,-1.178100014E1,6.492000103E0,1.394640284E1
6.660254710E-1,4.105050087E0,-1.189605045E1,7.489050388E0,1.464422508E1
6.679884290E-1,4.372950077E0,-1.204905033E1,8.332050323E0,1.528807931E1
6.699516610E-1,4.756950378E0,-1.212600040E1,9.597000122E0,1.617933478E1
6.719148120E-1,4.833000183E0,-1.204905033E1,1.028700066E1,1.656381258E1
6.738775620E-1,4.872000217E0,-1.216395092E1,1.093800068E1,1.706862464E1
6.758404290E-1,5.178000450E0,-1.262400055E1,1.147500038E1,1.782842428E1
6.778034960E-1,5.560950279E0,-1.331400108E1,1.162800026E1,1.853097901E1
6.797665040E-1,6.060000420E0,-1.396605110E1,1.155105019E1,1.911023152E1
6.817294590E-1,6.711000443E0,-1.484700108E1,1.113000011E1,1.973189982E1
6.836924290E-1,7.018050194E0,-1.565205097E1,1.032495022E1,2.002109700E1
6.856553440E-1,6.940950394E0,-1.641900063E1,9.942000389E0,2.041087322E1
6.876182750E-1,6.711000443E0,-1.733895111E1,9.405000687E0,2.083580549E1
6.895811730E-1,6.826050282E0,-1.822005081E1,9.481950760E0,2.164422797E1
6.915440980E-1,7.132950306E0,-1.887195015E1,9.634950638E0,2.235758834E1
6.935073350E-1,7.554000378E0,-1.948500061E1,9.328050613E0,2.288538177E1
6.954704800E-1,8.320950508E0,-1.990695000E1,8.485050201E0,2.318449811E1
6.974333660E-1,8.973000526E0,-2.055795097E1,7.489050388E0,2.364804352E1
6.993963280E-1,9.355950356E0,-2.128605080E1,5.725950241E0,2.394611183E1
7.013592890E-1,9.241050720E0,-2.224500084E1,4.384050369E0,2.448381054E1
7.033222510E-1,9.010950089E0,-2.381595039E1,3.502950191E0,2.570345064E1
7.052855270E-1,8.551050186E0,-2.603895187E1,3.004050255E0,2.757121310E1
7.072487110E-1,7.746000290E0,-2.791695213E1,3.273000240E0,2.915594738E1
7.092117710E-1,6.750000477E0,-2.933505058E1,3.043050051E0,3.025504673E1
7.111748670E-1,6.175050259E0,-3.060000229E1,2.698050022E0,3.133322294E1
7.131377740E-1,6.060000420E0,-3.167295074E1,2.430000067E0,3.233889785E1
7.151007270E-1,5.752950191E0,-3.236295319E1,2.046000004E0,3.293392310E1
7.170636450E-1,5.407950401E0,-3.270795059E1,2.046000004E0,3.321508807E1
7.190265730E-1,5.791050434E0,-3.259305191E1,1.777950048E0,3.315123534E1
7.209902150E-1,5.983050346E0,-3.201795197E1,1.279950023E0,3.259730681E1
7.229536480E-1,5.791050434E0,-3.136605072E1,-2.205000073E-2,3.189617358E1
7.249166600E-1,5.523000240E0,-3.044700050E1,-1.326000094E0,3.097227224E1
7.268797990E-1,5.331000328E0,-2.948805046E1,-2.743950129E0,3.009142647E1
7.288428200E-1,5.293050289E0,-2.864505196E1,-3.894000292E0,2.938909017E1
7.308058760E-1,5.101050377E0,-2.780205154E1,-5.005050182E0,2.870584108E1
7.327691350E-1,4.258049965E0,-2.711205101E1,-6.538050175E0,2.821241570E1
7.347323350E-1,3.108000040E0,-2.649900055E1,-7.995000362E0,2.785276872E1
7.366945110E-1,1.804950118E0,-2.580900192E1,-9.412950516E0,2.753118346E1
7.386569730E-1,3.870000243E-1,-2.515695190E1,-1.075395012E1,2.736182452E1
7.406201540E-1,-1.222050071E0,-2.431395149E1,-1.228695011E1,2.726959454E1
7.425831250E-1,-1.911000133E0,-2.373900032E1,-1.251705074E1,2.690480658E1
7.445462650E-1,-2.755050182E0,-2.316405106E1,-1.259400082E1,2.650985514E1
7.465093550E-1,-3.559950113E0,-2.258895111E1,-1.228695011E1,2.595964368E1
7.484728100E-1,-3.904950142E0,-2.216805077E1,-1.155900097E1,2.530378655E1
7.504361440E-1,-4.555950165E0,-2.163105011E1,-1.040895081E1,2.443369124E1
7.523993580E-1,-5.245950222E0,-2.094105148E1,-9.412950516E0,2.355103540E1
7.543626070E-1,-5.898000240E0,-2.036595154E1,-8.530950546E0,2.285466049E1
7.563256540E-1,-6.472050190E0,-1.975305176E1,-7.687950134E0,2.216246973E1
7.582887610E-1,-6.856050491E0,-1.925505066E1,-7.150950432E0,2.165406420E1
7.602519870E-1,-6.970950127E0,-1.879500008E1,-6.921000481E0,2.120722568E1
7.622151640E-1,-7.086000443E0,-1.822005081E1,-7.075050354E0,2.079033409E1
7.641782250E-1,-7.047000408E0,-1.768395042E1,-7.687950134E0,2.053014600E1
7.661413200E-1,-6.625950336E0,-1.756905174E1,-8.416049957E0,2.057679989E1
7.681040780E-1,-6.319050312E0,-1.722405052E1,-9.834000587E0,2.081600060E1
7.700669350E-1,-6.051000118E0,-1.691700172E1,-1.132905006E1,2.124021952E1
7.720298530E-1,-5.284050465E0,-1.672500038E1,-1.282395077E1,2.172787473E1
7.739927640E-1,-4.173000336E0,-1.695495033E1,-1.458705044E1,2.275228149E1
7.759558700E-1,-2.563050032E0,-1.718505096E1,-1.631204987E1,2.383229265E1
7.779189180E-1,-4.170000255E-1,-1.768395042E1,-1.803600121E1,2.526248862E1
7.798826760E-1,1.920000076E0,-1.829700089E1,-1.930095100E1,2.666445858E1
7.818462260E-1,4.105050087E0,-1.887195015E1,-2.006805038E1,2.785190451E1
7.838094630E-1,5.905950069E0,-1.956195068E1,-2.045100021E1,2.891009461E1
7.857727810E-1,7.438950539E0,-1.944705009E1,-2.087295151E1,2.948229718E1
7.877357710E-1,8.818950653E0,-1.914000130E1,-2.114100075E1,2.985055197E1
7.896988580E-1,9.547050476E0,-1.975305176E1,-2.083395004E1,3.025529211E1
7.916619330E-1,1.031400013E1,-1.917795181E1,-2.033595085E1,2.979468630E1
7.936250120E-1,1.108095074E1,-1.837305069E1,-1.983795166E1,2.922158084E1
7.955882620E-1,1.184700012E1,-1.768395042E1,-1.888005066E1,2.845223765E1
7.975514660E-1,1.269000053E1,-1.691700172E1,-1.761495018E1,2.752285470E1
7.995145220E-1,1.357200050E1,-1.630395126E1,-1.642695045E1,2.683025765E1
8.014776220E-1,1.445295048E1,-1.572900105E1,-1.474005032E1,2.595300242E1
8.034405600E-1,1.533495045E1,-1.538400078E1,-1.316895103E1,2.540176089E1
8.054035450E-1,1.583295059E1,-1.530705070E1,-1.129095078E1,2.474820590E1
8.073665870E-1,1.640805054E1,-1.469400024E1,-9.489000320E0,2.398288750E1
8.093296150E-1,1.698300171E1,-1.408095074E1,-8.032950401E0,2.347815608E1
8.112927000E-1,1.748100090E1,-1.354395103E1,-6.270000458E0,2.298558043E1
8.132557690E-1,1.782600021E1,-1.316100025E1,-4.545000076E0,2.261935536E1
8.152188470E-1,1.809495163E1,-1.270095062E1,-2.667000055E0,2.226778639E1
8.171819230E-1,1.843905067E1,-1.212600040E1,-1.249050021E0,2.210426659E1
8.191443100E-1,1.882305145E1,-1.151295090E1,1.500000060E-2,2.206480295E1
8.211069100E-1,1.909095001E1,-1.101495075E1,1.548000097E0,2.209501792E1
8.230702030E-1,1.928295135E1,-1.040100002E1,2.467950106E0,2.204776161E1
8.250332930E-1,1.943595123E1,-9.673050880E0,3.541050196E0,2.199688956E1
8.269960530E-1,1.962795067E1,-9.097949982E0,4.461000443E0,2.208913005E1
8.289589100E-1,1.966605186E1,-8.332050323E0,5.151000023E0,2.197064996E1
8.309220240E-1,1.958895111E1,-7.642050266E0,5.994000435E0,2.186449128E1
8.328850620E-1,1.962795067E1,-6.837000370E0,6.607050419E0,2.180949648E1
8.348479210E-1,1.989600182E1,-6.147000313E0,6.492000103E0,2.181244063E1
8.368108330E-1,1.997295189E1,-5.725050449E0,5.841000080E0,2.158268500E1
8.387739370E-1,2.008800125E1,-5.149950027E0,5.266050339E0,2.139581888E1
8.407369850E-1,2.012595177E1,-4.920000076E0,3.847950220E0,2.107289862E1
8.427002790E-1,2.001105118E1,-4.767000198E0,2.620950222E0,2.073730552E1
8.446635100E-1,1.985805130E1,-4.345950127E0,1.087950110E0,2.035713927E1
8.466275970E-1,1.951305008E1,-3.961950302E0,-3.289500177E-1,1.991392432E1
8.485914330E-1,1.924395180E1,-3.616950274E0,-1.861950040E0,1.966923659E1
8.505543800E-1,1.863105011E1,-3.310950041E0,-2.514000177E0,1.908922773E1
8.525175880E-1,1.801800156E1,-3.004050255E0,-3.280050039E0,1.855886382E1
8.544806980E-1,1.732800102E1,-2.544000149E0,-4.545000076E0,1.809388244E1
8.564438290E-1,1.694505119E1,-2.275950193E0,-5.580000401E0,1.798474670E1
8.584068520E-1,1.633095169E1,-2.083950043E0,-6.423000336E0,1.767194851E1
8.603699060E-1,1.583295059E1,-1.738950133E0,-7.534950256E0,1.762049226E1
8.623329860E-1,1.514295101E1,-1.509000063E0,-8.530950546E0,1.744600710E1
8.642960580E-1,1.456800079E1,-1.432950020E0,-9.718950272E0,1.757094156E1
8.662593350E-1,1.391700077E1,-1.509000063E0,-1.029405022E1,1.737606001E1
8.682225390E-1,1.349505043E1,-1.548000097E0,-1.056300068E1,1.720725643E1
8.701858190E-1,1.299705029E1,-1.548000097E0,-1.014105034E1,1.655779340E1
8.721490770E-1,1.249905014E1,-1.548000097E0,-9.106050491E0,1.554164452E1
8.741120790E-1,1.180905056E1,-1.509000063E0,-7.879950523E0,1.427670748E1
8.760751560E-1,1.065900040E1,-1.318050027E0,-6.423000336E0,1.251425102E1
8.780382420E-1,9.279000282E0,-1.279050112E0,-4.966950417E0,1.060218901E1
8.800013190E-1,7.899000168E0,-1.164000034E0,-3.165000200E0,8.588732502E0
8.819642610E-1,6.787950516E0,-1.203000069E0,-1.594050050E0,7.075625550E0
8.839272420E-1,5.868000507E0,-1.393950105E0,-1.369500011E-1,6.032850251E0
8.858897950E-1,5.101050377E0,-1.509000063E0,1.318050027E0,5.480424437E0
8.878524730E-1,4.335000038E0,-1.738950133E0,2.506050110E0,5.300609404E0
8.898156010E-1,3.492000103E0,-1.893000126E0,3.694050074E0,5.424345135E0
8.917785770E-1,2.533950090E0,-1.969050050E0,4.461000443E0,5.495324022E0
8.937413570E-1,1.804950118E0,-2.083950043E0,4.921050072E0,5.640693798E0
8.957041940E-1,1.153950095E0,-2.046000004E0,5.112000465E0,5.625856877E0
8.976665460E-1,5.410500169E-1,-2.046000004E0,5.188950062E0,5.603932002E0
8.996290400E-1,4.200000316E-2,-2.428950071E0,4.921050072E0,5.488013872E0
9.015922610E-1,-4.170000255E-1,-2.275950193E0,4.269000053E0,4.855738848E0
9.035552690E-1,-9.150000215E-1,-2.314050198E0,3.310950041E0,4.141792309E0
9.055183130E-1,-1.489950061E0,-2.391000032E0,2.314950228E0,3.646344319E0
9.074813460E-1,-1.873050094E0,-2.391000032E0,1.432950020E0,3.358354295E0
9.094449710E-1,-2.179949999E0,-2.351999998E0,8.580000401E-1,3.319676198E0
9.114084230E-1,-2.601000071E0,-2.391000032E0,2.449500114E-1,3.541480344E0
9.133713110E-1,-2.946000099E0,-2.428950071E0,-5.590500236E-1,3.858918496E0
9.153343580E-1,-3.406050205E0,-2.506050110E0,-1.441050053E0,4.467447863E0
9.172976190E-1,-3.751050234E0,-2.581950188E0,-2.130000114E0,5.027299983E0
9.192608170E-1,-3.675000191E0,-2.736000061E0,-2.974050045E0,5.462261107E0
9.212236940E-1,-3.559950113E0,-3.196050167E0,-3.127050161E0,5.715454854E0
9.231866660E-1,-3.253050089E0,-4.116000175E0,-2.974050045E0,6.030652203E0
9.251497540E-1,-2.985000134E0,-5.074050426E0,-2.437050104E0,6.371454052E0
9.271128120E-1,-2.755050182E0,-5.725050449E0,-1.171950102E0,6.460647893E0
9.290754880E-1,-2.332950115E0,-6.454050541E0,2.449500114E-1,6.867126410E0
9.310382760E-1,-1.911000133E0,-7.143000126E0,1.510050058E0,7.546828704E0
9.330017620E-1,-1.260000110E0,-7.872000217E0,2.773950100E0,8.441018117E0
9.349650430E-1,4.050000105E-3,-8.944950104E0,4.078050137E0,9.830698941E0
9.369291660E-1,3.109500110E-1,-9.481050491E0,5.112000465E0,1.077587848E1
9.388930430E-1,6.550500393E-1,-1.036305046E1,5.611050129E0,1.180278734E1
9.408563890E-1,1.114950061E0,-1.155105019E1,5.917050362E0,1.302617976E1
9.428198910E-1,2.035050154E0,-1.312305069E1,6.070950508E0,1.460179197E1
9.447830300E-1,3.108000040E0,-1.507695103E1,6.301050186E0,1.663362107E1
9.467462760E-1,3.760050297E0,-1.680195045E1,7.219950199E0,1.867006155E1
9.487096750E-1,4.948050022E0,-1.822005081E1,8.332050323E0,2.063677575E1
9.506730670E-1,5.752950191E0,-1.956195068E1,8.830050468E0,2.222017421E1
9.526364070E-1,6.558000088E0,-2.121000099E1,8.064000130E0,2.361989850E1
9.545997620E-1,7.593000412E0,-2.331795120E1,7.564950466E0,2.566337817E1
9.565633300E-1,7.669050217E0,-2.561700058E1,6.568950176E0,2.753536193E1
9.585268360E-1,8.128950119E0,-2.833905220E1,5.802000046E0,3.004737783E1
9.604909400E-1,8.973000526E0,-3.106005096E1,2.545050144E0,3.243021407E1
9.624548550E-1,8.934000015E0,-3.408795166E1,-8.269500136E-1,3.524895248E1
9.644181950E-1,9.202950478E0,-3.746100235E1,-5.158050060E0,3.891820236E1
9.663817040E-1,9.508950233E0,-4.079505157E1,-8.683950424E0,4.277928661E1
9.683450220E-1,9.163949966E0,-4.397595215E1,-1.244100094E1,4.661159567E1
9.703083960E-1,9.202950478E0,-4.750200272E1,-1.608195114E1,5.098787809E1
9.722716020E-1,9.202950478E0,-5.125905228E1,-1.868805122E1,5.533017257E1
9.742348580E-1,8.128950119E0,-5.470800400E1,-2.014395142E1,5.886275826E1
9.761982630E-1,6.328050137E0,-5.700795364E1,-2.083395004E1,6.102462185E1
9.781616250E-1,5.523000240E0,-5.972895432E1,-2.298105049E1,6.423535006E1
9.801248340E-1,4.450050354E0,-6.248805237E1,-2.505000114E1,6.746897209E1
9.820880880E-1,2.725050211E0,-6.417494965E1,-2.466705132E1,6.880634768E1
9.840502790E-1,1.153950095E0,-6.547800446E1,-2.593200111E1,7.043556879E1
9.860127810E-1,1.189500093E-1,-6.647505188E1,-2.643000031E1,7.153664507E1
9.879759100E-1,-7.620000243E-1,-6.701100159E1,-2.577900124E1,7.180258966E1
9.899388560E-1,-1.336950064E0,-6.693405151E1,-2.378595161E1,7.104735169E1
9.919021810E-1,-1.795950055E0,-6.678105164E1,-1.979895020E1,6.967734727E1
9.938653940E-1,-1.605000019E0,-6.624494934E1,-1.600500107E1,6.816985696E1
9.958289880E-1,-1.987950087E0,-6.547800446E1,-1.129095078E1,6.647410460E1
9.977924710E-1,-2.103000164E0,-6.455805206E1,-6.691050529E0,6.493793077E1
9.997549390E-1,-2.332950115E0,-6.294795227E1,-2.284050226E0,6.303256489E1
1.001717704E0,-2.026050091E0,-6.106995392E1,1.624950051E0,6.112515532E1
1.003680968E0,-1.950000048E0,-5.934600449E1,3.771000147E0,5.949765702E1
1.005644086E0,-2.332950115E0,-5.731395340E1,4.996950150E0,5.757865422E1
1.007607401E0,-2.179949999E0,-5.543595123E1,5.841000080E0,5.578542958E1
1.009570644E0,-2.140950203E0,-5.240805435E1,5.380950451E0,5.272705621E1
1.011534053E0,-2.793000221E0,-4.834605408E1,5.151000023E0,4.869984185E1
1.013497413E0,-3.636000156E0,-4.593105316E1,4.384050369E0,4.628284822E1
1.015460397E0,-5.053950310E0,-4.217505264E1,3.157950163E0,4.259401517E1
1.017423492E0,-6.088950157E0,-3.861000061E1,2.238000154E0,3.915119546E1
1.019386985E0,-6.357000351E0,-3.531405258E1,1.548000097E0,3.591503957E1
1.021350351E0,-5.743950367E0,-3.213300323E1,1.548000097E0,3.267903253E1
1.023313739E0,-5.514000416E0,-2.918205070E1,2.008050203E0,2.976623170E1
1.025277120E0,-5.706000328E0,-2.676705170E1,2.736000061E0,2.750489398E1
1.027240326E0,-5.743950367E0,-2.477400208E1,3.273000240E0,2.564091799E1
1.029203584E0,-5.859000206E0,-2.293395042E1,4.345950127E0,2.406618474E1
1.031166784E0,-5.398950100E0,-2.178495026E1,5.878950119E0,2.320118045E1
1.033129988E0,-4.288050175E0,-2.124795151E1,7.450050354E0,2.292086534E1
1.035093043E0,-2.985000134E0,-2.086500168E1,8.907000542E0,2.288215854E1
1.037056141E0,-1.911000133E0,-2.036595154E1,9.942000389E0,2.274351062E1
1.039019574E0,-1.222050071E0,-1.975305176E1,1.066995049E1,2.248386763E1
1.040982909E0,-7.620000243E-1,-1.894799995E1,1.109205055E1,2.196909037E1
1.042945938E0,-9.919500351E-1,-1.829700089E1,1.143705082E1,2.160023930E1
1.044909060E0,-1.260000110E0,-1.760700035E1,1.182000065E1,2.124397507E1
1.046872308E0,-1.720050097E0,-1.668704987E1,1.212600040E1,2.069918093E1
1.048835519E0,-2.103000164E0,-1.569000053E1,1.224105072E1,2.001104818E1
1.050798619E0,-2.448000193E0,-1.477095032E1,1.243305016E1,1.946161387E1
1.052761752E0,-2.793000221E0,-1.385100079E1,1.277805042E1,1.905071247E1
1.054724804E0,-3.061050177E0,-1.273905087E1,1.308495045E1,1.851673225E1
1.056687891E0,-3.291000128E0,-1.178100014E1,1.308495045E1,1.791196735E1
1.058650966E0,-3.483000278E0,-1.074600029E1,1.289295101E1,1.714164516E1
1.060614045E0,-3.520950079E0,-9.673050880E0,1.281600094E1,1.643821410E1
1.062577300E0,-3.406050205E0,-8.562000275E0,1.300800037E1,1.594105079E1
1.064540504E0,-3.636000156E0,-7.335000515E0,1.297005081E1,1.533769695E1
1.066503520E0,-4.096050262E0,-5.533950329E0,1.270095062E1,1.444701979E1
1.068466588E0,-4.479000092E0,-3.655950069E0,1.273995018E1,1.399048760E1
1.070428990E0,-4.671000004E0,-1.738950133E0,1.231800079E1,1.328816512E1
1.072391588E0,-4.939050198E0,2.530499995E-1,1.151295090E1,1.253021506E1
1.074354566E0,-4.824000359E0,2.131050110E0,1.147500038E1,1.262885536E1
1.076317432E0,-4.555950165E0,3.741000175E0,1.128300095E1,1.273019539E1
1.078280356E0,-4.249050140E0,5.119950294E0,1.082295036E1,1.270450993E1
1.080243269E0,-4.479000092E0,6.960000515E0,1.024800014E1,1.317287197E1
1.082206329E0,-4.555950165E0,8.838000298E0,1.001805019E1,1.411482415E1
1.084169346E0,-4.555950165E0,1.063995075E1,9.712050438E0,1.510924080E1
1.086132614E0,-4.863000393E0,1.224900055E1,9.865050316E0,1.646226002E1
1.088095808E0,-3.904950142E0,1.244100094E1,1.005705070E1,1.646728298E1
1.090058911E0,-3.061050177E0,1.232595062E1,9.942000389E0,1.612893235E1
1.092022041E0,-3.291000128E0,1.370595074E1,1.021005058E1,1.740485278E1
1.093985288E0,-3.751050234E0,1.477905083E1,1.059300041E1,1.856616220E1
1.095948500E0,-4.518000126E0,1.604400063E1,1.105305099E1,1.999980544E1
1.097911734E0,-5.706000328E0,1.700205040E1,1.116795063E1,2.112702721E1
1.099874962E0,-7.201050282E0,1.765395164E1,1.159005070E1,2.231247205E1
1.101838158E0,-9.154950142E0,1.792200089E1,1.201095104E1,2.343659900E1
1.103801357E0,-1.087995052E1,1.815195084E1,1.277805042E1,2.472135140E1
1.105764458E0,-1.272000027E1,1.788300133E1,1.377405071E1,2.590993277E1
1.107727588E0,-1.475100040E1,1.750005150E1,1.461795044E1,2.715747209E1
1.109690970E0,-1.632299995E1,1.688700104E1,1.561395073E1,2.820295355E1
1.111654278E0,-1.816200066E1,1.623495102E1,1.618905067E1,2.924922673E1
1.113617497E0,-1.942695045E1,1.546905041E1,1.645695114E1,2.979142772E1
1.115580742E0,-2.026995087E1,1.454895115E1,1.680195045E1,3.008069857E1
1.117543835E0,-2.092200089E1,1.362900066E1,1.691700172E1,3.016064866E1
1.119506973E0,-2.126700020E1,1.274805069E1,1.691700172E1,3.001637955E1
1.121470173E0,-2.145900154E1,1.194300079E1,1.664895058E1,2.967004500E1
1.123433355E0,-2.138205147E1,1.117605019E1,1.607400131E1,2.899085616E1
1.125396410E0,-2.119005013E1,1.056300068E1,1.553805065E1,2.832006754E1
1.127359506E0,-2.065395164E1,9.643050194E0,1.557600117E1,2.760771537E1
1.129322444E0,-1.992495155E1,8.800050735E0,1.546095085E1,2.671115102E1
1.131285429E0,-1.908195114E1,7.957050323E0,1.507800102E1,2.558870110E1
1.133249061E0,-1.820100021E1,7.228050232E0,1.488600063E1,2.459906774E1
1.135212504E0,-1.724295044E1,6.538950443E0,1.484805107E1,2.367576468E1
1.137175904E0,-1.620795059E1,5.772000313E0,1.477095032E1,2.267585992E1
1.139139300E0,-1.524900055E1,5.005050182E0,1.484805107E1,2.186428974E1
1.141102817E0,-1.448295116E1,4.354050159E0,1.465605068E1,2.105975899E1
1.143066298E0,-1.379295063E1,3.817050219E0,1.484805107E1,2.062231752E1
1.145029487E0,-1.306500053E1,3.280950069E0,1.503900051E1,2.018985906E1
1.146992761E0,-1.249005032E1,2.706000090E0,1.542300034E1,2.002979612E1
1.148956002E0,-1.199205017E1,2.361000061E0,1.611194992E1,2.022321732E1
1.150919272E0,-1.160805035E1,1.978050113E0,1.710900116E1,2.076962772E1
1.152882090E0,-1.126305008E1,1.708950043E0,1.810605049E1,2.139172437E1
1.154845041E0,-1.126305008E1,1.708950043E0,1.875705147E1,2.194547304E1
1.156808184E0,-1.114800072E1,1.633050084E0,1.910205078E1,2.217731085E1
1.158771270E0,-1.114800072E1,1.863000035E0,1.891005135E1,2.203040469E1
1.160734195E0,-1.118700027E1,2.016000032E0,1.825905037E1,2.150828100E1
1.162697147E0,-1.126305008E1,2.131050110E0,1.718595123E1,2.065803939E1
1.164660244E0,-1.118700027E1,2.398950100E0,1.576800060E1,1.948162672E1
1.166623299E0,-1.130205059E1,2.551950216E0,1.450305080E1,1.856306225E1
1.168586200E0,-1.122495079E1,2.782050133E0,1.235595036E1,1.692361759E1
1.170549147E0,-1.118700027E1,2.859000206E0,1.044000053E1,1.556651754E1
1.172511903E0,-1.103295040E1,2.896950245E0,8.370000839E0,1.414832956E1
1.174474703E0,-1.091805077E1,3.127050161E0,6.223950386E0,1.295066924E1
1.176437601E0,-1.065000057E1,3.280950069E0,4.461000443E0,1.200365238E1
1.178400470E0,-1.022895050E1,2.896950245E0,2.583000183E0,1.094055022E1
1.180364349E0,-1.030500031E1,3.741000175E0,3.979500234E-1,1.097025423E1
1.182327932E0,-9.577050209E0,3.012000084E0,-1.057050109E0,1.009501809E1
1.184291064E0,-9.040050507E0,2.245950222E0,-2.514000177E0,9.648160574E0
1.186254324E0,-9.117000580E0,2.896950245E0,-3.970050097E0,1.035728333E1
1.188217234E0,-8.427000046E0,2.743950129E0,-4.966950417E0,1.015943840E1
1.190180247E0,-8.005949974E0,2.782050133E0,-6.346950531E0,1.058861742E1
1.192143649E0,-7.621950150E0,2.782050133E0,-7.075050354E0,1.076523407E1
1.194106937E0,-7.201050282E0,2.551950216E0,-7.840950489E0,1.094751477E1
1.196070005E0,-6.586950302E0,2.245950222E0,-9.106050491E0,1.146090582E1
1.198033151E0,-6.088950157E0,1.824000120E0,-9.796050072E0,1.167753773E1
1.199995991E0,-5.668050289E0,1.402950048E0,-1.052400017E1,1.203534970E1
1.201958920E0,-5.092950344E0,1.134000063E0,-1.129095078E1,1.243823415E1
1.203922066E0,-4.671000004E0,8.659500480E-1,-1.117605019E1,1.214381358E1
1.205885149E0,-4.057950020E0,5.980500579E-1,-1.125195026E1,1.197626849E1
1.207848346E0,-3.483000278E0,3.289500177E-1,-1.121400070E1,1.174705541E1
1.209811519E0,-3.100050211E0,1.759500057E-1,-1.083105087E1,1.126733920E1
1.211774805E0,-2.830950022E0,2.295000106E-2,-1.040895081E1,1.078707846E1
1.213738058E0,-2.830950022E0,2.140500098E-1,-1.033305073E1,1.071597092E1
1.215701826E0,-2.716050148E0,1.380000114E-1,-9.910950661E0,1.027730098E1
1.217665443E0,-2.716050148E0,-2.059500068E-1,-9.604050636E0,9.982841902E0
1.219628368E0,-2.755050182E0,-3.589500189E-1,-1.002600002E1,1.040383694E1
1.221591506E0,-2.755050182E0,-6.280500293E-1,-1.044795036E1,1.082332736E1
1.223554618E0,-2.908050060E0,-8.190000653E-1,-1.144395065E1,1.183602648E1
1.225517737E0,-3.022950172E0,-1.011000037E0,-1.267095089E1,1.306573172E1
1.227480762E0,-2.985000134E0,-1.509000063E0,-1.416495037E1,1.455448817E1
1.229443814E0,-2.716050148E0,-3.004050255E0,-1.508505058E1,1.561921885E1
1.231406730E0,-2.103000164E0,-5.265000343E0,-1.562205029E1,1.661900398E1
1.233369675E0,-1.183050036E0,-6.990000248E0,-1.657995033E1,1.803203993E1
1.235333359E0,5.410500169E-1,-8.523000717E0,-1.692495155E1,1.895753838E1
1.237296827E0,2.035050154E0,-9.634950638E0,-1.642695045E1,1.915250386E1
1.239259433E0,3.453000069E0,-1.070805073E1,-1.408905029E1,1.803016633E1
1.241222291E0,4.756950378E0,-1.166595078E1,-1.060095024E1,1.646520970E1
1.243185219E0,5.715000153E0,-1.243305016E1,-5.962950230E0,1.492644426E1
1.245148130E0,5.944950104E0,-1.312305069E1,-8.659500480E-1,1.443283619E1
1.247110515E0,5.905950069E0,-1.377405071E1,4.192950249E0,1.556231188E1
1.249073055E0,5.485050201E0,-1.415700054E1,9.214050293E0,1.775964985E1
1.251036088E0,4.642050266E0,-1.438695049E1,1.381305027E1,2.047763006E1
1.252998976E0,3.607050180E0,-1.461705112E1,1.760700035E1,2.316625684E1
1.254961886E0,3.337950230E0,-1.457895088E1,2.067300034E1,2.551589041E1
1.256924803E0,2.802000046E0,-1.454100037E1,2.281995201E1,2.720371492E1
1.258887862E0,2.610000134E0,-1.427205086E1,2.389305115E1,2.795320070E1
1.260850880E0,2.802000046E0,-1.304595089E1,2.335605049E1,2.689894298E1
1.262813292E0,1.575000048E0,-1.273905087E1,2.193795013E1,2.541727165E1
1.264775882E0,5.410500169E-1,-1.270095062E1,1.967700005E1,2.342629319E1
1.266738666E0,-4.930500090E-1,-1.296900082E1,1.726200104E1,2.159663771E1
1.268701404E0,-1.681950092E0,-1.358205032E1,1.507800102E1,2.036288688E1
1.270664178E0,-2.524950027E0,-1.369695091E1,1.362105083E1,1.948114121E1
1.272626942E0,-3.712950230E0,-1.396605110E1,1.297005081E1,1.941800198E1
1.274590073E0,-4.863000393E0,-1.484700108E1,1.273995018E1,2.015908094E1
1.276553096E0,-5.782950401E0,-1.630395126E1,1.254795074E1,2.137083082E1
1.278515948E0,-6.625950336E0,-1.875705147E1,1.243305016E1,2.345870699E1
1.280478857E0,-7.776000500E0,-2.266605186E1,8.715000153E0,2.549837874E1
1.282441602E0,-9.999000549E0,-2.626905060E1,4.384050369E0,2.844754698E1
1.284404396E0,-1.203000069E1,-3.017805099E1,4.498950005E0,3.279750340E1
1.286367340E0,-1.398495102E1,-3.500805283E1,5.151000023E0,3.804833004E1
1.288330240E0,-1.632299995E1,-4.033500290E1,5.380950451E0,4.384412634E1
1.290293217E0,-1.877595139E1,-4.489605331E1,5.266050339E0,4.894816891E1
1.292256168E0,-2.053905106E1,-4.815405273E1,4.231050014E0,5.252206391E1
1.294219087E0,-2.157405090E1,-4.987905121E1,2.200050116E0,5.438933390E1
1.296182016E0,-2.214795113E1,-4.972500229E1,1.203000069E0,5.444772540E1
1.298144893E0,-2.138205147E1,-4.834605408E1,1.930950046E0,5.289859769E1
1.300107785E0,-1.931205177E1,-4.662105179E1,3.118950129E0,5.055893258E1
1.302070732E0,-1.597800064E1,-4.481895065E1,4.614000320E0,4.780506083E1
1.304033649E0,-1.141695023E1,-4.259595108E1,4.921050072E0,4.437317359E1
1.305996439E0,-7.354050159E0,-3.887895203E1,3.426000118E0,3.971640015E1
1.307959266E0,-5.092950344E0,-3.366600037E1,1.510050058E0,3.408251715E1
1.309922880E0,-4.249050140E0,-2.918205070E1,-1.824000120E0,2.954612474E1
1.311886264E0,-3.712950230E0,-2.577105141E1,-5.925000191E0,2.670278482E1
1.313849159E0,-3.175950050E0,-2.274300194E1,-9.796050072E0,2.496584453E1
1.315812194E0,-2.946000099E0,-2.021295166E1,-1.171200085E1,2.354598257E1
1.317774917E0,-2.985000134E0,-1.779900169E1,-1.152105045E1,2.141142897E1
1.319737732E0,-3.598050117E0,-1.530705070E1,-9.259050369E0,1.824778835E1
1.321700673E0,-4.326000214E0,-1.331400108E1,-6.193050385E0,1.530786647E1
1.323663577E0,-5.284050465E0,-1.204905033E1,-3.702000141E0,1.366768482E1
1.325626833E0,-6.013050079E0,-1.120605087E1,-1.861950040E0,1.285298430E1
1.327589976E0,-6.051000118E0,-1.063095093E1,-2.140500098E-1,1.223427715E1
1.329551826E0,-6.625950336E0,-9.558000565E0,1.395000100E0,1.171343749E1
1.331514055E0,-6.396000385E0,-8.677050591E0,2.965950251E0,1.118020075E1
1.333477412E0,-5.437950134E0,-8.217000008E0,4.308000088E0,1.075403438E1
1.335440438E0,-4.441050053E0,-7.717950344E0,5.764050484E0,1.060725983E1
1.337403414E0,-3.675000191E0,-7.372950554E0,6.952050209E0,1.077947255E1
1.339366387E0,-2.908050060E0,-7.258050442E0,8.064000130E0,1.123228158E1
1.341329661E0,-2.218050003E0,-7.297050476E0,8.944950104E0,1.175494891E1
1.343292846E0,-1.642950058E0,-7.372950554E0,9.942000389E0,1.248611455E1
1.345255500E0,-1.144950032E0,-7.642050266E0,1.093800068E1,1.339222542E1
1.347218310E0,-6.850500107E-1,-8.140049934E0,1.185795021E1,1.439932949E1
1.349180927E0,4.050000105E-3,-8.485050201E0,1.266300106E1,1.524295540E1
1.351143608E0,3.109500110E-1,-7.717950344E0,1.323795033E1,1.532666879E1
1.353107427E0,8.850000501E-1,-7.872000217E0,1.396605110E1,1.605621985E1
1.355070913E0,1.498950124E0,-8.332050323E0,1.465605068E1,1.692541685E1
1.357033606E0,1.804950118E0,-9.097949982E0,1.523100090E1,1.783294500E1
1.358996531E0,2.188950062E0,-1.005600071E1,1.580595112E1,1.886114375E1
1.360959278E0,2.917050123E0,-1.101495075E1,1.645695114E1,2.001673206E1
1.362922074E0,3.568050146E0,-1.170405102E1,1.714695168E1,2.106498858E1
1.364885018E0,4.066950321E0,-1.247100067E1,1.833495140E1,2.254409869E1
1.366847918E0,4.564949989E0,-1.335300064E1,1.983000183E1,2.433865993E1
1.368810802E0,4.909950256E0,-1.457895088E1,2.163195038E1,2.654420271E1
1.370773690E0,4.987050056E0,-1.603499985E1,2.343300056E1,2.882876001E1
1.372736663E0,5.062950134E0,-1.776000023E1,2.343300056E1,2.983549208E1
1.374699611E0,5.254950047E0,-1.979205132E1,2.216805077E1,3.017883812E1
1.376662486E0,5.215950012E0,-2.140095139E1,2.132505035E1,3.065884256E1
1.378625382E0,4.909950256E0,-2.255100060E1,2.071200180E1,3.101035727E1
1.380588354E0,4.564949989E0,-2.301105118E1,2.048205185E1,3.114260254E1
1.382551303E0,5.638050079E0,-2.492700195E1,2.025195122E1,3.260804446E1
1.384514615E0,5.983050346E0,-2.741895103E1,2.009895134E1,3.451903261E1
1.386477798E0,6.787950516E0,-2.964195061E1,1.925505066E1,3.599275599E1
1.388440632E0,7.477950573E0,-3.186495209E1,1.783695030E1,3.727534993E1
1.390403569E0,7.899000168E0,-3.358905029E1,1.626600075E1,3.814710059E1
1.392366534E0,8.359050751E0,-3.519900131E1,1.408095074E1,3.882159961E1
1.394329490E0,9.088050842E0,-3.665595245E1,1.120695019E1,3.939349249E1
1.396292948E0,1.012200069E1,-3.742200089E1,7.834050179E0,3.955039052E1
1.398256259E0,1.123395061E1,-3.696195221E1,3.655950069E0,3.880404010E1
1.400220377E0,1.219200039E1,-3.650205231E1,-1.555950046E0,3.851578477E1
1.402184259E0,1.207695103E1,-3.577395248E1,-6.270000458E0,3.827455197E1
1.404147379E0,1.242195034E1,-3.504600143E1,-1.175100040E1,3.899503914E1
1.406110723E0,1.272900105E1,-3.397305298E1,-1.635000038E1,3.979344555E1
1.408073709E0,1.246005058E1,-3.293805313E1,-2.071905136E1,4.085887044E1
1.410036800E0,1.184700012E1,-3.163500214E1,-2.336400032E1,4.107312117E1
1.412000234E0,1.069695091E1,-3.021705055E1,-2.508900070E1,4.070568583E1
1.413963567E0,8.973000526E0,-2.875995064E1,-2.654505157E1,4.015332193E1
1.415926781E0,7.171050549E0,-2.741895103E1,-2.754195213E1,3.951938726E1
1.417890030E0,5.560950279E0,-2.619195175E1,-2.777205086E1,3.857757527E1
1.419853128E0,4.335000038E0,-2.508105087E1,-2.708205223E1,3.716569509E1
1.421816266E0,3.223050117E0,-2.412300110E1,-2.570205116E1,3.539636518E1
1.423779152E0,1.882050037E0,-2.324100113E1,-2.405400085E1,3.350046571E1
1.425742112E0,6.169500351E-1,-2.243595123E1,-2.179305077E1,3.128401504E1
1.427704668E0,-9.919500351E-1,-2.163105011E1,-1.968495178E1,2.926403288E1
1.429667343E0,-2.793000221E0,-2.094105148E1,-1.811295128E1,2.782817801E1
1.431630702E0,-4.249050140E0,-2.063505173E1,-1.657995033E1,2.680959791E1
1.433593837E0,-5.361000061E0,-2.025105095E1,-1.516200066E1,2.585984629E1
1.435557039E0,-6.396000385E0,-1.990695000E1,-1.397400093E1,2.514892008E1
1.437520221E0,-7.009050369E0,-1.971495056E1,-1.339905071E1,2.484634023E1
1.439483101E0,-7.123950481E0,-1.990695000E1,-1.336005020E1,2.501056317E1
1.441446070E0,-7.239000320E0,-2.002200127E1,-1.309200096E1,2.499368219E1
1.443409349E0,-7.123950481E0,-2.009805107E1,-1.305405045E1,2.500181114E1
1.445372534E0,-7.201050282E0,-1.990695000E1,-1.347495079E1,2.509414438E1
1.447335773E0,-7.047000408E0,-1.960005188E1,-1.412700081E1,2.516732803E1
1.449298996E0,-7.047000408E0,-1.914000130E1,-1.450995064E1,2.503075172E1
1.451262049E0,-6.625950336E0,-1.883295059E1,-1.481700039E1,2.486215490E1
1.453225152E0,-6.241950512E0,-1.845000076E1,-1.523895073E1,2.473034763E1
1.455188117E0,-5.514000416E0,-1.822005081E1,-1.562205029E1,2.462565547E1
1.457151103E0,-4.747950077E0,-1.768395042E1,-1.562205029E1,2.406893408E1
1.459114555E0,-3.636000156E0,-1.772205162E1,-1.554495049E1,2.385240232E1
1.461077870E0,-2.332950115E0,-1.741500092E1,-1.554495049E1,2.345997440E1
1.463041762E0,-9.529500604E-1,-1.710900116E1,-1.543005085E1,2.305889208E1
1.465005485E0,7.320000529E-1,-1.680195045E1,-1.531500053E1,2.274622176E1
1.466968698E0,2.533950090E0,-1.672500038E1,-1.477905083E1,2.246256629E1
1.468932046E0,4.411950111E0,-1.649505043E1,-1.443405056E1,2.235830512E1
1.470895211E0,6.289950371E0,-1.626495171E1,-1.393500042E1,2.232255286E1
1.472858430E0,7.822950363E0,-1.584405041E1,-1.312995052E1,2.201427006E1
1.474821662E0,9.318000793E0,-1.538400078E1,-1.232595062E1,2.180416652E1
1.476784890E0,1.039095020E1,-1.477095032E1,-1.159695053E1,2.146257396E1
1.478747630E0,1.146405029E1,-1.431105042E1,-1.075395012E1,2.125742356E1
1.480710511E0,1.222995090E1,-1.362105083E1,-9.988050461E0,2.085343801E1
1.482673575E0,1.280505085E1,-1.293105030E1,-9.336000443E0,2.045341765E1
1.484636586E0,1.341900063E1,-1.201095104E1,-8.569950104E0,1.994433673E1
1.486599674E0,1.410795021E1,-1.124400043E1,-8.032950401E0,1.974816693E1
1.488562740E0,1.483695030E1,-1.090005016E1,-7.228050232E0,1.977854641E1
1.490525849E0,1.560300064E1,-1.024800014E1,-6.117000103E0,1.964415501E1
1.492488956E0,1.633095169E1,-9.903000832E0,-4.966950417E0,1.973423434E1
1.494452029E0,1.694505119E1,-9.405000687E0,-3.739950180E0,1.973768034E1
1.496415112E0,1.759605026E1,-9.175050735E0,-2.475000143E0,1.999820408E1
1.498377286E0,1.828605080E1,-8.944950104E0,-5.970000029E-1,2.036536754E1
1.500339727E0,1.882305145E1,-8.715000153E0,9.349500537E-1,2.076373341E1
1.502303111E0,1.935900116E1,-8.332050323E0,2.583000183E0,2.123360258E1
1.504266206E0,2.008800125E1,-7.987050533E0,4.423050404E0,2.206545140E1
1.506229821E0,2.073900032E1,-7.603050232E0,6.568950176E0,2.304481750E1
1.508193283E0,2.096895027E1,-7.027950287E0,8.944950104E0,2.385583981E1
1.510156475E0,2.127600098E1,-6.568950176E0,1.093800068E1,2.480844983E1
1.512119746E0,2.142900085E1,-5.994000435E0,1.197300053E1,2.526821839E1
1.514082965E0,2.112195015E1,-5.457000256E0,1.300800037E1,2.539928549E1
1.516046203E0,2.108400154E1,-5.074050426E0,1.224105072E1,2.490229771E1
1.518009432E0,2.054805183E1,-4.804950237E0,1.132200050E1,2.394781152E1
1.519972664E0,1.993395042E1,-4.269000053E0,1.021005058E1,2.279982179E1
1.521936029E0,1.951305008E1,-3.771000147E0,8.754000664E0,2.171663172E1
1.523899355E0,1.912905121E1,-3.271950245E0,6.952050209E0,2.061449152E1
1.525862421E0,1.843905067E1,-2.581950188E0,4.729050159E0,1.921012681E1
1.527825573E0,1.759605026E1,-1.816050053E0,2.008050203E0,1.780312580E1
1.529789672E0,1.698300171E1,-1.356000066E0,-1.134000063E0,1.707474859E1
1.531753494E0,1.660004997E1,-1.126049995E0,-4.353000164E0,1.719820508E1
1.533716850E0,1.671495056E1,-1.011000037E0,-6.921000481E0,1.811938026E1
1.535680343E0,1.702095032E1,-1.087950110E0,-9.106050491E0,1.933433580E1
1.537643343E0,1.709805107E1,-9.340500236E-1,-1.075395012E1,2.022036704E1
1.539606491E0,1.690605164E1,-7.810500264E-1,-1.259400082E1,2.109581659E1
1.541570095E0,1.656105042E1,-3.210000098E-1,-1.401195049E1,2.169576430E1
1.543533566E0,1.656105042E1,-1.680000126E-1,-1.466400051E1,2.212079397E1
1.545496712E0,1.633095169E1,-1.680000126E-1,-1.489395046E1,2.210334743E1
1.547459953E0,1.598700047E1,-1.680000126E-1,-1.416495037E1,2.136020194E1
1.549423163E0,1.556505108E1,-2.830500007E-1,-1.339905071E1,2.053985132E1
1.551386396E0,1.522005081E1,-4.740000367E-1,-1.194195080E1,1.935161005E1
1.553349805E0,1.468305111E1,-4.740000367E-1,-1.029405022E1,1.793834262E1
1.555313163E0,1.395495033E1,-4.740000367E-1,-8.530950546E0,1.636283692E1
1.557276552E0,1.284405041E1,-3.979500234E-1,-6.960000515E0,1.461402074E1
1.559239932E0,1.150200081E1,-3.979500234E-1,-5.158050060E0,1.261189388E1
1.561203187E0,1.016100025E1,-5.509500504E-1,-2.859000206E0,1.056992688E1
1.563166476E0,9.433050156E0,-7.429500222E-1,-2.140500098E-1,9.464683163E0
1.565128796E0,8.053050041E0,-1.048950076E0,2.161050081E0,8.403692562E0
1.567091400E0,6.979950428E0,-1.356000066E0,4.000950336E0,8.158801858E0
1.569054377E0,5.944950104E0,-1.624050021E0,5.227050304E0,8.080966841E0
1.571017244E0,4.756950378E0,-1.624050021E0,6.301050186E0,8.060356619E0
1.572980640E0,3.913050175E0,-1.854000092E0,7.029000282E0,8.255672170E0
1.574943904E0,2.992950201E0,-2.008050203E0,7.258950233E0,8.104466362E0
1.576907130E0,2.149950027E0,-1.701000094E0,6.991050243E0,7.509358824E0
1.578870368E0,2.149950027E0,-1.432950020E0,6.415950298E0,6.916650136E0
1.580833417E0,1.422000051E0,-1.701000094E0,5.725950241E0,6.140194755E0
1.582796521E0,8.089500666E-1,-2.046000004E0,4.768050194E0,5.251173095E0
1.584759067E0,4.050000105E-3,-2.391000032E0,3.771000147E0,4.465124821E0
1.586721766E0,-5.700000525E-1,-2.889000177E0,2.620950222E0,3.942157043E0
1.588685267E0,-1.030050039E0,-3.387000084E0,1.624950051E0,3.895283728E0
1.590648533E0,-1.567050099E0,-3.886050224E0,5.899500251E-1,4.231438691E0
1.592612524E0,-1.987950087E0,-4.345950127E0,-6.739500165E-1,4.826327452E0
1.594576303E0,-2.410050154E0,-4.729050159E0,-1.786050081E0,5.600199286E0
1.596539769E0,-2.755050182E0,-5.227050304E0,-3.049950123E0,6.649402390E0
1.598503318E0,-3.061050177E0,-5.764050484E0,-4.237950325E0,7.781679068E0
1.600466539E0,-3.367950201E0,-6.223950386E0,-4.813050270E0,8.558393533E0
1.602429856E0,-3.520950079E0,-6.760050297E0,-4.927950382E0,9.076346426E0
1.604393206E0,-3.636000156E0,-7.488000393E0,-4.353000164E0,9.393575328E0
1.606356546E0,-3.520950079E0,-8.178000450E0,-3.241950035E0,9.475601345E0
1.608319939E0,-3.253050089E0,-8.944950104E0,-1.900950074E0,9.706084608E0
1.610283316E0,-2.985000134E0,-9.750000000E0,-5.209500194E-1,1.021000072E1
1.612245802E0,-2.410050154E0,-1.066995049E1,5.899500251E-1,1.095464404E1
1.614208549E0,-1.950000048E0,-1.178100014E1,1.395000100E0,1.202249931E1
1.616172042E0,-1.375050068E0,-1.293105030E1,1.510050058E0,1.309133590E1
1.618135316E0,-5.700000525E-1,-1.427205086E1,1.816050053E0,1.439841566E1
1.620098752E0,1.189500093E-1,-1.538400078E1,2.620950222E0,1.560612089E1
1.622062149E0,4.639500082E-1,-1.657200050E1,3.388050079E0,1.692115048E1
1.624026253E0,1.614000082E0,-1.741500092E1,4.231050014E0,1.799413897E1
1.625990149E0,3.070050240E0,-1.837305069E1,5.841000080E0,1.952207679E1
1.627953266E0,4.680000305E0,-1.983000183E1,7.680000305E0,2.177415395E1
1.629916612E0,6.060000420E0,-2.159295082E1,9.175050735E0,2.423139877E1
1.631880195E0,6.979950428E0,-2.343300056E1,9.787950516E0,2.633684109E1
1.633843700E0,7.516050339E0,-2.531100082E1,9.558000565E0,2.808012020E1
1.635806885E0,7.708050251E0,-2.749500084E1,8.217000008E0,2.971377120E1
1.637770164E0,7.746000290E0,-2.971800232E1,5.266050339E0,3.115913138E1
1.639734467E0,7.438950539E0,-3.182595062E1,2.008050203E0,3.274540248E1
1.641698470E0,7.132950306E0,-3.420300293E1,-1.786050081E0,3.498448748E1
1.643661652E0,6.558000088E0,-3.650205231E1,-5.119950294E0,3.743823018E1
1.645625112E0,6.213000298E0,-3.853395081E1,-7.803000450E0,3.980393892E1
1.647588348E0,6.060000420E0,-4.098705292E1,-1.025595093E1,4.268309550E1
1.649551650E0,5.905950069E0,-4.347795105E1,-1.267095089E1,4.567018141E1
1.651514869E0,4.717950344E0,-4.539405060E1,-1.366695023E1,4.764099509E1
1.653478112E0,3.147000074E0,-4.731105042E1,-1.312995052E1,4.919994615E1
1.655441308E0,2.457000017E0,-4.918905258E1,-1.171200085E1,5.062381561E1
1.657404541E0,1.614000082E0,-5.145000076E1,-1.385895061E1,5.330833037E1
1.659366825E0,3.109500110E-1,-5.329005432E1,-1.592805099E1,5.562040442E1
1.661329387E0,-9.150000215E-1,-5.482305145E1,-1.849605179E1,5.786629526E1
1.663292596E0,-2.065050125E0,-5.662395096E1,-1.872600174E1,5.967578567E1
1.665255615E0,-3.022950172E0,-5.861700439E1,-2.125605011E1,6.242524408E1
1.667219053E0,-4.633050442E0,-5.995905304E1,-2.458995056E1,6.497090785E1
1.669182375E0,-5.245950222E0,-6.199005127E1,-2.593200111E1,6.739996389E1
1.671145951E0,-4.900950432E0,-6.417494965E1,-2.689005089E1,6.975326741E1
1.673109452E0,-4.747950077E0,-6.547800446E1,-2.623905182E1,7.069936306E1
1.675072953E0,-4.402950287E0,-6.639795685E1,-2.332605171E1,7.051368189E1
1.677036454E0,-4.326000214E0,-6.720300293E1,-1.911000061E1,7.000107145E1
1.678999638E0,-3.904950142E0,-6.758595276E1,-1.416495037E1,6.916469811E1
1.680962915E0,-3.214950085E0,-6.758595276E1,-9.220950127E0,6.828779419E1
1.682926317E0,-2.908050060E0,-6.605295563E1,-4.009050369E0,6.623837398E1
1.684889682E0,-2.295000076E0,-6.486495209E1,-2.520000041E-1,6.490602852E1
1.686852350E0,-1.758000135E0,-6.356205368E1,2.928000212E0,6.365373844E1
1.688815223E0,-6.079500318E-1,-6.248805237E1,5.151000023E0,6.270294326E1
1.690779436E0,5.410500169E-1,-6.172200394E1,7.029000282E0,6.212330762E1
1.692743274E0,2.227050066E0,-6.195195389E1,8.869050026E0,6.262319371E1
1.694705636E0,4.639500082E-1,-5.907705307E1,8.064000130E0,5.962668486E1
1.696668430E0,-2.332950115E0,-5.432505417E1,6.799050331E0,5.479855155E1
1.698631599E0,-4.671000004E0,-4.926495361E1,5.764050484E0,4.982045939E1
1.700594658E0,-6.433950424E0,-4.409100342E1,4.269000053E0,4.476200020E1
1.702557549E0,-7.315950394E0,-3.991395187E1,4.192950249E0,4.079494474E1
1.704520497E0,-7.776000500E0,-3.661695099E1,4.498950005E0,3.770288894E1
1.706483775E0,-7.929000378E0,-3.358905029E1,5.035950184E0,3.487770263E1
1.708446956E0,-7.737000465E0,-3.079200172E1,6.031950474E0,3.231706937E1
1.710410151E0,-6.433950424E0,-2.868405151E1,7.219950199E0,3.027041807E1
1.712373341E0,-4.402950287E0,-2.749500084E1,8.562000275E0,2.913192220E1
1.714336400E0,-2.946000099E0,-2.615400124E1,9.979950905E0,2.814800379E1
1.716299497E0,-2.103000164E0,-2.508105087E1,1.078500080E1,2.738243899E1
1.718262614E0,-1.642950058E0,-2.419905090E1,1.135995007E1,2.678323758E1
1.720225725E0,-1.375050068E0,-2.331795120E1,1.182000065E1,2.617880873E1
1.722189112E0,-1.183050036E0,-2.251305199E1,1.204995060E1,2.556244172E1
1.724152418E0,-1.375050068E0,-2.147805023E1,1.231800079E1,2.479779321E1
1.726115457E0,-1.567050099E0,-2.036595154E1,1.251000023E1,2.395261434E1
1.728078574E0,-1.911000133E0,-1.917795181E1,1.289295101E1,2.318779729E1
1.730041643E0,-2.179949999E0,-1.806705093E1,1.335300064E1,2.257151164E1
1.732004727E0,-2.026050091E0,-1.714695168E1,1.388895035E1,2.215910135E1
1.733967847E0,-1.834950089E0,-1.634205055E1,1.427295113E1,2.177491198E1
1.735930956E0,-1.720050097E0,-1.534605026E1,1.438800049E1,2.110626421E1
1.737894002E0,-1.911000133E0,-1.438695049E1,1.488600063E1,2.079012460E1
1.739857054E0,-2.103000164E0,-1.319895077E1,1.507800102E1,2.014897084E1
1.741819820E0,-2.332950115E0,-1.185795021E1,1.480905056E1,1.911443481E1
1.743782670E0,-2.140950203E0,-1.101495075E1,1.496295071E1,1.870301317E1
1.745745784E0,-2.103000164E0,-9.826050758E0,1.503900051E1,1.808716173E1
1.747708821E0,-2.601000071E0,-7.795050144E0,1.496295071E1,1.707096664E1
1.749671856E0,-4.057950020E0,-4.959000111E0,1.507800102E1,1.638306306E1
1.751634894E0,-4.824000359E0,-2.697000027E0,1.523100090E1,1.620272128E1
1.753596897E0,-5.016000271E0,-5.509500504E-1,1.534605026E1,1.615441312E1
1.755559204E0,-5.016000271E0,2.053950071E0,1.503900051E1,1.598594714E1
1.757522412E0,-5.131050110E0,4.507050037E0,1.519305038E1,1.665742943E1
1.759485356E0,-4.939050198E0,7.189950466E0,1.542300034E1,1.771887536E1
1.761448160E0,-4.939050198E0,1.018005085E1,1.542300034E1,1.912842365E1
1.763410992E0,-5.553000450E0,1.293900108E1,1.565295029E1,2.105394062E1
1.765373930E0,-6.396000385E0,1.546905041E1,1.500105095E1,2.247736352E1
1.767336836E0,-6.741000175E0,1.734705162E1,1.530795097E1,2.409760665E1
1.769299897E0,-4.441050053E0,1.435695076E1,1.546095085E1,2.156121430E1
1.771262913E0,-5.323050022E0,1.665705109E1,1.592100048E1,2.364889995E1
1.773225788E0,-6.472050190E0,1.884195137E1,1.638105011E1,2.579235096E1
1.775188728E0,-8.427000046E0,2.056605148E1,1.622700119E1,2.751894567E1
1.777151827E0,-1.084200096E1,2.229105186E1,1.672605133E1,2.990318998E1
1.779114879E0,-1.390800095E1,2.393895149E1,1.707105064E1,3.252578452E1
1.781077646E0,-1.705095100E1,2.520405197E1,1.730100060E1,3.500433955E1
1.783040497E0,-2.019405174E1,2.608605194E1,1.802895164E1,3.759421404E1
1.785003202E0,-2.280000114E1,2.666100121E1,1.860405159E1,3.970843453E1
1.786965953E0,-2.513805199E1,2.673705101E1,1.948500061E1,4.155065346E1
1.788928950E0,-2.716905212E1,2.650695038E1,1.952400017E1,4.268445143E1
1.790891874E0,-2.900895119E1,2.585595131E1,1.975395012E1,4.359206364E1
1.792854573E0,-3.031200218E1,2.505105209E1,2.017500114E1,4.419732298E1
1.794817338E0,-3.138495064E1,2.390100098E1,1.986900139E1,4.417069380E1
1.796780332E0,-3.222900009E1,2.275095177E1,1.940895081E1,4.396614180E1
1.798743259E0,-3.257400131E1,2.137095070E1,1.925505066E1,4.345733622E1
1.800706182E0,-3.257400131E1,1.999200058E1,1.917900085E1,4.276189568E1
1.802669107E0,-3.222900009E1,1.857299995E1,1.910205078E1,4.181570421E1
1.804631850E0,-3.134700203E1,1.700205040E1,1.948500061E1,4.063704594E1
1.806594646E0,-2.985195160E1,1.531605053E1,2.009895134E1,3.911122937E1
1.808557706E0,-2.778300095E1,1.362900066E1,2.067300034E1,3.721582652E1
1.810520702E0,-2.525295067E1,1.198095036E1,2.151705170E1,3.527376082E1
1.812483659E0,-2.245500183E1,1.010295010E1,2.236005020E1,3.326061564E1
1.814446627E0,-1.969500160E1,8.493000031E0,2.320305061E1,3.159755838E1
1.816409856E0,-1.751100159E1,7.152000427E0,2.374005127E1,3.035418128E1
1.818373009E0,-1.586295033E1,6.232050419E0,2.427600098E1,2.966135312E1
1.820336060E0,-1.452105045E1,5.350050449E0,2.458305168E1,2.904841435E1
1.822299151E0,-1.363995075E1,4.660050392E0,2.423805046E1,2.820013149E1
1.824262090E0,-1.275795078E1,4.276950359E0,2.381595039E1,2.735428862E1
1.826225074E0,-1.233705044E1,4.009050369E0,2.266605186E1,2.611561229E1
1.828187986E0,-1.195305061E1,3.817050219E0,2.132505035E1,2.474273760E1
1.830150920E0,-1.145505047E1,3.664050102E0,1.971495056E1,2.309378098E1
1.832113875E0,-1.126305008E1,3.586950064E0,1.806705093E1,2.159029498E1
1.834076800E0,-1.103295040E1,3.549000263E0,1.615095139E1,1.987899968E1
1.836039723E0,-1.091805077E1,3.664050102E0,1.396605110E1,1.810192473E1
1.838002646E0,-1.061205006E1,3.586950064E0,1.178100014E1,1.625649967E1
1.839965524E0,-1.045905018E1,3.357000113E0,9.903000832E0,1.478954380E1
1.841928415E0,-1.030500031E1,3.280950069E0,7.680000305E0,1.326424025E1
1.843891542E0,-1.018995094E1,3.204000235E0,5.725950241E0,1.211970395E1
1.845854586E0,-9.883950233E0,2.935950041E0,3.618000269E0,1.092713141E1
1.847817534E0,-9.691950798E0,3.319050074E0,1.777950048E0,1.039764926E1
1.849780511E0,-9.730050087E0,3.319050074E0,3.600000143E-1,1.028686386E1
1.851744145E0,-9.193950653E0,2.437050104E0,-8.659500480E-1,9.550801605E0
1.853707586E0,-8.619000435E0,1.326000094E0,-2.704950094E0,9.130290234E0
1.855670713E0,-8.695050240E0,1.939050078E0,-3.894000292E0,9.722502360E0
1.857633949E0,-8.197050095E0,1.671000123E0,-5.580000401E0,1.005585780E1
1.859596638E0,-7.929000378E0,1.363950014E0,-6.844950199E0,1.056327363E1
1.861559487E0,-7.584000587E0,1.326000094E0,-7.803000450E0,1.096185008E1
1.863522422E0,-7.086000443E0,1.173000097E0,-8.722949982E0,1.129943308E1
1.865485331E0,-6.778950214E0,1.057950020E0,-9.757950783E0,1.192858029E1
1.867448772E0,-6.241950512E0,8.280000687E-1,-1.017900085E1,1.196910977E1
1.869412075E0,-5.514000416E0,4.060500264E-1,-1.044795036E1,1.182069135E1
1.871375159E0,-4.939050198E0,2.140500098E-1,-1.037100029E1,1.148902438E1
1.873338308E0,-4.210950375E0,9.900000691E-2,-1.063905048E1,1.144252154E1
1.875302093E0,-3.636000156E0,-5.295000225E-2,-1.060095024E1,1.120729436E1
1.877265691E0,-2.985000134E0,-1.680000126E-1,-1.056300068E1,1.097795214E1
1.879228680E0,-2.140950203E0,-3.979500234E-1,-1.006395054E1,1.029685061E1
1.881191847E0,-1.068000078E0,-7.810500264E-1,-9.528000832E0,9.619431540E0
1.883154908E0,-3.299999982E-2,-8.959500194E-1,-8.646000862E0,8.692361379E0
1.885118001E0,5.410500169E-1,-1.048950076E0,-8.455050468E0,8.537031674E0
1.887081930E0,1.153950095E0,-1.356000066E0,-8.110050201E0,8.303207288E0
1.889045614E0,1.459950089E0,-1.585950017E0,-7.995000362E0,8.280502552E0
1.891008759E0,1.537050128E0,-1.738950133E0,-8.263050079E0,8.582800666E0
1.892972068E0,1.575000048E0,-1.969050050E0,-9.528000832E0,9.855992243E0
1.894935150E0,1.575000048E0,-2.314050198E0,-1.125195026E1,1.159490570E1
1.896898299E0,1.498950124E0,-2.544000149E0,-1.381995106E1,1.413187303E1
1.898861183E0,1.575000048E0,-2.926950216E0,-1.608195114E1,1.642183958E1
1.900824145E0,1.882050037E0,-3.924000263E0,-1.738500023E1,1.792144312E1
1.902787057E0,2.917050123E0,-5.994000435E0,-1.746195030E1,1.869109229E1
1.904749987E0,3.262050152E0,-7.297050476E0,-1.719300079E1,1.896014750E1
1.906712909E0,3.990000248E0,-8.599950790E0,-1.635000038E1,1.889978222E1
1.908675833E0,4.948050022E0,-9.787950516E0,-1.497000027E1,1.855769604E1
1.910638756E0,6.213000298E0,-1.055505085E1,-1.270905018E1,1.765022458E1
1.912601679E0,7.056000233E0,-1.124400043E1,-9.336000443E0,1.622885052E1
1.914564352E0,7.516050339E0,-1.181895065E1,-5.733000278E0,1.513426243E1
1.916527116E0,7.554000378E0,-1.216395092E1,-1.555950046E0,1.440297206E1
1.918489165E0,7.210050106E0,-1.243305016E1,2.812950134E0,1.464507587E1
1.920451424E0,6.481050491E0,-1.247100067E1,7.411950588E0,1.588920655E1
1.922414460E0,5.370000362E0,-1.247100067E1,1.185795021E1,1.802702818E1
1.924377268E0,4.603050232E0,-1.231800079E1,1.607400131E1,2.076763668E1
1.926340191E0,4.219950199E0,-1.212600040E1,1.975395012E1,2.355984743E1
1.928303094E0,3.529950142E0,-1.181895065E1,2.251305199E1,2.567071585E1
1.930266201E0,1.804950118E0,-1.143600082E1,2.400795174E1,2.665373719E1
1.932229248E0,1.192050099E0,-1.093800068E1,2.400795174E1,2.640913836E1
1.934191475E0,2.340000123E-1,-9.673050880E0,2.285805130E1,2.482162723E1
1.936153943E0,-1.413000107E0,-9.060000420E0,2.105700111E1,2.296687773E1
1.938116898E0,-2.677950144E0,-8.907000542E0,1.848900032E1,2.069659896E1
1.940079710E0,-3.981000185E0,-8.830050468E0,1.584405041E1,1.857019351E1
1.942042833E0,-5.131050110E0,-9.481050491E0,1.358295059E1,1.734112281E1
1.944005864E0,-6.856050491E0,-9.289950371E0,1.174305058E1,1.646838921E1
1.945969129E0,-8.044050217E0,-9.826050758E0,1.082295036E1,1.668515124E1
1.947932325E0,-9.193950653E0,-1.113000011E1,1.070805073E1,1.797409195E1
1.949895383E0,-9.807000160E0,-1.304595089E1,1.101495075E1,1.969018098E1
1.951858481E0,-1.018995094E1,-1.576695061E1,1.193505096E1,2.224583721E1
1.953821374E0,-1.015200043E1,-1.994505119E1,1.358295059E1,2.617947147E1
1.955784327E0,-9.577050209E0,-2.462100029E1,3.081000090E0,2.659710713E1
1.957747469E0,-1.107195091E1,-2.780205154E1,5.074050426E0,3.035272895E1
1.959710556E0,-1.252800083E1,-3.155805206E1,5.956050396E0,3.447224958E1
1.961673981E0,-1.413795090E1,-3.604199982E1,6.147000313E0,3.920067626E1
1.963637282E0,-1.570905113E1,-4.041195297E1,5.764050484E0,4.373927878E1
1.965601222E0,-1.774095154E1,-4.382295227E1,3.771000147E0,4.742797644E1
1.967564975E0,-1.931205177E1,-4.616100311E1,-9.900000691E-2,5.003801908E1
1.969527937E0,-2.034705162E1,-4.708095169E1,-3.012000084E0,5.137792003E1
1.971491131E0,-2.061495018E1,-4.642905045E1,-2.245050192E0,5.084951471E1
1.973453632E0,-1.981005096E1,-4.585395050E1,-6.105000153E-2,4.995024147E1
1.975416346E0,-1.762605095E1,-4.573905182E1,1.548000097E0,4.904217407E1
1.977379710E0,-1.448295116E1,-4.455105209E1,1.855050087E0,4.688276152E1
1.979342883E0,-1.095705032E1,-4.121700287E1,3.220500052E-1,4.264975959E1
1.981306620E0,-8.695050240E0,-3.700094986E1,-2.551950216E0,3.809444368E1
1.983270191E0,-7.813950539E0,-3.316800308E1,-5.848050117E0,3.457418027E1
1.985233350E0,-7.009050369E0,-3.010200119E1,-9.643050194E0,3.237662243E1
1.987196640E0,-6.127950191E0,-2.737995148E1,-1.286205101E1,3.086496189E1
1.989159725E0,-5.974050522E0,-2.485095024E1,-1.408905029E1,2.918493354E1
1.991122871E0,-6.357000351E0,-2.209095192E1,-1.209600067E1,2.597565865E1
1.993086070E0,-6.970950127E0,-1.940805054E1,-8.148000717E0,2.217332828E1
1.995049253E0,-7.431000233E0,-1.753005028E1,-4.392000198E0,1.954001261E1
1.997011296E0,-7.123950481E0,-1.641900063E1,-1.671000123E0,1.797571955E1
1.998973659E0,-6.664050102E0,-1.538400078E1,7.810500264E-1,1.678353607E1
2.000936812E0,-7.009050369E0,-1.411905098E1,2.698050022E0,1.599230632E1
2.002899734E0,-6.741000175E0,-1.258605099E1,4.537950039E0,1.498141360E1
2.004863018E0,-5.514000416E0,-1.201095104E1,5.572050095E0,1.434276430E1
2.006826196E0,-4.518000126E0,-1.158900070E1,6.876000404E0,1.421255234E1
2.008789076E0,-3.445050240E0,-1.132095051E1,7.948950291E0,1.425545868E1
2.010752044E0,-2.026050091E0,-1.132095051E1,9.289950371E0,1.478417997E1
2.012716085E0,-6.079500318E-1,-1.147395039E1,1.047795010E1,1.555019546E1
2.014679811E0,6.169500351E-1,-1.174305058E1,1.162800026E1,1.653754075E1
2.016643093E0,1.651950121E0,-1.181895065E1,1.270095062E1,1.742787080E1
2.018606505E0,2.649000168E0,-1.224105072E1,1.396605110E1,1.875929391E1
2.020569565E0,3.453000069E0,-1.247100067E1,1.507800102E1,1.986945349E1
2.022532731E0,3.798000097E0,-1.220295048E1,1.592100048E1,2.041604911E1
2.024495567E0,4.066950321E0,-1.208805084E1,1.664895058E1,2.097256812E1
2.026458500E0,4.527000427E0,-1.227900028E1,1.726200104E1,2.166204655E1
2.028421601E0,5.140050411E0,-1.262400055E1,1.760700035E1,2.226638654E1
2.030384652E0,5.983050346E0,-1.312305069E1,1.791405106E1,2.299836029E1
2.032347400E0,6.903000355E0,-1.365900040E1,1.818195152E1,2.376558577E1
2.034310251E0,7.669050217E0,-1.446405029E1,1.825905037E1,2.452378442E1
2.036273006E0,7.938000202E0,-1.538400078E1,1.875705147E1,2.552462158E1
2.038235789E0,7.324050426E0,-1.626495171E1,1.841205025E1,2.563579456E1
2.040198556E0,7.056000233E0,-1.749195099E1,1.818195152E1,2.619806958E1
2.042161328E0,7.554000378E0,-1.902495003E1,1.814400101E1,2.735354489E1
2.044124305E0,7.708050251E0,-1.986795044E1,1.806705093E1,2.793864390E1
2.046087201E0,7.669050217E0,-1.990695000E1,1.718595123E1,2.739448684E1
2.048050264E0,8.206049919E0,-2.048100090E1,1.569105053E1,2.707433692E1
2.050013278E0,9.126000404E0,-2.151600075E1,1.262505054E1,2.656339724E1
2.051976051E0,9.816000938E0,-2.350905037E1,9.481950760E0,2.718339040E1
2.053938895E0,1.004595089E1,-2.626905060E1,8.179050446E0,2.928960592E1
2.055901794E0,9.586050034E0,-2.933505058E1,6.876000404E0,3.161830055E1
2.057864671E0,9.700950623E0,-3.144300079E1,5.151000023E0,3.330620878E1
2.059827782E0,9.853950500E0,-3.355095291E1,3.618000269E0,3.515475370E1
2.061790825E0,1.012200069E1,-3.519900131E1,2.659050226E0,3.672186187E1
2.063754854E0,1.035195065E1,-3.623400116E1,1.050000072E0,3.769838488E1
2.065718594E0,1.092705059E1,-3.654104996E1,-1.210950017E0,3.815907712E1
2.067681685E0,1.177005100E1,-3.627195358E1,-3.088950157E0,3.825872881E1
2.069644972E0,1.230705070E1,-3.519900131E1,-4.621950150E0,3.757386876E1
2.071608058E0,1.222995090E1,-3.370395279E1,-6.615000248E0,3.645937960E1
2.073571203E0,1.180905056E1,-3.198000145E1,-8.569950104E0,3.515136146E1
2.075534268E0,1.111905098E1,-3.040800095E1,-1.017900085E1,3.393953262E1
2.077497357E0,1.058205032E1,-2.902800179E1,-1.205700016E1,3.316588503E1
2.079460440E0,1.027605057E1,-2.791695213E1,-1.359000111E1,3.270537512E1
2.081423519E0,9.777000427E0,-2.672895050E1,-1.489395046E1,3.212252002E1
2.083386416E0,8.436000824E0,-2.565600204E1,-1.592805099E1,3.135441531E1
2.085349366E0,6.558000088E0,-2.462100029E1,-1.631204987E1,3.025366079E1
2.087312284E0,5.101050377E0,-2.370105171E1,-1.604295158E1,2.907123772E1
2.089275212E0,3.760050297E0,-2.285805130E1,-1.546800041E1,2.785475766E1
2.091238318E0,2.494950056E0,-2.228295135E1,-1.508505058E1,2.702431216E1
2.093201369E0,1.384050012E0,-2.186100197E1,-1.454895115E1,2.629621610E1
2.095163370E0,5.410500169E-1,-2.155500031E1,-1.381995106E1,2.561058025E1
2.097125678E0,-5.700000525E-1,-2.113305092E1,-1.274700069E1,2.468636806E1
2.099088841E0,-1.642950058E0,-2.063505173E1,-1.144395065E1,2.365308968E1
2.101051753E0,-2.640000105E0,-2.002200127E1,-1.037100029E1,2.270259418E1
2.103014933E0,-3.520950079E0,-1.933200073E1,-9.489000320E0,2.182119311E1
2.104978013E0,-4.441050053E0,-1.856505013E1,-9.565950394E0,2.135161396E1
2.106941091E0,-5.476050377E0,-1.795200157E1,-1.048605061E1,2.149927314E1
2.108904169E0,-6.472050190E0,-1.729995155E1,-1.175100040E1,2.189204805E1
2.110867425E0,-7.201050282E0,-1.676399994E1,-1.316895103E1,2.250129086E1
2.112830628E0,-7.584000587E0,-1.618905067E1,-1.474005032E1,2.317048791E1
2.114793999E0,-8.044050217E0,-1.584405041E1,-1.608195114E1,2.396601406E1
2.116757321E0,-8.197050095E0,-1.576695061E1,-1.692495155E1,2.454062645E1
2.118720537E0,-8.197050095E0,-1.546095085E1,-1.765305138E1,2.485684723E1
2.120683784E0,-7.660950184E0,-1.530705070E1,-1.799805069E1,2.483799081E1
2.122646832E0,-6.741000175E0,-1.511595058E1,-1.807500076E1,2.450793133E1
2.124609938E0,-5.361000061E0,-1.519200039E1,-1.780605125E1,2.401234388E1
2.126572681E0,-3.445050240E0,-1.523100090E1,-1.723200035E1,2.325496927E1
2.128535540E0,-1.260000110E0,-1.515405083E1,-1.650300026E1,2.244062999E1
2.130499554E0,9.619500637E-1,-1.549905109E1,-1.558305073E1,2.199948642E1
2.132463230E0,3.223050117E0,-1.580505085E1,-1.462500095E1,2.177334006E1
2.134425980E0,5.178000450E0,-1.615005112E1,-1.359000111E1,2.173301566E1
2.136389001E0,6.750000477E0,-1.622700119E1,-1.274700069E1,2.171092123E1
2.138351892E0,7.975950241E0,-1.607400131E1,-1.175100040E1,2.144936621E1
2.140314832E0,9.049050331E0,-1.584405041E1,-1.106100082E1,2.133693943E1
2.142277796E0,9.853950500E0,-1.549905109E1,-1.033305073E1,2.107351092E1
2.144240753E0,1.065900040E1,-1.515405083E1,-9.834000587E0,2.097539305E1
2.146203851E0,1.150200081E1,-1.492395115E1,-9.336000443E0,2.102810607E1
2.148166907E0,1.215405083E1,-1.465605068E1,-8.838000298E0,2.099121298E1
2.150129770E0,1.291995049E1,-1.419600105E1,-8.608050346E0,2.103687470E1
2.152092717E0,1.376400089E1,-1.388895035E1,-8.148000717E0,2.118349778E1
2.154055591E0,1.449195099E1,-1.377405071E1,-7.573050499E0,2.137971493E1
2.156018487E0,1.514295101E1,-1.346700096E1,-6.730050087E0,2.135328205E1
2.157981638E0,1.575705051E1,-1.312305069E1,-5.925000191E0,2.134489933E1
2.159944715E0,1.636995125E1,-1.262400055E1,-4.927950382E0,2.125147968E1
2.161907573E0,1.686795044E1,-1.235595036E1,-3.817050219E0,2.125481436E1
2.163870492E0,1.725105095E1,-1.197300053E1,-2.322000027E0,2.112683565E1
2.165833100E0,1.786500168E1,-1.143600082E1,-1.287000060E0,2.125080631E1
2.167795799E0,1.847805023E1,-1.105305099E1,-1.369500011E-1,2.153200019E1
2.169757634E0,1.878404999E1,-1.070805073E1,1.050000072E0,2.164729508E1
2.171719722E0,1.901400185E1,-1.036305046E1,1.816050053E0,2.173069531E1
2.173682977E0,1.905300140E1,-9.787950516E0,2.773950100E0,2.159897305E1
2.175645883E0,1.920600128E1,-9.250950813E0,3.043050051E0,2.153394367E1
2.177608495E0,1.912905121E1,-8.752950668E0,3.886050224E0,2.139243165E1
2.179571193E0,1.920600128E1,-8.101950645E0,4.461000443E0,2.131695603E1
2.181534289E0,1.932105064E1,-7.411950588E0,4.768050194E0,2.123615578E1
2.183497268E0,1.920600128E1,-6.721950531E0,4.729050159E0,2.089064431E1
2.185460192E0,1.893795013E1,-5.955000401E0,4.269000053E0,2.030596825E1
2.187423126E0,1.886100006E1,-5.419050217E0,3.694050074E0,1.996871139E1
2.189386272E0,1.882305145E1,-4.843950272E0,2.851050138E0,1.964432761E1
2.191349355E0,1.886100006E1,-4.269000053E0,1.165050030E0,1.937315220E1
2.193313332E0,1.874595070E1,-3.924000263E0,-9.040500522E-1,1.917356910E1
2.195277047E0,1.870800018E1,-3.579000235E0,-3.165000200E0,1.930843701E1
2.197239849E0,1.836300087E1,-3.196050167E0,-5.005050182E0,1.929935400E1
2.199202909E0,1.817100143E1,-2.620950222E0,-7.075050354E0,1.967513687E1
2.201165764E0,1.778805161E1,-2.314050198E0,-8.838000298E0,1.999699621E1
2.203128679E0,1.732800102E1,-1.816050053E0,-1.056300068E1,2.037485314E1
2.205091602E0,1.656105042E1,-1.471050024E0,-1.182705021E1,2.040371279E1
2.207054523E0,1.579500103E1,-1.048950076E0,-1.290105057E1,2.042105432E1
2.209017142E0,1.468305111E1,-5.890500546E-1,-1.297695065E1,1.960459686E1
2.210979842E0,1.376400089E1,-3.210000098E-1,-1.316895103E1,1.905182492E1
2.212942937E0,1.280505085E1,-2.059500068E-1,-1.278600025E1,1.809678273E1
2.214905917E0,1.203900051E1,-2.059500068E-1,-1.205700016E1,1.703969488E1
2.216868516E0,1.108095074E1,-2.059500068E-1,-1.121400070E1,1.576653724E1
2.218831227E0,9.853950500E0,-3.210000098E-1,-1.048605061E1,1.439307607E1
2.220794190E0,8.436000824E0,-5.509500504E-1,-9.144000053E0,1.245320813E1
2.222757076E0,7.095000267E0,-8.190000653E-1,-7.495950222E0,1.035369787E1
2.224720186E0,5.905950069E0,-1.240950108E0,-5.733000278E0,8.323911075E0
2.226683230E0,4.987050056E0,-1.548000097E0,-3.702000141E0,6.400920060E0
2.228645232E0,4.258049965E0,-1.777950048E0,-1.363950014E0,4.811699858E0
2.230607540E0,3.492000103E0,-1.893000126E0,9.349500537E-1,4.080642817E0
2.232570733E0,2.839950085E0,-2.083950043E0,3.004050255E0,4.629522891E0
2.234533677E0,2.149950027E0,-2.083950043E0,4.614000320E0,5.500375611E0
2.236496597E0,1.345050097E0,-2.122950077E0,5.917050362E0,6.428651630E0
2.238459525E0,1.000050068E0,-2.199000120E0,6.837000370E0,7.251225809E0
2.240421546E0,6.940500140E-1,-2.314050198E0,7.219950199E0,7.613423318E0
2.242383833E0,1.570500135E-1,-2.314050198E0,7.105050564E0,7.474037499E0
2.244346709E0,-1.099500060E-1,-2.391000032E0,6.646050453E0,7.063919364E0
2.246309394E0,-4.170000255E-1,-2.506050110E0,5.956050396E0,6.475238412E0
2.248272313E0,-6.079500318E-1,-2.581950188E0,5.035950184E0,5.691824336E0
2.250235163E0,-7.999500632E-1,-2.773950100E0,3.963000298E0,4.903069510E0
2.252198144E0,-1.183050036E0,-2.926950216E0,2.620950222E0,4.103172556E0
2.254161086E0,-1.375050068E0,-3.042000055E0,1.395000100E0,3.618086829E0
2.256125057E0,-1.681950092E0,-3.042000055E0,2.830500007E-1,3.487526022E0
2.258088716E0,-2.065050125E0,-3.042000055E0,-1.018950105E0,3.815292344E0
2.260051514E0,-2.410050154E0,-3.118950129E0,-2.437050104E0,4.634156326E0
2.262014564E0,-2.524950027E0,-3.349050045E0,-3.702000141E0,5.594310850E0
2.263977645E0,-2.448000193E0,-3.655950069E0,-4.852050304E0,6.549890687E0
2.265940716E0,-2.256000042E0,-4.153950214E0,-5.695050240E0,7.401245558E0
2.267903950E0,-2.026050091E0,-4.537050247E0,-6.001950264E0,7.791861837E0
2.269867153E0,-1.720050097E0,-5.112000465E0,-5.695050240E0,7.843769395E0
2.271830029E0,-1.297950029E0,-5.764050484E0,-4.774950027E0,7.596650579E0
2.273793001E0,-8.380500674E-1,-6.339000225E0,-3.204000235E0,7.151983590E0
2.275755781E0,-4.549500346E-1,-6.952050209E0,-1.402050018E0,7.106597350E0
2.277718617E0,-7.200000435E-2,-7.488000393E0,2.449500114E-1,7.492351726E0
2.279681734E0,8.089500666E-1,-7.872000217E0,1.663050056E0,8.086317031E0
2.281644769E0,1.384050012E0,-8.101950645E0,2.698050022E0,8.650819188E0
2.283607493E0,1.996950150E0,-8.944950104E0,3.234000206E0,9.718986552E0
2.285570309E0,2.494950056E0,-9.634950638E0,3.349050045E0,1.050110403E1
2.287533430E0,2.992950201E0,-1.047795010E1,3.118950129E0,1.133459479E1
2.289496461E0,3.568050146E0,-1.155105019E1,2.545050144E0,1.235455473E1
2.291459482E0,4.258049965E0,-1.312305069E1,2.200050116E0,1.397088649E1
2.293422519E0,4.833000183E0,-1.473195076E1,2.698050022E0,1.573746288E1
2.295385424E0,5.715000153E0,-1.653404999E1,4.498950005E0,1.806312783E1
2.297348367E0,6.328050137E0,-1.825800133E1,6.721950531E0,2.045931206E1
2.299311107E0,7.285950184E0,-2.032800102E1,8.370000839E0,2.315965478E1
2.301273906E0,8.896050453E0,-2.251305199E1,9.750000000E0,2.609673779E1
2.303236709E0,1.058205032E1,-2.347095108E1,9.673050880E0,2.750333156E1
2.305199514E0,1.161705017E1,-2.508105087E1,8.485050201E0,2.891385558E1
2.307162638E0,1.261395073E1,-2.795505142E1,6.760950089E0,3.140552657E1
2.309125668E0,1.403205109E1,-3.106005096E1,4.843950272E0,3.442512277E1
2.311089654E0,1.560300064E1,-3.443295288E1,2.275950193E0,3.787164932E1
2.313053360E0,1.690605164E1,-3.795900345E1,-5.590500236E-1,4.155734666E1
2.315016285E0,1.774995041E1,-4.133205032E1,-4.276950359E0,4.518507970E1
2.316979439E0,1.717500114E1,-4.416795349E1,-6.730050087E0,4.786525205E1
2.318942503E0,1.636995125E1,-4.673595047E1,-8.340000153E0,5.021732742E1
2.320905593E0,1.575705051E1,-4.980195236E1,-8.608050346E0,5.293975473E1
2.322868668E0,1.479795074E1,-5.294505310E1,-8.569950104E0,5.563813475E1
2.324831747E0,1.357200050E1,-5.536005402E1,-9.067950249E0,5.771622389E1
2.326794834E0,1.230705070E1,-5.773605347E1,-9.067950249E0,5.972556478E1
2.328757911E0,1.138695049E1,-5.907705307E1,-7.420050144E0,6.062027701E1
2.330720988E0,1.050600052E1,-6.095505142E1,-7.803000450E0,6.234405470E1
2.332684065E0,9.126000404E0,-6.264195251E1,-1.060095024E1,6.418471971E1
2.334647007E0,6.520050526E0,-6.367695236E1,-1.454895115E1,6.564249615E1
2.336609988E0,3.031950235E0,-6.382995224E1,-1.864995003E1,6.656783128E1
2.338572164E0,-6.079500318E-1,-6.367695236E1,-2.198400116E1,6.736779774E1
2.340534555E0,-3.943050146E0,-6.382995224E1,-2.508900070E1,6.869693154E1
2.342497388E0,-6.931950092E0,-6.402194977E1,-2.635395050E1,6.958011707E1
2.344460092E0,-9.001950264E0,-6.398295212E1,-2.639205170E1,6.979536993E1
2.346423053E0,-1.015200043E1,-6.398295212E1,-2.393895149E1,6.906485845E1
2.348385938E0,-1.080300045E1,-6.337005234E1,-1.964595032E1,6.721928083E1
2.350348882E0,-1.111005020E1,-6.325500488E1,-1.454895115E1,6.585059482E1
2.352311798E0,-1.203000069E1,-6.241200256E1,-1.002600002E1,6.434671442E1
2.354274722E0,-1.275795078E1,-6.126195145E1,-5.887050152E0,6.285260029E1
2.356237644E0,-1.329495049E1,-6.034200287E1,-1.479000092E0,6.180696126E1
2.358199847E0,-1.306500053E1,-5.873205185E1,1.893000126E0,6.019743851E1
2.360162261E0,-1.260495090E1,-5.716095352E1,4.806000233E0,5.873122707E1
2.362125290E0,-1.245195103E1,-5.536005402E1,6.301050186E0,5.709194250E1
2.364088125E0,-1.195305061E1,-5.344305420E1,7.411950588E0,5.526275846E1
2.366051108E0,-1.049700069E1,-5.079900360E1,7.144050121E0,5.236184911E1
2.368014048E0,-8.542050362E0,-4.780905151E1,6.952050209E0,4.906121720E1
2.369977103E0,-7.966950417E0,-4.639095306E1,6.876000404E0,4.756965636E1
2.371940125E0,-8.121000290E0,-4.263495255E1,6.109050274E0,4.382933173E1
2.373903053E0,-8.656949997E0,-3.907005310E1,5.304000378E0,4.036761391E1
2.375866026E0,-8.848950386E0,-3.573600006E1,4.959000111E0,3.714777659E1
2.377829075E0,-8.656949997E0,-3.293805313E1,4.921050072E0,3.441038885E1
2.379792101E0,-8.311950684E0,-3.071505165E1,5.188950062E0,3.224016323E1
2.381755007E0,-7.737000465E0,-2.841495132E1,5.686950207E0,2.999353326E1
2.383717949E0,-6.894000530E0,-2.669100189E1,6.531000137E0,2.833003332E1
2.385681043E0,-5.898000240E0,-2.508105087E1,7.489050388E0,2.683153733E1
2.387644096E0,-4.441050053E0,-2.408400154E1,9.098999977E0,2.612573169E1
2.389607222E0,-2.830950022E0,-2.301105118E1,1.021005058E1,2.533313812E1
2.391570326E0,-1.681950092E0,-2.243595123E1,1.074705029E1,2.493391172E1
2.393533220E0,-1.260000110E0,-2.178495026E1,1.105305099E1,2.446102194E1
2.395496175E0,-1.260000110E0,-2.078805161E1,1.124505043E1,2.366816108E1
2.397459227E0,-1.336950064E0,-1.979205132E1,1.139805031E1,2.287855506E1
2.399422250E0,-1.375050068E0,-1.879500008E1,1.159005070E1,2.212401559E1
2.401385202E0,-1.834950089E0,-1.783695030E1,1.193505096E1,2.153994613E1
2.403348175E0,-2.332950115E0,-1.687905121E1,1.220295048E1,2.095845954E1
2.405311224E0,-2.869950056E0,-1.588200092E1,1.266300106E1,2.051404793E1
2.407274250E0,-3.175950050E0,-1.496205044E1,1.304595089E1,2.010339391E1
2.409236986E0,-3.291000128E0,-1.408095074E1,1.346805096E1,1.976087680E1
2.411199800E0,-3.790050268E0,-1.304595089E1,1.377405071E1,1.934646709E1
2.413162561E0,-4.134000301E0,-1.204905033E1,1.385100079E1,1.881807097E1
2.415125338E0,-4.747950077E0,-1.090005016E1,1.385100079E1,1.825388579E1
2.417088106E0,-5.323050022E0,-9.481050491E0,1.392795086E1,1.766954994E1
2.419050877E0,-5.743950367E0,-7.948050499E0,1.434900093E1,1.737982452E1
2.421013655E0,-6.433950424E0,-5.878950119E0,1.496295071E1,1.731611003E1
2.422976424E0,-7.047000408E0,-3.847050190E0,1.519305038E1,1.718396898E1
2.424938337E0,-7.507050514E0,-2.046000004E0,1.477095032E1,1.669499616E1
2.426900501E0,-7.813950539E0,1.759500057E-1,1.457895088E1,1.654190407E1
2.428863148E0,-8.005949974E0,2.131050110E0,1.446405029E1,1.666869402E1
2.430825653E0,-8.389050484E0,4.009050369E0,1.488600063E1,1.755111585E1
2.432788644E0,-8.772000313E0,6.385050297E0,1.488600063E1,1.842036568E1
2.434751495E0,-9.001950264E0,8.493000031E0,1.457895088E1,1.912359712E1
2.436714836E0,-9.079050064E0,1.029495049E1,1.438800049E1,1.988541459E1
2.438678034E0,-9.270000458E0,1.247895050E1,1.366005039E1,2.069430093E1
2.440640866E0,-9.577050209E0,1.443405056E1,1.323795033E1,2.180149158E1
2.442603805E0,-8.925000191E0,1.397400093E1,1.239495087E1,2.070176653E1
2.444566188E0,-1.003695011E1,1.627395058E1,1.201095104E1,2.257974269E1
2.446528732E0,-1.114800072E1,1.838205147E1,1.239495087E1,2.481557058E1
2.448491359E0,-1.225995064E1,2.010600090E1,1.243305016E1,2.662965261E1
2.450453961E0,-1.394595051E1,2.171595192E1,1.231800079E1,2.859729440E1
2.452416624E0,-1.574805069E1,2.301900101E1,1.262505054E1,3.061482336E1
2.454379269E0,-1.789395142E1,2.393895149E1,1.270095062E1,3.247431358E1
2.456342409E0,-1.973400116E1,2.459100151E1,1.312305069E1,3.415205142E1
2.458305380E0,-2.149695015E1,2.512695122E1,1.377405071E1,3.582187902E1
2.460268341E0,-2.318295097E1,2.543400192E1,1.404300022E1,3.716912058E1
2.462231305E0,-2.433300209E1,2.543400192E1,1.488600063E1,3.821748892E1
2.464194221E0,-2.563605118E1,2.528100204E1,1.523100090E1,3.909372805E1
2.466157151E0,-2.678595161E1,2.497395134E1,1.492395115E1,3.954629903E1
2.468119726E0,-2.762895203E1,2.439900208E1,1.454100037E1,3.962462598E1
2.470082396E0,-2.808900070E1,2.359395027E1,1.400400066E1,3.926548719E1
2.472045316E0,-2.820405197E1,2.240595055E1,1.358295059E1,3.849664549E1
2.474008163E0,-2.805105209E1,2.133300018E1,1.281600094E1,3.749944400E1
2.475971280E0,-2.743800163E1,1.999200058E1,1.212600040E1,3.604946472E1
2.477934317E0,-2.647905159E1,1.857299995E1,1.212600040E1,3.454180635E1
2.479897411E0,-2.490795135E1,1.700205040E1,1.243305016E1,3.261987883E1
2.481860481E0,-2.295300102E1,1.566000080E1,1.270095062E1,3.055143250E1
2.483823425E0,-2.103705025E1,1.428105068E1,1.285500050E1,2.849134833E1
2.485786406E0,-1.900605011E1,1.297800064E1,1.381305027E1,2.684136359E1
2.487749274E0,-1.724295044E1,1.186605072E1,1.473300076E1,2.559655857E1
2.489712175E0,-1.590105057E1,1.090800095E1,1.569105053E1,2.486034916E1
2.491674945E0,-1.459800053E1,9.910950661E0,1.703205109E1,2.452385220E1
2.493637737E0,-1.344795036E1,9.067950249E0,1.806705093E1,2.427948558E1
2.495600187E0,-1.256700039E1,8.416950226E0,1.906395149E1,2.433534048E1
2.497562737E0,-1.183800030E1,7.842000484E0,1.967700005E1,2.426560433E1
2.499525498E0,-1.122495079E1,7.152000427E0,1.990695000E1,2.394655066E1
2.501488197E0,-1.061205006E1,6.385050297E0,1.960005188E1,2.318504922E1
2.503451009E0,-9.999000549E0,5.619000435E0,1.894905090E1,2.214993698E1
2.505413798E0,-9.499950409E0,5.044050217E0,1.802895164E1,2.099367995E1
2.507376520E0,-9.079050064E0,4.431000233E0,1.672605133E1,1.954030978E1
2.509339262E0,-8.848950386E0,3.931950092E0,1.538400078E1,1.817777859E1
2.511301901E0,-8.848950386E0,3.472050190E0,1.415805054E1,1.705313609E1
2.513264570E0,-8.809950829E0,3.088950157E0,1.270095062E1,1.576296271E1
2.515227520E0,-8.656949997E0,2.706000090E0,1.120695019E1,1.441738368E1
2.517190399E0,-8.887050629E0,2.437050104E0,9.442950249E0,1.319424842E1
2.519153330E0,-8.809950829E0,2.131050110E0,8.064000130E0,1.213197042E1
2.521116245E0,-8.809950829E0,1.900950074E0,6.301050186E0,1.099691221E1
2.523079350E0,-8.734050751E0,1.555950046E0,4.806000233E0,1.008971066E1
2.525042399E0,-8.772000313E0,1.288050056E0,3.196050167E0,9.424531771E0
2.527005428E0,-8.695050240E0,1.096050024E0,1.548000097E0,8.899524067E0
2.528968469E0,-8.274000168E0,6.739500165E-1,4.750500321E-1,8.314984061E0
2.530931956E0,-8.464950562E0,3.679500222E-1,-1.249050021E0,8.564514066E0
2.532895313E0,-7.891050339E0,1.018950105E0,-2.704950094E0,8.403790203E0
2.534858883E0,-7.315950394E0,-5.509500504E-1,-3.664050102E0,8.200727972E0
2.536822390E0,-7.162050247E0,-1.663050056E0,-4.162050247E0,8.448867468E0
2.538785344E0,-6.741000175E0,-1.432950020E0,-5.311950207E0,8.701220841E0
2.540748464E0,-6.241950512E0,-1.816050053E0,-6.040050507E0,8.873679852E0
2.542711173E0,-5.859000206E0,-1.930950046E0,-6.921000481E0,9.271283576E0
2.544674002E0,-5.553000450E0,-1.816050053E0,-7.228050232E0,9.294006776E0
2.546636940E0,-5.208000183E0,-1.663050056E0,-7.726050377E0,9.464716362E0
2.548599846E0,-4.900950432E0,-1.548000097E0,-7.956000328E0,9.471724271E0
2.550563128E0,-4.518000126E0,-1.548000097E0,-7.840950489E0,9.180911393E0
2.552526303E0,-3.981000185E0,-1.701000094E0,-7.687950134E0,8.823057353E0
2.554489543E0,-3.445050240E0,-1.777950048E0,-7.534950256E0,8.473780319E0
2.556452764E0,-2.908050060E0,-1.893000126E0,-7.150950432E0,7.948351823E0
2.558415862E0,-2.371050119E0,-2.083950043E0,-6.768000126E0,7.467968409E0
2.560378997E0,-1.795950055E0,-2.314050198E0,-6.423000336E0,7.059404949E0
2.562342243E0,-1.297950029E0,-2.620950222E0,-6.078000069E0,6.745082593E0
2.564305457E0,-9.150000215E-1,-2.965950251E0,-6.270000458E0,6.996212666E0
2.566268512E0,-6.850500107E-1,-3.502050161E0,-6.691050529E0,7.583126403E0
2.568231613E0,-7.620000243E-1,-3.924000263E0,-7.458000183E0,8.461689479E0
2.570194865E0,-1.144950032E0,-4.384050369E0,-8.875950813E0,9.965606407E0
2.572158072E0,-1.413000107E0,-5.304000378E0,-1.029405022E1,1.166603871E1
2.574121307E0,-1.452000022E0,-6.568950176E0,-1.205700016E1,1.380690636E1
2.576084534E0,-1.183050036E0,-8.332050323E0,-1.420395088E1,1.650984224E1
2.578048667E0,-6.850500107E-1,-1.001805019E1,-1.654200172E1,1.935118715E1
2.580012534E0,9.619500637E-1,-1.086105061E1,-1.838100052E1,2.137168567E1
2.581975656E0,2.111999989E0,-1.155105019E1,-1.884105110E1,2.220073222E1
2.583938997E0,3.262050152E0,-1.266300106E1,-1.761495018E1,2.193807277E1
2.585901965E0,4.105050087E0,-1.377405071E1,-1.527705097E1,2.097532349E1
2.587865055E0,4.642050266E0,-1.488600063E1,-1.236405087E1,1.990003516E1
2.589828354E0,4.948050022E0,-1.588200092E1,-9.451050758E0,1.913226366E1
2.591791592E0,5.140050411E0,-1.672500038E1,-6.652950287E0,1.871917476E1
2.593754957E0,5.407950401E0,-1.741500092E1,-4.162050247E0,1.870430022E1
2.595718284E0,5.101050377E0,-1.779900169E1,-1.747050047E0,1.859777836E1
2.597680628E0,4.795050144E0,-1.829700089E1,2.830500007E-1,1.891699935E1
2.599643271E0,4.411950111E0,-1.852695084E1,2.583000183E0,1.921939388E1
2.601606557E0,4.066950321E0,-1.864200020E1,5.533950329E0,1.986677786E1
2.603569654E0,3.760050297E0,-1.845000076E1,8.179050446E0,2.052893988E1
2.605532907E0,3.721950293E0,-1.798995018E1,1.090005016E1,2.136123393E1
2.607496115E0,3.262050152E0,-1.722405052E1,1.323795033E1,2.196707118E1
2.609458680E0,2.917050123E0,-1.626495171E1,1.572900105E1,2.281357730E1
2.611421430E0,3.492000103E0,-1.277805042E1,1.703205109E1,2.157691826E1
2.613384517E0,2.533950090E0,-1.178100014E1,1.818195152E1,2.181275380E1
2.615347505E0,1.498950124E0,-1.055505085E1,1.837395096E1,2.124283464E1
2.617309697E0,5.790000558E-1,-9.520050049E0,1.772205162E1,2.012554863E1
2.619272122E0,-4.549500346E-1,-8.485050201E0,1.641900063E1,1.848747246E1
2.621235149E0,-1.183050036E0,-7.603050232E0,1.492395115E1,1.679078015E1
2.623198018E0,-1.873050094E0,-7.258050442E0,1.342995071E1,1.538022071E1
2.625160772E0,-3.406050205E0,-5.839950085E0,1.228005028E1,1.401805371E1
2.627123559E0,-4.210950375E0,-4.843950272E0,1.086195087E1,1.261657379E1
2.629086640E0,-5.208000183E0,-4.614000320E0,9.252000809E0,1.157634588E1
2.631049634E0,-6.013050079E0,-5.112000465E0,7.603950500E0,1.095944265E1
2.633012770E0,-6.433950424E0,-6.147000313E0,6.607050419E0,1.108307025E1
2.634975864E0,-6.894000530E0,-7.603050232E0,6.109050274E0,1.194378966E1
2.636938894E0,-6.817050457E0,-9.520050049E0,8.485050201E0,1.446027686E1
2.638901943E0,-6.204000473E0,-1.235595036E1,1.308495045E1,1.903615138E1
2.640864889E0,-5.859000206E0,-1.676399994E1,2.032905006E1,2.699314457E1
2.642827866E0,-5.169000149E0,-2.285805130E1,1.304595089E1,2.682174316E1
2.644790914E0,-6.319050312E0,-2.684400177E1,-1.018950105E0,2.759654122E1
2.646753941E0,-9.499950409E0,-2.830005074E1,6.339000225E0,3.051761546E1
2.648716893E0,-1.061205006E1,-3.209505081E1,3.196050167E0,3.395471440E1
2.650679867E0,-1.260495090E1,-3.577395248E1,5.130000114E-1,3.793314689E1
2.652643501E0,-1.513395119E1,-3.857205200E1,-3.049950123E0,4.154686354E1
2.654606941E0,-1.731900024E1,-4.045005035E1,-7.075050354E0,4.456692362E1
2.656570122E0,-1.950405121E1,-4.068000031E1,-7.228050232E0,4.568933298E1
2.658533390E0,-2.272305107E1,-3.792000198E1,-4.507050037E0,4.443621384E1
2.660495713E0,-2.490795135E1,-3.408795166E1,-1.516950130E0,4.224565808E1
2.662458313E0,-2.513805199E1,-3.370395279E1,2.659050226E0,4.213013932E1
2.664421786E0,-2.437095070E1,-3.205605316E1,6.454050541E0,4.078220875E1
2.666385003E0,-2.134395027E1,-2.922000122E1,7.642050266E0,3.698342354E1
2.668347887E0,-1.758705139E1,-2.653695107E1,6.721950531E0,3.253765154E1
2.670310862E0,-1.410000038E1,-2.446800041E1,5.649000168E0,2.879937947E1
2.672274000E0,-1.149300098E1,-2.316405106E1,3.388050079E0,2.607951718E1
2.674237090E0,-9.346950531E0,-2.201505089E1,5.899500251E-1,2.392438068E1
2.676201066E0,-7.621950150E0,-2.063505173E1,-1.057050109E0,2.202309785E1
2.678164783E0,-5.437950134E0,-1.944705009E1,-1.900950074E0,2.028232408E1
2.680127717E0,-4.288050175E0,-1.798995018E1,-2.014950037E0,1.860337887E1
2.682090905E0,-3.828000069E0,-1.653404999E1,-1.479000092E0,1.703572232E1
2.684054097E0,-3.981000185E0,-1.542195034E1,-1.171950102E0,1.597054732E1
2.686017287E0,-4.708950043E0,-1.354395103E1,-7.890000343E-1,1.436089625E1
2.687980346E0,-4.518000126E0,-1.365900040E1,-5.590500236E-1,1.439767877E1
2.689943443E0,-4.096050262E0,-1.400400066E1,-5.590500236E-1,1.460144511E1
2.691905684E0,-3.520950079E0,-1.411905098E1,1.500000060E-2,1.455145749E1
2.693868159E0,-2.485950232E0,-1.392705059E1,1.240950108E0,1.420150147E1
2.695831519E0,-1.528050065E0,-1.342905045E1,2.736000061E0,1.378985240E1
2.697794619E0,-6.850500107E-1,-1.308405018E1,4.653000355E0,1.390367127E1
2.699758593E0,8.100000024E-2,-1.273905087E1,6.646050453E0,1.436871478E1
2.701722311E0,8.470500112E-1,-1.258605099E1,8.179050446E0,1.503406264E1
2.703685253E0,1.575000048E0,-1.273905087E1,9.558000565E0,1.600373134E1
2.705648409E0,1.959000111E0,-1.312305069E1,1.082295036E1,1.712274497E1
2.707611517E0,3.031950235E0,-1.316100025E1,1.185795021E1,1.797263567E1
2.709574640E0,3.874950171E0,-1.331400108E1,1.293105030E1,1.896021955E1
2.711537529E0,4.948050022E0,-1.381200027E1,1.396605110E1,2.025599008E1
2.713500486E0,5.752950191E0,-1.419600105E1,1.465605068E1,2.119959206E1
2.715463588E0,6.213000298E0,-1.461705112E1,1.511595058E1,2.192604657E1
2.717426643E0,6.673050404E0,-1.515405083E1,1.538400078E1,2.260182157E1
2.719389544E0,7.210050106E0,-1.580505085E1,1.542300034E1,2.323044111E1
2.721352491E0,7.938000202E0,-1.649505043E1,1.534605026E1,2.388723078E1
2.723315410E0,8.282999992E0,-1.710900116E1,1.519305038E1,2.433423082E1
2.725278337E0,8.473950386E0,-1.756905174E1,1.450305080E1,2.430674591E1
2.727241094E0,8.512949944E0,-1.818195152E1,1.415805054E1,2.456631989E1
2.729203891E0,8.398050308E0,-1.883295059E1,1.434900093E1,2.512172575E1
2.731166835E0,8.934000015E0,-1.925505066E1,1.473300076E1,2.583862696E1
2.733129735E0,9.931050301E0,-1.975305176E1,1.523100090E1,2.684757349E1
2.735092662E0,1.042905045E1,-2.044305038E1,1.530795097E1,2.758653232E1
2.737055581E0,9.739050865E0,-2.094105148E1,1.281600094E1,2.641262253E1
2.739018625E0,8.167950630E0,-2.247405052E1,9.750000000E0,2.582364932E1
2.740981643E0,7.783950329E0,-2.615400124E1,8.754000664E0,2.865753288E1
2.742944911E0,8.282999992E0,-2.887500191E1,7.948950291E0,3.107345547E1
2.744908105E0,8.589000702E0,-3.082995224E1,7.105050564E0,3.278320655E1
2.746871387E0,8.665950775E0,-3.217095184E1,7.258950233E0,3.409928451E1
2.748834643E0,8.781000137E0,-3.289995193E1,7.297050476E0,3.482470023E1
2.750797669E0,8.857950211E0,-3.332100296E1,6.684000492E0,3.512019907E1
2.752760746E0,8.781000137E0,-3.336000061E1,5.112000465E0,3.487302902E1
2.754724723E0,8.665950775E0,-3.289995193E1,2.659050226E0,3.412588590E1
2.756688436E0,8.818950653E0,-3.209505081E1,-6.105000153E-2,3.328467972E1
2.758651270E0,9.126000404E0,-3.121305084E1,-2.859000206E0,3.264524940E1
2.760614361E0,9.586050034E0,-3.021705055E1,-5.580000401E0,3.218849024E1
2.762577395E0,9.816000938E0,-2.918205070E1,-8.224950790E0,3.186841341E1
2.764540443E0,9.318000793E0,-2.826195145E1,-1.113705063E1,3.177415514E1
2.766503344E0,7.630950451E0,-2.730405045E1,-1.439505100E1,3.179559826E1
2.768466289E0,5.599950314E0,-2.638395119E1,-1.711695099E1,3.194467616E1
2.770429028E0,3.837000132E0,-2.538705063E1,-1.899495125E1,3.193795677E1
2.772391828E0,2.457000017E0,-2.465895081E1,-2.025900078E1,3.200824607E1
2.774353890E0,1.153950095E0,-2.385405159E1,-2.133300018E1,3.202255884E1
2.776316155E0,-7.200000435E-2,-2.304900169E1,-2.175405121E1,3.169385441E1
2.778279190E0,-1.183050036E0,-2.228295135E1,-2.140905190E1,3.092372926E1
2.780241999E0,-2.218050003E0,-2.155500031E1,-2.060400009E1,2.990087965E1
2.782204762E0,-3.214950085E0,-2.067300034E1,-1.914795113E1,2.836111562E1
2.784167539E0,-4.018949986E0,-1.994505119E1,-1.753800011E1,2.686146820E1
2.786130550E0,-4.786050320E0,-1.910205078E1,-1.612005043E1,2.544898127E1
2.788093479E0,-5.284050465E0,-1.856505013E1,-1.481700039E1,2.433363466E1
2.790056717E0,-5.629050255E0,-1.806705093E1,-1.393500042E1,2.350082494E1
2.792019864E0,-5.782950401E0,-1.779900169E1,-1.328400040E1,2.295019920E1
2.793982795E0,-5.668050289E0,-1.760700035E1,-1.305405045E1,2.263937915E1
2.795945789E0,-5.782950401E0,-1.729995155E1,-1.320705032E1,2.252014692E1
2.797908865E0,-5.514000416E0,-1.714695168E1,-1.401195049E1,2.282009879E1
2.799871927E0,-5.169000149E0,-1.703205109E1,-1.443405056E1,2.291617643E1
2.801834827E0,-4.518000126E0,-1.703205109E1,-1.512405109E1,2.322154196E1
2.803797775E0,-3.598050117E0,-1.703205109E1,-1.581300068E1,2.351781706E1
2.805760828E0,-2.371050119E0,-1.722405052E1,-1.619700050E1,2.376199950E1
2.807723850E0,-7.999500632E-1,-1.737705040E1,-1.635000038E1,2.387308763E1
2.809687522E0,8.850000501E-1,-1.756905174E1,-1.635000038E1,2.401618864E1
2.811651004E0,2.610000134E0,-1.768395042E1,-1.615800095E1,2.409595812E1
2.813613967E0,4.488000393E0,-1.787505150E1,-1.577505112E1,2.425926321E1
2.815577083E0,6.213000298E0,-1.783695030E1,-1.523895073E1,2.426898820E1
2.817539837E0,7.822950363E0,-1.783695030E1,-1.458705044E1,2.433387328E1
2.819502698E0,9.279000282E0,-1.764495087E1,-1.389705086E1,2.430169047E1
2.821465602E0,1.062105083E1,-1.745400047E1,-1.301595020E1,2.422527220E1
2.823428513E0,1.169400024E1,-1.707000160E1,-1.213395023E1,2.398681606E1
2.825391259E0,1.261395073E1,-1.649505043E1,-1.163595009E1,2.380323037E1
2.827354054E0,1.326495075E1,-1.584405041E1,-1.083105087E1,2.333033465E1
2.829317133E0,1.403205109E1,-1.503900051E1,-1.021800041E1,2.296687890E1
2.831280129E0,1.460700035E1,-1.431105042E1,-9.643050194E0,2.260882660E1
2.833242865E0,1.506705093E1,-1.365900040E1,-8.914050102E0,2.220460774E1
2.835205674E0,1.567995071E1,-1.323795033E1,-8.224950790E0,2.210778141E1
2.837168256E0,1.617794991E1,-1.258605099E1,-7.458000183E0,2.181184333E1
2.839130905E0,1.682999992E1,-1.197300053E1,-6.730050087E0,2.172314925E1
2.841093515E0,1.725105095E1,-1.166595078E1,-5.580000401E0,2.155990656E1
2.843056136E0,1.771095085E1,-1.109100056E1,-4.392000198E0,2.135363527E1
2.845019119E0,1.817100143E1,-1.063095093E1,-3.394950151E0,2.132435456E1
2.846981989E0,1.863105011E1,-1.024800014E1,-2.206950188E0,2.137774928E1
2.848944742E0,1.905300140E1,-1.001805019E1,-7.510500550E-1,2.153931912E1
2.850907529E0,1.939800072E1,-9.634950638E0,3.220500052E-1,2.166145013E1
2.852869755E0,1.970400047E1,-9.289950371E0,1.471050024E0,2.183379950E1
2.854832145E0,1.985805130E1,-8.983050346E0,2.545050144E0,2.194344265E1
2.856795344E0,1.993395042E1,-8.638050079E0,3.310950041E0,2.197591133E1
2.858758302E0,2.001105118E1,-8.293050766E0,4.308000088E0,2.208564523E1
2.860721444E0,2.004900169E1,-7.717950344E0,4.996950150E0,2.205671637E1
2.862684532E0,1.970400047E1,-7.105050564E0,5.878950119E0,2.175526218E1
2.864647923E0,1.935900116E1,-6.262050152E0,6.109050274E0,2.124393309E1
2.866611225E0,1.909095001E1,-5.764050484E0,5.956050396E0,2.081257280E1
2.868574264E0,1.889895058E1,-4.996950150E0,5.994000435E0,2.044670841E1
2.870537381E0,1.893795013E1,-4.537050247E0,5.341950417E0,2.019324675E1
2.872500675E0,1.882305145E1,-4.116000175E0,4.116000175E0,1.970254250E1
2.874463917E0,1.832505035E1,-3.541050196E0,2.736000061E0,1.886351514E1
2.876427867E0,1.778805161E1,-2.965950251E0,1.318050027E0,1.808172825E1
2.878391609E0,1.732800102E1,-2.544000149E0,-8.269500136E-1,1.753326560E1
2.880354514E0,1.705994987E1,-2.046000004E0,-3.088950157E0,1.745765216E1
2.882317674E0,1.682999992E1,-1.585950017E0,-5.197050095E0,1.768540258E1
2.884280196E0,1.663800049E1,-1.203000069E0,-7.189950466E0,1.816495684E1
2.886242905E0,1.656105042E1,-8.190000653E-1,-8.953050613E0,1.884399818E1
2.888205864E0,1.648500061E1,-6.660000086E-1,-1.071600056E1,1.967311539E1
2.890168749E0,1.606305122E1,-5.890500546E-1,-1.144395065E1,1.973151290E1
2.892131659E0,1.575705051E1,-4.740000367E-1,-1.140600014E1,1.945780450E1
2.894094575E0,1.548795033E1,-4.740000367E-1,-1.129095078E1,1.917255462E1
2.896057544E0,1.479795074E1,-5.130000114E-1,-1.067805004E1,1.825549966E1
2.898020498E0,1.380195045E1,-5.130000114E-1,-9.949050903E0,1.702176898E1
2.899983372E0,1.242195034E1,-4.360500276E-1,-8.914050102E0,1.529559672E1
2.901946270E0,1.104195023E1,-4.740000367E-1,-7.726050377E0,1.348485058E1
2.903909403E0,9.586050034E0,-7.039500475E-1,-6.117000103E0,1.139322567E1
2.905872480E0,8.282999992E0,-9.340500236E-1,-3.970050097E0,9.232650545E0
2.907835512E0,7.056000233E0,-1.087950110E0,-1.786050081E0,7.359398727E0
2.909798558E0,5.944950104E0,-1.240950108E0,2.449500114E-1,6.078025124E0
2.911760739E0,5.025000095E0,-1.318050027E0,1.816050053E0,5.503264452E0
2.913723174E0,3.952050209E0,-1.471050024E0,3.081000090E0,5.222571261E0
2.915685854E0,2.992950201E0,-1.548000097E0,3.847950220E0,5.114760611E0
2.917648470E0,2.188950062E0,-1.509000063E0,4.498950005E0,5.225814263E0
2.919611401E0,1.459950089E0,-1.548000097E0,4.768050194E0,5.221308382E0
2.921574239E0,9.619500637E-1,-1.509000063E0,5.035950184E0,5.344457257E0
2.923536276E0,3.870000243E-1,-1.471050024E0,5.035950184E0,5.260660742E0
2.925498548E0,-1.099500060E-1,-1.432950020E0,4.614000320E0,4.832642519E0
2.927461447E0,-5.320500135E-1,-1.471050024E0,3.924000263E0,4.224315738E0
2.929424162E0,-1.030050039E0,-1.585950017E0,3.118950129E0,3.647477271E0
2.931387121E0,-1.489950061E0,-1.585950017E0,2.085000038E0,3.013704332E0
2.933350008E0,-1.795950055E0,-1.663050056E0,1.126049995E0,2.694282962E0
2.935314154E0,-2.295000076E0,-1.777950048E0,9.195000678E-2,2.904580267E0
2.937277931E0,-2.716050148E0,-1.663050056E0,-1.018950105E0,3.343788751E0
2.939241060E0,-3.253050089E0,-1.663050056E0,-2.053950071E0,4.191274420E0
2.941204386E0,-3.828000069E0,-1.816050053E0,-3.280050039E0,5.358204044E0
2.943167240E0,-4.210950375E0,-1.930950046E0,-4.162050247E0,6.227626626E0
2.945130232E0,-4.594050407E0,-2.083950043E0,-4.890000343E0,7.025685040E0
2.947093322E0,-4.863000393E0,-2.391000032E0,-5.311950207E0,7.588311339E0
2.949056384E0,-4.747950077E0,-2.851050138E0,-5.427000046E0,7.753956817E0
2.951019449E0,-4.747950077E0,-3.426000118E0,-4.927950382E0,7.652790453E0
2.952982523E0,-4.518000126E0,-4.000950336E0,-4.047000408E0,7.266232933E0
2.954945645E0,-4.018949986E0,-4.690050125E0,-2.667000055E0,6.727660697E0
2.956908753E0,-3.253050089E0,-5.725050449E0,-9.810000658E-1,6.657394284E0
2.958870744E0,-2.601000071E0,-6.031950474E0,7.050000429E-1,6.606561356E0
2.960833063E0,-1.720050097E0,-6.990000248E0,2.008050203E0,7.473348742E0
2.962796043E0,-9.919500351E-1,-7.948050499E0,3.234000206E0,8.637952821E0
2.964758830E0,-1.480500102E-1,-9.136050224E0,3.694050074E0,9.855726176E0
2.966722723E0,5.410500169E-1,-1.005600071E1,3.963000298E0,1.082225747E1
2.968686292E0,1.114950061E0,-1.097595024E1,3.771000147E0,1.165911830E1
2.970649241E0,1.614000082E0,-1.208805084E1,3.310950041E0,1.263678597E1
2.972612371E0,2.035050154E0,-1.335300064E1,2.659050226E0,1.376643031E1
2.974575059E0,2.341950178E0,-1.473195076E1,2.391000032E0,1.510734871E1
2.976537890E0,2.878050089E0,-1.634205055E1,4.192950249E0,1.711509919E1
2.978501053E0,4.372950077E0,-1.783695030E1,7.489050388E0,1.983344055E1
2.980464119E0,5.830050468E0,-1.929300117E1,9.865050316E0,2.243944296E1
2.982427019E0,6.787950516E0,-2.147805023E1,1.017195034E1,2.471540992E1
2.984389967E0,7.593000412E0,-2.350905037E1,9.787950516E0,2.657316466E1
2.986352706E0,8.320950508E0,-2.580900192E1,8.983950615E0,2.856666180E1
2.988315506E0,9.088050842E0,-2.841495132E1,6.991050243E0,3.064109839E1
2.990279125E0,9.777000427E0,-3.098295212E1,3.426000118E0,3.266910675E1
2.992242504E0,1.027605057E1,-3.397305298E1,-2.520000041E-1,3.549407060E1
2.994205530E0,1.092705059E1,-3.703905106E1,-3.549000263E0,3.877998376E1
2.996168659E0,1.165605068E1,-3.983700180E1,-7.534950256E0,4.218561017E1
2.998131777E0,1.219200039E1,-4.313295364E1,-1.037100029E1,4.600711043E1
3.000094895E0,1.238400078E1,-4.639095306E1,-1.213395023E1,4.952491040E1
3.002057965E0,1.046700096E1,-4.846095276E1,-1.293900108E1,5.123904566E1
3.004021049E0,7.975950241E0,-4.964895248E1,-1.389705086E1,5.217051167E1
3.005984439E0,7.210050106E0,-5.141205215E1,-1.458705044E1,5.392555952E1
3.007947739E0,6.366000175E0,-5.405595398E1,-1.428000069E1,5.627157843E1
3.009910978E0,5.178000450E0,-5.570505142E1,-1.497000027E1,5.791342979E1
3.011874222E0,4.066950321E0,-5.750595093E1,-1.454895115E1,5.945709761E1
3.013837494E0,2.917050123E0,-5.880900192E1,-1.458705044E1,6.066127207E1
3.015800758E0,1.422000051E0,-5.815695190E1,-1.700205040E1,6.060794384E1
3.017762858E0,7.699500322E-1,-5.861700439E1,-2.232900047E1,6.273061684E1
3.019725299E0,-1.681950092E0,-5.934600449E1,-2.781000137E1,6.556045592E1
3.021688344E0,-4.057950020E0,-5.999700165E1,-2.965005112E1,6.704649653E1
3.023651215E0,-6.127950191E0,-6.091695404E1,-3.045495224E1,6.838078077E1
3.025613968E0,-7.737000465E0,-6.133905411E1,-2.972595215E1,6.860009451E1
3.027576755E0,-8.350950241E0,-6.179895401E1,-2.681295204E1,6.788065618E1
3.029539656E0,-8.503950119E0,-6.168405151E1,-2.217600060E1,6.609852026E1
3.031502523E0,-8.542050362E0,-6.145395279E1,-1.711695099E1,6.436260521E1
3.033465312E0,-9.232050896E0,-6.053400421E1,-1.228695011E1,6.245450803E1
3.035428131E0,-1.015200043E1,-5.938395309E1,-7.573050499E0,6.071958573E1
3.037390306E0,-1.095705032E1,-5.827200317E1,-3.127050161E0,5.937559893E1
3.039352670E0,-1.087995052E1,-5.696895218E1,8.580000401E-1,5.800492220E1
3.041315507E0,-1.087995052E1,-5.539800262E1,3.118950129E0,5.654237232E1
3.043278206E0,-1.053495026E1,-5.355795288E1,4.461000443E0,5.476623064E1
3.045241193E0,-9.309000015E0,-5.198700333E1,5.188950062E0,5.306817501E1
3.047204109E0,-7.507050514E0,-4.976400375E1,5.725950241E0,5.065173623E1
3.049167169E0,-5.706000328E0,-5.003205109E1,6.376950264E0,5.075854677E1
3.051130186E0,-5.398950100E0,-4.673595047E1,6.147000313E0,4.744663678E1
3.053093139E0,-4.863000393E0,-4.263495255E1,5.956050396E0,4.332277101E1
3.055056111E0,-5.092950344E0,-3.814995193E1,5.917050362E0,3.894057602E1
3.057019594E0,-6.088950157E0,-3.282300186E1,5.496000290E0,3.383239253E1
3.058982907E0,-7.354050159E0,-2.918205070E1,5.304000378E0,3.055824859E1
3.060945720E0,-7.584000587E0,-2.669100189E1,5.188950062E0,2.822856443E1
3.062908679E0,-8.158950806E0,-2.458200073E1,5.496000290E0,2.647733479E1
3.064871775E0,-7.776000500E0,-2.297295189E1,6.147000313E0,2.502015818E1
3.066834831E0,-6.511050224E0,-2.170800018E1,7.182000160E0,2.377419133E1
3.068798111E0,-4.978050232E0,-2.082600021E1,8.599950790E0,2.307514729E1
3.070761311E0,-3.253050089E0,-2.013600159E1,9.979950905E0,2.270771488E1
3.072724368E0,-1.987950087E0,-1.940805054E1,1.082295036E1,2.231054965E1
3.074687467E0,-1.144950032E0,-1.864200020E1,1.116795063E1,2.176139249E1
3.076650584E0,-2.250000089E-1,-1.783695030E1,1.113000011E1,2.102580138E1
3.078613696E0,2.719500065E-1,-1.718505096E1,1.132200050E1,2.058124459E1
3.080577803E0,5.790000558E-1,-1.653404999E1,1.139805031E1,2.009043556E1
3.082541619E0,7.699500322E-1,-1.595895100E1,1.128300095E1,1.955983257E1
3.084504209E0,6.550500393E-1,-1.519200039E1,1.128300095E1,1.893494327E1
3.086467159E0,3.109500110E-1,-1.415700054E1,1.128300095E1,1.810589585E1
3.088430437E0,-7.200000435E-2,-1.319895077E1,1.132200050E1,1.738980106E1
3.090393619E0,-4.170000255E-1,-1.216395092E1,1.139805031E1,1.667486557E1
3.092356744E0,-6.850500107E-1,-1.120605087E1,1.174305058E1,1.624635671E1
3.094319872E0,-1.183050036E0,-1.032495022E1,1.182000065E1,1.573901584E1
3.096283074E0,-1.758000135E0,-9.366000175E0,1.166595078E1,1.506343026E1
3.098246254E0,-1.950000048E0,-8.485050201E0,1.182000065E1,1.468029266E1
3.100209539E0,-2.103000164E0,-7.603050232E0,1.185795021E1,1.424218964E1
3.102172793E0,-2.448000193E0,-6.376950264E0,1.185795021E1,1.368463309E1
3.104136315E0,-2.908050060E0,-4.690050125E0,1.197300053E1,1.318355289E1
3.106099773E0,-3.367950201E0,-2.812050104E0,1.231800079E1,1.307607961E1
3.108062065E0,-3.865950108E0,-1.126049995E0,1.220295048E1,1.285011903E1
3.110024698E0,-4.210950375E0,5.209500194E-1,1.182000065E1,1.255849941E1
3.111987850E0,-4.363950253E0,2.398950100E0,1.185795021E1,1.286118216E1
3.113950850E0,-4.479000092E0,4.392000198E0,1.193505096E1,1.348319506E1
3.115914009E0,-4.594050407E0,6.270000458E0,1.162800026E1,1.398672924E1
3.117877104E0,-4.747950077E0,7.879950523E0,1.139805031E1,1.464760052E1
3.119840313E0,-4.978050232E0,9.451050758E0,1.120695019E1,1.548221809E1
3.121803489E0,-5.169000149E0,1.063995075E1,1.143705082E1,1.645397356E1
3.123766370E0,-5.553000450E0,1.190400028E1,1.139805031E1,1.739127907E1
3.125729337E0,-6.088950157E0,1.309305096E1,1.128300095E1,1.832510321E1
3.127692326E0,-5.514000416E0,1.236405087E1,1.128300095E1,1.762328189E1
3.129655289E0,-5.437950134E0,1.244100094E1,1.082295036E1,1.736335396E1
3.131618339E0,-6.511050224E0,1.393605042E1,1.128300095E1,1.907651400E1
3.133581364E0,-7.507050514E0,1.508595085E1,1.174305058E1,2.053876718E1
3.135543910E0,-8.964000702E0,1.612005043E1,1.182000065E1,2.190711642E1
3.137506597E0,-1.015200043E1,1.704000092E1,1.235595036E1,2.336865963E1
3.139469574E0,-1.149300098E1,1.776900101E1,1.289295101E1,2.478012619E1
3.141432456E0,-1.302600098E1,1.834305000E1,1.342995071E1,2.620129312E1
3.143395567E0,-1.463595104E1,1.864995003E1,1.423395061E1,2.765207133E1
3.145358610E0,-1.613100052E1,1.884195137E1,1.469400024E1,2.882953264E1
3.147321513E0,-1.731900024E1,1.876500130E1,1.534605026E1,2.979218525E1
3.149284458E0,-1.862205124E1,1.838205147E1,1.603605080E1,3.068933909E1
3.151247242E0,-1.981005096E1,1.819005013E1,1.622700119E1,3.141069261E1
3.153210074E0,-2.042400169E1,1.750005150E1,1.630395126E1,3.145171656E1
3.155173372E0,-2.107500076E1,1.692495155E1,1.630395126E1,3.156625523E1
3.157136533E0,-2.157405090E1,1.646505165E1,1.607400131E1,3.154221166E1
3.159099597E0,-2.153505135E1,1.573695087E1,1.576800060E1,3.098451068E1
3.161062689E0,-2.142000008E1,1.500900078E1,1.549905109E1,3.040241919E1
3.163025907E0,-2.095995140E1,1.424205112E1,1.511595058E1,2.950673728E1
3.164989081E0,-2.042400169E1,1.355205059E1,1.446405029E1,2.846061614E1
3.166951782E0,-1.942695045E1,1.282395077E1,1.404300022E1,2.718576783E1
3.168914621E0,-1.839195061E1,1.205805016E1,1.373595047E1,2.592945730E1
3.170877378E0,-1.731900024E1,1.136805058E1,1.350600052E1,2.473039412E1
3.172840160E0,-1.597800064E1,1.048605061E1,1.362105083E1,2.346884717E1
3.174802990E0,-1.494300079E1,9.757950783E0,1.366005039E1,2.247460462E1
3.176765792E0,-1.383105087E1,9.067950249E0,1.423395061E1,2.182042713E1
3.178728736E0,-1.264305019E1,8.340000153E0,1.519305038E1,2.145299748E1
3.180691638E0,-1.180005074E1,7.842000484E0,1.638105011E1,2.165818487E1
3.182654386E0,-1.091805077E1,7.305000305E0,1.753095055E1,2.190664486E1
3.184617179E0,-1.034400082E1,6.691950321E0,1.879500008E1,2.247292993E1
3.186580323E0,-9.730050087E0,6.040050507E0,1.967700005E1,2.276709063E1
3.188543350E0,-9.270000458E0,5.389050484E0,2.032905006E1,2.298358219E1
3.190506571E0,-9.040050507E0,4.929000378E0,1.994505119E1,2.244599352E1
3.192469735E0,-8.848950386E0,4.507050037E0,1.925505066E1,2.166505017E1
3.194432618E0,-8.848950386E0,4.276950359E0,1.825905037E1,2.073617968E1
3.196395583E0,-8.925000191E0,3.970950127E0,1.714695168E1,1.973428552E1
3.198358369E0,-9.117000580E0,3.741000175E0,1.580595112E1,1.862640257E1
3.200321204E0,-9.232050896E0,3.702000141E0,1.411905098E1,1.727087633E1
3.202284096E0,-9.385050774E0,3.586950064E0,1.243305016E1,1.598518455E1
3.204246971E0,-9.499950409E0,3.549000263E0,1.051695061E1,1.460995245E1
3.206209543E0,-9.615000725E0,3.433950186E0,8.409000397E0,1.322692483E1
3.208172204E0,-9.615000725E0,3.166050196E0,6.876000404E0,1.223729931E1
3.210135356E0,-9.499950409E0,2.974050045E0,4.921050072E0,1.110453805E1
3.212098360E0,-9.117000580E0,2.859000206E0,2.965950251E0,1.000452111E1
3.214062171E0,-9.040050507E0,2.743950129E0,9.349500537E-1,9.493466547E0
3.216025745E0,-8.964000702E0,2.476050138E0,-5.590500236E-1,9.316473034E0
3.217988422E0,-8.964000702E0,2.245950222E0,-2.437050104E0,9.557029570E0
3.219951362E0,-9.193950653E0,2.743950129E0,-4.276950359E0,1.050477488E1
3.221914791E0,-8.734050751E0,2.743950129E0,-5.542050362E0,1.070173944E1
3.223878067E0,-8.580000877E0,1.708950043E0,-6.652950287E0,1.099084495E1
3.225841111E0,-7.929000378E0,1.633050084E0,-7.765050411E0,1.121748222E1
3.227804223E0,-7.546050549E0,9.040500522E-1,-9.067950249E0,1.183164854E1
3.229767473E0,-6.970950127E0,6.360000372E-1,-1.029405022E1,1.244853853E1
3.231730682E0,-6.702000141E0,7.129500508E-1,-1.132905006E1,1.318227898E1
3.233693932E0,-6.357000351E0,5.209500194E-1,-1.186605072E1,1.347167406E1
3.235657159E0,-6.204000473E0,3.679500222E-1,-1.240200043E1,1.387208073E1
3.237619851E0,-5.898000240E0,3.679500222E-1,-1.270905018E1,1.401576792E1
3.239582699E0,-5.476050377E0,2.140500098E-1,-1.267095089E1,1.380528673E1
3.241546174E0,-4.939050198E0,-5.295000225E-2,-1.244100094E1,1.338564623E1
3.243509466E0,-4.173000336E0,-3.210000098E-1,-1.190400028E1,1.261832776E1
3.245472541E0,-3.598050117E0,-8.190000653E-1,-1.132905006E1,1.191486891E1
3.247435656E0,-2.946000099E0,-9.340500236E-1,-1.071600056E1,1.115275903E1
3.249398366E0,-2.485950232E0,-1.048950076E0,-9.949050903E0,1.030843629E1
3.251361195E0,-2.218050003E0,-1.240950108E0,-9.373950005E0,9.712396289E0
3.253324313E0,-1.758000135E0,-1.548000097E0,-9.028950691E0,9.327851809E0
3.255287347E0,-1.489950061E0,-1.854000092E0,-8.799000740E0,9.114805623E0
3.257249940E0,-1.375050068E0,-2.008050203E0,-8.953050613E0,9.277938542E0
3.259212660E0,-1.144950032E0,-2.620950222E0,-9.489000320E0,9.910671911E0
3.261175752E0,-8.380500674E-1,-3.924000263E0,-1.014105034E1,1.090600788E1
3.263138735E0,-3.019500077E-1,-5.533950329E0,-1.144395065E1,1.271533667E1
3.265102054E0,2.719500065E-1,-7.219950199E0,-1.366695023E1,1.545920975E1
3.267065274E0,1.077000022E0,-8.830050468E0,-1.608195114E1,1.837821735E1
3.269028126E0,1.882050037E0,-9.940950394E0,-1.838100052E1,2.098155826E1
3.270991069E0,3.147000074E0,-1.113000011E1,-1.918605042E1,2.240279095E1
3.272953673E0,3.990000248E0,-1.235595036E1,-1.857299995E1,2.266155199E1
3.274916377E0,4.833000183E0,-1.342905045E1,-1.642695045E1,2.176101992E1
3.276879517E0,5.523000240E0,-1.427205086E1,-1.405005074E1,2.077495832E1
3.278842529E0,5.791050434E0,-1.492395115E1,-1.148205090E1,1.970020497E1
3.280805572E0,6.136050224E0,-1.549905109E1,-9.412950516E0,1.914354551E1
3.282768605E0,6.250950336E0,-1.595895100E1,-7.150950432E0,1.857144553E1
3.284731690E0,6.366000175E0,-1.638000107E1,-5.005050182E0,1.827240872E1
3.286694759E0,6.405000210E0,-1.680195045E1,-2.935050249E0,1.821933277E1
3.288656757E0,6.021000385E0,-1.718505096E1,-3.289500177E-1,1.821226593E1
3.290619069E0,5.293050289E0,-1.726200104E1,2.545050144E0,1.823376926E1
3.292582160E0,4.717950344E0,-1.707000160E1,5.994000435E0,1.869684603E1
3.294545009E0,4.372950077E0,-1.668704987E1,9.520050049E0,1.970308805E1
