"Time (s)","Acceleration x (m/s^2)","Acceleration y (m/s^2)","Acceleration z (m/s^2)","Absolute acceleration (m/s^2)"
4.107190600E-2,-4.549500346E-1,2.284050226E0,-1.708950043E0,2.888663223E0
4.303370100E-2,-8.380500674E-1,2.245950222E0,-1.708950043E0,2.943999077E0
4.499798300E-2,-1.106999993E0,2.208000183E0,-1.594050050E0,2.939678444E0
4.696103400E-2,-1.336950064E0,2.208000183E0,-1.326000094E0,2.901891888E0
4.892444500E-2,-1.528050065E0,2.284050226E0,-1.096050024E0,2.958571968E0
5.088781100E-2,-1.642950058E0,2.398950100E0,-8.269500136E-1,3.022927852E0
5.285120000E-2,-1.795950055E0,2.514000177E0,-4.440000355E-1,3.121340982E0
5.481354700E-2,-1.911000133E0,2.706000090E0,-2.205000073E-2,3.312830239E0
5.677620000E-2,-1.987950087E0,2.896950245E0,6.660000086E-1,3.576006471E0
5.873952800E-2,-1.987950087E0,3.127050161E0,1.471050024E0,3.986775192E0
6.070265900E-2,-1.987950087E0,3.280950069E0,2.238000154E0,4.441308771E0
6.266556600E-2,-2.065050125E0,3.549000263E0,3.349050045E0,5.298676353E0
6.462852600E-2,-2.103000164E0,3.856050253E0,4.690950394E0,6.426254651E0
6.659180200E-2,-2.218050003E0,4.239000320E0,6.147000313E0,7.789382670E0
6.855498600E-2,-2.332950115E0,4.699050426E0,7.756950378E0,9.364508013E0
7.051804600E-2,-2.485950232E0,5.158950329E0,9.136950493E0,1.078325467E1
7.248114200E-2,-2.563050032E0,5.695050240E0,1.021005058E1,1.196862380E1
7.444432600E-2,-2.640000105E0,6.193950176E0,1.078500080E1,1.271419921E1
7.640750100E-2,-2.524950027E0,6.768000126E0,1.093800068E1,1.310805314E1
7.837060700E-2,-2.332950115E0,7.420050144E0,1.051695061E1,1.308075114E1
8.033373300E-2,-2.103000164E0,8.187000275E0,9.712050438E0,1.287530609E1
8.229729600E-2,-1.950000048E0,8.914950371E0,8.485050201E0,1.246093565E1
8.426073100E-2,-1.834950089E0,9.720000267E0,6.837000370E0,1.202455908E1
8.622392300E-2,-1.758000135E0,1.067805004E1,4.806000233E0,1.184098625E1
8.818719000E-2,-1.489950061E0,1.182795048E1,2.391000032E0,1.215883402E1
9.015131500E-2,-1.720050097E0,1.328400040E1,-2.520000041E-1,1.339726625E1
9.211518800E-2,-2.179949999E0,1.500900078E1,-2.551950216E0,1.537968583E1
9.407830900E-2,-2.410050154E0,1.677195168E1,-4.353000164E0,1.749443669E1
9.604165100E-2,-2.371050119E0,1.864995003E1,-5.848050117E0,1.968863136E1
9.800499800E-2,-2.485950232E0,2.049000168E1,-6.652950287E0,2.168598314E1
9.996837500E-2,-2.448000193E0,2.240595055E1,-6.960000515E0,2.358942416E1
1.019314010E-1,-1.987950087E0,2.436105156E1,-6.768000126E0,2.536175476E1
1.038945300E-1,-1.489950061E0,2.639205170E1,-6.460950375E0,2.721220726E1
1.058577770E-1,-6.469500065E-1,2.830905151E1,-6.001950264E0,2.894554109E1
1.078209900E-1,1.570500135E-1,2.988000107E1,-5.542050362E0,3.039002222E1
1.097851650E-1,1.192050099E0,3.129795074E1,-5.082000256E0,3.173026049E1
1.117490620E-1,2.227050066E0,3.244800186E1,-4.582950115E0,3.284563911E1
1.137121800E-1,3.645000219E0,3.310005188E1,-4.582950115E0,3.361402821E1
1.156755260E-1,4.756950378E0,3.382800293E1,-4.852050304E0,3.450369185E1
1.176389160E-1,4.603050232E0,3.482400131E1,-5.272950172E0,3.552046090E1
1.196022930E-1,3.760050297E0,3.524595261E1,-6.844950199E0,3.610081019E1
1.215654390E-1,2.265000105E0,3.582105255E1,-8.608050346E0,3.691038556E1
1.235286640E-1,6.169500351E-1,3.566699982E1,-1.010295010E1,3.707539756E1
1.254912200E-1,-1.567050099E0,3.490095139E1,-1.132905006E1,3.672709394E1
1.274539720E-1,-4.134000301E0,3.363600159E1,-1.171200085E1,3.585584367E1
1.294174640E-1,-6.702000141E0,3.179595184E1,-1.129095078E1,3.440036234E1
1.313807390E-1,-8.695050240E0,2.976495171E1,-1.063905048E1,3.278331350E1
1.333439420E-1,-9.999000549E0,2.761905098E1,-1.002600002E1,3.103727864E1
1.353071500E-1,-1.045905018E1,2.558700180E1,-9.220950127E0,2.913953179E1
1.372704280E-1,-1.049700069E1,2.382405090E1,-8.110050201E0,2.726802779E1
1.392336860E-1,-1.034400082E1,2.244405174E1,-7.189950466E0,2.573769996E1
1.411967330E-1,-1.011405087E1,2.148600197E1,-6.615000248E0,2.465158278E1
1.431598420E-1,-9.730050087E0,2.079600143E1,-6.040050507E0,2.374088795E1
1.451229130E-1,-9.346950531E0,2.018295097E1,-5.809950352E0,2.298853013E1
1.470859960E-1,-9.193950653E0,1.980000114E1,-6.001950264E0,2.264049869E1
1.490496120E-1,-9.309000015E0,1.945500183E1,-6.346950531E0,2.248195629E1
1.510130710E-1,-1.003695011E1,1.930200005E1,-6.652950287E0,2.275014991E1
1.529762640E-1,-1.076505089E1,1.911000061E1,-6.960000515E0,2.301130268E1
1.549395350E-1,-1.126305008E1,1.876500130E1,-7.228050232E0,2.304834660E1
1.569029240E-1,-1.168500042E1,1.842000008E1,-7.650000572E0,2.311618797E1
1.588662880E-1,-1.191495037E1,1.811295128E1,-7.726050377E0,2.301601401E1
1.608298570E-1,-1.199205017E1,1.773000145E1,-7.765050411E0,2.276967779E1
1.627933650E-1,-1.206795025E1,1.730895042E1,-7.687950134E0,2.245751022E1
1.647566840E-1,-1.206795025E1,1.681005096E1,-7.381050587E0,2.197027866E1
1.667200590E-1,-1.210695076E1,1.623495102E1,-7.036050320E0,2.143963375E1
1.686834410E-1,-1.195305061E1,1.562205029E1,-6.460950375E0,2.070429313E1
1.706468550E-1,-1.168500042E1,1.512405109E1,-5.962950230E0,2.002081246E1
1.726100560E-1,-1.156995010E1,1.466400051E1,-5.503050327E0,1.947255041E1
1.745733190E-1,-1.122495079E1,1.428105068E1,-5.158050060E0,1.888262189E1
1.765364990E-1,-1.103295040E1,1.389705086E1,-4.890000343E0,1.840560025E1
1.784997030E-1,-1.076505089E1,1.351395035E1,-4.774950027E0,1.792521471E1
1.804631580E-1,-1.042005062E1,1.309305096E1,-4.621950150E0,1.735994993E1
1.824265430E-1,-1.026705074E1,1.282395077E1,-4.660050392E0,1.707577565E1
1.843901080E-1,-1.007505035E1,1.282395077E1,-4.621950150E0,1.695059810E1
1.863536200E-1,-9.960000038E0,1.286295033E1,-4.507050037E0,1.688107200E1
1.883172980E-1,-1.003695011E1,1.305405045E1,-4.123950005E0,1.697514548E1
1.902809270E-1,-1.007505035E1,1.320795059E1,-3.510000229E0,1.697871315E1
1.922440670E-1,-1.015200043E1,1.347600079E1,-2.820000172E0,1.710608403E1
1.942073670E-1,-1.011405087E1,1.366695023E1,-2.245050192E0,1.714992139E1
1.961708100E-1,-9.922050476E0,1.366695023E1,-1.594050050E0,1.696389135E1
1.981342110E-1,-9.730050087E0,1.347600079E1,-1.134000063E0,1.666020492E1
2.000971880E-1,-9.577050209E0,1.328400040E1,-4.440000355E-1,1.638235921E1
2.020602900E-1,-9.462000847E0,1.301595020E1,3.220500052E-1,1.609497238E1
2.040235480E-1,-9.346950531E0,1.270905018E1,1.087950110E0,1.581357253E1
2.059867870E-1,-9.309000015E0,1.240305042E1,1.548000097E0,1.558491082E1
2.079501970E-1,-9.270000458E0,1.194300079E1,1.777950048E0,1.522265689E1
2.099135570E-1,-9.270000458E0,1.159800053E1,2.008050203E0,1.498261627E1
2.118770810E-1,-9.154950142E0,1.117605019E1,1.930950046E0,1.457551982E1
2.138405570E-1,-9.001950264E0,1.067805004E1,1.663050056E0,1.406490657E1
2.158037650E-1,-8.695050240E0,1.029495049E1,1.510050058E0,1.355987298E1
2.177670390E-1,-8.389050484E0,1.002600002E1,1.432950020E0,1.315105282E1
2.197302630E-1,-8.158950806E0,9.949950218E0,1.279950023E0,1.293090328E1
2.216935010E-1,-7.852050304E0,9.910950661E0,1.318050027E0,1.271294194E1
2.236569550E-1,-7.239000320E0,9.949950218E0,1.432950020E0,1.238781582E1
2.256203450E-1,-6.511050224E0,1.002600002E1,1.471050024E0,1.204485117E1
2.275838500E-1,-5.629050255E0,9.988050461E0,1.432950020E0,1.155425050E1
2.295473310E-1,-4.708950043E0,1.002600002E1,1.203000069E0,1.114190720E1
2.315107000E-1,-3.943050146E0,1.021800041E1,7.429500222E-1,1.097757494E1
2.334741020E-1,-3.214950085E0,1.052505016E1,3.220500052E-1,1.100982748E1
2.354380680E-1,-2.640000105E0,1.098495007E1,-2.910000086E-1,1.130147820E1
2.374018690E-1,-2.218050003E0,1.159800053E1,-8.659500480E-1,1.183989998E1
2.393651150E-1,-1.911000133E0,1.221105099E1,-1.287000060E0,1.242650622E1
2.413285400E-1,-1.758000135E0,1.301595020E1,-1.479000092E0,1.321714664E1
2.432920970E-1,-1.873050094E0,1.385895061E1,-1.671000123E0,1.408442651E1
2.452556150E-1,-2.103000164E0,1.481700039E1,-1.747050047E0,1.506712627E1
2.472191570E-1,-2.026050091E0,1.558395100E1,-1.210950017E0,1.576168797E1
2.491826920E-1,-1.758000135E0,1.619700050E1,-3.289500177E-1,1.629544715E1
2.511451800E-1,-1.336950064E0,1.654200172E1,7.429500222E-1,1.661256245E1
2.531079860E-1,-4.930500090E-1,1.654200172E1,2.008050203E0,1.667072839E1
2.550727300E-1,3.490500152E-1,1.631204987E1,3.310950041E0,1.664833916E1
2.570369070E-1,1.192050099E0,1.600500107E1,4.384050369E0,1.663733573E1
2.589999770E-1,2.494950056E0,1.523895073E1,5.572050095E0,1.641639843E1
2.609633710E-1,3.760050297E0,1.435695076E1,6.376950264E0,1.615318879E1
2.629263940E-1,4.872000217E0,1.343700027E1,6.531000137E0,1.571443048E1
2.648895250E-1,5.983050346E0,1.232595062E1,6.799050331E0,1.529552338E1
2.668529520E-1,6.979950428E0,1.121400070E1,7.029000282E0,1.496263228E1
2.688162920E-1,7.746000290E0,1.018005085E1,6.991050243E0,1.457767949E1
2.707795050E-1,8.206049919E0,9.106050491E0,6.646050453E0,1.394379423E1
2.727427560E-1,8.512949944E0,8.187000275E0,6.531000137E0,1.349634221E1
2.747059880E-1,8.665950775E0,7.228050232E0,6.262050152E0,1.290568422E1
2.766692220E-1,8.743050575E0,6.424050331E0,6.070950508E0,1.243244932E1
2.786327670E-1,8.512949944E0,5.619000435E0,5.956050396E0,1.181177459E1
2.805962200E-1,8.091000557E0,4.890000343E0,5.764050484E0,1.107251874E1
2.825595940E-1,7.630950451E0,4.201050282E0,5.764050484E0,1.044531025E1
2.845229910E-1,7.095000267E0,3.586950064E0,5.649000168E0,9.752765887E0
2.864865670E-1,6.520050526E0,3.088950157E0,5.419050217E0,9.023235405E0
2.884500800E-1,5.983050346E0,2.551950216E0,5.380950451E0,8.441798926E0
2.904138030E-1,5.485050201E0,2.092950106E0,5.725950241E0,8.200775696E0
2.923774650E-1,5.293050289E0,1.518000126E0,5.878950119E0,8.054983566E0
2.943409830E-1,5.293050289E0,9.430500269E-1,5.457000256E0,7.660585911E0
2.963045440E-1,5.215950012E0,4.060500264E-1,4.882050037E0,7.155796512E0
2.982685510E-1,5.062950134E0,-5.295000225E-2,4.153950214E0,6.549165607E0
3.002324750E-1,5.062950134E0,-4.360500276E-1,3.349050045E0,6.086028253E0
3.021959940E-1,4.948050022E0,-9.730500579E-1,2.965950251E0,5.850374888E0
3.041596310E-1,4.872000217E0,-1.509000063E0,2.698050022E0,5.770003573E0
3.061233310E-1,4.603050232E0,-1.969050050E0,2.659050226E0,5.668842707E0
3.080870130E-1,4.219950199E0,-2.351999998E0,2.928000212E0,5.649165329E0
3.100506630E-1,3.874950171E0,-2.812050104E0,3.157950163E0,5.735461084E0
3.120143230E-1,3.492000103E0,-3.196050167E0,3.463950157E0,5.865812142E0
3.139778410E-1,3.223050117E0,-3.579000235E0,3.655950069E0,6.046756622E0
3.159414000E-1,2.955000162E0,-4.000950336E0,3.808950186E0,6.264800960E0
3.179047540E-1,2.839950085E0,-4.422000408E0,3.771000147E0,6.468372763E0
3.198681690E-1,2.839950085E0,-4.729050159E0,3.886050224E0,6.747637975E0
3.218317630E-1,2.649000168E0,-4.537050247E0,4.153950214E0,6.697561438E0
3.237953110E-1,2.494950056E0,-4.843950272E0,4.078050137E0,6.805815376E0
3.257588490E-1,2.494950056E0,-5.188950062E0,3.808950186E0,6.903483182E0
3.277223900E-1,2.649000168E0,-5.419050217E0,3.463950157E0,6.955735607E0
3.296855670E-1,2.686950207E0,-5.572050095E0,3.157950163E0,6.945508830E0
3.316488510E-1,2.686950207E0,-5.649000168E0,2.659050226E0,6.797165028E0
3.336120690E-1,2.610000134E0,-5.725050449E0,2.353049994E0,6.717525409E0
3.355753090E-1,2.686950207E0,-5.725050449E0,2.008050203E0,6.635372611E0
3.375388980E-1,2.572050095E0,-5.725050449E0,1.855050087E0,6.544681441E0
3.395023840E-1,2.380050182E0,-5.610000134E0,1.663050056E0,6.316840655E0
3.414660670E-1,2.188950062E0,-5.533950329E0,1.548000097E0,6.149179857E0
3.434296920E-1,1.843950033E0,-5.341950417E0,1.471050024E0,5.839569689E0
3.453928730E-1,1.651950121E0,-5.188950062E0,1.318050027E0,5.602802675E0
3.473562040E-1,1.384050012E0,-4.959000111E0,1.011000037E0,5.246846444E0
3.493206330E-1,1.230000019E0,-4.651950359E0,5.899500251E-1,4.847843152E0
3.512847410E-1,9.619500637E-1,-4.345950127E0,2.830500007E-1,4.460128668E0
3.532478220E-1,7.699500322E-1,-4.077000141E0,5.295000225E-2,4.149404404E0
3.552112040E-1,5.790000558E-1,-3.771000147E0,9.195000678E-2,3.816298989E0
3.571744540E-1,5.020500422E-1,-3.463950157E0,9.195000678E-2,3.501351131E0
3.591377430E-1,3.870000243E-1,-3.196050167E0,2.830500007E-1,3.231814195E0
3.611009180E-1,4.260000288E-1,-2.889000177E0,4.360500276E-1,2.952615396E0
3.630641270E-1,5.020500422E-1,-2.581950188E0,6.660000086E-1,2.713314768E0
3.650284870E-1,6.169500351E-1,-2.391000032E0,8.959500194E-1,2.626829827E0
3.669925100E-1,7.320000529E-1,-2.161050081E0,1.087950110E0,2.527765213E0
3.689559960E-1,9.619500637E-1,-1.893000126E0,1.432950020E0,2.561668043E0
3.709197140E-1,1.192050099E0,-1.663050056E0,1.548000097E0,2.565740288E0
3.728832660E-1,1.306950092E0,-1.356000066E0,1.740000129E0,2.564070040E0
3.748468670E-1,1.422000051E0,-1.087950110E0,1.930950046E0,2.633303565E0
3.768098540E-1,1.767000079E0,-7.429500222E-1,2.008050203E0,2.776063694E0
3.787730210E-1,2.074050188E0,-5.509500504E-1,2.008050203E0,2.938961681E0
3.807365820E-1,2.419050217E0,-3.589500189E-1,1.855050087E0,3.069504828E0
3.827000240E-1,2.764050245E0,-1.680000126E-1,1.740000129E0,3.270443121E0
3.846626790E-1,3.223050117E0,-5.295000225E-2,1.663050056E0,3.627201573E0
3.866255650E-1,3.529950142E0,6.105000153E-2,1.585950017E0,3.870337526E0
3.885893940E-1,3.952050209E0,3.289500177E-1,1.510050058E0,4.243484435E0
3.905529470E-1,4.297049999E0,5.209500194E-1,1.510050058E0,4.584351513E0
3.925163090E-1,4.642050266E0,7.890000343E-1,1.432950020E0,4.921838832E0
3.944797240E-1,5.062950134E0,9.430500269E-1,1.356000066E0,5.325555708E0
3.964432830E-1,5.407950401E0,1.096050024E0,1.356000066E0,5.682076150E0
3.984067990E-1,5.752950191E0,1.288050056E0,1.471050024E0,6.076141623E0
4.003705210E-1,6.021000385E0,1.594050050E0,1.585950017E0,6.427182793E0
4.023341830E-1,6.021000385E0,1.978050113E0,1.701000094E0,6.561899817E0
4.042978860E-1,6.213000298E0,2.322000027E0,2.085000038E0,6.952717597E0
4.062615730E-1,6.250950336E0,2.743950129E0,3.043050051E0,7.474208723E0
4.082249070E-1,6.213000298E0,3.280950069E0,4.345950127E0,8.261554851E0
4.101883440E-1,6.021000385E0,3.817050219E0,5.956050396E0,9.289610020E0
4.121519440E-1,5.830050468E0,4.315950394E0,7.795050144E0,1.064799150E1
4.141154960E-1,5.523000240E0,4.852050304E0,9.634950638E0,1.211933157E1
4.160794170E-1,5.254950047E0,5.389050484E0,1.113000011E1,1.343626688E1
4.180432120E-1,4.833000183E0,5.925000191E0,1.204995060E1,1.427111865E1
4.200070220E-1,4.411950111E0,6.462000370E0,1.235595036E1,1.462505596E1
4.219708280E-1,4.066950321E0,7.113000393E0,1.231800079E1,1.479418815E1
4.239343660E-1,3.837000132E0,7.842000484E0,1.174305058E1,1.463279804E1
4.258979830E-1,3.568050146E0,8.532000542E0,1.070805073E1,1.414879378E1
4.278616750E-1,3.453000069E0,9.259950638E0,9.252000809E0,1.353770343E1
4.298253220E-1,3.492000103E0,1.006500053E1,7.564950466E0,1.306624567E1
4.317888430E-1,3.682950258E0,1.067805004E1,5.266050339E0,1.246259048E1
4.337524010E-1,3.913050175E0,1.121400070E1,2.122950077E0,1.206535082E1
4.357161610E-1,4.219950199E0,1.190400028E1,-2.398950100E0,1.285566661E1
4.376798610E-1,4.833000183E0,1.263300037E1,-5.464950085E0,1.458822363E1
4.396433430E-1,5.025000095E0,1.355205059E1,-6.805950165E0,1.597590870E1
4.416068780E-1,4.603050232E0,1.535400105E1,-7.495950222E0,1.769527308E1
4.435701010E-1,3.990000248E0,1.780695152E1,-7.803000450E0,1.984677406E1
4.455334160E-1,2.188950062E0,2.079600143E1,-7.726050377E0,2.229253311E1
4.474958660E-1,4.200000316E-2,2.397795105E1,-7.534950256E0,2.513402825E1
4.494585700E-1,-2.448000193E0,2.723505211E1,-6.921000481E0,2.820710932E1
4.514219490E-1,-4.863000393E0,3.041700172E1,-5.848050117E0,3.135350789E1
4.533851200E-1,-7.392000198E0,3.375105286E1,-4.852050304E0,3.489007922E1
4.553486770E-1,-9.385050774E0,3.716205215E1,-4.392000198E0,3.857961851E1
4.573121200E-1,-1.076505089E1,4.045800018E1,-3.894000292E0,4.204639506E1
4.592753610E-1,-1.137795067E1,4.421505356E1,-3.049950123E0,4.575730454E1
4.612386610E-1,-1.114800072E1,4.793205261E1,-1.363950014E0,4.923027470E1
4.632020240E-1,-1.049700069E1,5.019405365E1,-1.171950102E0,5.129330865E1
4.651653610E-1,-1.003695011E1,5.226300430E1,-2.053950071E0,5.325768205E1
4.671284400E-1,-9.232050896E0,5.329800415E1,-3.472050190E0,5.420298094E1
4.690915940E-1,-7.891050339E0,5.314500427E1,-5.005050182E0,5.396026948E1
4.710550170E-1,-6.166050434E0,5.176500320E1,-6.040050507E0,5.247969078E1
4.730183610E-1,-4.057950020E0,4.843095398E1,-6.270000458E0,4.900344036E1
4.749820720E-1,-2.677950144E0,4.413795090E1,-6.346950531E0,4.467229463E1
4.769456730E-1,-2.179949999E0,3.996000290E1,-6.460950375E0,4.053761085E1
4.789090670E-1,-2.485950232E0,3.654900360E1,-6.499950409E0,3.720563087E1
4.808725210E-1,-2.946000099E0,3.371295166E1,-6.499950409E0,3.445999683E1
4.828363890E-1,-3.291000128E0,3.141300201E1,-6.385050297E0,3.222384590E1
4.848001350E-1,-3.598050117E0,2.949705124E1,-6.423000336E0,3.040192313E1
4.867637420E-1,-3.675000191E0,2.758005142E1,-6.768000126E0,2.863513032E1
4.887273480E-1,-3.520950079E0,2.604705048E1,-7.113000393E0,2.722940878E1
4.906908750E-1,-3.483000278E0,2.489700127E1,-7.381050587E0,2.620060821E1
4.926544250E-1,-3.330000162E0,2.382405090E1,-7.458000183E0,2.518523514E1
4.946181410E-1,-2.869950056E0,2.298105049E1,-7.495950222E0,2.434244369E1
4.965818080E-1,-2.410050154E0,2.217600060E1,-7.458000183E0,2.352031273E1
4.985453120E-1,-2.026050091E0,2.148600197E1,-7.803000450E0,2.294863777E1
5.005088730E-1,-1.720050097E0,2.075805092E1,-8.569950104E0,2.252330560E1
5.024724080E-1,-1.567050099E0,2.018295097E1,-9.336000443E0,2.229278045E1
5.044359500E-1,-1.642950058E0,1.980000114E1,-9.681000710E0,2.210115619E1
5.063994880E-1,-1.605000019E0,1.941705132E1,-9.796050072E0,2.180734977E1
5.083630270E-1,-1.528050065E0,1.933995056E1,-9.681000710E0,2.168156820E1
5.103265650E-1,-1.336950064E0,1.907205009E1,-9.681000710E0,2.143017277E1
5.122901040E-1,-1.222050071E0,1.872705078E1,-9.604050636E0,2.108159448E1
5.142535970E-1,-9.919500351E-1,1.853505135E1,-9.451050758E0,2.082917314E1
5.162171040E-1,-9.150000215E-1,1.819005013E1,-9.336000443E0,2.046646166E1
5.181805130E-1,-7.999500632E-1,1.780695152E1,-9.028950691E0,1.998122602E1
5.201439500E-1,-6.469500065E-1,1.734705162E1,-8.761050224E0,1.944465853E1
5.221072910E-1,-5.700000525E-1,1.696395111E1,-8.455050468E0,1.896281666E1
5.240706850E-1,-5.320500135E-1,1.654200172E1,-8.110050201E0,1.843078437E1
5.260342470E-1,-4.549500346E-1,1.615904999E1,-7.803000450E0,1.795017248E1
5.279977600E-1,-3.400500119E-1,1.569900036E1,-7.458000183E0,1.738378592E1
5.299612590E-1,-3.400500119E-1,1.520100117E1,-7.075050354E0,1.677028348E1
5.319247620E-1,-3.400500119E-1,1.474095058E1,-6.921000481E0,1.628838561E1
5.338885450E-1,-3.780000210E-1,1.420395088E1,-6.652950287E0,1.568938661E1
5.358522360E-1,-2.629500031E-1,1.378200054E1,-6.078000069E0,1.506501797E1
5.378160640E-1,1.570500135E-1,1.320795059E1,-5.542050362E0,1.432441782E1
5.397798510E-1,5.410500169E-1,1.274805069E1,-5.427000046E0,1.386570810E1
5.417440680E-1,8.850000501E-1,1.221105099E1,-4.966950417E0,1.321225143E1
5.437081590E-1,1.077000022E0,1.159800053E1,-3.817050219E0,1.225738217E1
5.456712380E-1,1.153950095E0,1.094595051E1,-3.319050074E0,1.149615269E1
5.476346170E-1,1.459950089E0,1.048605061E1,-2.514000177E0,1.088158575E1
5.495978680E-1,1.537050128E0,9.910950661E0,-1.747050047E0,1.018045431E1
5.515611560E-1,1.767000079E0,9.259950638E0,-1.326000094E0,9.519834628E0
5.535245110E-1,1.575000048E0,8.647050858E0,-1.057050109E0,8.852653196E0
5.554878460E-1,1.000050068E0,7.879950523E0,-8.269500136E-1,7.986085819E0
5.574502810E-1,3.109500110E-1,7.152000427E0,-9.810000658E-1,7.225659911E0
5.594129250E-1,-3.400500119E-1,6.538950443E0,-1.018950105E0,6.626595372E0
5.613762110E-1,-8.770500422E-1,5.848950386E0,-1.057050109E0,6.008060613E0
5.633393080E-1,-1.375050068E0,5.197050095E0,-1.018950105E0,5.471594986E0
5.653027870E-1,-1.834950089E0,4.468950272E0,-1.134000063E0,4.962309392E0
5.672661540E-1,-2.410050154E0,3.817050219E0,-1.326000094E0,4.704943184E0
5.692293430E-1,-2.985000134E0,3.127050161E0,-1.363950014E0,4.533103589E0
5.711925980E-1,-3.559950113E0,2.551950216E0,-1.479000092E0,4.623108909E0
5.731563190E-1,-3.520950079E0,2.016000032E0,-1.441050053E0,4.305574392E0
5.751199040E-1,-3.445050240E0,1.671000123E0,-1.363950014E0,4.064599883E0
5.770832550E-1,-3.636000156E0,1.249050021E0,-1.210950017E0,4.030759610E0
5.790466750E-1,-3.712950230E0,8.659500480E-1,-1.134000063E0,3.977665777E0
5.810102640E-1,-3.636000156E0,4.830000103E-1,-9.420000315E-1,3.786971112E0
5.829738130E-1,-3.598050117E0,2.140500098E-1,-7.890000343E-1,3.689756511E0
5.849382510E-1,-3.751050234E0,-1.500000060E-2,-7.510500550E-1,3.825529903E0
5.869024290E-1,-3.904950142E0,-1.680000126E-1,-5.970000029E-1,3.953892844E0
5.888656330E-1,-3.943050146E0,-2.440500110E-1,-5.209500194E-1,3.984795325E0
5.908291230E-1,-3.712950230E0,-6.280500293E-1,-4.819500148E-1,3.796409101E0
5.927923040E-1,-3.636000156E0,-9.340500236E-1,-3.670500219E-1,3.771958682E0
5.947555790E-1,-3.367950201E0,-1.240950108E0,-1.759500057E-1,3.593606007E0
5.967192070E-1,-3.138000250E0,-1.624050021E0,1.500000060E-2,3.533384927E0
5.986827310E-1,-2.830950022E0,-2.046000004E0,1.680000126E-1,3.496944101E0
6.006451920E-1,-2.601000071E0,-2.238000154E0,3.220500052E-1,3.446383940E0
6.026079640E-1,-2.256000042E0,-2.506050110E0,6.280500293E-1,3.429908189E0
6.045717940E-1,-1.911000133E0,-3.042000055E0,7.810500264E-1,3.676373891E0
6.065353280E-1,-1.605000019E0,-3.387000084E0,9.349500537E-1,3.862890916E0
6.084990470E-1,-1.336950064E0,-3.541050196E0,1.126049995E0,3.948982217E0
6.104627120E-1,-1.183050036E0,-3.655950069E0,1.318050027E0,4.062368050E0
6.124265450E-1,-6.850500107E-1,-4.116000175E0,1.471050024E0,4.424334881E0
6.143903280E-1,-2.629500031E-1,-4.575000286E0,1.471050024E0,4.812874245E0
6.163539900E-1,1.189500093E-1,-4.996950150E0,1.471050024E0,5.210340495E0
6.183176990E-1,5.410500169E-1,-5.304000378E0,1.279950023E0,5.483012601E0
6.202814330E-1,9.240000248E-1,-5.649000168E0,1.165050030E0,5.841431375E0
6.222451590E-1,1.230000019E0,-5.917050362E0,1.050000072E0,6.134075740E0
6.242086210E-1,1.345050097E0,-6.070050240E0,1.203000069E0,6.332604428E0
6.261721610E-1,1.537050128E0,-6.147000313E0,1.356000066E0,6.479727781E0
6.281357380E-1,1.843950033E0,-6.262050152E0,1.585950017E0,6.717786934E0
6.300993080E-1,2.149950027E0,-6.339000225E0,2.161050081E0,7.033871368E0
6.320629760E-1,2.419050217E0,-6.339000225E0,2.928000212E0,7.389716709E0
6.340266150E-1,2.494950056E0,-6.300000191E0,3.579000235E0,7.663159979E0
6.359901820E-1,2.686950207E0,-6.223950386E0,4.153950214E0,7.950632818E0
6.379537710E-1,2.764050245E0,-6.184950352E0,4.653000355E0,8.218515493E0
6.399172670E-1,2.725050211E0,-6.031950474E0,5.188950062E0,8.410441600E0
6.418808140E-1,2.686950207E0,-5.878950119E0,5.533950329E0,8.509192803E0
6.438443060E-1,2.802000046E0,-5.610000134E0,5.956050396E0,8.648574569E0
6.458078140E-1,3.070050240E0,-5.304000378E0,6.109050274E0,8.653214647E0
6.477715370E-1,3.415050268E0,-5.035050392E0,5.956050396E0,8.514037650E0
6.497351970E-1,3.645000219E0,-4.729050159E0,5.649000168E0,8.219558681E0
6.516988910E-1,3.798000097E0,-4.461000443E0,5.188950062E0,7.826271937E0
6.536625770E-1,3.913050175E0,-4.116000175E0,4.921050072E0,7.514662529E0
6.556263160E-1,3.874950171E0,-3.771000147E0,4.768050194E0,7.209020986E0
6.575900390E-1,3.874950171E0,-3.387000084E0,4.653000355E0,6.938113626E0
6.595538610E-1,3.913050175E0,-3.081000090E0,4.576050282E0,6.763487222E0
6.615176540E-1,3.913050175E0,-2.736000061E0,4.498950005E0,6.560351298E0
6.634811300E-1,3.952050209E0,-2.467050076E0,4.345950127E0,6.371210202E0
6.654447130E-1,4.105050087E0,-2.046000004E0,4.729050159E0,6.587979026E0
6.674082890E-1,4.066950321E0,-1.777950048E0,4.768050194E0,6.514253138E0
6.693718670E-1,3.913050175E0,-1.471050024E0,4.345950127E0,6.030193392E0
6.713355330E-1,3.721950293E0,-1.087950110E0,4.039050102E0,5.599149503E0
6.732991730E-1,3.492000103E0,-8.580000401E-1,3.388050079E0,4.940557876E0
6.752625150E-1,3.223050117E0,-4.360500276E-1,2.928000212E0,4.376228619E0
6.772259440E-1,2.992950201E0,-1.680000126E-1,2.391000032E0,3.834430344E0
6.791888250E-1,2.764050245E0,-5.295000225E-2,1.701000094E0,3.245948056E0
6.811518670E-1,2.572050095E0,1.759500057E-1,1.240950108E0,2.861181096E0
6.831163910E-1,2.419050217E0,4.830000103E-1,6.660000086E-1,2.555122105E0
6.850804810E-1,2.265000105E0,7.129500508E-1,9.195000678E-2,2.376337109E0
6.870439020E-1,2.111999989E0,9.040500522E-1,-4.060500264E-1,2.332965296E0
6.890075360E-1,1.996950150E0,1.057950020E0,-1.018950105E0,2.478977100E0
6.909710580E-1,1.804950118E0,1.249050021E0,-1.287000060E0,2.544472448E0
6.929346130E-1,1.729050040E0,1.363950014E0,-1.479000092E0,2.652812650E0
6.948985080E-1,1.651950121E0,1.441050053E0,-1.708950043E0,2.779581750E0
6.968623030E-1,1.537050128E0,1.518000126E0,-1.900950074E0,2.877578611E0
6.988259340E-1,1.384050012E0,1.633050084E0,-1.861950040E0,2.837129705E0
7.007896130E-1,1.230000019E0,1.708950043E0,-1.939050078E0,2.862398557E0
7.027525860E-1,9.619500637E-1,1.786050081E0,-1.900950074E0,2.780096042E0
7.047157660E-1,5.410500169E-1,1.863000035E0,-2.092050076E0,2.853099678E0
7.066790500E-1,8.100000024E-2,1.978050113E0,-2.169000149E0,2.936631556E0
7.086423030E-1,-3.400500119E-1,2.131050110E0,-2.398950100E0,3.226758461E0
7.106057130E-1,-7.999500632E-1,2.284050226E0,-2.629050016E0,3.573333112E0
7.125690430E-1,-1.183050036E0,2.361000061E0,-2.935050249E0,3.948220946E0
7.145327980E-1,-1.642950058E0,2.437050104E0,-2.935050249E0,4.153675248E0
7.164964280E-1,-1.987950087E0,2.551950216E0,-3.088950157E0,4.472807678E0
7.184598170E-1,-2.332950115E0,2.590950012E0,-3.088950157E0,4.658035131E0
7.204232760E-1,-2.716050148E0,2.667000055E0,-3.127050161E0,4.926282616E0
7.223868060E-1,-2.908050060E0,2.667000055E0,-3.280050039E0,5.131118076E0
7.243502980E-1,-3.100050211E0,2.667000055E0,-3.357000113E0,5.290808101E0
7.263137100E-1,-3.253050089E0,2.514000177E0,-3.394950151E0,5.331811916E0
7.282771460E-1,-3.406050205E0,2.437050104E0,-3.472050190E0,5.440176811E0
7.302406560E-1,-3.520950079E0,2.398950100E0,-3.357000113E0,5.424158994E0
7.322041440E-1,-3.675000191E0,2.398950100E0,-3.049950123E0,5.344416127E0
7.341679060E-1,-3.712950230E0,2.361000061E0,-2.437050104E0,5.029864204E0
7.361315630E-1,-3.865950108E0,2.437050104E0,-1.441050053E0,4.791806413E0
7.380941810E-1,-3.981000185E0,2.476050138E0,-2.140500098E-1,4.693080456E0
7.400571030E-1,-4.096050262E0,2.629050016E0,1.165050030E0,5.004685136E0
7.420209270E-1,-4.096050262E0,2.896950245E0,2.353049994E0,5.541371017E0
7.439844860E-1,-3.904950142E0,3.051000118E0,3.924000263E0,6.320997975E0
7.459480360E-1,-3.675000191E0,3.357000113E0,5.533950329E0,7.443096291E0
7.479115790E-1,-3.367950201E0,3.702000141E0,7.219950199E0,8.784962975E0
7.498752950E-1,-3.022950172E0,4.085999966E0,9.175050735E0,1.048881211E1
7.518389610E-1,-2.563050032E0,4.468950272E0,1.105305099E1,1.219469878E1
7.538027030E-1,-2.065050125E0,4.852050304E0,1.297005081E1,1.400103718E1
7.557664230E-1,-1.567050099E0,5.274000168E0,1.465605068E1,1.565472917E1
7.577299050E-1,-9.919500351E-1,5.619000435E0,1.595895100E1,1.694831106E1
7.596934440E-1,-2.629500031E-1,6.040050507E0,1.668704987E1,1.774849250E1
7.616577480E-1,3.870000243E-1,6.424050331E0,1.672605133E1,1.792146715E1
7.636218270E-1,9.619500637E-1,7.152000427E0,1.599705029E1,1.754941811E1
7.655854090E-1,1.230000019E0,8.071949959E0,1.465605068E1,1.677704079E1
7.675491360E-1,1.459950089E0,9.183000565E0,1.273995018E1,1.577229483E1
7.695123650E-1,1.690050125E0,1.067805004E1,1.051695061E1,1.508254860E1
7.714757130E-1,1.804950118E0,1.293900108E1,7.719000340E0,1.517427297E1
7.734392830E-1,1.690050125E0,1.516200066E1,4.498950005E0,1.590544198E1
7.754027880E-1,1.153950095E0,1.738500023E1,1.548000097E0,1.749188778E1
7.773671880E-1,1.000050068E0,1.968495178E1,-9.810000658E-1,1.973473557E1
7.793313260E-1,9.240000248E-1,2.225295067E1,-3.394950151E0,2.252938694E1
7.812948120E-1,6.550500393E-1,2.470605087E1,-5.809950352E0,2.538845335E1
7.832584860E-1,6.169500351E-1,2.696700096E1,-7.381050587E0,2.796568748E1
7.852220010E-1,1.039050102E0,2.938200188E1,-8.493000031E0,3.060249514E1
7.871855630E-1,2.111999989E0,3.141300201E1,-9.028950691E0,3.275300276E1
7.891490520E-1,4.335000038E0,3.306105042E1,-7.879950523E0,3.426249991E1
7.911125630E-1,6.673050404E0,3.405795288E1,-6.270000458E0,3.526735972E1
7.930759810E-1,9.394050598E0,3.352095032E1,-4.162050247E0,3.506030461E1
7.950394190E-1,1.253700066E1,3.313800049E1,-1.861950040E0,3.547915331E1
7.970029740E-1,1.487505054E1,3.329100037E1,-5.970000029E-1,3.646798929E1
7.989664940E-1,1.591005039E1,3.336795044E1,-1.861950040E0,3.701373634E1
8.009298560E-1,1.594800091E1,3.378900146E1,-3.625050068E0,3.753899760E1
8.028932650E-1,1.418505096E1,3.440295029E1,-6.117000103E0,3.771201864E1
8.048566320E-1,1.065900040E1,3.470895004E1,-9.183000565E0,3.745200932E1
8.068200210E-1,5.830050468E0,3.417300034E1,-1.221105099E1,3.675449913E1
8.087826380E-1,8.089500666E-1,3.260100174E1,-1.500900078E1,3.589916181E1
8.107454820E-1,-3.598050117E0,3.057000160E1,-1.657995033E1,3.496234711E1
8.127091840E-1,-7.047000408E0,2.838495064E1,-1.704000092E1,3.384859330E1
8.146726340E-1,-9.577050209E0,2.643105125E1,-1.657995033E1,3.263763340E1
8.166361620E-1,-1.091805077E1,2.474400139E1,-1.539195061E1,3.111883000E1
8.185996530E-1,-1.111005020E1,2.317305183E1,-1.370505047E1,2.912476532E1
8.205627050E-1,-1.034400082E1,2.187000084E1,-1.155900097E1,2.681241863E1
8.225258860E-1,-9.079050064E0,2.068095016E1,-9.183000565E0,2.438151655E1
8.244892590E-1,-8.236050606E0,1.968495178E1,-6.460950375E0,2.229515050E1
8.264525760E-1,-8.082000732E0,1.918695068E1,-4.429950237E0,2.128572929E1
8.284159860E-1,-8.464950562E0,1.895700073E1,-4.429950237E0,2.122846494E1
8.303793590E-1,-9.117000580E0,1.880295181E1,-5.272950172E0,2.155167511E1
8.323422510E-1,-9.844950676E0,1.880295181E1,-6.193050385E0,2.210945327E1
8.343052840E-1,-1.053495026E1,1.884195137E1,-6.883050442E0,2.265790572E1
8.362686830E-1,-1.130205059E1,1.891800117E1,-7.687950134E0,2.333948785E1
8.382319750E-1,-1.206795025E1,1.899495125E1,-8.071050644E0,2.390785341E1
8.401953750E-1,-1.272000027E1,1.911000061E1,-8.263050079E0,2.439812548E1
8.421587440E-1,-1.318005085E1,1.918695068E1,-8.493000031E0,2.477869784E1
8.441216370E-1,-1.348605061E1,1.937805176E1,-8.799000740E0,2.519533419E1
8.460846690E-1,-1.367805099E1,1.949295044E1,-9.183000565E0,2.552237636E1
8.480481130E-1,-1.367805099E1,1.957005119E1,-9.259050369E0,2.560870939E1
8.500114360E-1,-1.352505112E1,1.960800171E1,-9.144000053E0,2.551496572E1
8.519746070E-1,-1.321800041E1,1.964700127E1,-8.838000298E0,2.527509531E1
8.539378230E-1,-1.283505058E1,1.964700127E1,-8.301000595E0,2.489276588E1
8.559012350E-1,-1.237500095E1,1.945500183E1,-7.573050499E0,2.426909225E1
8.578645900E-1,-1.210695076E1,1.922504997E1,-6.960000515E0,2.376178466E1
8.598279800E-1,-1.141695023E1,1.880295181E1,-5.772000313E0,2.274233359E1
8.617913590E-1,-1.068795013E1,1.845795059E1,-4.392000198E0,2.177654435E1
8.637545870E-1,-1.015200043E1,1.822800064E1,-3.739950180E0,2.119694193E1
8.657178760E-1,-9.499950409E0,1.803705025E1,-3.586950064E0,2.069904467E1
8.676810960E-1,-8.772000313E0,1.765395164E1,-3.357000113E0,1.999698597E1
8.696443370E-1,-8.005949974E0,1.715505028E1,-2.974050045E0,1.916340154E1
8.716075660E-1,-7.315950394E0,1.661894989E1,-2.359950066E0,1.831070698E1
8.735707990E-1,-6.778950214E0,1.615904999E1,-1.939050078E0,1.763034253E1
8.755343680E-1,-6.433950424E0,1.562205029E1,-1.861950040E0,1.699738307E1
8.774978210E-1,-6.280950069E0,1.504695034E1,-1.632000089E0,1.638671635E1
8.794612400E-1,-6.088950157E0,1.447200108E1,-1.555950046E0,1.577767758E1
8.814246690E-1,-6.013050079E0,1.393605042E1,-1.516950130E0,1.525357041E1
8.833880460E-1,-6.013050079E0,1.347600079E1,-1.479000092E0,1.483060382E1
8.853514380E-1,-5.974050522E0,1.309305096E1,-1.326000094E0,1.445252709E1
8.873146560E-1,-5.821050167E0,1.270905018E1,-1.018950105E0,1.401580682E1
8.892779150E-1,-5.706000328E0,1.224900055E1,-4.440000355E-1,1.352011798E1
8.912405550E-1,-5.437950134E0,1.175100040E1,1.300500035E-1,1.294890826E1
8.932033760E-1,-5.169000149E0,1.132905006E1,4.360500276E-1,1.246017967E1
8.951678030E-1,-5.016000271E0,1.102305031E1,3.979500234E-1,1.211718866E1
8.971317590E-1,-4.786050320E0,1.090800095E1,1.300500035E-1,1.191250080E1
8.990949910E-1,-4.479000092E0,1.083105087E1,-2.140500098E-1,1.172258172E1
9.010584430E-1,-4.096050262E0,1.098495007E1,-3.670500219E-1,1.172951326E1
9.030220400E-1,-3.675000191E0,1.121400070E1,-4.819500148E-1,1.181066103E1
9.049855950E-1,-3.406050205E0,1.148295021E1,-6.360000372E-1,1.199432447E1
9.069490870E-1,-3.138000250E0,1.182795048E1,-5.209500194E-1,1.224821811E1
9.089125970E-1,-3.061050177E0,1.224900055E1,-4.060500264E-1,1.263221751E1
9.108761290E-1,-2.908050060E0,1.274805069E1,-4.819500148E-1,1.308441162E1
9.128396620E-1,-2.830950022E0,1.328400040E1,-4.440000355E-1,1.358955778E1
9.148032020E-1,-2.677950144E0,1.374405098E1,-7.890000343E-1,1.402472372E1
9.167667390E-1,-2.563050032E0,1.393605042E1,-1.210950017E0,1.422143195E1
9.187297830E-1,-2.140950203E0,1.401195049E1,-1.555950046E0,1.425971265E1
9.206929720E-1,-1.681950092E0,1.401195049E1,-1.747050047E0,1.422026359E1
9.226561260E-1,-1.183050036E0,1.389705086E1,-1.747050047E0,1.405630868E1
9.246193170E-1,-7.999500632E-1,1.389705086E1,-1.516950130E0,1.400246694E1
9.265825990E-1,-4.549500346E-1,1.366695023E1,-1.057050109E0,1.371531490E1
9.285458550E-1,-1.099500060E-1,1.366695023E1,-2.910000086E-1,1.367049006E1
9.305093970E-1,4.639500082E-1,1.347600079E1,7.050000429E-1,1.350240245E1
9.324728550E-1,8.850000501E-1,1.343700027E1,1.432950020E0,1.354213968E1
9.344364210E-1,1.306950092E0,1.328400040E1,1.624950051E0,1.344668166E1
9.363999460E-1,1.804950118E0,1.324605083E1,2.161050081E0,1.354200299E1
9.383633530E-1,2.227050066E0,1.328400040E1,2.161050081E0,1.364164785E1
9.403267940E-1,2.725050211E0,1.293900108E1,2.161050081E0,1.339827545E1
9.422901690E-1,3.337950230E0,1.282395077E1,2.620950222E0,1.350796080E1
9.442535630E-1,3.607050180E0,1.267095089E1,2.545050144E0,1.341793903E1
9.462168820E-1,3.913050175E0,1.224900055E1,2.238000154E0,1.305215005E1
9.481802370E-1,4.182000160E0,1.186605072E1,2.314950228E0,1.279262598E1
9.501434910E-1,4.680000305E0,1.121400070E1,2.965950251E0,1.250812038E1
9.521067750E-1,5.215950012E0,1.067805004E1,3.579000235E0,1.241112928E1
9.540701760E-1,5.638050079E0,1.014105034E1,4.498950005E0,1.244463988E1
9.560335420E-1,6.097950459E0,9.528000832E0,5.380950451E0,1.252686822E1
9.579972410E-1,6.520050526E0,8.953050613E0,6.301050186E0,1.274250398E1
9.599608460E-1,6.826050282E0,8.377950668E0,6.837000370E0,1.278786901E1
9.619244190E-1,7.018050194E0,7.803000450E0,6.991050243E0,1.261010024E1
9.638880020E-1,7.095000267E0,7.152000427E0,6.952050209E0,1.224014465E1
9.658518470E-1,7.171050549E0,6.462000370E0,6.454050541E0,1.161189834E1
9.678156150E-1,7.324050426E0,5.809950352E0,5.686950207E0,1.094251527E1
9.697792530E-1,7.285950184E0,5.274000168E0,5.035950184E0,1.030829482E1
9.717429590E-1,7.210050106E0,4.929000378E0,4.653000355E0,9.895972896E0
9.737064690E-1,7.056000233E0,4.660050392E0,4.423050404E0,9.542881316E0
9.756700360E-1,6.750000477E0,4.239000320E0,4.231050014E0,9.024046453E0
9.776333890E-1,6.405000210E0,3.702000141E0,4.231050014E0,8.522359823E0
9.795968050E-1,5.983050346E0,3.166050196E0,4.231050014E0,7.982640510E0
9.815603580E-1,5.523000240E0,2.437050104E0,3.963000298E0,7.221365260E0
9.835238750E-1,5.254950047E0,1.671000123E0,3.541050196E0,6.553302823E0
9.854874170E-1,4.833000183E0,9.810000658E-1,3.118950129E0,5.835075133E0
9.874509520E-1,4.527000427E0,3.289500177E-1,2.965950251E0,5.422066199E0
9.894155730E-1,4.258049965E0,-1.680000126E-1,3.043050051E0,5.236350554E0
9.913798750E-1,3.952050209E0,-6.660000086E-1,3.157950163E0,5.102441190E0
9.933432790E-1,3.645000219E0,-1.279050112E0,3.196050167E0,5.013654601E0
9.953069490E-1,3.453000069E0,-1.816050053E0,3.118950129E0,4.994907123E0
9.972704650E-1,3.300000191E0,-2.275950193E0,3.118950129E0,5.079153517E0
9.992340260E-1,3.108000040E0,-2.659050226E0,3.118950129E0,5.143740104E0
1.001197561E0,3.070050240E0,-3.081000090E0,2.928000212E0,5.243181788E0
1.003161103E0,2.917050123E0,-3.579000235E0,2.736000061E0,5.366947031E0
1.005124472E0,2.764050245E0,-4.077000141E0,2.353049994E0,5.458822967E0
1.007087916E0,2.686950207E0,-4.575000286E0,1.816050053E0,5.607884345E0
1.009051245E0,2.533950090E0,-5.074050426E0,1.471050024E0,5.859255837E0
1.011014608E0,2.341950178E0,-5.457000256E0,1.279950023E0,6.074689662E0
1.012978221E0,2.227050066E0,-5.839950085E0,8.200500607E-1,6.303748971E0
1.014941760E0,2.074050188E0,-6.184950352E0,5.509500504E-1,6.546666403E0
1.016905104E0,1.843950033E0,-6.529950142E0,3.979500234E-1,6.796967324E0
1.018868516E0,1.575000048E0,-6.798000336E0,4.360500276E-1,6.991678864E0
1.020832075E0,1.384050012E0,-7.105050564E0,5.130000114E-1,7.256755953E0
1.022795591E0,1.192050099E0,-7.335000515E0,5.509500504E-1,7.451628141E0
1.024758188E0,8.470500112E-1,-7.488000393E0,7.050000429E-1,7.568663598E0
1.026721055E0,3.870000243E-1,-7.564950466E0,7.429500222E-1,7.611190400E0
1.028684713E0,1.189500093E-1,-7.488000393E0,5.899500251E-1,7.512146166E0
1.030648135E0,-2.629500031E-1,-7.372950554E0,5.509500504E-1,7.398181434E0
1.032611558E0,-5.320500135E-1,-7.219950199E0,5.130000114E-1,7.257680560E0
1.034574981E0,-7.999500632E-1,-6.952050209E0,3.979500234E-1,7.009228662E0
1.036539395E0,-1.030050039E0,-6.684000492E0,2.449500114E-1,6.767338189E0
1.038503519E0,-1.260000110E0,-6.339000225E0,9.195000678E-2,6.463666060E0
1.040466823E0,-1.375050068E0,-5.955000401E0,1.500000060E-2,6.111711500E0
1.042430368E0,-1.642950058E0,-5.304000378E0,-2.205000073E-2,5.552674230E0
1.044394219E0,-1.758000135E0,-4.729050159E0,1.500000060E-2,5.045265591E0
1.046357981E0,-1.795950055E0,-4.000950336E0,2.070000172E-1,4.390431551E0
1.048320806E0,-1.873050094E0,-3.310950041E0,4.750500321E-1,3.833585705E0
1.050283906E0,-1.795950055E0,-2.773950100E0,8.200500607E-1,3.404808050E0
1.052247713E0,-1.642950058E0,-2.199000120E0,1.126049995E0,2.966963939E0
1.054211303E0,-1.489950061E0,-1.738950133E0,1.356000066E0,2.661322026E0
1.056174967E0,-1.297950029E0,-1.356000066E0,1.471050024E0,2.384826751E0
1.058138610E0,-1.030050039E0,-1.011000037E0,1.510050058E0,2.088869392E0
1.060101817E0,-7.620000243E-1,-6.660000086E-1,1.585950017E0,1.881339285E0
1.062065151E0,-4.930500090E-1,-3.979500234E-1,1.624950051E0,1.744111580E0
1.064028744E0,-1.480500102E-1,-2.059500068E-1,1.701000094E0,1.719806830E0
1.065992246E0,1.570500135E-1,-1.290000081E-1,1.777950048E0,1.789528453E0
1.067955926E0,5.410500169E-1,-1.500000060E-2,1.930950046E0,2.005374828E0
1.069919554E0,7.699500322E-1,1.380000114E-1,1.969950080E0,2.119568440E0
1.071882898E0,1.039050102E0,3.289500177E-1,1.930950046E0,2.217295945E0
1.073846325E0,1.269000053E0,5.209500194E-1,1.893000126E0,2.337776622E0
1.075810046E0,1.384050012E0,7.129500508E-1,1.893000126E0,2.450987900E0
1.077773692E0,1.614000082E0,9.430500269E-1,1.777950048E0,2.579815108E0
1.079736853E0,1.882050037E0,1.096050024E0,1.701000094E0,2.763483186E0
1.081700156E0,2.111999989E0,1.326000094E0,1.701000094E0,3.018645644E0
1.083663375E0,2.304000139E0,1.518000126E0,1.548000097E0,3.163707528E0
1.085626618E0,2.610000134E0,1.747950077E0,1.471050024E0,3.468633498E0
1.087590246E0,2.839950085E0,1.900950074E0,1.279950023E0,3.649273863E0
1.089553764E0,3.070050240E0,2.053950071E0,1.050000072E0,3.840106707E0
1.091517667E0,3.337950230E0,2.169000149E0,7.429500222E-1,4.049499737E0
1.093481457E0,3.645000219E0,2.245950222E0,3.979500234E-1,4.299846883E0
1.095445448E0,3.952050209E0,2.322000027E0,1.680000126E-1,4.586786346E0
1.097409380E0,4.335000038E0,2.322000027E0,-1.759500057E-1,4.920860480E0
1.099372833E0,4.717950344E0,2.284050226E0,-5.209500194E-1,5.267573427E0
1.101336440E0,5.101050377E0,2.245950222E0,-1.134000063E0,5.687790739E0
1.103299831E0,5.560950279E0,2.361000061E0,-1.786050081E0,6.299878109E0
1.105263286E0,5.905950069E0,2.437050104E0,-2.475000143E0,6.851648352E0
1.107226973E0,6.328050137E0,2.551950216E0,-2.859000206E0,7.398009909E0
1.109190592E0,6.750000477E0,2.859000206E0,-2.590050220E0,7.774622098E0
1.111154156E0,6.750000477E0,3.319050074E0,-1.671000123E0,7.705247643E0
1.113117709E0,6.673050404E0,3.817050219E0,-2.205000073E-2,7.687649853E0
1.115080389E0,6.328050137E0,4.507050037E0,2.008050203E0,8.024336994E0
1.117043324E0,5.983050346E0,5.197050095E0,4.308000088E0,9.020259746E0
1.119006920E0,5.599950314E0,5.925000191E0,6.262050152E0,1.027999722E1
1.120970322E0,5.293050289E0,6.730050087E0,7.834050179E0,1.160527026E1
1.122934035E0,4.948050022E0,7.573050499E0,8.791950226E0,1.261478029E1
1.124897678E0,4.564949989E0,8.569950104E0,9.136950493E0,1.333291707E1
1.126861378E0,4.219950199E0,9.643050194E0,9.022050858E0,1.386339779E1
1.128825062E0,3.874950171E0,1.110000038E1,8.254950523E0,1.436556492E1
1.130788756E0,3.721950293E0,1.236405087E1,7.411950588E0,1.488823963E1
1.132752447E0,3.798000097E0,1.355205059E1,5.802000046E0,1.522320874E1
1.134716218E0,3.913050175E0,1.470195103E1,3.733050108E0,1.566508821E1
1.136679942E0,3.682950258E0,1.585200119E1,1.279950023E0,1.632447048E1
1.138644486E0,2.955000162E0,1.704000092E1,-1.516950130E0,1.736072564E1
1.140608789E0,1.651950121E0,1.795995140E1,-4.392000198E0,1.856282466E1
1.142571341E0,-1.099500060E-1,1.968495178E1,-6.768000126E0,2.081622544E1
1.144534406E0,-2.716050148E0,2.229105186E1,-8.455050468E0,2.399491196E1
1.146498006E0,-5.668050289E0,2.554905128E1,-9.643050194E0,2.789030715E1
1.148461462E0,-8.121000290E0,2.896005058E1,-1.006395054E1,3.171621472E1
1.150424970E0,-9.615000725E0,3.283095169E1,-1.010295010E1,3.567056530E1
1.152388462E0,-1.072695065E1,3.743100357E1,-8.875950813E0,3.993657473E1
1.154352054E0,-1.229805088E1,4.318005371E1,-8.377950668E0,4.567219232E1
1.156315616E0,-1.406100082E1,4.839195251E1,-8.683950424E0,5.113613016E1
1.158279569E0,-1.567095089E1,5.337495422E1,-9.643050194E0,5.645753145E1
1.160243366E0,-1.701300049E1,5.762895203E1,-1.017900085E1,6.094382951E1
1.162206816E0,-1.781700134E1,6.088695145E1,-1.071600056E1,6.433893892E1
1.164170368E0,-1.797105026E1,6.249705124E1,-1.125195026E1,6.599580627E1
1.166133948E0,-1.712805176E1,6.234405136E1,-1.186605072E1,6.573396426E1
1.168097520E0,-1.597800064E1,6.081000137E1,-1.217205048E1,6.404148331E1
1.170061058E0,-1.421505070E1,5.801205444E1,-1.178895092E1,6.088058386E1
1.172024603E0,-1.168500042E1,5.356605148E1,-1.048605061E1,5.581951597E1
1.173988140E0,-8.925000191E0,4.774095154E1,-9.336000443E0,4.945720358E1
1.175951680E0,-6.931950092E0,4.229805374E1,-8.683950424E0,4.373314850E1
1.177915352E0,-5.706000328E0,3.811995316E1,-8.301000595E0,3.942836389E1
1.179878985E0,-4.786050320E0,3.463305283E1,-8.263050079E0,3.592537574E1
1.181842489E0,-4.096050262E0,3.179595184E1,-8.569950104E0,3.318439733E1
1.183806045E0,-3.559950113E0,2.934300232E1,-8.875950813E0,3.086207272E1
1.185769446E0,-3.022950172E0,2.727405167E1,-9.183000565E0,2.893682120E1
1.187732892E0,-2.256000042E0,2.535705185E1,-9.373950005E0,2.712822429E1
1.189696580E0,-1.489950061E0,2.363295174E1,-9.604050636E0,2.555335883E1
1.191660197E0,-6.079500318E-1,2.221500015E1,-9.681000710E0,2.424041274E1
1.193624502E0,2.719500065E-1,2.087295151E1,-9.718950272E0,2.302633396E1
1.195588596E0,1.153950095E0,1.960800171E1,-9.834000587E0,2.196617626E1
1.197552176E0,1.843950033E0,1.857299995E1,-1.002600002E1,2.118672121E1
1.199515906E0,2.572050095E0,1.750005150E1,-1.029405022E1,2.046545172E1
1.201479411E0,3.184950113E0,1.650405121E1,-1.044795036E1,1.979109093E1
1.203442982E0,3.529950142E0,1.558395100E1,-1.056300068E1,1.915455716E1
1.205406559E0,3.837000132E0,1.497105026E1,-1.040895081E1,1.863333499E1
1.207370134E0,4.143000126E0,1.435695076E1,-1.037100029E1,1.818912126E1
1.209333667E0,4.182000160E0,1.378200054E1,-1.014105034E1,1.761458391E1
1.211297213E0,4.219950199E0,1.320795059E1,-9.796050072E0,1.697705910E1
1.213260750E0,4.258049965E0,1.270905018E1,-9.451050758E0,1.640040568E1
1.215224290E0,4.105050087E0,1.232595062E1,-9.183000565E0,1.590936813E1
1.217188128E0,3.837000132E0,1.190400028E1,-8.646000862E0,1.520464152E1
1.219151889E0,3.913050175E0,1.148295021E1,-8.301000595E0,1.469954823E1
1.221115570E0,3.913050175E0,1.110000038E1,-7.995000362E0,1.422821145E1
1.223079275E0,3.682950258E0,1.067805004E1,-7.342950344E0,1.347233443E1
1.225043009E0,3.568050146E0,1.033305073E1,-7.036050320E0,1.300034320E1
1.227006735E0,3.837000132E0,9.910950661E0,-6.499950409E0,1.245788378E1
1.228970557E0,3.990000248E0,9.565950394E0,-6.040050507E0,1.199623770E1
1.230934350E0,4.219950199E0,9.145050049E0,-5.464950085E0,1.145886554E1
1.232898250E0,4.411950111E0,8.569950104E0,-4.927950382E0,1.082561978E1
1.234862119E0,4.066950321E0,8.032950401E0,-4.276950359E0,9.967982817E0
1.236825782E0,3.760050297E0,7.497000217E0,-3.778950214E0,9.199100783E0
1.238789506E0,3.300000191E0,6.960000515E0,-3.394950151E0,8.417677528E0
1.240753492E0,2.764050245E0,6.424050331E0,-3.204000235E0,7.692464749E0
1.242717412E0,2.380050182E0,5.772000313E0,-3.280050039E0,7.052613327E0
1.244680886E0,2.074050188E0,5.119950294E0,-2.974050045E0,6.273798600E0
1.246644491E0,1.729050040E0,4.545000076E0,-2.359950066E0,5.405183073E0
1.248608197E0,1.306950092E0,4.085999966E0,-1.861950040E0,4.676576976E0
1.250571874E0,9.619500637E-1,3.549000263E0,-1.402050018E0,3.935288433E0
1.252534509E0,4.260000288E-1,3.127050161E0,-7.120500207E-1,3.235264127E0
1.254497467E0,8.100000024E-2,2.667000055E0,-6.105000153E-2,2.668928136E0
1.256460744E0,-2.250000089E-1,2.208000183E0,5.509500504E-1,2.286795962E0
1.258423927E0,-6.469500065E-1,1.708950043E0,1.240950108E0,2.208848507E0
1.260387346E0,-1.144950032E0,1.288050056E0,1.471050024E0,2.265826934E0
1.262350696E0,-1.413000107E0,8.659500480E-1,1.624950051E0,2.320969939E0
1.264314763E0,-1.681950092E0,3.679500222E-1,1.701000094E0,2.420277805E0
1.266278619E0,-1.795950055E0,-5.295000225E-2,1.855050087E0,2.582528050E0
1.268242104E0,-1.795950055E0,-3.589500189E-1,2.122950077E0,2.803782935E0
1.270205698E0,-1.795950055E0,-7.039500475E-1,2.200050116E0,2.925953311E0
1.272169092E0,-1.795950055E0,-1.087950110E0,2.314950228E0,3.125390632E0
1.274132544E0,-1.834950089E0,-1.471050024E0,2.353049994E0,3.326841486E0
1.276095898E0,-1.834950089E0,-1.738950133E0,2.238000154E0,3.376334416E0
1.278059294E0,-1.642950058E0,-2.046000004E0,2.161050081E0,3.399343813E0
1.280022856E0,-1.413000107E0,-2.391000032E0,1.969950080E0,3.405018910E0
1.281986369E0,-1.375050068E0,-2.697000027E0,1.740000129E0,3.491729125E0
1.283950047E0,-1.222050071E0,-3.042000055E0,1.510050058E0,3.609352004E0
1.285913677E0,-1.144950032E0,-3.349050045E0,1.356000066E0,3.790222020E0
1.287877071E0,-1.030050039E0,-3.694050074E0,1.165050030E0,4.008035754E0
1.289840530E0,-9.150000215E-1,-4.039050102E0,9.730500579E-1,4.254171739E0
1.291804036E0,-7.999500632E-1,-4.306950092E0,9.349500537E-1,4.479271236E0
1.293767528E0,-6.469500065E-1,-4.651950359E0,8.959500194E-1,4.781413274E0
1.295730940E0,-5.320500135E-1,-4.882050037E0,8.959500194E-1,4.992015247E0
1.297694376E0,-4.170000255E-1,-4.959000111E0,9.730500579E-1,5.070739348E0
1.299657678E0,-3.400500119E-1,-5.112000465E0,9.730500579E-1,5.214883430E0
1.301621040E0,-7.200000435E-2,-5.494950294E0,1.050000072E0,5.594833589E0
1.303584652E0,-7.200000435E-2,-5.610000134E0,1.203000069E0,5.737986987E0
1.305548191E0,8.100000024E-2,-5.610000134E0,1.318050027E0,5.763325288E0
1.307512226E0,1.960500032E-1,-5.686950207E0,1.432950020E0,5.867979552E0
1.309476115E0,3.109500110E-1,-5.802000046E0,1.510050058E0,6.003344536E0
1.311439473E0,2.340000123E-1,-5.725050449E0,1.701000094E0,5.976985860E0
1.313402977E0,3.109500110E-1,-5.610000134E0,1.855050087E0,5.916925066E0
1.315366476E0,2.719500065E-1,-5.341950417E0,2.238000154E0,5.798192455E0
1.317329977E0,4.639500082E-1,-5.265000343E0,2.391000032E0,5.801065366E0
1.319294286E0,4.639500082E-1,-5.188950062E0,2.965950251E0,5.994773828E0
1.321258359E0,5.790000558E-1,-4.996950150E0,3.196050167E0,5.959822861E0
1.323222329E0,6.940500140E-1,-4.690050125E0,3.694050074E0,6.010347872E0
1.325186342E0,1.039050102E0,-4.384050369E0,4.384050369E0,6.286447359E0
1.327149799E0,1.345050097E0,-4.039050102E0,5.151000023E0,6.682506021E0
1.329113419E0,1.422000051E0,-3.694050074E0,5.457000256E0,6.741434705E0
1.331076763E0,1.575000048E0,-3.387000084E0,5.841000080E0,6.933229886E0
1.333040188E0,1.651950121E0,-3.081000090E0,5.956050396E0,6.906231756E0
1.335003566E0,1.767000079E0,-2.773950100E0,6.070950508E0,6.904601980E0
1.336966958E0,2.035050154E0,-2.544000149E0,6.262050152E0,7.058798622E0
1.338930881E0,2.035050154E0,-2.238000154E0,6.031950474E0,6.747925632E0
1.340894648E0,2.074050188E0,-1.893000126E0,6.031950474E0,6.653537418E0
1.342858463E0,2.188950062E0,-1.701000094E0,5.878950119E0,6.499766011E0
1.344822263E0,2.265000105E0,-1.393950105E0,5.764050484E0,6.348039095E0
1.346785919E0,2.227050066E0,-1.164000034E0,5.533950329E0,6.077767215E0
1.348749631E0,2.227050066E0,-8.580000401E-1,5.304000378E0,5.816213207E0
1.350713320E0,2.188950062E0,-5.890500546E-1,4.959000111E0,5.452537431E0
1.352677016E0,2.149950027E0,-4.740000367E-1,4.614000320E0,5.112334116E0
1.354641067E0,2.149950027E0,-3.589500189E-1,4.231050014E0,4.759507796E0
1.356605014E0,2.035050154E0,-2.059500068E-1,3.771000147E0,4.290021753E0
1.358567781E0,1.767000079E0,-1.290000081E-1,3.310950041E0,3.755172493E0
1.360530881E0,1.614000082E0,6.105000153E-2,2.773950100E0,3.209910049E0
1.362494719E0,1.537050128E0,1.759500057E-1,2.122950077E0,2.626860965E0
1.364458340E0,1.537050128E0,2.910000086E-1,1.548000097E0,2.200797220E0
1.366422766E0,1.498950124E0,5.590500236E-1,8.580000401E-1,1.815365658E0
1.368386956E0,1.498950124E0,7.129500508E-1,-2.205000073E-2,1.660010678E0
1.370350744E0,1.459950089E0,8.280000687E-1,-7.120500207E-1,1.823198730E0
1.372314650E0,1.498950124E0,1.096050024E0,-1.441050053E0,2.350489818E0
1.374278306E0,1.422000051E0,1.288050056E0,-2.245050192E0,2.953202914E0
1.376242035E0,1.422000051E0,1.479000092E0,-3.088950157E0,3.708252754E0
1.378205721E0,1.422000051E0,1.671000123E0,-3.739950180E0,4.336075749E0
1.380169419E0,1.459950089E0,1.900950074E0,-4.315050125E0,4.936063516E0
1.382133070E0,1.384050012E0,2.245950222E0,-4.852050304E0,5.522886835E0
1.384096732E0,1.384050012E0,2.398950100E0,-5.464950085E0,6.126682254E0
1.386060474E0,1.345050097E0,2.667000055E0,-5.962950230E0,6.669244672E0
1.388024192E0,1.306950092E0,2.782050133E0,-6.232050419E0,6.948839753E0
1.389988060E0,1.230000019E0,2.935950041E0,-6.307950497E0,7.065616899E0
1.391951884E0,1.192050099E0,2.935950041E0,-6.193050385E0,6.956626995E0
1.393915389E0,1.000050068E0,2.974050045E0,-6.001950264E0,6.772627317E0
1.395878977E0,6.550500393E-1,3.012000084E0,-5.695050240E0,6.475710949E0
1.397841966E0,3.870000243E-1,3.012000084E0,-5.158050060E0,5.985598880E0
1.399805131E0,8.100000024E-2,2.935950041E0,-4.468050003E0,5.346946275E0
1.401768912E0,-1.480500102E-1,2.896950245E0,-3.664050102E0,4.673275369E0
1.403732513E0,-3.780000210E-1,2.859000206E0,-2.782050133E0,4.007064903E0
1.405695997E0,-6.079500318E-1,2.782050133E0,-1.977000117E0,3.466689436E0
1.407659515E0,-6.469500065E-1,2.743950129E0,-1.210950017E0,3.068257904E0
1.409622381E0,-6.469500065E-1,2.629050016E0,-3.289500177E-1,2.727390037E0
1.411585438E0,-6.850500107E-1,2.706000090E0,7.429500222E-1,2.888547167E0
1.413549238E0,-7.230000496E-1,2.821050167E0,2.008050203E0,3.537416958E0
1.415512821E0,-9.150000215E-1,3.127050161E0,3.618000269E0,4.868839050E0
1.417476516E0,-1.260000110E0,3.396000147E0,5.457000256E0,6.549753359E0
1.419440158E0,-1.720050097E0,3.856050253E0,7.450050354E0,8.563349004E0
1.421403859E0,-2.140950203E0,4.431000233E0,9.289950371E0,1.051287823E1
1.423367542E0,-2.677950144E0,5.044050217E0,1.086195087E1,1.227174952E1
1.425331462E0,-3.061050177E0,5.695050240E0,1.204995060E1,1.367497477E1
1.427295312E0,-3.175950050E0,6.309000492E0,1.281600094E1,1.463352405E1
1.429259127E0,-3.022950172E0,6.883050442E0,1.304595089E1,1.505694012E1
1.431222943E0,-2.640000105E0,7.687950134E0,1.277805042E1,1.514439667E1
1.433186659E0,-1.950000048E0,8.569950104E0,1.189605045E1,1.479062410E1
1.435150405E0,-1.222050071E0,9.643050194E0,1.013295078E1,1.404131457E1
1.437115168E0,-2.250000089E-1,1.067805004E1,7.719000340E0,1.317779739E1
1.439079633E0,8.089500666E-1,1.175100040E1,4.843950272E0,1.273594382E1
1.441044079E0,1.651950121E0,1.301595020E1,1.585950017E0,1.321586684E1
1.443008511E0,2.074050188E0,1.470195103E1,-1.900950074E0,1.496872270E1
1.444971355E0,1.459950089E0,1.700205040E1,-5.772000313E0,1.801435982E1
1.446934664E0,5.020500422E-1,1.964700127E1,-9.451050758E0,2.180777553E1
1.448898286E0,-5.320500135E-1,2.267400169E1,-1.186605072E1,2.559680819E1
1.450861816E0,-1.528050065E0,2.570205116E1,-1.316895103E1,2.891974485E1
1.452825351E0,-2.332950115E0,2.861505127E1,-1.293900108E1,3.149097592E1
1.454788888E0,-2.908050060E0,3.137505150E1,-1.152105045E1,3.354974240E1
1.456752787E0,-3.367950201E0,3.378900146E1,-9.067950249E0,3.514637151E1
1.458716580E0,-3.367950201E0,3.543795013E1,-5.772000313E0,3.606254824E1
1.460679490E0,-2.677950144E0,3.647205353E1,-2.206950188E0,3.663676752E1
1.462642659E0,-9.919500351E-1,3.654900360E1,8.200500607E-1,3.657165721E1
1.464607197E0,1.537050128E0,3.582105255E1,2.430000067E0,3.593626621E1
1.466571341E0,4.258049965E0,3.432600021E1,3.273000240E0,3.474360100E1
1.468535092E0,6.520050526E0,3.256305313E1,4.078050137E0,3.345884010E1
1.470498958E0,7.899000168E0,3.103005219E1,3.157950163E0,3.217500570E1
1.472463521E0,7.975950241E0,2.991795158E1,7.429500222E-1,3.097178690E1
1.474427879E0,6.595950127E0,2.876895142E1,-2.629050016E0,2.963226329E1
1.476391292E0,4.182000160E0,2.758005142E1,-6.346950531E0,2.860825305E1
1.478354972E0,1.230000019E0,2.646900177E1,-9.067950249E0,2.800622567E1
1.480317991E0,-1.720050097E0,2.524200058E1,-1.037100029E1,2.734364300E1
1.482281203E0,-3.981000185E0,2.397795105E1,-1.071600056E1,2.656356842E1
1.484245292E0,-5.398950100E0,2.271300125E1,-1.060095024E1,2.563999286E1
1.486209124E0,-6.013050079E0,2.160105133E1,-1.021800041E1,2.464081416E1
1.488172853E0,-6.051000118E0,2.079600143E1,-9.834000587E0,2.378646350E1
1.490136602E0,-5.782950401E0,2.010600090E1,-9.336000443E0,2.290970737E1
1.492100418E0,-5.476050377E0,1.945500183E1,-8.799000740E0,2.204329009E1
1.494064215E0,-5.092950344E0,1.895700073E1,-8.224950790E0,2.128275911E1
1.496028069E0,-5.131050110E0,1.857299995E1,-7.918050289E0,2.083217518E1
1.497991907E0,-5.053950310E0,1.819005013E1,-7.803000450E0,2.042809715E1
1.499955636E0,-5.131050110E0,1.792200089E1,-7.765050411E0,2.019459826E1
1.501919386E0,-5.437950134E0,1.784505081E1,-7.611000538E0,2.014806366E1
1.503883247E0,-5.706000328E0,1.776900101E1,-7.458000183E0,2.009770144E1
1.505847076E0,-6.051000118E0,1.784505081E1,-7.305000305E0,2.020948961E1
1.507810925E0,-6.396000385E0,1.792200089E1,-7.342950344E0,2.039671190E1
1.509774768E0,-6.702000141E0,1.795995140E1,-7.495950222E0,2.058314675E1
1.511738790E0,-6.856050491E0,1.788300133E1,-7.840950489E0,2.069511221E1
1.513702763E0,-6.931950092E0,1.784505081E1,-8.185950279E0,2.082084418E1
1.515666768E0,-7.047000408E0,1.780695152E1,-8.263050079E0,2.085727053E1
1.517630763E0,-7.123950481E0,1.784505081E1,-8.224950790E0,2.090086899E1
1.519594540E0,-7.239000320E0,1.792200089E1,-8.185950279E0,2.099073661E1
1.521558381E0,-7.392000198E0,1.819005013E1,-7.879950523E0,2.115687148E1
1.523522598E0,-7.468950272E0,1.834305000E1,-7.650000572E0,2.123146746E1
1.525486697E0,-7.584000587E0,1.849695015E1,-7.075050354E0,2.120638034E1
1.527450501E0,-7.660950184E0,1.872705078E1,-6.615000248E0,2.128733936E1
1.529414391E0,-7.584000587E0,1.895700073E1,-6.307950497E0,2.136995978E1
1.531378094E0,-7.468950272E0,1.914795113E1,-6.193050385E0,2.146585949E1
1.533341852E0,-7.354050159E0,1.922504997E1,-5.925000191E0,2.141938905E1
1.535305473E0,-7.123950481E0,1.930200005E1,-5.464950085E0,2.128810832E1
1.537269145E0,-6.894000530E0,1.937805176E1,-5.235000134E0,2.122360383E1
1.539232661E0,-6.856050491E0,1.937805176E1,-4.966950417E0,2.114674714E1
1.541196222E0,-6.702000141E0,1.941705132E1,-4.507050037E0,2.102979286E1
1.543160116E0,-6.549000263E0,1.926300049E1,-3.894000292E0,2.071511116E1
1.545123912E0,-6.586950302E0,1.907205009E1,-3.394950151E0,2.046110201E1
1.547087590E0,-6.702000141E0,1.880295181E1,-3.127050161E0,2.020510444E1
1.549051333E0,-6.970950127E0,1.853505135E1,-2.782050133E0,1.999705171E1
1.551015017E0,-7.123950481E0,1.819005013E1,-2.514000177E0,1.969641569E1
1.552978718E0,-7.468950272E0,1.788300133E1,-2.284050226E0,1.951419586E1
1.554942588E0,-7.852050304E0,1.750005150E1,-2.014950037E0,1.928643358E1
1.556906408E0,-8.236050606E0,1.704000092E1,-1.708950043E0,1.900301742E1
1.558870257E0,-8.734050751E0,1.657995033E1,-1.171950102E0,1.877636447E1
1.560834068E0,-9.001950264E0,1.608195114E1,-6.360000372E-1,1.844095326E1
1.562797605E0,-9.154950142E0,1.566000080E1,-4.060500264E-1,1.814424465E1
1.564761222E0,-9.154950142E0,1.516200066E1,-3.670500219E-1,1.771536344E1
1.566724881E0,-9.154950142E0,1.462605095E1,-6.739500165E-1,1.726814081E1
1.568688528E0,-9.079050064E0,1.424205112E1,-8.659500480E-1,1.691197918E1
1.570652085E0,-8.848950386E0,1.393605042E1,-9.040500522E-1,1.653283795E1
1.572615675E0,-8.427000046E0,1.351395035E1,-1.057050109E0,1.596115719E1
1.574579519E0,-8.158950806E0,1.316895103E1,-1.057050109E0,1.552762392E1
1.576543288E0,-7.699050426E0,1.267095089E1,-1.134000063E0,1.486991359E1
1.578507014E0,-7.354050159E0,1.221105099E1,-1.210950017E0,1.430588061E1
1.580470752E0,-7.047000408E0,1.167405033E1,-1.441050053E0,1.371204912E1
1.582434560E0,-6.817050457E0,1.106100082E1,-1.708950043E0,1.310490085E1
1.584398355E0,-6.433950424E0,1.052505016E1,-2.014950037E0,1.249929689E1
1.586362210E0,-5.898000240E0,9.757950783E0,-2.322000027E0,1.163596556E1
1.588326047E0,-5.476050377E0,8.953050613E0,-2.398950100E0,1.076564929E1
1.590289895E0,-4.978050232E0,8.148000717E0,-2.245050192E0,9.808728264E0
1.592253740E0,-4.555950165E0,7.497000217E0,-2.014950037E0,9.001206464E0
1.594217237E0,-4.479000092E0,6.997950554E0,-1.516950130E0,8.445939348E0
1.596180829E0,-4.518000126E0,6.883050442E0,-7.120500207E-1,8.264122685E0
1.598143457E0,-4.518000126E0,6.922050476E0,3.979500234E-1,8.275594973E0
1.600106367E0,-4.363950253E0,7.075050354E0,1.126049995E0,8.388586765E0
1.602069877E0,-4.441050053E0,7.687950134E0,1.471050024E0,8.999527266E0
1.604033211E0,-4.210950375E0,8.263050079E0,1.701000094E0,9.428865308E0
1.605996771E0,-3.865950108E0,8.953050613E0,2.620950222E0,1.009812188E1
1.607960274E0,-3.138000250E0,9.490050316E0,3.733050108E0,1.066975931E1
1.609923819E0,-2.640000105E0,9.910950661E0,4.576050282E0,1.123106316E1
1.611887351E0,-1.795950055E0,1.014105034E1,5.266050339E0,1.156709232E1
1.613851792E0,-6.079500318E-1,1.002600002E1,6.070950508E0,1.173655485E1
1.615815966E0,6.169500351E-1,9.796050072E0,6.721950531E0,1.189654754E1
1.617779563E0,1.690050125E0,9.451050758E0,7.258950233E0,1.203623647E1
1.619743339E0,2.533950090E0,9.259950638E0,7.489050388E0,1.217593793E1
1.621706972E0,3.300000191E0,9.259950638E0,7.987050533E0,1.266608319E1
1.623670647E0,3.990000248E0,9.030000687E0,8.293950081E0,1.289382109E1
1.625634521E0,4.680000305E0,8.647050858E0,8.217000008E0,1.281378088E1
1.627598337E0,5.331000328E0,8.032950401E0,7.872000217E0,1.244653542E1
1.629561849E0,5.944950104E0,7.342950344E0,7.603950500E0,1.212771267E1
1.631525468E0,6.595950127E0,6.691950321E0,7.335000515E0,1.192019252E1
1.633489172E0,7.018050194E0,5.925000191E0,7.029000282E0,1.156570364E1
1.635452851E0,7.401000500E0,5.274000168E0,6.913950443E0,1.141895779E1
1.637416726E0,7.593000412E0,4.545000076E0,7.029000282E0,1.130121790E1
1.639380543E0,7.783950329E0,3.856050253E0,6.913950443E0,1.110232935E1
1.641344235E0,7.975950241E0,3.241950035E0,6.646050453E0,1.087639687E1
1.643307950E0,8.091000557E0,2.590950012E0,6.186000347E0,1.050922986E1
1.645271772E0,8.206049919E0,1.900950074E0,5.649000168E0,1.014219253E1
1.647235563E0,8.282999992E0,1.288050056E0,5.266050339E0,9.899416548E0
1.649199644E0,8.359050751E0,5.590500236E-1,5.112000465E0,9.814214953E0
1.651163640E0,8.398050308E0,-1.290000081E-1,4.959000111E0,9.753746566E0
1.653127134E0,8.436000824E0,-7.039500475E-1,4.996950150E0,9.830115277E0
1.655090752E0,8.398050308E0,-1.548000097E0,4.843950272E0,9.817708873E0
1.657054816E0,8.244000435E0,-2.161050081E0,4.614000320E0,9.691371398E0
1.659018750E0,8.091000557E0,-2.851050138E0,4.308000088E0,9.599564660E0
1.660982357E0,7.822950363E0,-3.426000118E0,4.153950214E0,9.496911686E0
1.662946060E0,7.593000412E0,-3.961950302E0,4.078050137E0,9.485841996E0
1.664909606E0,7.363050461E0,-4.345950127E0,4.078050137E0,9.472712785E0
1.666873204E0,7.132950306E0,-4.690050125E0,3.963000298E0,9.411743813E0
1.668836912E0,6.979950428E0,-4.996950150E0,3.771000147E0,9.376015192E0
1.670800587E0,6.750000477E0,-5.380050182E0,3.502950191E0,9.315476716E0
1.672763878E0,6.595950127E0,-5.764050484E0,3.043050051E0,9.273132678E0
1.674727281E0,6.366000175E0,-6.031950474E0,2.812950134E0,9.209944257E0
1.676691007E0,6.097950459E0,-6.262050152E0,2.620950222E0,9.125111066E0
1.678654649E0,5.791050434E0,-6.492000103E0,2.353049994E0,9.012168149E0
1.680618036E0,5.407950401E0,-6.607050419E0,2.122950077E0,8.798065686E0
1.682581497E0,5.101050377E0,-6.721950531E0,2.122950077E0,8.701278694E0
1.684545003E0,4.564949989E0,-6.607050419E0,2.008050203E0,8.277931460E0
1.686508495E0,3.874950171E0,-6.529950142E0,1.969950080E0,7.844500685E0
1.688472193E0,3.262050152E0,-6.300000191E0,1.930950046E0,7.352519410E0
1.690435851E0,2.686950207E0,-5.955000401E0,1.893000126E0,6.801851267E0
1.692399415E0,2.188950062E0,-5.610000134E0,1.969950080E0,6.335953534E0
1.694363007E0,1.843950033E0,-5.265000343E0,1.930950046E0,5.903299791E0
1.696327076E0,1.575000048E0,-4.959000111E0,1.816050053E0,5.510929599E0
1.698291005E0,1.384050012E0,-4.690050125E0,1.585950017E0,5.140758900E0
1.700254648E0,1.269000053E0,-4.422000408E0,1.395000100E0,4.807335439E0
1.702218382E0,1.192050099E0,-4.039050102E0,1.050000072E0,4.340208442E0
1.704182922E0,1.000050068E0,-3.579000235E0,5.509500504E-1,3.756712496E0
1.706147226E0,6.940500140E-1,-3.157050133E0,1.300500035E-1,3.235055481E0
1.708110094E0,6.169500351E-1,-2.812050104E0,-2.520000041E-1,2.889940680E0
1.710073382E0,5.020500422E-1,-2.467050076E0,-3.670500219E-1,2.544231915E0
1.712036817E0,4.260000288E-1,-2.122950077E0,-1.759500057E-1,2.172406835E0
1.714000216E0,3.490500152E-1,-1.930950046E0,-6.105000153E-2,1.963194105E0
1.715962833E0,4.260000288E-1,-1.548000097E0,2.830500007E-1,1.630305992E0
1.717925680E0,3.870000243E-1,-1.318050027E0,8.580000401E-1,1.619626179E0
1.719890237E0,5.410500169E-1,-1.087950110E0,1.279950023E0,1.764835013E0
1.721854293E0,7.699500322E-1,-8.959500194E-1,1.548000097E0,1.947268289E0
1.723817983E0,9.240000248E-1,-7.810500264E-1,1.893000126E0,2.246611819E0
1.725781771E0,1.114950061E0,-6.660000086E-1,2.122950077E0,2.488691761E0
1.727745222E0,1.306950092E0,-6.280500293E-1,2.314950228E0,2.731585609E0
1.729708771E0,1.459950089E0,-5.509500504E-1,2.506050110E0,2.952166556E0
1.731672352E0,1.729050040E0,-5.130000114E-1,2.659050226E0,3.212994111E0
1.733635923E0,2.035050154E0,-4.360500276E-1,2.620950222E0,3.346781860E0
1.735599651E0,2.149950027E0,-3.979500234E-1,2.583000183E0,3.384160056E0
1.737563322E0,2.341950178E0,-3.210000098E-1,2.467950106E0,3.417389262E0
1.739526839E0,2.494950056E0,-1.680000126E-1,2.314950228E0,3.407637648E0
1.741490401E0,2.610000134E0,-1.290000081E-1,2.085000038E0,3.343047541E0
1.743453170E0,2.764050245E0,-9.105000645E-2,1.930950046E0,3.372955965E0
1.745416171E0,2.839950085E0,1.380000114E-1,1.663050056E0,3.293948387E0
1.747379636E0,3.031950235E0,3.289500177E-1,1.548000097E0,3.420122022E0
1.749342986E0,3.147000074E0,5.209500194E-1,1.432950020E0,3.496904939E0
1.751306872E0,3.300000191E0,7.890000343E-1,1.165050030E0,3.587459252E0
1.753270601E0,3.415050268E0,9.810000658E-1,7.810500264E-1,3.637989638E0
1.755235008E0,3.607050180E0,1.134000063E0,3.220500052E-1,3.794796879E0
1.757199217E0,3.837000132E0,1.363950014E0,-2.205000073E-2,4.072274040E0
1.759162875E0,4.027950287E0,1.555950046E0,-3.670500219E-1,4.333600094E0
1.761126689E0,4.258049965E0,1.671000123E0,-7.510500550E-1,4.635440335E0
1.763090539E0,4.450050354E0,1.824000120E0,-1.096050024E0,4.932671715E0
1.765054379E0,4.680000305E0,2.016000032E0,-1.287000060E0,5.255761424E0
1.767018047E0,4.872000217E0,2.169000149E0,-1.402050018E0,5.514226330E0
1.768981766E0,5.178000450E0,2.284050226E0,-1.210950017E0,5.787484258E0
1.770945464E0,5.446050167E0,2.590950012E0,-9.420000315E-1,6.104084571E0
1.772909161E0,5.676000118E0,2.935950041E0,-1.369500011E-1,6.391833484E0
1.774872131E0,5.791050434E0,3.396000147E0,1.087950110E0,6.800935051E0
1.776835314E0,5.638050079E0,3.970950127E0,2.314950228E0,7.274273033E0
1.778799273E0,5.370000362E0,4.660050392E0,4.116000175E0,8.215499437E0
1.780763005E0,5.025000095E0,5.311950207E0,6.223950386E0,9.602343431E0
1.782726656E0,4.680000305E0,6.079050064E0,8.332050323E0,1.132609002E1
1.784690324E0,4.258049965E0,6.883050442E0,1.005705070E1,1.290936256E1
1.786653885E0,3.721950293E0,7.995000362E0,1.097700024E1,1.408074852E1
1.788617478E0,3.300000191E0,9.106050491E0,1.097700024E1,1.463914926E1
1.790581141E0,2.878050089E0,1.021800041E1,1.005705070E1,1.462309726E1
1.792544784E0,2.802000046E0,1.125300026E1,8.101950645E0,1.414647742E1
1.794508189E0,3.108000040E0,1.190400028E1,5.380950451E0,1.342831020E1
1.796471651E0,3.837000132E0,1.232595062E1,2.467950106E0,1.314315055E1
1.798436599E0,4.219950199E0,1.297800064E1,-1.326000094E0,1.371111799E1
1.800401111E0,4.027950287E0,1.443405056E1,-4.813050270E0,1.573949338E1
1.802364303E0,3.376950264E0,1.588995075E1,-8.110050201E0,1.815674096E1
1.804327882E0,1.920000076E0,1.757700157E1,-1.056300068E1,2.059646494E1
1.806290672E0,-4.170000255E-1,2.002995110E1,-1.217205048E1,2.344209126E1
1.808253708E0,-3.559950113E0,2.263605118E1,-1.339905071E1,2.654427655E1
1.810217557E0,-6.625950336E0,2.566395187E1,-1.381995106E1,2.989201718E1
1.812181168E0,-9.385050774E0,2.930505180E1,-1.347495079E1,3.359225414E1
1.814144515E0,-1.107195091E1,3.348300171E1,-1.140600014E1,3.706475873E1
1.816107939E0,-1.245195103E1,3.815895081E1,-9.028950691E0,4.114217497E1
1.818071705E0,-1.329495049E1,4.249005127E1,-7.113000393E0,4.508608366E1
1.820035351E0,-1.471305084E1,4.674405289E1,-6.346950531E0,4.941420976E1
1.821998647E0,-1.620795059E1,5.080695343E1,-6.691050529E0,5.374769145E1
1.823962045E0,-1.724295044E1,5.421795273E1,-7.458000183E0,5.738054988E1
1.825925787E0,-1.758705139E1,5.678595352E1,-7.726050377E0,5.994698281E1
1.827889428E0,-1.751100159E1,5.835705185E1,-7.726050377E0,6.141557239E1
1.829852962E0,-1.693605042E1,5.831895447E1,-8.530950546E0,6.132460657E1
1.831816550E0,-1.605405045E1,5.705400085E1,-9.412950516E0,6.001245860E1
1.833780395E0,-1.429095078E1,5.406495285E1,-9.910950661E0,5.679328608E1
1.835744164E0,-1.153200054E1,4.969500351E1,-9.834000587E0,5.195467234E1
1.837707348E0,-8.772000313E0,4.513395309E1,-9.528000832E0,4.695534593E1
1.839670704E0,-6.741000175E0,4.087995148E1,-9.220950127E0,4.244569987E1
1.841634282E0,-5.245950222E0,3.723900223E1,-8.761050224E0,3.861371883E1
1.843597788E0,-4.288050175E0,3.394305038E1,-8.224950790E0,3.518760946E1
1.845561467E0,-3.712950230E0,3.106800079E1,-8.071050644E0,3.231328722E1
1.847525096E0,-3.214950085E0,2.850000191E1,-8.071050644E0,2.979476248E1
1.849488440E0,-2.869950056E0,2.623905182E1,-8.224950790E0,2.764731939E1
1.851451867E0,-2.448000193E0,2.428395081E1,-8.608050346E0,2.588052361E1
1.853415464E0,-2.065050125E0,2.252100182E1,-9.028950691E0,2.435121979E1
1.855379014E0,-1.528050065E0,2.110305023E1,-9.106050491E0,2.303462224E1
1.857342552E0,-7.999500632E-1,1.980000114E1,-9.298050880E0,2.188912323E1
1.859306093E0,1.189500093E-1,1.868805122E1,-9.412950516E0,2.092512951E1
1.861270126E0,1.153950095E0,1.780695152E1,-9.528000832E0,2.022874003E1
1.863234014E0,1.996950150E0,1.684905052E1,-9.949050903E0,1.966880594E1
1.865197387E0,2.686950207E0,1.596705055E1,-1.063905048E1,1.937410127E1
1.867160891E0,3.376950264E0,1.527705097E1,-1.140600014E1,1.936204841E1
1.869124255E0,3.990000248E0,1.462605095E1,-1.190400028E1,1.927554645E1
1.871087660E0,4.372950077E0,1.405095100E1,-1.224900055E1,1.914653835E1
1.873051220E0,4.564949989E0,1.359105110E1,-1.247895050E1,1.900735763E1
1.875014735E0,4.680000305E0,1.313100052E1,-1.263195038E1,1.881201073E1
1.876978423E0,4.450050354E0,1.267095089E1,-1.263195038E1,1.843697684E1
1.878942053E0,4.143000126E0,1.240305042E1,-1.251705074E1,1.810184160E1
1.880905442E0,3.837000132E0,1.209600067E1,-1.228695011E1,1.766366172E1
1.882868901E0,3.607050180E0,1.163595009E1,-1.194195080E1,1.705920087E1
1.884832768E0,3.529950142E0,1.129095078E1,-1.152105045E1,1.651304699E1
1.886796515E0,3.453000069E0,1.094595051E1,-1.086900043E1,1.580734679E1
1.888760249E0,3.262050152E0,1.052505016E1,-1.010295010E1,1.494949005E1
1.890723983E0,3.300000191E0,1.006500053E1,-9.336000443E0,1.411931802E1
1.892687443E0,3.415050268E0,9.681000710E0,-8.683950424E0,1.344601569E1
1.894650983E0,3.645000219E0,9.298050880E0,-7.956000328E0,1.276862240E1
1.896614565E0,3.682950258E0,8.800050735E0,-7.381050587E0,1.206171312E1
1.898578135E0,3.529950142E0,8.302050591E0,-6.844950199E0,1.132421897E1
1.900541822E0,3.147000074E0,7.765050411E0,-6.576000214E0,1.065098100E1
1.902505462E0,2.649000168E0,7.342950344E0,-5.656950474E0,9.640394717E0
1.904469029E0,2.188950062E0,6.844950199E0,-4.698000431E0,8.585805358E0
1.906432618E0,2.149950027E0,6.309000492E0,-3.817050219E0,7.680862237E0
1.908395922E0,1.690050125E0,6.040050507E0,-3.241950035E0,7.060362567E0
1.910359310E0,1.537050128E0,5.734050274E0,-2.935050249E0,6.622414635E0
1.912322153E0,8.850000501E-1,5.542050362E0,-2.743950129E0,6.247144116E0
1.914285156E0,3.109500110E-1,5.350050449E0,-2.514000177E0,5.919453236E0
1.916248650E0,-3.400500119E-1,5.044050217E0,-2.322000027E0,5.563250913E0
1.918212000E0,-1.106999993E0,4.699050426E0,-1.747050047E0,5.134073214E0
1.920175932E0,-1.834950089E0,4.201050282E0,-1.171950102E0,4.731736715E0
1.922139693E0,-2.410050154E0,3.586950064E0,-5.209500194E-1,4.352693583E0
1.924102428E0,-2.946000099E0,2.896950245E0,2.830500007E-1,4.141419395E0
1.926065464E0,-3.138000250E0,2.169000149E0,1.279950023E0,4.023664906E0
1.928029133E0,-3.214950085E0,1.479000092E0,2.008050203E0,4.068858677E0
1.929992616E0,-3.367950201E0,9.430500269E-1,2.620950222E0,4.370561975E0
1.931957200E0,-3.445050240E0,2.140500098E-1,3.004050255E0,4.575861284E0
1.933921462E0,-3.291000128E0,-5.130000114E-1,2.965950251E0,4.459900418E0
1.935884947E0,-3.253050089E0,-1.279050112E0,2.736000061E0,4.438918833E0
1.937848642E0,-3.061050177E0,-1.854000092E0,2.583000183E0,4.413528574E0
1.939811928E0,-2.908050060E0,-2.581950188E0,2.200050116E0,4.468046826E0
1.941775334E0,-2.485950232E0,-3.349050045E0,1.893000126E0,4.580342153E0
1.943738759E0,-2.179949999E0,-3.732000113E0,1.663050056E0,4.630954796E0
1.945702178E0,-2.026050091E0,-4.153950214E0,1.510050058E0,4.862142792E0
1.947665494E0,-1.873050094E0,-4.461000443E0,1.395000100E0,5.035361643E0
1.949628853E0,-1.681950092E0,-4.651950359E0,1.279950023E0,5.109586120E0
1.951592421E0,-1.642950058E0,-4.843950272E0,1.087950110E0,5.229414362E0
1.953555928E0,-1.489950061E0,-4.996950150E0,1.087950110E0,5.326640350E0
1.955519472E0,-1.452000022E0,-5.112000465E0,1.050000072E0,5.416950523E0
1.957483005E0,-1.489950061E0,-5.188950062E0,9.730500579E-1,5.485615767E0
1.959446530E0,-1.413000107E0,-5.304000378E0,8.580000401E-1,5.555641581E0
1.961410067E0,-1.260000110E0,-5.457000256E0,1.011000037E0,5.691095953E0
1.963373472E0,-1.222050071E0,-5.572050095E0,9.730500579E-1,5.786879560E0
1.965336915E0,-1.068000078E0,-5.764050484E0,1.126049995E0,5.969329170E0
1.967300604E0,-9.150000215E-1,-5.878950119E0,1.279950023E0,6.085848470E0
1.969264221E0,-6.469500065E-1,-6.031950474E0,1.432950020E0,6.233483504E0
1.971227902E0,-3.780000210E-1,-6.109050274E0,1.585950017E0,6.322864598E0
1.973191581E0,-1.870500147E-1,-6.070050240E0,1.893000126E0,6.361127816E0
1.975155456E0,1.189500093E-1,-6.147000313E0,2.391000032E0,6.596714569E0
1.977119273E0,3.870000243E-1,-5.994000435E0,2.851050138E0,6.648781627E0
1.979083530E0,9.240000248E-1,-5.955000401E0,3.502950191E0,6.970399261E0
1.981047658E0,1.498950124E0,-5.917050362E0,3.924000263E0,7.256453302E0
1.983011217E0,2.111999989E0,-5.610000134E0,4.308000088E0,7.381836506E0
1.984974953E0,2.533950090E0,-5.304000378E0,4.768050194E0,7.568858944E0
1.986938503E0,2.610000134E0,-4.804950237E0,5.188950062E0,7.538225933E0
1.988902107E0,2.572050095E0,-4.422000408E0,5.457000256E0,7.479865045E0
1.990865949E0,2.494950056E0,-3.961950302E0,5.611050129E0,7.307921013E0
1.992829721E0,2.265000105E0,-3.541050196E0,5.725950241E0,7.103222376E0
1.994793294E0,2.074050188E0,-3.157050133E0,5.802000046E0,6.923283488E0
1.996756905E0,1.996950150E0,-2.889000177E0,5.764050484E0,6.749697023E0
1.998720565E0,1.996950150E0,-2.581950188E0,5.649000168E0,6.524222526E0
2.000684211E0,2.074050188E0,-2.428950071E0,5.611050129E0,6.456420539E0
2.002647777E0,2.111999989E0,-2.199000120E0,5.457000256E0,6.250999702E0
2.004611367E0,2.265000105E0,-2.046000004E0,5.419050217E0,6.219521424E0
2.006575222E0,2.304000139E0,-1.854000092E0,5.341950417E0,6.105912482E0
2.008539023E0,2.341950178E0,-1.663050056E0,5.151000023E0,5.897734087E0
2.010502877E0,2.304000139E0,-1.432950020E0,5.266050339E0,5.923938603E0
2.012466716E0,2.341950178E0,-1.203000069E0,5.074050426E0,5.716461102E0
2.014430563E0,2.380050182E0,-1.048950076E0,4.806000233E0,5.464665897E0
2.016394408E0,2.341950178E0,-8.190000653E-1,4.653000355E0,5.273130384E0
2.018358229E0,2.341950178E0,-6.280500293E-1,4.308000088E0,4.943484827E0
2.020322044E0,2.188950062E0,-4.360500276E-1,4.000950336E0,4.581402143E0
2.022285535E0,1.996950150E0,-2.059500068E-1,3.655950069E0,4.170874754E0
2.024249121E0,1.959000111E0,-1.290000081E-1,3.234000206E0,3.783263111E0
2.026211975E0,1.996950150E0,-1.500000060E-2,2.851050138E0,3.480879457E0
2.028175044E0,1.996950150E0,1.759500057E-1,2.314950228E0,3.062313319E0
2.030138969E0,1.920000076E0,4.060500264E-1,1.855050087E0,2.700460654E0
2.032102649E0,1.804950118E0,6.360000372E-1,1.548000097E0,2.461431550E0
2.034065849E0,1.882050037E0,8.280000687E-1,1.240950108E0,2.401593976E0
2.036029189E0,1.920000076E0,9.810000658E-1,5.509500504E-1,2.225378031E0
2.037993662E0,1.959000111E0,1.134000063E0,-6.105000153E-2,2.264368494E0
2.039957803E0,2.074050188E0,1.288050056E0,-6.360000372E-1,2.522945337E0
2.041921232E0,2.149950027E0,1.518000126E0,-1.210950017E0,2.897069113E0
2.043884843E0,2.188950062E0,1.747950077E0,-1.747050047E0,3.301365734E0
2.045848369E0,2.188950062E0,1.978050113E0,-2.284050226E0,3.731095021E0
2.047811920E0,2.227050066E0,2.208000183E0,-2.704950094E0,4.141469765E0
2.049775635E0,2.304000139E0,2.551950216E0,-3.241950035E0,4.725580026E0
2.051739302E0,2.457000017E0,2.896950245E0,-3.855000257E0,5.412041832E0
2.053702961E0,2.610000134E0,3.204000235E0,-4.315050125E0,5.974728093E0
2.055666649E0,2.802000046E0,3.433950186E0,-4.736999989E0,6.487093881E0
2.057630522E0,2.878050089E0,3.625950098E0,-5.197050095E0,6.959886214E0
2.059594341E0,2.917050123E0,3.817050219E0,-5.617950439E0,7.391915918E0
2.061558013E0,2.839950085E0,3.894000292E0,-5.925000191E0,7.637681717E0
2.063521728E0,2.725050211E0,3.931950092E0,-6.307950497E0,7.916840888E0
2.065485105E0,2.572050095E0,3.931950092E0,-6.615000248E0,8.113809309E0
2.067448578E0,2.380050182E0,3.856050253E0,-7.036050320E0,8.368976432E0
2.069412487E0,2.074050188E0,3.778950214E0,-7.305000305E0,8.482050363E0
2.071376268E0,1.843950033E0,3.625950098E0,-7.342950344E0,8.394437777E0
2.073339946E0,1.690050125E0,3.319050074E0,-6.997950554E0,7.927400253E0
2.075303655E0,1.575000048E0,3.166050196E0,-6.078000069E0,7.031826493E0
2.077267493E0,1.498950124E0,2.896950245E0,-4.774950027E0,5.782674118E0
2.079231283E0,1.422000051E0,2.782050133E0,-2.974050045E0,4.313567057E0
2.081194058E0,1.422000051E0,2.706000090E0,-9.040500522E-1,3.187762087E0
2.083157131E0,1.306950092E0,2.821050167E0,1.855050087E0,3.620449339E0
2.085120793E0,1.153950095E0,3.088950157E0,5.074050426E0,6.051380142E0
2.087084283E0,8.470500112E-1,3.549000263E0,8.599950790E0,9.341951091E0
2.089046885E0,4.639500082E-1,4.085999966E0,1.197300053E1,1.265951764E1
2.091009747E0,4.200000316E-2,4.774950027E0,1.454100037E1,1.530498623E1
2.092973806E0,-2.629500031E-1,5.542050362E0,1.622700119E1,1.714931580E1
2.094937514E0,-3.780000210E-1,6.270000458E0,1.695600128E1,1.808208421E1
2.096901384E0,-1.480500102E-1,6.922050476E0,1.664895058E1,1.803120231E1
2.098865206E0,4.260000288E-1,7.687950134E0,1.530795097E1,1.713532656E1
2.100830083E0,1.230000019E0,8.569950104E0,1.300800037E1,1.562578057E1
2.102794658E0,1.920000076E0,9.412950516E0,1.001805019E1,1.387989076E1
2.104758560E0,2.917050123E0,1.037100029E1,6.376950264E0,1.251927806E1
2.106722660E0,3.607050180E0,1.155900097E1,2.659050226E0,1.239725222E1
2.108687363E0,4.219950199E0,1.328400040E1,-1.326000094E0,1.400110433E1
2.110651889E0,4.182000160E0,1.539195061E1,-6.040050507E0,1.705530648E1
2.112615660E0,3.568050146E0,1.849695015E1,-1.075395012E1,2.169137132E1
2.114579655E0,2.265000105E0,2.202300072E1,-1.439505100E1,2.640757996E1
2.116542529E0,3.870000243E-1,2.570205116E1,-1.631204987E1,3.044385281E1
2.118505732E0,-1.642950058E0,2.961195183E1,-1.619700050E1,3.379215591E1
2.120469552E0,-3.559950113E0,3.390405273E1,-1.508505058E1,3.727890540E1
2.122433191E0,-5.398950100E0,3.815895081E1,-1.305405045E1,4.068983192E1
2.124397253E0,-6.357000351E0,4.206795120E1,-1.063905048E1,4.385559676E1
2.126361191E0,-6.511050224E0,4.482795334E1,-7.650000572E0,4.593976147E1
2.128325023E0,-5.092950344E0,4.597800064E1,-4.429950237E0,4.647084188E1
2.130288886E0,-2.640000105E0,4.524900055E1,-8.269500136E-1,4.533349201E1
2.132252729E0,3.870000243E-1,4.310295105E1,1.893000126E0,4.314623515E1
2.134216578E0,2.839950085E0,4.015200043E1,3.273000240E0,4.038515798E1
2.136180573E0,4.603050232E0,3.716205215E1,2.467950106E0,3.752728300E1
2.138144514E0,5.293050289E0,3.482400131E1,7.810500264E-1,3.523261966E1
2.140108750E0,4.450050354E0,3.267795181E1,-1.057050109E0,3.299649736E1
2.142072899E0,1.920000076E0,3.083805084E1,-2.935050249E0,3.103685390E1
2.144035748E0,-1.950000048E0,2.911305046E1,-4.468050003E0,2.951839559E1
2.145998978E0,-6.013050079E0,2.781000137E1,-5.427000046E0,2.896558781E1
2.147962928E0,-8.082000732E0,2.524200058E1,-6.154950142E0,2.720957075E1
2.149926667E0,-9.654000282E0,2.374800110E1,-6.652950287E0,2.648450538E1
2.151890531E0,-1.053495026E1,2.271300125E1,-7.266000271E0,2.607029656E1
2.153854359E0,-1.061205006E1,2.171595192E1,-7.495950222E0,2.530587766E1
2.155818254E0,-1.049700069E1,2.098800087E1,-7.420050144E0,2.461179287E1
2.157782129E0,-1.038195038E1,2.049000168E1,-7.150950432E0,2.405745528E1
2.159746306E0,-1.034400082E1,2.006805038E1,-6.960000515E0,2.362554986E1
2.161710380E0,-1.022895050E1,1.980000114E1,-7.036050320E0,2.337044026E1
2.163673873E0,-1.026705074E1,1.957005119E1,-7.150950432E0,2.322789975E1
2.165637536E0,-1.042005062E1,1.937805176E1,-7.305000305E0,2.318295439E1
2.167601368E0,-1.057395077E1,1.926300049E1,-7.458000183E0,2.320546034E1
2.169565150E0,-1.065000057E1,1.914795113E1,-7.687950134E0,2.322005861E1
2.171529061E0,-1.076505089E1,1.899495125E1,-7.879950523E0,2.321180979E1
2.173492928E0,-1.103295040E1,1.891800117E1,-8.224950790E0,2.339372947E1
2.175456547E0,-1.134000015E1,1.884195137E1,-8.493000031E0,2.357426106E1
2.177420238E0,-1.145505047E1,1.868805122E1,-8.722949982E0,2.359133943E1
2.179383929E0,-1.137795067E1,1.845795059E1,-9.220950127E0,2.356224995E1
2.181347620E0,-1.118700027E1,1.822800064E1,-9.489000320E0,2.339765180E1
2.183311528E0,-1.084200096E1,1.795995140E1,-9.643050194E0,2.308889898E1
2.185275379E0,-1.053495026E1,1.769205093E1,-9.528000832E0,2.268868976E1
2.187238865E0,-1.011405087E1,1.738500023E1,-9.106050491E0,2.207832452E1
2.189202458E0,-9.844950676E0,1.719405174E1,-8.416049957E0,2.152645735E1
2.191166121E0,-9.385050774E0,1.707900047E1,-7.495950222E0,2.087967205E1
2.193129764E0,-8.925000191E0,1.711695099E1,-6.652950287E0,2.041831009E1
2.195093710E0,-8.734050751E0,1.726995087E1,-6.232050419E0,2.033158375E1
2.197057553E0,-8.464950562E0,1.757700157E1,-6.232050419E0,2.048035216E1
2.199021356E0,-8.044050217E0,1.780695152E1,-6.307950497E0,2.053252313E1
2.200985171E0,-7.546050549E0,1.750005150E1,-6.040050507E0,1.999192065E1
2.202948887E0,-6.856050491E0,1.692495155E1,-5.082000256E0,1.895484476E1
2.204912632E0,-6.433950424E0,1.642695045E1,-3.970050097E0,1.808318880E1
2.206876135E0,-6.204000473E0,1.596705055E1,-3.204000235E0,1.742704630E1
2.208839709E0,-6.013050079E0,1.535400105E1,-2.245050192E0,1.664158555E1
2.210803196E0,-5.898000240E0,1.474095058E1,-1.671000123E0,1.596478225E1
2.212766709E0,-5.743950367E0,1.393605042E1,-1.326000094E0,1.513158099E1
2.214730296E0,-5.514000416E0,1.293900108E1,-1.210950017E0,1.411695256E1
2.216693861E0,-5.437950134E0,1.182795048E1,-1.326000094E0,1.308548778E1
2.218657710E0,-5.398950100E0,1.087005043E1,-1.287000060E0,1.220504108E1
2.220621476E0,-5.361000061E0,9.835050583E0,-1.096050024E0,1.125477087E1
2.222585022E0,-5.437950134E0,9.106050491E0,-8.269500136E-1,1.063838820E1
2.224548632E0,-5.476050377E0,8.532000542E0,-4.440000355E-1,1.014787155E1
2.226511437E0,-5.629050255E0,8.032950401E0,1.500000060E-2,9.808910435E0
2.228474478E0,-5.821050167E0,7.726950169E0,5.899500251E-1,9.692183706E0
2.230437721E0,-5.782950401E0,7.497000217E0,1.240950108E0,9.549213830E0
2.232400918E0,-5.859000206E0,7.497000217E0,1.510050058E0,9.633958006E0
2.234364515E0,-5.859000206E0,7.612050533E0,1.432950020E0,9.712082294E0
2.236327995E0,-5.514000416E0,7.687950134E0,1.510050058E0,9.580659113E0
2.238291319E0,-5.053950310E0,7.765050411E0,1.395000100E0,9.369335457E0
2.240254689E0,-4.555950165E0,7.879950523E0,8.580000401E-1,9.142563438E0
2.242218981E0,-3.943050146E0,8.187000275E0,2.830500007E-1,9.091464967E0
2.244183000E0,-3.367950201E0,8.532000542E0,9.195000678E-2,9.173144314E0
2.246146457E0,-2.869950056E0,8.914950371E0,-2.205000073E-2,9.365545347E0
2.248110079E0,-2.332950115E0,9.298050880E0,-2.140500098E-1,9.588650782E0
2.250073827E0,-1.873050094E0,9.643050194E0,-1.369500011E-1,9.824229690E0
2.252037538E0,-1.413000107E0,1.006500053E1,-6.105000153E-2,1.016388371E1
2.254001130E0,-1.144950032E0,1.044795036E1,-9.900000691E-2,1.051096467E1
2.255964795E0,-7.620000243E-1,1.079295063E1,-3.289500177E-1,1.082481572E1
2.257928671E0,-4.170000255E-1,1.094595051E1,-9.040500522E-1,1.099113407E1
2.259892485E0,-3.299999982E-2,1.098495007E1,-1.057050109E0,1.103574066E1
2.261856337E0,2.719500065E-1,1.098495007E1,-9.810000658E-1,1.103201912E1
2.263820178E0,5.410500169E-1,1.098495007E1,-7.510500550E-1,1.102388041E1
2.265784411E0,8.089500666E-1,1.102305031E1,-4.060500264E-1,1.106014986E1
2.267748543E0,8.470500112E-1,1.113795090E1,-2.205000073E-2,1.117013564E1
2.269711395E0,1.114950061E0,1.113795090E1,5.130000114E-1,1.120536625E1
2.271674622E0,1.345050097E0,1.113795090E1,1.432950020E0,1.131001573E1
2.273638213E0,1.498950124E0,1.125300026E1,2.238000154E0,1.157089067E1
2.275601697E0,1.843950033E0,1.113795090E1,3.579000235E0,1.184328268E1
2.277565290E0,2.419050217E0,1.094595051E1,4.996950150E0,1.227335110E1
2.279528851E0,2.992950201E0,1.102305031E1,6.415950298E0,1.310075598E1
2.281492342E0,3.529950142E0,1.087005043E1,7.527000427E0,1.368481932E1
2.283455853E0,4.027950287E0,1.063995075E1,8.332050323E0,1.410163104E1
2.285419440E0,4.680000305E0,1.029495049E1,8.830050468E0,1.434775939E1
2.287383005E0,5.407950401E0,9.757950783E0,8.944950104E0,1.429949871E1
2.289346664E0,5.905950069E0,9.067950249E0,8.562000275E0,1.379912376E1
2.291310303E0,6.328050137E0,8.455050468E0,8.064000130E0,1.328759553E1
2.293274185E0,6.520050526E0,7.803000450E0,7.219950199E0,1.247098856E1
2.295237995E0,6.520050526E0,7.152000427E0,6.531000137E0,1.167544996E1
2.297201533E0,6.405000210E0,6.691950321E0,6.070950508E0,1.107531791E1
2.299165151E0,6.060000420E0,6.232050419E0,5.917050362E0,1.051539550E1
2.301128870E0,5.599950314E0,5.734050274E0,5.802000046E0,9.894542970E0
2.303092549E0,5.370000362E0,5.235000134E0,5.419050217E0,9.252471861E0
2.305055884E0,5.101050377E0,4.736999989E0,4.843950272E0,8.480786407E0
2.307019320E0,5.101050377E0,4.085999966E0,4.384050369E0,7.869943348E0
2.308982830E0,5.025000095E0,3.396000147E0,4.000950336E0,7.265744735E0
2.310946318E0,4.948050022E0,2.743950129E0,3.886050224E0,6.863952773E0
2.312910054E0,4.833000183E0,2.131050110E0,3.847950220E0,6.534981732E0
2.314873711E0,4.833000183E0,1.479000092E0,4.039050102E0,6.469873088E0
2.316837455E0,4.680000305E0,9.040500522E-1,4.461000443E0,6.528417442E0
2.318801173E0,4.564949989E0,2.910000086E-1,4.614000320E0,6.497110771E0
2.320765717E0,4.335000038E0,-2.059500068E-1,4.345950127E0,6.141817584E0
2.322730019E0,4.182000160E0,-7.429500222E-1,4.000950336E0,5.835126706E0
2.324693473E0,3.952050209E0,-1.318050027E0,3.655950069E0,5.542736476E0
2.326657175E0,3.760050297E0,-1.893000126E0,3.196050167E0,5.285467281E0
2.328620640E0,3.568050146E0,-2.351999998E0,2.659050226E0,5.033232951E0
2.330584175E0,3.337950230E0,-2.851050138E0,2.122950077E0,4.876198894E0
2.332547939E0,2.992950201E0,-3.157050133E0,1.701000094E0,4.670986809E0
2.334511635E0,2.610000134E0,-3.541050196E0,1.510050058E0,4.650955640E0
2.336475856E0,2.341950178E0,-3.886050224E0,1.548000097E0,4.793998465E0
2.338439899E0,1.959000111E0,-4.192049980E0,1.701000094E0,4.929945820E0
2.340403578E0,1.690050125E0,-4.422000408E0,1.855050087E0,5.084443712E0
2.342367363E0,1.422000051E0,-4.575000286E0,1.930950046E0,5.165392516E0
2.344331218E0,1.269000053E0,-4.767000198E0,1.816050053E0,5.256680494E0
2.346295053E0,1.114950061E0,-4.882050037E0,1.777950048E0,5.314003442E0
2.348258527E0,1.077000022E0,-4.996950150E0,1.585950017E0,5.352072244E0
2.350222117E0,9.619500637E-1,-5.112000465E0,1.548000097E0,5.427172467E0
2.352186006E0,9.619500637E-1,-5.188950062E0,1.510050058E0,5.489153108E0
2.354149807E0,8.470500112E-1,-5.227050304E0,1.585950017E0,5.527638380E0
2.356113482E0,6.550500393E-1,-5.188950062E0,1.510050058E0,5.443761978E0
2.358077194E0,5.790000558E-1,-5.149950027E0,1.548000097E0,5.408653312E0
2.360039972E0,4.260000288E-1,-4.996950150E0,1.624950051E0,5.271759620E0
2.362003030E0,4.260000288E-1,-4.843950272E0,1.624950051E0,5.126967225E0
2.363966966E0,3.870000243E-1,-4.651950359E0,1.624950051E0,4.942759739E0
2.365930644E0,3.490500152E-1,-4.384050369E0,1.585950017E0,4.675143956E0
2.367894204E0,3.490500152E-1,-4.192049980E0,1.510050058E0,4.469381403E0
2.369857799E0,3.490500152E-1,-3.732000113E0,1.471050024E0,4.026617554E0
2.371821481E0,2.340000123E-1,-3.234000206E0,1.471050024E0,3.560547923E0
2.373785124E0,3.109500110E-1,-2.812050104E0,1.510050058E0,3.206956014E0
2.375749546E0,5.020500422E-1,-2.544000149E0,1.548000097E0,3.019982666E0
2.377713740E0,7.699500322E-1,-2.428950071E0,1.548000097E0,2.981430161E0
2.379677167E0,1.000050068E0,-2.314050198E0,1.548000097E0,2.958248258E0
2.381640818E0,1.153950095E0,-2.083950043E0,1.701000094E0,2.927088985E0
2.383604512E0,1.269000053E0,-1.893000126E0,1.855050087E0,2.938540699E0
2.385568196E0,1.384050012E0,-1.624050021E0,1.969950080E0,2.904106786E0
2.387532070E0,1.459950089E0,-1.432950020E0,2.008050203E0,2.866542454E0
2.389495888E0,1.614000082E0,-1.240950108E0,2.046000004E0,2.886359203E0
2.391459560E0,1.767000079E0,-9.730500579E-1,2.161050081E0,2.956222784E0
2.393423275E0,1.843950033E0,-7.810500264E-1,2.161050081E0,2.946239692E0
2.395386467E0,2.035050154E0,-6.660000086E-1,2.008050203E0,2.935515416E0
2.397349813E0,2.227050066E0,-4.740000367E-1,1.930950046E0,2.985464136E0
2.399313519E0,2.380050182E0,-3.589500189E-1,1.816050053E0,3.015215047E0
2.401277119E0,2.649000168E0,-2.440500110E-1,1.816050053E0,3.220993650E0
2.403240648E0,2.764050245E0,-1.290000081E-1,1.740000129E0,3.268671780E0
2.405204198E0,2.992950201E0,-9.105000645E-2,1.663050056E0,3.425168098E0
2.407166833E0,3.070050240E0,1.380000114E-1,1.624950051E0,3.476307689E0
2.409129737E0,3.262050152E0,3.289500177E-1,1.548000097E0,3.625670091E0
2.411093563E0,3.415050268E0,5.980500579E-1,1.548000097E0,3.796911443E0
2.413057119E0,3.645000219E0,8.659500480E-1,1.510050058E0,4.039325100E0
2.415020656E0,3.913050175E0,1.096050024E0,1.510050058E0,4.335151497E0
2.416984198E0,4.105050087E0,1.326000094E0,1.510050058E0,4.570553976E0
2.418947780E0,4.335000038E0,1.555950046E0,1.510050058E0,4.847004957E0
2.420911350E0,4.642050266E0,1.786050081E0,1.548000097E0,5.209117955E0
2.422874884E0,4.987050056E0,2.092950106E0,1.855050087E0,5.717719758E0
2.424838429E0,5.293050289E0,2.398950100E0,2.467950106E0,6.313645593E0
2.426801786E0,5.485050201E0,2.743950129E0,3.388050079E0,7.006705457E0
2.428765198E0,5.638050079E0,3.241950035E0,4.461000443E0,7.886594555E0
2.430728597E0,5.715000153E0,3.702000141E0,5.841000080E0,8.971249285E0
2.432691986E0,5.638050079E0,4.315950394E0,7.374000549E0,1.023674365E1
2.434655504E0,5.407950401E0,4.929000378E0,9.022050858E0,1.161629777E1
2.436618984E0,5.178000450E0,5.503950119E0,1.047795010E1,1.291869164E1
2.438582399E0,4.680000305E0,6.232050419E0,1.139805031E1,1.380783857E1
2.440545833E0,4.372950077E0,6.844950199E0,1.201095104E1,1.449962001E1
2.442509248E0,3.990000248E0,7.573050499E0,1.220295048E1,1.490581082E1
2.444472641E0,3.607050180E0,8.263050079E0,1.185795021E1,1.489630125E1
2.446436024E0,3.184950113E0,9.067950249E0,1.082295036E1,1.447438715E1
2.448399410E0,2.955000162E0,9.720000267E0,9.405000687E0,1.384429374E1
2.450362749E0,2.992950201E0,1.037100029E1,7.066950321E0,1.290182874E1
2.452326102E0,3.184950113E0,1.090800095E1,3.771000147E0,1.197283734E1
2.454290573E0,3.798000097E0,1.129095078E1,-4.060500264E-1,1.191953232E1
2.456254716E0,4.219950199E0,1.201905060E1,-3.549000263E0,1.322350029E1
2.458218197E0,4.182000160E0,1.328400040E1,-6.001950264E0,1.516499914E1
2.460181872E0,3.529950142E0,1.462605095E1,-7.726050377E0,1.691371540E1
2.462144485E0,2.074050188E0,1.638899994E1,-8.377950668E0,1.852271742E1
2.464107410E0,8.100000024E-2,1.872705078E1,-8.608050346E0,2.061085934E1
2.466070988E0,-2.256000042E0,2.133300018E1,-8.263050079E0,2.298835422E1
2.468034388E0,-4.708950043E0,2.428395081E1,-7.726050377E0,2.591478982E1
2.469997950E0,-7.009050369E0,2.773395157E1,-6.768000126E0,2.939565754E1
2.471961465E0,-8.848950386E0,3.152805138E1,-5.388000488E0,3.318663128E1
2.473924873E0,-1.042005062E1,3.547605133E1,-3.931950092E0,3.718316695E1
2.475888313E0,-1.153200054E1,3.984495163E1,-2.820000172E0,4.157594987E1
2.477851643E0,-1.199205017E1,4.444500351E1,-1.555950046E0,4.606070543E1
2.479815006E0,-1.225995064E1,4.839195251E1,-1.516950130E0,4.994385443E1
2.481778214E0,-1.264305019E1,5.237805176E1,-2.629050016E0,5.394644500E1
2.483741467E0,-1.210695076E1,5.513805389E1,-3.241950035E0,5.654461499E1
2.485704918E0,-1.118700027E1,5.667105103E1,-5.119950294E0,5.799112769E1
2.487668311E0,-9.691950798E0,5.716905212E1,-6.270000458E0,5.832278574E1
2.489631861E0,-7.776000500E0,5.663295364E1,-7.113000393E0,5.760514210E1
2.491595374E0,-6.088950157E0,5.452500153E1,-7.266000271E0,5.534298389E1
2.493559052E0,-4.594050407E0,5.111400223E1,-7.228050232E0,5.182654950E1
2.495522682E0,-3.828000069E0,4.716600037E1,-7.075050354E0,4.784706378E1
2.497486206E0,-3.636000156E0,4.318005371E1,-6.997950554E0,4.389429174E1
2.499449761E0,-3.790050268E0,3.946200180E1,-7.075050354E0,4.026996902E1
2.501413106E0,-4.018949986E0,3.628095245E1,-6.960000515E0,3.716047735E1
2.503376520E0,-3.904950142E0,3.344400024E1,-6.652950287E0,3.432217265E1
2.505340079E0,-3.751050234E0,3.110700226E1,-6.423000336E0,3.198391628E1
2.507303595E0,-3.330000162E0,2.907495117E1,-6.346950531E0,2.994537473E1
2.509267003E0,-3.022950172E0,2.727405167E1,-6.460950375E0,2.819141717E1
2.511230443E0,-2.640000105E0,2.581695175E1,-6.883050442E0,2.684885438E1
2.513193643E0,-2.371050119E0,2.443800163E1,-7.381050587E0,2.563820802E1
2.515156910E0,-2.026050091E0,2.305800056E1,-8.110050201E0,2.452649961E1
2.517120494E0,-1.681950092E0,2.213805199E1,-8.416049957E0,2.374346644E1
2.519083985E0,-1.375050068E0,2.121795082E1,-8.377950668E0,2.285349551E1
2.521047307E0,-9.150000215E-1,2.045100021E1,-8.416049957E0,2.213392265E1
2.523010679E0,-6.469500065E-1,1.968495178E1,-8.377950668E0,2.140340927E1
2.524974230E0,-4.930500090E-1,1.907205009E1,-8.185950279E0,2.076044256E1
2.526937739E0,-2.250000089E-1,1.842000008E1,-7.840950489E0,2.002067762E1
2.528901283E0,-3.299999982E-2,1.765395164E1,-7.840950489E0,1.931692528E1
2.530864816E0,8.100000024E-2,1.707900047E1,-8.071050644E0,1.889022701E1
2.532828356E0,1.570500135E-1,1.654200172E1,-8.340000153E0,1.852614607E1
2.534791893E0,3.109500110E-1,1.608195114E1,-8.416049957E0,1.815367013E1
2.536755964E0,5.790000558E-1,1.566000080E1,-8.263050079E0,1.771578005E1
2.538719884E0,8.850000501E-1,1.523895073E1,-8.071050644E0,1.726704094E1
2.540683358E0,9.619500637E-1,1.481700039E1,-7.840950489E0,1.679134756E1
2.542646963E0,1.114950061E0,1.428105068E1,-7.266000271E0,1.606195138E1
2.544610310E0,1.422000051E0,1.370595074E1,-7.228050232E0,1.556020180E1
2.546573732E0,1.804950118E0,1.320795059E1,-7.611000538E0,1.535041149E1
2.548537460E0,2.304000139E0,1.270905018E1,-7.803000450E0,1.509023489E1
2.550501105E0,2.686950207E0,1.217295074E1,-7.726050377E0,1.466602488E1
2.552464265E0,2.955000162E0,1.159800053E1,-7.266000271E0,1.400144286E1
2.554427568E0,2.725050211E0,1.094595051E1,-6.193050385E0,1.286831785E1
2.556390606E0,2.878050089E0,1.048605061E1,-5.772000313E0,1.231082521E1
2.558353722E0,3.337950230E0,1.006500053E1,-5.311950207E0,1.186014176E1
2.560316958E0,3.721950293E0,9.528000832E0,-4.774950027E0,1.128874934E1
2.562280168E0,3.990000248E0,8.953050613E0,-4.429950237E0,1.075647137E1
2.564243447E0,4.297049999E0,8.416950226E0,-4.123950005E0,1.031099672E1
2.566206706E0,4.642050266E0,7.995000362E0,-3.549000263E0,9.902730146E0
2.568170247E0,5.025000095E0,7.573050499E0,-3.165000200E0,9.623873757E0
2.570133706E0,5.254950047E0,7.189950466E0,-3.049950123E0,9.413399144E0
2.572097474E0,4.987050056E0,6.691950321E0,-2.782050133E0,8.797310402E0
2.574061158E0,4.372950077E0,6.232050419E0,-2.590050220E0,8.041735195E0
2.576024851E0,3.837000132E0,5.734050274E0,-2.284050226E0,7.267653541E0
2.577988542E0,3.529950142E0,5.235000134E0,-1.747050047E0,6.551179914E0
2.579951830E0,3.415050268E0,4.699050426E0,-1.134000063E0,5.918580859E0
2.581915236E0,3.492000103E0,4.201050282E0,-5.209500194E-1,5.487647685E0
2.583878463E0,3.070050240E0,3.778950214E0,-2.520000041E-1,4.875364314E0
2.585841756E0,2.725050211E0,3.280950069E0,-4.060500264E-1,4.284321257E0
2.587804931E0,2.610000134E0,2.782050133E0,-4.060500264E-1,3.836245595E0
2.589768141E0,2.380050182E0,2.398950100E0,-3.670500219E-1,3.399165511E0
2.591731419E0,1.843950033E0,2.053950071E0,-4.819500148E-1,2.801988301E0
2.593694677E0,1.614000082E0,1.518000126E0,-3.670500219E-1,2.245895448E0
2.595658219E0,1.498950124E0,9.810000658E-1,-2.910000086E-1,1.814908705E0
2.597621677E0,1.384050012E0,4.060500264E-1,5.295000225E-2,1.443355383E0
2.599585050E0,1.306950092E0,-1.290000081E-1,3.220500052E-1,1.352211430E0
2.601548448E0,1.269000053E0,-5.509500504E-1,7.050000429E-1,1.552717667E0
2.603511695E0,1.192050099E0,-1.087950110E0,9.349500537E-1,1.865140875E0
2.605474987E0,1.230000019E0,-1.548000097E0,1.165050030E0,2.294895623E0
2.607438350E0,1.269000053E0,-2.046000004E0,1.471050024E0,2.821429660E0
2.609401686E0,1.192050099E0,-2.467050076E0,1.510050058E0,3.128509340E0
2.611364945E0,1.000050068E0,-2.965950251E0,1.585950017E0,3.508874247E0
2.613328227E0,1.000050068E0,-3.387000084E0,1.663050056E0,3.903537523E0
2.615291808E0,9.240000248E-1,-3.771000147E0,1.777950048E0,4.270283893E0
2.617255301E0,7.699500322E-1,-4.192049980E0,2.008050203E0,4.711514800E0
2.619219009E0,6.940500140E-1,-4.729050159E0,1.893000126E0,5.140921154E0
2.621182667E0,6.940500140E-1,-5.074050426E0,1.816050053E0,5.433758455E0
2.623146501E0,6.550500393E-1,-5.572050095E0,1.816050053E0,5.897022181E0
2.625110283E0,6.940500140E-1,-5.955000401E0,1.893000126E0,6.287064869E0
2.627073825E0,6.169500351E-1,-6.262050152E0,2.008050203E0,6.605010603E0
2.629037438E0,6.550500393E-1,-6.684000492E0,2.275950193E0,7.091184839E0
2.631000397E0,5.410500169E-1,-6.913050175E0,2.430000067E0,7.347645757E0
2.632963534E0,3.490500152E-1,-7.182000160E0,2.659050226E0,7.666388349E0
2.634926960E0,1.960500032E-1,-7.411950588E0,2.736000061E0,7.903236265E0
2.636890302E0,8.100000024E-2,-7.680000305E0,2.812950134E0,8.179343137E0
2.638853919E0,-7.200000435E-2,-7.872000217E0,2.812950134E0,8.359800230E0
2.640817455E0,-2.250000089E-1,-7.833000183E0,3.157950163E0,8.448619183E0
2.642781330E0,-6.079500318E-1,-8.025000572E0,3.043050051E0,8.604091529E0
2.644745091E0,-1.144950032E0,-7.795050144E0,2.812950134E0,8.365787816E0
2.646708952E0,-1.452000022E0,-7.756950378E0,2.583000183E0,8.303642164E0
2.648672783E0,-1.681950092E0,-7.717950344E0,2.620950222E0,8.322565331E0
2.650636318E0,-1.873050094E0,-7.488000393E0,2.851050138E0,8.228423508E0
2.652599939E0,-1.911000133E0,-7.258050442E0,3.426000118E0,8.250375418E0
2.654563617E0,-1.873050094E0,-6.798000336E0,4.039050102E0,8.126195355E0
2.656527264E0,-1.336950064E0,-6.721950531E0,4.576050282E0,8.240891371E0
2.658490964E0,-9.150000215E-1,-6.492000103E0,4.882050037E0,8.174209622E0
2.660454648E0,-6.079500318E-1,-6.147000313E0,4.729050159E0,7.779404315E0
2.662418208E0,-5.700000525E-1,-5.649000168E0,4.384050369E0,7.173283808E0
2.664381804E0,-1.099500060E-1,-5.572050095E0,4.116000175E0,6.928296234E0
2.666345832E0,2.719500065E-1,-5.227050304E0,4.308000088E0,6.779002614E0
2.668309730E0,2.340000123E-1,-4.959000111E0,3.963000298E0,6.352307412E0
2.670273073E0,4.200000316E-2,-4.537050247E0,3.463950157E0,5.708374518E0
2.672236578E0,8.100000024E-2,-4.231050014E0,3.043050051E0,5.212341013E0
2.674200121E0,-3.299999982E-2,-3.732000113E0,2.736000061E0,4.627592265E0
2.676163653E0,-1.480500102E-1,-3.349050045E0,2.430000067E0,4.140405214E0
2.678127373E0,-2.250000089E-1,-2.965950251E0,2.122950077E0,3.654367650E0
2.680091038E0,-1.870500147E-1,-2.736000061E0,1.816050053E0,3.289182548E0
2.682054915E0,-7.200000435E-2,-2.506050110E0,1.510050058E0,2.926725531E0
2.684018730E0,-3.299999982E-2,-2.238000154E0,1.395000100E0,2.637377290E0
2.685982403E0,-7.200000435E-2,-1.893000126E0,1.087950110E0,2.184552339E0
2.687946117E0,4.200000316E-2,-1.663050056E0,6.660000086E-1,1.791941824E0
2.689910465E0,1.570500135E-1,-1.432950020E0,3.220500052E-1,1.477066915E0
2.691874638E0,1.960500032E-1,-1.126049995E0,-2.140500098E-1,1.162859236E0
2.693837934E0,1.960500032E-1,-7.810500264E-1,-4.819500148E-1,9.384831188E-1
2.695801487E0,2.340000123E-1,-4.360500276E-1,-9.420000315E-1,1.064076920E0
2.697764121E0,1.570500135E-1,-1.290000081E-1,-1.402050018E0,1.416703908E0
2.699727025E0,8.100000024E-2,2.140500098E-1,-1.900950074E0,1.914677412E0
2.701690812E0,8.100000024E-2,7.129500508E-1,-2.284050226E0,2.394106140E0
2.703654336E0,-1.099500060E-1,1.249050021E0,-2.820000172E0,3.086197649E0
2.705618102E0,-1.480500102E-1,1.786050081E0,-3.165000200E0,3.637185721E0
2.707581797E0,-2.250000089E-1,2.398950100E0,-3.625050068E0,4.352766314E0
2.709545310E0,-2.250000089E-1,2.974050045E0,-3.970050097E0,4.965571109E0
2.711508876E0,-2.250000089E-1,3.586950064E0,-4.429950237E0,5.704497775E0
2.713472381E0,-1.480500102E-1,4.085999966E0,-4.698000431E0,6.228043238E0
2.715435924E0,-1.870500147E-1,4.507050037E0,-4.736999989E0,6.541227457E0
2.717399641E0,-7.200000435E-2,4.813950062E0,-4.966950417E0,6.917361899E0
2.719363307E0,-1.480500102E-1,5.044050217E0,-5.158050060E0,7.215943585E0
2.721327004E0,-1.870500147E-1,5.119950294E0,-5.388000488E0,7.435013651E0
2.723290691E0,-3.400500119E-1,5.158950329E0,-5.427000046E0,7.495514125E0
2.725254530E0,-6.469500065E-1,5.082000256E0,-5.503050327E0,7.518565941E0
2.727218317E0,-1.068000078E0,4.966950417E0,-5.617950439E0,7.574469470E0
2.729181994E0,-1.681950092E0,4.699050426E0,-5.772000313E0,7.630597528E0
2.731145703E0,-2.179949999E0,4.468950272E0,-5.809950352E0,7.647170824E0
2.733109437E0,-2.640000105E0,4.009050369E0,-5.887050152E0,7.596015068E0
2.735073163E0,-3.061050177E0,3.664050102E0,-5.848050117E0,7.549502070E0
2.737036610E0,-3.445050240E0,3.319050074E0,-5.809950352E0,7.525954267E0
2.739000150E0,-3.751050234E0,3.012000084E0,-5.580000401E0,7.367423351E0
2.740963912E0,-4.018949986E0,2.667000055E0,-5.158050060E0,7.061892714E0
2.742927609E0,-4.173000336E0,2.437050104E0,-4.353000164E0,6.503979969E0
2.744891121E0,-4.096050262E0,2.131050110E0,-3.357000113E0,5.708629615E0
2.746854688E0,-4.018949986E0,1.900950074E0,-2.053950071E0,4.897374916E0
2.748817651E0,-3.828000069E0,1.863000035E0,-4.819500148E-1,4.284463732E0
2.750780780E0,-3.520950079E0,2.016000032E0,1.740000129E0,4.414628641E0
2.752744433E0,-2.946000099E0,2.322000027E0,4.461000443E0,5.828475414E0
2.754707932E0,-2.295000076E0,2.706000090E0,7.489050388E0,8.287058438E0
2.756671793E0,-1.873050094E0,3.319050074E0,1.055505085E1,1.122201000E1
2.758635548E0,-1.336950064E0,3.931950092E0,1.304595089E1,1.369103727E1
2.760599289E0,-8.380500674E-1,4.545000076E0,1.484805107E1,1.555069047E1
2.762563025E0,-5.320500135E-1,5.158950329E0,1.599705029E1,1.681676139E1
2.764526710E0,-1.480500102E-1,5.809950352E0,1.634205055E1,1.734474151E1
2.766490410E0,2.340000123E-1,6.538950443E0,1.599705029E1,1.728346744E1
2.768455136E0,7.699500322E-1,7.342950344E0,1.500105095E1,1.671954761E1
2.770419562E0,1.269000053E0,8.302050591E0,1.331505108E1,1.574245821E1
2.772382964E0,1.575000048E0,9.412950516E0,1.105305099E1,1.460322563E1
2.774346656E0,2.188950062E0,1.067805004E1,8.446949959E0,1.378996804E1
2.776310572E0,2.533950090E0,1.213395023E1,5.496000290E0,1.355948637E1
2.778274423E0,2.533950090E0,1.378200054E1,2.353049994E0,1.420919724E1
2.780239170E0,1.843950033E0,1.600500107E1,-9.810000658E-1,1.614071163E1
2.782203654E0,8.850000501E-1,1.849695015E1,-4.468050003E0,1.904951077E1
2.784166629E0,-7.200000435E-2,2.102595139E1,-6.768000126E0,2.208849568E1
2.786130044E0,-6.469500065E-1,2.370900154E1,-7.650000572E0,2.492103142E1
2.788093648E0,-1.106999993E0,2.673705101E1,-7.189950466E0,2.770903704E1
2.790057196E0,-1.297950029E0,3.018705177E1,-6.193050385E0,3.084309715E1
2.792021229E0,-1.297950029E0,3.375105286E1,-5.235000134E0,3.417928422E1
2.793985119E0,-1.030050039E0,3.750705338E1,-4.429950237E0,3.778180137E1
2.795949854E0,3.870000243E-1,4.134000015E1,-4.084949970E0,4.154313659E1
2.797914345E0,2.725050211E0,4.398495102E1,-3.778950214E0,4.423101038E1
2.799877946E0,5.944950104E0,4.448295212E1,-3.625050068E0,4.502462047E1
2.801841808E0,8.896050453E0,4.360095215E1,-3.894000292E0,4.466929572E1
2.803805426E0,1.127205086E1,4.206795120E1,-5.617950439E0,4.391278875E1
2.805769116E0,1.265205097E1,4.045800018E1,-7.342950344E0,4.302142597E1
2.807733192E0,1.284405041E1,3.869505310E1,-8.875950813E0,4.172600230E1
2.809697138E0,1.173195076E1,3.677895355E1,-9.988050461E0,3.987594820E1
2.811660968E0,8.704050064E0,3.451800156E1,-1.037100029E1,3.707843802E1
2.813624832E0,4.143000126E0,3.198795128E1,-1.014105034E1,3.381174913E1
2.815587639E0,-2.629500031E-1,2.961195183E1,-9.643050194E0,3.114362296E1
2.817550756E0,-3.483000278E0,2.746500206E1,-9.144000053E0,2.915596622E1
2.819514542E0,-5.361000061E0,2.554905128E1,-8.530950546E0,2.746400299E1
2.821478134E0,-6.396000385E0,2.401605034E1,-8.032950401E0,2.611910770E1
2.823441799E0,-6.625950336E0,2.275095177E1,-7.420050144E0,2.483075046E1
2.825405442E0,-6.664050102E0,2.183100128E1,-6.576000214E0,2.375386199E1
2.827369009E0,-6.586950302E0,2.110305023E1,-5.503050327E0,2.278179550E1
2.829332598E0,-6.625950336E0,2.056605148E1,-4.890000343E0,2.215350525E1
2.831295942E0,-6.817050457E0,2.022105026E1,-4.813050270E0,2.187529436E1
2.833259362E0,-7.239000320E0,1.983795166E1,-5.043000221E0,2.171127133E1
2.835223100E0,-7.737000465E0,1.949295044E1,-5.503050327E0,2.168224748E1
2.837186745E0,-8.236050606E0,1.922504997E1,-6.040050507E0,2.176964139E1
2.839150221E0,-8.848950386E0,1.899495125E1,-6.844950199E0,2.204462381E1
2.841113747E0,-9.385050774E0,1.876500130E1,-7.534950256E0,2.229304661E1
2.843077180E0,-9.922050476E0,1.861200142E1,-7.803000450E0,2.248867489E1
2.845040621E0,-1.030500031E1,1.834305000E1,-7.803000450E0,2.243986031E1
2.847003951E0,-1.072695065E1,1.822800064E1,-7.726050377E0,2.251708978E1
2.848967313E0,-1.087995052E1,1.803705025E1,-7.458000183E0,2.234569918E1
2.850931061E0,-1.099500084E1,1.799805069E1,-7.189950466E0,2.228262237E1
2.852894696E0,-1.103295040E1,1.799805069E1,-6.960000515E0,2.222830246E1
2.854858035E0,-1.103295040E1,1.792200089E1,-6.615000248E0,2.206087801E1
2.856821463E0,-1.068795013E1,1.784505081E1,-6.154950142E0,2.169243020E1
2.858784885E0,-9.922050476E0,1.780695152E1,-5.887050152E0,2.121772767E1
2.860748309E0,-9.232050896E0,1.776900101E1,-5.617950439E0,2.079734425E1
2.862711866E0,-8.503950119E0,1.765395164E1,-5.656950474E0,2.039559425E1
2.864675384E0,-7.891050339E0,1.765395164E1,-5.733000278E0,2.016923341E1
2.866639126E0,-7.354050159E0,1.757700157E1,-5.503050327E0,1.983221120E1
2.868602788E0,-7.009050369E0,1.750005150E1,-5.272950172E0,1.957505027E1
2.870566306E0,-6.817050457E0,1.734705162E1,-4.852050304E0,1.925966690E1
2.872529867E0,-6.702000141E0,1.704000092E1,-4.507050037E0,1.885714552E1
2.874493402E0,-6.664050102E0,1.661894989E1,-3.970050097E0,1.834012969E1
2.876456944E0,-6.625950336E0,1.627395058E1,-3.586950064E0,1.793351321E1
2.878420476E0,-6.664050102E0,1.554600048E1,-3.012000084E0,1.718021651E1
2.880384015E0,-6.817050457E0,1.470195103E1,-2.322000027E0,1.637104838E1
2.882347733E0,-7.123950481E0,1.397400093E1,-1.861950040E0,1.579525975E1
2.884311398E0,-7.546050549E0,1.332300091E1,-1.326000094E0,1.536891370E1
2.886274690E0,-7.929000378E0,1.286295033E1,-5.970000029E-1,1.512220047E1
2.888238092E0,-8.350950241E0,1.255605030E1,2.830500007E-1,1.508220429E1
2.890200613E0,-8.619000435E0,1.228800011E1,1.087950110E0,1.504877904E1
2.892163395E0,-8.887050629E0,1.224900055E1,1.165050030E0,1.517811006E1
2.894127243E0,-9.040050507E0,1.217295074E1,1.087950110E0,1.520154198E1
2.896090778E0,-8.925000191E0,1.198095036E1,7.810500264E-1,1.496024194E1
2.898054497E0,-8.695050240E0,1.163595009E1,7.050000429E-1,1.454291093E1
2.900018162E0,-8.503950119E0,1.144395065E1,7.810500264E-1,1.427904805E1
2.901982005E0,-8.274000168E0,1.136805058E1,6.280500293E-1,1.407430636E1
2.903945788E0,-7.813950539E0,1.110000038E1,3.220500052E-1,1.357834849E1
2.905910005E0,-7.162050247E0,1.090800095E1,2.830500007E-1,1.305218624E1
2.907874095E0,-6.472050190E0,1.079295063E1,2.449500114E-1,1.258710521E1
2.909836999E0,-5.743950367E0,1.067805004E1,3.600000143E-1,1.213026457E1
2.911800251E0,-4.824000359E0,1.037100029E1,3.600000143E-1,1.144369811E1
2.913764599E0,-4.057950020E0,1.006500053E1,3.600000143E-1,1.085821321E1
2.915728629E0,-3.520950079E0,9.910950661E0,5.295000225E-2,1.051792927E1
2.917692220E0,-3.022950172E0,9.910950661E0,-2.520000041E-1,1.036478050E1
2.919655939E0,-2.755050182E0,1.002600002E1,-4.060500264E-1,1.040556844E1
2.921619266E0,-2.410050154E0,1.021800041E1,-3.670500219E-1,1.050478938E1
2.923582708E0,-2.065050125E0,1.044795036E1,2.070000172E-1,1.065208655E1
2.925545601E0,-1.452000022E0,1.056300068E1,1.126049995E0,1.072162656E1
2.927508645E0,-1.068000078E0,1.067805004E1,1.930950046E0,1.090366658E1
2.929472222E0,-7.230000496E-1,1.079295063E1,2.545050144E0,1.111250614E1
2.931435643E0,-1.870500147E-1,1.083105087E1,2.545050144E0,1.112762018E1
2.933399923E0,2.340000123E-1,1.075500011E1,2.889000177E0,1.113872100E1
2.935363951E0,1.077000022E0,1.056300068E1,3.655950069E0,1.122955401E1
2.937327402E0,1.575000048E0,1.056300068E1,4.345950127E0,1.153017307E1
2.939291025E0,2.149950027E0,1.052505016E1,4.843950272E0,1.178400697E1
2.941254728E0,2.878050089E0,1.041000080E1,5.380950451E0,1.206672767E1
2.943218407E0,3.415050268E0,1.021800041E1,5.878950119E0,1.227322921E1
2.945182147E0,3.837000132E0,1.014105034E1,5.994000435E0,1.238916919E1
2.947145869E0,4.372950077E0,9.910950661E0,6.031950474E0,1.239895406E1
2.949109848E0,5.062950134E0,9.604950905E0,6.031950474E0,1.242066715E1
2.951073768E0,5.830050468E0,9.183000565E0,5.956050396E0,1.240127107E1
2.953037287E0,6.442950249E0,8.608050346E0,5.686950207E0,1.216353326E1
2.955000924E0,7.095000267E0,8.071949959E0,5.841000080E0,1.223162650E1
2.956964624E0,7.593000412E0,7.534950256E0,6.223950386E0,1.237605305E1
2.958928306E0,8.128950119E0,6.922050476E0,6.646050453E0,1.257635080E1
2.960891937E0,8.473950386E0,6.385050297E0,7.144050121E0,1.279117487E1
2.962855597E0,8.589000702E0,5.734050274E0,7.450050354E0,1.273395131E1
2.964819519E0,8.818950653E0,5.044050217E0,7.527000427E0,1.264405270E1
2.966783364E0,9.088050842E0,4.123950005E0,6.913950443E0,1.214093664E1
2.968747031E0,9.394050598E0,3.204000235E0,5.802000046E0,1.149682603E1
2.970710751E0,9.661950111E0,2.322000027E0,4.959000111E0,1.110570332E1
2.972674567E0,9.700950623E0,1.633050084E0,4.384050369E0,1.077010646E1
2.974638359E0,9.700950623E0,9.040500522E-1,4.116000175E0,1.057672950E1
2.976603161E0,9.661950111E0,1.759500057E-1,4.192950249E0,1.053399592E1
2.978567667E0,9.547050476E0,-3.210000098E-1,4.345950127E0,1.049459367E1
2.980531401E0,9.433050156E0,-9.730500579E-1,4.576050282E0,1.052945857E1
2.982495361E0,9.318000793E0,-1.548000097E0,4.921050072E0,1.065073598E1
2.984458989E0,9.088050842E0,-2.122950077E0,5.188950062E0,1.067823899E1
2.986422727E0,8.896050453E0,-2.697000027E0,5.266050339E0,1.068385740E1
2.988386186E0,8.628000259E0,-3.081000090E0,5.266050339E0,1.056722462E1
2.990349727E0,8.320950508E0,-3.541050196E0,5.112000465E0,1.038796431E1
2.992313130E0,8.014050484E0,-3.886050224E0,4.768050194E0,1.010250930E1
2.994276573E0,7.708050251E0,-4.269000053E0,4.537950039E0,9.911175041E0
2.996239739E0,7.285950184E0,-4.575000286E0,4.308000088E0,9.621567567E0
2.998203006E0,6.787950516E0,-4.843950272E0,4.116000175E0,9.299547510E0
3.000166050E0,6.289950371E0,-5.035050392E0,4.000950336E0,8.995710740E0
3.002129160E0,5.752950191E0,-5.112000465E0,3.886050224E0,8.621506307E0
3.004092410E0,5.062950134E0,-4.959000111E0,3.886050224E0,8.082483066E0
3.006055619E0,4.372950077E0,-4.843950272E0,3.886050224E0,7.595257267E0
3.008019395E0,3.760050297E0,-4.729050159E0,3.924000263E0,7.204142677E0
3.009983004E0,3.262050152E0,-4.690050125E0,3.963000298E0,6.952906783E0
3.011946486E0,2.839950085E0,-4.651950359E0,3.963000298E0,6.738792918E0
3.013910006E0,2.572050095E0,-4.614000320E0,3.808950186E0,6.512491241E0
3.015873412E0,2.380050182E0,-4.729050159E0,3.618000269E0,6.412369315E0
3.017836852E0,2.149950027E0,-4.804950237E0,3.388050079E0,6.260089076E0
3.019800227E0,2.035050154E0,-4.843950272E0,3.081000090E0,6.090800023E0
3.021763621E0,1.882050037E0,-4.767000198E0,2.698050022E0,5.791880278E0
3.023727364E0,1.767000079E0,-4.804950237E0,2.314950228E0,5.618614653E0
3.025691004E0,1.651950121E0,-4.804950237E0,1.930950046E0,5.435536226E0
3.027654346E0,1.575000048E0,-4.804950237E0,1.548000097E0,5.288144876E0
3.029617775E0,1.422000051E0,-4.690050125E0,1.318050027E0,5.075028098E0
3.031581093E0,1.345050097E0,-4.498950005E0,8.200500607E-1,4.766780151E0
3.033544453E0,1.153950095E0,-4.231050014E0,4.750500321E-1,4.411242181E0
3.035508742E0,1.000050068E0,-3.847050190E0,1.680000126E-1,3.978456900E0
3.037472759E0,7.699500322E-1,-3.426000118E0,-6.105000153E-2,3.511983338E0
3.039435540E0,5.790000558E-1,-2.889000177E0,-1.759500057E-1,2.951698070E0
3.041398684E0,4.260000288E-1,-2.467050076E0,-2.520000041E-1,2.516210663E0
3.043362270E0,3.109500110E-1,-2.046000004E0,-1.759500057E-1,2.076960358E0
3.045325740E0,3.109500110E-1,-1.663050056E0,-2.520000041E-1,1.710534828E0
3.047289066E0,2.340000123E-1,-1.356000066E0,-3.289500177E-1,1.414814581E0
3.049252434E0,1.960500032E-1,-9.730500579E-1,-5.209500194E-1,1.121004434E0
3.051215687E0,1.189500093E-1,-7.039500475E-1,-6.739500165E-1,9.817858213E-1
3.053178973E0,1.570500135E-1,-4.360500276E-1,-7.510500550E-1,8.825420775E-1
3.055142499E0,1.570500135E-1,-2.440500110E-1,-9.040500522E-1,9.494901850E-1
3.057105961E0,1.960500032E-1,-1.290000081E-1,-9.040500522E-1,9.340145088E-1
3.059068838E0,3.109500110E-1,-9.105000645E-2,-7.890000343E-1,8.529367311E-1
3.061031886E0,5.020500422E-1,-1.500000060E-2,-6.360000372E-1,8.104167398E-1
3.062995868E0,6.550500393E-1,6.105000153E-2,-4.060500264E-1,7.731069012E-1
3.064959576E0,8.470500112E-1,6.105000153E-2,-2.520000041E-1,8.858469541E-1
3.066923092E0,1.077000022E0,9.900000691E-2,-9.900000691E-2,1.086062176E0
3.068886660E0,1.269000053E0,9.900000691E-2,9.195000678E-2,1.276172771E0
3.070849427E0,1.306950092E0,1.380000114E-1,2.449500114E-1,1.336848180E0
3.072812429E0,1.422000051E0,1.759500057E-1,3.979500234E-1,1.487079947E0
3.074775924E0,1.575000048E0,2.910000086E-1,5.899500251E-1,1.706853007E0
3.076739274E0,1.767000079E0,4.830000103E-1,8.959500194E-1,2.039192175E0
3.078702615E0,1.882050037E0,5.590500236E-1,1.087950110E0,2.244612375E0
3.080665963E0,2.149950027E0,6.739500165E-1,1.240950108E0,2.572246278E0
3.082629218E0,2.304000139E0,8.280000687E-1,1.356000066E0,2.798702723E0
3.084592501E0,2.457000017E0,9.430500269E-1,1.240950108E0,2.909664862E0
3.086556218E0,2.572050095E0,1.018950105E0,1.087950110E0,2.972765791E0
3.088519807E0,2.802000046E0,1.134000063E0,8.959500194E-1,3.152758607E0
3.090483357E0,3.070050240E0,1.210950017E0,5.899500251E-1,3.352558642E0
3.092446905E0,3.415050268E0,1.363950014E0,3.220500052E-1,3.691428474E0
3.094410306E0,3.760050297E0,1.555950046E0,4.750500321E-1,4.096905089E0
3.096373751E0,4.105050087E0,1.900950074E0,1.011000037E0,4.635425382E0
3.098337440E0,4.219950199E0,2.245950222E0,1.777950048E0,5.100331211E0
3.100301057E0,4.258049965E0,2.743950129E0,3.273000240E0,6.030985192E0
3.102264603E0,4.066950321E0,3.357000113E0,5.419050217E0,7.561457526E0
3.104228156E0,3.645000219E0,4.047000408E0,8.064000130E0,9.730998767E0
3.106191916E0,2.878050089E0,4.852050304E0,1.078500080E1,1.217135189E1
3.108155615E0,2.188950062E0,5.464950085E0,1.316100025E1,1.441766657E1
3.110119127E0,1.422000051E0,6.232050419E0,1.457895088E1,1.591874195E1
3.112082694E0,8.850000501E-1,7.075050354E0,1.500105095E1,1.660936760E1
3.114045286E0,2.719500065E-1,7.918050289E0,1.423395061E1,1.629032926E1
3.116008161E0,-1.870500147E-1,8.722949982E0,1.251000023E1,1.525204740E1
3.117971992E0,-3.780000210E-1,9.528000832E0,1.009500027E1,1.388649395E1
3.119935543E0,-5.700000525E-1,1.037100029E1,7.066950321E0,1.256281553E1
3.121899305E0,-4.930500090E-1,1.106100082E1,4.078050137E0,1.179912414E1
3.123863005E0,-3.019500077E-1,1.171305084E1,5.509500504E-1,1.172988831E1
3.125827242E0,-1.480500102E-1,1.236405087E1,-3.165000200E0,1.276357704E1
3.127791318E0,-4.549500346E-1,1.370595074E1,-6.460950375E0,1.515928576E1
3.129755081E0,-1.375050068E0,1.539195061E1,-8.340000153E0,1.756013977E1
3.131718935E0,-3.022950172E0,1.761495018E1,-9.336000443E0,2.016396791E1
3.133682419E0,-4.978050232E0,2.068095016E1,-9.412950516E0,2.326126225E1
3.135646012E0,-7.276950359E0,2.413095093E1,-8.953050613E0,2.674722256E1
3.137609605E0,-9.193950653E0,2.792505074E1,-8.148000717E0,3.050782036E1
3.139573185E0,-1.107195091E1,3.260100174E1,-7.189950466E0,3.517255747E1
3.141536851E0,-1.268205070E1,3.842700195E1,-5.772000313E0,4.087523550E1
3.143500491E0,-1.379295063E1,4.509600067E1,-4.162050247E0,4.734149793E1
3.145464192E0,-1.490505028E1,5.145795059E1,-3.817050219E0,5.370894781E1
3.147427875E0,-1.586295033E1,5.720805359E1,-4.392000198E0,5.952885228E1
3.149391400E0,-1.574805069E1,6.188400269E1,-5.427000046E0,6.408652915E1
3.151354964E0,-1.421505070E1,6.460500336E1,-6.270000458E0,6.644687375E1
3.153318363E0,-1.172295094E1,6.590805054E1,-6.960000515E0,6.730334547E1
3.155281810E0,-8.964000702E0,6.586994934E1,-7.803000450E0,6.693347706E1
3.157245498E0,-6.241950512E0,6.448995209E1,-8.875950813E0,6.539647062E1
3.159209116E0,-3.367950201E0,6.123195267E1,-1.002600002E1,6.213868193E1
3.161173226E0,-6.850500107E-1,5.624895096E1,-1.060095024E1,5.724328715E1
3.163137192E0,1.000050068E0,5.050005341E1,-1.014105034E1,5.151792306E1
3.165100658E0,1.269000053E0,4.501905060E1,-8.991000175E0,4.592562860E1
3.167064271E0,9.240000248E-1,4.026705170E1,-8.340000153E0,4.113204141E1
3.169026895E0,3.870000243E-1,3.616604996E1,-7.726050377E0,3.698411541E1
3.170989809E0,-2.250000089E-1,3.286995316E1,-7.189950466E0,3.364788007E1
3.172953270E0,-8.380500674E-1,3.007200050E1,-7.036050320E0,3.089552632E1
3.174916573E0,-1.068000078E0,2.773395157E1,-6.997950554E0,2.862313759E1
3.176879972E0,-1.106999993E0,2.554905128E1,-7.305000305E0,2.659591134E1
3.178843342E0,-1.144950032E0,2.370900154E1,-7.687950134E0,2.495059602E1
3.180806909E0,-1.144950032E0,2.229105186E1,-8.071050644E0,2.373486386E1
3.182770419E0,-9.919500351E-1,2.095005035E1,-8.377950668E0,2.258492046E1
3.184734087E0,-8.770500422E-1,1.976205063E1,-8.608050346E0,2.157327960E1
3.186697716E0,-6.469500065E-1,1.876500130E1,-8.761050224E0,2.071955161E1
3.188661240E0,-3.400500119E-1,1.773000145E1,-8.799000740E0,1.979623700E1
3.190624795E0,-1.870500147E-1,1.681005096E1,-8.953050613E0,1.904651980E1
3.192588331E0,-1.480500102E-1,1.608195114E1,-8.991000175E0,1.842523149E1
3.194551872E0,-1.099500060E-1,1.546905041E1,-8.953050613E0,1.787346426E1
3.196515396E0,-1.099500060E-1,1.504695034E1,-8.838000298E0,1.745087542E1
3.198478935E0,-3.299999982E-2,1.466400051E1,-8.914050102E0,1.716083591E1
3.200442698E0,1.189500093E-1,1.431900024E1,-8.799000740E0,1.680685369E1
3.202406395E0,1.960500032E-1,1.393605042E1,-8.493000031E0,1.632124341E1
3.204370222E0,2.719500065E-1,1.359105110E1,-8.110050201E0,1.582919900E1
3.206334010E0,3.109500110E-1,1.324605083E1,-7.687950134E0,1.531858773E1
3.208297862E0,1.960500032E-1,1.278600025E1,-7.305000305E0,1.472695717E1
3.210261698E0,1.189500093E-1,1.228800011E1,-6.960000515E0,1.412270169E1
3.212225546E0,4.200000316E-2,1.186605072E1,-7.075050354E0,1.381525466E1
3.214189390E0,3.870000243E-1,1.140600014E1,-7.342950344E0,1.357076003E1
3.216152877E0,4.639500082E-1,1.094595051E1,-7.075050354E0,1.304168009E1
3.218116469E0,4.639500082E-1,1.048605061E1,-6.730050087E0,1.246860381E1
3.220080928E0,5.410500169E-1,1.002600002E1,-6.346950531E0,1.187843393E1
3.222045144E0,6.940500140E-1,9.604950905E0,-6.232050419E0,1.147062508E1
3.224008703E0,6.169500351E-1,9.259950638E0,-5.580000401E0,1.082883732E1
3.225972454E0,6.169500351E-1,8.800050735E0,-4.813050270E0,1.004922749E1
3.227936181E0,7.699500322E-1,8.263050079E0,-3.931950092E0,9.183193954E0
3.229899915E0,8.850000501E-1,7.687950134E0,-3.739950180E0,8.595058447E0
3.231863409E0,9.240000248E-1,7.113000393E0,-3.549000263E0,8.002746622E0
3.233826949E0,8.089500666E-1,6.538950443E0,-3.012000084E0,7.244613007E0
3.235789811E0,3.870000243E-1,6.001950264E0,-2.359950066E0,6.460846717E0
3.237752872E0,4.200000316E-2,5.350050449E0,-2.284050226E0,5.817361021E0
3.239716672E0,-2.629500031E-1,4.890000343E0,-2.629050016E0,5.558160672E0
3.241680255E0,-4.170000255E-1,4.468950272E0,-2.551950216E0,5.163124583E0
3.243643612E0,-4.170000255E-1,4.047000408E0,-1.977000117E0,4.523342878E0
3.245607031E0,-7.620000243E-1,3.625950098E0,-1.287000060E0,3.922311475E0
3.247570589E0,-8.770500422E-1,3.166050196E0,-5.209500194E-1,3.326331243E0
3.249534106E0,-9.919500351E-1,2.821050167E0,1.500000060E-2,2.990403638E0
3.251496568E0,-1.106999993E0,2.514000177E0,3.600000143E-1,2.770423413E0
3.253459339E0,-1.222050071E0,2.169000149E0,7.429500222E-1,2.598065195E0
3.255423157E0,-1.375050068E0,1.863000035E0,1.050000072E0,2.542446061E0
3.257386659E0,-1.528050065E0,1.479000092E0,1.203000069E0,2.443273918E0
3.259350384E0,-1.795950055E0,1.096050024E0,1.165050030E0,2.405016388E0
3.261314043E0,-1.873050094E0,6.360000372E-1,8.580000401E-1,2.156148596E0
3.263279363E0,-1.834950089E0,1.380000114E-1,5.130000114E-1,1.910302292E0
3.265244197E0,-1.873050094E0,-2.830500007E-1,5.295000225E-2,1.895056110E0
3.267207154E0,-1.681950092E0,-7.429500222E-1,-2.140500098E-1,1.851147821E0
3.269170661E0,-1.720050097E0,-1.240950108E0,-5.970000029E-1,2.203392500E0
3.271134204E0,-1.605000019E0,-1.701000094E0,-7.890000343E-1,2.468187075E0
3.273097736E0,-1.489950061E0,-2.122950077E0,-9.810000658E-1,2.772945968E0
3.275061321E0,-1.297950029E0,-2.581950188E0,-1.018950105E0,3.064212846E0
3.277024890E0,-1.144950032E0,-2.965950251E0,-8.269500136E-1,3.285059785E0
3.278988379E0,-8.380500674E-1,-3.387000084E0,-7.120500207E-1,3.561055000E0
3.280951892E0,-6.079500318E-1,-3.771000147E0,-4.440000355E-1,3.845410431E0
3.282915478E0,-1.870500147E-1,-4.116000175E0,-1.759500057E-1,4.124003341E0
3.284879043E0,2.340000123E-1,-4.461000443E0,1.300500035E-1,4.469026064E0
3.286842533E0,5.020500422E-1,-4.843950272E0,3.220500052E-1,4.880535287E0
3.288806045E0,8.470500112E-1,-5.112000465E0,5.130000114E-1,5.207034808E0
3.290769632E0,1.192050099E0,-5.457000256E0,5.899500251E-1,5.616749617E0
3.292733197E0,1.384050012E0,-5.686950207E0,7.050000429E-1,5.895254206E0
3.294696911E0,1.767000079E0,-5.878950119E0,9.349500537E-1,6.209547116E0
3.296660582E0,2.265000105E0,-6.223950386E0,1.050000072E0,6.705988669E0
3.298624234E0,2.610000134E0,-6.415050507E0,1.240950108E0,7.035974053E0
3.300587892E0,2.955000162E0,-6.492000103E0,1.510050058E0,7.290976785E0
3.302551440E0,3.262050152E0,-6.568950176E0,1.740000129E0,7.537882863E0
3.304515031E0,3.607050180E0,-6.607050419E0,2.122950077E0,7.821179148E0
3.306478740E0,3.837000132E0,-6.607050419E0,2.506050110E0,8.040893756E0
3.308442414E0,4.027950287E0,-6.529950142E0,2.698050022E0,8.132902698E0
3.310406110E0,4.182000160E0,-6.492000103E0,2.851050138E0,8.231869628E0
