"Time (s)","Acceleration x (m/s^2)","Acceleration y (m/s^2)","Acceleration z (m/s^2)","Absolute acceleration (m/s^2)"
3.593376800E-2,9.619500637E-1,-7.105050564E0,1.893000126E0,7.415560728E0
3.789507500E-2,7.699500322E-1,-7.219950199E0,1.510050058E0,7.416249396E0
3.985907600E-2,5.790000558E-1,-7.219950199E0,1.165050030E0,7.336229516E0
4.182176900E-2,3.870000243E-1,-7.219950199E0,6.280500293E-1,7.257540681E0
4.378484500E-2,2.719500065E-1,-7.182000160E0,2.449500114E-1,7.191320019E0
4.574776600E-2,1.189500093E-1,-7.066950321E0,-2.205000073E-2,7.067985721E0
4.771074800E-2,1.570500135E-1,-7.027950287E0,-2.140500098E-1,7.032962914E0
4.967379500E-2,1.960500032E-1,-6.913050175E0,-2.910000086E-1,6.921949099E0
5.163682200E-2,3.109500110E-1,-6.798000336E0,-2.910000086E-1,6.811327292E0
5.360013300E-2,3.870000243E-1,-6.607050419E0,-2.140500098E-1,6.621835219E0
5.556336100E-2,5.790000558E-1,-6.454050541E0,-6.105000153E-2,6.480257445E0
5.752637500E-2,7.699500322E-1,-6.147000313E0,9.195000678E-2,6.195715512E0
5.948947900E-2,1.039050102E0,-5.878950119E0,2.830500007E-1,5.976771446E0
6.145196500E-2,1.230000019E0,-5.572050095E0,6.280500293E-1,5.740652327E0
6.341463300E-2,1.384050012E0,-5.149950027E0,9.349500537E-1,5.414029121E0
6.537764400E-2,1.575000048E0,-4.729050159E0,1.240950108E0,5.136584247E0
6.734055400E-2,1.804950118E0,-4.306950092E0,1.471050024E0,4.896085395E0
6.930364000E-2,2.074050188E0,-3.808950186E0,1.510050058E0,4.592389017E0
7.126668800E-2,2.188950062E0,-3.349050045E0,1.510050058E0,4.276434234E0
7.322990500E-2,2.304000139E0,-2.889000177E0,1.548000097E0,4.006375290E0
7.519307200E-2,2.457000017E0,-2.544000149E0,1.471050024E0,3.830505713E0
7.715599900E-2,2.572050095E0,-2.083950043E0,1.471050024E0,3.622468446E0
7.911899700E-2,2.725050211E0,-1.663050056E0,1.279950023E0,3.439463069E0
8.108224800E-2,2.917050123E0,-1.393950105E0,1.050000072E0,3.399232041E0
8.304543800E-2,3.147000074E0,-1.011000037E0,7.810500264E-1,3.396434850E0
8.500921600E-2,3.453000069E0,-5.890500546E-1,3.979500234E-1,3.525415389E0
8.697282200E-2,3.760050297E0,-2.059500068E-1,1.300500035E-1,3.767931348E0
8.893472800E-2,3.952050209E0,2.295000106E-2,-2.140500098E-1,3.957909166E0
9.089713200E-2,4.182000160E0,5.590500236E-1,-5.590500236E-1,4.256077913E0
9.286047500E-2,4.335000038E0,1.096050024E0,-9.810000658E-1,4.577762785E0
9.482356300E-2,4.372950077E0,1.518000126E0,-1.479000092E0,4.859470962E0
9.678681800E-2,4.564949989E0,1.900950074E0,-1.977000117E0,5.325496132E0
9.875002400E-2,4.756950378E0,2.245950222E0,-2.245050192E0,5.719538414E0
1.007130350E-1,4.948050022E0,2.706000090E0,-2.437050104E0,6.143683644E0
1.026761030E-1,5.215950012E0,3.051000118E0,-2.551950216E0,6.559511122E0
1.046391320E-1,5.485050201E0,3.433950186E0,-2.667000055E0,6.999334174E0
1.066022070E-1,5.752950191E0,3.856050253E0,-2.820000172E0,7.477831265E0
1.085651050E-1,6.021000385E0,4.315950394E0,-2.935050249E0,7.968336928E0
1.105280550E-1,6.289950371E0,4.736999989E0,-3.049950123E0,8.444219343E0
1.124908390E-1,6.595950127E0,5.119950294E0,-2.896950245E0,8.838142894E0
1.144536710E-1,6.865050316E0,5.389050484E0,-2.322000027E0,9.031194001E0
1.164160190E-1,6.940950394E0,5.734050274E0,-1.134000063E0,9.074253746E0
1.183785120E-1,6.903000355E0,6.270000458E0,4.750500321E-1,9.337558148E0
1.203410120E-1,6.979950428E0,6.844950199E0,2.467950106E0,1.008284825E1
1.223035100E-1,6.787950516E0,7.612050533E0,4.729050159E0,1.124204167E1
1.242666410E-1,6.481050491E0,8.340000153E0,6.684000492E0,1.249941921E1
1.262295870E-1,5.983050346E0,9.259950638E0,8.025000572E0,1.363613624E1
1.281926820E-1,5.560950279E0,1.025595093E1,8.715000153E0,1.456227747E1
1.301557360E-1,5.523000240E0,1.113795090E1,8.944950104E0,1.531566565E1
1.321186830E-1,5.560950279E0,1.190400028E1,8.907000542E0,1.587337549E1
1.340816610E-1,5.485050201E0,1.267095089E1,8.332050323E0,1.612643280E1
1.360445740E-1,5.446050167E0,1.332300091E1,7.374000549E0,1.617212725E1
1.380075070E-1,5.140050411E0,1.412700081E1,5.841000080E0,1.612791220E1
1.399705690E-1,4.756950378E0,1.527705097E1,3.963000298E0,1.648399935E1
1.419336200E-1,4.105050087E0,1.657995033E1,2.046000004E0,1.720268308E1
1.438976020E-1,2.992950201E0,1.842000008E1,1.500000060E-2,1.866157493E1
1.458613120E-1,1.651950121E0,2.018295097E1,-2.284050226E0,2.037884527E1
1.478232000E-1,1.570500135E-1,2.229105186E1,-4.123950005E0,2.266986153E1
1.497856220E-1,-1.642950058E0,2.424600029E1,-6.078000069E0,2.505014770E1
1.517487600E-1,-3.904950142E0,2.662200165E1,-8.646000862E0,2.826186367E1
1.537116920E-1,-6.664050102E0,2.961195183E1,-1.071600056E1,3.218866140E1
1.556744790E-1,-9.807000160E0,3.267795181E1,-1.286205101E1,3.646173533E1
1.576373090E-1,-1.241295052E1,3.555300140E1,-1.389705086E1,4.014007065E1
1.596003820E-1,-1.459800053E1,3.835005188E1,-1.336005020E1,4.315459466E1
1.615633840E-1,-1.624604988E1,4.084200287E1,-1.155900097E1,4.544902462E1
1.635261500E-1,-1.751100159E1,4.283505249E1,-1.040895081E1,4.743230076E1
1.654889920E-1,-1.866105080E1,4.490400314E1,-9.183000565E0,4.948668320E1
1.674519280E-1,-1.935105133E1,4.632300186E1,-8.953050613E0,5.099451740E1
1.694148360E-1,-2.000205040E1,4.697400284E1,-9.106050491E0,5.186095948E1
1.713778970E-1,-2.007900047E1,4.678305054E1,-9.451050758E0,5.177974930E1
1.733409130E-1,-1.957995033E1,4.601595306E1,-9.489000320E0,5.090072218E1
1.753038280E-1,-1.866105080E1,4.456005096E1,-9.220950127E0,4.918189586E1
1.772668000E-1,-1.720395088E1,4.249005127E1,-8.761050224E0,4.667050872E1
1.792298480E-1,-1.528800106E1,4.007505035E1,-8.646000862E0,4.375483937E1
1.811928740E-1,-1.348605061E1,3.746895218E1,-8.838000298E0,4.079100621E1
1.831556460E-1,-1.191495037E1,3.501600266E1,-8.953050613E0,3.805579587E1
1.851184920E-1,-1.030500031E1,3.271605301E1,-8.608050346E0,3.536427133E1
1.870813630E-1,-8.925000191E0,3.060795212E1,-8.148000717E0,3.290732862E1
1.890442400E-1,-7.621950150E0,2.865405083E1,-7.687950134E0,3.063092114E1
1.910071710E-1,-6.357000351E0,2.692905045E1,-7.381050587E0,2.863677913E1
1.929700860E-1,-5.208000183E0,2.547195053E1,-7.420050144E0,2.703702413E1
1.949328770E-1,-4.288050175E0,2.424600029E1,-7.726050377E0,2.580596363E1
1.968957040E-1,-3.330000162E0,2.298105049E1,-8.032950401E0,2.457124081E1
1.988587840E-1,-2.026050091E0,2.194605064E1,-8.416049957E0,2.359160687E1
2.008218170E-1,-6.850500107E-1,2.110305023E1,-8.991000175E0,2.294877136E1
2.027855780E-1,3.109500110E-1,2.022105026E1,-9.681000710E0,2.242118057E1
2.047491250E-1,1.306950092E0,1.949295044E1,-1.021800041E1,2.204746624E1
2.067119420E-1,2.149950027E0,1.876500130E1,-1.060095024E1,2.165935606E1
2.086749730E-1,2.878050089E0,1.815195084E1,-1.102200031E1,2.143037523E1
2.106379130E-1,3.492000103E0,1.757700157E1,-1.125195026E1,2.116013785E1
2.126008870E-1,4.027950287E0,1.704000092E1,-1.148205090E1,2.093856508E1
2.145641160E-1,4.335000038E0,1.642695045E1,-1.182705021E1,2.070062905E1
2.165272700E-1,4.527000427E0,1.585200119E1,-1.194195080E1,2.035656807E1
2.184903350E-1,4.680000305E0,1.535400105E1,-1.205700016E1,2.007533322E1
2.204534260E-1,4.756950378E0,1.489395046E1,-1.194195080E1,1.967405719E1
2.224163690E-1,4.717950344E0,1.462605095E1,-1.152105045E1,1.920716078E1
2.243793530E-1,4.603050232E0,1.420395088E1,-1.098405075E1,1.853617175E1
2.263422650E-1,4.450050354E0,1.370595074E1,-1.048605061E1,1.782170842E1
2.283051990E-1,4.564949989E0,1.351395035E1,-9.796050072E0,1.730399432E1
2.302677600E-1,4.335000038E0,1.320795059E1,-9.144000053E0,1.663895793E1
2.322304300E-1,4.105050087E0,1.278600025E1,-8.377950668E0,1.582792772E1
2.341932150E-1,4.066950321E0,1.236405087E1,-7.726050377E0,1.513610561E1
2.361559660E-1,4.105050087E0,1.175100040E1,-7.342950344E0,1.445186377E1
2.381189190E-1,3.913050175E0,1.090800095E1,-6.576000214E0,1.332442213E1
2.400818130E-1,3.607050180E0,9.988050461E0,-6.078000069E0,1.223576920E1
2.420447410E-1,3.453000069E0,9.145050049E0,-4.927950382E0,1.094713866E1
2.440076590E-1,3.300000191E0,8.493000031E0,-3.931950092E0,9.923773592E0
2.459707630E-1,3.070050240E0,7.842000484E0,-3.165000200E0,8.996633056E0
2.479338130E-1,2.419050217E0,7.305000305E0,-2.590050220E0,8.119309919E0
2.498967150E-1,2.304000139E0,6.768000126E0,-2.014950037E0,7.427938206E0
2.518596610E-1,2.188950062E0,6.309000492E0,-1.441050053E0,6.831662670E0
2.538228940E-1,1.690050125E0,5.925000191E0,-1.171950102E0,6.271791110E0
2.557860430E-1,1.306950092E0,5.389050484E0,-1.057050109E0,5.645116349E0
2.577487480E-1,1.039050102E0,4.852050304E0,-1.057050109E0,5.073398487E0
2.597115840E-1,8.850000501E-1,4.392000198E0,-1.018950105E0,4.594687165E0
2.616749260E-1,1.192050099E0,3.817050219E0,-1.057050109E0,4.136207290E0
2.636381200E-1,2.533950090E0,3.204000235E0,-1.210950017E0,4.260624427E0
2.656011330E-1,4.258049965E0,2.782050133E0,-1.594050050E0,5.330270913E0
2.675641990E-1,3.760050297E0,2.322000027E0,-1.977000117E0,4.841300633E0
2.695273410E-1,3.108000040E0,1.863000035E0,-2.092050076E0,4.184149483E0
2.714904470E-1,2.572050095E0,1.402950048E0,-1.900950074E0,3.492466422E0
2.734532950E-1,2.035050154E0,9.430500269E-1,-1.516950130E0,2.707750022E0
2.754162180E-1,1.690050125E0,4.440000355E-1,-1.287000060E0,2.170201514E0
2.773805820E-1,1.384050012E0,2.295000106E-2,-1.096050024E0,1.765629291E0
2.793445240E-1,1.153950095E0,-2.059500068E-1,-9.420000315E-1,1.503788644E0
2.813067830E-1,8.850000501E-1,-4.740000367E-1,-7.120500207E-1,1.230819384E0
2.832695310E-1,3.870000243E-1,-9.340500236E-1,-5.590500236E-1,1.155316145E0
2.852329790E-1,4.050000105E-3,-1.356000066E0,-3.670500219E-1,1.404805431E0
2.871962210E-1,-2.250000089E-1,-1.624050021E0,-6.105000153E-2,1.640698198E0
2.891585950E-1,-5.320500135E-1,-1.930950046E0,1.680000126E-1,2.009942611E0
2.911212230E-1,-8.380500674E-1,-2.199000120E0,5.130000114E-1,2.408546959E0
2.930844190E-1,-1.106999993E0,-2.544000149E0,7.429500222E-1,2.872169995E0
2.950474180E-1,-1.183050036E0,-2.889000177E0,8.959500194E-1,3.247869433E0
2.970104630E-1,-1.222050071E0,-3.271950245E0,1.087950110E0,3.658237311E0
2.989734950E-1,-1.183050036E0,-3.579000235E0,1.318050027E0,3.993257560E0
3.009364450E-1,-1.183050036E0,-3.847050190E0,1.510050058E0,4.298796777E0
3.028994200E-1,-1.106999993E0,-4.231050014E0,1.548000097E0,4.639346669E0
3.048622790E-1,-1.068000078E0,-4.537050247E0,1.624950051E0,4.936183929E0
3.068251790E-1,-1.183050036E0,-4.767000198E0,1.701000094E0,5.197816811E0
3.087882850E-1,-1.144950032E0,-5.035050392E0,1.663050056E0,5.424792947E0
3.107513310E-1,-1.260000110E0,-5.227050304E0,1.510050058E0,5.584792417E0
3.127145940E-1,-1.336950064E0,-5.304000378E0,1.471050024E0,5.664260203E0
3.146777930E-1,-1.413000107E0,-5.533950329E0,1.395000100E0,5.879387793E0
3.166408670E-1,-1.336950064E0,-5.725050449E0,1.240950108E0,6.008626739E0
3.186039980E-1,-1.260000110E0,-5.802000046E0,1.126049995E0,6.043078139E0
3.205672440E-1,-1.260000110E0,-5.802000046E0,1.126049995E0,6.043078139E0
3.225304570E-1,-1.222050071E0,-5.725050449E0,1.050000072E0,5.947445601E0
3.244935120E-1,-1.144950032E0,-5.649000168E0,1.203000069E0,5.888066120E0
3.264566130E-1,-1.106999993E0,-5.419050217E0,1.203000069E0,5.660279446E0
3.284198050E-1,-9.529500604E-1,-5.227050304E0,1.318050027E0,5.474251052E0
3.303829810E-1,-7.620000243E-1,-4.920000076E0,1.510050058E0,5.202623950E0
3.323460870E-1,-6.079500318E-1,-4.614000320E0,1.548000097E0,4.904580155E0
3.343092130E-1,-5.700000525E-1,-4.306950092E0,1.816050053E0,4.708795701E0
3.362721020E-1,-6.079500318E-1,-3.961950302E0,2.046000004E0,4.500307707E0
3.382350600E-1,-7.620000243E-1,-3.463950157E0,2.506050110E0,4.342796551E0
3.401977510E-1,-7.620000243E-1,-3.081000090E0,2.812950134E0,4.240977959E0
3.421605210E-1,-6.469500065E-1,-2.812050104E0,3.004050255E0,4.165391702E0
3.441235140E-1,-5.700000525E-1,-2.581950188E0,3.310950041E0,4.237187393E0
3.460864420E-1,-4.170000255E-1,-2.314050198E0,3.618000269E0,4.314932593E0
3.480495000E-1,-2.629500031E-1,-2.083950043E0,4.153950214E0,4.654813946E0
3.500125190E-1,-1.480500102E-1,-1.816050053E0,4.498950005E0,4.853916742E0
3.519753070E-1,-3.299999982E-2,-1.585950017E0,4.729050159E0,4.988009810E0
3.539381520E-1,4.200000316E-2,-1.393950105E0,4.843950272E0,5.040705816E0
3.559012670E-1,2.340000123E-1,-1.240950108E0,5.035950184E0,5.191869358E0
3.578643030E-1,4.260000288E-1,-1.126049995E0,4.996950150E0,5.139939242E0
3.598280630E-1,5.410500169E-1,-1.011000037E0,4.959000111E0,5.089846588E0
3.617916110E-1,6.940500140E-1,-8.580000401E-1,4.921050072E0,5.043273074E0
3.637546080E-1,7.320000529E-1,-7.429500222E-1,4.768050194E0,4.880789021E0
3.657177670E-1,6.940500140E-1,-5.509500504E-1,4.461000443E0,4.548161863E0
3.676806490E-1,6.550500393E-1,-4.740000367E-1,4.231050014E0,4.307615444E0
3.696436130E-1,6.940500140E-1,-2.830500007E-1,3.924000263E0,3.994946907E0
3.716065290E-1,6.550500393E-1,-2.059500068E-1,3.655950069E0,3.719875921E0
3.735694590E-1,6.169500351E-1,-1.290000081E-1,3.349050045E0,3.407844561E0
3.755325600E-1,6.550500393E-1,-1.290000081E-1,3.004050255E0,3.077344552E0
3.774956110E-1,6.940500140E-1,-5.295000225E-2,2.506050110E0,2.600922198E0
3.794581530E-1,7.320000529E-1,1.380000114E-1,1.930950046E0,2.069646385E0
3.814208440E-1,7.320000529E-1,2.140500098E-1,1.548000097E0,1.725672560E0
3.833839860E-1,8.470500112E-1,3.289500177E-1,1.279950023E0,1.569705035E0
3.853469960E-1,8.470500112E-1,4.830000103E-1,9.349500537E-1,1.350893902E0
3.873109970E-1,9.240000248E-1,5.980500579E-1,4.750500321E-1,1.198796251E0
3.892747310E-1,1.000050068E0,7.129500508E-1,9.195000678E-2,1.231605747E0
3.912376510E-1,1.153950095E0,8.659500480E-1,-2.520000041E-1,1.464573081E0
3.932008100E-1,1.306950092E0,1.057950020E0,-6.360000372E-1,1.797741037E0
3.951639180E-1,1.422000051E0,1.134000063E0,-1.018950105E0,2.084778070E0
3.971270410E-1,1.614000082E0,1.402950048E0,-1.363950014E0,2.536459096E0
3.990901010E-1,1.767000079E0,1.518000126E0,-1.747050047E0,2.911837483E0
4.010531860E-1,1.996950150E0,1.671000123E0,-2.092050076E0,3.340168383E0
4.030162610E-1,2.265000105E0,1.824000120E0,-2.359950066E0,3.745205765E0
4.049793390E-1,2.419050217E0,2.053950071E0,-2.704950094E0,4.169804535E0
4.069421910E-1,2.572050095E0,2.245950222E0,-2.974050045E0,4.528212424E0
4.089051090E-1,2.725050211E0,2.476050138E0,-3.280050039E0,4.931069985E0
4.108680720E-1,2.955000162E0,2.667000055E0,-3.394950151E0,5.231692057E0
4.128310250E-1,3.184950113E0,2.896950245E0,-3.510000229E0,5.554847392E0
4.147938990E-1,3.300000191E0,3.127050161E0,-3.433950186E0,5.697407994E0
4.167567960E-1,3.415050268E0,3.280950069E0,-3.204000235E0,5.717763478E0
4.187195880E-1,3.568050146E0,3.472050190E0,-2.896950245E0,5.760072490E0
4.206824110E-1,3.682950258E0,3.702000141E0,-2.475000143E0,5.778802069E0
4.226456660E-1,3.682950258E0,3.894000292E0,-1.861950040E0,5.673994962E0
4.246087940E-1,3.682950258E0,4.123950005E0,-1.134000063E0,5.644204318E0
4.265711870E-1,3.645000219E0,4.315950394E0,1.500000060E-2,5.649219362E0
4.285337960E-1,3.760050297E0,4.545000076E0,1.585950017E0,6.108210981E0
4.304972670E-1,3.682950258E0,4.813950062E0,3.349050045E0,6.924909675E0
4.324604860E-1,3.607050180E0,5.119950294E0,5.457000256E0,8.306837774E0
4.344237480E-1,3.529950142E0,5.464950085E0,7.489050388E0,9.920287453E0
4.363869770E-1,3.529950142E0,5.734050274E0,9.712050438E0,1.181794416E1
4.383502080E-1,3.492000103E0,6.154950142E0,1.193505096E1,1.387526279E1
4.403134380E-1,3.453000069E0,6.577050209E0,1.434900093E1,1.615780389E1
4.422764900E-1,3.607050180E0,6.997950554E0,1.638105011E1,1.817473317E1
4.442395940E-1,3.837000132E0,7.534950256E0,1.776105118E1,1.967112057E1
4.462025050E-1,3.952050209E0,8.032950401E0,1.841205025E1,2.047316750E1
4.481654590E-1,4.027950287E0,8.685000420E0,1.814400101E1,2.051483337E1
4.501287360E-1,4.219950199E0,9.451050758E0,1.695600128E1,1.986545543E1
4.520919190E-1,4.219950199E0,1.037100029E1,1.492395115E1,1.865716872E1
4.540547980E-1,4.027950287E0,1.163595009E1,1.224105072E1,1.736269106E1
4.560177670E-1,4.105050087E0,1.320795059E1,9.060000420E0,1.653435825E1
4.579804730E-1,4.450050354E0,1.470195103E1,5.956050396E0,1.647497643E1
4.599432770E-1,5.254950047E0,1.581405067E1,2.659050226E0,1.687510731E1
4.619069400E-1,6.136050224E0,1.684905052E1,-5.970000029E-1,1.794151679E1
4.638703520E-1,6.673050404E0,1.830495071E1,-4.009050369E0,1.989153858E1
4.658331920E-1,6.750000477E0,1.995300102E1,-6.960000515E0,2.218392128E1
4.677962000E-1,6.750000477E0,2.206095123E1,-9.412950516E0,2.491689614E1
4.697587980E-1,6.634950161E0,2.424600029E1,-1.098405075E1,2.743247099E1
4.717215120E-1,6.520050526E0,2.669895172E1,-1.182705021E1,2.992029743E1
4.736848310E-1,6.634950161E0,2.949705124E1,-1.224900055E1,3.262110682E1
4.756479720E-1,6.787950516E0,3.256305313E1,-1.140600014E1,3.516426511E1
4.776111730E-1,7.248000145E0,3.574394989E1,-9.565950394E0,3.770505095E1
4.795743570E-1,7.822950363E0,3.693195343E1,-9.067950249E0,3.882519103E1
4.815372760E-1,8.359050751E0,3.693195343E1,-7.534950256E0,3.860852741E1
4.835002770E-1,8.857950211E0,3.654900360E1,-3.970050097E0,3.781605802E1
4.854624200E-1,9.088050842E0,3.605100250E1,1.500000060E-2,3.717886059E1
4.874248150E-1,8.320950508E0,3.547605133E1,2.467950106E0,3.652231117E1
4.893875120E-1,6.097950459E0,3.497805023E1,3.196050167E0,3.564917579E1
4.913501210E-1,2.380050182E0,3.417300034E1,2.122950077E0,3.432150212E1
4.933130740E-1,-1.605000019E0,3.279300308E1,-2.205000073E-2,3.283226405E1
4.952759430E-1,-5.016000271E0,3.103005219E1,-3.012000084E0,3.157683553E1
4.972390110E-1,-7.929000378E0,2.903700066E1,-5.887050152E0,3.067040615E1
4.992020200E-1,-1.011405087E1,2.719695091E1,-8.416049957E0,3.021254807E1
5.011649740E-1,-1.183800030E1,2.574105072E1,-1.040895081E1,3.018420448E1
5.031279450E-1,-1.256700039E1,2.455200195E1,-1.109895039E1,2.973074164E1
5.050915440E-1,-1.245195103E1,2.359395027E1,-1.071600056E1,2.874992594E1
5.070549520E-1,-1.172295094E1,2.267400169E1,-9.718950272E0,2.731292598E1
5.090181990E-1,-1.095705032E1,2.183100128E1,-8.110050201E0,2.573756949E1
5.109814930E-1,-1.061205006E1,2.129505157E1,-6.615000248E0,2.469520310E1
5.129446670E-1,-1.045905018E1,2.079600143E1,-5.503050327E0,2.391963564E1
5.149078770E-1,-1.049700069E1,2.045100021E1,-5.235000134E0,2.357616720E1
5.168709910E-1,-1.072695065E1,2.014500046E1,-5.350050449E0,2.344166277E1
5.188341230E-1,-1.107195091E1,1.991505051E1,-5.887050152E0,2.353411764E1
5.207971900E-1,-1.137795067E1,1.968495178E1,-6.805950165E0,2.373343729E1
5.227602770E-1,-1.168500042E1,1.953195000E1,-7.687950134E0,2.402375663E1
5.247235310E-1,-1.195305061E1,1.933995056E1,-8.455050468E0,2.425689562E1
5.266867360E-1,-1.218300056E1,1.914795113E1,-8.914050102E0,2.438298227E1
5.286499670E-1,-1.229805088E1,1.888005066E1,-9.489000320E0,2.444871153E1
5.306131930E-1,-1.237500095E1,1.868805122E1,-9.910950661E0,2.450736318E1
5.325764240E-1,-1.229805088E1,1.853505135E1,-1.017900085E1,2.446226159E1
5.345396540E-1,-1.229805088E1,1.834305000E1,-1.014105034E1,2.430124361E1
5.365028850E-1,-1.237500095E1,1.819005013E1,-1.017900085E1,2.424109384E1
5.384661160E-1,-1.206795025E1,1.788300133E1,-9.910950661E0,2.374161121E1
5.404293120E-1,-1.172295094E1,1.757700157E1,-9.259050369E0,2.306747877E1
5.423925120E-1,-1.126305008E1,1.723200035E1,-8.569950104E0,2.229892773E1
5.443556120E-1,-1.084200096E1,1.711695099E1,-8.071050644E0,2.181010900E1
5.463187420E-1,-1.026705074E1,1.684905052E1,-7.726050377E0,2.118949478E1
5.482817650E-1,-9.691950798E0,1.673400116E1,-7.342950344E0,2.068525138E1
5.502448190E-1,-9.154950142E0,1.650405121E1,-6.997950554E0,2.012878860E1
5.522079040E-1,-8.580000877E0,1.627395058E1,-6.423000336E0,1.948622118E1
5.541709760E-1,-7.891050339E0,1.588995075E1,-5.809950352E0,1.866854931E1
5.561338750E-1,-7.239000320E0,1.558395100E1,-5.503050327E0,1.804289936E1
5.580968240E-1,-6.856050491E0,1.527705097E1,-5.158050060E0,1.752139250E1
5.600597430E-1,-6.511050224E0,1.493205070E1,-4.353000164E0,1.686145082E1
5.620226710E-1,-6.204000473E0,1.474095058E1,-3.433950186E0,1.635778897E1
5.639855600E-1,-6.051000118E0,1.451100063E1,-2.437050104E0,1.590983831E1
5.659484840E-1,-5.974050522E0,1.435695076E1,-1.363950014E0,1.560998637E1
5.679112260E-1,-5.898000240E0,1.412700081E1,-5.209500194E-1,1.531763518E1
5.698740220E-1,-5.898000240E0,1.393605042E1,1.500000060E-2,1.513275035E1
5.718367870E-1,-5.859000206E0,1.366695023E1,2.449500114E-1,1.487190009E1
5.737995610E-1,-5.898000240E0,1.370595074E1,1.300500035E-1,1.492167569E1
5.757622130E-1,-5.974050522E0,1.378200054E1,-1.759500057E-1,1.502210960E1
5.777248870E-1,-6.051000118E0,1.385895061E1,-6.739500165E-1,1.513734862E1
5.796876720E-1,-5.974050522E0,1.408905029E1,-1.018950105E0,1.533717305E1
5.816504240E-1,-5.898000240E0,1.431900024E1,-1.171950102E0,1.553041023E1
5.836133760E-1,-5.629050255E0,1.439595032E1,-1.057050109E0,1.549344853E1
5.855762700E-1,-5.476050377E0,1.451100063E1,-8.659500480E-1,1.553403156E1
5.875393090E-1,-5.245950222E0,1.489395046E1,-7.510500550E-1,1.580866314E1
5.895023230E-1,-5.169000149E0,1.527705097E1,-6.360000372E-1,1.614036384E1
5.914650510E-1,-5.016000271E0,1.566000080E1,-5.209500194E-1,1.645196866E1
5.934278630E-1,-4.786050320E0,1.577505112E1,-2.520000041E-1,1.648702579E1
5.953908050E-1,-4.594050407E0,1.585200119E1,-2.910000086E-1,1.650684470E1
5.973537080E-1,-4.518000126E0,1.592895031E1,-3.289500177E-1,1.656055528E1
5.993165090E-1,-4.402950287E0,1.588995075E1,-2.520000041E-1,1.649060369E1
6.012793340E-1,-4.326000214E0,1.596705055E1,-6.105000153E-2,1.654281440E1
6.032420480E-1,-4.363950253E0,1.588995075E1,1.500000060E-2,1.647831368E1
6.052047950E-1,-4.326000214E0,1.573695087E1,2.070000172E-1,1.632203265E1
6.071670280E-1,-4.249050140E0,1.550700092E1,2.830500007E-1,1.608109518E1
6.091294110E-1,-3.981000185E0,1.523895073E1,3.979500234E-1,1.575539101E1
6.110924610E-1,-3.675000191E0,1.493205070E1,9.349500537E-1,1.540603441E1
6.130553220E-1,-3.253050089E0,1.477905083E1,1.471050024E0,1.520416609E1
6.150187960E-1,-2.985000134E0,1.462605095E1,1.471050024E0,1.499985268E1
6.169820910E-1,-2.332950115E0,1.428105068E1,1.510050058E0,1.454892835E1
6.189456710E-1,-1.528050065E0,1.382100105E1,1.816050053E0,1.402330364E1
6.209091680E-1,-8.770500422E-1,1.328400040E1,2.161050081E0,1.348717987E1
6.228722850E-1,-2.250000089E-1,1.282395077E1,2.314950228E0,1.303316281E1
6.248355310E-1,2.719500065E-1,1.232595062E1,2.583000183E0,1.259662278E1
6.267991190E-1,1.192050099E0,1.167405033E1,2.928000212E0,1.209452851E1
6.287626060E-1,2.035050154E0,1.106100082E1,3.310950041E0,1.172388837E1
6.307256580E-1,2.725050211E0,1.052505016E1,3.426000118E0,1.139912525E1
6.326888380E-1,3.415050268E0,9.949950218E0,3.579000235E0,1.111185495E1
6.346519980E-1,3.952050209E0,9.490050316E0,3.771000147E0,1.094989488E1
6.366151870E-1,4.488000393E0,8.800050735E0,4.116000175E0,1.070161193E1
6.385782460E-1,4.909950256E0,8.224950790E0,4.768050194E0,1.070008083E1
6.405413430E-1,5.215950012E0,7.650000572E0,5.457000256E0,1.074744133E1
6.425045950E-1,5.254950047E0,7.189950466E0,6.070950508E0,1.077804842E1
6.444678020E-1,5.370000362E0,6.654000282E0,6.568950176E0,1.078256602E1
6.464305530E-1,5.523000240E0,6.001950264E0,6.492000103E0,1.042463448E1
6.483934300E-1,5.715000153E0,5.274000168E0,5.917050362E0,9.771785379E0
6.503563600E-1,6.021000385E0,4.660050392E0,5.227050304E0,9.235289394E0
6.523192740E-1,6.328050137E0,4.047000408E0,4.576050282E0,8.795604983E0
6.542825590E-1,6.750000477E0,3.280950069E0,3.886050224E0,8.451539868E0
6.562457360E-1,7.095000267E0,2.590950012E0,3.426000118E0,8.293945235E0
6.582087470E-1,7.401000500E0,1.939050078E0,3.579000235E0,8.446535756E0
6.601718100E-1,7.554000378E0,1.326000094E0,3.924000263E0,8.615043588E0
6.621350680E-1,7.593000412E0,8.280000687E-1,4.269000053E0,8.750062904E0
6.640982690E-1,7.438950539E0,3.289500177E-1,4.614000320E0,8.759862567E0
6.660624510E-1,7.210050106E0,-9.105000645E-2,4.959000111E0,8.751273892E0
6.680263460E-1,6.940950394E0,-3.210000098E-1,5.341950417E0,8.764489011E0
6.699891080E-1,6.634950161E0,-7.039500475E-1,5.304000378E0,8.523527985E0
6.719521990E-1,6.250950336E0,-1.164000034E0,5.112000465E0,8.158543065E0
6.739150930E-1,5.715000153E0,-1.471050024E0,4.729050159E0,7.562349524E0
6.758780450E-1,5.101050377E0,-1.816050053E0,4.192950249E0,6.848327134E0
6.778411420E-1,4.603050232E0,-2.351999998E0,3.541050196E0,6.265701231E0
6.798041970E-1,4.066950321E0,-2.697000027E0,3.004050255E0,5.730463506E0
6.817674910E-1,3.645000219E0,-3.081000090E0,2.545050144E0,5.408869419E0
6.837306920E-1,3.376950264E0,-3.426000118E0,2.275950193E0,5.321768426E0
6.856938840E-1,3.147000074E0,-3.771000147E0,2.275950193E0,5.413316992E0
6.876570780E-1,2.878050089E0,-4.039050102E0,2.238000154E0,5.441115946E0
6.896204950E-1,2.686950207E0,-4.231050014E0,2.353049994E0,5.536996470E0
6.915838460E-1,2.533950090E0,-4.614000320E0,2.314950228E0,5.750556197E0
6.935465320E-1,2.380050182E0,-4.920000076E0,2.200050116E0,5.891626272E0
6.955094340E-1,2.265000105E0,-5.188950062E0,2.085000038E0,6.033461144E0
6.974724950E-1,2.149950027E0,-5.457000256E0,1.816050053E0,6.139965367E0
6.994355090E-1,1.996950150E0,-5.764050484E0,1.624950051E0,6.312887655E0
7.013984630E-1,1.882050037E0,-6.070050240E0,1.510050058E0,6.532065021E0
7.033614340E-1,1.651950121E0,-6.339000225E0,1.395000100E0,6.697603178E0
7.053241680E-1,1.459950089E0,-6.607050419E0,1.165050030E0,6.865996728E0
7.072869720E-1,1.269000053E0,-6.837000370E0,9.730500579E-1,7.021521317E0
7.092497350E-1,1.000050068E0,-6.990000248E0,7.810500264E-1,7.104241180E0
7.112125110E-1,6.550500393E-1,-7.027950287E0,8.580000401E-1,7.110368475E0
7.131743330E-1,3.109500110E-1,-7.066950321E0,8.580000401E-1,7.125632661E0
7.151364340E-1,-3.299999982E-2,-7.066950321E0,9.730500579E-1,7.133701862E0
7.170995170E-1,-3.780000210E-1,-6.952050209E0,1.011000037E0,7.035339878E0
7.190622980E-1,-6.850500107E-1,-6.798000336E0,1.087950110E0,6.918506885E0
7.210251110E-1,-8.770500422E-1,-6.529950142E0,1.126049995E0,6.684119555E0
7.229879140E-1,-1.068000078E0,-6.300000191E0,1.126049995E0,6.488344563E0
7.249509930E-1,-1.106999993E0,-5.994000435E0,1.050000072E0,6.185142710E0
7.269139910E-1,-1.030050039E0,-5.725050449E0,1.050000072E0,5.910981804E0
7.288769030E-1,-9.150000215E-1,-5.341950417E0,1.165050030E0,5.543554894E0
7.308398720E-1,-6.469500065E-1,-4.920000076E0,1.318050027E0,5.134413397E0
7.328029660E-1,-3.400500119E-1,-4.537050247E0,1.395000100E0,4.758832234E0
7.347660230E-1,-3.299999982E-2,-4.153950214E0,1.432950020E0,4.394284600E0
7.367292390E-1,1.960500032E-1,-3.694050074E0,1.432950020E0,3.967088014E0
7.386924080E-1,5.020500422E-1,-3.196050167E0,1.471050024E0,3.553980738E0
7.406560250E-1,8.470500112E-1,-2.736000061E0,1.471050024E0,3.219810278E0
7.426195000E-1,1.114950061E0,-2.428950071E0,1.471050024E0,3.050721269E0
7.445821940E-1,1.384050012E0,-2.083950043E0,1.471050024E0,2.902142379E0
7.465451170E-1,1.575000048E0,-1.816050053E0,1.471050024E0,2.818270945E0
7.485079950E-1,1.882050037E0,-1.471050024E0,1.471050024E0,2.805367835E0
7.504708870E-1,2.149950027E0,-1.240950108E0,1.510050058E0,2.905596921E0
7.524338780E-1,2.341950178E0,-9.340500236E-1,1.585950017E0,2.978660360E0
7.543968270E-1,2.533950090E0,-5.890500546E-1,1.701000094E0,3.108260663E0
7.563597470E-1,2.649000168E0,-2.059500068E-1,1.816050053E0,3.218331103E0
7.583226750E-1,2.802000046E0,-5.295000225E-2,1.893000126E0,3.381931022E0
7.602846960E-1,3.031950235E0,9.900000691E-2,1.930950046E0,3.595982663E0
7.622469830E-1,3.147000074E0,4.060500264E-1,1.969950080E0,3.734861364E0
7.642103530E-1,3.337950230E0,6.360000372E-1,1.855050087E0,3.871384585E0
7.661733890E-1,3.568050146E0,9.040500522E-1,1.701000094E0,4.054835344E0
7.681361140E-1,3.760050297E0,1.057950020E0,1.432950020E0,4.160598784E0
7.700989300E-1,3.990000248E0,1.288050056E0,1.240950108E0,4.372542978E0
7.720629970E-1,4.297049999E0,1.518000126E0,7.810500264E-1,4.623743313E0
7.740266970E-1,4.450050354E0,1.671000123E0,2.070000172E-1,4.757944784E0
7.759895120E-1,4.564949989E0,1.900950074E0,-4.440000355E-1,4.964827854E0
7.779525690E-1,4.756950378E0,2.131050110E0,-1.018950105E0,5.311140253E0
7.799154690E-1,5.101050377E0,2.245950222E0,-1.786050081E0,5.852775601E0
7.818784150E-1,5.446050167E0,2.322000027E0,-2.590050220E0,6.462159600E0
7.838411090E-1,5.715000153E0,2.476050138E0,-3.357000113E0,7.075415238E0
7.858038770E-1,5.905950069E0,2.743950129E0,-3.855000257E0,7.567729879E0
7.877672160E-1,6.060000420E0,3.127050161E0,-4.009050369E0,7.910406605E0
7.897303980E-1,6.250950336E0,3.549000263E0,-3.357000113E0,7.933425032E0
7.916930980E-1,6.481050491E0,4.123950005E0,-1.977000117E0,7.932181829E0
7.936559390E-1,6.711000443E0,4.621950150E0,-3.670500219E-1,8.156879050E0
7.956183350E-1,6.750000477E0,5.158950329E0,2.008050203E0,8.729807590E0
7.975808620E-1,6.750000477E0,5.772000313E0,4.576050282E0,9.990932400E0
7.995444040E-1,6.634950161E0,6.538950443E0,7.029000282E0,1.166993066E1
8.015076400E-1,6.481050491E0,7.305000305E0,8.944950104E0,1.324308035E1
8.034706910E-1,6.097950459E0,8.302050591E0,1.032495022E1,1.458470572E1
8.054337960E-1,5.676000118E0,9.298050880E0,1.113000011E1,1.557394074E1
8.073968680E-1,5.254950047E0,1.060095024E1,1.116795063E1,1.627014958E1
8.093599500E-1,5.025000095E0,1.213395023E1,9.558000565E0,1.624311390E1
8.113229760E-1,4.680000305E0,1.366695023E1,7.872000217E0,1.645163575E1
8.132860220E-1,4.297049999E0,1.485600090E1,5.686950207E0,1.647746352E1
8.152498240E-1,3.721950293E0,1.604400063E1,3.157950163E0,1.677007809E1
8.172134040E-1,2.955000162E0,1.726995087E1,2.070000172E-1,1.752215962E1
8.191757200E-1,1.843950033E0,1.838205147E1,-3.739950180E0,1.884906351E1
8.211384060E-1,3.490500152E-1,2.010600090E1,-7.765050411E0,2.155618510E1
8.231015040E-1,-1.873050094E0,2.229105186E1,-1.121400070E1,2.502305180E1
8.250644810E-1,-4.402950287E0,2.432295036E1,-1.393500042E1,2.837562550E1
8.270275750E-1,-6.472050190E0,2.639205170E1,-1.519995117E1,3.113625446E1
8.289906350E-1,-8.887050629E0,2.899800110E1,-1.519995117E1,3.392495029E1
8.309535360E-1,-1.130205059E1,3.198795128E1,-1.458705044E1,3.692895091E1
8.329164830E-1,-1.333305073E1,3.539895248E1,-1.362900066E1,4.020703592E1
8.348793920E-1,-1.517295074E1,3.911700058E1,-1.190400028E1,4.361265174E1
8.368423190E-1,-1.647599983E1,4.260495377E1,-9.528000832E0,4.666287020E1
8.388052860E-1,-1.747200012E1,4.601595306E1,-7.765050411E0,4.983005852E1
8.407682410E-1,-1.843095016E1,4.873695374E1,-8.032950401E0,5.272114259E1
8.427311600E-1,-1.908195114E1,5.042400360E1,-9.412950516E0,5.472937635E1
8.446940890E-1,-1.927395058E1,5.130495071E1,-1.132905006E1,5.596454694E1
8.466575470E-1,-1.862205124E1,5.122905350E1,-1.209600067E1,5.583466617E1
8.486208520E-1,-1.743405151E1,5.053905106E1,-1.178895092E1,5.474596969E1
8.505842050E-1,-1.597800064E1,4.877595139E1,-1.167405033E1,5.263718637E1
8.525475440E-1,-1.452105045E1,4.651395035E1,-1.175100040E1,5.012478921E1
8.545106220E-1,-1.310295105E1,4.367805099E1,-1.178895092E1,4.710030604E1
8.564737770E-1,-1.172295094E1,4.057305145E1,-1.171200085E1,4.382660204E1
8.584369700E-1,-1.038195038E1,3.743100357E1,-1.163595009E1,4.054947911E1
8.604001550E-1,-8.925000191E0,3.432600021E1,-1.136700058E1,3.724430992E1
8.623628990E-1,-7.621950150E0,3.145095062E1,-1.132905006E1,3.428707912E1
8.643257720E-1,-6.586950302E0,2.907495117E1,-1.106100082E1,3.179758543E1
8.662888830E-1,-5.590950489E0,2.696700096E1,-1.086900043E1,2.960765169E1
8.682519240E-1,-4.363950253E0,2.512695122E1,-1.117605019E1,2.784442201E1
8.702149240E-1,-3.367950201E0,2.347905159E1,-1.144395065E1,2.633577336E1
8.721779640E-1,-2.485950232E0,2.213805199E1,-1.163595009E1,2.513301870E1
8.741410460E-1,-1.452000022E0,2.102595139E1,-1.194195080E1,2.422414342E1
8.761041160E-1,-8.380500674E-1,1.987695122E1,-1.182705021E1,2.314464591E1
8.780673740E-1,-2.629500031E-1,1.891800117E1,-1.209600067E1,2.245602688E1
8.800305770E-1,5.020500422E-1,1.807500076E1,-1.232595062E1,2.188348157E1
8.819943730E-1,1.230000019E0,1.742400169E1,-1.240200043E1,2.142237965E1
8.839579810E-1,1.804950118E0,1.684905052E1,-1.270905018E1,2.118179182E1
8.859210130E-1,2.341950178E0,1.642695045E1,-1.290105057E1,2.101824297E1
8.878842140E-1,2.917050123E0,1.577505112E1,-1.282395077E1,2.053813849E1
8.898474040E-1,3.031950235E0,1.497105026E1,-1.278600025E1,1.992001181E1
8.918105980E-1,3.300000191E0,1.428105068E1,-1.270905018E1,1.939995789E1
8.937736600E-1,3.529950142E0,1.378200054E1,-1.278600025E1,1.912814391E1
8.957367570E-1,3.913050175E0,1.339905071E1,-1.270905018E1,1.887767142E1
8.976996500E-1,4.182000160E0,1.339905071E1,-1.244100094E1,1.875639064E1
8.996626030E-1,4.143000126E0,1.316895103E1,-1.167405033E1,1.807952357E1
9.016255650E-1,3.568050146E0,1.255605030E1,-1.083105087E1,1.696163447E1
9.035885240E-1,3.376950264E0,1.175100040E1,-9.988050461E0,1.578768367E1
9.055514230E-1,3.147000074E0,1.098495007E1,-9.336000443E0,1.475580027E1
9.075143540E-1,2.917050123E0,1.033305073E1,-8.608050346E0,1.376152788E1
9.094772760E-1,2.649000168E0,9.910950661E0,-7.342950344E0,1.261598449E1
9.114402000E-1,2.686950207E0,9.565950394E0,-6.040050507E0,1.162795418E1
9.134030780E-1,2.304000139E0,8.838000298E0,-5.082000256E0,1.045205207E1
9.153659690E-1,2.035050154E0,8.110050201E0,-4.966950417E0,9.725478900E0
9.173290910E-1,2.188950062E0,7.612050533E0,-4.545000076E0,9.131913348E0
9.192921350E-1,2.380050182E0,7.189950466E0,-4.162050247E0,8.641914651E0
9.212552630E-1,2.878050089E0,6.922050476E0,-3.970050097E0,8.482879987E0
9.232183660E-1,3.147000074E0,6.730050087E0,-3.855000257E0,8.370078293E0
9.251812140E-1,3.337950230E0,6.577050209E0,-3.739950180E0,8.269626868E0
9.271441370E-1,3.492000103E0,6.309000492E0,-3.855000257E0,8.176709541E0
9.291071040E-1,3.453000069E0,5.925000191E0,-3.739950180E0,7.811278006E0
9.310700580E-1,3.492000103E0,5.542050362E0,-3.664050102E0,7.505574600E0
9.330329320E-1,3.607050180E0,5.197050095E0,-3.472050190E0,7.216319922E0
9.349958290E-1,3.874950171E0,4.736999989E0,-3.127050161E0,6.872615981E0
9.369582610E-1,4.066950321E0,4.162050247E0,-2.820000172E0,6.466463341E0
9.389208290E-1,3.874950171E0,3.664050102E0,-2.551950216E0,5.912102154E0
9.408838020E-1,3.337950230E0,3.204000235E0,-2.169000149E0,5.109999108E0
9.428466630E-1,3.568050146E0,2.514000177E0,-1.824000120E0,4.730555483E0
9.448097770E-1,4.105050087E0,1.978050113E0,-1.441050053E0,4.779199067E0
9.467728170E-1,4.833000183E0,1.402950048E0,-1.057050109E0,5.142325791E0
9.487359000E-1,5.370000362E0,1.018950105E0,-7.890000343E-1,5.522470848E0
9.506989710E-1,5.446050167E0,6.360000372E-1,-5.970000029E-1,5.515466206E0
9.526612800E-1,5.101050377E0,4.060500264E-1,1.500000060E-2,5.117207888E0
9.546238150E-1,4.411950111E0,1.380000114E-1,5.130000114E-1,4.443817818E0
9.565877500E-1,3.913050175E0,-1.290000081E-1,8.580000401E-1,4.008087666E0
9.585512750E-1,3.645000219E0,-2.440500110E-1,1.203000069E0,3.846140425E0
9.605142310E-1,4.027950287E0,-7.039500475E-1,1.395000100E0,4.320411377E0
9.624773540E-1,5.293050289E0,-1.011000037E0,1.740000129E0,5.662693960E0
9.644404230E-1,5.293050289E0,-1.011000037E0,2.391000032E0,5.895369674E0
9.664035080E-1,4.603050232E0,-1.011000037E0,2.889000177E0,5.527794726E0
9.683664480E-1,4.105050087E0,-1.087950110E0,3.196050167E0,5.315054876E0
9.703294310E-1,3.492000103E0,-1.203000069E0,3.655950069E0,5.196849507E0
9.722924780E-1,3.184950113E0,-1.318050027E0,4.231050014E0,5.457375498E0
9.742555060E-1,2.802000046E0,-1.471050024E0,4.690950394E0,5.658640122E0
9.762187750E-1,2.419050217E0,-1.548000097E0,4.996950150E0,5.763472829E0
9.781819710E-1,2.149950027E0,-1.777950048E0,5.188950062E0,5.891400024E0
9.801450740E-1,2.111999989E0,-2.008050203E0,5.533950329E0,6.254391722E0
9.821082040E-1,1.804950118E0,-2.275950193E0,5.725950241E0,6.420615265E0
9.840712270E-1,1.690050125E0,-2.428950071E0,5.917050362E0,6.615705016E0
9.860342810E-1,1.729050040E0,-2.851050138E0,5.878950119E0,6.758709598E0
9.879975910E-1,1.651950121E0,-3.157050133E0,5.725950241E0,6.744064865E0
9.899608220E-1,1.575000048E0,-3.310950041E0,5.457000256E0,6.574333967E0
9.919240090E-1,1.498950124E0,-3.463950157E0,5.112000465E0,6.354396189E0
9.938872090E-1,1.384050012E0,-3.771000147E0,4.729050159E0,6.204832951E0
9.958501290E-1,1.345050097E0,-3.924000263E0,4.384050369E0,6.035464810E0
9.978131320E-1,1.269000053E0,-4.039050102E0,4.153950214E0,5.931238424E0
9.997762260E-1,1.153950095E0,-4.077000141E0,3.924000263E0,5.775059224E0
1.001739289E0,9.619500637E-1,-4.077000141E0,3.694050074E0,5.585094809E0
1.003701648E0,5.790000558E-1,-3.924000263E0,3.426000118E0,5.241230384E0
1.005664214E0,1.960500032E-1,-3.732000113E0,3.310950041E0,4.992859964E0
1.007627693E0,-2.629500031E-1,-3.463950157E0,3.157950163E0,4.694756929E0
1.009590904E0,-6.079500318E-1,-3.157050133E0,3.004050255E0,4.400100762E0
1.011554047E0,-1.068000078E0,-2.773950100E0,3.004050255E0,4.226078709E0
1.013517180E0,-1.605000019E0,-2.391000032E0,3.081000090E0,4.217282036E0
1.015480607E0,-1.987950087E0,-1.930950046E0,3.157950163E0,4.201566715E0
1.017443947E0,-2.410050154E0,-1.471050024E0,3.349050045E0,4.380464144E0
1.019406935E0,-2.640000105E0,-1.126049995E0,3.541050196E0,4.558138396E0
1.021370026E0,-2.640000105E0,-6.660000086E-1,3.847950220E0,4.713796502E0
1.023332979E0,-2.295000076E0,-4.740000367E-1,4.000950336E0,4.636734301E0
1.025295963E0,-1.605000019E0,-7.810500264E-1,3.963000298E0,4.346427908E0
1.027258515E0,-1.030050039E0,-1.011000037E0,3.924000263E0,4.181016889E0
1.029221194E0,-6.850500107E-1,-9.730500579E-1,4.000950336E0,4.174173394E0
1.031184338E0,-5.320500135E-1,-9.340500236E-1,4.078050137E0,4.217347458E0
1.033147346E0,-1.870500147E-1,-1.126049995E0,4.153950214E0,4.307932066E0
1.035110575E0,8.100000024E-2,-1.164000034E0,4.345950127E0,4.499859952E0
1.037073736E0,3.490500152E-1,-1.164000034E0,4.308000088E0,4.476114023E0
1.039037519E0,6.550500393E-1,-1.164000034E0,4.308000088E0,4.510305022E0
1.041001120E0,9.619500637E-1,-1.203000069E0,4.269000053E0,4.538382812E0
1.042963973E0,1.192050099E0,-1.203000069E0,4.116000175E0,4.450803304E0
1.044927045E0,1.306950092E0,-1.279050112E0,3.886050224E0,4.294819447E0
1.046889754E0,1.459950089E0,-1.318050027E0,3.618000269E0,4.118086459E0
1.048852575E0,1.729050040E0,-1.432950020E0,3.273000240E0,3.969318628E0
1.050815695E0,1.882050037E0,-1.471050024E0,2.773950100E0,3.660723928E0
1.052778727E0,1.920000076E0,-1.509000063E0,2.200050116E0,3.286898537E0
1.054741992E0,1.882050037E0,-1.585950017E0,1.624950051E0,2.949205396E0
1.056705188E0,1.804950118E0,-1.663050056E0,1.203000069E0,2.733274516E0
1.058669009E0,1.843950033E0,-1.624050021E0,5.130000114E-1,2.510151232E0
1.060632616E0,1.767000079E0,-1.701000094E0,-2.140500098E-1,2.462012999E0
1.062595738E0,1.804950118E0,-1.738950133E0,-1.057050109E0,2.720137391E0
1.064559002E0,1.843950033E0,-1.624050021E0,-1.900950074E0,3.106654371E0
1.066522047E0,1.996950150E0,-1.509000063E0,-2.743950129E0,3.714048115E0
1.068485156E0,1.959000111E0,-1.356000066E0,-3.549000263E0,4.274555004E0
1.070448222E0,1.920000076E0,-1.164000034E0,-4.237950325E0,4.795989922E0
1.072411305E0,1.804950118E0,-9.730500579E-1,-4.736999989E0,5.161767162E0
1.074374200E0,1.651950121E0,-7.039500475E-1,-5.158050060E0,5.461681545E0
1.076337151E0,1.498950124E0,-3.979500234E-1,-5.350050449E0,5.570301204E0
1.078299168E0,1.345050097E0,-1.290000081E-1,-5.464950085E0,5.629518647E0
1.080261459E0,1.153950095E0,6.105000153E-2,-5.427000046E0,5.548662670E0
1.082223782E0,9.240000248E-1,4.060500264E-1,-5.388000488E0,5.481715236E0
1.084186086E0,5.410500169E-1,9.040500522E-1,-4.890000343E0,5.002214007E0
1.086148981E0,1.570500135E-1,1.249050021E0,-4.315050125E0,4.494935844E0
1.088111702E0,-1.870500147E-1,1.786050081E0,-3.394950151E0,3.840657383E0
1.090074840E0,-6.469500065E-1,2.284050226E0,-2.245050192E0,3.267365929E0
1.092037856E0,-1.106999993E0,2.743950129E0,-8.269500136E-1,3.072223563E0
1.094000048E0,-1.489950061E0,3.241950035E0,8.200500607E-1,3.660966172E0
1.095962478E0,-1.911000133E0,3.625950098E0,2.506050110E0,4.804136007E0
1.097925800E0,-2.218050003E0,4.047000408E0,4.231050014E0,6.260969761E0
1.099888861E0,-2.485950232E0,4.431000233E0,5.956050396E0,7.828681111E0
1.101852346E0,-2.716050148E0,4.813950062E0,7.719000340E0,9.493893292E0
1.103815707E0,-3.061050177E0,5.197050095E0,9.405000687E0,1.117288664E1
1.105778881E0,-3.175950050E0,5.580000401E0,1.093800068E1,1.268317476E1
1.107742103E0,-3.253050089E0,6.001950264E0,1.224105072E1,1.401602885E1
1.109705155E0,-3.175950050E0,6.499950409E0,1.342995071E1,1.525449410E1
1.111668257E0,-3.061050177E0,7.189950466E0,1.427295113E1,1.627214029E1
1.113631554E0,-2.830950022E0,8.071949959E0,1.427295113E1,1.663994555E1
1.115594794E0,-2.524950027E0,9.106050491E0,1.354500103E1,1.651552546E1
1.117557784E0,-1.795950055E0,1.044795036E1,1.208805084E1,1.607812416E1
1.119520858E0,-8.770500422E-1,1.198095036E1,9.520050049E0,1.532787464E1
1.121484655E0,2.719500065E-1,1.366695023E1,6.070950508E0,1.495713627E1
1.123448240E0,1.384050012E0,1.539195061E1,2.314950228E0,1.562647537E1
1.125412131E0,2.341950178E0,1.730895042E1,-1.096050024E0,1.750102343E1
1.127375933E0,2.917050123E0,1.945500183E1,-4.660050392E0,2.021688273E1
1.129339271E0,2.572050095E0,2.221500015E1,-8.416049957E0,2.389459291E1
1.131302728E0,1.575000048E0,2.531895065E1,-1.175100040E1,2.795739433E1
1.133266100E0,1.114950061E0,2.842395210E1,-1.439505100E1,3.188074121E1
1.135229497E0,1.230000019E0,3.106800079E1,-1.588995075E1,3.491738977E1
1.137192879E0,1.614000082E0,3.325305176E1,-1.635000038E1,3.709033513E1
1.139156266E0,2.494950056E0,3.509295273E1,-1.554495049E1,3.846278191E1
1.141119300E0,3.453000069E0,3.666405106E1,-1.378200054E1,3.932072467E1
1.143082430E0,4.756950378E0,3.754605103E1,-1.136700058E1,3.951636657E1
1.145045138E0,6.175050259E0,3.808200073E1,-8.608050346E0,3.952807301E1
1.147007969E0,7.516050339E0,3.781395340E1,-6.001950264E0,3.901806622E1
1.148971267E0,7.861050606E0,3.674100113E1,-3.778950214E0,3.776212051E1
1.150934428E0,6.940950394E0,3.459405136E1,-1.861950040E0,3.533259175E1
1.152896567E0,5.254950047E0,3.160500145E1,5.295000225E-2,3.203893600E1
1.154859022E0,3.337950230E0,2.834700203E1,1.240950108E0,2.856981612E1
1.156820989E0,1.651950121E0,2.505105209E1,1.471050024E0,2.514852159E1
1.158783099E0,3.870000243E-1,2.232900047E1,9.730500579E-1,2.235354239E1
1.160746836E0,-7.230000496E-1,2.014500046E1,-9.900000691E-2,2.015821355E1
1.162710097E0,-1.681950092E0,1.838205147E1,-1.441050053E0,1.851500466E1
1.164673133E0,-2.371050119E0,1.704000092E1,-2.896950245E0,1.744637013E1
1.166636242E0,-3.022950172E0,1.596705055E1,-4.507050037E0,1.686411667E1
1.168599358E0,-3.445050240E0,1.523895073E1,-5.809950352E0,1.666881860E1
1.170562471E0,-3.520950079E0,1.481700039E1,-6.615000248E0,1.660418075E1
1.172525677E0,-3.330000162E0,1.470195103E1,-7.075050354E0,1.665210505E1
1.174488856E0,-2.908050060E0,1.481700039E1,-7.036050320E0,1.665851914E1
1.176451907E0,-2.371050119E0,1.516200066E1,-6.691050529E0,1.674151426E1
1.178415002E0,-2.103000164E0,1.566000080E1,-6.078000069E0,1.692927404E1
1.180378076E0,-2.218050003E0,1.612005043E1,-5.119950294E0,1.705841912E1
1.182341156E0,-2.448000193E0,1.677195168E1,-3.894000292E0,1.739121348E1
1.184303872E0,-2.908050060E0,1.734705162E1,-3.165000200E0,1.787160265E1
1.186266694E0,-3.330000162E0,1.780695152E1,-2.859000206E0,1.833985566E1
1.188230169E0,-3.751050234E0,1.815195084E1,-3.127050161E0,1.879739715E1
1.190193456E0,-4.134000301E0,1.842000008E1,-3.739950180E0,1.924509259E1
1.192156363E0,-4.555950165E0,1.868805122E1,-4.468050003E0,1.974749127E1
1.194119381E0,-4.786050320E0,1.891800117E1,-5.311950207E0,2.022409111E1
1.196082647E0,-4.978050232E0,1.907205009E1,-5.962950230E0,2.059322351E1
1.198045841E0,-5.245950222E0,1.903305054E1,-6.960000515E0,2.093367177E1
1.200009068E0,-5.706000328E0,1.888005066E1,-7.650000572E0,2.115507649E1
1.201972292E0,-6.817050457E0,1.853505135E1,-7.918050289E0,2.127711977E1
1.203935480E0,-7.546050549E0,1.834305000E1,-7.879950523E0,2.134253927E1
1.205898679E0,-8.044050217E0,1.792200089E1,-7.495950222E0,2.102603456E1
1.207862094E0,-8.311950684E0,1.761495018E1,-7.150950432E0,2.074876107E1
1.209825446E0,-8.311950684E0,1.734705162E1,-6.805950165E0,2.040415844E1
1.211788702E0,-8.311950684E0,1.711695099E1,-6.499950409E0,2.010790617E1
1.213751987E0,-8.311950684E0,1.696395111E1,-6.385050297E0,1.994073792E1
1.215715342E0,-8.121000290E0,1.681005096E1,-6.270000458E0,1.969368845E1
1.217678677E0,-8.044050217E0,1.673400116E1,-5.887050152E0,1.947795929E1
1.219641891E0,-7.929000378E0,1.669500160E1,-5.388000488E0,1.925156292E1
1.221605141E0,-7.966950417E0,1.681005096E1,-4.927950382E0,1.924408500E1
1.223568174E0,-8.044050217E0,1.711695099E1,-4.852050304E0,1.952534628E1
1.225531280E0,-8.350950241E0,1.753905106E1,-5.005050182E0,2.006008996E1
1.227494172E0,-8.734050751E0,1.799805069E1,-5.082000256E0,2.064074121E1
1.229457127E0,-8.925000191E0,1.853505135E1,-5.235000134E0,2.122755245E1
1.231419909E0,-9.079050064E0,1.907205009E1,-5.235000134E0,2.176183520E1
1.233382742E0,-9.232050896E0,1.933995056E1,-5.043000221E0,2.201581937E1
1.235345879E0,-9.462000847E0,1.968495178E1,-4.890000343E0,2.238166415E1
1.237308913E0,-9.538950920E0,2.006805038E1,-4.736999989E0,2.271909769E1
1.239271952E0,-9.499950409E0,2.037495041E1,-4.315050125E0,2.289120616E1
1.241234990E0,-9.730050087E0,2.087295151E1,-3.817050219E0,2.334360409E1
1.243197939E0,-9.844950676E0,2.125605011E1,-3.204000235E0,2.364335716E1
1.245160915E0,-9.769050598E0,2.152500153E1,-2.514000177E0,2.377141639E1
1.247123839E0,-9.615000725E0,2.179305077E1,-2.014950037E0,2.390492260E1
1.249086771E0,-9.462000847E0,2.194605064E1,-1.363950014E0,2.393781441E1
1.251049647E0,-9.040050507E0,2.179305077E1,-1.018950105E0,2.361562691E1
1.253012540E0,-8.503950119E0,2.175495148E1,-8.659500480E-1,2.337402299E1
1.254975512E0,-7.891050339E0,2.144805145E1,-8.659500480E-1,2.287001216E1
1.256938461E0,-7.276950359E0,2.095005035E1,-6.360000372E-1,2.218700323E1
1.258901534E0,-6.970950127E0,2.029800034E1,-2.140500098E-1,2.146273004E1
1.260864557E0,-6.511050224E0,1.941705132E1,9.195000678E-2,2.047984647E1
1.262827509E0,-6.280950069E0,1.845795059E1,1.300500035E-1,1.949777389E1
1.264790482E0,-6.166050434E0,1.761495018E1,2.830500007E-1,1.866512162E1
1.266753711E0,-5.935950279E0,1.654200172E1,5.295000225E-2,1.757487213E1
1.268716865E0,-5.668050289E0,1.558395100E1,-1.759500057E-1,1.658364499E1
1.270679955E0,-5.361000061E0,1.454895115E1,-4.440000355E-1,1.551159042E1
1.272643078E0,-4.978050232E0,1.351395035E1,-5.970000029E-1,1.441402952E1
1.274606281E0,-4.633050442E0,1.240305042E1,-6.360000372E-1,1.325538805E1
1.276569460E0,-4.518000126E0,1.155900097E1,-4.060500264E-1,1.241723420E1
1.278531980E0,-4.479000092E0,1.090800095E1,1.500000060E-2,1.179178322E1
1.280494693E0,-4.326000214E0,1.033305073E1,7.429500222E-1,1.122667315E1
1.282457862E0,-4.134000301E0,9.873000145E0,1.395000100E0,1.079407780E1
1.284420908E0,-3.981000185E0,9.375000000E0,1.510050058E0,1.029656441E1
1.286384171E0,-3.712950230E0,8.761950493E0,1.548000097E0,9.641269634E0
1.288347370E0,-3.598050117E0,8.263050079E0,1.548000097E0,9.144411712E0
1.290310606E0,-3.445050240E0,7.687950134E0,1.395000100E0,8.539260723E0
1.292273831E0,-3.175950050E0,7.075050354E0,1.126049995E0,7.836516115E0
1.294236698E0,-2.830950022E0,6.577050209E0,8.580000401E-1,7.211659417E0
1.296199674E0,-2.295000076E0,6.154950142E0,7.810500264E-1,6.615170122E0
1.298162903E0,-1.834950089E0,5.809950352E0,1.165050030E0,6.203217431E0
1.300126057E0,-1.222050071E0,5.350050449E0,1.969950080E0,5.830707462E0
1.302089526E0,-6.850500107E-1,5.158950329E0,3.118950129E0,6.067282086E0
1.304052903E0,-2.629500031E-1,5.119950294E0,4.308000088E0,6.696409372E0
1.306016424E0,1.570500135E-1,5.158950329E0,4.921050072E0,7.131350995E0
1.307979903E0,5.410500169E-1,5.158950329E0,4.959000111E0,7.176293313E0
1.309943992E0,1.230000019E0,5.119950294E0,4.308000088E0,6.803356217E0
1.311907903E0,1.804950118E0,5.044050217E0,3.541050196E0,6.421785111E0
1.313870883E0,2.304000139E0,5.005050182E0,3.043050051E0,6.294370309E0
1.315834136E0,2.686950207E0,5.119950294E0,2.889000177E0,6.463738427E0
1.317797663E0,3.184950113E0,5.158950329E0,3.349050045E0,6.926385199E0
1.319761120E0,3.568050146E0,5.082000256E0,4.078050137E0,7.428876184E0
1.321724313E0,3.990000248E0,4.929000378E0,4.768050194E0,7.934068903E0
1.323687583E0,4.297049999E0,4.736999989E0,5.496000290E0,8.432664275E0
1.325650852E0,4.603050232E0,4.468950272E0,6.031950474E0,8.805907931E0
1.327614122E0,4.987050056E0,4.201050282E0,6.454050541E0,9.174653133E0
1.329577137E0,5.407950401E0,3.778950214E0,6.837000370E0,9.501103427E0
1.331540247E0,5.868000507E0,3.204000235E0,7.144050121E0,9.784503033E0
1.333503138E0,6.520050526E0,2.706000090E0,7.105050564E0,1.001574954E1
1.335466093E0,7.132950306E0,2.016000032E0,6.799050331E0,1.005834587E1
1.337429145E0,7.669050217E0,1.326000094E0,6.223950386E0,9.965448604E0
1.339392168E0,8.091000557E0,7.890000343E-1,5.611050129E0,9.877787941E0
1.341356039E0,8.512949944E0,1.759500057E-1,4.959000111E0,9.853575861E0
1.343319648E0,8.704050064E0,-1.680000126E-1,4.498950005E0,9.799452162E0
1.345282455E0,8.704050064E0,-3.979500234E-1,4.192950249E0,9.669523438E0
1.347245497E0,8.665950775E0,-7.039500475E-1,4.039050102E0,9.586875103E0
1.349208578E0,8.436000824E0,-9.730500579E-1,3.924000263E0,9.354716157E0
1.351171648E0,8.091000557E0,-1.203000069E0,4.039050102E0,9.122796989E0
1.353134736E0,7.708050251E0,-1.471050024E0,4.078050137E0,8.843558094E0
1.355097812E0,7.095000267E0,-1.854000092E0,4.153950214E0,8.428027498E0
1.357060889E0,6.558000088E0,-2.238000154E0,4.308000088E0,8.159342780E0
1.359023966E0,6.097950459E0,-2.506050110E0,4.384050369E0,7.917397589E0
1.360986999E0,5.599950314E0,-2.773950100E0,4.576050282E0,7.745610296E0
1.362950045E0,5.215950012E0,-3.157050133E0,4.423050404E0,7.532361844E0
1.364913097E0,4.795050144E0,-3.579000235E0,4.078050137E0,7.241011081E0
1.366876168E0,4.297049999E0,-3.847050190E0,3.808950186E0,6.911767891E0
1.368839112E0,3.990000248E0,-4.231050014E0,3.502950191E0,6.789149155E0
1.370802093E0,3.798000097E0,-4.537050247E0,3.273000240E0,6.761816343E0
1.372765366E0,3.721950293E0,-4.843950272E0,3.118950129E0,6.858907939E0
1.374728553E0,3.645000219E0,-5.149950027E0,2.928000212E0,6.955659359E0
1.376691770E0,3.607050180E0,-5.419050217E0,2.889000177E0,7.122024872E0
1.378654961E0,3.453000069E0,-5.686950207E0,2.965950251E0,7.284330650E0
1.380617659E0,3.300000191E0,-5.839950085E0,2.928000212E0,7.319030229E0
1.382580502E0,3.108000040E0,-5.955000401E0,2.889000177E0,7.312182714E0
1.384543798E0,2.992950201E0,-6.070050240E0,2.773950100E0,7.314236800E0
1.386506961E0,2.725050211E0,-6.070050240E0,2.467950106E0,7.096632038E0
1.388469849E0,2.533950090E0,-6.184950352E0,2.085000038E0,7.001552619E0
1.390432814E0,2.341950178E0,-6.339000225E0,1.740000129E0,6.978198545E0
1.392395909E0,2.188950062E0,-6.492000103E0,1.395000100E0,6.991680269E0
1.394358966E0,2.035050154E0,-6.645000458E0,1.011000037E0,7.022790135E0
1.396322768E0,1.920000076E0,-6.837000370E0,2.449500114E-1,7.105700167E0
1.398286351E0,1.882050037E0,-6.952050209E0,-2.910000086E-1,7.208175598E0
1.400249027E0,1.804950118E0,-7.066950321E0,-7.890000343E-1,7.336358281E0
1.402211968E0,1.651950121E0,-7.027950287E0,-1.096050024E0,7.302215424E0
1.404174708E0,1.575000048E0,-6.990000248E0,-1.287000060E0,7.279910561E0
1.406137507E0,1.690050125E0,-6.913050175E0,-1.402050018E0,7.253432043E0
1.408100405E0,1.651950121E0,-6.721950531E0,-1.287000060E0,7.040591403E0
1.410063274E0,1.651950121E0,-6.300000191E0,-9.420000315E-1,6.580752667E0
1.412026401E0,1.498950124E0,-5.764050484E0,-4.819500148E-1,5.975232654E0
1.413989442E0,1.384050012E0,-5.112000465E0,-1.759500057E-1,5.298971749E0
1.415952525E0,1.306950092E0,-4.498950005E0,5.295000225E-2,4.685239950E0
1.417915596E0,1.306950092E0,-4.000950336E0,2.449500114E-1,4.216126498E0
1.419877774E0,1.306950092E0,-3.463950157E0,4.750500321E-1,3.732658807E0
1.421840213E0,1.306950092E0,-3.042000055E0,6.660000086E-1,3.377193938E0
1.423803623E0,1.306950092E0,-2.506050110E0,7.429500222E-1,2.922392929E0
1.425766749E0,1.345050097E0,-2.046000004E0,9.349500537E-1,2.620955433E0
1.427729998E0,1.384050012E0,-1.738950133E0,9.349500537E-1,2.411156072E0
1.429693211E0,1.384050012E0,-1.356000066E0,9.349500537E-1,2.151386115E0
1.431656445E0,1.422000051E0,-1.087950110E0,1.011000037E0,2.056171360E0
1.433619673E0,1.459950089E0,-8.190000653E-1,1.087950110E0,1.996459570E0
1.435582505E0,1.384050012E0,-5.890500546E-1,1.203000069E0,1.926079844E0
1.437545449E0,1.345050097E0,-3.210000098E-1,1.279950023E0,1.884269840E0
1.439507512E0,1.269000053E0,-1.290000081E-1,1.356000066E0,1.861649354E0
1.441469833E0,1.192050099E0,6.105000153E-2,1.395000100E0,1.835956378E0
1.443433219E0,1.039050102E0,3.289500177E-1,1.356000066E0,1.739703828E0
1.445396293E0,9.240000248E-1,5.590500236E-1,1.203000069E0,1.616639150E0
1.447359705E0,8.089500666E-1,7.890000343E-1,1.050000072E0,1.542537330E0
1.449323004E0,8.089500666E-1,1.018950105E0,5.509500504E-1,1.412871361E0
1.451286945E0,8.470500112E-1,1.173000097E0,-1.759500057E-1,1.457525764E0
1.453250697E0,1.077000022E0,1.210950017E0,-1.210950017E0,2.023049415E0
1.455213524E0,1.459950089E0,1.210950017E0,-2.629050016E0,3.241875722E0
1.457176622E0,2.074050188E0,1.249050021E0,-3.931950092E0,4.617579633E0
1.459139848E0,2.839950085E0,1.441050053E0,-5.235000134E0,6.127574409E0
1.461103023E0,3.453000069E0,1.747950077E0,-6.078000069E0,7.205596698E0
1.463066084E0,4.066950321E0,2.208000183E0,-5.617950439E0,7.278510621E0
1.465029179E0,4.372950077E0,2.935950041E0,-3.357000113E0,6.245954272E0
1.466991397E0,4.297049999E0,3.894000292E0,8.959500194E-1,5.867759658E0
1.468953872E0,3.760050297E0,5.005050182E0,6.301050186E0,8.882102173E0
1.470917205E0,3.262050152E0,6.079050064E0,1.139805031E1,1.332333936E1
1.472880273E0,2.802000046E0,7.420050144E0,1.542300034E1,1.734293192E1
1.474843037E0,2.457000017E0,8.647050858E0,1.806705093E1,2.017985795E1
1.476805891E0,2.304000139E0,1.010295010E1,1.921695137E1,2.183275606E1
1.478769185E0,2.188950062E0,1.163595009E1,1.910205078E1,2.247387774E1
1.480732350E0,2.457000017E0,1.270905018E1,1.783695030E1,2.203891108E1
1.482695442E0,3.147000074E0,1.370595074E1,1.565295029E1,2.104213743E1
1.484658535E0,4.027950287E0,1.439595032E1,1.212600040E1,1.924857540E1
1.486621609E0,4.833000183E0,1.520100117E1,7.603950500E0,1.767055150E1
1.488584689E0,5.140050411E0,1.657995033E1,2.046000004E0,1.747858654E1
1.490548665E0,4.450050354E0,1.888005066E1,-4.084949970E0,1.982286753E1
1.492512379E0,2.457000017E0,2.183100128E1,-9.873000145E0,2.408538142E1
1.494474417E0,-1.870500147E-1,2.501205063E1,-1.435695076E1,2.884024444E1
1.496436935E0,-2.908050060E0,2.892195129E1,-1.673295021E1,3.353994103E1
1.498399791E0,-5.053950310E0,3.378900146E1,-1.657995033E1,3.797543662E1
1.500362548E0,-7.162050247E0,3.915495300E1,-1.523895073E1,4.262195359E1
1.502325860E0,-9.346950531E0,4.501905060E1,-1.385895061E1,4.802240012E1
1.504289010E0,-1.153200054E1,5.095995331E1,-1.021800041E1,5.323825138E1
1.506252409E0,-1.344795036E1,5.628795242E1,-7.803000450E0,5.839578558E1
1.508215721E0,-1.482795048E1,6.150000381E1,-6.385050297E0,6.358370429E1
1.510179118E0,-1.551795101E1,6.521805573E1,-6.423000336E0,6.734579816E1
1.512142490E0,-1.555605030E1,6.648300171E1,-8.071050644E0,6.875406952E1
1.514105922E0,-1.540305042E1,6.633000183E1,-9.259050369E0,6.872156226E1
1.516069336E0,-1.440600109E1,6.410700226E1,-9.988050461E0,6.646052782E1
1.518032556E0,-1.264305019E1,6.130905151E1,-9.873000145E0,6.337288574E1
1.519995819E0,-1.087995052E1,5.824200439E1,-9.565950394E0,6.001676271E1
1.521958999E0,-9.040050507E0,5.502300262E1,-9.489000320E0,5.656230598E1
1.523922203E0,-7.431000233E0,5.145795059E1,-9.489000320E0,5.285055885E1
1.525885258E0,-5.743950367E0,4.743405151E1,-9.873000145E0,4.878994098E1
1.527848357E0,-4.594050407E0,4.333305359E1,-1.017900085E1,4.474897642E1
1.529811629E0,-3.636000156E0,3.953895187E1,-1.037100029E1,4.103787104E1
1.531774836E0,-3.138000250E0,3.639599991E1,-1.010295010E1,3.790231465E1
1.533738116E0,-2.677950144E0,3.355905151E1,-9.451050758E0,3.496718055E1
1.535701374E0,-2.295000076E0,3.091500092E1,-9.259050369E0,3.235327372E1
1.537664781E0,-1.720050097E0,2.850000191E1,-9.336000443E0,3.003946713E1
1.539628144E0,-8.380500674E-1,2.616195107E1,-9.757950783E0,2.793506068E1
1.541592438E0,1.189500093E-1,2.390100098E1,-1.017900085E1,2.597853066E1
1.543556456E0,1.077000022E0,2.202300072E1,-1.063905048E1,2.448186849E1
1.545519688E0,1.996950150E0,2.037495041E1,-1.083105087E1,2.316113290E1
1.547483151E0,3.147000074E0,1.876500130E1,-1.125195026E1,2.210509597E1
1.549446342E0,4.105050087E0,1.734705162E1,-1.213395023E1,2.156396031E1
1.551409612E0,4.987050056E0,1.615904999E1,-1.301595020E1,2.134011538E1
1.553372874E0,5.905950069E0,1.516200066E1,-1.385895061E1,2.137374610E1
1.555336112E0,6.136050224E0,1.424205112E1,-1.428000069E1,2.108092864E1
1.557299521E0,6.634950161E0,1.366695023E1,-1.450995064E1,2.100825456E1
1.559262879E0,6.711000443E0,1.336095047E1,-1.462500095E1,2.091514230E1
1.561225728E0,6.442950249E0,1.316895103E1,-1.439505100E1,2.054629827E1
1.563188727E0,6.097950459E0,1.290105057E1,-1.366695023E1,1.975873564E1
1.565152153E0,5.791050434E0,1.255605030E1,-1.278600025E1,1.883274984E1
1.567115470E0,5.293050289E0,1.228800011E1,-1.171200085E1,1.778151545E1
1.569078732E0,4.987050056E0,1.201905060E1,-1.086900043E1,1.695474612E1
1.571042011E0,4.872000217E0,1.171305084E1,-1.002600002E1,1.616949667E1
1.573005413E0,4.603050232E0,1.121400070E1,-9.028950691E0,1.511502014E1
1.574968778E0,4.372950077E0,1.060095024E1,-8.301000595E0,1.415660444E1
1.576932292E0,4.411950111E0,1.033305073E1,-7.534950256E0,1.352821927E1
1.578895769E0,4.411950111E0,1.021800041E1,-6.538050175E0,1.290809577E1
1.580859139E0,4.143000126E0,9.910950661E0,-5.388000488E0,1.201756807E1
1.582822540E0,3.300000191E0,9.183000565E0,-4.009050369E0,1.054940688E1
1.584785787E0,2.572050095E0,8.263050079E0,-3.127050161E0,9.201732501E0
1.586749079E0,1.729050040E0,7.497000217E0,-2.284050226E0,8.025678273E0
1.588711533E0,8.850000501E-1,6.730050087E0,-1.861950040E0,7.038725539E0
1.590674233E0,-1.480500102E-1,6.040050507E0,-1.555950046E0,6.238999076E0
1.592637734E0,-8.770500422E-1,5.274000168E0,-1.555950046E0,5.568238060E0
1.594601000E0,-1.297950029E0,4.545000076E0,-1.747050047E0,5.039234450E0
1.596564046E0,-1.528050065E0,4.009050369E0,-1.977000117E0,4.723976220E0
1.598527156E0,-1.528050065E0,3.702000141E0,-2.053950071E0,4.500939118E0
1.600490401E0,-2.256000042E0,3.357000113E0,-2.551950216E0,4.782409001E0
1.602453610E0,-2.179949999E0,3.012000084E0,-2.629050016E0,4.553705139E0
1.604416711E0,-1.834950089E0,2.667000055E0,-2.667000055E0,4.194379623E0
1.606379843E0,-1.106999993E0,2.398950100E0,-3.012000084E0,4.006563998E0
1.608343225E0,-1.222050071E0,2.092950106E0,-3.088950157E0,3.926252615E0
1.610306533E0,-2.140950203E0,1.824000120E0,-2.704950094E0,3.902230032E0
1.612269926E0,-1.911000133E0,1.441050053E0,-2.514000177E0,3.471130025E0
1.614233298E0,-1.183050036E0,9.040500522E-1,-2.245050192E0,2.693912443E0
1.616197450E0,1.114950061E0,2.140500098E-1,-2.130000114E0,2.413675938E0
1.618161374E0,2.227050066E0,2.295000106E-2,-1.824000120E0,2.878759305E0
1.620125343E0,1.729050040E0,-1.680000126E-1,-1.171950102E0,2.095544103E0
1.622089298E0,1.498950124E0,-4.740000367E-1,-7.120500207E-1,1.725845515E0
1.624052381E0,1.306950092E0,-1.011000037E0,-2.910000086E-1,1.677772519E0
1.626015737E0,1.153950095E0,-1.585950017E0,1.300500035E-1,1.965642715E0
1.627977865E0,1.039050102E0,-2.046000004E0,4.360500276E-1,2.335782686E0
1.629940353E0,7.320000529E-1,-2.506050110E0,9.730500579E-1,2.786204882E0
1.631903034E0,6.550500393E-1,-2.926950216E0,1.395000100E0,3.307892592E0
1.633865658E0,5.410500169E-1,-3.426000118E0,1.930950046E0,3.969732990E0
1.635828209E0,5.020500422E-1,-3.847050190E0,2.736000061E0,4.747372509E0
1.637790795E0,4.260000288E-1,-4.269000053E0,3.388050079E0,5.466691945E0
1.639754856E0,3.870000243E-1,-4.690050125E0,3.771000147E0,6.030487650E0
1.641718485E0,5.790000558E-1,-5.074050426E0,4.039050102E0,6.511156159E0
1.643681829E0,6.940500140E-1,-5.494950294E0,4.192950249E0,6.946726995E0
1.645645257E0,8.470500112E-1,-5.878950119E0,4.269000053E0,7.314636674E0
1.647608258E0,8.089500666E-1,-6.147000313E0,4.231050014E0,7.506117324E0
1.649571395E0,8.089500666E-1,-6.376950264E0,4.153950214E0,7.653443491E0
1.651534507E0,9.240000248E-1,-6.415050507E0,4.039050102E0,7.636790869E0
1.653497626E0,1.000050068E0,-6.492000103E0,3.924000263E0,7.651401410E0
1.655460830E0,1.039050102E0,-6.454050541E0,3.808950186E0,7.565877016E0
1.657424009E0,1.039050102E0,-6.415050507E0,3.694050074E0,7.475192577E0
1.659386939E0,1.153950095E0,-6.376950264E0,3.579000235E0,7.403130295E0
1.661349939E0,1.230000019E0,-6.262050152E0,3.541050196E0,7.298301764E0
1.663312983E0,1.306950092E0,-6.223950386E0,3.618000269E0,7.316802778E0
1.665276014E0,1.575000048E0,-6.223950386E0,3.733050108E0,7.426563584E0
1.667239279E0,2.035050154E0,-6.223950386E0,3.808950186E0,7.575426658E0
1.669202475E0,2.686950207E0,-6.147000313E0,3.963000298E0,7.791706207E0
1.671165757E0,3.262050152E0,-5.994000435E0,4.116000175E0,7.969345635E0
1.673129014E0,3.798000097E0,-5.839950085E0,4.231050014E0,8.150558628E0
1.675092241E0,4.066950321E0,-5.649000168E0,4.384050369E0,8.226249781E0
1.677055477E0,4.258049965E0,-5.380050182E0,4.345950127E0,8.121773942E0
1.679018662E0,4.143000126E0,-5.149950027E0,4.192950249E0,7.827340999E0
1.680981862E0,3.874950171E0,-4.804950237E0,4.039050102E0,7.376768353E0
1.682944782E0,3.568050146E0,-4.461000443E0,3.963000298E0,6.952472808E0
1.684907785E0,3.108000040E0,-4.077000141E0,3.847950220E0,6.410016794E0
1.686870649E0,2.610000134E0,-3.694050074E0,3.618000269E0,5.792066349E0
1.688833554E0,2.111999989E0,-3.310950041E0,3.463950157E0,5.236590954E0
1.690796525E0,1.651950121E0,-3.042000055E0,3.196050167E0,4.711415945E0
1.692759476E0,1.230000019E0,-2.697000027E0,3.004050255E0,4.220311259E0
1.694721833E0,8.089500666E-1,-2.428950071E0,2.698050022E0,3.719364540E0
1.696684348E0,5.410500169E-1,-2.161050081E0,2.391000032E0,3.267989249E0
1.698647340E0,1.960500032E-1,-2.046000004E0,2.046000004E0,2.900115107E0
1.700610192E0,4.050000105E-3,-1.777950048E0,1.624950051E0,2.408648054E0
1.702573127E0,-1.870500147E-1,-1.624050021E0,1.432950020E0,2.173907068E0
1.704536038E0,-4.170000255E-1,-1.509000063E0,1.240950108E0,1.997730558E0
1.706499158E0,-5.320500135E-1,-1.393950105E0,9.730500579E-1,1.781291814E0
1.708462206E0,-5.320500135E-1,-1.356000066E0,9.730500579E-1,1.751753353E0
1.710425288E0,-5.320500135E-1,-1.240950108E0,1.011000037E0,1.686758863E0
1.712388360E0,-4.930500090E-1,-1.164000034E0,9.349500537E-1,1.572299588E0
1.714351123E0,-4.930500090E-1,-1.048950076E0,1.126049995E0,1.615977464E0
1.716313977E0,-3.780000210E-1,-9.340500236E-1,1.165050030E0,1.540348998E0
1.718276881E0,-3.400500119E-1,-7.810500264E-1,1.395000100E0,1.634533093E0
1.720239759E0,-2.250000089E-1,-7.039500475E-1,1.585950017E0,1.749688009E0
1.722202690E0,-1.480500102E-1,-5.890500546E-1,1.855050087E0,1.951950204E0
1.724165606E0,-1.870500147E-1,-3.979500234E-1,2.200050116E0,2.243562444E0
1.726128575E0,-2.250000089E-1,-2.059500068E-1,2.506050110E0,2.524545021E0
1.728091529E0,-1.870500147E-1,-1.680000126E-1,2.736000061E0,2.747527624E0
1.730054412E0,-1.480500102E-1,-1.680000126E-1,2.889000177E0,2.897665411E0
1.732017309E0,8.100000024E-2,-1.290000081E-1,2.889000177E0,2.893012967E0
1.733980235E0,1.189500093E-1,-1.680000126E-1,2.889000177E0,2.896324418E0
1.735943153E0,8.100000024E-2,-1.290000081E-1,2.889000177E0,2.893012967E0
1.737905718E0,4.200000316E-2,-9.105000645E-2,2.736000061E0,2.737836817E0
1.739868386E0,4.200000316E-2,2.295000106E-2,2.467950106E0,2.468414152E0
1.741831698E0,8.100000024E-2,9.900000691E-2,2.085000038E0,2.088920094E0
1.743794831E0,1.960500032E-1,2.140500098E-1,1.663050056E0,1.688190895E0
1.745758079E0,3.870000243E-1,3.289500177E-1,1.395000100E0,1.484588297E0
1.747721293E0,5.410500169E-1,4.060500264E-1,8.200500607E-1,1.063058722E0
1.749686194E0,8.089500666E-1,5.209500194E-1,2.070000172E-1,9.841941577E-1
1.751650601E0,1.000050068E0,6.360000372E-1,-3.670500219E-1,1.240694122E0
1.753613469E0,1.230000019E0,8.280000687E-1,-9.040500522E-1,1.736603195E0
1.755576775E0,1.422000051E0,9.810000658E-1,-1.516950130E0,2.299039576E0
1.757539813E0,2.035050154E0,1.249050021E0,-2.206950188E0,3.251489538E0
1.759502929E0,2.457000017E0,1.441050053E0,-2.667000055E0,3.902097338E0
1.761465999E0,2.649000168E0,1.671000123E0,-3.127050161E0,4.425820377E0
1.763429083E0,2.878050089E0,1.978050113E0,-3.394950151E0,4.870476475E0
1.765392298E0,3.031950235E0,2.245950222E0,-3.625050068E0,5.232399318E0
1.767355471E0,3.147000074E0,2.551950216E0,-3.778950214E0,5.540444395E0
1.769318757E0,3.223050117E0,2.974050045E0,-3.817050219E0,5.814025980E0
1.771282009E0,3.337950230E0,3.280950069E0,-3.702000141E0,5.967524624E0
1.773244877E0,3.492000103E0,3.549000263E0,-3.586950064E0,6.136422276E0
1.775207857E0,3.721950293E0,3.778950214E0,-3.510000229E0,6.360305049E0
1.777170935E0,4.027950287E0,4.009050369E0,-3.433950186E0,6.639945953E0
1.779133994E0,4.105050087E0,4.201050282E0,-3.472050190E0,6.823151193E0
1.781097209E0,4.258049965E0,4.392000198E0,-3.510000229E0,7.052712730E0
1.783060379E0,4.182000160E0,4.545000076E0,-3.586950064E0,7.142293875E0
1.785023441E0,3.990000248E0,4.545000076E0,-3.739950180E0,7.110861764E0
1.786986535E0,3.645000219E0,4.584000111E0,-3.855000257E0,7.011427144E0
1.788949639E0,3.262050152E0,4.507050037E0,-3.970050097E0,6.834893489E0
1.790912750E0,2.955000162E0,4.392000198E0,-3.970050097E0,6.616871577E0
1.792875642E0,2.610000134E0,4.315950394E0,-3.778950214E0,6.302379965E0
1.794838598E0,2.341950178E0,4.123950005E0,-3.319050074E0,5.788591164E0
1.796801829E0,2.035050154E0,3.931950092E0,-2.704950094E0,5.188296027E0
1.798764980E0,1.729050040E0,3.817050219E0,-1.861950040E0,4.585449200E0
1.800727310E0,1.498950124E0,3.741000175E0,-4.060500264E-1,4.050532114E0
1.802689891E0,1.269000053E0,3.778950214E0,1.740000129E0,4.349531734E0
1.804652377E0,9.240000248E-1,4.009050369E0,4.843950272E0,6.355321797E0
1.806614891E0,5.790000558E-1,4.315950394E0,8.524050713E0,9.571943868E0
1.808578064E0,4.639500082E-1,4.699050426E0,1.235595036E1,1.322746513E1
1.810541043E0,3.870000243E-1,5.197050095E0,1.611194992E1,1.693381318E1
1.812504281E0,2.719500065E-1,5.734050274E0,1.940895081E1,2.024007561E1
1.814467437E0,3.870000243E-1,6.309000492E0,2.197695160E1,2.286787392E1
1.816431221E0,6.169500351E-1,7.075050354E0,2.358600044E1,2.463201944E1
1.818394821E0,1.000050068E0,7.957050323E0,2.431500053E1,2.560339823E1
1.820357990E0,1.345050097E0,8.914950371E0,2.446800041E1,2.607620647E1
1.822321285E0,1.690050125E0,1.006500053E1,2.362500191E1,2.573521362E1
1.824284356E0,2.035050154E0,1.144395065E1,2.182305145E1,2.472551335E1
1.826247502E0,2.494950056E0,1.343700027E1,1.936995125E1,2.370596472E1
1.828210701E0,2.572050095E0,1.688700104E1,1.565295029E1,2.316896844E1
1.830173884E0,1.959000111E0,2.187000084E1,1.097700024E1,2.454850611E1
1.832137123E0,1.114950061E0,2.677500153E1,6.186000347E0,2.750291658E1
1.834100346E0,7.320000529E-1,3.049305153E1,1.050000072E0,3.051990360E1
1.836064123E0,1.000050068E0,3.306105042E1,-4.813050270E0,3.342452105E1
1.838027735E0,7.699500322E-1,3.693195343E1,-1.025595093E1,3.833727346E1
1.839990766E0,5.410500169E-1,4.233600235E1,-1.546800041E1,4.507647798E1
1.841953967E0,1.459950089E0,4.850700378E1,-1.987605095E1,5.244157007E1
1.843916662E0,3.184950113E0,5.295300293E1,-2.447505188E1,5.842253496E1
1.845879506E0,4.909950256E0,5.406495285E1,-2.788695145E1,6.103121168E1
1.847842793E0,6.520050526E0,5.375805283E1,-2.547195053E1,5.984362595E1
1.849805956E0,8.282999992E0,5.326005173E1,-2.014395142E1,5.754146312E1
1.851769199E0,1.104195023E1,5.080695343E1,-1.428000069E1,5.391836052E1
1.853732418E0,1.330395031E1,4.705095291E1,-8.263050079E0,4.958896309E1
1.855695246E0,1.315005016E1,4.348605347E1,-3.049950123E0,4.553309633E1
1.857658189E0,9.355950356E0,3.996000290E1,-9.900000691E-2,4.104077777E1
1.859620378E0,3.337950230E0,3.677895355E1,1.300500035E-1,3.693034320E1
1.861582795E0,-2.371050119E0,3.336795044E1,-2.359950066E0,3.353522565E1
1.863546344E0,-6.549000263E0,2.965005112E1,-6.001950264E0,3.095219447E1
1.865509562E0,-8.848950386E0,2.581695175E1,-9.220950127E0,2.880702765E1
1.867472616E0,-9.538950920E0,2.240595055E1,-1.152105045E1,2.693979970E1
1.869435718E0,-8.848950386E0,1.976205063E1,-1.213395023E1,2.482086453E1
1.871399015E0,-7.354050159E0,1.788300133E1,-1.221105099E1,2.286905237E1
1.873362254E0,-5.743950367E0,1.646505165E1,-1.152105045E1,2.090037070E1
1.875325618E0,-4.671000004E0,1.543095112E1,-1.067805004E1,1.933787078E1
1.877288946E0,-4.249050140E0,1.481700039E1,-9.643050194E0,1.818203357E1
1.879252161E0,-4.518000126E0,1.454895115E1,-9.028950691E0,1.770893151E1
1.881215410E0,-5.169000149E0,1.447200108E1,-8.608050346E0,1.761408267E1
1.883178474E0,-5.859000206E0,1.458705044E1,-8.340000153E0,1.779509838E1
1.885141612E0,-6.664050102E0,1.470195103E1,-8.185950279E0,1.809880410E1
1.887104993E0,-7.354050159E0,1.485600090E1,-8.301000595E0,1.853886262E1
1.889068302E0,-7.966950417E0,1.489395046E1,-8.569950104E0,1.894059408E1
1.891031566E0,-8.580000877E0,1.500900078E1,-8.991000175E0,1.948652364E1
1.892994843E0,-9.040050507E0,1.520100117E1,-9.259050369E0,1.996303993E1
1.894958065E0,-9.615000725E0,1.527705097E1,-9.757950783E0,2.051960352E1
1.896921304E0,-1.003695011E1,1.527705097E1,-1.014105034E1,2.090381678E1
1.898884353E0,-1.038195038E1,1.523895073E1,-1.025595093E1,2.109964555E1
1.900847458E0,-1.080300045E1,1.520100117E1,-1.044795036E1,2.137603616E1
1.902810485E0,-1.114800072E1,1.508595085E1,-1.090695095E1,2.169851175E1
1.904773535E0,-1.134000015E1,1.512405109E1,-1.117605019E1,2.195988667E1
1.906736628E0,-1.164705086E1,1.523895073E1,-1.086900043E1,2.204573844E1
1.908699731E0,-1.168500042E1,1.535400105E1,-1.025595093E1,2.185106662E1
1.910662983E0,-1.168500042E1,1.558395100E1,-9.412950516E0,2.163336314E1
1.912626192E0,-1.130205059E1,1.558395100E1,-8.340000153E0,2.097978739E1
1.914589067E0,-1.084200096E1,1.554600048E1,-7.036050320E0,2.021714915E1
1.916552040E0,-1.045905018E1,1.566000080E1,-5.962950230E0,1.975307903E1
1.918515060E0,-9.883950233E0,1.554600048E1,-5.197050095E0,1.914105360E1
1.920478086E0,-9.309000015E0,1.535400105E1,-4.507050037E0,1.851259921E1
1.922441352E0,-9.079050064E0,1.516200066E1,-4.009050369E0,1.812147618E1
1.924404548E0,-8.964000702E0,1.523895073E1,-3.586950064E0,1.804009808E1
1.926367425E0,-8.964000702E0,1.546905041E1,-3.280050039E0,1.817700628E1
1.928330396E0,-8.887050629E0,1.562205029E1,-3.049950123E0,1.822992923E1
1.930293544E0,-9.001950264E0,1.581405067E1,-2.551950216E0,1.837475870E1
1.932256634E0,-9.270000458E0,1.592895031E1,-2.130000114E0,1.855266199E1
1.934219529E0,-9.577050209E0,1.612005043E1,-1.594050050E0,1.881799437E1
1.936182482E0,-1.015200043E1,1.638899994E1,-9.810000658E-1,1.930349173E1
1.938145579E0,-1.080300045E1,1.681005096E1,-2.910000086E-1,1.998417657E1
1.940108634E0,-1.134000015E1,1.726995087E1,2.070000172E-1,2.066130817E1
1.942071519E0,-1.187700081E1,1.761495018E1,4.360500276E-1,2.124946488E1
1.944034434E0,-1.214505100E1,1.795995140E1,3.220500052E-1,2.168330774E1
1.945997357E0,-1.218300056E1,1.807500076E1,2.830500007E-1,2.179934111E1
1.947960278E0,-1.191495037E1,1.803705025E1,3.220500052E-1,2.161954995E1
1.949923201E0,-1.153200054E1,1.795995140E1,5.130000114E-1,2.134970866E1
1.951886124E0,-1.095705032E1,1.773000145E1,5.899500251E-1,2.085084996E1
1.953849268E0,-1.007505035E1,1.726995087E1,7.050000429E-1,2.000637068E1
1.955812350E0,-9.193950653E0,1.673400116E1,8.959500194E-1,1.911434670E1
1.957775742E0,-8.350950241E0,1.627395058E1,8.580000401E-1,1.831163568E1
1.959739043E0,-7.584000587E0,1.581405067E1,7.050000429E-1,1.755272881E1
1.961702442E0,-6.856050491E0,1.531605053E1,4.750500321E-1,1.678727210E1
1.963665812E0,-6.166050434E0,1.466400051E1,4.750500321E-1,1.591473410E1
1.965629935E0,-5.590950489E0,1.405095100E1,3.600000143E-1,1.512671648E1
1.967593827E0,-5.208000183E0,1.324605083E1,2.830500007E-1,1.423591395E1
1.969557171E0,-4.824000359E0,1.255605030E1,9.195000678E-2,1.345116476E1
1.971520675E0,-4.441050053E0,1.163595009E1,-1.759500057E-1,1.245589091E1
1.973484354E0,-3.904950142E0,1.075500011E1,-1.759500057E-1,1.144332213E1
1.975447981E0,-3.520950079E0,9.873000145E0,-1.369500011E-1,1.048293740E1
1.977410442E0,-3.061050177E0,9.030000687E0,-1.759500057E-1,9.536346207E0
1.979373232E0,-2.563050032E0,8.263050079E0,3.979500234E-1,8.660576557E0
1.981336222E0,-2.065050125E0,7.573050499E0,1.279950023E0,7.953225631E0
1.983299154E0,-1.375050068E0,6.960000515E0,1.855050087E0,7.333047162E0
1.985262616E0,-6.079500318E-1,6.499950409E0,2.314950228E0,6.926611951E0
1.987225923E0,-1.099500060E-1,6.309000492E0,2.928000212E0,6.956203092E0
1.989189857E0,7.699500322E-1,6.117000103E0,3.426000118E0,7.053225512E0
1.991153610E0,1.651950121E0,6.040050507E0,3.655950069E0,7.251008222E0
1.993116347E0,2.533950090E0,6.193950176E0,3.886050224E0,7.738689049E0
1.995079381E0,3.184950113E0,6.499950409E0,3.924000263E0,8.233531479E0
1.997042330E0,4.105050087E0,6.615000248E0,4.269000053E0,8.878852739E0
1.999005304E0,4.717950344E0,6.730050087E0,4.461000443E0,9.351639138E0
2.000968362E0,5.254950047E0,6.922050476E0,4.498950005E0,9.786206309E0
2.002931389E0,5.905950069E0,6.922050476E0,4.843950272E0,1.030819496E1
2.004894520E0,6.328050137E0,6.922050476E0,5.074050426E0,1.066325415E1
2.006857620E0,6.442950249E0,6.997950554E0,4.959000111E0,1.072728307E1
2.008820828E0,6.865050316E0,6.768000126E0,4.345950127E0,1.057459333E1
2.010784005E0,7.324050426E0,6.462000370E0,3.502950191E0,1.037640706E1
2.012746900E0,7.593000412E0,6.117000103E0,2.583000183E0,1.008678519E1
2.014709867E0,7.938000202E0,5.580000401E0,2.161050081E0,9.940743892E0
2.016672467E0,8.359050751E0,4.890000343E0,2.200050116E0,9.931065065E0
2.018635175E0,8.818950653E0,4.162050247E0,2.506050110E0,1.006860666E1
2.020598314E0,9.318000793E0,3.204000235E0,3.081000090E0,1.032391969E1
2.022561326E0,9.816000938E0,2.169000149E0,3.349050045E0,1.059596962E1
2.024525100E0,1.058205032E1,1.057950020E0,3.771000147E0,1.128359382E1
2.026488644E0,1.142595100E1,-1.290000081E-1,3.924000263E0,1.208167105E1
2.028451642E0,1.200000095E1,-1.048950076E0,3.963000298E0,1.268091836E1
2.030414800E0,1.257495022E1,-1.816050053E0,4.000950336E0,1.332047350E1
2.032377683E0,1.315005016E1,-2.428950071E0,4.384050369E0,1.407279345E1
2.034340646E0,1.349505043E1,-2.965950251E0,4.537950039E0,1.454325402E1
2.036303562E0,1.349505043E1,-3.349050045E0,4.614000320E0,1.464996660E1
2.038266492E0,1.315005016E1,-3.541050196E0,4.729050159E0,1.441619822E1
2.040229414E0,1.234500027E1,-3.694050074E0,4.653000355E0,1.370019890E1
2.042192338E0,1.127205086E1,-3.655950069E0,4.498950005E0,1.267539556E1
2.044155485E0,9.739050865E0,-3.349050045E0,4.039050102E0,1.106251209E1
2.046118567E0,7.822950363E0,-2.851050138E0,3.426000118E0,9.003583514E0
2.048081819E0,5.983050346E0,-2.467050076E0,2.889000177E0,7.087280829E0
2.050045024E0,4.564949989E0,-2.238000154E0,2.391000032E0,5.618210948E0
2.052008080E0,3.529950142E0,-2.238000154E0,2.085000038E0,4.670804840E0
2.053971180E0,2.878050089E0,-2.428950071E0,1.930950046E0,4.232202599E0
2.055934253E0,2.419050217E0,-2.659050226E0,1.777950048E0,4.010418735E0
2.057897334E0,2.149950027E0,-2.965950251E0,1.740000129E0,4.055458847E0
2.059860234E0,1.920000076E0,-3.387000084E0,1.663050056E0,4.233663349E0
2.061823184E0,1.651950121E0,-3.808950186E0,1.471050024E0,4.404659907E0
2.063786237E0,1.422000051E0,-4.192049980E0,1.240950108E0,4.597317082E0
2.065749259E0,1.230000019E0,-4.461000443E0,7.810500264E-1,4.692916379E0
2.067713246E0,1.039050102E0,-4.843950272E0,2.449500114E-1,4.960189498E0
2.069676951E0,7.699500322E-1,-5.149950027E0,-1.369500011E-1,5.208988735E0
2.071638890E0,5.020500422E-1,-5.419050217E0,-4.819500148E-1,5.463555190E0
2.073601343E0,2.719500065E-1,-5.649000168E0,-7.510500550E-1,5.705193764E0
2.075564165E0,4.050000105E-3,-5.839950085E0,-7.120500207E-1,5.883200543E0
2.077526879E0,-2.250000089E-1,-6.031950474E0,-6.360000372E-1,6.069559092E0
2.079489838E0,-6.079500318E-1,-6.070050240E0,-5.209500194E-1,6.122622157E0
2.081452725E0,-1.030050039E0,-5.955000401E0,-3.670500219E-1,6.054565102E0
2.083415835E0,-1.375050068E0,-5.839950085E0,-9.900000691E-2,6.000465039E0
2.085378879E0,-1.681950092E0,-5.686950207E0,1.680000126E-1,5.932839352E0
2.087341017E0,-1.911000133E0,-5.494950294E0,5.130000114E-1,5.840339824E0
2.089303420E0,-2.179949999E0,-5.227050304E0,6.280500293E-1,5.698129844E0
2.091266476E0,-2.332950115E0,-4.996950150E0,5.899500251E-1,5.546188607E0
2.093229341E0,-2.410050154E0,-4.729050159E0,4.750500321E-1,5.328970791E0
2.095193195E0,-2.448000193E0,-4.384050369E0,2.830500007E-1,5.029186802E0
2.097156745E0,-2.448000193E0,-3.808950186E0,2.070000172E-1,4.532510945E0
2.099119742E0,-2.256000042E0,-3.310950041E0,3.220500052E-1,4.019408236E0
2.101082901E0,-2.065050125E0,-2.851050138E0,2.070000172E-1,3.526438418E0
2.103045783E0,-1.758000135E0,-2.506050110E0,1.680000126E-1,3.065791192E0
2.105008747E0,-1.489950061E0,-2.199000120E0,-2.205000073E-2,2.656320559E0
2.106971672E0,-1.183050036E0,-1.969050050E0,-2.520000041E-1,2.310902311E0
2.108934602E0,-8.770500422E-1,-1.738950133E0,-4.440000355E-1,1.997573622E0
2.110897703E0,-5.700000525E-1,-1.548000097E0,-4.819500148E-1,1.718569224E0
2.112860754E0,-3.019500077E-1,-1.471050024E0,-5.209500194E-1,1.589512788E0
2.114824016E0,-7.200000435E-2,-1.318050027E0,-4.440000355E-1,1.392686578E0
2.116787216E0,8.100000024E-2,-1.240950108E0,-3.289500177E-1,1.286361646E0
2.118750278E0,2.719500065E-1,-1.164000034E0,-2.520000041E-1,1.221620599E0
2.120713377E0,3.490500152E-1,-1.048950076E0,-1.759500057E-1,1.119415285E0
2.122676405E0,4.639500082E-1,-8.959500194E-1,-6.105000153E-2,1.010793327E0
2.124639454E0,5.020500422E-1,-7.039500475E-1,-1.759500057E-1,8.823595178E-1
2.126602400E0,4.639500082E-1,-5.890500546E-1,-3.670500219E-1,8.348384846E-1
2.128565377E0,5.020500422E-1,-4.740000367E-1,-5.590500236E-1,8.884071187E-1
2.130528982E0,6.169500351E-1,-4.360500276E-1,-9.420000315E-1,1.207530965E0
2.132492423E0,7.320000529E-1,-3.589500189E-1,-1.326000094E0,1.556581332E0
2.134455618E0,9.619500637E-1,-3.210000098E-1,-1.900950074E0,2.154530138E0
2.136418886E0,1.230000019E0,-2.830500007E-1,-2.437050104E0,2.744490947E0
2.138381570E0,1.537050128E0,-1.680000126E-1,-2.820000172E0,3.216076502E0
2.140344425E0,2.188950062E0,-9.105000645E-2,-2.935050249E0,3.662555452E0
2.142306790E0,2.992950201E0,2.530499995E-1,-2.551950216E0,3.941349403E0
2.144269319E0,3.529950142E0,7.510500550E-1,-1.441050053E0,3.886032610E0
2.146231769E0,3.952050209E0,1.518000126E0,9.349500537E-1,4.335568802E0
2.148194242E0,3.952050209E0,2.437050104E0,4.729050159E0,6.627354636E0
2.150157601E0,3.568050146E0,3.357000113E0,9.481950760E0,1.067276074E1
2.152120701E0,2.764050245E0,4.354050159E0,1.381305027E1,1.474442553E1
2.154083923E0,2.111999989E0,5.427000046E0,1.722405052E1,1.818188081E1
2.156047100E0,1.459950089E0,6.462000370E0,1.948500061E1,2.058043128E1
2.158009981E0,1.039050102E0,7.534950256E0,2.021400070E1,2.159770647E1
2.159972948E0,6.169500351E-1,8.953050613E0,1.914000130E1,2.113947474E1
2.161935548E0,3.870000243E-1,1.037100029E1,1.684095001E1,1.978193654E1
2.163898256E0,4.639500082E-1,1.148295021E1,1.362105083E1,1.782151568E1
2.165862136E0,9.240000248E-1,1.198095036E1,9.750000000E0,1.547447729E1
2.167825658E0,1.306950092E0,1.267095089E1,5.266050339E0,1.378377311E1
2.169789560E0,1.459950089E0,1.339905071E1,7.429500222E-1,1.349881436E1
2.171753351E0,1.575000048E0,1.382100105E1,-3.894000292E0,1.444520452E1
2.173715540E0,1.384050012E0,1.520100117E1,-7.726050377E0,1.710783111E1
2.175678199E0,3.870000243E-1,1.704000092E1,-1.071600056E1,2.013315842E1
2.177641194E0,-1.222050071E0,1.945500183E1,-1.236405087E1,2.308376608E1
2.179604071E0,-3.061050177E0,2.232900047E1,-1.286205101E1,2.594969454E1
2.181567182E0,-4.708950043E0,2.608605194E1,-1.186605072E1,2.904237380E1
2.183530225E0,-6.166050434E0,3.118305206E1,-9.144000053E0,3.307590741E1
2.185493668E0,-8.311950684E0,3.877200317E1,-5.503050327E0,4.003299036E1
2.187456994E0,-1.099500084E1,4.728105164E1,-2.053950071E0,4.858607412E1
2.189420256E0,-1.344795036E1,5.483100128E1,-2.092050076E0,5.649480281E1
2.191383536E0,-1.521105099E1,6.219000244E1,-2.743950129E0,6.408199231E1
2.193346398E0,-1.597800064E1,6.763305664E1,-4.084949970E0,6.961475182E1
2.195309382E0,-1.586295033E1,7.127400208E1,-7.150950432E0,7.336724512E1
2.197272294E0,-1.521105099E1,7.353495026E1,-1.040895081E1,7.580970412E1
2.199235228E0,-1.390800095E1,7.391805267E1,-1.232595062E1,7.621837088E1
2.201198278E0,-1.126305008E1,7.249995422E1,-1.351395035E1,7.460379691E1
2.203161298E0,-7.966950417E0,6.970200348E1,-1.428000069E1,7.159441324E1
2.205124251E0,-4.363950253E0,6.552495575E1,-1.336005020E1,6.701533279E1
2.207087223E0,-1.336950064E0,5.946900177E1,-1.121400070E1,6.053183806E1
2.209051398E0,2.340000123E-1,5.276205063E1,-9.528000832E0,5.361596350E1
2.211015221E0,6.940500140E-1,4.693605042E1,-7.879950523E0,4.759798477E1
2.212977981E0,8.850000501E-1,4.176195145E1,-7.189950466E0,4.238560135E1
2.214941059E0,1.039050102E0,3.766095352E1,-7.036050320E0,3.832666238E1
2.216904136E0,1.230000019E0,3.401895142E1,-7.381050587E0,3.483219579E1
2.218867213E0,1.614000082E0,3.106800079E1,-7.611000538E0,3.202737889E1
2.220830469E0,2.380050182E0,2.846205139E1,-7.573050499E0,2.954833501E1
2.222793673E0,3.376950264E0,2.604705048E1,-7.381050587E0,2.728245846E1
2.224756554E0,4.372950077E0,2.382405090E1,-7.726050377E0,2.542439671E1
2.226719526E0,5.101050377E0,2.206095123E1,-8.263050079E0,2.410361551E1
2.228682980E0,5.791050434E0,2.041305161E1,-8.838000298E0,2.298563008E1
2.230646293E0,6.558000088E0,1.895700073E1,-9.604050636E0,2.223989727E1
2.232609466E0,7.171050549E0,1.765395164E1,-1.037100029E1,2.169432234E1
2.234572680E0,7.783950329E0,1.657995033E1,-1.090695095E1,2.131774413E1
2.236536093E0,8.053050041E0,1.562205029E1,-1.136700058E1,2.093104805E1
2.238499447E0,8.282999992E0,1.454895115E1,-1.186605072E1,2.052031257E1
2.240462703E0,8.282999992E0,1.378200054E1,-1.171200085E1,1.989277737E1
2.242425987E0,8.282999992E0,1.320795059E1,-1.186605072E1,1.959237626E1
2.244389164E0,8.244000435E0,1.259400082E1,-1.171200085E1,1.907205714E1
2.246352372E0,8.053050041E0,1.213395023E1,-1.132905006E1,1.845079236E1
2.248315582E0,7.861050606E0,1.167405033E1,-1.083105087E1,1.775925761E1
2.250278808E0,7.746000290E0,1.121400070E1,-1.010295010E1,1.696537453E1
2.252242084E0,7.401000500E0,1.090800095E1,-9.106050491E0,1.602121870E1
2.254205346E0,7.132950306E0,1.063995075E1,-8.569950104E0,1.541205946E1
2.256168347E0,7.210050106E0,1.018005085E1,-8.530950546E0,1.511275538E1
2.258131425E0,7.210050106E0,9.757950783E0,-7.879950523E0,1.446706765E1
2.260094861E0,7.248000145E0,9.336000443E0,-6.997950554E0,1.373556414E1
2.262058192E0,7.210050106E0,8.914950371E0,-6.307950497E0,1.308630590E1
2.264020866E0,7.516050339E0,8.532000542E0,-5.848050117E0,1.278615408E1
2.265983733E0,7.554000378E0,8.110050201E0,-5.427000046E0,1.234050913E1
2.267946530E0,7.285950184E0,7.573050499E0,-4.774950027E0,1.154280346E1
2.269909348E0,7.210050106E0,7.267050266E0,-4.047000408E0,1.100786330E1
2.271872604E0,7.401000500E0,6.691950321E0,-3.049950123E0,1.043356139E1
2.273835731E0,7.171050549E0,6.309000492E0,-2.284050226E0,9.820607854E0
2.275798979E0,7.018050194E0,5.848950386E0,-1.402050018E0,9.242780609E0
2.277762192E0,6.903000355E0,5.274000168E0,-6.360000372E-1,8.710395382E0
2.279724932E0,6.250950336E0,4.813950062E0,-3.289500177E-1,7.896626078E0
2.281687810E0,5.485050201E0,4.239000320E0,-1.369500011E-1,6.933516765E0
2.283650904E0,4.642050266E0,3.664050102E0,-4.440000355E-1,5.930516829E0
2.285613946E0,4.143000126E0,3.088950157E0,-7.120500207E-1,5.216615603E0
2.287577164E0,3.415050268E0,2.551950216E0,-9.040500522E-1,4.358018442E0
2.289540331E0,2.686950207E0,1.939050078E0,-6.360000372E-1,3.374035072E0
2.291503078E0,2.111999989E0,1.402950048E0,-3.670500219E-1,2.561940380E0
2.293465948E0,1.384050012E0,6.739500165E-1,-1.369500011E-1,1.545496154E0
2.295427989E0,7.320000529E-1,-1.500000060E-2,3.220500052E-1,7.998532886E-1
2.297390266E0,2.719500065E-1,-5.509500504E-1,1.087950110E0,1.249455164E0
2.299353479E0,4.200000316E-2,-1.432950020E0,1.548000097E0,2.109837449E0
2.301316418E0,-4.930500090E-1,-2.238000154E0,1.816050053E0,2.924000820E0
2.303279339E0,-1.030050039E0,-3.196050167E0,2.275950193E0,4.056561233E0
2.305242266E0,-1.642950058E0,-3.886050224E0,2.698050022E0,5.008008103E0
2.307205518E0,-2.332950115E0,-4.537050247E0,2.889000177E0,5.862917636E0
2.309168664E0,-2.830950022E0,-5.188950062E0,3.004050255E0,6.630520244E0
2.311131730E0,-3.291000128E0,-5.764050484E0,3.273000240E0,7.400506090E0
2.313094820E0,-3.675000191E0,-6.184950352E0,3.502950191E0,8.001868363E0
2.315057579E0,-4.134000301E0,-6.645000458E0,3.808950186E0,8.703682617E0
2.317020435E0,-4.479000092E0,-6.952050209E0,4.192950249E0,9.272177507E0
2.318983684E0,-4.786050320E0,-7.297050476E0,4.690950394E0,9.907483985E0
2.320946818E0,-4.708950043E0,-7.603050232E0,4.959000111E0,1.022605816E1
2.322909931E0,-4.518000126E0,-7.948050499E0,5.304000378E0,1.056959090E1
2.324873050E0,-4.402950287E0,-8.178000450E0,5.341950417E0,1.071457404E1
2.326835940E0,-4.249050140E0,-8.254950523E0,5.266050339E0,1.067379602E1
2.328798897E0,-3.904950142E0,-8.523000717E0,4.921050072E0,1.058805509E1
2.330761848E0,-3.445050240E0,-8.715000153E0,4.690950394E0,1.047972397E1
2.332724777E0,-3.061050177E0,-8.562000275E0,4.269000053E0,1.004501062E1
2.334687654E0,-2.601000071E0,-8.638050079E0,3.886050224E0,9.822550427E0
2.336650546E0,-2.065050125E0,-8.638050079E0,3.733050108E0,9.634106305E0
2.338613654E0,-1.528050065E0,-8.638050079E0,3.618000269E0,9.488981617E0
2.340576698E0,-9.150000215E-1,-8.523000717E0,3.273000240E0,9.175581553E0
2.342539946E0,-3.019500077E-1,-8.407950401E0,3.273000240E0,9.027587404E0
2.344503144E0,4.260000288E-1,-8.293050766E0,3.273000240E0,8.925732329E0
2.346467147E0,9.619500637E-1,-8.140049934E0,3.118950129E0,8.770040522E0
2.348430914E0,1.269000053E0,-7.872000217E0,3.004050255E0,8.520743306E0
2.350393829E0,1.269000053E0,-7.564950466E0,2.812950134E0,8.170160656E0
2.352356993E0,1.039050102E0,-7.297050476E0,2.736000061E0,7.862077785E0
2.354319315E0,8.089500666E-1,-6.874950409E0,2.698050022E0,7.429590652E0
2.356281897E0,4.260000288E-1,-6.454050541E0,2.773950100E0,7.037829464E0
2.358245058E0,1.189500093E-1,-5.994000435E0,3.004050255E0,6.705707140E0
2.360208049E0,-1.870500147E-1,-5.572050095E0,3.273000240E0,6.464925409E0
2.362171007E0,-5.320500135E-1,-5.074050426E0,3.273000240E0,6.061484597E0
2.364133974E0,-8.380500674E-1,-4.498950005E0,3.234000206E0,5.603716302E0
2.366097045E0,-1.068000078E0,-3.924000263E0,3.273000240E0,5.220242600E0
2.368060102E0,-1.068000078E0,-3.502050161E0,3.310950041E0,4.936331601E0
2.370023498E0,-1.068000078E0,-3.081000090E0,3.388050079E0,4.702347186E0
2.371986794E0,-1.106999993E0,-2.620950222E0,3.502950191E0,4.512813878E0
2.373950194E0,-1.106999993E0,-2.199000120E0,3.618000269E0,4.376182864E0
2.375913563E0,-9.919500351E-1,-1.816050053E0,3.426000118E0,4.002434194E0
2.377876752E0,-8.770500422E-1,-1.585950017E0,3.196050167E0,3.674124508E0
2.379840008E0,-7.620000243E-1,-1.279050112E0,3.004050255E0,3.352749791E0
2.381803234E0,-6.079500318E-1,-9.340500236E-1,2.812950134E0,3.025680278E0
2.383766469E0,-4.549500346E-1,-5.890500546E-1,2.659050226E0,2.761251094E0
2.385729159E0,-4.170000255E-1,-3.589500189E-1,2.467950106E0,2.528539472E0
2.387692008E0,-2.250000089E-1,-1.290000081E-1,2.238000154E0,2.252978184E0
2.389654228E0,-1.480500102E-1,2.295000106E-2,2.008050203E0,2.013631329E0
2.391616628E0,4.050000105E-3,2.530499995E-1,1.816050053E0,1.833599874E0
2.393579865E0,8.100000024E-2,5.590500236E-1,1.624950051E0,1.720337350E0
2.395542857E0,1.570500135E-1,7.890000343E-1,1.471050024E0,1.676655580E0
2.397505949E0,2.340000123E-1,1.018950105E0,1.471050024E0,1.804717012E0
2.399469011E0,2.719500065E-1,1.057950020E0,1.356000066E0,1.741249904E0
2.401432042E0,2.719500065E-1,1.134000063E0,1.087950110E0,1.594850586E0
2.403395085E0,5.410500169E-1,1.057950020E0,8.580000401E-1,1.465659385E0
2.405359834E0,8.089500666E-1,1.057950020E0,4.750500321E-1,1.413977011E0
2.407324083E0,1.077000022E0,1.018950105E0,5.295000225E-2,1.483574085E0
2.409286959E0,1.269000053E0,1.018950105E0,-1.759500057E-1,1.636941922E0
2.411250238E0,1.422000051E0,1.018950105E0,-5.590500236E-1,1.836540331E0
2.413213090E0,1.651950121E0,1.018950105E0,-9.420000315E-1,2.157443528E0
2.415176075E0,1.996950150E0,9.810000658E-1,-1.171950102E0,2.514684487E0
2.417139527E0,2.304000139E0,9.810000658E-1,-1.402050018E0,2.869934150E0
2.419102842E0,2.610000134E0,1.057950020E0,-1.671000123E0,3.274690879E0
2.421066014E0,2.992950201E0,1.134000063E0,-1.861950040E0,3.702778011E0
2.423029228E0,3.415050268E0,1.288050056E0,-2.053950071E0,4.188120363E0
2.424992276E0,3.682950258E0,1.518000126E0,-2.169000149E0,4.535747858E0
2.426955377E0,4.066950321E0,1.747950077E0,-2.284050226E0,4.981194618E0
2.428918450E0,4.411950111E0,1.978050113E0,-2.206950188E0,5.314942630E0
2.430881531E0,4.717950344E0,2.169000149E0,-2.206950188E0,5.642184526E0
2.432844787E0,4.948050022E0,2.322000027E0,-2.092050076E0,5.852482949E0
2.434807991E0,5.254950047E0,2.437050104E0,-2.130000114E0,6.171759367E0
2.436770886E0,5.560950279E0,2.476050138E0,-2.206950188E0,6.474999724E0
2.438733858E0,5.830050468E0,2.514000177E0,-2.359950066E0,6.773407537E0
2.440697132E0,6.136050224E0,2.551950216E0,-2.629050016E0,7.146710170E0
2.442660317E0,6.405000210E0,2.476050138E0,-2.820000172E0,7.423425957E0
2.444623556E0,6.520050526E0,2.437050104E0,-2.782050133E0,7.496003936E0
2.446586779E0,6.481050491E0,2.437050104E0,-2.667000055E0,7.419980996E0
2.448549648E0,6.097950459E0,2.590950012E0,-2.245050192E0,6.995589477E0
2.450512623E0,5.485050201E0,2.782050133E0,-1.516950130E0,6.334565206E0
2.452474681E0,4.795050144E0,3.088950157E0,-7.120500207E-1,5.748141803E0
2.454437008E0,4.027950287E0,3.357000113E0,4.360500276E-1,5.261556129E0
2.456399807E0,3.300000191E0,3.702000141E0,1.930950046E0,5.321970911E0
2.458362467E0,2.457000017E0,4.123950005E0,4.000950336E0,6.249113243E0
2.460325420E0,1.729050040E0,4.468950272E0,6.799050331E0,8.317945418E0
2.462288298E0,1.192050099E0,4.966950417E0,9.826950073E0,1.107522134E1
2.464250374E0,5.790000558E-1,5.503950119E0,1.304595089E1,1.417129290E1
2.466212685E0,3.490500152E-1,6.154950142E0,1.580595112E1,1.696565171E1
2.468175667E0,1.189500093E-1,6.883050442E0,1.760700035E1,1.890494628E1
2.470138452E0,4.050000105E-3,7.803000450E0,1.841205025E1,1.999726048E1
2.472101259E0,2.719500065E-1,8.838000298E0,1.822005081E1,2.025227043E1
2.474064063E0,5.020500422E-1,9.873000145E0,1.691700172E1,1.959370137E1
2.476026827E0,3.109500110E-1,1.121400070E1,1.496295071E1,1.870134742E1
2.477989603E0,4.639500082E-1,1.274805069E1,1.273995018E1,1.802870979E1
2.479953091E0,1.345050097E0,1.439595032E1,1.044000053E1,1.783384862E1
2.481916370E0,1.729050040E0,1.654200172E1,7.335000515E0,1.817772449E1
2.483880064E0,1.996950150E0,1.907205009E1,3.388050079E0,1.947330963E1
2.485843654E0,2.074050188E0,2.183100128E1,-9.040500522E-1,2.194792946E1
2.487806464E0,1.843950033E0,2.501205063E1,-5.656950474E0,2.570999644E1
2.489769502E0,1.306950092E0,2.876895142E1,-1.029405022E1,3.058313512E1
2.491732450E0,1.000050068E0,3.298500061E1,-1.508505058E1,3.628455755E1
2.493695425E0,9.240000248E-1,3.704700089E1,-1.999095154E1,4.210667636E1
2.495658489E0,1.000050068E0,4.038195038E1,-2.328705025E1,4.662605201E1
2.497621548E0,1.537050128E0,4.306500244E1,-2.363205147E1,4.914703262E1
2.499584584E0,3.031950235E0,4.524900055E1,-2.198400116E1,5.039802655E1
2.501547627E0,5.446050167E0,4.570905304E1,-1.834305000E1,4.955244167E1
2.503510709E0,7.708050251E0,4.394595337E1,-1.282395077E1,4.642321154E1
2.505473779E0,8.628000259E0,4.137795258E1,-7.266000271E0,4.288790165E1
2.507436713E0,6.826050282E0,3.915495300E1,-3.739950180E0,3.992107882E1
2.509399694E0,2.419050217E0,3.708600235E1,-2.053950071E0,3.722152717E1
2.511361706E0,-2.485950232E0,3.486300278E1,-2.514000177E0,3.504181942E1
2.513324002E0,-6.702000141E0,3.252495193E1,-4.123950005E0,3.346335709E1
2.515287212E0,-1.015200043E1,3.030195236E1,-5.617950439E0,3.244738505E1
2.517250154E0,-1.275795078E1,2.796405220E1,-6.960000515E0,3.151499851E1
2.519213434E0,-1.413795090E1,2.566395187E1,-8.301000595E0,3.045368109E1
2.521176615E0,-1.432995033E1,2.370900154E1,-9.336000443E0,2.923397227E1
2.523139810E0,-1.348605061E1,2.252100182E1,-9.489000320E0,2.791254576E1
2.525103000E0,-1.218300056E1,2.179305077E1,-8.991000175E0,2.653677917E1
2.527065923E0,-1.103295040E1,2.137095070E1,-8.608050346E0,2.554490280E1
2.529028925E0,-1.042005062E1,2.118000031E1,-8.224950790E0,2.499639341E1
2.530991980E0,-1.042005062E1,2.118000031E1,-7.803000450E0,2.486074584E1
2.532955043E0,-1.095705032E1,2.140995026E1,-7.420050144E0,2.516942721E1
2.534917943E0,-1.164705086E1,2.167800140E1,-7.305000305E0,2.567007145E1
2.536880891E0,-1.237500095E1,2.194605064E1,-7.534950256E0,2.629724820E1
2.538843944E0,-1.302600098E1,2.206095123E1,-7.879950523E0,2.680402751E1
2.540806966E0,-1.348605061E1,2.209995079E1,-8.646000862E0,2.729532408E1
2.542770218E0,-1.398495102E1,2.209995079E1,-9.565950394E0,2.784769446E1
2.544733413E0,-1.429095078E1,2.206095123E1,-1.052400017E1,2.831380269E1
2.546696831E0,-1.440600109E1,2.187000084E1,-1.148205090E1,2.859488236E1
2.548660183E0,-1.436805058E1,2.156295013E1,-1.198095036E1,2.854723922E1
2.550623394E0,-1.425300026E1,2.125605011E1,-1.213395023E1,2.832314303E1
2.552586646E0,-1.394595051E1,2.071995163E1,-1.182705021E1,2.763485205E1
2.554550061E0,-1.363995075E1,2.018295097E1,-1.125195026E1,2.683293035E1
2.556513422E0,-1.302600098E1,1.953195000E1,-1.063905048E1,2.577524330E1
2.558476677E0,-1.252800083E1,1.880295181E1,-9.873000145E0,2.465720855E1
2.560439963E0,-1.195305061E1,1.807500076E1,-9.106050491E0,2.350534465E1
2.562403318E0,-1.137795067E1,1.726995087E1,-8.071050644E0,2.220024376E1
2.564366653E0,-1.080300045E1,1.677195168E1,-6.960000515E0,2.112924014E1
2.566330091E0,-1.030500031E1,1.646505165E1,-5.887050152E0,2.029650996E1
2.568293499E0,-9.730050087E0,1.627395058E1,-5.388000488E0,1.971156745E1
2.570256836E0,-9.154950142E0,1.623495102E1,-5.005050182E0,1.929863399E1
2.572220194E0,-8.542050362E0,1.608195114E1,-4.237950325E0,1.869641677E1
2.574182907E0,-8.158950806E0,1.569900036E1,-3.127050161E0,1.796678973E1
2.576145809E0,-7.813950539E0,1.527705097E1,-2.206950188E0,1.730077277E1
2.578108856E0,-7.392000198E0,1.485600090E1,-1.287000060E0,1.664328089E1
2.580071870E0,-7.162050247E0,1.454895115E1,-7.120500207E-1,1.623188093E1
2.582034958E0,-6.931950092E0,1.420395088E1,-5.209500194E-1,1.581377696E1
2.583998024E0,-6.741000175E0,1.385895061E1,-4.060500264E-1,1.541675946E1
2.585961328E0,-6.511050224E0,1.328400040E1,-2.140500098E-1,1.479541344E1
2.587924562E0,-6.241950512E0,1.270905018E1,1.500000060E-2,1.415917115E1
2.589887008E0,-6.127950191E0,1.236405087E1,1.680000126E-1,1.380035331E1
2.591849699E0,-6.051000118E0,1.205805016E1,3.979500234E-1,1.349701968E1
2.593812706E0,-5.859000206E0,1.155900097E1,6.660000086E-1,1.297620680E1
2.595775620E0,-5.706000328E0,1.110000038E1,8.200500607E-1,1.250763488E1
2.597738860E0,-5.476050377E0,1.063995075E1,6.660000086E-1,1.198495873E1
2.599702005E0,-5.245950222E0,1.021800041E1,5.899500251E-1,1.150111156E1
2.601665236E0,-5.053950310E0,9.681000710E0,5.130000114E-1,1.093285679E1
2.603628452E0,-4.671000004E0,9.375000000E0,8.580000401E-1,1.050928304E1
2.605591371E0,-4.288050175E0,9.183000565E0,1.356000066E0,1.022514596E1
2.607554377E0,-3.828000069E0,8.953050613E0,1.585950017E0,9.865390883E0
2.609517645E0,-3.330000162E0,8.838000298E0,1.663050056E0,9.589832419E0
2.611480836E0,-2.908050060E0,8.800050735E0,1.740000129E0,9.430018481E0
2.613444060E0,-2.218050003E0,8.800050735E0,1.663050056E0,9.226395518E0
2.615407284E0,-1.528050065E0,8.838000298E0,1.548000097E0,9.101730086E0
2.617370696E0,-7.620000243E-1,8.914950371E0,1.432950020E0,9.061475041E0
2.619334053E0,-7.200000435E-2,9.067950249E0,1.011000037E0,9.124419258E0
2.621299064E0,5.790000558E-1,9.298050880E0,4.360500276E-1,9.326260283E0
2.623263591E0,1.153950095E0,9.565950394E0,-6.105000153E-2,9.635493493E0
2.625226776E0,1.537050128E0,9.681000710E0,-4.819500148E-1,9.814100756E0
2.627190358E0,1.920000076E0,9.796050072E0,-8.659500480E-1,1.001992349E1
2.629153844E0,2.341950178E0,9.873000145E0,-1.287000060E0,1.022825653E1
2.631117358E0,2.649000168E0,9.757950783E0,-1.594050050E0,1.023600513E1
2.633080720E0,2.992950201E0,9.528000832E0,-1.671000123E0,1.012584773E1
2.635044127E0,3.184950113E0,9.412950516E0,-1.786050081E0,1.009641122E1
2.637007508E0,3.376950264E0,9.298050880E0,-1.861950040E0,1.006600225E1
2.638970896E0,3.682950258E0,9.259950638E0,-1.441050053E0,1.006913272E1
2.640933424E0,3.721950293E0,9.451050758E0,-3.289500177E-1,1.016284815E1
2.642896204E0,3.760050297E0,9.565950394E0,1.011000037E0,1.032799624E1
2.644859691E0,4.182000160E0,9.565950394E0,2.659050226E0,1.077344329E1
2.646822971E0,4.372950077E0,9.720000267E0,4.078050137E0,1.141190565E1
2.648786490E0,4.756950378E0,9.720000267E0,5.457000256E0,1.211964661E1
2.650749952E0,5.254950047E0,9.720000267E0,6.684000492E0,1.291389824E1
2.652713369E0,5.983050346E0,9.565950394E0,7.987050533E0,1.382379378E1
2.654676800E0,6.558000088E0,9.375000000E0,8.677050591E0,1.435928958E1
2.656640177E0,7.132950306E0,9.030000687E0,8.791950226E0,1.448165326E1
2.658603570E0,7.669050217E0,8.532000542E0,8.524050713E0,1.429226382E1
2.660566952E0,8.091000557E0,7.918050289E0,8.140049934E0,1.394346526E1
2.662530338E0,8.628000259E0,7.152000427E0,7.795050144E0,1.365123823E1
2.664493497E0,9.010950089E0,6.499950409E0,7.450050354E0,1.337721298E1
2.666456722E0,9.163949966E0,5.848950386E0,6.991050243E0,1.292528464E1
2.668419953E0,8.934000015E0,5.427000046E0,6.454050541E0,1.228509073E1
2.670383182E0,8.128950119E0,5.158950329E0,5.802000046E0,1.124089868E1
2.672346234E0,7.056000233E0,5.044050217E0,5.151000023E0,1.008773429E1
2.674309338E0,6.021000385E0,4.929000378E0,4.690950394E0,9.085840960E0
2.676272454E0,5.215950012E0,4.774950027E0,4.423050404E0,8.340842713E0
2.678235567E0,4.527000427E0,4.507050037E0,4.423050404E0,7.769852494E0
2.680198818E0,4.066950321E0,4.085999966E0,4.308000088E0,7.196828843E0
2.682162028E0,3.721950293E0,3.511050224E0,4.231050014E0,6.639440630E0
2.684125210E0,3.453000069E0,2.896950245E0,4.269000053E0,6.208050552E0
2.686088406E0,3.223050117E0,2.398950100E0,4.345950127E0,5.918639721E0
2.688051641E0,2.917050123E0,1.671000123E0,4.308000088E0,5.464456751E0
2.690014865E0,2.764050245E0,1.057950020E0,4.231050014E0,5.163430665E0
2.691978638E0,2.686950207E0,3.289500177E-1,4.116000175E0,4.926394927E0
2.693942250E0,2.686950207E0,-2.830500007E-1,3.963000298E0,4.796372595E0
2.695905106E0,2.686950207E0,-9.340500236E-1,3.847950220E0,4.785276560E0
2.697868180E0,2.686950207E0,-1.816050053E0,3.694050074E0,4.915663247E0
2.699831212E0,2.610000134E0,-2.467050076E0,3.618000269E0,5.097878257E0
2.701794257E0,2.494950056E0,-3.234000206E0,3.579000235E0,5.430725163E0
2.703757204E0,2.494950056E0,-3.924000263E0,3.618000269E0,5.891729779E0
2.705720180E0,2.533950090E0,-4.575000286E0,3.618000269E0,6.359359765E0
2.707683253E0,2.380050182E0,-5.149950027E0,3.426000118E0,6.627526006E0
2.709646312E0,2.380050182E0,-5.802000046E0,3.157950163E0,7.021430953E0
2.711609392E0,2.304000139E0,-6.415050507E0,2.889000177E0,7.403216306E0
2.713572466E0,2.188950062E0,-6.990000248E0,2.583000183E0,7.766820185E0
2.715535678E0,2.111999989E0,-7.488000393E0,2.085000038E0,8.054683047E0
2.717498850E0,2.111999989E0,-7.987050533E0,1.701000094E0,8.434863454E0
2.719462130E0,1.882050037E0,-8.407950401E0,1.510050058E0,8.747342080E0
2.721425351E0,1.575000048E0,-8.791950226E0,1.356000066E0,9.034254264E0
2.723388583E0,1.459950089E0,-8.868000031E0,1.050000072E0,9.048501476E0
2.725351812E0,1.269000053E0,-9.021000862E0,9.730500579E-1,9.161639815E0
2.727315043E0,1.114950061E0,-9.060000420E0,9.730500579E-1,9.180062508E0
2.729278274E0,8.850000501E-1,-8.983050346E0,1.356000066E0,9.127823114E0
2.731240814E0,6.550500393E-1,-8.907000542E0,1.585950017E0,9.070776519E0
2.733203536E0,4.639500082E-1,-8.791950226E0,1.777950048E0,8.981912088E0
2.735166673E0,4.260000288E-1,-8.677050591E0,1.777950048E0,8.867569529E0
2.737129688E0,4.260000288E-1,-8.562000275E0,1.777950048E0,8.755023193E0
2.739093902E0,5.410500169E-1,-8.485050201E0,1.701000094E0,8.670767749E0
2.741057765E0,6.940500140E-1,-8.254950523E0,1.510050058E0,8.420579834E0
2.743021438E0,8.470500112E-1,-7.987050533E0,1.432950020E0,8.158665069E0
2.744985160E0,8.850000501E-1,-7.450050354E0,1.356000066E0,7.623989215E0
2.746948441E0,1.039050102E0,-6.874950409E0,1.240950108E0,7.062897805E0
2.748911852E0,1.192050099E0,-6.147000313E0,1.203000069E0,6.376033677E0
2.750875277E0,1.269000053E0,-5.457000256E0,1.203000069E0,5.730307329E0
2.752838697E0,1.345050097E0,-4.843950272E0,1.165050030E0,5.160460790E0
2.754801856E0,1.459950089E0,-4.269000053E0,1.203000069E0,4.669370930E0
2.756765088E0,1.729050040E0,-3.808950186E0,1.240950108E0,4.363218162E0
2.758727958E0,1.996950150E0,-3.463950157E0,1.356000066E0,4.222025198E0
2.760690934E0,2.188950062E0,-3.118950129E0,1.356000066E0,4.044513377E0
2.762653894E0,2.457000017E0,-2.889000177E0,1.395000100E0,4.040940038E0
2.764616858E0,2.572050095E0,-2.620950222E0,1.471050024E0,3.955857673E0
2.766580297E0,2.764050245E0,-2.428950071E0,1.471050024E0,3.962797040E0
2.768543577E0,2.955000162E0,-2.314050198E0,1.471050024E0,4.031233366E0
2.770506845E0,3.070050240E0,-2.199000120E0,1.432950020E0,4.039078578E0
2.772470117E0,3.108000040E0,-2.122950077E0,1.318050027E0,3.987961528E0
2.774433341E0,3.147000074E0,-1.969050050E0,1.050000072E0,3.857883839E0
2.776396579E0,3.184950113E0,-1.816050053E0,7.429500222E-1,3.740844791E0
2.778361043E0,3.184950113E0,-1.701000094E0,3.600000143E-1,3.628623507E0
2.780325134E0,3.300000191E0,-1.509000063E0,-6.105000153E-2,3.629160998E0
2.782288083E0,3.453000069E0,-1.393950105E0,-6.360000372E-1,3.777671560E0
2.784251367E0,3.607050180E0,-1.203000069E0,-1.326000094E0,4.026946290E0
2.786214723E0,3.837000132E0,-1.048950076E0,-2.169000149E0,4.530720463E0
2.788178057E0,4.182000160E0,-8.959500194E-1,-3.012000084E0,5.231060723E0
2.790141305E0,4.564949989E0,-5.130000114E-1,-3.664050102E0,5.875985072E0
2.792104555E0,5.101050377E0,-2.059500068E-1,-4.123950005E0,6.562780965E0
2.794066881E0,5.523000240E0,9.900000691E-2,-4.162050247E0,6.916357055E0
2.796029478E0,5.868000507E0,7.890000343E-1,-3.357000113E0,6.806276571E0
2.797992141E0,5.868000507E0,1.633050084E0,-1.747050047E0,6.336597383E0
2.799954784E0,5.560950279E0,2.590950012E0,1.011000037E0,6.217661220E0
2.801918089E0,5.025000095E0,3.702000141E0,5.112000465E0,8.067712176E0
2.803881187E0,4.297049999E0,4.890000343E0,1.005705070E1,1.198002550E1
2.805844261E0,3.453000069E0,6.001950264E0,1.480905056E1,1.634792326E1
2.807807343E0,2.764050245E0,7.075050354E0,1.867995071E1,2.016523915E1
2.809770419E0,2.111999989E0,8.416950226E0,2.109495163E1,2.281014203E1
2.811733497E0,1.422000051E0,1.021800041E1,2.190000153E1,2.420825651E1
2.813696378E0,1.039050102E0,1.209600067E1,2.121000099E1,2.443884202E1
2.815659328E0,1.077000022E0,1.359105110E1,1.910205078E1,2.346838178E1
2.817622246E0,1.843950033E0,1.431900024E1,1.607400131E1,2.160572697E1
2.819585174E0,3.108000040E0,1.443405056E1,1.132200050E1,1.860615960E1
2.821549042E0,3.952050209E0,1.474095058E1,5.074050426E0,1.608291991E1
2.823512634E0,4.143000126E0,1.531605053E1,-2.284050226E0,1.603005737E1
2.825475379E0,3.337950230E0,1.661894989E1,-9.220950127E0,1.929656261E1
2.827438386E0,1.537050128E0,1.949295044E1,-1.500900078E1,2.464970069E1
2.829400619E0,-9.919500351E-1,2.347905159E1,-1.853505135E1,2.992988401E1
2.831363079E0,-3.904950142E0,2.823195076E1,-1.922504997E1,3.437868854E1
2.833326035E0,-6.778950214E0,3.428805161E1,-1.784505081E1,3.924373182E1
2.835288846E0,-9.270000458E0,4.137795258E1,-1.558305073E1,4.517631390E1
2.837251862E0,-1.229805088E1,5.004000092E1,-1.224900055E1,5.296491066E1
2.839214798E0,-1.540305042E1,5.931600189E1,-8.991000175E0,6.193932617E1
2.841177675E0,-1.781700134E1,6.740295410E1,-6.270000458E0,6.999940474E1
2.843140569E0,-1.981005096E1,7.387995148E1,-6.499950409E0,7.676545255E1
2.845102055E0,-1.981005096E1,7.748295593E1,-8.683950424E0,8.044537012E1
2.847063954E0,-1.812405014E1,7.844100189E1,-1.186605072E1,8.137736252E1
2.849028498E0,-1.544100094E1,7.840305328E1,-1.539195061E1,8.137797870E1
2.850992264E0,-1.237500095E1,7.732995605E1,-1.635000038E1,8.000240787E1
2.852955089E0,-9.001950264E0,7.499205017E1,-1.558305073E1,7.712116550E1
2.854918190E0,-5.284050465E0,7.004700470E1,-1.362900066E1,7.155594815E1
2.856881217E0,-2.485950232E0,6.288000488E1,-1.136700058E1,6.394750710E1
2.858844266E0,-1.987950087E0,5.544495392E1,-9.834000587E0,5.634538515E1
2.860807163E0,-2.448000193E0,4.889100266E1,-9.144000053E0,4.979895162E1
2.862770108E0,-2.908050060E0,4.329495239E1,-9.336000443E0,4.438547693E1
2.864733071E0,-3.138000250E0,3.854205322E1,-9.834000587E0,3.990043207E1
2.866696029E0,-3.291000128E0,3.463305283E1,-1.048605061E1,3.633505590E1
2.868658902E0,-2.908050060E0,3.126000214E1,-1.098405075E1,3.326099607E1
2.870621800E0,-2.601000071E0,2.823195076E1,-1.140600014E1,3.055986067E1
2.872584626E0,-1.950000048E0,2.593200111E1,-1.163595009E1,2.848976161E1
2.874547449E0,-1.336950064E0,2.382405090E1,-1.186605072E1,2.664912750E1
2.876510568E0,-5.320500135E-1,2.198505020E1,-1.194195080E1,2.502470177E1
2.878473601E0,8.100000024E-2,2.037495041E1,-1.209600067E1,2.369511337E1
2.880437181E0,9.240000248E-1,1.891800117E1,-1.267095089E1,2.278810086E1
2.882400601E0,1.345050097E0,1.761495018E1,-1.320705032E1,2.205723935E1
2.884363801E0,1.575000048E0,1.642695045E1,-1.339905071E1,2.125699618E1
2.886327065E0,2.035050154E0,1.543095112E1,-1.343700027E1,2.056231159E1
2.888290290E0,2.265000105E0,1.462605095E1,-1.355205059E1,2.006762734E1
2.890253526E0,2.494950056E0,1.382100105E1,-1.374405098E1,1.965054155E1
2.892216576E0,2.419050217E0,1.328400040E1,-1.359000111E1,1.915736413E1
2.894179680E0,2.380050182E0,1.270905018E1,-1.305405045E1,1.837369936E1
2.896142412E0,2.533950090E0,1.213395023E1,-1.213395023E1,1.734607735E1
2.898105239E0,2.764050245E0,1.163595009E1,-1.190400028E1,1.687425646E1
2.900068222E0,3.108000040E0,1.129095078E1,-1.144395065E1,1.637404166E1
2.902031160E0,2.917050123E0,1.094595051E1,-1.037100029E1,1.535840685E1
2.903994396E0,2.610000134E0,1.037100029E1,-9.106050491E0,1.404599243E1
2.905957544E0,2.649000168E0,9.835050583E0,-8.224950790E0,1.309180039E1
2.907920769E0,2.917050123E0,9.106050491E0,-7.650000572E0,1.224548267E1
2.909883986E0,2.917050123E0,8.416950226E0,-7.036050320E0,1.135166228E1
2.911846724E0,2.917050123E0,7.957050323E0,-6.307950497E0,1.056475607E1
2.913809603E0,2.992950201E0,7.458000183E0,-5.503050327E0,9.739767992E0
2.915772668E0,2.725050211E0,6.922050476E0,-4.736999989E0,8.819288539E0
2.917735678E0,2.188950062E0,6.270000458E0,-4.200000286E0,7.857761164E0
2.919698599E0,1.804950118E0,5.809950352E0,-3.664050102E0,7.102015993E0
2.921661570E0,1.269000053E0,5.427000046E0,-3.088950157E0,6.372150634E0
2.923624260E0,6.169500351E-1,5.044050217E0,-2.590050220E0,5.703633060E0
2.925587032E0,1.570500135E-1,4.584000111E0,-2.092050076E0,5.041269209E0
2.927549980E0,-3.299999982E-2,4.123950005E0,-1.747050047E0,4.478865538E0
2.929512876E0,-2.629500031E-1,3.894000292E0,-1.516950130E0,4.187304464E0
2.931476339E0,-7.620000243E-1,3.433950186E0,-1.249050021E0,3.732664447E0
2.933439640E0,-1.222050071E0,2.551950216E0,-8.659500480E-1,2.959007565E0
2.935403219E0,-2.026050091E0,1.363950014E0,-6.739500165E-1,2.533662810E0
2.937366717E0,-2.793000221E0,1.759500057E-1,-5.590500236E-1,2.853829983E0
2.939329948E0,-3.138000250E0,-7.429500222E-1,9.195000678E-2,3.226061857E0
2.941293258E0,-3.291000128E0,-1.738950133E0,8.959500194E-1,3.828492633E0
2.943256460E0,-3.291000128E0,-2.697000027E0,1.203000069E0,4.421730448E0
2.945219704E0,-3.520950079E0,-3.655950069E0,1.279950023E0,5.234628204E0
2.947182707E0,-3.712950230E0,-4.461000443E0,1.165050030E0,5.919785970E0
2.949145781E0,-3.712950230E0,-5.494950294E0,1.050000072E0,6.714385921E0
2.951109263E0,-3.559950113E0,-6.415050507E0,1.203000069E0,7.434603350E0
2.953072625E0,-3.330000162E0,-7.105050564E0,1.510050058E0,7.990675552E0
2.955035821E0,-3.022950172E0,-7.680000305E0,1.624950051E0,8.411961430E0
2.956999075E0,-2.716050148E0,-8.217000008E0,1.740000129E0,8.827435527E0
2.958962436E0,-2.485950232E0,-8.599950790E0,1.893000126E0,9.150002821E0
2.960925765E0,-2.218050003E0,-8.983050346E0,2.238000154E0,9.519642012E0
2.962888980E0,-1.987950087E0,-9.175050735E0,2.620950222E0,9.746942167E0
2.964852229E0,-1.605000019E0,-9.213000298E0,3.196050167E0,9.882820256E0
2.966815302E0,-1.068000078E0,-9.213000298E0,4.000950336E0,1.010087136E1
2.968778440E0,-6.079500318E-1,-9.250950813E0,4.690950394E0,1.039012559E1
2.970742001E0,-7.200000435E-2,-9.213000298E0,5.266050339E0,1.061206128E1
2.972705438E0,3.490500152E-1,-9.175050735E0,5.611050129E0,1.076044959E1
2.974669355E0,1.000050068E0,-9.060000420E0,5.764050484E0,1.078461801E1
2.976633131E0,1.614000082E0,-9.021000862E0,5.649000168E0,1.076543802E1
2.978595939E0,1.996950150E0,-8.907000542E0,5.227050304E0,1.051877005E1
2.980559041E0,2.457000017E0,-8.677050591E0,4.843950272E0,1.023679199E1
2.982522292E0,2.992950201E0,-8.485050201E0,4.614000320E0,1.011151951E1
2.984485500E0,3.453000069E0,-8.217000008E0,4.537950039E0,1.000176430E1
2.986448691E0,3.952050209E0,-7.909950256E0,4.653000355E0,9.991817963E0
2.988411887E0,4.450050354E0,-7.564950466E0,5.151000023E0,1.017665097E1
2.990375118E0,4.948050022E0,-7.182000160E0,5.649000168E0,1.039112738E1
2.992338342E0,5.140050411E0,-6.798000336E0,6.109050274E0,1.048586773E1
2.994301574E0,5.215950012E0,-6.415050507E0,6.568950176E0,1.055983494E1
2.996264803E0,5.101050377E0,-6.109050274E0,6.913950443E0,1.054248173E1
2.998227720E0,4.833000183E0,-5.725050449E0,7.066950321E0,1.029931455E1
3.000190728E0,4.450050354E0,-5.419050217E0,7.029000282E0,9.928539589E0
3.002154176E0,4.027950287E0,-5.074050426E0,6.991050243E0,9.531272462E0
3.004117495E0,3.607050180E0,-4.651950359E0,6.876000404E0,9.051565318E0
3.006080667E0,2.955000162E0,-4.231050014E0,6.646050453E0,8.414499201E0
3.008043882E0,2.649000168E0,-4.077000141E0,6.301050186E0,7.958791710E0
3.010007294E0,2.227050066E0,-3.847050190E0,6.031950474E0,7.492928245E0
3.011970649E0,1.767000079E0,-3.655950069E0,5.611050129E0,6.926192586E0
3.013933729E0,1.422000051E0,-3.349050045E0,5.188950062E0,6.337461881E0
3.015896887E0,1.230000019E0,-3.042000055E0,4.653000355E0,5.693599625E0
3.017859364E0,8.470500112E-1,-2.659050226E0,4.345950127E0,5.164816002E0
3.019822041E0,3.870000243E-1,-2.275950193E0,3.963000298E0,4.586402693E0
3.021785546E0,2.340000123E-1,-2.008050203E0,3.579000235E0,4.110506575E0
3.023748808E0,-3.299999982E-2,-1.701000094E0,3.349050045E0,3.756411389E0
3.025711830E0,-3.400500119E-1,-1.471050024E0,3.118950129E0,3.465179950E0
3.027674940E0,-4.549500346E-1,-1.240950108E0,2.889000177E0,3.176988941E0
3.029638055E0,-6.850500107E-1,-8.959500194E-1,2.889000177E0,3.101345189E0
3.031601169E0,-7.230000496E-1,-7.429500222E-1,2.851050138E0,3.033676103E0
3.033564600E0,-6.469500065E-1,-4.360500276E-1,2.773950100E0,2.881576495E0
3.035527938E0,-7.230000496E-1,-1.680000126E-1,2.812950134E0,2.909233840E0
3.037490367E0,-6.850500107E-1,2.295000106E-2,2.889000177E0,2.969198923E0
3.039453075E0,-7.999500632E-1,2.910000086E-1,2.928000212E0,3.049227172E0
3.041416259E0,-9.529500604E-1,5.590500236E-1,3.004050255E0,3.200776262E0
3.043379304E0,-9.150000215E-1,7.890000343E-1,3.273000240E0,3.488878999E0
3.045342702E0,-8.770500422E-1,1.057950020E0,3.502950191E0,3.762862616E0
3.047305996E0,-8.380500674E-1,1.288050056E0,3.771000147E0,4.072080914E0
3.049269386E0,-8.770500422E-1,1.518000126E0,3.924000263E0,4.297827268E0
3.051232755E0,-8.380500674E-1,1.708950043E0,3.924000263E0,4.361263146E0
3.053195648E0,-7.620000243E-1,1.900950074E0,3.808950186E0,4.324622150E0
3.055158680E0,-3.780000210E-1,2.053950071E0,3.579000235E0,4.143770938E0
3.057121719E0,4.200000316E-2,2.169000149E0,3.234000206E0,3.894237150E0
3.059084755E0,3.109500110E-1,2.208000183E0,3.081000090E0,3.803224457E0
3.061048605E0,5.020500422E-1,2.245950222E0,2.928000212E0,3.724182042E0
3.063012217E0,8.470500112E-1,2.322000027E0,2.851050138E0,3.773283018E0
3.064975158E0,1.269000053E0,2.322000027E0,2.736000061E0,3.806276605E0
3.066938296E0,1.575000048E0,2.092950106E0,2.430000067E0,3.572949149E0
3.068901362E0,2.074050188E0,2.053950071E0,1.930950046E0,3.499851876E0
3.070864450E0,2.686950207E0,1.747950077E0,1.356000066E0,3.480483740E0
3.072828425E0,3.070050240E0,1.671000123E0,6.280500293E-1,3.551323236E0
3.074792140E0,3.492000103E0,1.402950048E0,-9.900000691E-2,3.764589561E0
3.076755154E0,3.913050175E0,1.326000094E0,-9.810000658E-1,4.246480784E0
3.078718373E0,4.335000038E0,1.326000094E0,-1.632000089E0,4.818083215E0
3.080681604E0,4.642050266E0,1.363950014E0,-2.437050104E0,5.417398225E0
3.082644832E0,5.025000095E0,1.326000094E0,-3.204000235E0,6.105286211E0
3.084608064E0,5.407950401E0,1.479000092E0,-3.894000292E0,6.826170748E0
3.086571294E0,5.868000507E0,1.671000123E0,-4.582950115E0,7.630799639E0
3.088534481E0,6.289950371E0,1.900950074E0,-5.235000134E0,8.401328065E0
3.090497680E0,6.787950516E0,2.131050110E0,-5.887050152E0,9.234446722E0
3.092460601E0,7.248000145E0,2.437050104E0,-6.346950531E0,9.937630520E0
3.094423604E0,7.669050217E0,2.782050133E0,-6.921000481E0,1.069833547E1
3.096387198E0,7.975950241E0,3.204000235E0,-7.381050587E0,1.132966493E1
3.098350612E0,8.206049919E0,3.664050102E0,-7.611000538E0,1.177675030E1
3.100313993E0,8.436000824E0,4.009050369E0,-7.611000538E0,1.204848223E1
3.102277383E0,8.436000824E0,4.507050037E0,-7.228050232E0,1.198850783E1
3.104240631E0,8.473950386E0,4.774950027E0,-6.460950375E0,1.167698003E1
3.106203921E0,8.436000824E0,5.005050182E0,-5.197050095E0,1.110071921E1
3.108166805E0,8.359050751E0,5.235000134E0,-3.472050190E0,1.045629420E1
3.110129791E0,8.206049919E0,5.389050484E0,-1.479000092E0,9.928170106E0
3.112092163E0,7.975950241E0,5.619000435E0,8.580000401E-1,9.794136624E0
3.114054715E0,7.554000378E0,5.964000225E0,3.310950041E0,1.017814377E1
3.116018061E0,7.018050194E0,6.346950531E0,6.223950386E0,1.132582747E1
3.117981174E0,6.328050137E0,6.768000126E0,9.367050171E0,1.317541928E1
3.119944196E0,5.560950279E0,7.036950111E0,1.243305016E1,1.533047850E1
3.121907248E0,4.909950256E0,7.420050144E0,1.530795097E1,1.770587808E1
3.123870373E0,4.335000038E0,7.918050289E0,1.776105118E1,1.992342051E1
3.125833477E0,3.760050297E0,8.377950668E0,1.967700005E1,2.171433551E1
3.127796729E0,3.337950230E0,8.914950371E0,2.071200180E1,2.279485184E1
3.129759938E0,2.917050123E0,9.565950394E0,2.078805161E1,2.306858639E1
3.131722957E0,2.380050182E0,1.056300068E1,1.960005188E1,2.239204448E1
3.133686026E0,1.575000048E0,1.209600067E1,1.726200104E1,2.113694721E1
3.135648023E0,7.320000529E-1,1.416600037E1,1.381305027E1,1.979928656E1
3.137610334E0,-3.400500119E-1,1.646505165E1,9.367050171E0,1.894611276E1
3.139574262E0,-9.529500604E-1,1.891800117E1,4.345950127E0,1.943414945E1
3.141537717E0,-1.030050039E0,2.156295013E1,-8.659500480E-1,2.160489970E1
3.143500595E0,-1.144950032E0,2.409300041E1,-6.346950531E0,2.494127824E1
3.145463642E0,-1.911000133E0,2.696700096E1,-1.205700016E1,2.960139043E1
3.147426723E0,-2.563050032E0,3.022500229E1,-1.753800011E1,3.503857070E1
3.149389794E0,-3.175950050E0,3.352095032E1,-2.244405174E1,4.046574141E1
3.151352827E0,-3.828000069E0,3.643395233E1,-2.639205170E1,4.515115569E1
3.153315872E0,-4.018949986E0,3.865695190E1,-2.853795052E1,4.821749173E1
3.155278820E0,-3.483000278E0,4.015200043E1,-2.723505211E1,4.864218840E1
3.157241796E0,-2.716050148E0,4.072695160E1,-2.305695152E1,4.687946809E1
3.159204889E0,-2.140950203E0,4.065000153E1,-1.646505165E1,4.391018353E1
3.161167947E0,-2.065050125E0,3.988395309E1,-9.528000832E0,4.105821411E1
3.163131343E0,-2.755050182E0,3.869505310E1,-4.315050125E0,3.903225709E1
3.165094640E0,-4.786050320E0,3.735405350E1,-1.210950017E0,3.767887990E1
3.167057500E0,-7.315950394E0,3.516900253E1,-6.360000372E-1,3.592751544E1
3.169020488E0,-9.769050598E0,3.210300064E1,-2.782050133E0,3.367160232E1
3.170983579E0,-1.156995010E1,2.834700203E1,-6.691050529E0,3.133985365E1
3.172946640E0,-1.237500095E1,2.424600029E1,-1.060095024E1,2.921282808E1
3.174909900E0,-1.229805088E1,2.068095016E1,-1.221105099E1,2.698246693E1
3.176873101E0,-1.191495037E1,1.815195084E1,-1.167405033E1,2.465244030E1
3.178836373E0,-1.164705086E1,1.673400116E1,-1.063905048E1,2.299717338E1
3.180799631E0,-1.130205059E1,1.608195114E1,-9.489000320E0,2.182674110E1
3.182762858E0,-1.118700027E1,1.608195114E1,-8.455050468E0,2.133696338E1
3.184726094E0,-1.118700027E1,1.619700050E1,-8.340000153E0,2.137866701E1
3.186689279E0,-1.149300098E1,1.646505165E1,-8.991000175E0,2.200057003E1
3.188652479E0,-1.203000069E1,1.688700104E1,-1.006395054E1,2.304723022E1
3.190615599E0,-1.272000027E1,1.730895042E1,-1.098405075E1,2.412566149E1
3.192578729E0,-1.337100029E1,1.773000145E1,-1.148205090E1,2.499948185E1
3.194541436E0,-1.379295063E1,1.803705025E1,-1.121400070E1,2.532458253E1
3.196504267E0,-1.436805058E1,1.838205147E1,-1.079295063E1,2.570658431E1
3.198467520E0,-1.505805111E1,1.864995003E1,-1.029405022E1,2.608702760E1
3.200430650E0,-1.532595062E1,1.880295181E1,-9.873000145E0,2.618991965E1
3.202393759E0,-1.547895050E1,1.880295181E1,-9.910950661E0,2.629402686E1
3.204356878E0,-1.544100094E1,1.868805122E1,-1.033305073E1,2.635222393E1
3.206320307E0,-1.521105099E1,1.861200142E1,-1.079295063E1,2.634901236E1
3.208283645E0,-1.505805111E1,1.857299995E1,-1.129095078E1,2.644214061E1
3.210247218E0,-1.486605072E1,1.834305000E1,-1.140600014E1,2.622143754E1
3.212210722E0,-1.463595104E1,1.807500076E1,-1.113705063E1,2.578663631E1
3.214173921E0,-1.413795090E1,1.788300133E1,-1.060095024E1,2.514087385E1
3.216137199E0,-1.367805099E1,1.769205093E1,-1.010295010E1,2.453909831E1
3.218100422E0,-1.318005085E1,1.742400169E1,-9.183000565E0,2.369888341E1
3.220063661E0,-1.260495090E1,1.704000092E1,-8.224950790E0,2.273535208E1
3.222026890E0,-1.225995064E1,1.684905052E1,-7.113000393E0,2.201798510E1
3.223990122E0,-1.183800030E1,1.677195168E1,-6.270000458E0,2.146507675E1
3.225953147E0,-1.141695023E1,1.661894989E1,-5.464950085E0,2.089023522E1
3.227916219E0,-1.061205006E1,1.657995033E1,-4.927950382E0,2.029273403E1
3.229879116E0,-9.844950676E0,1.654200172E1,-4.545000076E0,1.977922902E1
3.231842065E0,-9.117000580E0,1.642695045E1,-4.237950325E0,1.925940352E1
3.233805208E0,-8.350950241E0,1.627395058E1,-3.931950092E0,1.870935779E1
3.235768294E0,-7.621950150E0,1.612005043E1,-3.433950186E0,1.815880403E1
3.237731524E0,-6.931950092E0,1.600500107E1,-2.704950094E0,1.765017695E1
3.239694698E0,-6.433950424E0,1.562205029E1,-2.014950037E0,1.701482286E1
3.241657805E0,-6.127950191E0,1.527705097E1,-1.249050021E0,1.650757965E1
3.243620931E0,-5.935950279E0,1.489395046E1,-7.890000343E-1,1.605265670E1
3.245584359E0,-5.859000206E0,1.443405056E1,-3.289500177E-1,1.558133201E1
3.247547698E0,-5.782950401E0,1.389705086E1,5.295000225E-2,1.505235336E1
3.249510000E0,-5.743950367E0,1.336095047E1,5.509500504E-1,1.455374554E1
3.251472613E0,-5.859000206E0,1.274805069E1,1.011000037E0,1.406637128E1
3.253435949E0,-5.859000206E0,1.221105099E1,1.432950020E0,1.361950790E1
3.255399073E0,-5.782950401E0,1.167405033E1,1.893000126E0,1.316470341E1
3.257362457E0,-5.668050289E0,1.110000038E1,2.391000032E0,1.269069280E1
3.259325765E0,-5.398950100E0,1.044795036E1,2.659050226E0,1.205731633E1
3.261288983E0,-4.900950432E0,9.757950783E0,3.234000206E0,1.138840094E1
3.263252228E0,-4.288050175E0,9.259950638E0,4.000950336E0,1.096091528E1
3.265215096E0,-3.675000191E0,8.800050735E0,4.192950249E0,1.041764614E1
3.267178075E0,-2.985000134E0,8.416950226E0,4.308000088E0,9.915348792E0
3.269141033E0,-2.256000042E0,8.110050201E0,4.192950249E0,9.404428863E0
3.271103998E0,-1.375050068E0,7.842000484E0,4.116000175E0,8.962655395E0
3.273066928E0,-5.700000525E-1,7.650000572E0,3.694050074E0,8.514306476E0
3.275029858E0,4.200000316E-2,7.458000183E0,3.388050079E0,8.191606318E0
3.276992735E0,2.340000123E-1,7.458000183E0,3.234000206E0,8.132360055E0
3.278955627E0,3.870000243E-1,7.650000572E0,3.426000118E0,8.391052055E0
3.280918554E0,3.870000243E-1,8.071949959E0,3.808950186E0,8.933881949E0
3.282881471E0,4.260000288E-1,8.608050346E0,4.116000175E0,9.550992840E0
3.284845482E0,5.410500169E-1,9.183000565E0,4.384050369E0,1.019019785E1
3.286809169E0,7.320000529E-1,9.757950783E0,4.498950005E0,1.077005008E1
3.288772007E0,1.000050068E0,1.041000080E1,4.384050369E0,1.133966994E1
3.290735094E0,1.345050097E0,1.113795090E1,3.273000240E0,1.168655811E1
3.292697989E0,1.767000079E0,1.163595009E1,1.740000129E0,1.189727802E1
3.294660940E0,2.380050182E0,1.194300079E1,3.979500234E-1,1.218434533E1
3.296624554E0,2.802000046E0,1.221105099E1,-4.060500264E-1,1.253498493E1
3.298587991E0,3.337950230E0,1.224900055E1,-5.970000029E-1,1.270969454E1
3.300550286E0,3.913050175E0,1.217295074E1,1.500000060E-2,1.278643486E1
3.302512916E0,4.219950199E0,1.209600067E1,1.050000072E0,1.285393761E1
3.304476248E0,4.488000393E0,1.198095036E1,2.391000032E0,1.301546004E1
3.306439375E0,4.642050266E0,1.175100040E1,3.886050224E0,1.321877557E1
