"Time (s)","Acceleration x (m/s^2)","Acceleration y (m/s^2)","Acceleration z (m/s^2)","Absolute acceleration (m/s^2)"
3.913604200E-2,3.760050297E0,2.807895088E1,-5.590500236E-1,2.833510187E1
4.109771700E-2,4.219950199E0,2.988000107E1,5.295000225E-2,3.017656785E1
4.306219600E-2,4.680000305E0,3.133605194E1,7.050000429E-1,3.169144331E1
4.502593300E-2,5.215950012E0,3.217995071E1,1.432950020E0,3.263140678E1
4.698988800E-2,5.446050167E0,3.283095169E1,1.510050058E0,3.331382750E1
4.895440600E-2,5.676000118E0,3.298500061E1,1.087950110E0,3.348747345E1
5.091878000E-2,5.638050079E0,3.271605301E1,9.195000678E-2,3.319843653E1
5.288253700E-2,4.680000305E0,3.191100121E1,-1.363950014E0,3.228118276E1
5.484647500E-2,2.992950201E0,3.057000160E1,-2.590050220E0,3.082517006E1
5.680958400E-2,1.614000082E0,2.880705070E1,-3.204000235E0,2.902958464E1
5.877293600E-2,3.490500152E-1,2.712000084E1,-3.586950064E0,2.735840807E1
6.073692000E-2,-1.068000078E0,2.566395187E1,-4.429950237E0,2.606536992E1
6.270071200E-2,-2.563050032E0,2.439900208E1,-5.350050449E0,2.510983010E1
6.466452300E-2,-3.751050234E0,2.324895096E1,-6.193050385E0,2.435031769E1
6.662832800E-2,-4.671000004E0,2.236800194E1,-6.730050087E0,2.382098499E1
6.859222600E-2,-5.361000061E0,2.171595192E1,-7.036050320E0,2.344843051E1
7.055609700E-2,-5.706000328E0,2.106495094E1,-7.228050232E0,2.298989578E1
7.251988900E-2,-5.553000450E0,2.049000168E1,-7.036050320E0,2.236474876E1
7.448370800E-2,-5.476050377E0,1.995300102E1,-6.844950199E0,2.179363946E1
7.644778300E-2,-5.437950134E0,1.968495178E1,-6.615000248E0,2.146687813E1
7.841178300E-2,-5.553000450E0,1.953195000E1,-6.078000069E0,2.119610741E1
8.037560400E-2,-5.974050522E0,1.953195000E1,-5.887050152E0,2.125661567E1
8.233947800E-2,-6.433950424E0,1.960800171E1,-5.733000278E0,2.141814047E1
8.430353300E-2,-7.276950359E0,1.976205063E1,-5.772000313E0,2.183594832E1
8.626751000E-2,-8.005949974E0,1.995300102E1,-6.040050507E0,2.233158514E1
8.823147000E-2,-8.695050240E0,1.999200058E1,-6.193050385E0,2.266358001E1
9.019543500E-2,-9.117000580E0,2.006805038E1,-6.385050297E0,2.294809825E1
9.215926000E-2,-9.654000282E0,2.010600090E1,-6.538050175E0,2.324214047E1
9.412312700E-2,-1.042005062E1,2.018295097E1,-6.576000214E0,2.364683369E1
9.608699300E-2,-1.072695065E1,2.014500046E1,-6.538050175E0,2.374099016E1
9.805087400E-2,-1.076505089E1,2.006805038E1,-6.423000336E0,2.366152785E1
1.000147160E-1,-1.076505089E1,1.987695122E1,-6.346950531E0,2.347899681E1
1.019785690E-1,-1.068795013E1,1.968495178E1,-6.117000103E0,2.321954554E1
1.039425930E-1,-1.057395077E1,1.945500183E1,-5.925000191E0,2.292184893E1
1.059065670E-1,-1.049700069E1,1.907205009E1,-5.542050362E0,2.246429257E1
1.078702030E-1,-1.065000057E1,1.842000008E1,-5.235000134E0,2.191173524E1
1.098339440E-1,-1.053495026E1,1.799805069E1,-5.350050449E0,2.152993371E1
1.117978080E-1,-1.003695011E1,1.757700157E1,-5.427000046E0,2.095575533E1
1.137616350E-1,-9.424050331E0,1.723200035E1,-5.235000134E0,2.032633236E1
1.157254840E-1,-8.964000702E0,1.696395111E1,-4.927950382E0,1.980943313E1
1.176893270E-1,-8.695050240E0,1.669500160E1,-4.582950115E0,1.937344597E1
1.196533340E-1,-8.464950562E0,1.650405121E1,-4.315050125E0,1.904360134E1
1.216173070E-1,-8.350950241E0,1.642695045E1,-4.047000408E0,1.886693625E1
1.235812680E-1,-8.158950806E0,1.635000038E1,-3.855000257E0,1.867490342E1
1.255452320E-1,-7.966950417E0,1.638899994E1,-3.778950214E0,1.861053687E1
1.275092370E-1,-7.621950150E0,1.627395058E1,-3.664050102E0,1.834014325E1
1.294732300E-1,-7.276950359E0,1.619700050E1,-3.549000263E0,1.810779486E1
1.314372760E-1,-6.894000530E0,1.619700050E1,-3.549000263E0,1.795732362E1
1.334013070E-1,-6.511050224E0,1.619700050E1,-3.549000263E0,1.781381495E1
1.353649430E-1,-6.166050434E0,1.619700050E1,-3.549000263E0,1.769063046E1
1.373286940E-1,-5.821050167E0,1.619700050E1,-3.549000263E0,1.757335634E1
1.392925100E-1,-5.514000416E0,1.619700050E1,-3.319050074E0,1.742880143E1
1.412563070E-1,-5.208000183E0,1.612005043E1,-2.974050045E0,1.719954259E1
1.432201480E-1,-4.786050320E0,1.592895031E1,-2.475000143E0,1.681556902E1
1.451839860E-1,-4.363950253E0,1.573695087E1,-1.939050078E0,1.644553434E1
1.471480590E-1,-4.057950020E0,1.546905041E1,-1.363950014E0,1.605050898E1
1.491120630E-1,-3.865950108E0,1.520100117E1,-8.269500136E-1,1.570668180E1
1.510758840E-1,-3.751050234E0,1.485600090E1,-2.520000041E-1,1.532431547E1
1.530397580E-1,-3.445050240E0,1.431900024E1,1.300500035E-1,1.472817206E1
1.550030380E-1,-3.330000162E0,1.374405098E1,6.280500293E-1,1.415564500E1
1.569665070E-1,-3.100050211E0,1.324605083E1,1.050000072E0,1.364443748E1
1.589303710E-1,-2.985000134E0,1.263300037E1,1.203000069E0,1.303649237E1
1.608941200E-1,-2.830950022E0,1.194300079E1,1.318050027E0,1.234450493E1
1.628581630E-1,-2.793000221E0,1.159800053E1,1.471050024E0,1.201991908E1
1.648221200E-1,-2.677950144E0,1.129095078E1,1.585950017E0,1.171205464E1
1.667861080E-1,-2.485950232E0,1.125300026E1,1.548000097E0,1.162782300E1
1.687501010E-1,-2.295000076E0,1.125300026E1,1.471050024E0,1.157847263E1
1.707137430E-1,-1.911000133E0,1.129095078E1,1.279950023E0,1.152283659E1
1.726774880E-1,-1.489950061E0,1.113795090E1,9.730500579E-1,1.127921663E1
1.746415310E-1,-1.030050039E0,1.125300026E1,7.810500264E-1,1.132700565E1
1.766054860E-1,-7.230000496E-1,1.152105045E1,7.050000429E-1,1.156522190E1
1.785691890E-1,-4.170000255E-1,1.182795048E1,5.899500251E-1,1.184999336E1
1.805329590E-1,-1.870500147E-1,1.217295074E1,8.959500194E-1,1.220731109E1
1.824967720E-1,1.570500135E-1,1.259400082E1,1.356000066E0,1.266776450E1
1.844605730E-1,4.260000288E-1,1.305405045E1,1.471050024E0,1.314358008E1
1.864255530E-1,6.940500140E-1,1.343700027E1,1.471050024E0,1.353509032E1
1.883901880E-1,1.000050068E0,1.374405098E1,1.471050024E0,1.385868052E1
1.903543760E-1,1.230000019E0,1.405095100E1,1.510050058E0,1.418528728E1
1.923187090E-1,1.384050012E0,1.435695076E1,1.510050058E0,1.450234053E1
1.942825160E-1,1.729050040E0,1.458705044E1,1.510050058E0,1.476658070E1
1.962464780E-1,2.265000105E0,1.477905083E1,1.471050024E0,1.502379969E1
1.982104830E-1,2.649000168E0,1.497105026E1,1.240950108E0,1.525416353E1
2.001744760E-1,2.764050245E0,1.504695034E1,7.050000429E-1,1.531495065E1
2.021384090E-1,2.917050123E0,1.504695034E1,3.600000143E-1,1.533132401E1
2.041023770E-1,3.184950113E0,1.474095058E1,5.509500504E-1,1.509115891E1
2.060664270E-1,3.529950142E0,1.420395088E1,1.240950108E0,1.468852361E1
2.080304520E-1,3.913050175E0,1.366695023E1,1.855050087E0,1.433662097E1
2.099946280E-1,4.182000160E0,1.297800064E1,2.620950222E0,1.388477605E1
2.119587600E-1,4.372950077E0,1.221105099E1,3.388050079E0,1.340564590E1
2.139229610E-1,4.680000305E0,1.140600014E1,4.231050014E0,1.303460879E1
2.158871110E-1,5.062950134E0,1.052505016E1,4.959000111E0,1.268864954E1
2.178510860E-1,5.254950047E0,9.720000267E0,5.380950451E0,1.229013966E1
2.198151130E-1,5.407950401E0,8.953050613E0,5.533950329E0,1.183332790E1
2.217792430E-1,5.638050079E0,8.071949959E0,5.496000290E0,1.127608106E1
2.237433420E-1,5.791050434E0,7.228050232E0,5.227050304E0,1.063499084E1
2.257071700E-1,5.905950069E0,6.499950409E0,5.112000465E0,1.016179858E1
2.276710600E-1,5.944950104E0,5.772000313E0,5.074050426E0,9.716193034E0
2.296350780E-1,5.905950069E0,5.119950294E0,4.996950150E0,9.277049533E0
2.315990580E-1,5.791050434E0,4.392000198E0,5.074050426E0,8.864080246E0
2.335631070E-1,5.599950314E0,3.702000141E0,5.151000023E0,8.461503991E0
2.355271350E-1,5.215950012E0,3.166050196E0,5.112000465E0,7.960060121E0
2.374911400E-1,4.872000217E0,2.629050016E0,5.151000023E0,7.561817992E0
2.394551460E-1,4.372950077E0,2.169000149E0,5.074050426E0,7.040826780E0
2.414193240E-1,3.913050175E0,1.633050084E0,4.921050072E0,6.495810038E0
2.433834520E-1,3.453000069E0,1.134000063E0,4.768050194E0,5.995287171E0
2.453473860E-1,2.992950201E0,6.739500165E-1,4.537950039E0,5.477677435E0
2.473113770E-1,2.494950056E0,2.140500098E-1,4.345950127E0,5.015762723E0
2.492761440E-1,1.959000111E0,-9.105000645E-2,4.078050137E0,4.525092756E0
2.512406830E-1,1.575000048E0,-4.360500276E-1,3.924000263E0,4.250710863E0
2.532045470E-1,1.384050012E0,-8.959500194E-1,3.655950069E0,4.010522632E0
2.551686080E-1,1.306950092E0,-1.279050112E0,3.541050196E0,3.985363750E0
2.571321020E-1,1.269000053E0,-1.854000092E0,3.196050167E0,3.906713983E0
2.590957620E-1,8.470500112E-1,-2.083950043E0,2.545050144E0,3.396707485E0
2.610587000E-1,5.020500422E-1,-2.351999998E0,1.969950080E0,3.108803878E0
2.630218770E-1,5.020500422E-1,-2.889000177E0,1.585950017E0,3.333708704E0
2.649870980E-1,5.790000558E-1,-3.426000118E0,1.432950020E0,3.758465596E0
2.669517210E-1,6.169500351E-1,-3.886050224E0,1.279950023E0,4.137666704E0
2.689156150E-1,7.699500322E-1,-4.384050369E0,1.126049995E0,4.591373355E0
2.708797230E-1,9.240000248E-1,-4.882050037E0,8.959500194E-1,5.048852845E0
2.728443350E-1,1.000050068E0,-5.419050217E0,4.750500321E-1,5.530992490E0
2.748088310E-1,1.000050068E0,-5.764050484E0,5.295000225E-2,5.850400142E0
2.767729270E-1,1.077000022E0,-6.147000313E0,-4.060500264E-1,6.253832306E0
2.787371400E-1,1.077000022E0,-6.415050507E0,-8.269500136E-1,6.557182960E0
2.807011030E-1,1.039050102E0,-6.684000492E0,-1.134000063E0,6.858676537E0
2.826651400E-1,1.039050102E0,-6.913050175E0,-1.326000094E0,7.115347081E0
2.846291490E-1,1.000050068E0,-6.952050209E0,-1.555950046E0,7.193892048E0
2.865931550E-1,8.850000501E-1,-7.027950287E0,-1.671000123E0,7.277880992E0
2.885571540E-1,8.089500666E-1,-6.990000248E0,-1.747050047E0,7.250288790E0
2.905211550E-1,6.550500393E-1,-6.837000370E0,-1.594050050E0,7.050862371E0
2.924842540E-1,4.639500082E-1,-6.684000492E0,-1.363950014E0,6.837504796E0
2.944476170E-1,3.109500110E-1,-6.376950264E0,-1.171950102E0,6.491198011E0
2.964117790E-1,1.960500032E-1,-5.917050362E0,-7.890000343E-1,5.972641094E0
2.983757010E-1,1.189500093E-1,-5.304000378E0,-3.670500219E-1,5.318016061E0
3.003393550E-1,-3.299999982E-2,-4.690050125E0,-2.205000073E-2,4.690218052E0
3.023030870E-1,4.050000105E-3,-4.153950214E0,3.220500052E-1,4.166417525E0
3.042665480E-1,4.050000105E-3,-3.541050196E0,6.660000086E-1,3.603138757E0
3.062300880E-1,1.189500093E-1,-3.042000055E0,8.959500194E-1,3.173427150E0
3.081945260E-1,2.340000123E-1,-2.544000149E0,1.126049995E0,2.791895656E0
3.101587010E-1,4.260000288E-1,-2.122950077E0,1.240950108E0,2.495666289E0
3.121236170E-1,5.410500169E-1,-1.738950133E0,1.395000100E0,2.294059277E0
3.140883160E-1,7.699500322E-1,-1.393950105E0,1.395000100E0,2.117060515E0
3.160523780E-1,8.850000501E-1,-1.126049995E0,1.395000100E0,1.999309621E0
3.180166260E-1,1.077000022E0,-8.580000401E-1,1.432950020E0,1.987319520E0
3.199807450E-1,1.269000053E0,-5.890500546E-1,1.471050024E0,2.030105730E0
3.219449150E-1,1.306950092E0,-3.589500189E-1,1.432950020E0,1.972386732E0
3.239090660E-1,1.459950089E0,-1.680000126E-1,1.395000100E0,2.026253574E0
3.258732220E-1,1.690050125E0,-1.290000081E-1,1.356000066E0,2.170632766E0
3.278362490E-1,1.882050037E0,-1.500000060E-2,1.279950023E0,2.276095210E0
3.297996070E-1,2.149950027E0,2.140500098E-1,1.279950023E0,2.511249607E0
3.317639060E-1,2.304000139E0,3.679500222E-1,1.240950108E0,2.642680652E0
3.337279230E-1,2.533950090E0,5.209500194E-1,1.165050030E0,2.837187614E0
3.356919210E-1,2.764050245E0,7.510500550E-1,1.165050030E0,3.092149983E0
3.376559250E-1,3.031950235E0,9.430500269E-1,1.087950110E0,3.356441721E0
3.396199680E-1,3.262050152E0,1.096050024E0,9.730500579E-1,3.576188371E0
3.415840000E-1,3.568050146E0,1.210950017E0,8.200500607E-1,3.856146249E0
3.435482860E-1,3.798000097E0,1.402950048E0,6.660000086E-1,4.103246226E0
3.455125140E-1,4.297049999E0,1.518000126E0,6.280500293E-1,4.600370628E0
3.474765210E-1,4.680000305E0,1.747950077E0,6.660000086E-1,5.039969081E0
3.494405930E-1,5.062950134E0,2.053950071E0,8.959500194E-1,5.536686861E0
3.514045810E-1,5.370000362E0,2.245950222E0,1.318050027E0,5.968119651E0
3.533685930E-1,5.638050079E0,2.590950012E0,1.777950048E0,6.454590385E0
3.553323900E-1,5.676000118E0,2.935950041E0,2.506050110E0,6.864187289E0
3.572962650E-1,5.868000507E0,3.280950069E0,3.426000118E0,7.545564268E0
3.592599260E-1,5.830050468E0,3.702000141E0,4.498950005E0,8.242259681E0
3.612236500E-1,5.715000153E0,4.162050247E0,5.533950329E0,8.978223390E0
3.631876960E-1,5.715000153E0,4.736999989E0,6.415950298E0,9.811463391E0
3.651516480E-1,5.638050079E0,5.274000168E0,6.913950443E0,1.036365752E1
3.671157920E-1,5.676000118E0,5.887050152E0,7.374000549E0,1.101136780E1
3.690798790E-1,5.715000153E0,6.462000370E0,7.603950500E0,1.149951037E1
3.710439100E-1,5.752950191E0,7.036950111E0,7.450050354E0,1.175237649E1
3.730079580E-1,5.791050434E0,7.726950169E0,6.721950531E0,1.176548524E1
3.749721290E-1,5.791050434E0,8.569950104E0,5.649000168E0,1.178522434E1
3.769362630E-1,5.791050434E0,9.336000443E0,4.000950336E0,1.169208164E1
3.789011260E-1,5.830050468E0,1.037100029E1,2.046000004E0,1.207200280E1
3.808657540E-1,5.715000153E0,1.148295021E1,-9.900000691E-2,1.282689258E1
3.828300080E-1,5.407950401E0,1.274805069E1,-2.359950066E0,1.404735165E1
3.847943710E-1,5.178000450E0,1.385895061E1,-3.855000257E0,1.528866337E1
3.867586690E-1,4.642050266E0,1.523895073E1,-4.392000198E0,1.652464571E1
3.887229870E-1,3.607050180E0,1.692495155E1,-4.698000431E0,1.793142504E1
3.906860620E-1,2.149950027E0,1.876500130E1,-5.197050095E0,1.958971384E1
3.926495110E-1,3.490500152E-1,2.079600143E1,-5.580000401E0,2.153443559E1
3.946133800E-1,-1.222050071E0,2.275095177E1,-5.695050240E0,2.348473568E1
3.965771250E-1,-2.716050148E0,2.493600082E1,-5.005050182E0,2.557795130E1
3.985411690E-1,-4.288050175E0,2.692905045E1,-4.582950115E0,2.765076064E1
4.005051250E-1,-5.590950489E0,2.865405083E1,-4.582950115E0,2.955193374E1
4.024689190E-1,-6.778950214E0,3.079995155E1,-4.582950115E0,3.186839521E1
4.044327850E-1,-7.929000378E0,3.283095169E1,-4.582950115E0,3.408436398E1
4.063968520E-1,-8.772000313E0,3.470895004E1,-4.698000431E0,3.610720718E1
4.083608600E-1,-9.193950653E0,3.608895111E1,-5.082000256E0,3.758680417E1
4.103248150E-1,-9.538950920E0,3.746895218E1,-4.813050270E0,3.896253861E1
4.122887850E-1,-9.691950798E0,3.854205322E1,-4.890000343E0,4.004167679E1
4.142530100E-1,-9.424050331E0,3.969195175E1,-4.698000431E0,4.106500903E1
4.162171630E-1,-9.154950142E0,4.022805023E1,-4.507050037E0,4.150207992E1
4.181809570E-1,-8.772000313E0,4.022805023E1,-5.388000488E0,4.152438518E1
4.201448570E-1,-8.656949997E0,3.973005295E1,-6.078000069E0,4.111401191E1
4.221090080E-1,-8.464950562E0,3.900195312E1,-6.730050087E0,4.047346427E1
4.240730860E-1,-8.197050095E0,3.804405212E1,-6.997950554E0,3.954128026E1
4.260370790E-1,-7.929000378E0,3.704700089E1,-6.730050087E0,3.847912286E1
4.280010930E-1,-7.315950394E0,3.589695358E1,-6.652950287E0,3.723407249E1
4.299649100E-1,-6.549000263E0,3.478605270E1,-6.346950531E0,3.596168306E1
4.319287850E-1,-5.821050167E0,3.367395020E1,-5.887050152E0,3.467674878E1
4.338929860E-1,-4.978050232E0,3.260100174E1,-5.388000488E0,3.341611659E1
4.358570910E-1,-4.210950375E0,3.141300201E1,-5.197050095E0,3.211725593E1
4.378207130E-1,-3.291000128E0,3.018705177E1,-5.158050060E0,3.080088078E1
4.397844770E-1,-2.485950232E0,2.896005058E1,-5.119950294E0,2.951403682E1
4.417485620E-1,-1.720050097E0,2.777205086E1,-5.311950207E0,2.832776370E1
4.437125520E-1,-1.106999993E0,2.666100121E1,-5.695050240E0,2.728494148E1
4.456766890E-1,-4.930500090E-1,2.558700180E1,-6.040050507E0,2.629486584E1
4.476407830E-1,4.050000105E-3,2.470605087E1,-6.499950409E0,2.554678691E1
4.496055270E-1,3.870000243E-1,2.390100098E1,-6.997950554E0,2.490740710E1
4.515700530E-1,8.089500666E-1,2.313405037E1,-7.381050587E0,2.429647288E1
4.535338290E-1,1.077000022E0,2.248305130E1,-7.765050411E0,2.381057607E1
4.554978240E-1,1.269000053E0,2.183100128E1,-8.185950279E0,2.334979144E1
4.574617800E-1,1.345050097E0,2.106495094E1,-8.569950104E0,2.278125025E1
4.594257470E-1,1.345050097E0,2.045100021E1,-8.838000298E0,2.231956135E1
4.613897570E-1,1.422000051E0,1.980000114E1,-8.875950813E0,2.174499097E1
4.633537500E-1,1.422000051E0,1.933995056E1,-8.953050613E0,2.135914060E1
4.653176170E-1,1.498950124E0,1.872705078E1,-8.875950813E0,2.077815645E1
4.672815210E-1,1.651950121E0,1.795995140E1,-8.646000862E0,2.000105308E1
4.692455360E-1,1.651950121E0,1.730895042E1,-8.340000153E0,1.928430208E1
4.712095190E-1,1.651950121E0,1.646505165E1,-7.879950523E0,1.832813371E1
4.731733120E-1,1.804950118E0,1.573695087E1,-7.650000572E0,1.759067868E1
4.751371510E-1,1.996950150E0,1.504695034E1,-7.228050232E0,1.681199675E1
4.771009970E-1,2.149950027E0,1.435695076E1,-6.805950165E0,1.603325537E1
4.790648410E-1,2.380050182E0,1.378200054E1,-6.615000248E0,1.547147071E1
4.810288680E-1,2.494950056E0,1.313100052E1,-6.385050297E0,1.481272486E1
4.829928410E-1,2.533950090E0,1.247895050E1,-6.001950264E0,1.407723395E1
4.849568820E-1,2.572050095E0,1.194300079E1,-5.695050240E0,1.347903212E1
4.869209090E-1,2.649000168E0,1.132905006E1,-5.617950439E0,1.291998237E1
4.888852200E-1,2.725050211E0,1.071600056E1,-5.311950207E0,1.226684073E1
4.908494480E-1,2.572050095E0,1.018005085E1,-4.507050037E0,1.142638950E1
4.928138140E-1,2.955000162E0,9.528000832E0,-3.970050097E0,1.073667190E1
4.947781400E-1,3.070050240E0,8.877000809E0,-3.778950214E0,1.012456501E1
4.967422200E-1,3.262050152E0,8.340000153E0,-2.629050016E0,9.333192258E0
4.987063730E-1,3.108000040E0,7.918050289E0,-1.632000089E0,8.661328358E0
5.006703470E-1,3.070050240E0,7.342950344E0,-1.134000063E0,8.039283822E0
5.026343730E-1,2.839950085E0,6.807000160E0,-8.269500136E-1,7.421887495E0
5.045982330E-1,2.725050211E0,6.346950531E0,-8.269500136E-1,6.956545552E0
5.065621420E-1,2.878050089E0,5.772000313E0,-1.057050109E0,6.535787241E0
5.085263110E-1,2.917050123E0,5.274000168E0,-1.018950105E0,6.112488733E0
5.104903900E-1,2.610000134E0,4.774950027E0,-1.096050024E0,5.550997579E0
5.124540620E-1,2.304000139E0,4.354050159E0,-9.810000658E-1,5.022801067E0
5.144178530E-1,2.035050154E0,4.009050369E0,-7.890000343E-1,4.564694409E0
5.163813480E-1,1.651950121E0,3.664050102E0,-7.890000343E-1,4.095939869E0
5.183449300E-1,1.498950124E0,3.241950035E0,-5.970000029E-1,3.621256758E0
5.203091220E-1,1.345050097E0,2.896950245E0,-3.670500219E-1,3.214997077E0
5.222731450E-1,1.230000019E0,2.476050138E0,-2.205000073E-2,2.764816547E0
5.242361060E-1,1.306950092E0,2.053950071E0,2.830500007E-1,2.450907330E0
5.261993780E-1,1.114950061E0,1.900950074E0,4.750500321E-1,2.254417299E0
5.281632760E-1,1.153950095E0,1.747950077E0,7.810500264E-1,2.235390220E0
5.301269910E-1,9.240000248E-1,1.518000126E0,1.126049995E0,2.103827232E0
5.320912700E-1,9.240000248E-1,1.363950014E0,1.165050030E0,2.017790192E0
5.340553800E-1,7.320000529E-1,1.326000094E0,1.203000069E0,1.934246492E0
5.360182810E-1,6.550500393E-1,1.173000097E0,1.279950023E0,1.855610908E0
5.379815360E-1,4.639500082E-1,1.134000063E0,1.395000100E0,1.856672031E0
5.399467440E-1,5.020500422E-1,9.040500522E-1,1.510050058E0,1.830194503E0
5.419113800E-1,6.169500351E-1,6.360000372E-1,1.585950017E0,1.816689530E0
5.438746860E-1,4.639500082E-1,3.289500177E-1,1.624950051E0,1.721604018E0
5.458383820E-1,3.490500152E-1,1.759500057E-1,1.510050058E0,1.559822264E0
5.478033790E-1,3.490500152E-1,-5.295000225E-2,1.510050058E0,1.550771032E0
5.497679950E-1,3.109500110E-1,-1.680000126E-1,1.548000097E0,1.587834442E0
5.517318450E-1,2.340000123E-1,-3.589500189E-1,1.585950017E0,1.642814225E0
5.536959200E-1,8.100000024E-2,-5.509500504E-1,1.548000097E0,1.645117400E0
5.556601370E-1,4.200000316E-2,-7.429500222E-1,1.548000097E0,1.717568932E0
5.576243080E-1,4.200000316E-2,-1.048950076E0,1.624950051E0,1.934560139E0
5.595879190E-1,4.050000105E-3,-1.318050027E0,1.510050058E0,2.004376076E0
5.615516940E-1,-1.099500060E-1,-1.509000063E0,1.471050024E0,2.110250783E0
5.635158670E-1,-1.870500147E-1,-1.738950133E0,1.432950020E0,2.261035390E0
5.654799230E-1,-1.870500147E-1,-1.930950046E0,1.318050027E0,2.345380920E0
5.674439000E-1,-2.629500031E-1,-2.122950077E0,1.126049995E0,2.417446654E0
5.694079110E-1,-2.250000089E-1,-2.314050198E0,9.349500537E-1,2.505909999E0
5.713719090E-1,-2.629500031E-1,-2.428950071E0,7.050000429E-1,2.542826422E0
5.733359110E-1,-3.400500119E-1,-2.581950188E0,5.899500251E-1,2.670232539E0
5.752999550E-1,-3.780000210E-1,-2.659050226E0,5.130000114E-1,2.734337421E0
5.772639860E-1,-3.780000210E-1,-2.659050226E0,4.750500321E-1,2.727472210E0
5.792276410E-1,-3.780000210E-1,-2.620950222E0,4.750500321E-1,2.690341357E0
5.811913920E-1,-7.200000435E-2,-2.736000061E0,6.280500293E-1,2.808082473E0
5.831556140E-1,4.200000316E-2,-2.659050226E0,8.580000401E-1,2.794365075E0
5.851196980E-1,1.570500135E-1,-2.581950188E0,1.203000069E0,2.852777707E0
5.870836400E-1,1.960500032E-1,-2.467050076E0,1.548000097E0,2.919088210E0
5.890476230E-1,1.570500135E-1,-2.351999998E0,1.969950080E0,3.072014325E0
5.910114450E-1,1.189500093E-1,-2.238000154E0,2.736000061E0,3.536734388E0
5.929753150E-1,1.960500032E-1,-2.122950077E0,3.349050045E0,3.970074160E0
5.949393810E-1,2.719500065E-1,-2.008050203E0,4.039050102E0,4.518865804E0
5.969033900E-1,3.870000243E-1,-1.893000126E0,4.537950039E0,4.932160688E0
5.988682440E-1,5.790000558E-1,-1.777950048E0,4.921050072E0,5.264321537E0
6.008328510E-1,7.699500322E-1,-1.701000094E0,5.151000023E0,5.478962092E0
6.027963930E-1,1.039050102E0,-1.663050056E0,5.266050339E0,5.619310169E0
6.047602430E-1,1.192050099E0,-1.548000097E0,5.151000023E0,5.509091484E0
6.067237280E-1,1.306950092E0,-1.432950020E0,4.882050037E0,5.253177788E0
6.086873200E-1,1.422000051E0,-1.318050027E0,4.653000355E0,5.040808697E0
6.106514340E-1,1.575000048E0,-1.203000069E0,4.384050369E0,4.811208991E0
6.126153950E-1,1.729050040E0,-1.048950076E0,4.192950249E0,4.655184432E0
6.145792170E-1,1.882050037E0,-8.959500194E-1,4.078050137E0,4.579883372E0
6.165430840E-1,1.996950150E0,-7.039500475E-1,3.847950220E0,4.392046956E0
6.185068820E-1,2.188950062E0,-6.280500293E-1,3.886050224E0,4.504146485E0
6.204707000E-1,2.188950062E0,-5.509500504E-1,3.808950186E0,4.427544449E0
6.224349100E-1,2.265000105E0,-4.360500276E-1,3.541050196E0,4.226038522E0
6.243990050E-1,2.265000105E0,-3.210000098E-1,3.273000240E0,3.993218884E0
6.263627760E-1,2.265000105E0,-2.830500007E-1,2.965950251E0,3.742619894E0
6.283266660E-1,2.304000139E0,-2.440500110E-1,2.583000183E0,3.469851149E0
6.302908640E-1,2.265000105E0,-2.059500068E-1,2.200050116E0,3.164310571E0
6.322549710E-1,2.227050066E0,-2.059500068E-1,1.740000129E0,2.833684501E0
6.342185930E-1,2.188950062E0,-1.680000126E-1,1.395000100E0,2.601105853E0
6.361823580E-1,2.149950027E0,-1.680000126E-1,9.730500579E-1,2.365868876E0
6.381471290E-1,2.111999989E0,-1.290000081E-1,4.360500276E-1,2.160399172E0
6.401116300E-1,2.035050154E0,-1.290000081E-1,1.500000060E-2,2.039189822E0
6.420755450E-1,1.996950150E0,-1.290000081E-1,-4.819500148E-1,2.058331052E0
6.440396320E-1,1.804950118E0,-9.105000645E-2,-9.810000658E-1,2.056330752E0
6.460028510E-1,1.729050040E0,-1.500000060E-2,-1.363950014E0,2.202316663E0
6.479663240E-1,1.651950121E0,-1.500000060E-2,-1.786050081E0,2.432928091E0
6.499301170E-1,1.384050012E0,2.295000106E-2,-2.092050076E0,2.508544330E0
6.518938030E-1,1.269000053E0,2.295000106E-2,-2.284050226E0,2.613000818E0
6.538576770E-1,1.000050068E0,2.295000106E-2,-2.551950216E0,2.740999224E0
6.558214950E-1,6.169500351E-1,6.105000153E-2,-2.704950094E0,2.775087289E0
6.577849870E-1,2.719500065E-1,9.900000691E-2,-2.859000206E0,2.873610966E0
6.597485740E-1,-1.099500060E-1,1.380000114E-1,-3.127050161E0,3.132024221E0
6.617126290E-1,-4.170000255E-1,2.530499995E-1,-3.357000113E0,3.392251919E0
6.636765570E-1,-8.380500674E-1,2.910000086E-1,-3.625050068E0,3.732023167E0
6.656408850E-1,-1.183050036E0,3.679500222E-1,-3.817050219E0,4.013086964E0
6.676050950E-1,-1.413000107E0,5.590500236E-1,-3.894000292E0,4.179993362E0
6.695689250E-1,-1.642950058E0,7.890000343E-1,-3.778950214E0,4.195506009E0
6.715328670E-1,-1.720050097E0,1.173000097E0,-3.280050039E0,3.885000621E0
6.734966510E-1,-1.834950089E0,1.594050050E0,-2.169000149E0,3.257698426E0
6.754604820E-1,-1.681950092E0,2.169000149E0,-3.289500177E-1,2.764367174E0
6.774238350E-1,-1.605000019E0,2.743950129E0,1.930950046E0,3.719389123E0
6.793873280E-1,-1.489950061E0,3.511050224E0,4.384050369E0,5.810965712E0
6.813513690E-1,-1.452000022E0,4.315950394E0,6.646050453E0,8.056408535E0
6.833152490E-1,-1.336950064E0,5.119950294E0,8.409000397E0,9.935422194E0
6.852791150E-1,-1.222050071E0,6.040050507E0,9.520050049E0,1.134050129E1
6.872429990E-1,-1.106999993E0,6.997950554E0,9.865050316E0,1.214561562E1
6.892070190E-1,-1.068000078E0,8.071949959E0,9.289950371E0,1.235314447E1
6.911709990E-1,-9.150000215E-1,9.259950638E0,8.025000572E0,1.228757686E1
6.931348240E-1,-8.770500422E-1,1.060095024E1,6.070950508E0,1.224768561E1
6.950986940E-1,-7.620000243E-1,1.205805016E1,3.886050224E0,1.269167459E1
6.970632110E-1,-5.700000525E-1,1.339905071E1,1.548000097E0,1.350021349E1
6.990275380E-1,-4.549500346E-1,1.466400051E1,-9.040500522E-1,1.469888421E1
7.009914830E-1,-4.930500090E-1,1.592895031E1,-3.357000113E0,1.628631346E1
7.029555400E-1,-6.850500107E-1,1.715505028E1,-5.542050362E0,1.804104669E1
7.049193950E-1,-8.380500674E-1,1.880295181E1,-6.805950165E0,2.001435191E1
7.068833090E-1,-9.919500351E-1,2.068095016E1,-7.228050232E0,2.193012482E1
7.088473370E-1,-7.999500632E-1,2.271300125E1,-6.921000481E0,2.375753762E1
7.108113210E-1,-4.170000255E-1,2.474400139E1,-6.193050385E0,2.551065203E1
7.127761800E-1,4.200000316E-2,2.700495148E1,-4.852050304E0,2.743741169E1
7.147407830E-1,7.699500322E-1,2.941995049E1,-3.433950186E0,2.962968652E1
7.167045450E-1,1.729050040E0,3.168105125E1,-2.284050226E0,3.181030506E1
7.186685540E-1,2.686950207E0,3.355905151E1,-1.402050018E0,3.369562856E1
7.206321710E-1,3.529950142E0,3.493905258E1,-5.209500194E-1,3.512078206E1
7.225958860E-1,4.603050232E0,3.574394989E1,1.680000126E-1,3.603950956E1
7.245588980E-1,5.523000240E0,3.589695358E1,9.349500537E-1,3.633137679E1
7.265221160E-1,5.868000507E0,3.555300140E1,1.510050058E0,3.606562893E1
7.284858890E-1,5.370000362E0,3.459405136E1,1.740000129E0,3.505157477E1
7.304494990E-1,4.488000393E0,3.286995316E1,1.816050053E0,3.322459941E1
7.324135570E-1,3.721950293E0,3.049305153E1,1.548000097E0,3.075833887E1
7.343774900E-1,2.839950085E0,2.788695145E1,7.810500264E-1,2.804206513E1
7.363418620E-1,1.804950118E0,2.547195053E1,-9.810000658E-1,2.555465652E1
7.383061050E-1,7.699500322E-1,2.321100044E1,-2.820000172E0,2.339435328E1
7.402692990E-1,-1.099500060E-1,2.106495094E1,-4.582950115E0,2.155800731E1
7.422328000E-1,-6.850500107E-1,1.907205009E1,-6.040050507E0,2.001735743E1
7.441966890E-1,-9.529500604E-1,1.738500023E1,-7.228050232E0,1.885181840E1
7.461604750E-1,-9.150000215E-1,1.612005043E1,-7.879950523E0,1.796627037E1
7.481241980E-1,-5.700000525E-1,1.523895073E1,-8.071050644E0,1.725376417E1
7.500879390E-1,-7.200000435E-2,1.466400051E1,-7.765050411E0,1.659319447E1
7.520519820E-1,1.189500093E-1,1.431900024E1,-7.228050232E0,1.604034374E1
7.540159370E-1,4.200000316E-2,1.428105068E1,-6.691050529E0,1.577086966E1
7.559795850E-1,-3.780000210E-1,1.439595032E1,-6.193050385E0,1.567610100E1
7.579433230E-1,-9.529500604E-1,1.462605095E1,-6.040050507E0,1.585281332E1
7.599068270E-1,-1.605000019E0,1.497105026E1,-5.962950230E0,1.619460239E1
7.618704000E-1,-2.140950203E0,1.531605053E1,-5.962950230E0,1.657473520E1
7.638342920E-1,-2.716050148E0,1.577505112E1,-6.117000103E0,1.713612723E1
7.657980910E-1,-3.214950085E0,1.615904999E1,-6.652950287E0,1.776830178E1
7.677618950E-1,-3.675000191E0,1.650405121E1,-7.189950466E0,1.837347872E1
7.697257010E-1,-4.173000336E0,1.669500160E1,-7.650000572E0,1.883240609E1
7.716895990E-1,-4.824000359E0,1.681005096E1,-7.956000328E0,1.921319167E1
7.736534700E-1,-5.208000183E0,1.681005096E1,-8.071050644E0,1.936086098E1
7.756173130E-1,-5.398950100E0,1.673400116E1,-8.032950401E0,1.933141870E1
7.775811640E-1,-5.476050377E0,1.669500160E1,-7.687950134E0,1.917849795E1
7.795448490E-1,-5.476050377E0,1.654200172E1,-7.228050232E0,1.886450792E1
7.815085690E-1,-5.629050255E0,1.642695045E1,-6.768000126E0,1.863697223E1
7.834722120E-1,-5.859000206E0,1.631204987E1,-6.232050419E0,1.841872163E1
7.854358770E-1,-6.166050434E0,1.615904999E1,-5.617950439E0,1.818506095E1
7.873993940E-1,-6.204000473E0,1.600500107E1,-5.158050060E0,1.792359232E1
7.893629540E-1,-6.204000473E0,1.577505112E1,-4.813050270E0,1.762121768E1
7.913270230E-1,-6.013050079E0,1.558395100E1,-4.507050037E0,1.730115025E1
7.932909470E-1,-5.821050167E0,1.546905041E1,-4.162050247E0,1.704402558E1
7.952547810E-1,-5.743950367E0,1.539195061E1,-3.855000257E0,1.687501515E1
7.972186410E-1,-5.743950367E0,1.539195061E1,-3.549000263E0,1.680775155E1
7.991821690E-1,-5.590950489E0,1.531605053E1,-3.165000200E0,1.660895414E1
8.011457950E-1,-5.590950489E0,1.523895073E1,-2.859000206E0,1.648205779E1
8.031094670E-1,-5.514000416E0,1.512405109E1,-2.629050016E0,1.631113197E1
8.050731150E-1,-5.398950100E0,1.508595085E1,-2.475000143E0,1.621296398E1
8.070371750E-1,-5.476050377E0,1.516200066E1,-2.475000143E0,1.630947630E1
8.090011150E-1,-5.553000450E0,1.531605053E1,-2.322000027E0,1.645627242E1
8.109651250E-1,-5.590950489E0,1.562205029E1,-2.169000149E0,1.673355145E1
8.129291150E-1,-5.553000450E0,1.581405067E1,-2.092050076E0,1.689072782E1
8.148931650E-1,-5.553000450E0,1.615904999E1,-1.900950074E0,1.719198423E1
8.168571630E-1,-5.476050377E0,1.635000038E1,-1.594050050E0,1.731619576E1
8.188210290E-1,-5.208000183E0,1.646505165E1,-1.210950017E0,1.731148728E1
8.207849340E-1,-4.824000359E0,1.650405121E1,-7.510500550E-1,1.721100700E1
8.227490850E-1,-4.402950287E0,1.654200172E1,-2.910000086E-1,1.712041101E1
8.247131630E-1,-4.096050262E0,1.654200172E1,1.300500035E-1,1.704207622E1
8.266763230E-1,-3.712950230E0,1.642695045E1,4.360500276E-1,1.684698312E1
8.286397320E-1,-3.330000162E0,1.615904999E1,9.349500537E-1,1.652506972E1
8.306036520E-1,-3.100050211E0,1.600500107E1,1.395000100E0,1.636204131E1
8.325674220E-1,-2.908050060E0,1.588995075E1,1.432950020E0,1.621729434E1
8.345314170E-1,-2.563050032E0,1.562205029E1,1.395000100E0,1.589225301E1
8.364953460E-1,-2.256000042E0,1.523895073E1,1.395000100E0,1.546806972E1
8.384592190E-1,-2.026050091E0,1.481700039E1,1.432950020E0,1.502337263E1
8.404231120E-1,-1.873050094E0,1.435695076E1,1.395000100E0,1.454566523E1
8.423869500E-1,-1.681950092E0,1.405095100E1,1.240950108E0,1.420556713E1
8.443508040E-1,-1.413000107E0,1.370595074E1,1.126049995E0,1.382453050E1
8.463144240E-1,-1.068000078E0,1.343700027E1,1.050000072E0,1.352021082E1
8.482781120E-1,-7.999500632E-1,1.320795059E1,1.165050030E0,1.328334373E1
8.502423490E-1,-4.930500090E-1,1.309305096E1,1.165050030E0,1.315402688E1
8.522064220E-1,-2.629500031E-1,1.305405045E1,1.050000072E0,1.309885017E1
8.541700950E-1,4.050000105E-3,1.293900108E1,8.200500607E-1,1.296496230E1
8.561338860E-1,1.570500135E-1,1.274805069E1,6.280500293E-1,1.276447837E1
8.580981010E-1,4.260000288E-1,1.255605030E1,7.429500222E-1,1.258522347E1
8.600621920E-1,5.020500422E-1,1.247895050E1,1.011000037E0,1.252989948E1
8.620270820E-1,8.470500112E-1,1.240305042E1,1.471050024E0,1.251867172E1
8.639917350E-1,1.077000022E0,1.240305042E1,1.855050087E0,1.258716806E1
8.659555790E-1,1.306950092E0,1.232595062E1,2.545050144E0,1.265363416E1
8.679196600E-1,1.614000082E0,1.228800011E1,2.851050138E0,1.271724930E1
8.698838250E-1,1.920000076E0,1.228800011E1,2.965950251E0,1.278585968E1
8.718479660E-1,2.111999989E0,1.224900055E1,2.965950251E0,1.277870961E1
8.738118270E-1,2.341950178E0,1.217295074E1,2.773950100E0,1.270276583E1
8.757757560E-1,2.649000168E0,1.198095036E1,2.620950222E0,1.254710139E1
8.777401280E-1,2.878050089E0,1.167405033E1,2.545050144E0,1.228999201E1
8.797043700E-1,3.031950235E0,1.140600014E1,2.506050110E0,1.206523305E1
8.816682840E-1,3.223050117E0,1.102305031E1,2.736000061E0,1.180598943E1
8.836322950E-1,3.376950264E0,1.060095024E1,3.157950163E0,1.156531834E1
8.855959820E-1,3.568050146E0,1.006500053E1,3.618000269E0,1.127497865E1
8.875597610E-1,3.837000132E0,9.412950516E0,4.039050102E0,1.093801322E1
8.895239330E-1,4.066950321E0,8.800050735E0,4.345950127E0,1.062394749E1
8.914879900E-1,4.372950077E0,8.148000717E0,4.729050159E0,1.038636238E1
8.934523860E-1,4.795050144E0,7.497000217E0,5.074050426E0,1.024419376E1
8.954166820E-1,5.178000450E0,6.807000160E0,5.227050304E0,1.002342231E1
8.973809570E-1,5.523000240E0,6.040050507E0,5.112000465E0,9.649781891E0
8.993452320E-1,5.791050434E0,5.311950207E0,4.882050037E0,9.251350858E0
9.013088690E-1,6.097950459E0,4.621950150E0,4.921050072E0,9.097480793E0
9.032726930E-1,6.328050137E0,4.047000408E0,4.959000111E0,9.000784018E0
9.052365420E-1,6.481050491E0,3.433950186E0,5.227050304E0,9.006557846E0
9.072003840E-1,6.711000443E0,2.782050133E0,5.457000256E0,9.086043235E0
9.091644210E-1,6.865050316E0,2.169000149E0,5.764050484E0,9.222676155E0
9.111283940E-1,6.903000355E0,1.594050050E0,6.031950474E0,9.304667430E0
9.130921740E-1,6.750000477E0,1.173000097E0,5.994000435E0,9.103102596E0
9.150560110E-1,6.673050404E0,7.890000343E-1,5.956050396E0,8.979234882E0
9.170199030E-1,6.405000210E0,3.679500222E-1,5.841000080E0,8.676214430E0
9.189837780E-1,6.136050224E0,-1.500000060E-2,5.764050484E0,8.418765666E0
9.209483690E-1,5.791050434E0,-1.680000126E-1,5.611050129E0,8.065257137E0
9.229127300E-1,5.485050201E0,-3.589500189E-1,5.419050217E0,7.718855231E0
9.248766250E-1,5.140050411E0,-5.509500504E-1,5.227050304E0,7.351579359E0
9.268406560E-1,4.756950378E0,-8.580000401E-1,4.768050194E0,6.789627650E0
9.288043350E-1,4.411950111E0,-1.240950108E0,4.078050137E0,6.134798601E0
9.307681170E-1,4.066950321E0,-1.548000097E0,3.234000206E0,5.421729111E0
9.327319870E-1,3.760050297E0,-1.969050050E0,2.391000032E0,4.871551856E0
9.346958210E-1,3.492000103E0,-2.351999998E0,1.740000129E0,4.555608539E0
9.366598500E-1,3.223050117E0,-2.812050104E0,1.432950020E0,4.510989205E0
9.386238210E-1,2.917050123E0,-3.196050167E0,1.240950108E0,4.501541432E0
9.405878260E-1,2.572050095E0,-3.579000235E0,1.087950110E0,4.539638731E0
9.425518210E-1,2.304000139E0,-3.886050224E0,1.203000069E0,4.675148356E0
9.445156430E-1,2.149950027E0,-4.269000053E0,1.356000066E0,4.968438664E0
9.464795160E-1,1.882050037E0,-4.614000320E0,1.432950020E0,5.185022378E0
9.484437170E-1,1.575000048E0,-4.843950272E0,1.510050058E0,5.312695226E0
9.504078210E-1,1.537050128E0,-5.112000465E0,1.585950017E0,5.568690089E0
9.523717600E-1,1.422000051E0,-5.419050217E0,1.548000097E0,5.812443006E0
9.543357470E-1,1.498950124E0,-5.649000168E0,1.471050024E0,6.026777127E0
9.562996190E-1,1.498950124E0,-5.802000046E0,1.356000066E0,6.144004572E0
9.582635210E-1,1.575000048E0,-5.917050362E0,9.730500579E-1,6.199914237E0
9.602283930E-1,1.690050125E0,-6.031950474E0,5.899500251E-1,6.291958119E0
9.621929800E-1,1.690050125E0,-5.994000435E0,2.449500114E-1,6.232520449E0
9.641570610E-1,1.767000079E0,-5.878950119E0,9.195000678E-2,6.139446114E0
9.661212900E-1,1.804950118E0,-5.686950207E0,5.295000225E-2,5.966745452E0
9.680854610E-1,1.498950124E0,-5.149950027E0,-6.105000153E-2,5.364006326E0
9.700496600E-1,1.269000053E0,-4.575000286E0,-1.369500011E-1,4.749709892E0
9.720136260E-1,1.114950061E0,-3.886050224E0,-9.900000691E-2,4.044045127E0
9.739776600E-1,1.000050068E0,-3.271950245E0,5.295000225E-2,3.421777644E0
9.759407070E-1,9.240000248E-1,-2.659050226E0,2.830500007E-1,2.829212161E0
9.779040440E-1,8.850000501E-1,-2.161050081E0,5.509500504E-1,2.399355851E0
9.798684020E-1,1.000050068E0,-1.624050021E0,8.959500194E-1,2.107217371E0
9.818324470E-1,1.000050068E0,-1.240950108E0,1.050000072E0,1.908548521E0
9.837966200E-1,1.114950061E0,-8.580000401E-1,1.165050030E0,1.826641530E0
9.857607550E-1,1.153950095E0,-4.740000367E-1,1.203000069E0,1.733056843E0
9.877247330E-1,1.230000019E0,-2.440500110E-1,1.087950110E0,1.660149360E0
9.896887570E-1,1.269000053E0,-1.290000081E-1,1.087950110E0,1.676495625E0
9.916519720E-1,1.269000053E0,-1.500000060E-2,1.050000072E0,1.647144889E0
9.936154340E-1,1.306950092E0,1.380000114E-1,1.011000037E0,1.658096385E0
9.955797060E-1,1.345050097E0,2.140500098E-1,1.050000072E0,1.719731758E0
9.975437400E-1,1.384050012E0,3.679500222E-1,1.165050030E0,1.846164463E0
9.995077790E-1,1.422000051E0,4.440000355E-1,1.240950108E0,1.938859805E0
1.001471817E0,1.575000048E0,5.209500194E-1,1.471050024E0,2.217205955E0
1.003435783E0,1.651950121E0,5.590500236E-1,1.585950017E0,2.357268247E0
1.005399790E0,1.767000079E0,6.739500165E-1,1.816050053E0,2.621933580E0
1.007363563E0,1.996950150E0,7.129500508E-1,2.122950077E0,3.000504075E0
1.009327405E0,2.074050188E0,8.280000687E-1,2.391000032E0,3.271719647E0
1.011291296E0,2.188950062E0,9.040500522E-1,2.620950222E0,3.532448009E0
1.013255172E0,2.304000139E0,1.018950105E0,2.698050022E0,3.691361521E0
1.015218955E0,2.419050217E0,1.096050024E0,2.698050022E0,3.785842512E0
1.017182776E0,2.533950090E0,1.210950017E0,2.506050110E0,3.763985940E0
1.019146670E0,2.725050211E0,1.249050021E0,2.391000032E0,3.834436825E0
1.021110543E0,2.917050123E0,1.402950048E0,2.275950193E0,3.956943207E0
1.023074520E0,3.147000074E0,1.518000126E0,2.161050081E0,4.108292992E0
1.025038466E0,3.453000069E0,1.671000123E0,2.200050116E0,4.422179485E0
1.027002331E0,3.760050297E0,1.786050081E0,2.275950193E0,4.744249404E0
1.028966227E0,4.143000126E0,1.978050113E0,2.659050226E0,5.305438756E0
1.030930064E0,4.450050354E0,2.169000149E0,3.118950129E0,5.851099017E0
1.032893919E0,4.717950344E0,2.437050104E0,3.733050108E0,6.491065534E0
1.034857584E0,4.833000183E0,2.667000055E0,4.345950127E0,7.025529344E0
1.036821304E0,4.948050022E0,2.974050045E0,4.921050072E0,7.585835913E0
1.038785287E0,4.909950256E0,3.319050074E0,5.304000378E0,7.953371921E0
1.040749206E0,4.795050144E0,3.702000141E0,5.496000290E0,8.179445587E0
1.042713400E0,4.564949989E0,4.009050369E0,5.341950417E0,8.089974507E0
1.044677514E0,4.258049965E0,4.468950272E0,4.843950272E0,7.846423406E0
1.046641720E0,4.027950287E0,5.005050182E0,4.192950249E0,7.671749646E0
1.048605899E0,3.913050175E0,5.542050362E0,3.234000206E0,7.515653080E0
1.050570243E0,3.874950171E0,6.079050064E0,2.085000038E0,7.504486236E0
1.052534528E0,3.721950293E0,6.730050087E0,8.200500607E-1,7.734272445E0
1.054499515E0,3.492000103E0,7.420050144E0,-6.739500165E-1,8.228330176E0
1.056464297E0,3.184950113E0,8.302050591E0,-2.284050226E0,9.180677353E0
1.058428525E0,2.878050089E0,9.336000443E0,-3.970050097E0,1.054539588E1
1.060392915E0,2.380050182E0,1.052505016E1,-5.388000488E0,1.206117196E1
1.062357208E0,1.690050125E0,1.167405033E1,-6.270000458E0,1.335861618E1
1.064321530E0,9.619500637E-1,1.297800064E1,-6.193050385E0,1.441206861E1
1.066284754E0,4.200000316E-2,1.454895115E1,-5.656950474E0,1.561008751E1
1.068248299E0,-1.106999993E0,1.627395058E1,-5.350050449E0,1.716653594E1
1.070212602E0,-2.524950027E0,1.826700020E1,-5.427000046E0,1.922266887E1
1.072176682E0,-4.018949986E0,2.029800034E1,-5.464950085E0,2.140155265E1
1.074141025E0,-5.361000061E0,2.240595055E1,-5.235000134E0,2.362566757E1
1.076105293E0,-6.396000385E0,2.451405144E1,-4.621950150E0,2.575286318E1
1.078069203E0,-7.507050514E0,2.685195160E1,-4.429950237E0,2.823132252E1
1.080033218E0,-8.427000046E0,2.903700066E1,-4.507050037E0,3.056918770E1
1.081997620E0,-8.964000702E0,3.095295143E1,-4.429950237E0,3.252787989E1
1.083961909E0,-9.193950653E0,3.283095169E1,-4.162050247E0,3.434709274E1
1.085925841E0,-9.538950920E0,3.490095139E1,-4.315050125E0,3.643744845E1
1.087889891E0,-9.615000725E0,3.723900223E1,-4.545000076E0,3.872787822E1
1.089854061E0,-9.538950920E0,3.919395065E1,-4.507050037E0,4.058904843E1
1.091818196E0,-9.499950409E0,4.061205292E1,-4.582950115E0,4.195940099E1
1.093782174E0,-9.385050774E0,4.206795120E1,-4.813050270E0,4.337000287E1
1.095746198E0,-9.193950653E0,4.302600098E1,-4.966950417E0,4.427681205E1
1.097710180E0,-8.848950386E0,4.379295349E1,-4.736999989E0,4.492845276E1
1.099674184E0,-8.389050484E0,4.413795090E1,-4.698000431E0,4.517306814E1
1.101638183E0,-7.507050514E0,4.394595337E1,-4.660050392E0,4.482542464E1
1.103602184E0,-6.625950336E0,4.302600098E1,-4.890000343E0,4.380698667E1
1.105566363E0,-5.629050255E0,4.156995010E1,-5.158050060E0,4.226526279E1
1.107530490E0,-4.747950077E0,3.988395309E1,-5.158050060E0,4.049540992E1
1.109494405E0,-3.790050268E0,3.796695328E1,-5.235000134E0,3.851310489E1
1.111458396E0,-3.022950172E0,3.597405243E1,-5.503050327E0,3.651786191E1
1.113422396E0,-2.410050154E0,3.417300034E1,-5.542050362E0,3.470326521E1
1.115386394E0,-1.758000135E0,3.229500198E1,-5.925000191E0,3.288104841E1
1.117350215E0,-1.144950032E0,3.060795212E1,-6.270000458E0,3.126452541E1
1.119314088E0,-6.469500065E-1,2.896005058E1,-6.805950165E0,2.975607554E1
1.121278334E0,-7.200000435E-2,2.734995079E1,-7.266000271E0,2.829875885E1
1.123242471E0,4.260000288E-1,2.581695175E1,-7.879950523E0,2.699611257E1
1.125207484E0,9.240000248E-1,2.447595024E1,-8.530950546E0,2.593651930E1
1.127172240E0,1.230000019E0,2.324895096E1,-8.838000298E0,2.490254746E1
1.129136111E0,1.345050097E0,2.221500015E1,-9.106050491E0,2.404652880E1
1.131100242E0,1.537050128E0,2.137095070E1,-9.298050880E0,2.335666515E1
1.133064223E0,1.651950121E0,2.056605148E1,-9.336000443E0,2.264624289E1
1.135028246E0,1.729050040E0,1.991505051E1,-9.412950516E0,2.209530466E1
1.136992242E0,1.959000111E0,1.926300049E1,-9.489000320E0,2.156251368E1
1.138956246E0,1.959000111E0,1.864995003E1,-9.604050636E0,2.106884207E1
1.140920110E0,1.729050040E0,1.834305000E1,-9.643050194E0,2.079532434E1
1.142884016E0,1.729050040E0,1.765395164E1,-9.757950783E0,2.024522724E1
1.144848027E0,1.690050125E0,1.711695099E1,-9.718950272E0,1.975611994E1
1.146812010E0,1.575000048E0,1.650405121E1,-9.643050194E0,1.917948770E1
1.148775969E0,1.537050128E0,1.596705055E1,-9.373950005E0,1.857902487E1
1.150739935E0,1.729050040E0,1.535400105E1,-9.373950005E0,1.807224117E1
1.152703625E0,1.804950118E0,1.481700039E1,-9.144000053E0,1.750468744E1
1.154667396E0,1.804950118E0,1.420395088E1,-8.875950813E0,1.684614402E1
1.156631030E0,1.804950118E0,1.374405098E1,-8.377950668E0,1.619712443E1
1.158594704E0,1.882050037E0,1.309305096E1,-7.687950134E0,1.529949911E1
1.160558624E0,1.843950033E0,1.259400082E1,-7.305000305E0,1.467555920E1
1.162522471E0,2.188950062E0,1.194300079E1,-7.228050232E0,1.413051593E1
1.164486497E0,2.304000139E0,1.148295021E1,-6.883050442E0,1.358465846E1
1.166450471E0,2.265000105E0,1.098495007E1,-6.346950531E0,1.288732457E1
1.168414087E0,2.304000139E0,1.037100029E1,-5.542050362E0,1.198250332E1
1.170377829E0,2.304000139E0,9.604950905E0,-4.890000343E0,1.102159707E1
1.172341827E0,2.188950062E0,8.877000809E0,-4.123950005E0,1.002993566E1
1.174305750E0,2.074050188E0,8.263050079E0,-3.127050161E0,9.075137658E0
1.176269629E0,2.035050154E0,7.573050499E0,-2.245050192E0,8.156762431E0
1.178233521E0,1.920000076E0,6.844950199E0,-1.402050018E0,7.246067056E0
1.180197315E0,1.767000079E0,6.346950531E0,-7.510500550E-1,6.630998907E0
1.182161137E0,1.459950089E0,5.887050152E0,-2.520000041E-1,6.070610987E0
1.184125166E0,1.345050097E0,5.274000168E0,-5.590500236E-1,5.471450855E0
1.186089135E0,1.345050097E0,4.621950150E0,-7.510500550E-1,4.871925608E0
1.188053140E0,1.306950092E0,4.009050369E0,-9.420000315E-1,4.320644335E0
1.190017135E0,1.306950092E0,3.396000147E0,-1.018950105E0,3.778782192E0
1.191980986E0,1.269000053E0,2.782050133E0,-1.363950014E0,3.348212018E0
1.193944858E0,1.230000019E0,2.284050226E0,-1.402050018E0,2.948818363E0
1.195908924E0,1.114950061E0,1.900950074E0,-1.287000060E0,2.552076405E0
1.197872933E0,1.000050068E0,1.441050053E0,-1.018950105E0,2.028542508E0
1.199836527E0,9.240000248E-1,1.018950105E0,-6.360000372E-1,1.515431097E0
1.201800242E0,8.470500112E-1,6.739500165E-1,-9.900000691E-2,1.086969801E0
1.203762193E0,6.169500351E-1,5.209500194E-1,3.220500052E-1,8.693287493E-1
1.205724647E0,3.870000243E-1,3.679500222E-1,5.509500504E-1,7.672693110E-1
1.207688506E0,2.340000123E-1,2.140500098E-1,8.200500607E-1,8.792357560E-1
1.209651953E0,4.200000316E-2,6.105000153E-2,8.200500607E-1,8.233912831E-1
1.211616589E0,-2.629500031E-1,-1.500000060E-2,9.349500537E-1,9.713389249E-1
1.213580876E0,-3.400500119E-1,-1.290000081E-1,9.349500537E-1,1.003198194E0
1.215544666E0,-4.930500090E-1,-1.680000126E-1,9.730500579E-1,1.103697753E0
1.217508589E0,-4.549500346E-1,-3.979500234E-1,1.050000072E0,1.211546081E0
1.219472646E0,-4.170000255E-1,-6.280500293E-1,1.011000037E0,1.261133195E0
1.221436664E0,-2.629500031E-1,-1.011000037E0,8.959500194E-1,1.376223171E0
1.223400482E0,-3.299999982E-2,-1.356000066E0,9.730500579E-1,1.669326689E0
1.225364358E0,2.719500065E-1,-1.663050056E0,8.959500194E-1,1.908512177E0
1.227328703E0,6.169500351E-1,-1.969050050E0,1.087950110E0,2.332685338E0
1.229292904E0,1.000050068E0,-2.199000120E0,1.165050030E0,2.681984944E0
1.231256555E0,1.230000019E0,-2.428950071E0,1.240950108E0,2.992098873E0
1.233220367E0,1.384050012E0,-2.544000149E0,1.356000066E0,3.197853557E0
1.235184174E0,1.384050012E0,-2.697000027E0,1.432950020E0,3.353020927E0
1.237147983E0,1.537050128E0,-2.773950100E0,1.318050027E0,3.434323533E0
1.239111830E0,1.614000082E0,-2.889000177E0,1.318050027E0,3.562102492E0
1.241075669E0,1.651950121E0,-3.004050255E0,1.203000069E0,3.633244597E0
1.243039517E0,1.498950124E0,-3.118950129E0,1.165050030E0,3.651307019E0
1.245003362E0,1.422000051E0,-3.271950245E0,1.050000072E0,3.718903427E0
1.246967253E0,1.345050097E0,-3.426000118E0,8.959500194E-1,3.788055307E0
1.248931131E0,1.269000053E0,-3.502050161E0,8.959500194E-1,3.831115099E0
1.250894972E0,1.230000019E0,-3.541050196E0,8.580000401E-1,3.845529951E0
1.252858824E0,1.114950061E0,-3.579000235E0,9.730500579E-1,3.872877836E0
1.254822444E0,9.619500637E-1,-3.579000235E0,1.087950110E0,3.862411947E0
1.256786132E0,7.699500322E-1,-3.541050196E0,1.356000066E0,3.869185408E0
1.258750004E0,8.089500666E-1,-3.616950274E0,1.548000097E0,4.016594801E0
1.260713822E0,8.470500112E-1,-3.579000235E0,1.893000126E0,4.136446044E0
1.262677673E0,8.470500112E-1,-3.541050196E0,2.545050144E0,4.442275368E0
1.264641514E0,9.240000248E-1,-3.463950157E0,3.118950129E0,4.751902423E0
1.266605541E0,1.000050068E0,-3.387000084E0,3.771000147E0,5.166460279E0
1.268569514E0,1.077000022E0,-3.349050045E0,4.269000053E0,5.531765243E0
1.270533340E0,1.230000019E0,-3.271950245E0,4.806000233E0,5.942743196E0
1.272497209E0,1.269000053E0,-3.196050167E0,5.112000465E0,6.160977728E0
1.274460899E0,1.345050097E0,-3.157050133E0,5.341950417E0,6.349217240E0
1.276424621E0,1.498950124E0,-3.042000055E0,5.496000290E0,6.458067435E0
1.278388533E0,1.651950121E0,-2.926950216E0,5.572050095E0,6.507205163E0
1.280352389E0,1.804950118E0,-2.773950100E0,5.572050095E0,6.480770505E0
1.282316054E0,1.882050037E0,-2.620950222E0,5.380950451E0,6.274242597E0
1.284279775E0,1.996950150E0,-2.428950071E0,5.304000378E0,6.166038303E0
1.286243792E0,1.959000111E0,-2.238000154E0,5.035950184E0,5.848685355E0
1.288207711E0,1.996950150E0,-1.969050050E0,4.843950272E0,5.597215578E0
1.290171005E0,1.996950150E0,-1.777950048E0,4.690950394E0,5.399438107E0
1.292134483E0,2.035050154E0,-1.624050021E0,4.345950127E0,5.066186939E0
1.294097896E0,1.996950150E0,-1.471050024E0,3.963000298E0,4.675165177E0
1.296061329E0,1.843950033E0,-1.279050112E0,3.655950069E0,4.289765940E0
1.298025038E0,1.767000079E0,-1.126049995E0,3.004050255E0,3.662594136E0
1.299988653E0,1.690050125E0,-8.959500194E-1,2.391000032E0,3.062005392E0
1.301952359E0,1.651950121E0,-5.890500546E-1,1.855050087E0,2.552867015E0
1.303916038E0,1.575000048E0,-3.979500234E-1,1.395000100E0,2.141264732E0
1.305879599E0,1.459950089E0,-1.290000081E-1,8.959500194E-1,1.717795594E0
1.307843194E0,1.422000051E0,2.295000106E-2,1.300500035E-1,1.428118990E0
1.309806659E0,1.384050012E0,2.910000086E-1,-3.289500177E-1,1.452061829E0
1.311770175E0,1.384050012E0,6.739500165E-1,-8.269500136E-1,1.747469423E0
1.313733716E0,1.345050097E0,9.810000658E-1,-1.326000094E0,2.128332009E0
1.315697250E0,1.345050097E0,1.288050056E0,-1.671000123E0,2.502093947E0
1.317660834E0,1.422000051E0,1.594050050E0,-2.014950037E0,2.936512107E0
1.319624404E0,1.459950089E0,2.016000032E0,-2.322000027E0,3.404026222E0
1.321587893E0,1.459950089E0,2.361000061E0,-2.629050016E0,3.823307409E0
1.323551406E0,1.498950124E0,2.667000055E0,-2.820000172E0,4.160786192E0
1.325515353E0,1.537050128E0,2.974050045E0,-2.935050249E0,4.452192351E0
1.327479173E0,1.537050128E0,3.280950069E0,-3.012000084E0,4.711613414E0
1.329442800E0,1.498950124E0,3.549000263E0,-2.935050249E0,4.843219415E0
1.331406483E0,1.537050128E0,3.817050219E0,-2.782050133E0,4.967111677E0
1.333370050E0,1.575000048E0,4.009050369E0,-2.514000177E0,4.987314599E0
1.335333645E0,1.498950124E0,4.201050282E0,-2.130000114E0,4.942931866E0
1.337297488E0,1.459950089E0,4.354050159E0,-1.747050047E0,4.913388945E0
1.339261259E0,1.345050097E0,4.507050037E0,-1.402050018E0,4.907993893E0
1.341224984E0,1.269000053E0,4.774950027E0,-9.810000658E-1,5.037148998E0
1.343188722E0,1.000050068E0,5.005050182E0,-4.060500264E-1,5.120107820E0
1.345150384E0,6.940500140E-1,5.350050449E0,4.360500276E-1,5.412474929E0
1.347112651E0,4.260000288E-1,5.656950474E0,1.663050056E0,5.911708736E0
1.349076586E0,3.109500110E-1,5.887050152E0,3.157950163E0,6.687802227E0
1.351040033E0,2.340000123E-1,6.154950142E0,4.921050072E0,7.883837965E0
1.353003587E0,2.719500065E-1,6.385050297E0,6.760950089E0,9.303401002E0
1.354967110E0,2.340000123E-1,6.768000126E0,8.562000275E0,1.091642938E1
1.356930691E0,2.719500065E-1,7.228050232E0,9.942000389E0,1.229479722E1
1.358894259E0,3.870000243E-1,7.803000450E0,1.090005016E1,1.341072998E1
1.360858333E0,3.870000243E-1,8.569950104E0,1.116795063E1,1.408250457E1
1.362822259E0,5.020500422E-1,9.490050316E0,1.070805073E1,1.431696405E1
1.364786993E0,7.320000529E-1,1.041000080E1,9.520050049E0,1.412569622E1
1.366751490E0,1.077000022E0,1.148295021E1,7.719000340E0,1.387807771E1
1.368715328E0,1.422000051E0,1.274805069E1,5.380950451E0,1.391005062E1
1.370679382E0,1.843950033E0,1.428105068E1,2.659050226E0,1.464305666E1
1.372643912E0,2.188950062E0,1.596705055E1,-1.369500011E-1,1.611697742E1
1.374608303E0,2.149950027E0,1.761495018E1,-2.820000172E0,1.796833760E1
1.376572057E0,1.882050037E0,1.911000061E1,-5.580000401E0,1.999676574E1
1.378535997E0,1.422000051E0,2.068095016E1,-8.032950401E0,2.223178077E1
1.380499858E0,1.039050102E0,2.240595055E1,-9.834000587E0,2.449109660E1
1.382463752E0,6.940500140E-1,2.436105156E1,-1.048605061E1,2.653110996E1
1.384427590E0,5.790000558E-1,2.631600189E1,-9.910950661E0,2.812639578E1
1.386391445E0,8.850000501E-1,2.819400215E1,-8.377950668E0,2.942575470E1
1.388354929E0,1.345050097E0,2.972700119E1,-6.001950264E0,3.035666593E1
1.390318522E0,2.111999989E0,3.099195099E1,-3.472050190E0,3.125726640E1
1.392281465E0,3.147000074E0,3.198795128E1,-1.134000063E0,3.216237853E1
1.394244599E0,4.527000427E0,3.229500198E1,9.349500537E-1,3.262414777E1
1.396208386E0,5.983050346E0,3.198795128E1,2.122950077E0,3.261185115E1
1.398171981E0,7.018050194E0,3.126000214E1,3.157950163E0,3.219337527E1
1.400136051E0,7.018050194E0,3.014805222E1,3.733050108E0,3.117841792E1
1.402099981E0,6.021000385E0,2.888400078E1,3.847950220E0,2.975474193E1
1.404063804E0,4.603050232E0,2.719695091E1,3.463950157E0,2.780038059E1
1.406027666E0,3.147000074E0,2.539605141E1,2.736000061E0,2.573613671E1
1.407991553E0,1.614000082E0,2.347905159E1,1.510050058E0,2.358285629E1
1.409955433E0,8.100000024E-2,2.156295013E1,-6.105000153E-2,2.156318869E1
1.411919094E0,-1.297950029E0,1.980000114E1,-1.708950043E0,1.991595415E1
1.413882819E0,-2.256000042E0,1.822800064E1,-3.280050039E0,1.865765987E1
1.415846870E0,-2.677950144E0,1.684905052E1,-4.736999989E0,1.770596197E1
1.417810822E0,-2.755050182E0,1.592895031E1,-5.887050152E0,1.720404368E1
1.419775011E0,-2.677950144E0,1.546905041E1,-6.844950199E0,1.712647893E1
1.421739130E0,-1.834950089E0,1.523895073E1,-7.420050144E0,1.704845463E1
1.423703111E0,-1.106999993E0,1.512405109E1,-7.573050499E0,1.695032343E1
1.425667132E0,-6.850500107E-1,1.516200066E1,-7.573050499E0,1.696191768E1
1.427630773E0,-6.850500107E-1,1.543095112E1,-7.075050354E0,1.698940504E1
1.429594522E0,-9.529500604E-1,1.581405067E1,-6.499950409E0,1.712430051E1
1.431558338E0,-1.413000107E0,1.615904999E1,-6.078000069E0,1.732205388E1
1.433522135E0,-2.065050125E0,1.642695045E1,-5.656950474E0,1.749600588E1
1.435485856E0,-2.830950022E0,1.673400116E1,-5.427000046E0,1.781834455E1
1.437449599E0,-3.943050146E0,1.696395111E1,-5.311950207E0,1.820824255E1
1.439413611E0,-4.326000214E0,1.711695099E1,-5.427000046E0,1.847042551E1
1.441377534E0,-4.708950043E0,1.719405174E1,-5.617950439E0,1.869146845E1
1.443341233E0,-5.053950310E0,1.723200035E1,-5.848050117E0,1.888607794E1
1.445304997E0,-5.284050465E0,1.719405174E1,-5.962950230E0,1.895028707E1
1.447268497E0,-5.361000061E0,1.719405174E1,-6.040050507E0,1.899626140E1
1.449232074E0,-5.437950134E0,1.723200035E1,-6.040050507E0,1.905243680E1
1.451195980E0,-5.476050377E0,1.719405174E1,-6.117000103E0,1.905361470E1
1.453159779E0,-5.514000416E0,1.726995087E1,-6.117000103E0,1.913303671E1
1.455123768E0,-5.476050377E0,1.738500023E1,-6.232050419E0,1.926301672E1
1.457087702E0,-5.323050022E0,1.730895042E1,-6.460950375E0,1.922702541E1
1.459051354E0,-5.284050465E0,1.723200035E1,-6.499950409E0,1.916017695E1
1.461015088E0,-5.398950100E0,1.715505028E1,-6.615000248E0,1.916253220E1
1.462978818E0,-5.590950489E0,1.707900047E1,-6.576000214E0,1.913621601E1
1.464942550E0,-5.859000206E0,1.704000092E1,-6.460950375E0,1.914245006E1
1.466906369E0,-5.974050522E0,1.700205040E1,-6.117000103E0,1.903094027E1
1.468870163E0,-6.013050079E0,1.692495155E1,-5.656950474E0,1.883114030E1
1.470833839E0,-6.051000118E0,1.688700104E1,-5.005050182E0,1.862353172E1
1.472797550E0,-6.127950191E0,1.696395111E1,-4.276950359E0,1.853698237E1
1.474760864E0,-6.127950191E0,1.696395111E1,-3.739950180E0,1.842049506E1
1.476724305E0,-6.166050434E0,1.700205040E1,-3.394950151E0,1.840151033E1
1.478687904E0,-6.241950512E0,1.715505028E1,-3.088950157E0,1.851484024E1
1.480651457E0,-6.280950069E0,1.738500023E1,-2.859000206E0,1.870461037E1
1.482615353E0,-6.204000473E0,1.753905106E1,-2.514000177E0,1.877306929E1
1.484579149E0,-5.974050522E0,1.773000145E1,-2.284050226E0,1.884831866E1
1.486542853E0,-5.743950367E0,1.795995140E1,-2.053950071E0,1.896764432E1
1.488506564E0,-5.553000450E0,1.819005013E1,-2.092050076E0,1.913348926E1
1.490470567E0,-5.284050465E0,1.807500076E1,-1.939050078E0,1.893110554E1
1.492434485E0,-5.016000271E0,1.811295128E1,-1.671000123E0,1.886879710E1
1.494398320E0,-4.900950432E0,1.803705025E1,-1.479000092E0,1.874945167E1
1.496362179E0,-4.671000004E0,1.780695152E1,-1.479000092E0,1.846870880E1
1.498325922E0,-4.518000126E0,1.746195030E1,-1.363950014E0,1.808846022E1
1.500289675E0,-4.518000126E0,1.726995087E1,-1.441050053E0,1.790921979E1
1.502253671E0,-4.518000126E0,1.711695099E1,-1.708950043E0,1.778546728E1
1.504217596E0,-4.518000126E0,1.688700104E1,-1.939050078E0,1.758815068E1
1.506181430E0,-4.479000092E0,1.646505165E1,-2.206950188E0,1.720552228E1
1.508145290E0,-4.402950287E0,1.592895031E1,-2.284050226E0,1.668335442E1
1.510109358E0,-4.402950287E0,1.558395100E1,-2.284050226E0,1.635427728E1
1.512073365E0,-4.402950287E0,1.531605053E1,-2.359950066E0,1.611014399E1
1.514037185E0,-4.288050175E0,1.493205070E1,-2.245050192E0,1.569693483E1
1.516001060E0,-4.173000336E0,1.462605095E1,-1.939050078E0,1.533281492E1
1.517965080E0,-3.943050146E0,1.431900024E1,-1.479000092E0,1.492544317E1
1.519929058E0,-3.712950230E0,1.389705086E1,-1.057050109E0,1.442329286E1
1.521893027E0,-3.483000278E0,1.362900066E1,-7.510500550E-1,1.408705172E1
1.523856992E0,-3.100050211E0,1.328400040E1,-5.209500194E-1,1.365087421E1
1.525820502E0,-2.755050182E0,1.297800064E1,-4.060500264E-1,1.327342001E1
1.527784145E0,-2.485950232E0,1.270905018E1,-5.590500236E-1,1.296196135E1
1.529747665E0,-2.410050154E0,1.232595062E1,-7.890000343E-1,1.258411386E1
1.531711222E0,-2.103000164E0,1.198095036E1,-8.269500136E-1,1.219219535E1
1.533675082E0,-1.950000048E0,1.167405033E1,-7.510500550E-1,1.185959643E1
1.535638846E0,-1.834950089E0,1.152105045E1,-4.060500264E-1,1.167332523E1
1.537601626E0,-1.681950092E0,1.159800053E1,-9.900000691E-2,1.171974289E1
1.539564694E0,-1.297950029E0,1.159800053E1,5.130000114E-1,1.168167195E1
1.541528853E0,-1.030050039E0,1.163595009E1,1.165050030E0,1.173940710E1
1.543492692E0,-8.380500674E-1,1.171305084E1,1.432950020E0,1.183009863E1
1.545456603E0,-6.079500318E-1,1.163595009E1,1.510050058E0,1.174926333E1
1.547420480E0,-1.870500147E-1,1.144395065E1,1.740000129E0,1.157698556E1
1.549385222E0,2.719500065E-1,1.110000038E1,2.046000004E0,1.129026489E1
1.551349711E0,8.089500666E-1,1.063995075E1,2.391000032E0,1.093525644E1
1.553313268E0,1.230000019E0,1.014105034E1,2.659050226E0,1.055577331E1
1.555277098E0,1.384050012E0,9.604950905E0,3.157950163E0,1.020506372E1
1.557240936E0,1.729050040E0,9.030000687E0,3.808950186E0,9.951815310E0
1.559204747E0,2.074050188E0,8.493000031E0,4.231050014E0,9.712595839E0
1.561168239E0,2.533950090E0,7.842000484E0,4.384050369E0,9.334761502E0
1.563131824E0,2.917050123E0,7.189950466E0,4.423050404E0,8.931290164E0
1.565095219E0,3.376950264E0,6.499950409E0,4.806000233E0,8.760752630E0
1.567058670E0,3.913050175E0,5.809950352E0,5.572050095E0,8.950710978E0
1.569022358E0,4.219950199E0,5.235000134E0,6.147000313E0,9.110368759E0
1.570985976E0,4.488000393E0,4.584000111E0,6.684000492E0,9.264505768E0
1.572949367E0,4.680000305E0,4.123950005E0,7.105050564E0,9.454687198E0
1.574912824E0,4.833000183E0,3.549000263E0,7.144050121E0,9.326882961E0
1.576876916E0,4.987050056E0,3.012000084E0,6.837000370E0,8.982615812E0
1.578840822E0,5.254950047E0,2.437050104E0,6.186000347E0,8.474686631E0
1.580804959E0,5.599950314E0,1.786050081E0,5.419050217E0,7.994718485E0
1.582769038E0,6.021000385E0,1.288050056E0,4.729050159E0,7.763725523E0
1.584732710E0,6.405000210E0,7.510500550E-1,4.269000053E0,7.733851908E0
1.586696501E0,6.595950127E0,2.530499995E-1,4.269000053E0,7.860976646E0
1.588661257E0,6.634950161E0,-5.295000225E-2,4.423050404E0,7.974254963E0
1.590625730E0,6.481050491E0,-2.440500110E-1,4.843950272E0,8.094901489E0
1.592589419E0,6.405000210E0,-5.130000114E-1,5.419050217E0,8.405551853E0
1.594553342E0,6.442950249E0,-1.011000037E0,6.070950508E0,8.910116108E0
1.596517175E0,6.595950127E0,-1.356000066E0,6.568950176E0,9.407252557E0
1.598481035E0,6.595950127E0,-1.624050021E0,6.721950531E0,9.556605856E0
1.600444743E0,6.558000088E0,-1.816050053E0,6.721950531E0,9.565041656E0
1.602408496E0,6.289950371E0,-2.008050203E0,6.684000492E0,9.395296901E0
1.604372357E0,6.097950459E0,-2.122950077E0,6.721950531E0,9.320758326E0
1.606336187E0,5.752950191E0,-2.199000120E0,6.760950089E0,9.145626470E0
1.608300577E0,5.370000362E0,-2.199000120E0,6.721950531E0,8.880153397E0
1.610264802E0,4.909950256E0,-2.161050081E0,6.568950176E0,8.481088102E0
1.612228719E0,4.297049999E0,-1.969050050E0,6.415950298E0,7.969078681E0
1.614192727E0,3.837000132E0,-1.854000092E0,5.994000435E0,7.354449508E0
1.616156756E0,3.492000103E0,-1.854000092E0,5.496000290E0,6.770332359E0
1.618120788E0,3.376950264E0,-1.893000126E0,4.996950150E0,6.321135449E0
1.620084738E0,3.300000191E0,-1.893000126E0,4.690950394E0,6.039740585E0
1.622048713E0,3.184950113E0,-1.930950046E0,4.461000443E0,5.811454229E0
1.624012537E0,3.184950113E0,-2.122950077E0,4.116000175E0,5.620701175E0
1.625976405E0,3.147000074E0,-2.391000032E0,3.808950186E0,5.488951825E0
1.627940052E0,3.070050240E0,-2.544000149E0,3.426000118E0,5.256864278E0
1.629903775E0,3.070050240E0,-2.736000061E0,3.004050255E0,5.092663619E0
1.631867641E0,3.031950235E0,-2.926950216E0,2.583000183E0,4.942838228E0
1.633831465E0,2.992950201E0,-3.196050167E0,2.122950077E0,4.866148848E0
1.635795361E0,2.955000162E0,-3.349050045E0,1.663050056E0,4.765909950E0
1.637759235E0,2.802000046E0,-3.541050196E0,1.279950023E0,4.693454251E0
1.639724118E0,2.686950207E0,-3.502050161E0,5.130000114E-1,4.443785071E0
1.641688701E0,2.494950056E0,-3.463950157E0,-2.140500098E-1,4.274288699E0
1.643652422E0,2.341950178E0,-3.234000206E0,-8.269500136E-1,4.077662847E0
1.645616396E0,2.149950027E0,-2.965950251E0,-1.210950017E0,3.858179098E0
1.647580040E0,1.843950033E0,-2.659050226E0,-1.287000060E0,3.482394146E0
1.649543780E0,1.575000048E0,-2.314050198E0,-1.096050024E0,3.006123604E0
1.651507450E0,1.422000051E0,-2.083950043E0,-7.890000343E-1,2.643379083E0
1.653471151E0,1.345050097E0,-1.893000126E0,-3.289500177E-1,2.345382134E0
1.655433986E0,1.306950092E0,-1.701000094E0,1.300500035E-1,2.149053947E0
1.657397074E0,1.269000053E0,-1.548000097E0,5.130000114E-1,2.066357774E0
1.659360869E0,1.153950095E0,-1.356000066E0,9.349500537E-1,2.011086424E0
1.661324457E0,1.077000022E0,-1.203000069E0,1.356000066E0,2.108524221E0
1.663288533E0,1.077000022E0,-9.340500236E-1,1.510050058E0,2.076687187E0
1.665252462E0,1.077000022E0,-6.280500293E-1,1.624950051E0,2.048130503E0
1.667216609E0,1.230000019E0,-5.130000114E-1,1.740000129E0,2.191727517E0
1.669180692E0,1.345050097E0,-3.979500234E-1,1.969950080E0,2.418310836E0
1.671144499E0,1.459950089E0,-2.830500007E-1,2.085000038E0,2.561014784E0
1.673108387E0,1.651950121E0,-3.210000098E-1,2.275950193E0,2.830535195E0
1.675071881E0,1.804950118E0,-2.440500110E-1,2.275950193E0,2.915022233E0
1.677035511E0,2.035050154E0,-2.830500007E-1,2.391000032E0,3.152527175E0
1.678999213E0,2.227050066E0,-3.210000098E-1,2.430000067E0,3.311750795E0
1.680962894E0,2.419050217E0,-3.210000098E-1,2.430000067E0,3.443798090E0
1.682926723E0,2.610000134E0,-3.210000098E-1,2.391000032E0,3.554155717E0
1.684890509E0,2.764050245E0,-3.589500189E-1,2.314950228E0,3.623232456E0
1.686854512E0,2.955000162E0,-3.979500234E-1,2.238000154E0,3.728140940E0
1.688818475E0,3.108000040E0,-3.589500189E-1,2.122950077E0,3.780929303E0
1.690782167E0,3.262050152E0,-2.830500007E-1,1.930950046E0,3.801270390E0
1.692745939E0,3.376950264E0,-2.059500068E-1,1.816050053E0,3.839823731E0
1.694709797E0,3.529950142E0,-1.680000126E-1,1.663050056E0,3.905701921E0
1.696673629E0,3.721950293E0,-1.290000081E-1,1.663050056E0,4.078638311E0
1.698636768E0,3.837000132E0,-1.500000060E-2,1.585950017E0,4.151870960E0
1.700600103E0,4.066950321E0,9.900000691E-2,1.471050024E0,4.325953547E0
1.702564351E0,4.335000038E0,2.140500098E-1,1.279950023E0,4.525076220E0
1.704528332E0,4.527000427E0,3.679500222E-1,9.730500579E-1,4.644991550E0
1.706492380E0,4.756950378E0,5.980500579E-1,7.050000429E-1,4.845953553E0
1.708456409E0,4.987050056E0,7.129500508E-1,6.660000086E-1,5.081586568E0
1.710420524E0,5.101050377E0,1.057950020E0,9.730500579E-1,5.299698068E0
1.712384624E0,5.254950047E0,1.363950014E0,1.548000097E0,5.645455157E0
1.714348293E0,5.370000362E0,1.747950077E0,2.620950222E0,6.225882542E0
1.716312088E0,5.407950401E0,2.131050110E0,4.153950214E0,7.144410717E0
1.718275897E0,5.331000328E0,2.590950012E0,5.878950119E0,8.348331628E0
1.720239701E0,5.101050377E0,3.051000118E0,7.603950500E0,9.651392640E0
1.722203586E0,4.795050144E0,3.472050190E0,9.136950493E0,1.088721740E1
1.724167457E0,4.450050354E0,3.894000292E0,1.044000053E1,1.199832478E1
1.726131659E0,3.952050209E0,4.431000233E0,1.139805031E1,1.285177088E1
1.728095764E0,3.529950142E0,5.005050182E0,1.189605045E1,1.338010059E1
1.730059567E0,3.147000074E0,5.619000435E0,1.185795021E1,1.349398972E1
1.732023459E0,2.764050245E0,6.385050297E0,1.135995007E1,1.332131024E1
1.733987252E0,2.341950178E0,7.228050232E0,1.028700066E1,1.278873814E1
1.735951074E0,1.843950033E0,8.263050079E0,8.638950348E0,1.209585100E1
1.737914968E0,1.384050012E0,9.565950394E0,6.531000137E0,1.166520313E1
1.739878841E0,1.306950092E0,1.075500011E1,3.694050074E0,1.144657818E1
1.741843899E0,1.192050099E0,1.182795048E1,4.750500321E-1,1.189735552E1
1.743808610E0,1.000050068E0,1.290105057E1,-3.241950035E0,1.333969437E1
1.745771952E0,8.089500666E-1,1.408905029E1,-6.154950142E0,1.539607579E1
1.747735693E0,4.260000288E-1,1.531605053E1,-7.650000572E0,1.712557703E1
1.749699736E0,-3.400500119E-1,1.696395111E1,-8.377950668E0,1.892303698E1
1.751663691E0,-1.375050068E0,1.918695068E1,-8.416049957E0,2.099666012E1
1.753627520E0,-2.793000221E0,2.160105133E1,-8.301000595E0,2.330907291E1
1.755591386E0,-4.555950165E0,2.478195190E1,-7.765050411E0,2.636660445E1
1.757555228E0,-6.088950157E0,2.846205139E1,-6.232050419E0,2.976578801E1
1.759519078E0,-7.201050282E0,3.233295059E1,-4.276950359E0,3.340010664E1
1.761482967E0,-7.966950417E0,3.639599991E1,-2.704950094E0,3.735582770E1
1.763446845E0,-8.580000877E0,4.011405182E1,-1.018950105E0,4.103403255E1
1.765409921E0,-8.772000313E0,4.467405319E1,9.730500579E-1,4.553752128E1
1.767373232E0,-9.232050896E0,4.862205124E1,1.701000094E0,4.951997609E1
1.769337749E0,-9.346950531E0,5.111400223E1,1.500000060E-2,5.196159094E1
1.771301917E0,-9.040050507E0,5.291505432E1,-2.206950188E0,5.372705200E1
1.773265844E0,-8.427000046E0,5.398800278E1,-4.009050369E0,5.478860519E1
1.775229842E0,-7.162050247E0,5.440995407E1,-5.197050095E0,5.512483465E1
1.777193886E0,-5.629050255E0,5.425605392E1,-5.925000191E0,5.486812573E1
1.779157917E0,-4.210950375E0,5.326005173E1,-6.346950531E0,5.380194229E1
1.781121546E0,-2.563050032E0,5.122905350E1,-6.232050419E0,5.167033578E1
1.783085266E0,-1.068000078E0,4.827705383E1,-6.001950264E0,4.866043524E1
1.785050034E0,1.570500135E-1,4.486605072E1,-5.695050240E0,4.522632827E1
1.787014495E0,1.000050068E0,4.137795258E1,-5.043000221E0,4.169612585E1
1.788978597E0,1.306950092E0,3.835005188E1,-4.468050003E0,3.863156829E1
1.790942804E0,1.345050097E0,3.582105255E1,-4.353000164E0,3.610963273E1
1.792906482E0,1.384050012E0,3.348300171E1,-4.507050037E0,3.381331835E1
1.794870295E0,1.537050128E0,3.129795074E1,-4.813050270E0,3.170314964E1
1.796834146E0,1.996950150E0,2.934300232E1,-5.235000134E0,2.987314549E1
1.798797985E0,2.494950056E0,2.754195213E1,-5.656950474E0,2.822738018E1
1.800762374E0,2.955000162E0,2.581695175E1,-6.154950142E0,2.670450215E1
1.802726601E0,3.337950230E0,2.424600029E1,-6.768000126E0,2.539323271E1
1.804690338E0,3.798000097E0,2.275095177E1,-7.611000538E0,2.428904980E1
1.806654218E0,4.182000160E0,2.148600197E1,-8.340000153E0,2.342419707E1
1.808618238E0,4.372950077E0,2.037495041E1,-9.028950691E0,2.271086188E1
1.810582216E0,4.527000427E0,1.941705132E1,-9.718950272E0,2.218047811E1
1.812546220E0,4.450050354E0,1.868805122E1,-1.021800041E1,2.175899214E1
1.814510216E0,4.488000393E0,1.788300133E1,-1.067805004E1,2.130644590E1
1.816473741E0,4.335000038E0,1.726995087E1,-1.098405075E1,2.092110894E1
1.818437391E0,4.182000160E0,1.669500160E1,-1.094595051E1,2.039671631E1
1.820401045E0,3.837000132E0,1.623495102E1,-1.079295063E1,1.986917180E1
1.822364697E0,3.607050180E0,1.577505112E1,-1.071600056E1,1.940865056E1
1.824328802E0,3.337950230E0,1.539195061E1,-1.052400017E1,1.894224471E1
1.826292774E0,3.031950235E0,1.493205070E1,-1.037100029E1,1.843140004E1
1.828256730E0,2.802000046E0,1.458705044E1,-1.006395054E1,1.794202734E1
1.830220694E0,2.533950090E0,1.435695076E1,-9.796050072E0,1.756432564E1
1.832184699E0,2.265000105E0,1.397400093E1,-9.298050880E0,1.693684379E1
1.834148692E0,2.035050154E0,1.355205059E1,-8.569950104E0,1.616303032E1
1.836112738E0,1.690050125E0,1.316895103E1,-7.995000362E0,1.549830867E1
1.838076769E0,1.498950124E0,1.278600025E1,-7.342950344E0,1.482051192E1
1.840040760E0,1.306950092E0,1.251795101E1,-6.844950199E0,1.432691730E1
1.842004766E0,1.192050099E0,1.217295074E1,-6.232050419E0,1.372735101E1
1.843968899E0,1.153950095E0,1.167405033E1,-5.695050240E0,1.304027029E1
1.845932994E0,1.114950061E0,1.098495007E1,-4.890000343E0,1.207577513E1
1.847896979E0,1.114950061E0,1.048605061E1,-4.315050125E0,1.139385925E1
1.849860996E0,8.470500112E-1,9.949950218E0,-3.931950092E0,1.073215890E1
1.851824267E0,6.940500140E-1,9.451050758E0,-3.319050074E0,1.004092422E1
1.853787761E0,4.639500082E-1,8.800050735E0,-2.629050016E0,9.196088655E0
1.855752027E0,3.109500110E-1,8.148000717E0,-1.786050081E0,8.347249876E0
1.857716066E0,2.340000123E-1,7.612050533E0,-1.210950017E0,7.711320851E0
1.859679881E0,8.100000024E-2,7.036950111E0,-7.120500207E-1,7.073347376E0
1.861643761E0,-1.099500060E-1,6.462000370E0,-3.289500177E-1,6.471301716E0
1.863606384E0,-7.200000435E-2,5.695050240E0,1.500000060E-2,5.695525106E0
1.865569376E0,-3.019500077E-1,5.158950329E0,5.130000114E-1,5.193179307E0
1.867533188E0,-2.629500031E-1,4.584000111E0,8.580000401E-1,4.671013144E0
1.869496759E0,-3.400500119E-1,4.047000408E0,7.810500264E-1,4.135684400E0
1.871460652E0,-2.250000089E-1,3.433950186E0,5.899500251E-1,3.491515418E0
1.873424451E0,-3.019500077E-1,2.896950245E0,3.220500052E-1,2.930394297E0
1.875388820E0,-4.170000255E-1,2.437050104E0,1.500000060E-2,2.472514354E0
1.877353008E0,-6.469500065E-1,1.939050078E0,-2.140500098E-1,2.055304582E0
1.879316977E0,-8.380500674E-1,1.363950014E0,-2.520000041E-1,1.620552856E0
1.881281010E0,-8.380500674E-1,8.280000687E-1,9.195000678E-2,1.181679666E0
1.883244464E0,-7.230000496E-1,2.910000086E-1,3.600000143E-1,8.584929161E-1
1.885208087E0,-6.079500318E-1,-5.295000225E-2,7.050000429E-1,9.324333780E-1
1.887172002E0,-4.170000255E-1,-2.059500068E-1,9.349500537E-1,1.044239450E0
1.889135841E0,4.050000105E-3,-5.509500504E-1,1.011000037E0,1.151383271E0
1.891100364E0,3.490500152E-1,-8.190000653E-1,1.011000037E0,1.347114730E0
1.893064687E0,8.089500666E-1,-1.048950076E0,7.810500264E-1,1.537769689E0
1.895028452E0,1.114950061E0,-1.203000069E0,5.130000114E-1,1.718572610E0
1.896992381E0,1.306950092E0,-1.356000066E0,3.220500052E-1,1.910646730E0
1.898956758E0,1.306950092E0,-1.509000063E0,5.295000225E-2,1.996998607E0
1.900921000E0,1.306950092E0,-1.663050056E0,-2.140500098E-1,2.125951890E0
1.902884418E0,1.306950092E0,-1.893000126E0,-2.910000086E-1,2.318673980E0
1.904848078E0,1.192050099E0,-2.122950077E0,-3.289500177E-1,2.456849320E0
1.906811596E0,1.077000022E0,-2.467050076E0,-4.440000355E-1,2.728259730E0
1.908775155E0,9.619500637E-1,-2.773950100E0,-5.209500194E-1,2.981867872E0
1.910738914E0,8.089500666E-1,-3.157050133E0,-5.590500236E-1,3.306645230E0
1.912702615E0,6.169500351E-1,-3.426000118E0,-6.360000372E-1,3.538728614E0
1.914665721E0,4.260000288E-1,-3.732000113E0,-7.890000343E-1,3.838205560E0
1.916629002E0,2.340000123E-1,-4.000950336E0,-9.040500522E-1,4.108487081E0
1.918592809E0,8.100000024E-2,-4.345950127E0,-9.420000315E-1,4.447606948E0
1.920556461E0,-2.629500031E-1,-4.422000408E0,-9.810000658E-1,4.537134717E0
1.922520115E0,-4.170000255E-1,-4.651950359E0,-9.040500522E-1,4.757293103E0
1.924483769E0,-6.079500318E-1,-4.843950272E0,-8.269500136E-1,4.951495108E0
1.926447648E0,-7.620000243E-1,-4.767000198E0,-6.360000372E-1,4.869233099E0
1.928411461E0,-9.150000215E-1,-4.804950237E0,-3.289500177E-1,4.902344331E0
1.930374232E0,-9.919500351E-1,-4.729050159E0,1.300500035E-1,4.833714233E0
1.932337309E0,-1.144950032E0,-4.651950359E0,7.050000429E-1,4.842373156E0
1.934301096E0,-1.183050036E0,-4.614000320E0,1.356000066E0,4.952508710E0
1.936264682E0,-1.222050071E0,-4.537050247E0,1.701000094E0,4.997162459E0
1.938228259E0,-1.030050039E0,-4.461000443E0,2.275950193E0,5.112873685E0
1.940191838E0,-8.770500422E-1,-4.345950127E0,2.773950100E0,5.229846885E0
1.942155503E0,-7.230000496E-1,-4.153950214E0,3.196050167E0,5.290819230E0
1.944119143E0,-5.320500135E-1,-3.924000263E0,3.463950157E0,5.261160136E0
1.946082860E0,-2.250000089E-1,-3.694050074E0,3.694050074E0,5.229018732E0
1.948046543E0,-3.299999982E-2,-3.387000084E0,3.733050108E0,5.040686628E0
1.950010778E0,1.570500135E-1,-3.004050255E0,3.847950220E0,4.884230086E0
1.951974851E0,4.639500082E-1,-2.620950222E0,3.886050224E0,4.710203395E0
1.953939064E0,7.320000529E-1,-2.238000154E0,3.733050108E0,4.413630238E0
1.955903235E0,9.240000248E-1,-1.893000126E0,3.579000235E0,4.152886731E0
1.957866700E0,1.077000022E0,-1.432950020E0,3.349050045E0,3.798606456E0
1.959830348E0,1.153950095E0,-1.048950076E0,3.157950163E0,3.522008847E0
1.961794002E0,1.230000019E0,-6.280500293E-1,3.234000206E0,3.516547201E0
1.963757654E0,1.306950092E0,-3.210000098E-1,3.234000206E0,3.502844113E0
1.965720633E0,1.345050097E0,-9.105000645E-2,3.273000240E0,3.539771241E0
1.967683810E0,1.459950089E0,1.759500057E-1,3.273000240E0,3.588167114E0
1.969647772E0,1.498950124E0,4.830000103E-1,3.234000206E0,3.597067947E0
1.971611534E0,1.614000082E0,7.129500508E-1,3.234000206E0,3.684026516E0
1.973575755E0,1.882050037E0,9.430500269E-1,3.463950157E0,4.053443769E0
1.975539842E0,1.804950118E0,1.134000063E0,3.310950041E0,3.937790147E0
1.977503467E0,1.804950118E0,1.326000094E0,3.081000090E0,3.809026481E0
1.979467228E0,1.767000079E0,1.518000126E0,2.928000212E0,3.741630514E0
1.981431040E0,1.729050040E0,1.671000123E0,2.659050226E0,3.585024903E0
1.983394871E0,1.690050125E0,1.824000120E0,2.430000067E0,3.476801143E0
1.985358855E0,1.614000082E0,1.939050078E0,1.969950080E0,3.200877190E0
1.987322794E0,1.575000048E0,2.053950071E0,1.663050056E0,3.076535638E0
1.989286445E0,1.614000082E0,2.131050110E0,1.395000100E0,3.015360031E0
1.991250181E0,1.651950121E0,2.208000183E0,1.050000072E0,2.950712484E0
1.993214104E0,1.690050125E0,2.208000183E0,7.050000429E-1,2.868546547E0
1.995177962E0,1.882050037E0,2.245950222E0,3.979500234E-1,2.957155553E0
1.997142347E0,1.959000111E0,2.245950222E0,1.680000126E-1,2.984995450E0
1.999106577E0,2.188950062E0,2.245950222E0,-1.759500057E-1,3.141138834E0
2.001070133E0,2.227050066E0,2.284050226E0,-2.910000086E-1,3.203329274E0
2.003033887E0,2.265000105E0,2.322000027E0,-4.819500148E-1,3.279357470E0
2.004997743E0,2.304000139E0,2.437050104E0,-5.209500194E-1,3.393967998E0
2.006961572E0,2.419050217E0,2.476050138E0,-6.360000372E-1,3.519534669E0
2.008925421E0,2.419050217E0,2.551950216E0,-7.120500207E-1,3.587655096E0
2.010889264E0,2.419050217E0,2.667000055E0,-7.890000343E-1,3.686083870E0
2.012852796E0,2.380050182E0,2.706000090E0,-7.510500550E-1,3.681188876E0
2.014816420E0,2.419050217E0,2.706000090E0,-7.510500550E-1,3.706523522E0
2.016780045E0,2.380050182E0,2.782050133E0,-8.659500480E-1,3.762221591E0
2.018743693E0,2.304000139E0,2.743950129E0,-9.810000658E-1,3.714840519E0
2.020707438E0,2.265000105E0,2.859000206E0,-1.210950017E0,3.843241808E0
2.022671155E0,2.188950062E0,2.782050133E0,-1.441050053E0,3.822032256E0
2.024634844E0,2.149950027E0,2.706000090E0,-1.708950043E0,3.855545597E0
2.026598541E0,1.996950150E0,2.667000055E0,-2.014950037E0,3.893677291E0
2.028562057E0,1.843950033E0,2.629050016E0,-2.284050226E0,3.940677753E0
2.030525623E0,1.690050125E0,2.590950012E0,-2.475000143E0,3.961681095E0
2.032489471E0,1.537050128E0,2.476050138E0,-2.590050220E0,3.898936718E0
2.034453237E0,1.459950089E0,2.361000061E0,-2.629050016E0,3.823307409E0
2.036416962E0,1.345050097E0,2.322000027E0,-2.551950216E0,3.703146472E0
2.038380700E0,1.306950092E0,2.245950222E0,-2.322000027E0,3.484837883E0
2.040344399E0,1.269000053E0,2.169000149E0,-1.939050078E0,3.174088529E0
2.042308099E0,1.269000053E0,2.016000032E0,-1.326000094E0,2.726333347E0
2.044271069E0,1.269000053E0,2.016000032E0,-4.819500148E-1,2.430410065E0
2.046234253E0,1.306950092E0,1.939050078E0,6.280500293E-1,2.421255994E0
2.048198347E0,1.269000053E0,1.939050078E0,1.855050087E0,2.968414925E0
2.050162174E0,1.192050099E0,1.978050113E0,3.157950163E0,3.912328580E0
2.052125678E0,1.153950095E0,1.978050113E0,4.576050282E0,5.117081126E0
2.054089267E0,1.114950061E0,1.978050113E0,5.994000435E0,6.409667472E0
2.056053021E0,1.230000019E0,2.016000032E0,7.489050388E0,7.852581225E0
2.058016726E0,1.384050012E0,2.053950071E0,9.098999977E0,9.430063940E0
2.059980912E0,1.614000082E0,2.169000149E0,1.070805073E1,1.104408929E1
2.061944957E0,2.035050154E0,2.361000061E0,1.220295048E1,1.259475092E1
2.063908950E0,2.265000105E0,2.629050016E0,1.358295059E1,1.401922524E1
2.065872959E0,2.494950056E0,3.051000118E0,1.477095032E1,1.528771895E1
2.067836642E0,2.725050211E0,3.549000263E0,1.549905109E1,1.613201433E1
2.069800420E0,2.917050123E0,4.009050369E0,1.569105053E1,1.645572037E1
2.071764457E0,3.070050240E0,4.621950150E0,1.534605026E1,1.631836053E1
2.073728418E0,3.147000074E0,5.542050362E0,1.442595100E1,1.577104924E1
2.075692406E0,3.184950113E0,6.768000126E0,1.308495045E1,1.507201583E1
2.077656399E0,3.223050117E0,8.377950668E0,1.124505043E1,1.438851169E1
2.079620536E0,3.108000040E0,1.025595093E1,9.405000687E0,1.425826888E1
2.081584630E0,2.839950085E0,1.247895050E1,7.680000305E0,1.492554611E1
2.083548660E0,2.304000139E0,1.485600090E1,5.841000080E0,1.612843642E1
2.085512709E0,1.614000082E0,1.734705162E1,4.498950005E0,1.799349180E1
2.087476650E0,1.269000053E0,1.995300102E1,3.310950041E0,2.026561129E1
2.089440627E0,1.114950061E0,2.263605118E1,2.928000212E0,2.285185139E1
2.091404496E0,1.153950095E0,2.524200058E1,2.620950222E0,2.540392832E1
2.093368397E0,1.422000051E0,2.792505074E1,2.046000004E0,2.803598863E1
2.095332954E0,2.304000139E0,3.079995155E1,1.203000069E0,3.090942642E1
2.097297318E0,3.913050175E0,3.428805161E1,5.295000225E-2,3.451065413E1
2.099261391E0,6.021000385E0,3.735405350E1,-1.249050021E0,3.785680763E1
2.101225550E0,8.244000435E0,3.900195312E1,-2.551950216E0,3.994531688E1
2.103189388E0,1.115700054E1,3.984495163E1,-2.475000143E0,4.145147111E1
2.105153320E0,1.433805084E1,3.969195175E1,-1.824000120E0,4.224165849E1
2.107117151E0,1.729005051E1,3.815895081E1,-3.088950157E0,4.200705877E1
2.109081012E0,1.855395126E1,3.624195099E1,-4.582950115E0,4.097232665E1
2.111045011E0,1.541205120E1,3.409605026E1,-7.495950222E0,3.816099102E1
2.113008986E0,1.054395008E1,3.156600189E1,-1.106100082E1,3.507040202E1
2.114973126E0,6.213000298E0,2.803995132E1,-1.450995064E1,3.217730428E1
2.116937217E0,2.917050123E0,2.420805168E1,-1.696305084E1,2.970326651E1
2.118900526E0,4.260000288E-1,2.098800087E1,-1.753800011E1,2.735432515E1
2.120864065E0,-5.700000525E-1,1.857299995E1,-1.615800095E1,2.462442328E1
2.122828314E0,-1.222050071E0,1.711695099E1,-1.385895061E1,2.205796749E1
2.124792362E0,-1.413000107E0,1.650405121E1,-1.159695053E1,2.022052267E1
2.126756489E0,-1.413000107E0,1.627395058E1,-9.873000145E0,1.908701571E1
2.128720592E0,-1.222050071E0,1.619700050E1,-8.799000740E0,1.847318721E1
2.130684575E0,-1.222050071E0,1.627395058E1,-8.301000595E0,1.830960089E1
2.132648594E0,-1.336950064E0,1.654200172E1,-8.340000153E0,1.857366036E1
2.134612795E0,-1.795950055E0,1.677195168E1,-8.455050468E0,1.886827173E1
2.136576957E0,-2.410050154E0,1.726995087E1,-8.416049957E0,1.936206191E1
2.138541066E0,-3.253050089E0,1.776900101E1,-8.340000153E0,1.989661615E1
2.140505190E0,-4.057950020E0,1.826700020E1,-8.340000153E0,2.048672392E1
2.142469033E0,-4.939050198E0,1.880295181E1,-8.071050644E0,2.104963354E1
2.144432959E0,-5.668050289E0,1.911000061E1,-7.534950256E0,2.130949067E1
2.146397076E0,-6.241950512E0,1.933995056E1,-6.844950199E0,2.144408956E1
2.148361158E0,-6.702000141E0,1.941705132E1,-6.078000069E0,2.142150257E1
2.150325145E0,-6.970950127E0,1.953195000E1,-5.388000488E0,2.142712686E1
2.152289160E0,-7.315950394E0,1.972305107E1,-4.890000343E0,2.159708261E1
2.154252842E0,-7.546050549E0,1.991505051E1,-4.660050392E0,2.180064644E1
2.156216621E0,-7.929000378E0,2.010600090E1,-4.429950237E0,2.206229313E1
2.158180448E0,-8.464950562E0,2.045100021E1,-4.582950115E0,2.260314645E1
2.160144250E0,-8.848950386E0,2.056605148E1,-4.813050270E0,2.290047706E1
2.162107969E0,-8.887050629E0,2.056605148E1,-5.043000221E0,2.296462483E1
2.164071713E0,-8.809950829E0,2.045100021E1,-5.158050060E0,2.285747413E1
2.166035711E0,-8.427000046E0,1.999200058E1,-4.927950382E0,2.224812603E1
2.167999634E0,-7.891050339E0,1.933995056E1,-4.276950359E0,2.132122575E1
2.169963127E0,-7.392000198E0,1.884195137E1,-3.472050190E0,2.053572329E1
2.171926732E0,-6.894000530E0,1.853505135E1,-2.896950245E0,1.998668788E1
2.173890619E0,-6.396000385E0,1.826700020E1,-2.475000143E0,1.951198972E1
2.175854423E0,-5.935950279E0,1.822800064E1,-2.245050192E0,1.930118555E1
2.177818321E0,-5.590950489E0,1.838205147E1,-1.939050078E0,1.931109678E1
2.179782192E0,-5.208000183E0,1.864995003E1,-1.977000117E0,1.946413192E1
2.181746155E0,-4.824000359E0,1.888005066E1,-2.053950071E0,1.959454014E1
2.183710101E0,-4.479000092E0,1.911000061E1,-2.053950071E0,1.973505196E1
2.185673796E0,-4.210950375E0,1.937805176E1,-2.130000114E0,1.994436997E1
2.187637565E0,-3.865950108E0,1.968495178E1,-2.053950071E0,2.016585252E1
2.189601063E0,-3.675000191E0,1.995300102E1,-1.939050078E0,2.038106453E1
2.191564641E0,-3.445050240E0,2.006805038E1,-1.632000089E0,2.042690485E1
2.193528472E0,-3.406050205E0,2.033595085E1,-1.210950017E0,2.065474461E1
2.195492240E0,-3.367950201E0,2.052795029E1,-8.659500480E-1,2.082041549E1
2.197455920E0,-3.022950172E0,2.045100021E1,-7.510500550E-1,2.068684881E1
2.199419626E0,-2.869950056E0,2.029800034E1,-5.970000029E-1,2.050857967E1
2.201383136E0,-2.640000105E0,2.018295097E1,-4.060500264E-1,2.035892893E1
2.203346703E0,-2.448000193E0,1.999200058E1,-4.060500264E-1,2.014541309E1
2.205310660E0,-2.140950203E0,1.983795166E1,-2.910000086E-1,1.995526684E1
2.207274490E0,-1.873050094E0,1.964700127E1,-3.289500177E-1,1.973882427E1
2.209238295E0,-1.567050099E0,1.945500183E1,-3.289500177E-1,1.952078252E1
2.211202107E0,-1.144950032E0,1.899495125E1,-5.209500194E-1,1.903655621E1
2.213165779E0,-7.230000496E-1,1.857299995E1,-5.590500236E-1,1.859547239E1
2.215129492E0,-3.019500077E-1,1.792200089E1,-6.360000372E-1,1.793582408E1
2.217093210E0,4.200000316E-2,1.726995087E1,-5.590500236E-1,1.727904812E1
2.219056937E0,3.870000243E-1,1.669500160E1,-4.440000355E-1,1.670538786E1
2.221021480E0,5.020500422E-1,1.612005043E1,-2.140500098E-1,1.612928695E1
2.222985783E0,8.089500666E-1,1.546905041E1,-2.205000073E-2,1.549020358E1
2.224948876E0,9.240000248E-1,1.497105026E1,2.449500114E-1,1.500153734E1
2.226912324E0,1.192050099E0,1.443405056E1,4.360500276E-1,1.448975288E1
2.228876017E0,1.306950092E0,1.385895061E1,6.660000086E-1,1.393636203E1
2.230839635E0,1.384050012E0,1.336095047E1,8.200500607E-1,1.345745422E1
2.232803565E0,1.537050128E0,1.286295033E1,8.200500607E-1,1.298038891E1
2.234767404E0,1.651950121E0,1.244100094E1,6.660000086E-1,1.256785581E1
2.236731567E0,1.729050040E0,1.213395023E1,5.509500504E-1,1.226890004E1
2.238695635E0,1.843950033E0,1.178895092E1,3.979500234E-1,1.193892289E1
2.240660149E0,2.188950062E0,1.144395065E1,1.300500035E-1,1.165214237E1
2.242624543E0,2.533950090E0,1.121400070E1,-6.105000153E-2,1.149688836E1
2.244588116E0,2.839950085E0,1.087005043E1,-2.140500098E-1,1.123695378E1
2.246551929E0,2.992950201E0,1.063995075E1,-5.970000029E-1,1.106899778E1
2.248515646E0,3.184950113E0,1.037100029E1,-9.040500522E-1,1.088663680E1
2.250479391E0,3.337950230E0,1.006500053E1,-1.134000063E0,1.066452548E1
2.252443579E0,3.529950142E0,9.604950905E0,-1.210950017E0,1.030446650E1
2.254407630E0,3.529950142E0,9.220950127E0,-1.326000094E0,9.962165703E0
2.256371487E0,3.492000103E0,8.953050613E0,-1.134000063E0,9.676628346E0
2.258335401E0,3.492000103E0,8.532000542E0,-3.289500177E-1,9.224820111E0
2.260298649E0,3.645000219E0,8.224950790E0,9.349500537E-1,9.044886606E0
2.262262093E0,3.721950293E0,7.842000484E0,1.969950080E0,8.901156604E0
2.264226071E0,3.645000219E0,7.534950256E0,3.118950129E0,8.932488560E0
2.266189879E0,3.682950258E0,7.152000427E0,4.308000088E0,9.125464233E0
2.268154047E0,3.952050209E0,6.691950321E0,5.341950417E0,9.430659267E0
2.270118110E0,4.297049999E0,6.040050507E0,6.147000313E0,9.629769554E0
2.272081920E0,4.680000305E0,5.311950207E0,6.646050453E0,9.710262843E0
2.274045805E0,4.987050056E0,4.621950150E0,6.837000370E0,9.642492702E0
2.276009483E0,5.407950401E0,3.817050219E0,6.837000370E0,9.516321452E0
2.277973208E0,5.599950314E0,3.088950157E0,6.684000492E0,9.250779382E0
2.279937074E0,5.944950104E0,2.361000061E0,6.454050541E0,9.086887333E0
2.281900898E0,6.289950371E0,1.671000123E0,6.147000313E0,8.952169007E0
2.283864209E0,6.673050404E0,8.659500480E-1,5.725950241E0,8.835495308E0
2.285827670E0,6.903000355E0,2.910000086E-1,5.266050339E0,8.687196387E0
2.287792707E0,7.018050194E0,-1.680000126E-1,4.806000233E0,8.507578431E0
2.289757283E0,7.018050194E0,-6.280500293E-1,4.345950127E0,8.278572212E0
2.291721140E0,6.750000477E0,-1.164000034E0,3.924000263E0,7.893996490E0
2.293685208E0,6.442950249E0,-1.585950017E0,3.655950069E0,7.575804662E0
2.295648836E0,5.905950069E0,-1.893000126E0,3.426000118E0,7.085278577E0
2.297612593E0,5.331000328E0,-2.199000120E0,3.349050045E0,6.668680696E0
2.299576358E0,4.564949989E0,-2.391000032E0,3.310950041E0,6.125197118E0
2.301540093E0,3.798000097E0,-2.544000149E0,3.234000206E0,5.599598095E0
2.303504092E0,3.108000040E0,-2.812050104E0,3.273000240E0,5.317877453E0
2.305468014E0,2.419050217E0,-2.965950251E0,3.196050167E0,4.986321441E0
2.307432027E0,1.804950118E0,-3.118950129E0,3.196050167E0,4.816682624E0
2.309396014E0,1.306950092E0,-3.234000206E0,3.043050051E0,4.628933947E0
2.311360094E0,1.153950095E0,-3.502050161E0,2.928000212E0,4.708411770E0
2.313324124E0,9.240000248E-1,-3.771000147E0,2.736000061E0,4.749727833E0
2.315288120E0,8.089500666E-1,-4.077000141E0,2.583000183E0,4.893691889E0
2.317252126E0,7.320000529E-1,-4.269000053E0,2.314950228E0,4.911128189E0
2.319216485E0,6.940500140E-1,-4.575000286E0,1.777950048E0,4.957160418E0
2.321180740E0,6.169500351E-1,-4.729050159E0,1.356000066E0,4.958152774E0
2.323143756E0,5.790000558E-1,-4.959000111E0,1.011000037E0,5.094020439E0
2.325107131E0,5.020500422E-1,-5.227050304E0,4.750500321E-1,5.272549826E0
2.327071823E0,4.260000288E-1,-5.457000256E0,1.300500035E-1,5.475147561E0
2.329036129E0,2.719500065E-1,-5.572050095E0,-6.105000153E-2,5.579016595E0
2.330999537E0,1.570500135E-1,-5.649000168E0,-2.140500098E-1,5.655235186E0
2.332963208E0,4.200000316E-2,-5.649000168E0,-3.670500219E-1,5.661068151E0
2.334926513E0,-1.099500060E-1,-5.686950207E0,-2.910000086E-1,5.695451928E0
2.336889915E0,-1.480500102E-1,-5.686950207E0,-2.140500098E-1,5.692902499E0
2.338853836E0,-1.099500060E-1,-5.572050095E0,-9.900000691E-2,5.574014017E0
2.340817605E0,-7.200000435E-2,-5.419050217E0,5.295000225E-2,5.419787169E0
2.342779888E0,-1.480500102E-1,-5.188950062E0,2.449500114E-1,5.196837698E0
2.344742607E0,-1.099500060E-1,-4.729050159E0,4.750500321E-1,4.754122101E0
2.346706285E0,-1.099500060E-1,-4.231050014E0,7.810500264E-1,4.303941493E0
2.348669682E0,-1.099500060E-1,-3.655950069E0,9.730500579E-1,3.784823157E0
2.350633245E0,-3.299999982E-2,-3.118950129E0,1.165050030E0,3.329606655E0
2.352596759E0,8.100000024E-2,-2.659050226E0,1.318050027E0,2.968899624E0
2.354560302E0,2.340000123E-1,-2.314050198E0,1.356000066E0,2.692270510E0
2.356523836E0,4.260000288E-1,-2.008050203E0,1.279950023E0,2.419093571E0
2.358488417E0,6.550500393E-1,-1.663050056E0,1.126049995E0,2.112537487E0
2.360452687E0,8.470500112E-1,-1.393950105E0,9.730500579E-1,1.899320150E0
2.362416461E0,1.000050068E0,-1.087950110E0,7.429500222E-1,1.653998282E0
2.364380381E0,1.192050099E0,-8.959500194E-1,6.280500293E-1,1.618071913E0
2.366344215E0,1.306950092E0,-6.660000086E-1,5.130000114E-1,1.553976694E0
2.368308074E0,1.459950089E0,-5.130000114E-1,3.979500234E-1,1.597807090E0
2.370271962E0,1.651950121E0,-3.979500234E-1,3.220500052E-1,1.729456455E0
2.372235841E0,1.843950033E0,-2.830500007E-1,3.600000143E-1,1.899965536E0
2.374199142E0,1.996950150E0,-2.059500068E-1,4.360500276E-1,2.054352679E0
2.376162612E0,2.149950027E0,-1.290000081E-1,4.750500321E-1,2.205583518E0
2.378126116E0,2.341950178E0,-9.105000645E-2,5.509500504E-1,2.407606010E0
2.380089610E0,2.457000017E0,-5.295000225E-2,5.899500251E-1,2.527388735E0
2.382052662E0,2.572050095E0,1.380000114E-1,7.429500222E-1,2.680757435E0
2.384015843E0,2.686950207E0,2.140500098E-1,8.580000401E-1,2.828724605E0
2.385979802E0,2.839950085E0,2.910000086E-1,8.959500194E-1,2.992110280E0
2.387943533E0,2.955000162E0,3.679500222E-1,1.011000037E0,3.144762988E0
2.389907399E0,3.031950235E0,4.440000355E-1,1.165050030E0,3.278292213E0
2.391871225E0,3.184950113E0,5.209500194E-1,1.356000066E0,3.500575999E0
2.393835395E0,3.300000191E0,5.590500236E-1,1.471050024E0,3.656026034E0
2.395799461E0,3.453000069E0,6.360000372E-1,1.548000097E0,3.837187749E0
2.397763451E0,3.529950142E0,8.280000687E-1,1.701000094E0,4.004938631E0
2.399727463E0,3.760050297E0,9.810000658E-1,1.777950048E0,4.273341285E0
2.401691281E0,3.913050175E0,1.057950020E0,1.969950080E0,4.506875107E0
2.403655156E0,4.143000126E0,1.173000097E0,2.200050116E0,4.835348982E0
2.405619055E0,4.297049999E0,1.363950014E0,2.583000183E0,5.195852989E0
2.407582937E0,4.450050354E0,1.594050050E0,3.196050167E0,5.706021415E0
2.409546912E0,4.564949989E0,1.824000120E0,3.924000263E0,6.289954126E0
2.411510860E0,4.642050266E0,2.092950106E0,4.959000111E0,7.107795222E0
2.413474735E0,4.717950344E0,2.398950100E0,6.223950386E0,8.170163734E0
2.415438631E0,4.717950344E0,2.706000090E0,7.603950500E0,9.348879887E0
2.417402468E0,4.642050266E0,3.166050196E0,8.983950615E0,1.059640850E1
2.419366323E0,4.450050354E0,3.664050102E0,1.036305046E1,1.185837367E1
2.421330347E0,4.297049999E0,4.085999966E0,1.143705082E1,1.288278564E1
2.423294321E0,4.027950287E0,4.545000076E0,1.224105072E1,1.366472583E1
2.425258282E0,3.837000132E0,5.119950294E0,1.254795074E1,1.408501079E1
2.427222247E0,3.607050180E0,5.772000313E0,1.247100067E1,1.420748593E1
2.429185942E0,3.492000103E0,6.462000370E0,1.189605045E1,1.398097028E1
2.431149713E0,3.453000069E0,7.189950466E0,1.074705029E1,1.338348561E1
2.433113571E0,3.147000074E0,8.263050079E0,9.252000809E0,1.279769999E1
2.435077403E0,2.878050089E0,9.681000710E0,7.258950233E0,1.243773716E1
2.437041208E0,2.533950090E0,1.083105087E1,3.963000298E0,1.180838420E1
2.439005021E0,2.764050245E0,1.182795048E1,5.899500251E-1,1.216093859E1
2.440968867E0,3.031950235E0,1.309305096E1,-1.287000060E0,1.350100273E1
2.442932706E0,2.839950085E0,1.481700039E1,-2.974050045E0,1.537705403E1
2.444896553E0,2.457000017E0,1.681005096E1,-4.429950237E0,1.755674006E1
2.446860398E0,1.498950124E0,1.937805176E1,-5.848050117E0,2.029668524E1
2.448823389E0,9.240000248E-1,2.206095123E1,-6.499950409E0,2.301713928E1
2.450786631E0,-2.250000089E-1,2.451405144E1,-6.499950409E0,2.536215090E1
2.452751105E0,-1.413000107E0,2.712000084E1,-6.078000069E0,2.782863812E1
2.454715197E0,-2.640000105E0,3.037800217E1,-5.082000256E0,3.091309339E1
2.456678687E0,-3.483000278E0,3.405795288E1,-3.204000235E0,3.438518668E1
2.458642353E0,-4.479000092E0,3.762195206E1,-1.632000089E0,3.792276549E1
2.460606364E0,-5.476050377E0,4.015200043E1,-1.671000123E0,4.055813738E1
2.462570274E0,-6.013050079E0,4.272000122E1,-1.900950074E0,4.318296987E1
2.464534119E0,-5.629050255E0,4.471305084E1,-1.516950130E0,4.509150984E1
2.466497977E0,-5.208000183E0,4.682100296E1,-1.210950017E0,4.712532211E1
2.468461686E0,-4.363950253E0,4.827705383E1,-1.249050021E0,4.848997953E1
2.470425439E0,-3.943050146E0,4.881405258E1,-2.206950188E0,4.902274985E1
2.472388940E0,-3.483000278E0,4.873695374E1,-3.855000257E0,4.901308986E1
2.474352515E0,-2.830950022E0,4.781700134E1,-5.235000134E0,4.818594320E1
2.476316052E0,-2.140950203E0,4.632300186E1,-6.001950264E0,4.675925124E1
2.478279597E0,-1.297950029E0,4.463595200E1,-6.576000214E0,4.513642281E1
2.480243449E0,-6.850500107E-1,4.268100357E1,-6.960000515E0,4.325019036E1
2.482207211E0,-1.480500102E-1,4.061205292E1,-7.342950344E0,4.127080906E1
2.484171657E0,3.490500152E-1,3.858000183E1,-7.534950256E0,3.931048019E1
2.486135903E0,6.550500393E-1,3.654900360E1,-7.495950222E0,3.731551989E1
2.488099822E0,1.077000022E0,3.470895004E1,-7.381050587E0,3.550142321E1
2.490063833E0,1.345050097E0,3.302295303E1,-7.266000271E0,3.383961210E1
2.492027335E0,1.843950033E0,3.137505150E1,-7.305000305E0,3.226696511E1
2.493990987E0,2.610000134E0,2.976495171E1,-7.573050499E0,3.082394434E1
2.495954506E0,3.108000040E0,2.827005196E1,-7.995000362E0,2.954277463E1
2.497918064E0,3.607050180E0,2.685195160E1,-8.377950668E0,2.835891699E1
2.499881520E0,4.143000126E0,2.539605141E1,-8.761050224E0,2.718234497E1
2.501845030E0,4.872000217E0,2.405400085E1,-9.183000565E0,2.620417605E1
2.503808978E0,5.178000450E0,2.267400169E1,-9.718950272E0,2.520674584E1
2.505772797E0,5.560950279E0,2.140995026E1,-1.029405022E1,2.439831158E1
2.507736604E0,5.791050434E0,2.033595085E1,-1.060095024E1,2.365306129E1
2.509700415E0,5.905950069E0,1.933995056E1,-1.086900043E1,2.295755005E1
2.511664266E0,5.791050434E0,1.849695015E1,-1.094595051E1,2.225954318E1
2.513628105E0,5.599950314E0,1.773000145E1,-1.106100082E1,2.163465124E1
2.515591638E0,5.215950012E0,1.723200035E1,-1.102200031E1,2.111000856E1
2.517555261E0,4.833000183E0,1.669500160E1,-1.094595051E1,2.054007794E1
2.519519144E0,4.564949989E0,1.619700050E1,-1.060095024E1,1.988873399E1
2.521482951E0,4.335000038E0,1.558395100E1,-1.025595093E1,1.915297062E1
2.523446646E0,4.105050087E0,1.500900078E1,-9.757950783E0,1.836679460E1
2.525410359E0,4.027950287E0,1.447200108E1,-9.336000443E0,1.768683417E1
2.527374047E0,3.837000132E0,1.385895061E1,-8.875950813E0,1.689898177E1
2.529337743E0,3.607050180E0,1.320795059E1,-8.530950546E0,1.613189037E1
2.531301614E0,3.262050152E0,1.270905018E1,-8.185950279E0,1.546514499E1
2.533265434E0,2.917050123E0,1.217295074E1,-7.995000362E0,1.485294388E1
2.535229240E0,2.725050211E0,1.167405033E1,-7.611000538E0,1.419988306E1
2.537193051E0,2.533950090E0,1.113795090E1,-7.228050232E0,1.351738005E1
2.539156768E0,2.149950027E0,1.063995075E1,-6.844950199E0,1.283293343E1
2.541120513E0,1.537050128E0,1.006500053E1,-6.232050419E0,1.193755466E1
2.543084511E0,1.306950092E0,9.451050758E0,-5.656950474E0,1.109195959E1
2.545048434E0,1.230000019E0,8.800050735E0,-4.852050304E0,1.012403996E1
2.547012082E0,1.192050099E0,8.110050201E0,-3.931950092E0,9.091431638E0
2.548975815E0,1.077000022E0,7.305000305E0,-3.357000113E0,8.111251954E0
2.550939546E0,1.192050099E0,6.577050209E0,-3.049950123E0,7.347160584E0
2.552903277E0,1.077000022E0,5.848950386E0,-2.398950100E0,6.412886343E0
2.554867097E0,9.240000248E-1,5.119950294E0,-1.977000117E0,5.565626337E0
2.556830890E0,8.850000501E-1,4.507050037E0,-1.402050018E0,4.802339990E0
2.558794381E0,9.240000248E-1,3.931950092E0,-5.209500194E-1,4.072517219E0
2.560757964E0,9.240000248E-1,3.166050196E0,2.830500007E-1,3.310251832E0
2.562721135E0,8.089500666E-1,2.667000055E0,8.580000401E-1,2.916068170E0
2.564684426E0,8.850000501E-1,2.131050110E0,9.730500579E-1,2.504281549E0
2.566647150E0,7.320000529E-1,1.594050050E0,9.730500579E-1,2.005902803E0
2.568610041E0,4.639500082E-1,1.134000063E0,9.349500537E-1,1.541212950E0
2.570574244E0,2.719500065E-1,6.360000372E-1,1.126049995E0,1.321529964E0
2.572538053E0,-7.200000435E-2,6.105000153E-2,1.203000069E0,1.206698085E0
2.574502581E0,-1.870500147E-1,-2.059500068E-1,1.165050030E0,1.197808284E0
2.576466899E0,-3.400500119E-1,-5.130000114E-1,1.356000066E0,1.489140423E0
2.578430485E0,-4.930500090E-1,-9.730500579E-1,1.510050058E0,1.862840816E0
2.580394286E0,-6.469500065E-1,-1.240950108E0,1.624950051E0,2.144519561E0
2.582357956E0,-7.999500632E-1,-1.393950105E0,1.740000129E0,2.368674196E0
2.584321667E0,-9.150000215E-1,-1.509000063E0,1.740000129E0,2.478287045E0
2.586285580E0,-9.919500351E-1,-1.663050056E0,1.701000094E0,2.577421518E0
2.588249434E0,-1.030050039E0,-1.701000094E0,1.548000097E0,2.520061250E0
2.590213280E0,-1.030050039E0,-1.663050056E0,1.471050024E0,2.447596115E0
2.592177128E0,-9.919500351E-1,-1.893000126E0,1.395000100E0,2.552144124E0
2.594140433E0,-9.919500351E-1,-2.008050203E0,1.279950023E0,2.579632251E0
2.596103897E0,-9.919500351E-1,-2.199000120E0,1.126049995E0,2.662246231E0
2.598067943E0,-9.529500604E-1,-2.391000032E0,8.959500194E-1,2.725384635E0
2.600031818E0,-8.380500674E-1,-2.506050110E0,6.660000086E-1,2.725100196E0
2.601995661E0,-6.850500107E-1,-2.736000061E0,5.509500504E-1,2.873766833E0
2.603959513E0,-5.700000525E-1,-2.926950216E0,3.600000143E-1,3.003587461E0
2.605923893E0,-4.549500346E-1,-3.042000055E0,2.449500114E-1,3.085570349E0
2.607888121E0,-2.629500031E-1,-3.196050167E0,9.195000678E-2,3.208166794E0
2.609851407E0,-7.200000435E-2,-3.234000206E0,-2.205000073E-2,3.234876742E0
2.611814969E0,-7.200000435E-2,-3.271950245E0,-9.900000691E-2,3.274239363E0
2.613778638E0,-1.480500102E-1,-3.118950129E0,-2.140500098E-1,3.129790107E0
2.615742275E0,4.200000316E-2,-3.042000055E0,-2.910000086E-1,3.056175607E0
2.617705986E0,-3.299999982E-2,-2.926950216E0,-2.910000086E-1,2.941565497E0
2.619669669E0,4.200000316E-2,-2.851050138E0,-2.910000086E-1,2.866170249E0
2.621633048E0,1.570500135E-1,-2.697000027E0,-2.520000041E-1,2.713296492E0
2.623596517E0,8.100000024E-2,-2.467050076E0,-1.369500011E-1,2.472175637E0
2.625560246E0,1.570500135E-1,-2.275950193E0,1.500000060E-2,2.281411622E0
2.627523899E0,2.340000123E-1,-2.046000004E0,9.195000678E-2,2.061389537E0
2.629487593E0,3.109500110E-1,-1.816050053E0,1.300500035E-1,1.847062724E0
2.631451279E0,3.490500152E-1,-1.663050056E0,1.680000126E-1,1.707570029E0
2.633414568E0,4.639500082E-1,-1.432950020E0,3.220500052E-1,1.540231014E0
2.635377973E0,5.410500169E-1,-1.279050112E0,4.360500276E-1,1.455624930E0
2.637342480E0,6.550500393E-1,-1.126049995E0,6.280500293E-1,1.446210906E0
2.639306664E0,8.089500666E-1,-9.340500236E-1,9.349500537E-1,1.549510006E0
2.641270259E0,1.039050102E0,-8.190000653E-1,1.356000066E0,1.894497928E0
2.643234036E0,1.269000053E0,-6.280500293E-1,1.777950048E0,2.272864789E0
2.645197354E0,1.498950124E0,-5.509500504E-1,2.467950106E0,2.939587583E0
2.647160806E0,1.729050040E0,-4.740000367E-1,3.196050167E0,3.664563650E0
2.649123998E0,1.882050037E0,-3.589500189E-1,3.771000147E0,4.229822640E0
2.651087267E0,2.111999989E0,-2.440500110E-1,4.231050014E0,4.735175666E0
2.653050287E0,2.341950178E0,-2.059500068E-1,4.461000443E0,5.042585744E0
2.655013397E0,2.380050182E0,-2.059500068E-1,4.768050194E0,5.333043871E0
2.656977008E0,2.457000017E0,-1.680000126E-1,4.806000233E0,5.400251043E0
2.658940472E0,2.572050095E0,-1.680000126E-1,4.729050159E0,5.385868649E0
2.660903978E0,2.610000134E0,-1.290000081E-1,4.498950005E0,5.202815857E0
2.662867472E0,2.572050095E0,-1.290000081E-1,4.423050404E0,5.118149818E0
2.664831013E0,2.649000168E0,-1.680000126E-1,3.963000298E0,4.769779581E0
2.666794544E0,2.572050095E0,-1.290000081E-1,3.388050079E0,4.255698066E0
2.668758084E0,2.457000017E0,-9.105000645E-2,3.043050051E0,3.912197950E0
2.670721621E0,2.380050182E0,-9.105000645E-2,2.698050022E0,3.598944692E0
2.672684485E0,2.265000105E0,-1.500000060E-2,2.275950193E0,3.210981121E0
2.674647546E0,2.188950062E0,-1.500000060E-2,1.855050087E0,2.869309708E0
2.676611687E0,2.111999989E0,6.105000153E-2,1.548000097E0,2.619270004E0
2.678575525E0,1.996950150E0,9.900000691E-2,1.432950020E0,2.459869236E0
2.680539193E0,2.035050154E0,2.140500098E-1,1.240950108E0,2.393157685E0
2.682502911E0,2.074050188E0,3.289500177E-1,1.087950110E0,2.365064003E0
2.684466914E0,2.035050154E0,4.060500264E-1,7.050000429E-1,2.191650249E0
2.686430833E0,1.996950150E0,6.739500165E-1,4.360500276E-1,2.152244910E0
2.688395587E0,1.996950150E0,8.659500480E-1,2.449500114E-1,2.190360677E0
2.690360082E0,1.959000111E0,1.134000063E0,-6.105000153E-2,2.264368494E0
2.692323818E0,1.959000111E0,1.363950014E0,-2.910000086E-1,2.404729107E0
2.694287777E0,1.959000111E0,1.708950043E0,-5.590500236E-1,2.659084168E0
2.696251423E0,2.074050188E0,1.939050078E0,-8.659500480E-1,2.968411844E0
2.698215161E0,2.149950027E0,2.245950222E0,-1.287000060E0,3.364958644E0
2.700178856E0,2.227050066E0,2.437050104E0,-1.632000089E0,3.682714963E0
2.702142556E0,2.304000139E0,2.590950012E0,-2.092050076E0,4.049458251E0
2.704106426E0,2.341950178E0,2.859000206E0,-2.475000143E0,4.447947675E0
2.706070246E0,2.227050066E0,2.974050045E0,-2.820000172E0,4.664453519E0
2.708034097E0,2.035050154E0,3.166050196E0,-3.165000200E0,4.917573511E0
2.709997939E0,1.729050040E0,3.280950069E0,-3.433950186E0,5.054330943E0
2.711961776E0,1.459950089E0,3.319050074E0,-3.433950186E0,4.993952496E0
2.713925621E0,1.269000053E0,3.319050074E0,-3.357000113E0,4.888343716E0
2.715889648E0,1.039050102E0,3.319050074E0,-3.204000235E0,4.728777433E0
2.717853621E0,8.850000501E-1,3.280950069E0,-2.859000206E0,4.440916642E0
2.719817086E0,8.089500666E-1,3.127050161E0,-2.437050104E0,4.046239752E0
2.721780700E0,7.320000529E-1,3.012000084E0,-1.786050081E0,3.577421344E0
2.723743510E0,6.169500351E-1,2.896950245E0,-7.120500207E-1,3.046303219E0
2.725706584E0,6.550500393E-1,2.859000206E0,9.349500537E-1,3.078490594E0
2.727670382E0,8.089500666E-1,2.935950041E0,3.081000090E0,4.332062373E0
2.729633967E0,1.000050068E0,3.051000118E0,5.572050095E0,6.430897614E0
2.731598038E0,1.153950095E0,3.319050074E0,8.217000008E0,8.936821769E0
2.733561967E0,1.345050097E0,3.625950098E0,1.063200092E1,1.131353691E1
2.735525805E0,1.575000048E0,4.009050369E0,1.243305016E1,1.315803352E1
2.737489666E0,1.537050128E0,4.545000076E0,1.339095020E1,1.422452446E1
2.739453464E0,1.384050012E0,5.119950294E0,1.327605057E1,1.429625840E1
2.741417281E0,1.230000019E0,5.925000191E0,1.262505054E1,1.400037244E1
2.743380952E0,9.240000248E-1,7.036950111E0,1.151295090E1,1.352480984E1
2.745344666E0,7.320000529E-1,8.377950668E0,9.979950905E0,1.305087359E1
2.747308553E0,8.470500112E-1,9.910950661E0,8.293950081E0,1.295121788E1
2.749272375E0,1.153950095E0,1.155900097E1,6.568950176E0,1.334515682E1
2.751236270E0,1.345050097E0,1.343700027E1,4.806000233E0,1.433386809E1
2.753200144E0,1.269000053E0,1.550700092E1,2.851050138E0,1.581789890E1
2.755164166E0,6.940500140E-1,1.776900101E1,9.730500579E-1,1.780915295E1
2.757128144E0,-3.299999982E-2,2.049000168E1,-4.819500148E-1,2.049569549E1
2.759091780E0,-6.850500107E-1,2.340300179E1,-1.210950017E0,2.344432098E1
2.761055522E0,-1.222050071E0,2.646900177E1,-1.134000063E0,2.652145202E1
2.763019520E0,-1.222050071E0,2.961195183E1,-9.420000315E-1,2.965212406E1
2.764983443E0,-6.469500065E-1,3.241005325E1,-8.659500480E-1,3.242807373E1
2.766948358E0,7.699500322E-1,3.509295273E1,-6.360000372E-1,3.510715953E1
2.768912982E0,2.802000046E0,3.739200211E1,-4.440000355E-1,3.749946882E1
2.770876529E0,5.407950401E0,3.927000046E1,-7.510500550E-1,3.964773562E1
2.772840382E0,8.053050041E0,3.984495163E1,-7.510500550E-1,4.065754372E1
2.774804047E0,1.081200027E1,3.877200317E1,-4.060500264E-1,4.025335336E1
2.776767767E0,1.445295048E1,3.578205109E1,-3.670500219E-1,3.859245630E1
2.778730913E0,1.778805161E1,3.229500198E1,5.130000114E-1,3.687336575E1
2.780694228E0,2.024100113E1,2.880705070E1,1.510050058E0,3.523953104E1
2.782658705E0,2.108400154E1,2.543400192E1,1.356000066E0,3.306451740E1
2.784622842E0,1.828605080E1,2.263605118E1,-5.970000029E-1,2.910544409E1
2.786586324E0,1.192395020E1,2.095005035E1,-3.817050219E0,2.440604578E1
2.788549998E0,6.558000088E0,1.922504997E1,-6.307950497E0,2.126970031E1
2.790513648E0,3.262050152E0,1.730895042E1,-7.611000538E0,1.918770609E1
2.792477305E0,1.422000051E0,1.558395100E1,-7.879950523E0,1.752070869E1
2.794440147E0,5.410500169E-1,1.431900024E1,-7.650000572E0,1.624342981E1
2.796403228E0,5.410500169E-1,1.370595074E1,-7.150950432E0,1.546873986E1
2.798367745E0,1.345050097E0,1.339905071E1,-6.423000336E0,1.491974038E1
2.800331842E0,2.035050154E0,1.320795059E1,-5.503050327E0,1.445250673E1
2.802295646E0,2.494950056E0,1.324605083E1,-4.698000431E0,1.427423716E1
2.804259536E0,2.686950207E0,1.347600079E1,-4.162050247E0,1.435774916E1
2.806223499E0,2.649000168E0,1.378200054E1,-3.702000141E0,1.451432209E1
2.808187447E0,2.341950178E0,1.416600037E1,-3.586950064E0,1.479954417E1
2.810151142E0,1.996950150E0,1.451100063E1,-3.702000141E0,1.510833394E1
2.812114911E0,1.614000082E0,1.489395046E1,-3.817050219E0,1.545977455E1
2.814078365E0,1.306950092E0,1.523895073E1,-3.855000257E0,1.577322937E1
2.816041911E0,1.230000019E0,1.550700092E1,-4.047000408E0,1.607352450E1
2.818005444E0,1.039050102E0,1.566000080E1,-4.276950359E0,1.626676226E1
2.819968984E0,8.850000501E-1,1.581405067E1,-4.660050392E0,1.651010277E1
2.821932881E0,7.699500322E-1,1.569900036E1,-5.005050182E0,1.649551341E1
2.823896674E0,7.699500322E-1,1.585200119E1,-5.350050449E0,1.674818810E1
2.825859313E0,6.169500351E-1,1.585200119E1,-5.925000191E0,1.693434960E1
2.827822291E0,1.960500032E-1,1.581405067E1,-6.117000103E0,1.695701402E1
2.829785905E0,-7.200000435E-2,1.577505112E1,-6.346950531E0,1.700415252E1
2.831749346E0,-4.170000255E-1,1.577505112E1,-6.576000214E0,1.709590318E1
2.833713262E0,-7.620000243E-1,1.562205029E1,-6.652950287E0,1.699678930E1
2.835677039E0,-9.529500604E-1,1.558395100E1,-6.768000126E0,1.701685835E1
2.837640852E0,-1.106999993E0,1.562205029E1,-6.691050529E0,1.703068000E1
2.839604654E0,-1.452000022E0,1.566000080E1,-6.576000214E0,1.704663333E1
2.841567963E0,-1.795950055E0,1.569900036E1,-6.154950142E0,1.695781413E1
2.843531420E0,-2.140950203E0,1.588995075E1,-5.695050240E0,1.701492874E1
2.845494971E0,-2.524950027E0,1.627395058E1,-5.158050060E0,1.725752938E1
2.847458495E0,-2.830950022E0,1.673400116E1,-4.774950027E0,1.763068974E1
2.849421902E0,-3.138000250E0,1.715505028E1,-4.200000286E0,1.793830533E1
2.851385343E0,-3.367950201E0,1.795995140E1,-3.894000292E0,1.868331291E1
2.853348857E0,-3.483000278E0,1.891800117E1,-3.510000229E0,1.955357157E1
2.855312346E0,-3.445050240E0,1.964700127E1,-3.049950123E0,2.017858334E1
2.857276119E0,-3.483000278E0,2.068095016E1,-2.743950129E0,2.115093977E1
2.859239808E0,-3.367950201E0,2.164005089E1,-2.551950216E0,2.204874919E1
2.861203322E0,-3.330000162E0,2.248305130E1,-2.359950066E0,2.285051118E1
2.863166887E0,-3.406050205E0,2.332605171E1,-2.130000114E0,2.366944796E1
2.865130402E0,-3.445050240E0,2.401605034E1,-1.900950074E0,2.433624162E1
2.867093945E0,-3.675000191E0,2.474400139E1,-1.747050047E0,2.507635171E1
2.869057438E0,-4.134000301E0,2.531895065E1,-1.516950130E0,2.569903419E1
2.871020945E0,-4.786050320E0,2.566395187E1,-1.249050021E0,2.613627421E1
2.872984354E0,-5.131050110E0,2.577900124E1,-9.810000658E-1,2.630298350E1
2.874947791E0,-5.743950367E0,2.597100067E1,-9.420000315E-1,2.661528143E1
2.876911521E0,-6.051000118E0,2.593200111E1,-9.810000658E-1,2.664668169E1
2.878875169E0,-6.280950069E0,2.562600136E1,-9.810000658E-1,2.640273926E1
2.880838869E0,-6.280950069E0,2.539605141E1,-9.420000315E-1,2.617818032E1
2.882802553E0,-6.051000118E0,2.497395134E1,-9.420000315E-1,2.571381364E1
2.884766023E0,-5.706000328E0,2.420805168E1,-9.810000658E-1,2.489077273E1
2.886729555E0,-5.361000061E0,2.344095039E1,-9.040500522E-1,2.406316238E1
2.888693089E0,-5.016000271E0,2.259795189E1,-9.040500522E-1,2.316559938E1
2.890656625E0,-4.786050320E0,2.164005089E1,-8.659500480E-1,2.217989967E1
2.892620030E0,-4.671000004E0,2.075805092E1,-9.420000315E-1,2.129794082E1
2.894583473E0,-4.747950077E0,1.991505051E1,-1.018950105E0,2.049854936E1
2.896547388E0,-4.786050320E0,1.903305054E1,-1.057050109E0,1.965402364E1
2.898511164E0,-4.671000004E0,1.799805069E1,-1.096050024E0,1.862657766E1
2.900474794E0,-4.633050442E0,1.696395111E1,-1.057050109E0,1.761698466E1
2.902438469E0,-4.441050053E0,1.588995075E1,-9.810000658E-1,1.652803139E1
2.904402344E0,-4.326000214E0,1.485600090E1,-9.420000315E-1,1.550169038E1
2.906366160E0,-4.134000301E0,1.389705086E1,-9.040500522E-1,1.452705364E1
2.908330011E0,-3.751050234E0,1.286295033E1,-8.659500480E-1,1.342668010E1
2.910293852E0,-3.291000128E0,1.190400028E1,-9.810000658E-1,1.238944170E1
2.912257359E0,-2.830950022E0,1.090800095E1,-1.287000060E0,1.134262456E1
2.914220950E0,-2.371050119E0,9.949950218E0,-1.939050078E0,1.041073020E1
2.916184344E0,-1.873050094E0,9.145050049E0,-2.014950037E0,9.549883806E0
2.918147796E0,-1.489950061E0,8.685000420E0,-2.206950188E0,9.084041645E0
2.920111348E0,-1.030050039E0,8.071949959E0,-2.359950066E0,8.472705798E0
2.922074871E0,-5.700000525E-1,7.573050499E0,-2.359950066E0,7.952695029E0
2.924038412E0,-3.299999982E-2,7.152000427E0,-1.861950040E0,7.390470693E0
2.926001948E0,3.109500110E-1,6.844950199E0,-1.363950014E0,6.986443500E0
2.927965847E0,8.089500666E-1,6.538950443E0,-7.510500550E-1,6.631466602E0
2.929929640E0,1.192050099E0,6.232050419E0,3.979500234E-1,6.357499515E0
2.931893271E0,1.384050012E0,5.964000225E0,1.624950051E0,6.334457813E0
2.933856950E0,1.651950121E0,5.656950474E0,2.773950100E0,6.513434349E0
2.935820660E0,1.920000076E0,5.389050484E0,4.000950336E0,6.981108007E0
2.937784381E0,2.265000105E0,5.044050217E0,5.074050426E0,7.504575657E0
2.939748024E0,2.725050211E0,4.507050037E0,5.956050396E0,7.950719151E0
2.941711690E0,3.184950113E0,4.009050369E0,6.721950531E0,8.449911895E0
2.943675431E0,3.760050297E0,3.433950186E0,7.182000160E0,8.804039892E0
2.945639150E0,4.182000160E0,2.859000206E0,7.411950588E0,8.977751335E0
2.947603013E0,4.603050232E0,2.398950100E0,7.374000549E0,9.017700212E0
2.949566837E0,4.909950256E0,1.863000035E0,7.144050121E0,8.866556986E0
2.951530822E0,5.370000362E0,1.326000094E0,6.721950531E0,8.705159337E0
2.953494760E0,5.791050434E0,8.280000687E-1,6.262050152E0,8.569429465E0
2.955459177E0,6.289950371E0,2.530499995E-1,5.802000046E0,8.560999620E0
2.957423453E0,6.673050404E0,-1.680000126E-1,5.341950417E0,8.549518112E0
2.959386972E0,7.171050549E0,-5.890500546E-1,5.151000023E0,8.848940455E0
2.961350733E0,7.593000412E0,-1.126049995E0,5.151000023E0,9.244157349E0
2.963314459E0,8.091000557E0,-1.624050021E0,5.112000465E0,9.707439273E0
2.965278195E0,8.628000259E0,-2.238000154E0,4.959000111E0,1.020013310E1
2.967242239E0,9.010950089E0,-2.736000061E0,4.921050072E0,1.062542477E1
2.969206193E0,9.318000793E0,-3.081000090E0,5.074050426E0,1.104824366E1
2.971169822E0,9.241050720E0,-3.387000084E0,5.227050304E0,1.114409453E1
2.973133560E0,9.010950089E0,-3.616950274E0,5.227050304E0,1.102731181E1
2.975097245E0,8.512949944E0,-3.808950186E0,5.151000023E0,1.065416442E1
2.977060945E0,7.783950329E0,-3.924000263E0,5.074050426E0,1.008630996E1
2.979024950E0,7.095000267E0,-4.000950336E0,4.843950272E0,9.476839485E0
2.980988866E0,6.289950371E0,-4.000950336E0,4.729050159E0,8.828079897E0
2.982952556E0,5.560950279E0,-3.961950302E0,4.614000320E0,8.240765569E0
2.984916320E0,5.025000095E0,-3.771000147E0,4.308000088E0,7.617738038E0
2.986880179E0,4.450050354E0,-3.655950069E0,3.963000298E0,6.991014978E0
2.988844010E0,3.990000248E0,-3.616950274E0,3.618000269E0,6.487862299E0
2.990807859E0,3.721950293E0,-3.616950274E0,3.234000206E0,6.115063417E0
2.992771702E0,3.492000103E0,-3.694050074E0,2.965950251E0,5.885314907E0
2.994735481E0,3.415050268E0,-3.808950186E0,2.773950100E0,5.819404524E0
2.996699296E0,3.184950113E0,-3.771000147E0,2.545050144E0,5.553524068E0
2.998663146E0,3.070050240E0,-3.771000147E0,2.353049994E0,5.402082455E0
3.000626986E0,2.955000162E0,-3.655950069E0,2.200050116E0,5.190203982E0
3.002590654E0,2.686950207E0,-3.502050161E0,1.855050087E0,4.788033790E0
3.004554373E0,2.649000168E0,-3.349050045E0,1.624950051E0,4.568785480E0
3.006518094E0,2.610000134E0,-3.271950245E0,1.471050024E0,4.436411531E0
3.008481822E0,2.572050095E0,-3.234000206E0,1.318050027E0,4.337217414E0
3.010445329E0,2.494950056E0,-3.118950129E0,1.050000072E0,4.129785205E0
3.012408901E0,2.494950056E0,-2.965950251E0,8.580000401E-1,3.969609646E0
3.014372434E0,2.494950056E0,-2.812050104E0,6.280500293E-1,3.811410291E0
3.016335978E0,2.494950056E0,-2.697000027E0,5.509500504E-1,3.715121921E0
3.018299710E0,2.494950056E0,-2.581950188E0,6.280500293E-1,3.644953963E0
3.020263376E0,2.457000017E0,-2.391000032E0,6.280500293E-1,3.485423515E0
3.022227433E0,2.419050217E0,-2.314050198E0,6.660000086E-1,3.413237214E0
3.024191376E0,2.457000017E0,-2.161050081E0,7.810500264E-1,3.364078727E0
3.026155161E0,2.457000017E0,-1.969050050E0,7.810500264E-1,3.244078656E0
3.028118993E0,2.494950056E0,-1.854000092E0,7.429500222E-1,3.195945378E0
3.030082702E0,2.457000017E0,-1.701000094E0,6.280500293E-1,3.053636724E0
3.032046450E0,2.457000017E0,-1.548000097E0,4.360500276E-1,2.936544400E0
3.034011168E0,2.457000017E0,-1.393950105E0,2.830500007E-1,2.839025058E0
3.035975601E0,2.457000017E0,-1.240950108E0,1.500000060E-2,2.752640778E0
3.037939348E0,2.494950056E0,-1.087950110E0,-9.900000691E-2,2.723639518E0
3.039903296E0,2.494950056E0,-8.959500194E-1,-1.759500057E-1,2.656776359E0
3.041867165E0,2.533950090E0,-8.190000653E-1,-2.520000041E-1,2.674914610E0
3.043831060E0,2.686950207E0,-6.280500293E-1,-2.140500098E-1,2.767664297E0
3.045794898E0,2.802000046E0,-6.280500293E-1,-9.900000691E-2,2.873230255E0
3.047758752E0,2.992950201E0,-5.509500504E-1,5.295000225E-2,3.043698501E0
3.049721650E0,3.184950113E0,-4.740000367E-1,1.680000126E-1,3.224408049E0
3.051684829E0,3.262050152E0,-3.979500234E-1,4.750500321E-1,3.320392740E0
3.053648808E0,3.376950264E0,-3.589500189E-1,7.429500222E-1,3.476292988E0
3.055612539E0,3.453000069E0,-2.830500007E-1,1.050000072E0,3.620197084E0
3.057576630E0,3.492000103E0,-2.059500068E-1,1.279950023E0,3.724882842E0
3.059540616E0,3.529950142E0,-1.680000126E-1,1.432950020E0,3.813412877E0
3.061504259E0,3.645000219E0,-1.290000081E-1,1.510050058E0,3.947520586E0
3.063468002E0,3.798000097E0,-1.290000081E-1,1.701000094E0,4.163513788E0
3.065430540E0,3.874950171E0,2.295000106E-2,1.969950080E0,4.347006883E0
3.067393445E0,4.027950287E0,9.900000691E-2,2.161050081E0,4.572124448E0
3.069357316E0,4.105050087E0,2.530499995E-1,2.122950077E0,4.628432515E0
3.071320904E0,4.182000160E0,4.060500264E-1,2.085000038E0,4.690546570E0
3.073284795E0,4.335000038E0,5.590500236E-1,1.893000126E0,4.763214433E0
3.075248597E0,4.488000393E0,5.590500236E-1,1.701000094E0,4.831985697E0
3.077212252E0,4.642050266E0,6.739500165E-1,1.663050056E0,4.976803672E0
3.079175964E0,4.680000305E0,7.510500550E-1,1.471050024E0,4.962909148E0
3.081139967E0,4.756950378E0,7.890000343E-1,1.471050024E0,5.041337732E0
3.083103885E0,4.948050022E0,9.040500522E-1,1.203000069E0,5.171819282E0
3.085067405E0,5.140050411E0,1.018950105E0,1.050000072E0,5.344237803E0
3.087031041E0,5.370000362E0,1.134000063E0,8.580000401E-1,5.555089928E0
3.088994852E0,5.560950279E0,1.326000094E0,6.660000086E-1,5.755519114E0
3.090958630E0,5.791050434E0,1.441050053E0,8.580000401E-1,6.029017702E0
3.092922308E0,5.830050468E0,1.594050050E0,1.471050024E0,6.220488100E0
3.094886016E0,5.752950191E0,1.978050113E0,2.275950193E0,6.495311189E0
3.096849570E0,5.638050079E0,2.476050138E0,3.463950157E0,7.065223540E0
3.098813170E0,5.485050201E0,2.896950245E0,4.921050072E0,7.918006709E0
3.100777192E0,5.140050411E0,3.396000147E0,6.760950089E0,9.146768901E0
3.102741091E0,4.795050144E0,3.931950092E0,8.715000153E0,1.069597892E1
3.104704929E0,4.450050354E0,4.392000198E0,1.055505085E1,1.226791394E1
3.106668785E0,4.066950321E0,4.852050304E0,1.208805084E1,1.364563851E1
3.108632269E0,3.682950258E0,5.311950207E0,1.323795033E1,1.473174350E1
3.110595862E0,3.376950264E0,5.809950352E0,1.415805054E1,1.567194025E1
3.112559386E0,2.917050123E0,6.424050331E0,1.465605068E1,1.626583615E1
3.114522934E0,2.380050182E0,7.458000183E0,1.480905056E1,1.675095174E1
3.116486515E0,1.843950033E0,8.569950104E0,1.442595100E1,1.688052899E1
3.118450086E0,1.384050012E0,9.681000710E0,1.308495045E1,1.633564499E1
3.120413935E0,1.230000019E0,1.090800095E1,1.189605045E1,1.618682801E1
3.122377702E0,1.153950095E0,1.209600067E1,9.787950516E0,1.560284616E1
3.124341216E0,1.153950095E0,1.297800064E1,6.301050186E0,1.447284820E1
3.126304794E0,1.153950095E0,1.359105110E1,2.430000067E0,1.385471657E1
3.128269091E0,1.114950061E0,1.454895115E1,-7.510500550E-1,1.461092637E1
3.130233177E0,8.850000501E-1,1.642695045E1,-3.049950123E0,1.673111240E1
3.132196037E0,6.550500393E-1,1.861200142E1,-4.813050270E0,1.923541370E1
3.134159256E0,2.340000123E-1,2.121795082E1,-6.615000248E0,2.222643519E1
3.136123189E0,-7.230000496E-1,2.535705185E1,-7.495950222E0,2.645169328E1
3.138086927E0,-1.950000048E0,3.072300148E1,-6.385050297E0,3.144000934E1
3.140050613E0,-2.640000105E0,3.651105118E1,-4.890000343E0,3.693153885E1
3.142014314E0,-3.138000250E0,4.199205017E1,-2.935050249E0,4.221129995E1
3.143976923E0,-3.253050089E0,4.743405151E1,2.830500007E-1,4.754631106E1
3.145939852E0,-3.598050117E0,5.249295425E1,1.585950017E0,5.264001756E1
3.147904406E0,-4.326000214E0,5.651805115E1,3.979500234E-1,5.668476645E1
3.149868476E0,-4.594050407E0,5.912400436E1,-2.245050192E0,5.934470020E1
3.151831924E0,-4.057950020E0,6.073395157E1,-4.392000198E0,6.102761258E1
3.153795555E0,-2.985000134E0,6.188400269E1,-6.844950199E0,6.233292354E1
3.155759437E0,-1.758000135E0,6.219000244E1,-8.071050644E0,6.273618435E1
3.157723245E0,1.189500093E-1,6.153900146E1,-9.298050880E0,6.223758190E1
3.159687642E0,2.035050154E0,5.923905182E1,-1.063905048E1,6.022122620E1
3.161651864E0,3.874950171E0,5.556000137E1,-1.140600014E1,5.685090879E1
3.163615286E0,5.178000450E0,5.080695343E1,-1.094595051E1,5.222999175E1
3.165578943E0,5.599950314E0,4.609305191E1,-1.037100029E1,4.757611297E1
3.167542461E0,5.560950279E0,4.191495132E1,-1.010295010E1,4.347248455E1
3.169506020E0,4.909950256E0,3.858000183E1,-9.604050636E0,4.005948004E1
3.171469401E0,4.488000393E0,3.536100006E1,-8.914050102E0,3.674238373E1
3.173432847E0,4.372950077E0,3.248595047E1,-8.569950104E0,3.388072778E1
3.175396536E0,4.258049965E0,2.995695114E1,-8.301000595E0,3.137605013E1
3.177360153E0,4.411950111E0,2.765700150E1,-8.032950401E0,2.913594563E1
3.179323859E0,4.795050144E0,2.551095200E1,-8.148000717E0,2.720645316E1
3.181287538E0,5.215950012E0,2.344095039E1,-8.608050346E0,2.551044532E1
3.183251058E0,5.485050201E0,2.175495148E1,-9.183000565E0,2.424234289E1
3.185214622E0,5.676000118E0,2.018295097E1,-9.834000587E0,2.315763492E1
3.187178515E0,5.868000507E0,1.888005066E1,-1.048605061E1,2.237961126E1
3.189142312E0,6.136050224E0,1.769205093E1,-1.086900043E1,2.165167312E1
3.191105988E0,6.289950371E0,1.681005096E1,-1.132905006E1,2.122471824E1
3.193069699E0,6.289950371E0,1.600500107E1,-1.148205090E1,2.067754888E1
3.195033388E0,6.328050137E0,1.539195061E1,-1.152105045E1,2.024082423E1
3.196997083E0,6.213000298E0,1.489395046E1,-1.136700058E1,1.973929673E1
3.198960459E0,6.213000298E0,1.439595032E1,-1.094595051E1,1.912220151E1
3.200923929E0,6.328050137E0,1.389705086E1,-1.079295063E1,1.869919850E1
3.202887433E0,6.213000298E0,1.332300091E1,-1.033305073E1,1.796874128E1
3.204850927E0,6.481050491E0,1.255605030E1,-9.796050072E0,1.719363288E1
3.206814484E0,6.673050404E0,1.209600067E1,-9.412950516E0,1.671665252E1
3.208778047E0,6.750000477E0,1.171305084E1,-8.991000175E0,1.623564445E1
3.210741537E0,6.750000477E0,1.144395065E1,-8.493000031E0,1.576887956E1
3.212705049E0,6.826050282E0,1.098495007E1,-7.995000362E0,1.520474009E1
3.214668591E0,6.711000443E0,1.044795036E1,-7.765050411E0,1.464558642E1
3.216632124E0,6.442950249E0,9.910950661E0,-7.266000271E0,1.387563731E1
3.218595700E0,6.250950336E0,9.412950516E0,-6.576000214E0,1.307370630E1
3.220559269E0,6.366000175E0,8.914950371E0,-6.423000336E0,1.269870984E1
3.222523118E0,6.136050224E0,8.493000031E0,-6.270000458E0,1.221044912E1
3.224486885E0,5.830050468E0,7.879950523E0,-5.311950207E0,1.114898756E1
3.226450565E0,5.791050434E0,7.152000427E0,-3.739950180E0,9.933509077E0
3.228414271E0,5.560950279E0,6.424050331E0,-2.514000177E0,8.860744188E0
3.230377960E0,5.101050377E0,5.656950474E0,-2.053950071E0,7.889265777E0
3.232341655E0,4.603050232E0,4.813950062E0,-1.171950102E0,6.762814035E0
3.234304626E0,4.027950287E0,4.085999966E0,-2.910000086E-1,5.744950847E0
3.236267809E0,3.568050146E0,3.127050161E0,7.810500264E-1,4.808270344E0
3.238231632E0,3.262050152E0,2.245950222E0,1.240950108E0,4.150327790E0
3.240195268E0,3.031950235E0,1.518000126E0,1.548000097E0,3.727378558E0
3.242159137E0,2.649000168E0,9.430500269E-1,1.777950048E0,3.326808022E0
3.244122947E0,2.341950178E0,4.060500264E-1,2.122950077E0,3.186930230E0
3.246087655E0,1.882050037E0,-1.290000081E-1,2.659050226E0,3.260260948E0
3.248052100E0,1.422000051E0,-6.280500293E-1,2.928000212E0,3.315074090E0
3.250015484E0,1.230000019E0,-1.126049995E0,3.043050051E0,3.470020497E0
3.251979179E0,9.240000248E-1,-1.432950020E0,2.965950251E0,3.421108401E0
3.253941962E0,6.940500140E-1,-1.777950048E0,3.043050051E0,3.592069794E0
3.255905049E0,2.719500065E-1,-2.046000004E0,3.043050051E0,3.676986053E0
3.257869159E0,1.570500135E-1,-2.351999998E0,3.004050255E0,3.818492717E0
3.259832970E0,4.050000105E-3,-2.581950188E0,2.812950134E0,3.818268146E0
3.261796823E0,-2.250000089E-1,-2.736000061E0,2.430000067E0,3.666227170E0
3.263760663E0,-3.400500119E-1,-2.851050138E0,2.046000004E0,3.525654112E0
3.265724701E0,-6.469500065E-1,-2.965950251E0,1.855050087E0,3.557613811E0
3.267688673E0,-7.999500632E-1,-3.042000055E0,1.585950017E0,3.522629969E0
3.269652183E0,-9.150000215E-1,-3.234000206E0,1.395000100E0,3.638956945E0
3.271615829E0,-8.380500674E-1,-3.463950157E0,1.126049995E0,3.737548287E0
3.273579528E0,-7.620000243E-1,-3.616950274E0,9.349500537E-1,3.812755555E0
3.275543211E0,-5.700000525E-1,-3.771000147E0,6.280500293E-1,3.865202324E0
3.277507096E0,-4.549500346E-1,-3.924000263E0,5.509500504E-1,3.988521475E0
3.279470914E0,-4.549500346E-1,-4.077000141E0,5.130000114E-1,4.134256728E0
3.281434900E0,-3.780000210E-1,-4.192049980E0,4.360500276E-1,4.231584417E0
3.283398837E0,-4.930500090E-1,-4.231050014E0,5.130000114E-1,4.290460529E0
3.285362893E0,-7.230000496E-1,-4.345950127E0,6.280500293E-1,4.450220041E0
3.287326914E0,-9.150000215E-1,-4.269000053E0,6.280500293E-1,4.410899379E0
3.289291040E0,-1.068000078E0,-4.153950214E0,7.050000429E-1,4.346602307E0
3.291255139E0,-1.336950064E0,-4.077000141E0,6.660000086E-1,4.341995122E0
3.293218943E0,-1.528050065E0,-4.077000141E0,6.280500293E-1,4.399012843E0
3.295182834E0,-1.681950092E0,-3.961950302E0,5.899500251E-1,4.344427159E0
3.297146672E0,-1.873050094E0,-3.961950302E0,7.050000429E-1,4.438737648E0
3.299110526E0,-1.987950087E0,-3.961950302E0,8.200500607E-1,4.507934987E0
3.301074711E0,-2.179949999E0,-3.847050190E0,1.050000072E0,4.544719718E0
3.303038813E0,-2.332950115E0,-3.771000147E0,1.240950108E0,4.604677569E0
3.305002842E0,-2.448000193E0,-3.655950069E0,1.432950020E0,4.627312569E0
3.306966892E0,-2.563050032E0,-3.541050196E0,1.585950017E0,4.650107462E0
3.308931017E0,-2.524950027E0,-3.387000084E0,1.930950046E0,4.644966123E0
