"Time (s)","Acceleration x (m/s^2)","Acceleration y (m/s^2)","Acceleration z (m/s^2)","Absolute acceleration (m/s^2)"
3.952610800E-2,7.669050217E0,8.991000175E0,4.690950394E0,1.271445756E1
4.148788100E-2,7.822950363E0,8.148000717E0,5.457000256E0,1.254461318E1
4.345223800E-2,7.822950363E0,7.305000305E0,6.031950474E0,1.228600864E1
4.541496000E-2,7.938000202E0,6.538950443E0,5.841000080E0,1.182738357E1
4.737816100E-2,8.014050484E0,5.925000191E0,5.074050426E0,1.118376592E1
4.934103600E-2,7.938000202E0,5.350050449E0,4.153950214E0,1.043504621E1
5.130400700E-2,7.899000168E0,4.774950027E0,2.965950251E0,9.694906514E0
5.326686200E-2,8.014050484E0,4.162050247E0,1.893000126E0,9.226652529E0
5.522976100E-2,8.091000557E0,3.549000263E0,1.432950020E0,8.950588731E0
5.719237300E-2,8.206049919E0,2.821050167E0,1.356000066E0,8.782728249E0
5.915506900E-2,8.167950630E0,2.131050110E0,1.432950020E0,8.562133953E0
6.111784900E-2,8.128950119E0,1.479000092E0,1.510050058E0,8.399257258E0
6.308060500E-2,7.975950241E0,9.430500269E-1,1.893000126E0,8.251580156E0
6.504438400E-2,7.783950329E0,2.910000086E-1,2.659050226E0,8.230741876E0
6.700788400E-2,7.477950573E0,-2.440500110E-1,3.463950157E0,8.244892714E0
6.897075400E-2,7.095000267E0,-6.660000086E-1,4.153950214E0,8.248508179E0
7.093380900E-2,6.750000477E0,-1.240950108E0,4.461000443E0,8.185535325E0
7.289670900E-2,6.328050137E0,-1.738950133E0,4.423050404E0,7.914009159E0
7.485965500E-2,5.944950104E0,-2.314050198E0,4.153950214E0,7.612658040E0
7.682255600E-2,5.485050201E0,-2.851050138E0,3.426000118E0,7.067654449E0
7.878548300E-2,5.025000095E0,-3.310950041E0,2.851050138E0,6.658941584E0
8.074840500E-2,4.642050266E0,-3.808950186E0,2.467950106E0,6.492111360E0
8.271132900E-2,4.297049999E0,-4.192049980E0,2.314950228E0,6.434043541E0
8.467420700E-2,4.027950287E0,-4.651950359E0,2.275950193E0,6.560866935E0
8.663709800E-2,3.682950258E0,-4.920000076E0,2.238000154E0,6.540578571E0
8.860003700E-2,3.415050268E0,-5.341950417E0,2.200050116E0,6.711126813E0
9.056298500E-2,3.147000074E0,-5.686950207E0,1.969950080E0,6.791591525E0
9.252622000E-2,2.878050089E0,-6.031950474E0,1.624950051E0,6.878085599E0
9.448937000E-2,2.610000134E0,-6.376950264E0,1.432950020E0,7.037822186E0
9.645176000E-2,2.265000105E0,-6.607050419E0,1.240950108E0,7.093891589E0
9.841437200E-2,2.035050154E0,-6.837000370E0,8.959500194E-1,7.189487438E0
1.003772680E-1,1.690050125E0,-7.027950287E0,5.509500504E-1,7.249268971E0
1.023401050E-1,1.422000051E0,-7.182000160E0,3.600000143E-1,7.330266738E0
1.043039440E-1,1.306950092E0,-7.297050476E0,1.680000126E-1,7.415071692E0
1.062674900E-1,1.153950095E0,-7.297050476E0,1.500000060E-2,7.387744681E0
1.082303520E-1,1.000050068E0,-7.297050476E0,-1.759500057E-1,7.367360735E0
1.101934150E-1,8.470500112E-1,-7.143000126E0,-4.819500148E-1,7.209176121E0
1.121553530E-1,6.169500351E-1,-6.952050209E0,-6.739500165E-1,7.011835571E0
1.141176310E-1,3.490500152E-1,-6.684000492E0,-9.040500522E-1,6.753888139E0
1.160804840E-1,1.570500135E-1,-6.184950352E0,-1.018950105E0,6.270289856E0
1.180431680E-1,-1.480500102E-1,-5.494950294E0,-1.096050024E0,5.605151488E0
1.200061770E-1,-4.170000255E-1,-4.729050159E0,-1.018950105E0,4.855518896E0
1.219690910E-1,-5.700000525E-1,-3.924000263E0,-9.420000315E-1,4.075541950E0
1.239321180E-1,-6.469500065E-1,-3.196050167E0,-9.420000315E-1,3.394207572E0
1.258951350E-1,-5.700000525E-1,-2.581950188E0,-9.040500522E-1,2.794400352E0
1.278577280E-1,-5.320500135E-1,-2.046000004E0,-7.890000343E-1,2.256482725E0
1.298204450E-1,-3.780000210E-1,-1.509000063E0,-4.819500148E-1,1.628570239E0
1.317835380E-1,-2.629500031E-1,-9.340500236E-1,-2.520000041E-1,1.002544838E0
1.337465200E-1,-3.299999982E-2,-5.130000114E-1,-6.105000153E-2,5.176727870E-1
1.357087180E-1,1.570500135E-1,-2.059500068E-1,1.500000060E-2,2.594322881E-1
1.376711420E-1,3.490500152E-1,-1.500000060E-2,-6.105000153E-2,3.546660624E-1
1.396349160E-1,5.410500169E-1,1.380000114E-1,-1.759500057E-1,5.854378946E-1
1.415982940E-1,8.089500666E-1,2.530499995E-1,-4.060500264E-1,9.398463366E-1
1.435611400E-1,1.000050068E0,3.679500222E-1,-6.739500165E-1,1.260831465E0
1.455241420E-1,1.230000019E0,4.440000355E-1,-1.210950017E0,1.782255880E0
1.474869910E-1,1.306950092E0,4.830000103E-1,-1.786050081E0,2.265255493E0
1.494498960E-1,1.459950089E0,5.209500194E-1,-2.514000177E0,2.953479317E0
1.514128210E-1,1.843950033E0,5.590500236E-1,-3.127050161E0,3.673027548E0
1.533757400E-1,2.304000139E0,6.360000372E-1,-3.549000263E0,4.278821749E0
1.553386640E-1,2.764050245E0,8.280000687E-1,-3.472050190E0,4.514497801E0
1.573015870E-1,3.223050117E0,1.096050024E0,-2.896950245E0,4.470089310E0
1.592637710E-1,3.607050180E0,1.402950048E0,-1.479000092E0,4.143250066E0
1.612261850E-1,3.913050175E0,1.824000120E0,6.660000086E-1,4.368351419E0
1.631892390E-1,3.874950171E0,2.361000061E0,3.502950191E0,5.732383462E0
1.651521060E-1,3.568050146E0,3.051000118E0,6.760950089E0,8.231040619E0
1.671153540E-1,3.070050240E0,3.741000175E0,9.787950516E0,1.091898650E1
1.690784910E-1,2.610000134E0,4.392000198E0,1.216500092E1,1.319427958E1
1.710412320E-1,2.111999989E0,5.119950294E0,1.381305027E1,1.488202919E1
1.730040970E-1,1.690050125E0,5.887050152E0,1.446405029E1,1.570739889E1
1.749672090E-1,1.537050128E0,6.538950443E0,1.431105042E1,1.580906575E1
1.769302490E-1,1.306950092E0,7.458000183E0,1.323795033E1,1.525035128E1
1.788932880E-1,1.230000019E0,8.493000031E0,1.105305099E1,1.399335149E1
1.808563280E-1,1.269000053E0,9.565950394E0,8.332050323E0,1.274915019E1
1.828190720E-1,1.192050099E0,1.060095024E1,5.266050339E0,1.189673971E1
1.847819190E-1,1.230000019E0,1.171305084E1,2.161050081E0,1.197408024E1
1.867455300E-1,1.269000053E0,1.278600025E1,-8.659500480E-1,1.287796696E1
1.887089170E-1,1.077000022E0,1.378200054E1,-3.472050190E0,1.425337155E1
1.906707250E-1,2.340000123E-1,1.504695034E1,-5.772000313E0,1.611773738E1
1.926329960E-1,-1.068000078E0,1.642695045E1,-7.495950222E0,1.808796824E1
1.945960060E-1,-2.755050182E0,1.815195084E1,-8.185950279E0,2.010207459E1
1.965588160E-1,-4.633050442E0,2.026005173E1,-7.726050377E0,2.217265674E1
1.985221190E-1,-6.741000175E0,2.290395164E1,-6.730050087E0,2.480575858E1
2.004852780E-1,-8.734050751E0,2.593200111E1,-5.962950230E0,2.800551909E1
2.024484760E-1,-1.049700069E1,2.949705124E1,-4.774950027E0,3.167117306E1
2.044116620E-1,-1.206795025E1,3.333000183E1,-3.702000141E0,3.564027568E1
2.063745300E-1,-1.383105087E1,3.792900085E1,-3.357000113E0,4.051143695E1
2.083375310E-1,-1.536405087E1,4.283505249E1,-3.204000235E0,4.561974790E1
2.103003950E-1,-1.628400040E1,4.674405289E1,-3.433950186E0,4.961821403E1
2.122633000E-1,-1.685895157E1,5.069205093E1,-4.429950237E0,5.360534241E1
2.142262250E-1,-1.666800117E1,5.418000412E1,-5.617950439E0,5.696364171E1
2.161891440E-1,-1.601595116E1,5.693895340E1,-6.538050175E0,5.950883301E1
2.181520640E-1,-1.475100040E1,5.816595459E1,-7.036050320E0,6.041834399E1
2.201149860E-1,-1.256700039E1,5.797395325E1,-7.305000305E0,5.976848487E1
2.220779090E-1,-9.807000160E0,5.644095230E1,-8.148000717E0,5.786318574E1
2.240408320E-1,-7.047000408E0,5.402595139E1,-8.914050102E0,5.520800601E1
2.260041160E-1,-5.053950310E0,5.119005203E1,-9.067950249E0,5.223209322E1
2.279672940E-1,-3.751050234E0,4.770195389E1,-8.646000862E0,4.862406928E1
2.299303400E-1,-2.563050032E0,4.413795090E1,-7.650000572E0,4.486925945E1
2.318934350E-1,-1.336950064E0,4.061205292E1,-7.189950466E0,4.126525979E1
2.338574090E-1,-2.629500031E-1,3.727695084E1,-6.960000515E0,3.792204917E1
2.358211250E-1,9.240000248E-1,3.421095276E1,-6.997950554E0,3.493156705E1
2.377837780E-1,1.498950124E0,3.164295197E1,-7.113000393E0,3.246718397E1
2.397467420E-1,2.111999989E0,2.953500175E1,-7.342950344E0,3.050730720E1
2.417094590E-1,2.533950090E0,2.765700150E1,-7.534950256E0,2.877683287E1
2.436722620E-1,2.878050089E0,2.581695175E1,-7.918050289E0,2.715683506E1
2.456353400E-1,3.223050117E0,2.432295036E1,-8.032950401E0,2.581709237E1
2.475983370E-1,3.337950230E0,2.290395164E1,-8.377950668E0,2.461550264E1
2.495614280E-1,3.760050297E0,2.156295013E1,-8.530950546E0,2.349203937E1
2.515244910E-1,3.874950171E0,2.049000168E1,-8.799000740E0,2.263355521E1
2.534874310E-1,3.990000248E0,1.949295044E1,-9.183000565E0,2.191398453E1
2.554504110E-1,4.258049965E0,1.849695015E1,-9.489000320E0,2.122049202E1
2.574136830E-1,4.372950077E0,1.761495018E1,-9.796050072E0,2.062454264E1
2.593768700E-1,4.297049999E0,1.692495155E1,-1.014105034E1,2.019305637E1
2.613400640E-1,4.105050087E0,1.631204987E1,-1.044795036E1,1.980136545E1
2.633032550E-1,3.837000132E0,1.573695087E1,-1.037100029E1,1.923361224E1
2.652664440E-1,3.568050146E0,1.523895073E1,-1.033305073E1,1.875442717E1
2.672296680E-1,3.223050117E0,1.470195103E1,-9.949050903E0,1.804214593E1
2.691927660E-1,2.917050123E0,1.428105068E1,-9.373950005E0,1.732998929E1
2.711559010E-1,2.725050211E0,1.378200054E1,-8.722949982E0,1.653660467E1
2.731189230E-1,2.533950090E0,1.320795059E1,-8.071050644E0,1.568479265E1
2.750819780E-1,2.533950090E0,1.267095089E1,-7.687950134E0,1.503590625E1
2.770450530E-1,2.533950090E0,1.213395023E1,-7.305000305E0,1.438807426E1
2.790081250E-1,2.419050217E0,1.163595009E1,-6.768000126E0,1.367673075E1
2.809712030E-1,2.380050182E0,1.102305031E1,-6.117000103E0,1.282926215E1
2.829342790E-1,2.380050182E0,1.063995075E1,-5.809950352E0,1.235429941E1
2.848971770E-1,2.494950056E0,1.018005085E1,-5.464950085E0,1.182048605E1
2.868601270E-1,2.610000134E0,9.643050194E0,-4.621950150E0,1.100740391E1
2.888232250E-1,2.725050211E0,9.145050049E0,-4.009050369E0,1.035037796E1
2.907862790E-1,2.839950085E0,8.569950104E0,-3.894000292E0,9.832222513E0
2.927492260E-1,3.223050117E0,8.110050201E0,-3.702000141E0,9.479755871E0
2.947122040E-1,3.262050152E0,7.612050533E0,-3.088950157E0,8.838885540E0
2.966751170E-1,3.070050240E0,7.267050266E0,-2.704950094E0,8.339783154E0
2.986380500E-1,3.184950113E0,6.922050476E0,-2.667000055E0,8.072891633E0
3.006009400E-1,3.337950230E0,6.615000248E0,-2.590050220E0,7.849108240E0
3.025638330E-1,3.147000074E0,6.462000370E0,-2.514000177E0,7.614542346E0
3.045264460E-1,3.031950235E0,6.270000458E0,-2.437050104E0,7.378674758E0
3.064891410E-1,2.686950207E0,5.925000191E0,-2.551950216E0,6.988403150E0
3.084521020E-1,2.419050217E0,5.542050362E0,-2.782050133E0,6.656269909E0
3.104149850E-1,1.614000082E0,5.005050182E0,-3.049950123E0,6.079286088E0
3.123780500E-1,1.230000019E0,4.431000233E0,-2.743950129E0,5.354990702E0
3.143410620E-1,1.690050125E0,3.856050253E0,-2.092050076E0,4.701283495E0
3.163041950E-1,2.457000017E0,3.396000147E0,-1.516950130E0,4.457667976E0
3.182672930E-1,2.457000017E0,2.859000206E0,-1.249050021E0,3.971253860E0
3.202301870E-1,2.265000105E0,2.398950100E0,-9.810000658E-1,3.442026756E0
3.221931410E-1,2.188950062E0,1.939050078E0,-4.819500148E-1,2.963729643E0
3.241554780E-1,1.959000111E0,1.479000092E0,-2.205000073E-2,2.454711573E0
3.261179920E-1,1.690050125E0,1.096050024E0,4.750500321E-1,2.069605666E0
3.280812100E-1,1.459950089E0,7.129500508E-1,1.011000037E0,1.913602131E0
3.300442210E-1,1.306950092E0,1.380000114E-1,1.279950023E0,1.834512090E0
3.320081650E-1,1.114950061E0,-2.440500110E-1,1.279950023E0,1.714918688E0
3.339718360E-1,8.850000501E-1,-7.429500222E-1,1.165050030E0,1.640896522E0
3.359339230E-1,6.940500140E-1,-1.279050112E0,1.165050030E0,1.864139529E0
3.378964980E-1,5.020500422E-1,-1.816050053E0,1.050000072E0,2.156986831E0
3.398594350E-1,1.960500032E-1,-2.391000032E0,7.050000429E-1,2.500468320E0
3.418222650E-1,-1.099500060E-1,-3.004050255E0,4.360500276E-1,3.037523097E0
3.437863310E-1,-7.200000435E-2,-3.616950274E0,2.830500007E-1,3.628722996E0
3.457500340E-1,4.050000105E-3,-4.192049980E0,1.300500035E-1,4.194068722E0
3.477131390E-1,4.050000105E-3,-4.729050159E0,2.070000172E-1,4.733580127E0
3.496764200E-1,1.189500093E-1,-5.265000343E0,2.449500114E-1,5.272037389E0
3.516386050E-1,2.719500065E-1,-5.839950085E0,3.600000143E-1,5.857352116E0
3.536011120E-1,4.639500082E-1,-6.415050507E0,4.360500276E-1,6.446569804E0
3.555653220E-1,6.550500393E-1,-6.952050209E0,7.050000429E-1,7.018341522E0
3.575290330E-1,8.470500112E-1,-7.372950554E0,1.087950110E0,7.500768563E0
3.594920120E-1,1.000050068E0,-7.909950256E0,1.318050027E0,8.081130433E0
3.614551990E-1,1.039050102E0,-8.217000008E0,1.510050058E0,8.418964629E0
3.634183020E-1,1.114950061E0,-8.638050079E0,1.701000094E0,8.874256258E0
3.653814300E-1,1.230000019E0,-8.907000542E0,1.969950080E0,9.204795599E0
3.673446320E-1,1.306950092E0,-9.136050224E0,2.314950228E0,9.514963311E0
3.693078130E-1,1.306950092E0,-9.213000298E0,2.698050022E0,9.688496630E0
3.712710660E-1,1.384050012E0,-9.289950371E0,3.081000090E0,9.884904343E0
3.732342880E-1,1.459950089E0,-9.366000175E0,3.426000118E0,1.007923064E1
3.751973860E-1,1.651950121E0,-9.328050613E0,3.886050224E0,1.023927995E1
3.771605210E-1,1.843950033E0,-9.289950371E0,4.231050014E0,1.037328848E1
3.791235430E-1,1.882050037E0,-9.021000862E0,4.423050404E0,1.022173878E1
3.810865980E-1,1.882050037E0,-8.830050468E0,4.806000233E0,1.022788061E1
3.830498780E-1,1.575000048E0,-8.370000839E0,5.304000378E0,1.003344204E1
3.850130770E-1,1.306950092E0,-7.795050144E0,5.533950329E0,9.648602569E0
3.869752780E-1,9.619500637E-1,-7.219950199E0,5.802000046E0,9.312155139E0
3.889377720E-1,5.020500422E-1,-6.645000458E0,5.994000435E0,8.963042259E0
3.909007220E-1,8.100000024E-2,-6.031950474E0,6.031950474E0,8.530850722E0
3.928635390E-1,-1.099500060E-1,-5.419050217E0,6.607050419E0,8.545835798E0
3.948264990E-1,-5.700000525E-1,-4.882050037E0,6.646050453E0,8.266153837E0
3.967894040E-1,-8.380500674E-1,-4.345950127E0,6.262050152E0,7.668303758E0
3.987525110E-1,-1.144950032E0,-3.808950186E0,5.917050362E0,7.129550973E0
4.007155580E-1,-1.297950029E0,-3.196050167E0,5.725950241E0,6.684752584E0
4.026788650E-1,-1.489950061E0,-2.620950222E0,5.457000256E0,6.234435262E0
4.046420960E-1,-1.528050065E0,-2.083950043E0,5.151000023E0,5.762862658E0
4.066052970E-1,-1.489950061E0,-1.701000094E0,4.806000233E0,5.311401956E0
4.085684970E-1,-1.375050068E0,-1.318050027E0,4.345950127E0,4.745029090E0
4.105315530E-1,-1.297950029E0,-9.340500236E-1,4.000950336E0,4.308680462E0
4.124946510E-1,-1.297950029E0,-5.509500504E-1,3.579000235E0,3.846747056E0
4.144575440E-1,-1.297950029E0,-1.680000126E-1,3.081000090E0,3.347455726E0
4.164204970E-1,-1.260000110E0,-5.295000225E-2,2.736000061E0,3.012656687E0
4.183827490E-1,-1.106999993E0,1.759500057E-1,2.430000067E0,2.676061979E0
4.203451990E-1,-9.529500604E-1,4.060500264E-1,2.046000004E0,2.293274178E0
4.223083370E-1,-9.150000215E-1,6.739500165E-1,1.624950051E0,1.982900989E0
4.242712740E-1,-8.380500674E-1,9.040500522E-1,1.356000066E0,1.832585766E0
4.262342400E-1,-7.620000243E-1,1.134000063E0,1.011000037E0,1.699623857E0
4.281971970E-1,-8.770500422E-1,1.363950014E0,4.750500321E-1,1.689748191E0
4.301613320E-1,-8.770500422E-1,1.555950046E0,2.070000172E-1,1.798067387E0
4.321251210E-1,-8.770500422E-1,1.824000120E0,-2.140500098E-1,2.035193018E0
4.340879420E-1,-8.770500422E-1,1.978050113E0,-6.360000372E-1,2.255303765E0
4.360510460E-1,-7.999500632E-1,2.169000149E0,-1.171950102E0,2.591900614E0
4.380137120E-1,-7.620000243E-1,2.245950222E0,-1.594050050E0,2.857609490E0
4.399765070E-1,-7.620000243E-1,2.361000061E0,-2.014950037E0,3.196089638E0
4.419391110E-1,-6.469500065E-1,2.551950216E0,-2.359950066E0,3.535584609E0
4.439017570E-1,-4.930500090E-1,2.706000090E0,-2.743950129E0,3.885202325E0
4.458644110E-1,-3.780000210E-1,2.859000206E0,-2.935050249E0,4.114764411E0
4.478270630E-1,-1.480500102E-1,3.012000084E0,-2.974050045E0,4.235450033E0
4.497898520E-1,1.189500093E-1,3.241950035E0,-3.049950123E0,4.452705345E0
4.517526010E-1,3.870000243E-1,3.511050224E0,-3.049950123E0,4.666844592E0
4.537162490E-1,8.089500666E-1,3.625950098E0,-3.204000235E0,4.905867082E0
4.556796200E-1,1.114950061E0,3.741000175E0,-3.319050074E0,5.123893963E0
4.576421520E-1,1.345050097E0,3.741000175E0,-3.549000263E0,5.329131725E0
4.596049300E-1,1.575000048E0,3.778950214E0,-3.739950180E0,5.545116520E0
4.615675180E-1,1.843950033E0,3.702000141E0,-4.009050369E0,5.759986253E0
4.635301610E-1,1.959000111E0,3.702000141E0,-4.200000286E0,5.931482857E0
4.654929100E-1,1.996950150E0,3.586950064E0,-4.353000164E0,5.983529985E0
4.674556250E-1,2.111999989E0,3.472050190E0,-4.353000164E0,5.955189913E0
4.694184040E-1,1.996950150E0,3.319050074E0,-4.392000198E0,5.856071126E0
4.713811640E-1,1.804950118E0,3.166050196E0,-4.468050003E0,5.765864168E0
4.733441150E-1,1.575000048E0,2.935950041E0,-4.468050003E0,5.573499675E0
4.753070100E-1,1.306950092E0,2.667000055E0,-4.429950237E0,5.333429192E0
4.772699430E-1,1.077000022E0,2.361000061E0,-4.315050125E0,5.035266420E0
4.792328610E-1,7.320000529E-1,2.092950106E0,-4.047000408E0,4.614593864E0
4.811948850E-1,3.490500152E-1,1.824000120E0,-3.510000229E0,3.971009186E0
4.831571710E-1,4.050000105E-3,1.594050050E0,-2.896950245E0,3.306559040E0
4.851198410E-1,-3.019500077E-1,1.518000126E0,-1.939050078E0,2.481010559E0
4.870823990E-1,-4.930500090E-1,1.363950014E0,-9.040500522E-1,1.709024414E0
4.890441300E-1,-6.079500318E-1,1.288050056E0,3.220500052E-1,1.460271342E0
4.910060990E-1,-6.469500065E-1,1.288050056E0,1.740000129E0,2.259472882E0
4.929688690E-1,-4.549500346E-1,1.363950014E0,3.463950157E0,3.750505281E0
4.949314040E-1,-3.019500077E-1,1.747950077E0,5.686950207E0,5.957172646E0
4.968941690E-1,-1.480500102E-1,2.208000183E0,8.140049934E0,8.435496224E0
4.988568660E-1,4.200000316E-2,2.743950129E0,1.093800068E1,1.127700692E1
5.008205340E-1,3.490500152E-1,3.357000113E0,1.381305027E1,1.421941080E1
5.027839280E-1,7.320000529E-1,3.970950127E0,1.710900116E1,1.757902698E1
5.047464110E-1,1.345050097E0,4.545000076E0,1.994505119E1,2.050051835E1
5.067091610E-1,2.149950027E0,5.044050217E0,2.121000099E1,2.190727892E1
5.086719320E-1,2.878050089E0,5.656950474E0,2.059695053E1,2.155269431E1
5.106346970E-1,3.529950142E0,6.499950409E0,1.867995071E1,2.009105428E1
5.125975120E-1,4.143000126E0,7.497000217E0,1.565295029E1,1.784332690E1
5.145603130E-1,4.872000217E0,8.722949982E0,1.178100014E1,1.544727182E1
5.165234370E-1,5.485050201E0,1.044795036E1,7.411950588E0,1.393493646E1
5.184864660E-1,5.905950069E0,1.259400082E1,2.430000067E0,1.412069414E1
5.204504080E-1,5.830050468E0,1.527705097E1,-2.896950245E0,1.660632697E1
5.224140820E-1,5.293050289E0,1.792200089E1,-8.493000031E0,2.052670326E1
5.243771010E-1,4.258049965E0,2.045100021E1,-1.316895103E1,2.469404120E1
5.263402810E-1,2.992950201E0,2.301900101E1,-1.650300026E1,2.848124253E1
5.283032050E-1,1.843950033E0,2.574105072E1,-1.864995003E1,3.184057914E1
5.302662040E-1,5.790000558E-1,2.896005058E1,-1.857299995E1,3.440895375E1
5.322285730E-1,-8.770500422E-1,3.175800133E1,-1.577505112E1,3.547100369E1
5.341911270E-1,-1.260000110E0,3.405795288E1,-1.094595051E1,3.579588785E1
5.361535270E-1,-9.919500351E-1,3.574394989E1,-4.507050037E0,3.604063566E1
5.381159730E-1,-4.930500090E-1,3.647205353E1,4.750500321E-1,3.647847940E1
5.400796980E-1,7.320000529E-1,3.685605240E1,4.153950214E0,3.709662687E1
5.420430480E-1,2.341950178E0,3.708600235E1,7.297050476E0,3.786955567E1
5.440058990E-1,4.027950287E0,3.704700089E1,9.597000122E0,3.848125608E1
5.459688960E-1,5.062950134E0,3.693195343E1,9.865050316E0,3.856062585E1
5.479318410E-1,4.680000305E0,3.689400101E1,6.415950298E0,3.773902664E1
5.498948090E-1,3.607050180E0,3.666405106E1,2.467950106E0,3.692362697E1
5.518577240E-1,1.651950121E0,3.593595123E1,-9.810000658E-1,3.598727402E1
5.538206550E-1,-1.260000110E0,3.444105148E1,-4.429950237E0,3.474763426E1
5.557833970E-1,-4.594050407E0,3.217995071E1,-7.113000393E0,3.327535577E1
5.577461940E-1,-7.546050549E0,2.961195183E1,-8.722949982E0,3.177893054E1
5.597091230E-1,-9.615000725E0,2.723505211E1,-9.718950272E0,3.047382970E1
5.616720230E-1,-1.076505089E1,2.524200058E1,-1.033305073E1,2.932263377E1
5.636350850E-1,-1.095705032E1,2.363295174E1,-1.017900085E1,2.796757798E1
5.655981000E-1,-1.065000057E1,2.221500015E1,-9.259050369E0,2.631841100E1
5.675608730E-1,-1.022895050E1,2.106495094E1,-7.956000328E0,2.473179184E1
5.695237170E-1,-9.960000038E0,2.026005173E1,-6.652950287E0,2.353578221E1
5.714864240E-1,-9.883950233E0,1.960800171E1,-5.580000401E0,2.265618255E1
5.734491740E-1,-9.615000725E0,1.903305054E1,-4.774950027E0,2.185189693E1
5.754123060E-1,-9.270000458E0,1.849695015E1,-4.047000408E0,2.108194217E1
5.773753260E-1,-9.001950264E0,1.819005013E1,-3.472050190E0,2.059048724E1
5.793382790E-1,-8.772000313E0,1.799805069E1,-3.357000113E0,2.030141049E1
5.813012510E-1,-8.542050362E0,1.788300133E1,-3.778950214E0,2.017545106E1
5.832641860E-1,-8.236050606E0,1.788300133E1,-4.429950237E0,2.018065225E1
5.852271170E-1,-8.044050217E0,1.776900101E1,-5.082000256E0,2.015616202E1
5.871903530E-1,-7.852050304E0,1.780695152E1,-5.733000278E0,2.028816179E1
5.891535000E-1,-7.621950150E0,1.795995140E1,-6.270000458E0,2.049309357E1
5.911166110E-1,-7.468950272E0,1.815195084E1,-6.499950409E0,2.067674763E1
5.930797320E-1,-7.239000320E0,1.811295128E1,-6.768000126E0,2.064674200E1
5.950424260E-1,-7.086000443E0,1.830495071E1,-6.921000481E0,2.081304568E1
5.970052560E-1,-6.817050457E0,1.834305000E1,-6.691050529E0,2.068114643E1
5.989683740E-1,-6.472050190E0,1.822800064E1,-6.232050419E0,2.032205436E1
6.009314080E-1,-6.051000118E0,1.795995140E1,-5.542050362E0,1.974560151E1
6.028944470E-1,-5.590950489E0,1.776900101E1,-4.698000431E0,1.921112522E1
6.048574850E-1,-5.208000183E0,1.765395164E1,-4.009050369E0,1.883766863E1
6.068204530E-1,-4.747950077E0,1.750005150E1,-3.586950064E0,1.848407539E1
6.087834290E-1,-4.288050175E0,1.734705162E1,-3.088950157E0,1.813419938E1
6.107462980E-1,-3.904950142E0,1.726995087E1,-2.629050016E0,1.790004867E1
6.127091980E-1,-3.367950201E0,1.723200035E1,-2.206950188E0,1.769620168E1
6.146721240E-1,-2.869950056E0,1.707900047E1,-1.939050078E0,1.742666881E1
6.166350420E-1,-2.448000193E0,1.704000092E1,-1.555950046E0,1.728511836E1
6.185979710E-1,-2.218050003E0,1.696395111E1,-1.057050109E0,1.714096666E1
6.205608930E-1,-1.987950087E0,1.669500160E1,-7.120500207E-1,1.682801353E1
6.225238610E-1,-1.873050094E0,1.661894989E1,-6.739500165E-1,1.673774240E1
6.244868160E-1,-1.911000133E0,1.661894989E1,-6.739500165E-1,1.674203170E1
6.264499140E-1,-2.179949999E0,1.657995033E1,-5.970000029E-1,1.673330045E1
6.284129700E-1,-2.563050032E0,1.646505165E1,-6.739500165E-1,1.667697095E1
6.303759880E-1,-3.022950172E0,1.646505165E1,-9.420000315E-1,1.676673843E1
6.323390300E-1,-3.598050117E0,1.654200172E1,-1.441050053E0,1.699000915E1
6.343021120E-1,-4.018949986E0,1.646505165E1,-1.708950043E0,1.703438860E1
6.362651820E-1,-4.402950287E0,1.650405121E1,-1.671000123E0,1.716280627E1
6.382279000E-1,-4.594050407E0,1.627395058E1,-1.479000092E0,1.697451642E1
6.401907220E-1,-4.708950043E0,1.623495102E1,-1.441050053E0,1.696539037E1
6.421537210E-1,-4.824000359E0,1.619700050E1,-1.210950017E0,1.694344135E1
6.441166580E-1,-4.671000004E0,1.592895031E1,-1.018950105E0,1.663093378E1
6.460793990E-1,-4.594050407E0,1.585200119E1,-8.659500480E-1,1.652698128E1
6.480421980E-1,-4.555950165E0,1.585200119E1,-9.040500522E-1,1.651847239E1
6.500050960E-1,-4.518000126E0,1.577505112E1,-9.420000315E-1,1.643629906E1
6.519679650E-1,-4.479000092E0,1.566000080E1,-1.134000063E0,1.632737037E1
6.539307790E-1,-4.594050407E0,1.562205029E1,-1.363950014E0,1.634056651E1
6.558935980E-1,-4.671000004E0,1.546905041E1,-1.708950043E0,1.624900833E1
6.578565380E-1,-4.900950432E0,1.527705097E1,-1.786050081E0,1.614303492E1
6.598194420E-1,-5.092950344E0,1.508595085E1,-1.900950074E0,1.603551270E1
6.617823240E-1,-5.169000149E0,1.497105026E1,-1.824000120E0,1.594295722E1
6.637452130E-1,-5.131050110E0,1.462605095E1,-1.824000120E0,1.560692212E1
6.657081710E-1,-5.323050022E0,1.443405056E1,-1.747050047E0,1.548317994E1
6.676711190E-1,-5.284050465E0,1.416600037E1,-1.747050047E0,1.522001773E1
6.696338140E-1,-4.978050232E0,1.378200054E1,-1.287000060E0,1.470989096E1
6.715965830E-1,-4.671000004E0,1.332300091E1,-5.970000029E-1,1.413071135E1
6.735584960E-1,-4.441050053E0,1.297800064E1,-6.105000153E-2,1.371696589E1
6.755206600E-1,-3.981000185E0,1.251795101E1,7.050000429E-1,1.315463740E1
6.774833460E-1,-3.559950113E0,1.217295074E1,1.816050053E0,1.281218219E1
6.794458830E-1,-3.022950172E0,1.171305084E1,3.004050255E0,1.246427317E1
6.814083330E-1,-2.485950232E0,1.129095078E1,4.039050102E0,1.224660948E1
6.833708080E-1,-1.911000133E0,1.102305031E1,4.653000355E0,1.211651649E1
6.853335820E-1,-1.297950029E0,1.071600056E1,4.882050037E0,1.184701459E1
6.872962680E-1,-6.850500107E-1,1.048605061E1,4.996950150E0,1.163598133E1
6.892591060E-1,-1.099500060E-1,1.014105034E1,4.729050159E0,1.119003603E1
6.912218930E-1,3.490500152E-1,9.910950661E0,4.384050369E0,1.084290904E1
6.931852000E-1,8.089500666E-1,9.643050194E0,3.924000263E0,1.044225049E1
6.951483550E-1,1.269000053E0,9.336000443E0,3.502950191E0,1.005196127E1
6.971110590E-1,1.843950033E0,8.914950371E0,3.081000090E0,9.610882030E0
6.990738950E-1,2.457000017E0,8.340000153E0,2.889000177E0,9.161810610E0
7.010367870E-1,2.992950201E0,7.918050289E0,2.851050138E0,8.932063489E0
7.029996630E-1,3.415050268E0,7.381950378E0,2.812950134E0,8.606302817E0
7.049626390E-1,3.913050175E0,6.883050442E0,1.855050087E0,8.132008109E0
7.069255860E-1,4.527000427E0,6.346950531E0,1.356000066E0,7.913043036E0
7.088890010E-1,5.025000095E0,5.809950352E0,1.050000072E0,7.752976796E0
7.108522780E-1,5.485050201E0,5.274000168E0,1.240950108E0,7.709786680E0
7.128155120E-1,5.830050468E0,4.813950062E0,1.624950051E0,7.733308886E0
7.147787520E-1,6.060000420E0,4.201050282E0,2.391000032E0,7.751729466E0
7.167416210E-1,6.328050137E0,3.664050102E0,2.851050138E0,7.848437333E0
7.187045980E-1,6.558000088E0,3.241950035E0,3.234000206E0,7.998522521E0
7.206676910E-1,6.787950516E0,2.782050133E0,3.502950191E0,8.129374834E0
7.226307500E-1,7.095000267E0,2.245950222E0,3.694050074E0,8.308388961E0
7.245937000E-1,7.438950539E0,1.671000123E0,3.196050167E0,8.267101257E0
7.265566790E-1,7.783950329E0,9.430500269E-1,2.314950228E0,8.175464551E0
7.285208080E-1,8.128950119E0,6.105000153E-2,1.240950108E0,8.223351769E0
7.304846000E-1,8.398050308E0,-5.890500546E-1,1.300500035E-1,8.419687758E0
7.324476010E-1,8.551050186E0,-1.318050027E0,-6.739500165E-1,8.678244280E0
7.344108330E-1,8.628000259E0,-1.930950046E0,-1.096050024E0,8.909112313E0
7.363737190E-1,8.282999992E0,-2.544000149E0,-1.096050024E0,8.733919583E0
7.383366950E-1,8.053050041E0,-3.081000090E0,-9.420000315E-1,8.673611738E0
7.402995640E-1,7.593000412E0,-3.694050074E0,-5.590500236E-1,8.462399077E0
7.422624640E-1,7.171050549E0,-4.231050014E0,1.500000060E-2,8.326222144E0
7.442243550E-1,6.634950161E0,-4.614000320E0,3.979500234E-1,8.091348887E0
7.461865410E-1,6.175050259E0,-5.074050426E0,8.959500194E-1,8.042385210E0
7.481497390E-1,5.752950191E0,-5.494950294E0,1.356000066E0,8.070294346E0
7.501126300E-1,5.370000362E0,-5.878950119E0,1.510050058E0,8.104271070E0
7.520756040E-1,4.948050022E0,-6.300000191E0,1.471050024E0,8.144764551E0
7.540385530E-1,4.527000427E0,-6.607050419E0,1.471050024E0,8.143146583E0
7.560012480E-1,4.219950199E0,-6.990000248E0,1.356000066E0,8.276884639E0
7.579640170E-1,3.913050175E0,-7.297050476E0,1.279950023E0,8.378375701E0
7.599268250E-1,3.645000219E0,-7.564950466E0,1.395000100E0,8.512374958E0
7.618896250E-1,3.415050268E0,-7.833000183E0,1.395000100E0,8.658203363E0
7.638523900E-1,3.147000074E0,-7.909950256E0,1.356000066E0,8.620305024E0
7.658151650E-1,2.839950085E0,-7.987050533E0,1.395000100E0,8.590943952E0
7.677782480E-1,2.649000168E0,-8.062950134E0,1.356000066E0,8.594597311E0
7.697412400E-1,2.419050217E0,-8.062950134E0,1.318050027E0,8.520576547E0
7.717043320E-1,2.149950027E0,-7.987050533E0,1.279950023E0,8.369798887E0
7.736673940E-1,1.804950118E0,-7.909950256E0,1.087950110E0,8.185889898E0
7.756304740E-1,1.459950089E0,-7.717950344E0,7.429500222E-1,7.889878739E0
7.775935480E-1,1.230000019E0,-7.450050354E0,4.360500276E-1,7.563483982E0
7.795573920E-1,1.039050102E0,-7.105050564E0,1.300500035E-1,7.181802116E0
7.815210100E-1,6.550500393E-1,-6.529950142E0,-1.369500011E-1,6.564152246E0
7.834837800E-1,3.490500152E-1,-5.725050449E0,-1.759500057E-1,5.738379298E0
7.854467910E-1,8.100000024E-2,-4.767000198E0,-9.900000691E-2,4.768716063E0
7.874093840E-1,-1.480500102E-1,-3.924000263E0,9.195000678E-2,3.927868592E0
7.893720990E-1,-2.629500031E-1,-3.234000206E0,3.220500052E-1,3.260615930E0
7.913350570E-1,-3.780000210E-1,-2.581950188E0,4.750500321E-1,2.652361838E0
7.932979430E-1,-4.930500090E-1,-2.122950077E0,7.810500264E-1,2.315179147E0
7.952611540E-1,-4.170000255E-1,-1.701000094E0,1.011000037E0,2.022229319E0
7.972242930E-1,-4.170000255E-1,-1.393950105E0,1.203000069E0,1.887907593E0
7.991874060E-1,-3.019500077E-1,-1.203000069E0,1.318050027E0,1.809872605E0
8.011505260E-1,-1.480500102E-1,-1.048950076E0,1.432950020E0,1.782010333E0
8.031135960E-1,-3.299999982E-2,-8.580000401E-1,1.471050024E0,1.703303039E0
8.050766800E-1,2.340000123E-1,-8.190000653E-1,1.510050058E0,1.733715170E0
8.070405920E-1,3.109500110E-1,-7.429500222E-1,1.471050024E0,1.677096544E0
8.090042740E-1,5.790000558E-1,-7.039500475E-1,1.432950020E0,1.698273386E0
8.109672930E-1,7.320000529E-1,-6.660000086E-1,1.318050027E0,1.648222061E0
8.129305070E-1,8.850000501E-1,-5.890500546E-1,1.240950108E0,1.634063103E0
8.148933800E-1,9.240000248E-1,-5.130000114E-1,1.126049995E0,1.544323039E0
8.168563530E-1,1.114950061E0,-3.979500234E-1,1.011000037E0,1.556791230E0
8.188192230E-1,1.153950095E0,-3.589500189E-1,9.349500537E-1,1.527932440E0
8.207821230E-1,1.306950092E0,-2.059500068E-1,8.959500194E-1,1.597892483E0
8.227450490E-1,1.306950092E0,-1.680000126E-1,8.580000401E-1,1.572420623E0
8.247079670E-1,1.345050097E0,-1.290000081E-1,9.349500537E-1,1.643147092E0
8.266699900E-1,1.498950124E0,-9.105000645E-2,9.349500537E-1,1.768975178E0
8.286322760E-1,1.651950121E0,6.105000153E-2,7.050000429E-1,1.797134209E0
8.305962540E-1,1.920000076E0,2.140500098E-1,5.130000114E-1,1.998846345E0
8.325597360E-1,2.227050066E0,4.060500264E-1,1.680000126E-1,2.269989565E0
8.345226990E-1,2.610000134E0,6.739500165E-1,1.500000060E-2,2.695651001E0
8.364858150E-1,3.031950235E0,9.040500522E-1,1.500000060E-2,3.163898501E0
8.384480290E-1,3.607050180E0,1.173000097E0,4.750500321E-1,3.822618574E0
8.404105070E-1,4.143000126E0,1.479000092E0,1.585950017E0,4.676230188E0
8.423736670E-1,4.642050266E0,1.900950074E0,3.463950157E0,6.095998077E0
8.443366400E-1,5.025000095E0,2.398950100E0,5.956050396E0,8.153534440E0
8.462995560E-1,5.178000450E0,2.821050167E0,8.370000839E0,1.023850217E1
8.482624880E-1,5.101050377E0,3.396000147E0,1.028700066E1,1.197396820E1
8.502251840E-1,4.987050056E0,4.085999966E0,1.159005070E1,1.326255402E1
8.521879500E-1,5.025000095E0,4.852050304E0,1.220295048E1,1.406076166E1
8.541507320E-1,4.987050056E0,5.734050274E0,1.189605045E1,1.411616156E1
8.561135000E-1,5.101050377E0,6.768000126E0,1.086195087E1,1.377710120E1
8.580762700E-1,5.101050377E0,7.995000362E0,9.175050735E0,1.319554098E1
8.600390390E-1,5.215950012E0,9.451050758E0,6.913950443E0,1.281917336E1
8.620019890E-1,5.254950047E0,1.113795090E1,4.537950039E0,1.312484060E1
8.639648850E-1,5.370000362E0,1.293900108E1,2.391000032E0,1.421166894E1
8.659283530E-1,5.407950401E0,1.481700039E1,2.830500007E-1,1.577559968E1
8.678916540E-1,5.331000328E0,1.700205040E1,-2.206950188E0,1.795438418E1
8.698541980E-1,4.909950256E0,1.922504997E1,-5.082000256E0,2.048259956E1
8.718169640E-1,4.143000126E0,2.133300018E1,-7.879950523E0,2.311611921E1
8.737790120E-1,2.686950207E0,2.367105103E1,-9.681000710E0,2.571497876E1
8.757412710E-1,5.410500169E-1,2.577900124E1,-1.037100029E1,2.779221630E1
8.777040720E-1,-1.950000048E0,2.846205139E1,-1.029405022E1,3.032916648E1
8.796667210E-1,-4.633050442E0,3.191100121E1,-9.106050491E0,3.350667560E1
8.816295560E-1,-7.431000233E0,3.528404999E1,-7.420050144E0,3.681359928E1
8.835923360E-1,-9.883950233E0,3.861900330E1,-5.962950230E0,4.030727804E1
8.855550600E-1,-1.160805035E1,4.249005127E1,-4.890000343E0,4.431775483E1
8.875178000E-1,-1.306500053E1,4.685895157E1,-4.813050270E0,4.888375020E1
8.894805590E-1,-1.459800053E1,5.142000198E1,-4.774950027E0,5.366487092E1
8.914433220E-1,-1.609305000E1,5.509995270E1,-6.423000336E0,5.776024566E1
8.934060930E-1,-1.682100105E1,5.766795349E1,-7.918050289E0,6.059071263E1
8.953688610E-1,-1.655294991E1,5.854905319E1,-9.643050194E0,6.160341060E1
8.973316300E-1,-1.540305042E1,5.893200302E1,-1.071600056E1,6.184713098E1
8.992943990E-1,-1.348605061E1,5.816595459E1,-1.140600014E1,6.078855709E1
9.012573940E-1,-1.149300098E1,5.644095230E1,-1.194195080E1,5.882414774E1
9.032203220E-1,-9.346950531E0,5.337495422E1,-1.152105045E1,5.539842801E1
9.051835600E-1,-7.086000443E0,4.938900375E1,-1.067805004E1,5.102456121E1
9.071467070E-1,-4.978050232E0,4.555605316E1,-9.757950783E0,4.685458961E1
9.091098180E-1,-3.291000128E0,4.176195145E1,-8.722949982E0,4.278996526E1
9.110729400E-1,-2.140950203E0,3.827400208E1,-7.687950134E0,3.909715437E1
9.130361880E-1,-1.336950064E0,3.524595261E1,-7.150950432E0,3.598889694E1
9.149993990E-1,-8.380500674E-1,3.260100174E1,-7.075050354E0,3.337040575E1
9.169624090E-1,-4.549500346E-1,3.026295090E1,-7.266000271E0,3.112632224E1
9.189254780E-1,8.100000024E-2,2.811705208E1,-7.495950222E0,2.909921731E1
9.208893210E-1,4.639500082E-1,2.616195107E1,-7.840950489E0,2.731562626E1
9.228529380E-1,1.114950061E0,2.443800163E1,-8.185950279E0,2.579668233E1
9.248157180E-1,1.575000048E0,2.286600113E1,-8.530950546E0,2.445632331E1
9.267787610E-1,2.035050154E0,2.148600197E1,-8.799000740E0,2.330691150E1
9.287417990E-1,2.494950056E0,2.033595085E1,-9.259050369E0,2.248345362E1
9.307048380E-1,2.878050089E0,1.918695068E1,-9.373950005E0,2.154746360E1
9.326681010E-1,3.376950264E0,1.815195084E1,-9.643050194E0,2.082991909E1
9.346312980E-1,3.682950258E0,1.715505028E1,-9.988050461E0,2.018962666E1
9.365941560E-1,3.798000097E0,1.631204987E1,-1.029405022E1,1.965897366E1
9.385571270E-1,3.952050209E0,1.546905041E1,-1.071600056E1,1.922869963E1
9.405204010E-1,3.874950171E0,1.477905083E1,-1.079295063E1,1.870623868E1
9.424835860E-1,3.874950171E0,1.412700081E1,-1.109895039E1,1.837863135E1
9.444466910E-1,3.990000248E0,1.362900066E1,-1.109895039E1,1.802377487E1
9.464098190E-1,4.105050087E0,1.305405045E1,-1.113705063E1,1.764351342E1
9.483732100E-1,4.372950077E0,1.255605030E1,-1.098405075E1,1.724605643E1
9.503365180E-1,4.603050232E0,1.205805016E1,-1.060095024E1,1.670223910E1
9.522996020E-1,4.717950344E0,1.167405033E1,-9.834000587E0,1.597654763E1
9.542627510E-1,4.603050232E0,1.113795090E1,-9.336000443E0,1.524476716E1
9.562261300E-1,4.527000427E0,1.075500011E1,-8.953050613E0,1.470785082E1
9.581894410E-1,4.603050232E0,1.021800041E1,-8.377950668E0,1.399234295E1
9.601521450E-1,4.833000183E0,9.643050194E0,-7.726050377E0,1.326793738E1
9.621150400E-1,4.948050022E0,9.067950249E0,-6.844950199E0,1.239210490E1
9.640782820E-1,4.833000183E0,8.532000542E0,-6.040050507E0,1.151673279E1
9.660414220E-1,5.062950134E0,8.032950401E0,-5.350050449E0,1.089884379E1
9.680043090E-1,5.215950012E0,7.687950134E0,-4.852050304E0,1.048108315E1
9.699672710E-1,5.025000095E0,7.458000183E0,-4.545000076E0,1.007618074E1
9.719303560E-1,4.527000427E0,7.228050232E0,-4.237950325E0,9.523584723E0
9.738934120E-1,4.372950077E0,6.883050442E0,-3.702000141E0,8.955661941E0
9.758566730E-1,4.143000126E0,6.385050297E0,-3.280050039E0,8.288066457E0
9.778198740E-1,3.607050180E0,6.079050064E0,-2.551950216E0,7.515191986E0
9.797827500E-1,2.992950201E0,5.619000435E0,-1.900950074E0,6.644134855E0
9.817457220E-1,2.419050217E0,5.082000256E0,-1.363950014E0,5.791277078E0
9.837087970E-1,1.959000111E0,4.621950150E0,-1.134000063E0,5.146460994E0
9.856718550E-1,1.459950089E0,4.162050247E0,-8.659500480E-1,4.494884427E0
9.876349800E-1,1.192050099E0,3.702000141E0,-5.970000029E-1,3.934742366E0
9.895980860E-1,8.850000501E-1,3.204000235E0,-3.670500219E-1,3.344184252E0
9.915600780E-1,4.260000288E-1,2.667000055E0,-1.759500057E-1,2.706533525E0
9.935223960E-1,-2.250000089E-1,2.169000149E0,-2.205000073E-2,2.180750525E0
9.954853880E-1,-8.380500674E-1,1.594050050E0,5.295000225E-2,1.801701190E0
9.974482060E-1,-1.375050068E0,8.280000687E-1,2.449500114E-1,1.623683255E0
9.994114620E-1,-1.642950058E0,9.900000691E-2,4.750500321E-1,1.713113664E0
1.001374590E0,-1.720050097E0,-3.589500189E-1,1.011000037E0,2.027199676E0
1.003337299E0,-1.795950055E0,-9.730500579E-1,1.318050027E0,2.430950203E0
1.005300131E0,-1.642950058E0,-1.624050021E0,1.356000066E0,2.678723491E0
1.007263304E0,-1.758000135E0,-2.046000004E0,1.279950023E0,2.985791780E0
1.009226370E0,-1.720050097E0,-2.581950188E0,1.395000100E0,3.401626726E0
1.011189448E0,-1.911000133E0,-2.926950216E0,1.548000097E0,3.822991417E0
1.013152523E0,-1.911000133E0,-3.387000084E0,1.548000097E0,4.185689355E0
1.015115376E0,-1.987950087E0,-3.694050074E0,1.777950048E0,4.556210911E0
1.017078295E0,-2.065050125E0,-4.000950336E0,1.930950046E0,4.899041099E0
1.019041383E0,-1.950000048E0,-4.345950127E0,2.085000038E0,5.199712285E0
1.021004432E0,-1.873050094E0,-4.729050159E0,2.161050081E0,5.526515133E0
1.022967154E0,-1.720050097E0,-5.112000465E0,2.238000154E0,5.839500474E0
1.024929972E0,-1.528050065E0,-5.572050095E0,2.353049994E0,6.238551397E0
1.026892957E0,-1.144950032E0,-5.955000401E0,2.620950222E0,6.606233451E0
1.028855893E0,-5.700000525E-1,-6.376950264E0,3.043050051E0,7.088762116E0
1.030818815E0,-1.099500060E-1,-6.874950409E0,3.043050051E0,7.519121341E0
1.032781741E0,4.260000288E-1,-7.297050476E0,3.118950129E0,7.947092020E0
1.034745338E0,1.230000019E0,-7.756950378E0,3.273000240E0,8.508566847E0
1.036708739E0,1.690050125E0,-8.254950523E0,3.694050074E0,9.200352358E0
1.038671626E0,2.227050066E0,-8.791950226E0,3.694050074E0,9.793066257E0
1.040634664E0,2.610000134E0,-9.097949982E0,3.886050224E0,1.023162650E1
1.042597509E0,2.878050089E0,-9.250950813E0,4.192950249E0,1.055670853E1
1.044560420E0,3.184950113E0,-9.442950249E0,4.498950005E0,1.093406456E1
1.046523344E0,3.376950264E0,-9.558000565E0,4.921050072E0,1.126835843E1
1.048486264E0,3.262050152E0,-9.405000687E0,5.304000378E0,1.127951369E1
1.050449188E0,3.223050117E0,-9.366000175E0,5.725950241E0,1.144100160E1
1.052412110E0,3.070050240E0,-9.136050224E0,6.147000313E0,1.143145813E1
1.054375389E0,2.764050245E0,-8.752950668E0,6.531000137E0,1.126534873E1
1.056338566E0,2.494950056E0,-8.446949959E0,6.913950443E0,1.119725190E1
1.058301312E0,2.149950027E0,-7.948050499E0,7.411950588E0,1.107839354E1
1.060264184E0,1.843950033E0,-7.488000393E0,7.680000305E0,1.088359804E1
1.062227070E0,1.614000082E0,-7.027950287E0,7.756950378E0,1.059090934E1
1.064189951E0,1.384050012E0,-6.645000458E0,7.756950378E0,1.030737138E1
1.066152941E0,1.306950092E0,-6.147000313E0,7.527000427E0,9.805583451E0
1.068115889E0,1.269000053E0,-5.802000046E0,7.297050476E0,9.408533962E0
1.070078764E0,1.114950061E0,-5.419050217E0,7.066950321E0,8.975021211E0
1.072041660E0,1.000050068E0,-4.996950150E0,6.568950176E0,8.313887018E0
1.074004947E0,9.619500637E-1,-4.651950359E0,6.070950508E0,7.708594563E0
1.075968120E0,9.240000248E-1,-4.269000053E0,5.649000168E0,7.140682068E0
1.077930880E0,9.240000248E-1,-3.886050224E0,5.380950451E0,6.701476714E0
1.079893751E0,1.000050068E0,-3.541050196E0,5.074050426E0,6.267784645E0
1.081856637E0,9.240000248E-1,-3.234000206E0,4.537950039E0,5.648497493E0
1.083819519E0,1.000050068E0,-2.889000177E0,4.039050102E0,5.065604395E0
1.085782449E0,9.240000248E-1,-2.506050110E0,3.579000235E0,4.465792861E0
1.087745365E0,8.850000501E-1,-2.238000154E0,2.928000212E0,3.790125990E0
1.089708456E0,8.470500112E-1,-1.893000126E0,2.314950228E0,3.108044040E0
1.091671505E0,7.699500322E-1,-1.585950017E0,1.624950051E0,2.397607803E0
1.093633867E0,6.940500140E-1,-1.318050027E0,1.126049995E0,1.867337647E0
1.095596430E0,5.020500422E-1,-1.048950076E0,3.220500052E-1,1.206675894E0
1.097560180E0,3.870000243E-1,-7.429500222E-1,-4.440000355E-1,9.480927095E-1
1.099523582E0,2.340000123E-1,-4.360500276E-1,-1.363950014E0,1.450949783E0
1.101486559E0,1.570500135E-1,-2.440500110E-1,-2.169000149E0,2.188329674E0
1.103449660E0,-3.299999982E-2,-1.290000081E-1,-3.012000084E0,3.014941875E0
1.105411877E0,-1.870500147E-1,1.380000114E-1,-3.739950180E0,3.747166804E0
1.107374353E0,-3.019500077E-1,4.830000103E-1,-4.660050392E0,4.694734548E0
1.109337487E0,-4.549500346E-1,7.890000343E-1,-5.197050095E0,5.276251536E0
1.111300428E0,-7.620000243E-1,1.134000063E0,-5.656950474E0,5.819595247E0
1.113263748E0,-9.919500351E-1,1.479000092E0,-6.001950264E0,6.260576101E0
1.115226961E0,-1.336950064E0,1.863000035E0,-6.117000103E0,6.532678996E0
1.117190016E0,-1.528050065E0,2.208000183E0,-6.040050507E0,6.610023595E0
1.119153117E0,-1.567050099E0,2.514000177E0,-5.848050117E0,6.555572674E0
1.121116145E0,-1.528050065E0,2.859000206E0,-5.350050449E0,6.255546258E0
1.123079194E0,-1.413000107E0,3.204000235E0,-5.043000221E0,6.139547055E0
1.125042474E0,-1.375050068E0,3.472050190E0,-4.736999989E0,6.032003324E0
1.127005673E0,-1.297950029E0,3.741000175E0,-4.429950237E0,5.941735075E0
1.128968550E0,-1.183050036E0,4.009050369E0,-4.084949970E0,5.844562303E0
1.130931521E0,-1.144950032E0,4.201050282E0,-3.702000141E0,5.715289939E0
1.132894660E0,-9.919500351E-1,4.392000198E0,-3.510000229E0,5.709092066E0
1.134857749E0,-9.150000215E-1,4.507050037E0,-3.394950151E0,5.716328508E0
1.136820590E0,-7.999500632E-1,4.621950150E0,-3.127050161E0,5.637444989E0
1.138783511E0,-7.230000496E-1,4.736999989E0,-2.782050133E0,5.540911559E0
1.140746478E0,-6.079500318E-1,4.852050304E0,-2.284050226E0,5.397117827E0
1.142709432E0,-4.170000255E-1,4.890000343E0,-1.287000060E0,5.073693086E0
1.144671630E0,-3.780000210E-1,5.044050217E0,3.600000143E-1,5.070988722E0
1.146634049E0,-4.549500346E-1,5.235000134E0,2.467950106E0,5.805427086E0
1.148597392E0,-6.469500065E-1,5.656950474E0,5.266050339E0,7.755702363E0
1.150560451E0,-1.030050039E0,6.193950176E0,8.754000664E0,1.077304736E1
1.152523397E0,-1.336950064E0,6.844950199E0,1.235595036E1,1.418838567E1
1.154486376E0,-1.681950092E0,7.573050499E0,1.565295029E1,1.746982835E1
1.156449604E0,-1.873050094E0,8.302050591E0,1.799100113E1,1.990247428E1
1.158412759E0,-1.720050097E0,9.145050049E0,1.948500061E1,2.159295629E1
1.160375878E0,-1.375050068E0,9.873000145E0,1.960005188E1,2.198929122E1
1.162339001E0,-8.770500422E-1,1.075500011E1,1.833495140E1,2.127462543E1
1.164302790E0,-1.480500102E-1,1.205805016E1,1.630395126E1,2.027898713E1
1.166266384E0,1.000050068E0,1.351395035E1,1.289295101E1,1.870441499E1
1.168229509E0,2.649000168E0,1.527705097E1,7.756950378E0,1.733712108E1
1.170192771E0,4.372950077E0,1.734705162E1,1.893000126E0,1.798961761E1
1.172156390E0,5.752950191E0,1.960800171E1,-4.123950005E0,2.084651363E1
1.174119880E0,6.481050491E0,2.244405174E1,-1.048605061E1,2.560657594E1
1.176083067E0,6.213000298E0,2.593200111E1,-1.715505028E1,3.170750391E1
1.178046343E0,5.446050167E0,3.010995102E1,-2.244405174E1,3.794738557E1
1.180009250E0,4.450050354E0,3.501600266E1,-2.520405197E1,4.337242933E1
1.181972266E0,3.492000103E0,3.961500168E1,-2.535705185E1,4.716484391E1
1.183935521E0,2.649000168E0,4.352505112E1,-2.332605171E1,4.945252233E1
1.185898682E0,1.959000111E0,4.689705276E1,-1.853505135E1,5.046503114E1
1.187861250E0,1.459950089E0,4.942695236E1,-1.209600067E1,5.090646625E1
1.189823991E0,8.850000501E-1,5.050005341E1,-5.733000278E0,5.083213463E1
1.191786225E0,6.940500140E-1,4.923495102E1,-2.910000086E-1,4.924070256E1
1.193748607E0,1.537050128E0,4.540305328E1,3.694050074E0,4.557900587E1
1.195711762E0,2.304000139E0,4.018995285E1,5.533950329E0,4.063453375E1
1.197674687E0,1.767000079E0,3.520800018E1,5.074050426E0,3.561560829E1
1.199636709E0,5.790000558E-1,3.091500092E1,4.192950249E0,3.120341895E1
1.201598996E0,-1.106999993E0,2.708205223E1,3.157950163E0,2.728801296E1
1.203562974E0,-2.640000105E0,2.359395027E1,1.510050058E0,2.378916436E1
1.205526456E0,-3.675000191E0,2.045100021E1,-2.520000041E-1,2.078009962E1
1.207489480E0,-4.249050140E0,1.780695152E1,-1.786050081E0,1.839380125E1
1.209452627E0,-4.671000004E0,1.566000080E1,-3.241950035E0,1.666025528E1
1.211415692E0,-5.016000271E0,1.428105068E1,-4.353000164E0,1.574983421E1
1.213378781E0,-4.939050198E0,1.343700027E1,-5.464950085E0,1.532360508E1
1.215342035E0,-4.173000336E0,1.297800064E1,-6.615000248E0,1.515257934E1
1.217305240E0,-3.520950079E0,1.278600025E1,-7.495950222E0,1.523378356E1
1.219268296E0,-3.406050205E0,1.301595020E1,-7.495950222E0,1.540147420E1
1.221231396E0,-3.406050205E0,1.313100052E1,-7.458000183E0,1.548050772E1
1.223194648E0,-3.520950079E0,1.343700027E1,-7.189950466E0,1.564114617E1
1.225157856E0,-3.828000069E0,1.389705086E1,-6.423000336E0,1.578089162E1
1.227120731E0,-4.594050407E0,1.439595032E1,-5.848050117E0,1.620334456E1
1.229083704E0,-5.323050022E0,1.485600090E1,-5.272950172E0,1.663849836E1
1.231046973E0,-5.821050167E0,1.531605053E1,-4.813050270E0,1.707722114E1
1.233010158E0,-6.280950069E0,1.569900036E1,-4.545000076E0,1.750902544E1
1.234973038E0,-6.625950336E0,1.600500107E1,-4.698000431E0,1.794810533E1
1.236936007E0,-6.970950127E0,1.631204987E1,-4.852050304E0,1.839074519E1
1.238898877E0,-7.276950359E0,1.657995033E1,-5.350050449E0,1.888046078E1
1.240861776E0,-7.315950394E0,1.669500160E1,-5.925000191E0,1.916642470E1
1.242824687E0,-7.431000233E0,1.692495155E1,-6.307950497E0,1.953110312E1
1.244787605E0,-7.468950272E0,1.704000092E1,-6.883050442E0,1.983742001E1
1.246750350E0,-7.660950184E0,1.723200035E1,-7.305000305E0,2.022362537E1
1.248713145E0,-7.813950539E0,1.746195030E1,-7.495950222E0,2.054669806E1
1.250675954E0,-7.852050304E0,1.773000145E1,-7.228050232E0,2.069425900E1
1.252638759E0,-7.776000500E0,1.811295128E1,-6.768000126E0,2.084108955E1
1.254601838E0,-7.546050549E0,1.853505135E1,-6.423000336E0,2.101775299E1
1.256564836E0,-7.315950394E0,1.891800117E1,-5.887050152E0,2.112039910E1
1.258527431E0,-7.162050247E0,1.926300049E1,-5.235000134E0,2.120762547E1
1.260490145E0,-7.009050369E0,1.968495178E1,-4.621950150E0,2.140062001E1
1.262452923E0,-6.817050457E0,2.022105026E1,-4.353000164E0,2.177869741E1
1.264415682E0,-6.664050102E0,2.068095016E1,-4.123950005E0,2.211601743E1
1.266378974E0,-6.166050434E0,2.114100075E1,-4.162050247E0,2.241171017E1
1.268342124E0,-5.743950367E0,2.140995026E1,-4.047000408E0,2.253346729E1
1.270305010E0,-5.053950310E0,2.152500153E1,-3.778950214E0,2.243097343E1
1.272267973E0,-4.518000126E0,2.164005089E1,-3.510000229E0,2.238357052E1
1.274230889E0,-3.751050234E0,2.164005089E1,-3.472050190E0,2.223549668E1
1.276193819E0,-3.330000162E0,2.183100128E1,-3.433950186E0,2.234890449E1
1.278156841E0,-3.100050211E0,2.209995079E1,-3.165000200E0,2.253963980E1
1.280119860E0,-3.100050211E0,2.217600060E1,-3.165000200E0,2.261421102E1
1.282082813E0,-3.175950050E0,2.229105186E1,-2.782050133E0,2.268738537E1
1.284045785E0,-3.367950201E0,2.209995079E1,-2.590050220E0,2.250465004E1
1.286008834E0,-3.598050117E0,2.164005089E1,-2.245050192E0,2.205171235E1
1.287971860E0,-3.865950108E0,2.133300018E1,-1.747050047E0,2.175073909E1
1.289934631E0,-4.326000214E0,2.095005035E1,-1.134000063E0,2.142206442E1
1.291897477E0,-4.747950077E0,2.068095016E1,-6.739500165E-1,2.122967118E1
1.293860547E0,-5.131050110E0,2.033595085E1,-4.060500264E-1,2.097721261E1
1.295823552E0,-5.361000061E0,1.999200058E1,-4.060500264E-1,2.070230145E1
1.297786327E0,-5.323050022E0,1.941705132E1,-9.040500522E-1,2.015376019E1
1.299749169E0,-5.208000183E0,1.891800117E1,-1.516950130E0,1.968032449E1
1.301712265E0,-5.016000271E0,1.826700020E1,-2.169000149E0,1.906693779E1
1.303675269E0,-5.016000271E0,1.753905106E1,-2.782050133E0,1.845313994E1
1.305638225E0,-4.939050198E0,1.669500160E1,-3.394950151E0,1.773817865E1
1.307601195E0,-4.939050198E0,1.585200119E1,-3.778950214E0,1.702823019E1
1.309564110E0,-5.053950310E0,1.512405109E1,-4.047000408E0,1.645167309E1
1.311527041E0,-5.169000149E0,1.439595032E1,-4.047000408E0,1.582214146E1
1.313489898E0,-5.284050465E0,1.370595074E1,-3.970050097E0,1.521629300E1
1.315452791E0,-5.629050255E0,1.309305096E1,-3.855000257E0,1.476398378E1
1.317415584E0,-5.782950401E0,1.251795101E1,-3.549000263E0,1.423857492E1
1.319378406E0,-5.859000206E0,1.182795048E1,-3.012000084E0,1.353884930E1
1.321341481E0,-5.782950401E0,1.113795090E1,-2.475000143E0,1.279148511E1
1.323304481E0,-5.514000416E0,1.044795036E1,-2.092050076E0,1.199752228E1
1.325267382E0,-5.398950100E0,9.757950783E0,-1.708950043E0,1.128214412E1
1.327230319E0,-5.131050110E0,9.220950127E0,-1.210950017E0,1.062167578E1
1.329193419E0,-4.708950043E0,8.532000542E0,-7.890000343E-1,9.777104111E0
1.331156471E0,-4.249050140E0,7.918050289E0,-3.289500177E-1,8.992116302E0
1.333118832E0,-3.981000185E0,7.534950256E0,1.500000060E-2,8.521975290E0
1.335081396E0,-3.598050117E0,6.960000515E0,5.509500504E-1,7.854369343E0
1.337044572E0,-3.175950050E0,6.462000370E0,1.011000037E0,7.270916626E0
1.339007592E0,-2.601000071E0,5.964000225E0,1.471050024E0,6.670718719E0
1.340970454E0,-2.026050091E0,5.503950119E0,1.855050087E0,6.151386568E0
1.342933363E0,-1.605000019E0,5.158950329E0,2.046000004E0,5.777275272E0
1.344896648E0,-1.183050036E0,4.852050304E0,2.391000032E0,5.537046207E0
1.346859823E0,-6.079500318E-1,4.392000198E0,2.659050226E0,5.170088693E0
1.348823658E0,4.200000316E-2,4.085999966E0,3.196050167E0,5.187667722E0
1.350787293E0,5.790000558E-1,3.741000175E0,3.808950186E0,5.370141981E0
1.352750230E0,1.077000022E0,3.472050190E0,4.690950394E0,5.934650551E0
1.354713372E0,1.459950089E0,3.166050196E0,4.996950150E0,6.093015584E0
1.356676617E0,1.996950150E0,2.974050045E0,4.843950272E0,6.024669103E0
1.358639832E0,2.494950056E0,2.782050133E0,4.537950039E0,5.878568642E0
1.360602706E0,2.992950201E0,2.590950012E0,4.498950005E0,5.992605778E0
1.362565680E0,3.453000069E0,2.398950100E0,4.537950039E0,6.186369017E0
1.364528414E0,3.952050209E0,2.245950222E0,4.843950272E0,6.642804189E0
1.366491219E0,4.372950077E0,2.053950071E0,5.341950417E0,7.202627127E0
1.368453801E0,4.717950344E0,1.863000035E0,5.841000080E0,7.736091165E0
1.370416449E0,5.101050377E0,1.671000123E0,6.301050186E0,8.277450683E0
1.372379424E0,5.370000362E0,1.441050053E0,6.568950176E0,8.606081313E0
1.374342299E0,5.676000118E0,1.173000097E0,6.568950176E0,8.760366031E0
1.376305230E0,6.021000385E0,8.280000687E-1,6.454050541E0,8.865257928E0
1.378268145E0,6.405000210E0,3.679500222E-1,6.301050186E0,8.992366115E0
1.380231791E0,6.673050404E0,-5.295000225E-2,6.109050274E0,9.047259289E0
1.382195222E0,6.979950428E0,-5.509500504E-1,5.917050362E0,9.167046357E0
1.384158104E0,7.248000145E0,-1.240950108E0,5.457000256E0,9.157090971E0
1.386121147E0,7.438950539E0,-1.777950048E0,4.996950150E0,9.136115273E0
1.388084185E0,7.593000412E0,-2.351999998E0,4.116000175E0,8.951369543E0
1.390047224E0,7.708050251E0,-2.926950216E0,3.273000240E0,8.870941710E0
1.392010127E0,7.783950329E0,-3.426000118E0,2.583000183E0,8.888152197E0
1.393973070E0,7.783950329E0,-3.771000147E0,1.893000126E0,8.854025881E0
1.395935660E0,7.630950451E0,-4.077000141E0,1.585950017E0,8.795940677E0
1.397898363E0,7.363050461E0,-4.306950092E0,1.432950020E0,8.649721206E0
1.399861458E0,7.056000233E0,-4.537050247E0,1.356000066E0,8.497687945E0
1.401824438E0,6.787950516E0,-4.651950359E0,1.471050024E0,8.359479800E0
1.403787172E0,6.328050137E0,-4.729050159E0,1.395000100E0,8.022104413E0
1.405749979E0,5.868000507E0,-4.843950272E0,1.471050024E0,7.749920797E0
1.407712920E0,5.523000240E0,-4.996950150E0,1.510050058E0,7.599558779E0
1.409675822E0,5.140050411E0,-5.149950027E0,1.777950048E0,7.490207600E0
1.411638614E0,4.680000305E0,-5.227050304E0,2.085000038E0,7.319267921E0
1.413601439E0,4.411950111E0,-5.304000378E0,2.314950228E0,7.277136686E0
1.415564378E0,4.143000126E0,-5.380050182E0,2.545050144E0,7.251666722E0
1.417527284E0,3.798000097E0,-5.494950294E0,2.773950100E0,7.232847478E0
1.419490545E0,3.682950258E0,-5.533950329E0,2.851050138E0,7.233064063E0
1.421453688E0,3.415050268E0,-5.572050095E0,2.812950134E0,7.114984121E0
1.423416574E0,3.184950113E0,-5.610000134E0,2.736000061E0,7.007260881E0
1.425379536E0,2.955000162E0,-5.572050095E0,2.583000183E0,6.815545331E0
1.427342632E0,2.686950207E0,-5.494950294E0,2.275950193E0,6.526417810E0
1.429305688E0,2.457000017E0,-5.265000343E0,2.008050203E0,6.147303744E0
1.431268653E0,2.188950062E0,-5.074050426E0,1.701000094E0,5.781945298E0
1.433231632E0,1.959000111E0,-4.804950237E0,1.663050056E0,5.448941521E0
1.435194501E0,1.767000079E0,-4.498950005E0,1.585950017E0,5.087050017E0
1.437157402E0,1.651950121E0,-4.153950214E0,1.585950017E0,4.743361576E0
1.439120193E0,1.537050128E0,-3.808950186E0,1.777950048E0,4.475682181E0
1.441083017E0,1.422000051E0,-3.387000084E0,1.893000126E0,4.132469381E0
1.443046131E0,1.306950092E0,-2.812050104E0,2.008050203E0,3.694321311E0
1.445009164E0,1.269000053E0,-2.428950071E0,2.046000004E0,3.419981813E0
1.446972204E0,1.230000019E0,-2.046000004E0,2.008050203E0,3.119500229E0
1.448935241E0,1.153950095E0,-1.701000094E0,1.969950080E0,2.847052065E0
1.450898146E0,1.192050099E0,-1.393950105E0,1.816050053E0,2.581107926E0
1.452861089E0,1.230000019E0,-1.126049995E0,1.701000094E0,2.382076817E0
1.454824247E0,1.269000053E0,-8.580000401E-1,1.624950051E0,2.233156482E0
1.456787332E0,1.345050097E0,-7.429500222E-1,1.548000097E0,2.181155382E0
1.458750183E0,1.422000051E0,-5.890500546E-1,1.510050058E0,2.156227096E0
1.460713103E0,1.575000048E0,-5.130000114E-1,1.510050058E0,2.241438230E0
1.462676071E0,1.767000079E0,-3.589500189E-1,1.510050058E0,2.351889788E0
1.464639024E0,2.035050154E0,-2.830500007E-1,1.548000097E0,2.572518364E0
1.466601958E0,2.227050066E0,-2.059500068E-1,1.701000094E0,2.809905465E0
1.468564887E0,2.457000017E0,-1.680000126E-1,1.930950046E0,3.129479376E0
1.470527629E0,2.610000134E0,-1.680000126E-1,2.046000004E0,3.320608486E0
1.472490426E0,2.764050245E0,-1.680000126E-1,2.200050116E0,3.536724229E0
1.474453145E0,2.878050089E0,-1.290000081E-1,2.314950228E0,3.695782444E0
1.476415887E0,2.917050123E0,-9.105000645E-2,2.353049994E0,3.748908614E0
1.478377951E0,2.955000162E0,6.105000153E-2,2.391000032E0,3.801662033E0
1.480340238E0,2.955000162E0,1.380000114E-1,2.353049994E0,3.779935745E0
1.482303224E0,2.992950201E0,1.759500057E-1,2.314950228E0,3.787836304E0
1.484266005E0,3.070050240E0,2.140500098E-1,2.122950077E0,3.738708722E0
1.486228817E0,3.147000074E0,2.910000086E-1,1.930950046E0,3.703627756E0
1.488191620E0,3.223050117E0,3.679500222E-1,1.624950051E0,3.628209193E0
1.490154905E0,3.453000069E0,3.289500177E-1,1.356000066E0,3.724265534E0
1.492118062E0,3.682950258E0,4.440000355E-1,9.349500537E-1,3.825622856E0
1.494081846E0,4.027950287E0,5.980500579E-1,3.979500234E-1,4.091504810E0
1.496045447E0,4.411950111E0,7.510500550E-1,-6.105000153E-2,4.475835908E0
1.498008255E0,4.717950344E0,9.040500522E-1,-4.060500264E-1,4.820916777E0
1.499971295E0,5.140050411E0,1.096050024E0,-5.970000029E-1,5.289409503E0
1.501934041E0,5.560950279E0,1.402950048E0,-3.289500177E-1,5.744618783E0
1.503896857E0,5.944950104E0,1.786050081E0,2.070000172E-1,6.210898134E0
1.505859078E0,6.136050224E0,2.245950222E0,1.203000069E0,6.643990813E0
1.507821473E0,6.060000420E0,2.782050133E0,1.893000126E0,6.931584054E0
1.509784260E0,5.983050346E0,3.433950186E0,3.157950163E0,7.586933146E0
1.511746932E0,5.791050434E0,4.009050369E0,4.959000111E0,8.613967268E0
1.513709727E0,5.523000240E0,4.584000111E0,6.837000370E0,9.912676870E0
1.515672480E0,5.254950047E0,5.274000168E0,8.524050713E0,1.131764191E1
1.517635297E0,4.909950256E0,5.964000225E0,9.942000389E0,1.259048379E1
1.519598095E0,4.564949989E0,6.922050476E0,1.082295036E1,1.363414118E1
1.521560816E0,4.105050087E0,7.957050323E0,1.139805031E1,1.449419321E1
1.523523559E0,3.645000219E0,9.220950127E0,1.113000011E1,1.490600048E1
1.525486197E0,3.262050152E0,1.060095024E1,1.024800014E1,1.510108023E1
1.527448866E0,2.839950085E0,1.205805016E1,8.446949959E0,1.499376049E1
1.529411607E0,2.610000134E0,1.336095047E1,5.725950241E0,1.476866969E1
1.531374326E0,2.572050095E0,1.439595032E1,2.161050081E0,1.478272521E1
1.533337689E0,2.419050217E0,1.523895073E1,-1.977000117E0,1.555589768E1
1.535300864E0,1.767000079E0,1.627395058E1,-6.078000069E0,1.746155324E1
1.537262420E0,6.169500351E-1,1.730895042E1,-9.298050880E0,1.965792823E1
1.539224463E0,-1.297950029E0,1.876500130E1,-1.132905006E1,2.195808105E1
1.541186860E0,-3.828000069E0,2.114100075E1,-1.175100040E1,2.448839537E1
1.543149153E0,-6.511050224E0,2.393895149E1,-1.094595051E1,2.711606546E1
1.545111824E0,-8.695050240E0,2.689005089E1,-9.373950005E0,2.977498403E1
1.547074384E0,-1.026705074E1,3.026295090E1,-7.803000450E0,3.289597763E1
1.549037149E0,-1.153200054E1,3.436395264E1,-6.078000069E0,3.675337212E1
1.550999850E0,-1.268205070E1,3.865695190E1,-4.276950359E0,4.090827111E1
1.552962812E0,-1.387005043E1,4.275795364E1,-3.778950214E0,4.510988100E1
1.554925697E0,-1.544100094E1,4.747200394E1,-4.123950005E0,5.009014505E1
1.556888447E0,-1.693605042E1,5.260800171E1,-5.350050449E0,5.552526170E1
1.558851237E0,-1.728105164E1,5.659395218E1,-6.997950554E0,5.958591680E1
1.560814241E0,-1.678305054E1,5.877900314E1,-8.608050346E0,6.173119573E1
1.562777172E0,-1.532595062E1,5.954595184E1,-1.006395054E1,6.230480113E1
1.564740409E0,-1.325595093E1,5.927700424E1,-1.109895039E1,6.174682313E1
1.566703557E0,-1.114800072E1,5.843400192E1,-1.186605072E1,6.065981916E1
1.568666802E0,-8.580000877E0,5.678595352E1,-1.213395023E1,5.869832775E1
1.570630018E0,-5.782950401E0,5.375805283E1,-1.198095036E1,5.537972490E1
1.572593043E0,-3.636000156E0,4.915905380E1,-1.094595051E1,5.049402836E1
1.574556145E0,-2.677950144E0,4.471305084E1,-9.757950783E0,4.584371207E1
1.576519262E0,-2.103000164E0,4.072695160E1,-8.914050102E0,4.174407126E1
1.578482374E0,-1.834950089E0,3.723900223E1,-8.340000153E0,3.820557461E1
1.580445266E0,-1.987950087E0,3.421095276E1,-8.493000031E0,3.530541437E1
1.582408222E0,-2.179949999E0,3.164295197E1,-8.953050613E0,3.295733160E1
1.584370974E0,-2.410050154E0,2.938200188E1,-9.336000443E0,3.092363627E1
1.586333776E0,-2.371050119E0,2.750400162E1,-9.604050636E0,2.922892014E1
1.588296899E0,-2.371050119E0,2.566395187E1,-9.873000145E0,2.759957312E1
1.590259927E0,-1.950000048E0,2.397795105E1,-9.949050903E0,2.603321437E1
1.592222608E0,-1.489950061E0,2.244405174E1,-1.017900085E1,2.468942017E1
1.594185391E0,-9.919500351E-1,2.102595139E1,-1.014105034E1,2.336483466E1
1.596148502E0,-6.469500065E-1,1.972305107E1,-1.021800041E1,2.222216957E1
1.598111528E0,-4.170000255E-1,1.849695015E1,-1.033305073E1,2.119157831E1
1.600074299E0,-1.480500102E-1,1.730895042E1,-1.033305073E1,2.015920685E1
1.602037145E0,3.109500110E-1,1.635000038E1,-1.056300068E1,1.946782437E1
1.604001297E0,6.169500351E-1,1.539195061E1,-1.060095024E1,1.869954323E1
1.605965066E0,7.320000529E-1,1.458705044E1,-1.063905048E1,1.806951188E1
1.607927665E0,8.470500112E-1,1.374405098E1,-1.056300068E1,1.735492479E1
1.609890607E0,8.470500112E-1,1.290105057E1,-1.048605061E1,1.664667705E1
1.611853571E0,8.470500112E-1,1.224900055E1,-1.040895081E1,1.609663832E1
1.613816528E0,1.077000022E0,1.159800053E1,-1.025595093E1,1.551960292E1
1.615779806E0,1.306950092E0,1.110000038E1,-1.033305073E1,1.522136868E1
1.617742989E0,1.039050102E0,1.071600056E1,-9.718950272E0,1.450414725E1
1.619704968E0,5.410500169E-1,1.014105034E1,-8.914050102E0,1.351273201E1
1.621667299E0,3.870000243E-1,9.565950394E0,-8.683950424E0,1.292548533E1
1.623631359E0,6.169500351E-1,9.030000687E0,-8.646000862E0,1.251698329E1
1.625594913E0,9.240000248E-1,8.608050346E0,-8.185950279E0,1.191478446E1
1.627557548E0,9.619500637E-1,8.110050201E0,-7.342950344E0,1.098258539E1
1.629520453E0,8.470500112E-1,7.497000217E0,-6.307950497E0,9.834263849E0
1.631483442E0,1.114950061E0,7.113000393E0,-5.542050362E0,9.085824698E0
1.633446393E0,1.306950092E0,6.922050476E0,-4.736999989E0,8.488938110E0
1.635409267E0,1.306950092E0,6.807000160E0,-4.353000164E0,8.184862867E0
1.637372164E0,1.306950092E0,6.730050087E0,-4.162050247E0,8.020246566E0
1.639335271E0,1.345050097E0,6.691950321E0,-3.894000292E0,7.858409326E0
1.641298316E0,1.651950121E0,6.691950321E0,-3.664050102E0,7.806177134E0
1.643261404E0,1.537050128E0,6.844950199E0,-3.204000235E0,7.712423992E0
1.645224475E0,1.230000019E0,6.807000160E0,-2.704950094E0,7.427308142E0
1.647186157E0,6.940500140E-1,6.577050209E0,-2.437050104E0,7.048298240E0
1.649148246E0,1.960500032E-1,6.232050419E0,-2.169000149E0,6.601624775E0
1.651111131E0,-4.549500346E-1,5.580000401E0,-1.939050078E0,5.924803728E0
1.653073783E0,-1.030050039E0,4.929000378E0,-1.671000123E0,5.305496133E0
1.655036707E0,-1.336950064E0,4.315950394E0,-1.363950014E0,4.719663432E0
1.656999552E0,-1.681950092E0,3.741000175E0,-8.659500480E-1,4.192124510E0
1.658961949E0,-2.103000164E0,2.935950041E0,-5.209500194E-1,3.648808196E0
1.660924477E0,-2.295000076E0,2.092950106E0,-5.209500194E-1,3.149421283E0
1.662887512E0,-2.410050154E0,1.173000097E0,-5.590500236E-1,2.738029931E0
1.664850398E0,-2.485950232E0,2.530499995E-1,-5.209500194E-1,2.552522630E0
1.666813887E0,-2.332950115E0,-4.360500276E-1,-5.590500236E-1,2.438305312E0
1.668777186E0,-2.332950115E0,-1.126049995E0,-5.590500236E-1,2.650128631E0
1.670739866E0,-2.256000042E0,-1.701000094E0,-6.360000372E-1,2.896106621E0
1.672702727E0,-2.295000076E0,-2.351999998E0,-7.890000343E-1,3.379563640E0
1.674665614E0,-2.256000042E0,-2.889000177E0,-8.659500480E-1,3.766394523E0
1.676628494E0,-2.371050119E0,-3.310950041E0,-5.209500194E-1,4.105564244E0
1.678591262E0,-2.295000076E0,-3.732000113E0,-4.060500264E-1,4.399968956E0
1.680554051E0,-2.218050003E0,-4.231050014E0,-4.440000355E-1,4.797777201E0
1.682516816E0,-2.140950203E0,-4.729050159E0,-2.140500098E-1,5.195517355E0
1.684479589E0,-2.065050125E0,-5.149950027E0,-2.205000073E-2,5.548594733E0
1.686441321E0,-1.911000133E0,-5.572050095E0,2.449500114E-1,5.895732717E0
1.688403358E0,-1.720050097E0,-5.839950085E0,7.050000429E-1,6.128671503E0
1.690366197E0,-1.297950029E0,-6.070050240E0,1.318050027E0,6.345663091E0
1.692328808E0,-9.150000215E-1,-6.300000191E0,1.855050087E0,6.630870099E0
1.694291604E0,-3.019500077E-1,-6.568950176E0,2.238000154E0,6.946288571E0
1.696254346E0,1.960500032E-1,-6.721950531E0,2.659050226E0,7.231431577E0
1.698217886E0,8.089500666E-1,-6.913050175E0,3.004050255E0,7.580829827E0
1.700181192E0,1.384050012E0,-7.066950321E0,3.157950163E0,7.863207393E0
1.702143987E0,1.843950033E0,-7.066950321E0,3.388050079E0,8.051137926E0
1.704106945E0,2.572050095E0,-7.258050442E0,3.426000118E0,8.428061148E0
1.706069906E0,3.300000191E0,-7.258050442E0,3.502950191E0,8.708613984E0
1.708032866E0,3.913050175E0,-7.335000515E0,3.502950191E0,9.021355456E0
1.709995558E0,4.372950077E0,-7.372950554E0,3.618000269E0,9.304462273E0
1.711958329E0,4.756950378E0,-7.372950554E0,3.733050108E0,9.535441253E0
1.713921131E0,5.062950134E0,-7.372950554E0,4.000950336E0,9.798033860E0
1.715883901E0,5.140050411E0,-7.450050354E0,4.153950214E0,9.958848874E0
1.717846355E0,5.025000095E0,-7.335000515E0,4.384050369E0,9.913261630E0
1.719808901E0,4.909950256E0,-7.066950321E0,4.729050159E0,9.819028148E0
1.721771888E0,4.527000427E0,-6.990000248E0,5.112000465E0,9.771713519E0
1.723734745E0,3.913050175E0,-6.760050297E0,5.035950184E0,9.293601882E0
1.725697644E0,3.453000069E0,-6.415050507E0,5.112000465E0,8.899923103E0
1.727660524E0,2.764050245E0,-6.031950474E0,5.266050339E0,8.470872827E0
1.729623321E0,2.304000139E0,-5.764050484E0,5.341950417E0,8.189574401E0
1.731586142E0,1.843950033E0,-5.419050217E0,5.341950417E0,7.829603517E0
1.733549036E0,1.422000051E0,-5.112000465E0,5.188950062E0,7.421579053E0
1.735511909E0,1.306950092E0,-4.729050159E0,5.151000023E0,7.113707556E0
1.737474671E0,1.230000019E0,-4.384050369E0,4.959000111E0,6.732345786E0
1.739437459E0,1.000050068E0,-4.077000141E0,4.653000355E0,6.266772901E0
1.741400090E0,8.850000501E-1,-3.732000113E0,4.423050404E0,5.854436335E0
1.743362767E0,8.850000501E-1,-3.426000118E0,4.231050014E0,5.515658268E0
1.745325912E0,8.470500112E-1,-3.234000206E0,4.153950214E0,5.332124664E0
1.747288919E0,9.240000248E-1,-3.004050255E0,3.886050224E0,4.997947611E0
1.749251967E0,8.850000501E-1,-2.736000061E0,3.541050196E0,4.561574061E0
1.751215000E0,8.470500112E-1,-2.428950071E0,3.157950163E0,4.073075178E0
1.753177905E0,7.699500322E-1,-2.199000120E0,3.004050255E0,3.801676277E0
1.755140848E0,8.470500112E-1,-1.969050050E0,2.698050022E0,3.445885335E0
1.757103407E0,7.699500322E-1,-1.663050056E0,2.430000067E0,3.043593084E0
1.759066079E0,7.699500322E-1,-1.471050024E0,2.200050116E0,2.756271347E0
1.761029068E0,7.320000529E-1,-1.240950108E0,2.046000004E0,2.502378321E0
1.762991947E0,7.699500322E-1,-1.011000037E0,1.930950046E0,2.311603817E0
1.764954698E0,6.940500140E-1,-7.810500264E-1,1.585950017E0,1.899205629E0
1.766917487E0,5.790000558E-1,-5.890500546E-1,1.510050058E0,1.721183375E0
1.768879532E0,3.870000243E-1,-3.589500189E-1,1.432950020E0,1.527075602E0
1.770841795E0,4.260000288E-1,-2.059500068E-1,1.279950023E0,1.364611113E0
1.772804470E0,2.719500065E-1,-1.680000126E-1,1.126049995E0,1.170542354E0
1.774767024E0,3.109500110E-1,-5.295000225E-2,8.580000401E-1,9.141431402E-1
1.776729471E0,2.719500065E-1,9.900000691E-2,6.280500293E-1,6.915234245E-1
1.778691949E0,2.719500065E-1,2.530499995E-1,3.600000143E-1,5.172921018E-1
1.780655713E0,3.490500152E-1,3.679500222E-1,5.295000225E-2,5.099282643E-1
1.782619101E0,3.109500110E-1,4.440000355E-1,-2.910000086E-1,6.152291816E-1
1.784581969E0,4.260000288E-1,5.980500579E-1,-6.739500165E-1,9.966687118E-1
1.786544973E0,4.260000288E-1,6.739500165E-1,-1.171950102E0,1.417445481E0
1.788508557E0,4.639500082E-1,8.280000687E-1,-1.594050050E0,1.855216776E0
1.790471971E0,5.790000558E-1,9.430500269E-1,-2.130000114E0,2.400309335E0
1.792434451E0,6.550500393E-1,1.057950020E0,-2.667000055E0,2.942998147E0
1.794397204E0,7.320000529E-1,1.210950017E0,-3.165000200E0,3.466907886E0
1.796359791E0,7.320000529E-1,1.363950014E0,-3.702000141E0,4.012603739E0
1.798322430E0,8.470500112E-1,1.441050053E0,-4.315050125E0,4.627502194E0
1.800285220E0,1.000050068E0,1.555950046E0,-4.966950417E0,5.300158217E0
1.802247966E0,1.114950061E0,1.633050084E0,-5.503050327E0,5.847523332E0
1.804210784E0,1.230000019E0,1.708950043E0,-6.001950264E0,6.360567370E0
1.806173581E0,1.306950092E0,1.671000123E0,-6.538050175E0,6.873606044E0
1.808136477E0,1.306950092E0,1.786050081E0,-6.883050442E0,7.230109046E0
1.810099347E0,1.306950092E0,1.824000120E0,-7.036050320E0,7.385194587E0
1.812062145E0,1.306950092E0,1.863000035E0,-6.921000481E0,7.285542899E0
1.814024964E0,1.306950092E0,1.939050078E0,-6.346950531E0,6.764008781E0
1.815987680E0,1.306950092E0,2.016000032E0,-5.158050060E0,5.690154225E0
1.817950426E0,1.269000053E0,2.208000183E0,-3.012000084E0,3.944333968E0
1.819912328E0,1.114950061E0,2.437050104E0,2.070000172E-1,2.687968723E0
1.821874488E0,8.089500666E-1,2.896950245E0,4.231050014E0,5.191194964E0
1.823836595E0,3.870000243E-1,3.433950186E0,8.869050026E0,9.518499423E0
1.825798718E0,1.570500135E-1,4.085999966E0,1.358295059E1,1.418508397E1
1.827761642E0,-7.200000435E-2,4.852050304E0,1.795200157E1,1.859628825E1
1.829724332E0,-7.200000435E-2,5.772000313E0,2.170800018E1,2.246237840E1
1.831687430E0,4.200000316E-2,6.844950199E0,2.443005180E1,2.537089944E1
1.833650409E0,1.960500032E-1,8.110050201E0,2.580900192E1,2.705394482E1
1.835614404E0,4.260000288E-1,9.796050072E0,2.569395065E1,2.750133039E1
1.837578101E0,7.699500322E-1,1.182795048E1,2.377800179E1,2.656852658E1
1.839540712E0,1.077000022E0,1.408905029E1,1.956195068E1,2.413153915E1
1.841503641E0,1.843950033E0,1.642695045E1,1.392795086E1,2.161556541E1
1.843466267E0,3.874950171E0,1.899495125E1,8.254950523E0,2.107053915E1
1.845428968E0,5.254950047E0,2.202300072E1,1.585950017E0,2.269674642E1
1.847392649E0,5.101050377E0,2.512695122E1,-6.921000481E0,2.655719564E1
1.849356043E0,4.603050232E0,2.853900146E1,-1.443405056E1,3.231105835E1
1.851318841E0,3.837000132E0,3.306105042E1,-1.991400146E1,3.878560402E1
1.853281814E0,3.031950235E0,3.819705200E1,-2.344095039E1,4.491865603E1
1.855244563E0,2.572050095E0,4.348605347E1,-2.570205116E1,5.057912338E1
1.857207368E0,2.955000162E0,4.850700378E1,-2.543400192E1,5.485024973E1
1.859170310E0,3.837000132E0,5.253195190E1,-2.336400032E1,5.762122050E1
1.861133212E0,4.564949989E0,5.437095261E1,-2.079600143E1,5.839103468E1
1.863096139E0,5.599950314E0,5.433300400E1,-1.635000038E1,5.701541265E1
1.865059058E0,7.095000267E0,5.172705078E1,-1.052400017E1,5.326144375E1
1.867021431E0,8.320950508E0,4.766400146E1,-4.736999989E0,4.861619506E1
1.868983972E0,9.049050331E0,4.352505112E1,-3.289500177E-1,4.445698589E1
1.870945924E0,7.210050106E0,3.969195175E1,1.855050087E0,4.038411900E1
1.872908049E0,2.686950207E0,3.639599991E1,3.426000118E0,3.665550419E1
1.874869802E0,-2.295000076E0,3.329100037E1,3.847950220E0,3.359113650E1
1.876831664E0,-6.166050434E0,2.999505234E1,2.928000212E0,3.076193310E1
1.878795328E0,-8.542050362E0,2.646900177E1,1.011000037E0,2.783157919E1
1.880758451E0,-9.769050598E0,2.286600113E1,-1.096050024E0,2.488954967E1
1.882720981E0,-1.018995094E1,1.995300102E1,-3.241950035E0,2.263774702E1
1.884683684E0,-9.922050476E0,1.799805069E1,-5.119950294E0,2.117996235E1
1.886646508E0,-8.848950386E0,1.684905052E1,-6.652950287E0,2.016075827E1
1.888609297E0,-7.507050514E0,1.592895031E1,-8.224950790E0,1.943545937E1
1.890572084E0,-6.472050190E0,1.520100117E1,-9.336000443E0,1.897679568E1
1.892534857E0,-6.088950157E0,1.474095058E1,-9.604050636E0,1.861743072E1
1.894497400E0,-6.280950069E0,1.454895115E1,-9.528000832E0,1.849067638E1
1.896460011E0,-6.357000351E0,1.435695076E1,-8.875950813E0,1.803651827E1
1.898422986E0,-6.625950336E0,1.447200108E1,-7.458000183E0,1.757736612E1
1.900385855E0,-6.741000175E0,1.458705044E1,-5.887050152E0,1.711375129E1
1.902348589E0,-7.086000443E0,1.485600090E1,-4.660050392E0,1.710637994E1
1.904311376E0,-7.392000198E0,1.497105026E1,-4.047000408E0,1.717999491E1
1.906274142E0,-7.776000500E0,1.512405109E1,-4.237950325E0,1.752607567E1
1.908236914E0,-8.082000732E0,1.531605053E1,-4.736999989E0,1.795381042E1
1.910199683E0,-8.503950119E0,1.550700092E1,-5.580000401E0,1.854509773E1
1.912162453E0,-8.848950386E0,1.566000080E1,-6.499950409E0,1.912560857E1
1.914125271E0,-9.154950142E0,1.585200119E1,-7.495950222E0,1.978100916E1
1.916088071E0,-9.462000847E0,1.608195114E1,-8.530950546E0,2.051671830E1
1.918051331E0,-9.730050087E0,1.631204987E1,-9.451050758E0,2.121507026E1
1.920014456E0,-9.844950676E0,1.657995033E1,-9.988050461E0,2.171586883E1
1.921977526E0,-9.883950233E0,1.684905052E1,-1.002600002E1,2.195685889E1
1.923940612E0,-9.922050476E0,1.719405174E1,-9.681000710E0,2.208629158E1
1.925903177E0,-9.730050087E0,1.750005150E1,-9.220950127E0,2.204430989E1
1.927865905E0,-9.270000458E0,1.776900101E1,-8.530950546E0,2.178181403E1
1.929828861E0,-8.887050629E0,1.788300133E1,-7.840950489E0,2.145371553E1
1.931791750E0,-8.464950562E0,1.799805069E1,-7.228050232E0,2.116199251E1
1.933754994E0,-8.005949974E0,1.803705025E1,-6.460950375E0,2.076473685E1
1.935718134E0,-7.507050514E0,1.819005013E1,-5.695050240E0,2.048578356E1
1.937681047E0,-7.086000443E0,1.838205147E1,-4.813050270E0,2.027995738E1
1.939644040E0,-6.664050102E0,1.861200142E1,-4.200000286E0,2.021029844E1
1.941607085E0,-6.280950069E0,1.884195137E1,-4.084949970E0,2.027698896E1
1.943570115E0,-5.859000206E0,1.888005066E1,-4.200000286E0,2.020950763E1
1.945533021E0,-5.590950489E0,1.884195137E1,-3.931950092E0,2.004340516E1
1.947495963E0,-5.476050377E0,1.880295181E1,-3.586950064E0,1.990990546E1
1.949458712E0,-5.553000450E0,1.891800117E1,-3.012000084E0,1.994489225E1
1.951421511E0,-5.821050167E0,1.903305054E1,-2.206950188E0,2.002529068E1
1.953384319E0,-6.127950191E0,1.903305054E1,-1.441050053E0,2.004707988E1
1.955347124E0,-6.511050224E0,1.914795113E1,-1.402050018E0,2.027322253E1
1.957309843E0,-6.778950214E0,1.907205009E1,-1.594050050E0,2.030365131E1
1.959272588E0,-7.009050369E0,1.888005066E1,-1.861950040E0,2.022498351E1
1.961235341E0,-7.047000408E0,1.864995003E1,-2.092050076E0,2.004638432E1
1.963198105E0,-7.123950481E0,1.842000008E1,-2.359950066E0,1.989010904E1
1.965161100E0,-7.086000443E0,1.807500076E1,-2.514000177E0,1.957644635E1
1.967124028E0,-6.970950127E0,1.769205093E1,-2.514000177E0,1.918131927E1
1.969086951E0,-6.741000175E0,1.730895042E1,-2.437050104E0,1.873446186E1
1.971049876E0,-6.549000263E0,1.688700104E1,-2.206950188E0,1.824639246E1
1.973012388E0,-6.280950069E0,1.642695045E1,-2.130000114E0,1.771530230E1
1.974975025E0,-5.898000240E0,1.588995075E1,-2.169000149E0,1.708746627E1
1.976937861E0,-5.743950367E0,1.539195061E1,-2.359950066E0,1.659742370E1
1.978900639E0,-5.590950489E0,1.497105026E1,-2.590050220E0,1.618948528E1
1.980863722E0,-5.437950134E0,1.439595032E1,-2.743950129E0,1.563150503E1
1.982826716E0,-5.284050465E0,1.382100105E1,-2.896950245E0,1.507758535E1
1.984789483E0,-5.208000183E0,1.328400040E1,-2.896950245E0,1.455954165E1
1.986752323E0,-5.131050110E0,1.278600025E1,-2.667000055E0,1.403290301E1
1.988715214E0,-5.208000183E0,1.221105099E1,-2.551950216E0,1.351833873E1
1.990678090E0,-5.284050465E0,1.171305084E1,-2.590050220E0,1.310820771E1
1.992640842E0,-5.398950100E0,1.136805058E1,-2.551950216E0,1.284109364E1
1.994603631E0,-5.514000416E0,1.094595051E1,-2.514000177E0,1.251152389E1
1.996566621E0,-5.437950134E0,1.063995075E1,-2.130000114E0,1.213741135E1
1.998529552E0,-5.398950100E0,1.044795036E1,-1.363950014E0,1.183928582E1
2.000491709E0,-5.016000271E0,1.010295010E1,-5.209500194E-1,1.129164507E1
2.002454092E0,-4.939050198E0,9.949950218E0,3.979500234E-1,1.111548876E1
2.004416972E0,-4.518000126E0,9.757950783E0,1.432950020E0,1.084819222E1
2.006379706E0,-4.018949986E0,9.490050316E0,2.046000004E0,1.050709903E1
2.008342648E0,-3.291000128E0,9.145050049E0,1.930950046E0,9.909146801E0
2.010305538E0,-2.640000105E0,8.761950493E0,1.585950017E0,9.287443914E0
2.012268287E0,-1.911000133E0,8.455050468E0,1.395000100E0,8.779853371E0
2.014231078E0,-1.030050039E0,8.110050201E0,1.356000066E0,8.286896496E0
2.016194158E0,-2.629500031E-1,7.612050533E0,1.663050056E0,7.796036911E0
2.018157153E0,4.639500082E-1,7.189950466E0,2.275950193E0,7.555831298E0
2.020120775E0,1.039050102E0,6.807000160E0,3.043050051E0,7.528282002E0
2.022084220E0,1.459950089E0,6.462000370E0,3.808950186E0,7.641793282E0
2.024047055E0,1.996950150E0,6.001950264E0,4.806000233E0,7.944108201E0
2.026010068E0,2.610000134E0,5.734050274E0,5.878950119E0,8.617046347E0
2.027972841E0,3.108000040E0,5.389050484E0,6.568950176E0,9.047244651E0
2.029935684E0,3.453000069E0,4.966950417E0,6.799050331E0,9.100598404E0
2.031898750E0,3.837000132E0,4.545000076E0,6.454050541E0,8.776922245E0
2.033861754E0,4.182000160E0,4.123950005E0,5.725950241E0,8.202596854E0
2.035824709E0,4.603050232E0,3.664050102E0,5.074050426E0,7.769126226E0
2.037787679E0,5.025000095E0,3.204000235E0,4.768050194E0,7.632204538E0
2.039750413E0,5.293050289E0,2.821050167E0,4.768050194E0,7.662180372E0
2.041713217E0,5.638050079E0,2.322000027E0,4.729050159E0,7.716424576E0
2.043676135E0,5.791050434E0,1.900950074E0,4.806000233E0,7.761927245E0
2.045639005E0,5.944950104E0,1.555950046E0,4.959000111E0,7.896524196E0
2.047601803E0,6.060000420E0,1.057950020E0,5.151000023E0,8.023444682E0
2.049564622E0,6.136050224E0,5.209500194E-1,5.151000023E0,8.028405976E0
2.051528418E0,6.213000298E0,-5.295000225E-2,5.227050304E0,8.119496985E0
2.053491928E0,6.289950371E0,-4.740000367E-1,5.304000378E0,8.241393796E0
2.055454776E0,6.405000210E0,-1.048950076E0,5.457000256E0,8.479574031E0
2.057417801E0,6.558000088E0,-1.624050021E0,5.686950207E0,8.830985578E0
2.059380571E0,6.826050282E0,-2.161050081E0,5.725950241E0,9.167966299E0
2.061343416E0,7.132950306E0,-2.659050226E0,5.496000290E0,9.389118561E0
2.063306306E0,7.324050426E0,-3.118950129E0,5.035950184E0,9.419679337E0
2.065269183E0,7.477950573E0,-3.541050196E0,4.576050282E0,9.455105364E0
2.067231766E0,7.669050217E0,-3.961950302E0,4.116000175E0,9.563097765E0
2.069194459E0,7.746000290E0,-4.306950092E0,3.733050108E0,9.616964318E0
2.071157061E0,7.708050251E0,-4.575000286E0,3.426000118E0,9.595944096E0
2.073119690E0,7.630950451E0,-4.804950237E0,3.081000090E0,9.529507496E0
2.075082482E0,7.477950573E0,-5.035050392E0,2.889000177E0,9.466667801E0
2.077045226E0,7.132950306E0,-5.149950027E0,2.659050226E0,9.190838561E0
2.079008365E0,6.750000477E0,-5.265000343E0,2.353049994E0,8.878039160E0
2.080971385E0,6.405000210E0,-5.457000256E0,2.008050203E0,8.650730900E0
2.082934427E0,5.868000507E0,-5.572050095E0,1.663050056E0,8.261168664E0
2.084897462E0,5.407950401E0,-5.686950207E0,1.471050024E0,7.984442270E0
2.086860232E0,4.909950256E0,-5.764050484E0,1.395000100E0,7.699215205E0
2.088823080E0,4.372950077E0,-5.764050484E0,1.432950020E0,7.375656995E0
2.090785600E0,3.798000097E0,-5.686950207E0,1.510050058E0,7.003317683E0
2.092748223E0,3.184950113E0,-5.494950294E0,1.663050056E0,6.565372910E0
2.094711017E0,2.610000134E0,-5.380050182E0,1.930950046E0,6.283757534E0
2.096673760E0,2.074050188E0,-5.265000343E0,2.238000154E0,6.085273822E0
2.098636039E0,1.537050128E0,-5.112000465E0,2.506050110E0,5.897063592E0
2.100598454E0,1.230000019E0,-4.882050037E0,2.773950100E0,5.748226837E0
2.102561463E0,1.000050068E0,-4.690050125E0,2.851050138E0,5.578992490E0
2.104524298E0,7.320000529E-1,-4.498950005E0,2.851050138E0,5.376324220E0
2.106487372E0,6.550500393E-1,-4.345950127E0,2.698050022E0,5.157116149E0
2.108450375E0,5.790000558E-1,-4.231050014E0,2.430000067E0,4.913443356E0
2.110412565E0,5.410500169E-1,-4.039050102E0,2.122950077E0,4.594951347E0
2.112374993E0,5.020500422E-1,-3.771000147E0,2.046000004E0,4.319561594E0
2.114337990E0,4.260000288E-1,-3.616950274E0,1.816050053E0,4.069624442E0
2.116300827E0,3.490500152E-1,-3.387000084E0,1.585950017E0,3.756173976E0
2.118263810E0,3.490500152E-1,-3.157050133E0,1.471050024E0,3.500398495E0
2.120226750E0,3.109500110E-1,-2.851050138E0,1.471050024E0,3.223222762E0
2.122189671E0,1.960500032E-1,-2.581950188E0,1.471050024E0,2.978068258E0
2.124152598E0,1.570500135E-1,-2.199000120E0,1.471050024E0,2.650331000E0
2.126115350E0,8.100000024E-2,-1.893000126E0,1.510050058E0,2.422862286E0
2.128078147E0,1.960500032E-1,-1.548000097E0,1.663050056E0,2.280455084E0
2.130041091E0,1.960500032E-1,-1.318050027E0,1.777950048E0,2.221890603E0
2.132003991E0,3.109500110E-1,-1.164000034E0,1.930950046E0,2.275995182E0
2.133967639E0,4.260000288E-1,-1.011000037E0,2.008050203E0,2.288200760E0
2.135931068E0,6.169500351E-1,-9.340500236E-1,2.085000038E0,2.366495711E0
2.137893855E0,8.850000501E-1,-8.580000401E-1,2.238000154E0,2.555001732E0
2.139856834E0,1.114950061E0,-9.340500236E-1,2.314950228E0,2.733963724E0
2.141819612E0,1.306950092E0,-9.340500236E-1,2.391000032E0,2.880529317E0
2.143782449E0,1.422000051E0,-1.011000037E0,2.430000067E0,2.991505565E0
2.145745341E0,1.651950121E0,-9.730500579E-1,2.467950106E0,3.125146931E0
2.147708217E0,1.920000076E0,-9.730500579E-1,2.506050110E0,3.303560785E0
2.149670983E0,2.111999989E0,-9.340500236E-1,2.391000032E0,3.324135159E0
2.151633771E0,2.265000105E0,-8.959500194E-1,2.238000154E0,3.307808429E0
2.153596761E0,2.494950056E0,-7.429500222E-1,2.085000038E0,3.335262460E0
2.155559692E0,2.610000134E0,-6.280500293E-1,1.855050087E0,3.263090308E0
2.157522570E0,2.839950085E0,-4.360500276E-1,1.663050056E0,3.319818007E0
2.159485463E0,3.031950235E0,-2.440500110E-1,1.471050024E0,3.378797243E0
2.161447351E0,3.147000074E0,-1.290000081E-1,1.240950108E0,3.385292844E0
2.163409536E0,3.337950230E0,6.105000153E-2,8.200500607E-1,3.437749400E0
2.165373125E0,3.607050180E0,2.530499995E-1,3.600000143E-1,3.633792140E0
2.167336303E0,3.798000097E0,4.830000103E-1,-1.759500057E-1,3.832629926E0
2.169299003E0,4.105050087E0,7.510500550E-1,-7.120500207E-1,4.233500636E0
2.171261844E0,4.488000393E0,9.810000658E-1,-1.287000060E0,4.770836175E0
2.173224964E0,4.987050056E0,1.173000097E0,-2.130000114E0,5.548287842E0
2.175188000E0,5.485050201E0,1.441050053E0,-2.935050249E0,6.385680929E0
2.177150860E0,5.905950069E0,1.708950043E0,-3.739950180E0,7.196386859E0
2.179113771E0,6.289950371E0,2.053950071E0,-4.429950237E0,7.962828999E0
2.181076516E0,6.634950161E0,2.514000177E0,-4.621950150E0,8.467891338E0
2.183039310E0,6.520050526E0,3.204000235E0,-4.468050003E0,8.528783453E0
2.185002066E0,6.442950249E0,4.085999966E0,-2.896950245E0,8.160840909E0
2.186964839E0,6.250950336E0,5.082000256E0,5.295000225E-2,8.056296321E0
2.188927067E0,5.868000507E0,5.925000191E0,3.924000263E0,9.216118233E0
2.190889454E0,5.485050201E0,6.730050087E0,8.140049934E0,1.190125047E1
2.192852829E0,5.062950134E0,7.612050533E0,1.178100014E1,1.491203345E1
2.194815914E0,4.564949989E0,8.608050346E0,1.434900093E1,1.734448405E1
2.196779184E0,4.182000160E0,9.796050072E0,1.599705029E1,1.921867165E1
2.198742389E0,4.105050087E0,1.083105087E1,1.657200050E1,2.021866217E1
2.200705310E0,4.411950111E0,1.163595009E1,1.622700119E1,2.044935710E1
2.202668315E0,5.062950134E0,1.221105099E1,1.492395115E1,1.993658818E1
2.204631179E0,5.830050468E0,1.259400082E1,1.247100067E1,1.865808679E1
2.206594084E0,6.520050526E0,1.297800064E1,9.022050858E0,1.709786423E1
2.208557721E0,7.324050426E0,1.297800064E1,4.537950039E0,1.557765084E1
2.210521150E0,7.669050217E0,1.401195049E1,-3.670500219E-1,1.597760350E1
2.212483987E0,6.826050282E0,1.596705055E1,-5.772000313E0,1.829911619E1
2.214446998E0,5.101050377E0,1.888005066E1,-1.079295063E1,2.233752026E1
2.216408824E0,2.457000017E0,2.271300125E1,-1.512405109E1,2.739806921E1
2.218370998E0,-4.170000255E-1,2.700495148E1,-1.819005013E1,3.256254316E1
2.220334052E0,-3.214950085E0,3.160500145E1,-1.999095154E1,3.753465284E1
2.222296846E0,-5.859000206E0,3.582105255E1,-1.953105164E1,4.121817157E1
2.224259612E0,-8.236050606E0,4.068795013E1,-1.734705162E1,4.499179943E1
2.226222387E0,-1.111005020E1,4.670595169E1,-1.435695076E1,5.010989098E1
2.228185514E0,-1.459800053E1,5.161200333E1,-1.198095036E1,5.495856328E1
2.230148538E0,-1.731900024E1,5.578905106E1,-1.056300068E1,5.936280797E1
2.232111605E0,-1.957995033E1,5.897100449E1,-9.528000832E0,6.286283978E1
2.234074673E0,-2.023200035E1,6.096405411E1,-8.646000862E0,6.481283100E1
2.236037212E0,-1.942695045E1,6.146205139E1,-8.914050102E0,6.507265520E1
2.237999906E0,-1.789395142E1,6.096405411E1,-9.373950005E0,6.422367421E1
2.239962912E0,-1.563300037E1,5.916195297E1,-1.017900085E1,6.203337359E1
2.241925827E0,-1.203000069E1,5.563605118E1,-1.021800041E1,5.783164047E1
2.243888716E0,-8.044050217E0,5.046195221E1,-1.021800041E1,5.211067930E1
2.245851638E0,-5.169000149E0,4.521105194E1,-9.451050758E0,4.647666232E1
2.247814518E0,-3.598050117E0,4.042005157E1,-8.683950424E0,4.149864490E1
2.249777410E0,-2.946000099E0,3.631904984E1,-8.377950668E0,3.738906732E1
2.251740203E0,-2.640000105E0,3.283095169E1,-8.377950668E0,3.398574770E1
2.253703025E0,-2.677950144E0,2.984205055E1,-8.683950424E0,3.119503796E1
2.255666100E0,-2.946000099E0,2.742705154E1,-9.106050491E0,2.904896261E1
2.257629100E0,-2.985000134E0,2.547195053E1,-9.183000565E0,2.724074134E1
2.259592415E0,-2.985000134E0,2.378595161E1,-9.412950516E0,2.575432696E1
2.261555638E0,-2.755050182E0,2.225295067E1,-9.604050636E0,2.439307081E1
2.263518691E0,-2.485950232E0,2.095005035E1,-9.873000145E0,2.329293220E1
2.265481794E0,-1.987950087E0,1.980000114E1,-1.006395054E1,2.229966572E1
2.267444821E0,-1.528050065E0,1.872705078E1,-1.021800041E1,2.138796158E1
2.269407871E0,-1.030050039E0,1.776900101E1,-1.040895081E1,2.061903627E1
2.271370592E0,-5.700000525E-1,1.681005096E1,-1.048605061E1,1.982069552E1
2.273333410E0,-1.870500147E-1,1.588995075E1,-1.075395012E1,1.918783380E1
2.275296530E0,4.050000105E-3,1.500900078E1,-1.094595051E1,1.857643543E1
2.277259561E0,3.870000243E-1,1.416600037E1,-1.109895039E1,1.800033430E1
2.279223052E0,7.699500322E-1,1.332300091E1,-1.117605019E1,1.740687433E1
2.281186408E0,1.269000053E0,1.259400082E1,-1.129095078E1,1.696186273E1
2.283149077E0,1.345050097E0,1.178895092E1,-1.129095078E1,1.637907485E1
2.285111948E0,1.459950089E0,1.110000038E1,-1.136700058E1,1.595462832E1
2.287074834E0,1.651950121E0,1.060095024E1,-1.152105045E1,1.574305208E1
2.289037715E0,1.614000082E0,1.018005085E1,-1.125195026E1,1.525925347E1
2.291000512E0,1.230000019E0,9.720000267E0,-1.052400017E1,1.437866074E1
2.292963333E0,1.230000019E0,9.412950516E0,-9.757950783E0,1.361374823E1
2.294926048E0,1.537050128E0,8.953050613E0,-9.528000832E0,1.316443839E1
2.296888794E0,1.729050040E0,8.722949982E0,-9.183000565E0,1.278307357E1
2.298851612E0,1.767000079E0,8.569950104E0,-8.455050468E0,1.216775298E1
2.300814408E0,1.614000082E0,8.302050591E0,-7.650000572E0,1.140401460E1
2.302777533E0,1.651950121E0,8.148000717E0,-6.997950554E0,1.086692996E1
2.304740562E0,1.843950033E0,7.842000484E0,-6.615000248E0,1.042378778E1
2.306703242E0,1.959000111E0,7.687950134E0,-6.576000214E0,1.030466096E1
2.308666025E0,1.690050125E0,7.420050144E0,-6.232050419E0,9.836252640E0
2.310629016E0,1.230000019E0,7.189950466E0,-5.772000313E0,9.301842579E0
2.312591946E0,1.077000022E0,6.883050442E0,-5.311950207E0,8.760886224E0
2.314554108E0,9.619500637E-1,6.577050209E0,-4.813050270E0,8.206606502E0
2.316516492E0,5.790000558E-1,6.232050419E0,-4.237950325E0,7.558698065E0
2.318479686E0,1.189500093E-1,5.964000225E0,-3.241950035E0,6.789233228E0
2.320442643E0,-1.099500060E-1,5.580000401E0,-2.590050220E0,6.152792343E0
2.322405381E0,-2.629500031E-1,5.119950294E0,-2.169000149E0,5.566650282E0
2.324368184E0,-2.629500031E-1,4.774950027E0,-1.747050047E0,5.091313616E0
2.326331132E0,-6.079500318E-1,4.507050037E0,-1.287000060E0,4.726465110E0
2.328294033E0,-7.999500632E-1,3.970950127E0,-7.120500207E-1,4.112831171E0
2.330256060E0,-1.030050039E0,3.357000113E0,9.195000678E-2,3.512678130E0
2.332218343E0,-1.375050068E0,2.743950129E0,6.660000086E-1,3.140633855E0
2.334181600E0,-1.642950058E0,2.053950071E0,8.959500194E-1,2.778618762E0
2.336144572E0,-1.795950055E0,1.210950017E0,1.011000037E0,2.390388592E0
2.338108362E0,-2.065050125E0,3.679500222E-1,1.087950110E0,2.362933491E0
2.340071898E0,-2.103000164E0,-3.210000098E-1,1.318050027E0,2.502579983E0
2.342035078E0,-1.950000048E0,-1.011000037E0,1.510050058E0,2.665496659E0
2.343998362E0,-1.795950055E0,-1.585950017E0,1.816050053E0,3.006445052E0
2.345961268E0,-1.795950055E0,-2.161050081E0,2.200050116E0,3.568724501E0
2.347924285E0,-1.642950058E0,-2.812050104E0,2.467950106E0,4.086280510E0
2.349886832E0,-1.413000107E0,-3.271950245E0,2.773950100E0,4.516306773E0
2.351849516E0,-1.144950032E0,-3.847050190E0,2.928000212E0,4.968288536E0
2.353812479E0,-9.150000215E-1,-4.345950127E0,2.928000212E0,5.319557574E0
2.355775360E0,-7.230000496E-1,-4.767000198E0,2.928000212E0,5.640940099E0
2.357738111E0,-4.549500346E-1,-5.035050392E0,3.081000090E0,5.920411602E0
2.359700900E0,-2.250000089E-1,-5.265000343E0,3.234000206E0,6.183009862E0
2.361663990E0,-7.200000435E-2,-5.457000256E0,3.234000206E0,6.343720763E0
2.363626985E0,2.340000123E-1,-5.649000168E0,3.234000206E0,6.513425845E0
2.365590257E0,2.719500065E-1,-5.725050449E0,3.157950163E0,6.543913866E0
2.367553447E0,4.639500082E-1,-5.878950119E0,3.196050167E0,6.707610661E0
2.369517090E0,6.940500140E-1,-6.070050240E0,3.118950129E0,6.859669470E0
2.371480601E0,9.619500637E-1,-6.223950386E0,3.118950129E0,7.027855735E0
2.373443433E0,1.192050099E0,-6.415050507E0,3.081000090E0,7.215706341E0
2.375406458E0,1.306950092E0,-6.529950142E0,3.118950129E0,7.353653330E0
2.377369363E0,1.422000051E0,-6.684000492E0,3.196050167E0,7.544049535E0
2.379332304E0,1.690050125E0,-6.798000336E0,3.349050045E0,7.764355362E0
2.381295358E0,1.843950033E0,-6.913050175E0,3.541050196E0,7.983072775E0
2.383258379E0,2.149950027E0,-6.952050209E0,3.771000147E0,8.195958110E0
2.385221272E0,2.419050217E0,-7.066950321E0,4.116000175E0,8.528484522E0
2.387184213E0,2.686950207E0,-7.027950287E0,4.614000320E0,8.826142170E0
2.389147312E0,2.878050089E0,-6.837000370E0,5.074050426E0,8.987420882E0
2.391110365E0,3.147000074E0,-6.798000336E0,5.457000256E0,9.267970103E0
2.393073491E0,3.376950264E0,-6.529950142E0,5.802000046E0,9.365214705E0
2.395036596E0,3.529950142E0,-6.300000191E0,5.802000046E0,9.263571392E0
2.396999458E0,3.453000069E0,-6.070050240E0,5.841000080E0,9.104174939E0
2.398962381E0,3.223050117E0,-5.764050484E0,5.841000080E0,8.816439870E0
2.400925123E0,3.147000074E0,-5.457000256E0,5.725950241E0,8.512870692E0
2.402887919E0,2.955000162E0,-5.188950062E0,5.649000168E0,8.220001922E0
2.404851088E0,2.725050211E0,-4.843950272E0,5.572050095E0,7.870037811E0
2.406814148E0,2.610000134E0,-4.575000286E0,5.533950329E0,7.639851737E0
2.408777363E0,2.533950090E0,-4.269000053E0,5.572050095E0,7.462774737E0
2.410740533E0,2.380050182E0,-3.886050224E0,5.341950417E0,7.021571011E0
2.412703595E0,2.304000139E0,-3.579000235E0,5.457000256E0,6.920730533E0
2.414666689E0,2.149950027E0,-3.310950041E0,5.380950451E0,6.673777270E0
2.416629583E0,2.111999989E0,-2.965950251E0,5.035950184E0,6.214354278E0
2.418592535E0,2.074050188E0,-2.736000061E0,4.690950394E0,5.813122751E0
2.420555632E0,2.035050154E0,-2.506050110E0,4.345950127E0,5.413778605E0
2.422518687E0,1.920000076E0,-2.238000154E0,4.039050102E0,5.000896991E0
2.424481588E0,1.843950033E0,-1.893000126E0,3.541050196E0,4.418442903E0
2.426444535E0,1.767000079E0,-1.624050021E0,3.157950163E0,3.966418659E0
2.428407633E0,1.690050125E0,-1.279050112E0,2.889000177E0,3.583093725E0
2.430370687E0,1.614000082E0,-1.048950076E0,2.659050226E0,3.282657556E0
2.432333293E0,1.498950124E0,-6.660000086E-1,2.583000183E0,3.059787155E0
2.434296016E0,1.422000051E0,-4.360500276E-1,2.353049994E0,2.783714792E0
2.436258568E0,1.306950092E0,-2.059500068E-1,2.085000038E0,2.469364110E0
2.438221170E0,1.306950092E0,-5.295000225E-2,1.930950046E0,2.332271495E0
2.440183427E0,1.306950092E0,2.295000106E-2,1.663050056E0,2.115273205E0
2.442145786E0,1.306950092E0,1.759500057E-1,1.471050024E0,1.975617656E0
2.444109005E0,1.459950089E0,2.530499995E-1,1.279950023E0,1.957999139E0
2.446071958E0,1.651950121E0,2.910000086E-1,8.959500194E-1,1.901669436E0
2.448035642E0,1.882050037E0,4.440000355E-1,4.360500276E-1,1.982268398E0
2.449999111E0,1.959000111E0,5.980500579E-1,9.195000678E-2,2.050317075E0
2.451962077E0,2.035050154E0,9.040500522E-1,-2.520000041E-1,2.241035392E0
2.453925190E0,2.227050066E0,1.057950020E0,-7.890000343E-1,2.588731600E0
2.455888304E0,2.380050182E0,1.326000094E0,-1.287000060E0,3.013185072E0
2.457851418E0,2.419050217E0,1.479000092E0,-1.555950046E0,3.234227229E0
2.459814309E0,2.419050217E0,1.747950077E0,-1.824000120E0,3.497729244E0
2.461777266E0,2.457000017E0,2.092950106E0,-2.014950037E0,3.804906422E0
2.463740317E0,2.419050217E0,2.437050104E0,-2.053950071E0,4.001215822E0
2.465703341E0,2.457000017E0,2.896950245E0,-2.053950071E0,4.318319199E0
2.467666308E0,2.419050217E0,3.280950069E0,-1.861950040E0,4.481438972E0
2.469629281E0,2.380050182E0,3.778950214E0,-1.249050021E0,4.637373130E0
2.471591294E0,2.304000139E0,4.085999966E0,-3.289500177E-1,4.702342020E0
2.473553589E0,2.265000105E0,4.507050037E0,1.165050030E0,5.176974704E0
2.475516619E0,2.188950062E0,4.890000343E0,3.081000090E0,6.180304789E0
2.477479433E0,1.843950033E0,5.389050484E0,5.341950417E0,7.808870027E0
2.479442745E0,1.575000048E0,5.925000191E0,7.144050121E0,9.414016388E0
2.481405904E0,1.345050097E0,6.424050331E0,8.254950523E0,1.054617421E1
2.483368923E0,1.230000019E0,7.036950111E0,8.715000153E0,1.126866428E1
2.485331983E0,1.077000022E0,7.687950134E0,8.907000542E0,1.181520905E1
2.487295287E0,1.153950095E0,8.455050468E0,8.677050591E0,1.217007339E1
2.489258519E0,1.306950092E0,9.451050758E0,7.564950466E0,1.217616338E1
2.491221751E0,1.690050125E0,1.063995075E1,5.304000378E0,1.200821558E1
2.493184983E0,2.227050066E0,1.190400028E1,2.161050081E0,1.230183369E1
2.495148933E0,2.992950201E0,1.313100052E1,-1.096050024E0,1.351230000E1
2.497112673E0,3.721950293E0,1.443405056E1,-4.582950115E0,1.559481200E1
2.499075773E0,4.066950321E0,1.581405067E1,-8.416049957E0,1.836992598E1
2.501039060E0,3.990000248E0,1.726995087E1,-1.236405087E1,2.161113275E1
2.503002126E0,3.453000069E0,1.891800117E1,-1.543005085E1,2.465563723E1
2.504965271E0,2.802000046E0,2.102595139E1,-1.681005096E1,2.706510021E1
2.506928156E0,2.227050066E0,2.359395027E1,-1.638795090E1,2.881317712E1
2.508891118E0,1.575000048E0,2.643105125E1,-1.389705086E1,2.990332955E1
2.510853313E0,1.077000022E0,2.934300232E1,-1.002600002E1,3.102728462E1
2.512815733E0,5.020500422E-1,3.233295059E1,-5.848050117E0,3.286139739E1
2.514778922E0,-1.870500147E-1,3.516900253E1,-2.514000177E0,3.525923884E1
2.516741885E0,-1.605000019E0,3.792900085E1,-3.670500219E-1,3.796471858E1
2.518704622E0,-3.138000250E0,3.999900055E1,4.750500321E-1,4.012471511E1
2.520667425E0,-5.016000271E0,4.145505142E1,1.680000126E-1,4.175775103E1
2.522630728E0,-6.586950302E0,4.206795120E1,-6.360000372E-1,4.258526657E1
2.524593885E0,-7.737000465E0,4.149300385E1,-1.900950074E0,4.225096633E1
2.526556895E0,-8.121000290E0,3.961500168E1,-3.433950186E0,4.058436913E1
2.528519955E0,-7.737000465E0,3.658695221E1,-4.736999989E0,3.769489909E1
2.530483259E0,-6.856050491E0,3.271605301E1,-4.927950382E0,3.378801929E1
2.532446491E0,-5.706000328E0,2.865405083E1,-4.200000286E0,2.951699631E1
2.534409362E0,-5.131050110E0,2.497395134E1,-3.241950035E0,2.570089805E1
2.536372339E0,-5.514000416E0,2.209995079E1,-2.590050220E0,2.292423141E1
2.538335597E0,-6.586950302E0,2.002995110E1,-2.245050192E0,2.120441241E1
2.540298784E0,-7.776000500E0,1.868805122E1,-2.169000149E0,2.035716100E1
2.542261843E0,-8.389050484E0,1.753905106E1,-2.206950188E0,1.956693919E1
2.544224940E0,-8.772000313E0,1.657995033E1,-2.322000027E0,1.890064620E1
2.546188147E0,-8.964000702E0,1.569900036E1,-2.551950216E0,1.825717313E1
2.548151322E0,-9.270000458E0,1.543095112E1,-2.629050016E0,1.819228037E1
2.550114954E0,-9.499950409E0,1.523895073E1,-2.782050133E0,1.817180453E1
2.552078462E0,-9.615000725E0,1.520100117E1,-3.204000235E0,1.826976445E1
2.554041466E0,-9.730050087E0,1.527705097E1,-3.931950092E0,1.853435709E1
2.556004618E0,-9.769050598E0,1.531605053E1,-5.043000221E0,1.885331813E1
2.557967816E0,-9.730050087E0,1.535400105E1,-6.307950497E0,1.924082800E1
2.559931001E0,-9.769050598E0,1.543095112E1,-7.342950344E0,1.968419472E1
2.561894046E0,-9.769050598E0,1.543095112E1,-8.032950401E0,1.995186443E1
2.563857142E0,-9.730050087E0,1.546905041E1,-8.377950668E0,2.010361790E1
2.565820215E0,-9.769050598E0,1.546905041E1,-8.530950546E0,2.018670323E1
2.567783295E0,-9.883950233E0,1.543095112E1,-8.455050468E0,2.018154115E1
2.569746192E0,-9.922050476E0,1.527705097E1,-8.148000717E0,1.995558287E1
2.571709142E0,-9.615000725E0,1.500900078E1,-7.956000328E0,1.951963843E1
2.573672119E0,-9.232050896E0,1.481700039E1,-7.956000328E0,1.918520799E1
2.575635078E0,-8.887050629E0,1.466400051E1,-8.110050201E0,1.896801239E1
2.577597996E0,-8.580000877E0,1.451100063E1,-8.263050079E0,1.877401265E1
2.579560926E0,-8.464950562E0,1.439595032E1,-8.377950668E0,1.868391905E1
2.581523307E0,-8.158950806E0,1.447200108E1,-8.455050468E0,1.864122238E1
2.583485849E0,-7.852050304E0,1.458705044E1,-8.416049957E0,1.858135171E1
2.585448795E0,-7.929000378E0,1.489395046E1,-8.110050201E0,1.872088998E1
2.587411620E0,-8.082000732E0,1.512405109E1,-7.573050499E0,1.874584624E1
2.589374381E0,-8.350950241E0,1.554600048E1,-6.844950199E0,1.892801744E1
2.591337161E0,-8.580000877E0,1.585200119E1,-6.193050385E0,1.905928199E1
2.593299793E0,-8.695050240E0,1.612005043E1,-5.464950085E0,1.911349272E1
2.595262468E0,-8.695050240E0,1.650405121E1,-4.927950382E0,1.929435928E1
2.597225069E0,-8.542050362E0,1.684905052E1,-4.582950115E0,1.943863575E1
2.599187695E0,-8.389050484E0,1.719405174E1,-4.429950237E0,1.963761804E1
2.601150488E0,-8.197050095E0,1.757700157E1,-4.162050247E0,1.983595918E1
2.603113232E0,-8.005949974E0,1.795995140E1,-3.970050097E0,2.006031872E1
2.605076321E0,-7.929000378E0,1.838205147E1,-3.739950180E0,2.036556138E1
2.607039309E0,-7.737000465E0,1.880295181E1,-3.204000235E0,2.058343486E1
2.609001905E0,-7.392000198E0,1.918695068E1,-2.859000206E0,2.075944666E1
2.610964617E0,-6.817050457E0,1.937805176E1,-2.398950100E0,2.068178011E1
2.612927530E0,-6.241950512E0,1.937805176E1,-2.092050076E0,2.046576433E1
2.614890384E0,-5.782950401E0,1.926300049E1,-1.900950074E0,2.020196313E1
2.616853320E0,-5.398950100E0,1.903305054E1,-1.708950043E0,1.985764803E1
2.618816231E0,-5.092950344E0,1.895700073E1,-1.516950130E0,1.968774130E1
2.620779347E0,-4.708950043E0,1.861200142E1,-1.363950014E0,1.924684823E1
2.622742427E0,-4.479000092E0,1.834305000E1,-1.210950017E0,1.892076439E1
2.624705639E0,-4.210950375E0,1.803705025E1,-1.402050018E0,1.857506471E1
2.626668812E0,-4.096050262E0,1.769205093E1,-1.900950074E0,1.825924164E1
2.628631738E0,-3.943050146E0,1.726995087E1,-2.245050192E0,1.785606613E1
2.630594737E0,-3.865950108E0,1.677195168E1,-2.514000177E0,1.739437064E1
2.632557771E0,-3.904950142E0,1.619700050E1,-2.667000055E0,1.687318435E1
2.634520802E0,-4.018949986E0,1.562205029E1,-2.629050016E0,1.634357115E1
2.636483753E0,-4.173000336E0,1.520100117E1,-2.398950100E0,1.594488413E1
2.638446727E0,-4.288050175E0,1.470195103E1,-2.053950071E0,1.545164875E1
2.640409641E0,-4.402950287E0,1.424205112E1,-1.671000123E0,1.500047442E1
2.642372573E0,-4.518000126E0,1.382100105E1,-1.402050018E0,1.460815319E1
2.644335809E0,-4.441050053E0,1.324605083E1,-1.057050109E0,1.401064393E1
2.646298956E0,-4.288050175E0,1.267095089E1,-5.970000029E-1,1.339017475E1
2.648262067E0,-4.057950020E0,1.205805016E1,-3.289500177E-1,1.272681186E1
2.650225189E0,-3.865950108E0,1.148295021E1,-2.205000073E-2,1.211627839E1
2.652188078E0,-3.598050117E0,1.087005043E1,1.500000060E-2,1.145007362E1
2.654151035E0,-3.406050205E0,1.052505016E1,-6.105000153E-2,1.106262112E1
2.656113397E0,-3.138000250E0,1.010295010E1,-2.205000073E-2,1.057908939E1
2.658075944E0,-2.755050182E0,9.604950905E0,3.220500052E-1,9.997454656E0
2.660038930E0,-2.332950115E0,9.259950638E0,8.200500607E-1,9.584457426E0
2.662001788E0,-1.873050094E0,8.800050735E0,1.318050027E0,9.093209855E0
2.663964903E0,-1.605000019E0,8.532000542E0,1.624950051E0,8.832413089E0
2.665927942E0,-1.183050036E0,8.224950790E0,2.275950193E0,8.615646939E0
2.667890971E0,-7.620000243E-1,7.842000484E0,2.889000177E0,8.391897143E0
2.669854010E0,-3.400500119E-1,7.420050144E0,3.694050074E0,8.295708776E0
2.671817994E0,1.960500032E-1,6.997950554E0,4.384050369E0,8.260123800E0
2.673781701E0,8.850000501E-1,6.538950443E0,4.461000443E0,7.965024980E0
2.675744671E0,1.345050097E0,6.117000103E0,4.345950127E0,7.623262591E0
2.677707857E0,1.959000111E0,5.734050274E0,4.231050014E0,7.390453180E0
2.679670896E0,2.649000168E0,5.464950085E0,4.308000088E0,7.445921439E0
2.681633992E0,3.337950230E0,5.274000168E0,4.690950394E0,7.807816923E0
2.683596885E0,3.798000097E0,5.044050217E0,5.074050426E0,8.100199692E0
2.685559838E0,4.219950199E0,4.890000343E0,5.496000290E0,8.480925788E0
2.687522756E0,4.717950344E0,4.660050392E0,5.841000080E0,8.836990836E0
2.689485684E0,5.178000450E0,4.431000233E0,6.223950386E0,9.229464239E0
2.691448296E0,5.638050079E0,4.239000320E0,6.646050453E0,9.691579801E0
2.693410997E0,6.136050224E0,3.931950092E0,6.837000370E0,9.992793300E0
2.695373912E0,6.481050491E0,3.702000141E0,6.952050209E0,1.019999131E1
2.697336764E0,6.903000355E0,3.433950186E0,6.876000404E0,1.033067323E1
2.699299744E0,7.056000233E0,3.280950069E0,6.876000404E0,1.038417807E1
2.701262687E0,7.248000145E0,3.127050161E0,7.105050564E0,1.062043748E1
2.703225538E0,7.477950573E0,2.743950129E0,7.182000160E0,1.072521018E1
2.705188434E0,7.746000290E0,2.437050104E0,7.219950199E0,1.086588306E1
2.707151361E0,8.014050484E0,2.053950071E0,7.066950321E0,1.088051023E1
2.709114278E0,8.167950630E0,1.671000123E0,6.684000492E0,1.068566898E1
2.711077247E0,8.320950508E0,1.326000094E0,6.070950508E0,1.038522670E1
2.713040201E0,8.359050751E0,1.057950020E0,5.419050217E0,1.001793856E1
2.715002741E0,8.398050308E0,8.280000687E-1,4.768050194E0,9.692633066E0
2.716965415E0,8.436000824E0,5.209500194E-1,4.345950127E0,9.503935044E0
2.718928380E0,8.320950508E0,4.440000355E-1,4.039050102E0,9.260090665E0
2.720891259E0,8.128950119E0,2.530499995E-1,3.924000263E0,9.030041108E0
2.722854010E0,7.861050606E0,2.140500098E-1,3.963000298E0,8.806094787E0
2.724816799E0,7.516050339E0,1.380000114E-1,3.924000263E0,8.479848746E0
2.726780600E0,7.171050549E0,-9.105000645E-2,3.808950186E0,8.120366838E0
2.728744105E0,6.787950516E0,-2.059500068E-1,3.808950186E0,7.786320641E0
2.730707289E0,6.366000175E0,-4.360500276E-1,3.694050074E0,7.373066106E0
2.732670568E0,6.060000420E0,-7.810500264E-1,3.502950191E0,7.043032321E0
2.734633070E0,5.752950191E0,-1.240950108E0,3.273000240E0,6.734160946E0
2.736595799E0,5.446050167E0,-1.624050021E0,2.889000177E0,6.375211598E0
2.738558450E0,5.140050411E0,-2.083950043E0,2.430000067E0,6.055399767E0
2.740521117E0,4.833000183E0,-2.581950188E0,2.008050203E0,5.835805271E0
2.742483857E0,4.603050232E0,-3.042000055E0,1.624950051E0,5.751721346E0
2.744446576E0,4.066950321E0,-3.349050045E0,1.240950108E0,5.412594414E0
2.746409580E0,3.952050209E0,-3.771000147E0,1.050000072E0,5.562521291E0
2.748372500E0,3.837000132E0,-4.153950214E0,1.011000037E0,5.744562078E0
2.750335199E0,3.682950258E0,-4.422000408E0,1.126049995E0,5.863974659E0
2.752297963E0,3.492000103E0,-4.461000443E0,1.240950108E0,5.799529881E0
2.754260777E0,3.147000074E0,-4.422000408E0,1.395000100E0,5.603902422E0
2.756223577E0,2.917050123E0,-4.384050369E0,1.432950020E0,5.457327626E0
2.758186342E0,2.649000168E0,-4.384050369E0,1.240950108E0,5.270394359E0
2.760149117E0,2.457000017E0,-4.192049980E0,1.050000072E0,4.971180169E0
2.762112200E0,2.227050066E0,-4.077000141E0,6.280500293E-1,4.687870411E0
2.764075192E0,2.074050188E0,-3.886050224E0,3.979500234E-1,4.422831079E0
2.766038869E0,1.996950150E0,-3.694050074E0,2.070000172E-1,4.204362598E0
2.768002346E0,1.920000076E0,-3.502050161E0,1.500000060E-2,3.993867878E0
2.769965355E0,1.843950033E0,-3.271950245E0,-2.140500098E-1,3.761864901E0
2.771928502E0,1.729050040E0,-2.851050138E0,-3.670500219E-1,3.354523312E0
2.773891731E0,1.614000082E0,-2.391000032E0,-5.209500194E-1,2.931427356E0
2.775854946E0,1.614000082E0,-2.083950043E0,-6.739500165E-1,2.720671364E0
2.777817955E0,1.498950124E0,-1.893000126E0,-7.890000343E-1,2.540240541E0
2.779781025E0,1.498950124E0,-1.777950048E0,-8.659500480E-1,2.481496995E0
2.781744147E0,1.498950124E0,-1.585950017E0,-8.269500136E-1,2.333652771E0
2.783707254E0,1.498950124E0,-1.509000063E0,-6.739500165E-1,2.231174867E0
2.785670632E0,1.498950124E0,-1.393950105E0,-5.590500236E-1,2.121906053E0
2.787633937E0,1.614000082E0,-1.318050027E0,-3.670500219E-1,2.115887014E0
2.789597156E0,1.651950121E0,-1.318050027E0,-2.140500098E-1,2.124149826E0
2.791560401E0,1.843950033E0,-1.279050112E0,-1.369500011E-1,2.248305187E0
2.793523494E0,1.843950033E0,-1.203000069E0,-1.759500057E-1,2.208691761E0
2.795486632E0,1.959000111E0,-1.203000069E0,-2.140500098E-1,2.308832607E0
2.797449513E0,2.074050188E0,-1.203000069E0,-3.289500177E-1,2.420144926E0
2.799412473E0,2.111999989E0,-1.087950110E0,-5.209500194E-1,2.432194136E0
2.801375749E0,2.111999989E0,-1.011000037E0,-6.360000372E-1,2.426347270E0
2.803338932E0,2.188950062E0,-9.730500579E-1,-9.040500522E-1,2.560397486E0
2.805301947E0,2.188950062E0,-8.580000401E-1,-1.171950102E0,2.627000853E0
2.807265011E0,2.227050066E0,-7.810500264E-1,-1.516950130E0,2.805517571E0
2.809227935E0,2.419050217E0,-6.660000086E-1,-1.824000120E0,3.101989104E0
2.811190914E0,2.649000168E0,-4.740000367E-1,-2.014950037E0,3.361830093E0
2.813153827E0,2.917050123E0,-3.210000098E-1,-2.092050076E0,3.604011091E0
2.815116760E0,3.300000191E0,-1.290000081E-1,-1.747050047E0,3.736151245E0
2.817078555E0,3.607050180E0,2.530499995E-1,-7.510500550E-1,3.693091048E0
2.819040684E0,3.837000132E0,8.280000687E-1,8.200500607E-1,4.010066861E0
2.821003737E0,3.874950171E0,1.633050084E0,2.928000212E0,5.123990305E0
2.822966523E0,3.682950258E0,2.437050104E0,5.686950207E0,7.200329053E0
2.824929290E0,3.300000191E0,3.280950069E0,8.907000542E0,1.004934293E1
2.826892063E0,2.380050182E0,4.201050282E0,1.166595078E1,1.262568294E1
2.828854876E0,1.690050125E0,5.082000256E0,1.408095074E1,1.506506454E1
2.830817677E0,1.192050099E0,5.964000225E0,1.572900105E1,1.686391876E1
2.832779551E0,6.169500351E-1,7.036950111E0,1.641900063E1,1.787408391E1
2.834741689E0,-1.480500102E-1,8.340000153E0,1.569105053E1,1.777038514E1
2.836704520E0,-7.620000243E-1,9.873000145E0,1.354500103E1,1.677867184E1
2.838667148E0,-1.222050071E0,1.132905006E1,1.036305046E1,1.540238931E1
2.840630122E0,-1.222050071E0,1.236405087E1,6.684000492E0,1.410811904E1
2.842592994E0,-1.030050039E0,1.313100052E1,2.773950100E0,1.346027403E1
2.844556342E0,-7.999500632E-1,1.370595074E1,-1.441050053E0,1.380469598E1
2.846519543E0,-1.030050039E0,1.420395088E1,-5.580000401E0,1.529541200E1
2.848482194E0,-1.834950089E0,1.531605053E1,-8.493000031E0,1.760907423E1
2.850445006E0,-3.445050240E0,1.715505028E1,-1.006395054E1,2.018532194E1
2.852407947E0,-5.629050255E0,1.949295044E1,-1.094595051E1,2.305374495E1
2.854370850E0,-8.044050217E0,2.244405174E1,-1.113705063E1,2.631494061E1
2.856333619E0,-9.999000549E0,2.589405060E1,-1.021800041E1,2.957852939E1
2.858296444E0,-1.172295094E1,3.034005165E1,-8.110050201E0,3.352192159E1
2.860259158E0,-1.341000080E1,3.478605270E1,-6.460950375E0,3.783703826E1
2.862221905E0,-1.486605072E1,3.992205048E1,-4.429950237E0,4.282982649E1
2.864184543E0,-1.613100052E1,4.601595306E1,-2.590050220E0,4.883016971E1
2.866147213E0,-1.731900024E1,5.214795303E1,-1.671000123E0,5.497407586E1
2.868109862E0,-1.797105026E1,5.724600220E1,-2.284050226E0,6.004398638E1
2.870072487E0,-1.739595032E1,6.004395294E1,-4.200000286E0,6.265409304E1
2.872035056E0,-1.609305000E1,6.115500259E1,-6.730050087E0,6.359413632E1
2.873997641E0,-1.375500107E1,6.069495392E1,-8.914050102E0,6.286921166E1
2.875960440E0,-1.122495079E1,5.881695175E1,-1.002600002E1,6.071205819E1
2.877923177E0,-9.193950653E0,5.533005142E1,-1.029405022E1,5.702552752E1
2.879885587E0,-7.507050514E0,5.153505325E1,-1.029405022E1,5.308658014E1
2.881848097E0,-6.088950157E0,4.793205261E1,-1.002600002E1,4.934650604E1
2.883810550E0,-5.016000271E0,4.452105331E1,-9.373950005E0,4.577286735E1
2.885773020E0,-4.173000336E0,4.114800262E1,-9.028950691E0,4.233313126E1
2.887735840E0,-3.291000128E0,3.785205078E1,-8.530950546E0,3.894079541E1
2.889698557E0,-2.410050154E0,3.493905258E1,-8.340000153E0,3.600140747E1
2.891661166E0,-1.605000019E0,3.244800186E1,-8.110050201E0,3.348464968E1
2.893623800E0,-7.620000243E-1,3.018705177E1,-7.879950523E0,3.120788937E1
2.895587132E0,-7.200000435E-2,2.823195076E1,-7.840950489E0,2.930066095E1
2.897550259E0,6.940500140E-1,2.635395050E1,-8.263050079E0,2.762771089E1
2.899513013E0,1.459950089E0,2.482095146E1,-8.761050224E0,2.636222841E1
2.901475877E0,2.074050188E0,2.347905159E1,-9.028950691E0,2.524063189E1
2.903438639E0,2.917050123E0,2.225295067E1,-9.451050758E0,2.435211193E1
2.905401424E0,3.721950293E0,2.114100075E1,-9.834000587E0,2.361148861E1
2.907364146E0,4.411950111E0,2.014500046E1,-1.029405022E1,2.304894395E1
2.909326886E0,4.948050022E0,1.926300049E1,-1.075395012E1,2.260959597E1
2.911289659E0,5.331000328E0,1.838205147E1,-1.113705063E1,2.214392191E1
2.913252422E0,5.407950401E0,1.780695152E1,-1.190400028E1,2.209159733E1
2.915215548E0,5.599950314E0,1.723200035E1,-1.236405087E1,2.193561108E1
2.917178571E0,5.407950401E0,1.665705109E1,-1.255605030E1,2.154896001E1
2.919141298E0,5.215950012E0,1.596705055E1,-1.274700069E1,2.108646164E1
2.921104111E0,5.062950134E0,1.520100117E1,-1.278600025E1,2.049843172E1
2.923067052E0,4.909950256E0,1.451100063E1,-1.282395077E1,1.997824978E1
2.925029956E0,4.564949989E0,1.374405098E1,-1.255605030E1,1.916747518E1
2.926992573E0,4.258049965E0,1.301595020E1,-1.221105099E1,1.834818017E1
2.928955270E0,4.066950321E0,1.244100094E1,-1.171200085E1,1.756387068E1
2.930918051E0,3.645000219E0,1.186605072E1,-1.109895039E1,1.665160310E1
2.932880807E0,3.376950264E0,1.148295021E1,-1.052400017E1,1.593789566E1
2.934843354E0,3.415050268E0,1.106100082E1,-1.006395054E1,1.533921145E1
2.936805963E0,3.682950258E0,1.067805004E1,-9.373950005E0,1.467841320E1
2.938768657E0,3.682950258E0,1.014105034E1,-8.416049957E0,1.368338121E1
2.940731302E0,3.376950264E0,9.451050758E0,-7.381050587E0,1.245817247E1
2.942693914E0,3.223050117E0,8.761950493E0,-6.001950264E0,1.109879433E1
2.944656535E0,3.492000103E0,8.377950668E0,-4.698000431E0,1.022033904E1
2.946619104E0,3.453000069E0,8.071949959E0,-3.625050068E0,9.498451116E0
2.948581689E0,3.376950264E0,7.726950169E0,-2.974050045E0,8.941729456E0
2.950544339E0,3.300000191E0,7.342950344E0,-2.782050133E0,8.517553872E0
2.952506980E0,3.645000219E0,7.228050232E0,-3.127050161E0,8.678086164E0
2.954469547E0,3.147000074E0,7.189950466E0,-2.935050249E0,8.379350639E0
2.956432135E0,2.265000105E0,6.691950321E0,-2.551950216E0,7.511649252E0
2.958393899E0,1.230000019E0,6.040050507E0,-2.245050192E0,6.560134186E0
2.960355905E0,3.490500152E-1,5.082000256E0,-1.977000117E0,5.464164344E0
2.962318638E0,-3.780000210E-1,4.276950359E0,-1.479000092E0,4.541214558E0
2.964281148E0,-6.469500065E-1,3.549000263E0,-9.040500522E-1,3.719039349E0
2.966243962E0,-1.605000019E0,2.551950216E0,-4.440000355E-1,3.047230054E0
2.968206687E0,-1.720050097E0,1.249050021E0,-7.510500550E-1,2.254500937E0
2.970170140E0,-1.720050097E0,3.289500177E-1,-5.970000029E-1,1.850186329E0
2.972133379E0,-1.489950061E0,-3.210000098E-1,-2.140500098E-1,1.539093758E0
2.974095934E0,-1.260000110E0,-8.959500194E-1,-2.205000073E-2,1.546225377E0
2.976058689E0,-1.222050071E0,-1.624050021E0,-1.369500011E-1,2.037081282E0
2.978021416E0,-9.919500351E-1,-2.199000120E0,-1.759500057E-1,2.418785812E0
2.979984151E0,-8.380500674E-1,-2.773950100E0,-3.670500219E-1,2.920933548E0
2.981946745E0,-7.999500632E-1,-3.349050045E0,-7.120500207E-1,3.516115974E0
2.983909381E0,-7.230000496E-1,-3.924000263E0,-1.249050021E0,4.180984704E0
2.985871797E0,-4.930500090E-1,-4.498950005E0,-1.708950043E0,4.837784586E0
2.987834289E0,-4.930500090E-1,-4.996950150E0,-1.900950074E0,5.369005522E0
2.989796610E0,-2.250000089E-1,-5.533950329E0,-1.939050078E0,5.868146765E0
2.991758982E0,-7.200000435E-2,-5.955000401E0,-1.939050078E0,6.263156471E0
2.993721818E0,-7.200000435E-2,-6.262050152E0,-1.861950040E0,6.533399885E0
2.995684518E0,1.570500135E-1,-6.568950176E0,-1.671000123E0,6.779971426E0
2.997647859E0,8.089500666E-1,-6.798000336E0,-1.479000092E0,7.003902487E0
2.999610967E0,9.240000248E-1,-6.913050175E0,-1.402050018E0,7.114055315E0
3.001573724E0,1.039050102E0,-7.143000126E0,-1.171950102E0,7.312697379E0
3.003536584E0,1.269000053E0,-7.258050442E0,-5.209500194E-1,7.386544948E0
3.005498977E0,1.384050012E0,-7.297050476E0,-2.205000073E-2,7.427181584E0
3.007461507E0,1.537050128E0,-7.527000427E0,2.449500114E-1,7.686238289E0
3.009423430E0,1.651950121E0,-7.527000427E0,3.979500234E-1,7.716413601E0
3.011385521E0,1.614000082E0,-7.603050232E0,5.509500504E-1,7.791977609E0
3.013348045E0,1.690050125E0,-7.642050266E0,6.280500293E-1,7.851856375E0
3.015310442E0,1.690050125E0,-7.564950466E0,8.959500194E-1,7.803042446E0
3.017272915E0,1.614000082E0,-7.527000427E0,1.203000069E0,7.791530072E0
3.019235365E0,1.614000082E0,-7.372950554E0,1.432950020E0,7.682365644E0
3.021197824E0,1.537050128E0,-7.143000126E0,1.548000097E0,7.468686511E0
3.023160284E0,1.498950124E0,-6.837000370E0,1.816050053E0,7.231145368E0
3.025122926E0,1.651950121E0,-6.529950142E0,2.008050203E0,7.028616768E0
3.027085514E0,1.729050040E0,-6.300000191E0,2.353049994E0,6.943807365E0
3.029047955E0,1.690050125E0,-6.070050240E0,2.889000177E0,6.931673778E0
3.031010439E0,1.690050125E0,-5.917050362E0,3.388050079E0,7.024716204E0
3.032973091E0,1.537050128E0,-5.725050449E0,4.039050102E0,7.173050360E0
3.034935683E0,1.537050128E0,-5.572050095E0,4.806000233E0,7.517173910E0
3.036898483E0,1.345050097E0,-5.380050182E0,5.380950451E0,7.727142258E0
3.038861222E0,1.230000019E0,-5.188950062E0,5.533950329E0,7.685226674E0
3.040823817E0,9.619500637E-1,-4.996950150E0,5.611050129E0,7.574875726E0
3.042786454E0,6.940500140E-1,-4.843950272E0,5.649000168E0,7.473738191E0
3.044748305E0,4.639500082E-1,-4.690050125E0,5.496000290E0,7.240016504E0
3.046710383E0,3.109500110E-1,-4.537050247E0,5.533950329E0,7.162829127E0
3.048673495E0,4.200000316E-2,-4.384050369E0,5.380950451E0,6.940914161E0
3.050636304E0,-3.400500119E-1,-4.039050102E0,5.112000465E0,6.523964170E0
3.052599067E0,-6.469500065E-1,-3.616950274E0,4.843950272E0,6.079862484E0
3.054561844E0,-9.919500351E-1,-3.196050167E0,4.690950394E0,5.762266667E0
3.056524583E0,-1.144950032E0,-2.736000061E0,4.614000320E0,5.485034719E0
3.058487354E0,-1.336950064E0,-2.275950193E0,4.308000088E0,5.052350890E0
3.060450257E0,-1.413000107E0,-1.893000126E0,4.000950336E0,4.646248204E0
3.062413121E0,-1.297950029E0,-1.432950020E0,3.733050108E0,4.204007986E0
3.064375560E0,-1.413000107E0,-1.279050112E0,3.808950186E0,4.259183021E0
3.066338123E0,-1.452000022E0,-1.048950076E0,3.426000118E0,3.866015667E0
3.068301067E0,-1.336950064E0,-7.039500475E-1,3.118950129E0,3.465664589E0
3.070263895E0,-1.375050068E0,-4.360500276E-1,2.889000177E0,3.229121295E0
3.072226340E0,-1.375050068E0,-2.059500068E-1,2.506050110E0,2.865914382E0
3.074188897E0,-1.297950029E0,-9.105000645E-2,2.314950228E0,2.655552473E0
3.076151117E0,-1.336950064E0,9.900000691E-2,1.969950080E0,2.382842796E0
3.078113436E0,-1.413000107E0,3.679500222E-1,1.777950048E0,2.300665750E0
3.080076309E0,-1.413000107E0,5.209500194E-1,1.701000094E0,2.271862572E0
3.082039000E0,-1.605000019E0,5.590500236E-1,1.548000097E0,2.298883705E0
3.084001468E0,-1.795950055E0,7.129500508E-1,1.471050024E0,2.428522709E0
3.085964002E0,-1.873050094E0,8.280000687E-1,1.471050024E0,2.521485463E0
3.087926766E0,-2.026050091E0,9.040500522E-1,1.548000097E0,2.705270738E0
3.089889462E0,-2.026050091E0,9.430500269E-1,1.585950017E0,2.740339355E0
3.091852580E0,-1.950000048E0,1.057950020E0,1.585950017E0,2.727085603E0
3.093815591E0,-1.873050094E0,1.096050024E0,1.585950017E0,2.687913645E0
3.095778140E0,-1.758000135E0,1.134000063E0,1.585950017E0,2.625215815E0
3.097740824E0,-1.642950058E0,1.134000063E0,1.510050058E0,2.503096525E0
3.099703652E0,-1.336950064E0,1.134000063E0,1.432950020E0,2.264229974E0
3.101666438E0,-9.919500351E-1,1.134000063E0,9.730500579E-1,1.793529322E0
3.103629949E0,-6.850500107E-1,1.134000063E0,6.660000086E-1,1.482837035E0
3.105593231E0,-2.250000089E-1,1.096050024E0,2.449500114E-1,1.145404368E0
3.107556993E0,1.189500093E-1,1.134000063E0,-1.759500057E-1,1.153717319E0
3.109520615E0,7.699500322E-1,1.326000094E0,-7.890000343E-1,1.724418846E0
3.111483375E0,1.306950092E0,1.518000126E0,-1.441050053E0,2.467603732E0
3.113446387E0,1.614000082E0,1.555950046E0,-1.900950074E0,2.939317607E0
3.115409140E0,1.996950150E0,1.786050081E0,-2.284050226E0,3.520606514E0
3.117371983E0,2.188950062E0,1.900950074E0,-2.667000055E0,3.939289638E0
3.119334874E0,2.341950178E0,2.053950071E0,-2.859000206E0,4.228158430E0
3.121297750E0,2.610000134E0,2.169000149E0,-2.859000206E0,4.437402903E0
3.123260547E0,2.955000162E0,2.361000061E0,-2.704950094E0,4.650064759E0
3.125223368E0,3.453000069E0,2.551950216E0,-2.206950188E0,4.827658699E0
3.127186273E0,3.990000248E0,2.743950129E0,-1.363950014E0,5.030877054E0
3.129149178E0,4.450050354E0,3.012000084E0,-2.140500098E-1,5.377816477E0
3.131111339E0,4.642050266E0,3.396000147E0,1.356000066E0,5.909330237E0
3.133073718E0,4.717950344E0,3.778950214E0,3.273000240E0,6.874012711E0
3.135036553E0,4.795050144E0,4.201050282E0,5.686950207E0,8.542993153E0
3.136999255E0,4.756950378E0,4.774950027E0,8.217000008E0,1.062769090E1
3.138962452E0,4.756950378E0,5.350050449E0,1.086195087E1,1.300898126E1
3.140925496E0,4.717950344E0,6.040050507E0,1.327605057E1,1.532953960E1
3.142888713E0,4.564949989E0,6.768000126E0,1.542300034E1,1.745031614E1
3.144851880E0,4.297049999E0,7.765050411E0,1.703205109E1,1.920550470E1
3.146814762E0,3.874950171E0,9.106050491E0,1.783695030E1,2.039833793E1
3.148777728E0,3.453000069E0,1.075500011E1,1.806705093E1,2.130754717E1
3.150740504E0,3.453000069E0,1.293900108E1,1.718595123E1,2.178756247E1
3.152703339E0,3.492000103E0,1.558395100E1,1.503900051E1,2.193684412E1
3.154666276E0,3.568050146E0,1.880295181E1,1.170495033E1,2.243407767E1
3.156629183E0,4.182000160E0,2.275095177E1,7.374000549E0,2.427902007E1
3.158592830E0,5.638050079E0,2.742705154E1,2.275950193E0,2.809289438E1
3.160556260E0,7.132950306E0,3.237105179E1,-3.433950186E0,3.332500544E1
3.162519112E0,8.551050186E0,3.658695221E1,-1.083105087E1,3.910290519E1
3.164482123E0,1.004595089E1,4.042005157E1,-2.037405014E1,4.636597478E1
3.166444850E0,1.203900051E1,4.402305222E1,-2.976495171E1,5.448778771E1
3.168407661E0,1.391700077E1,4.693605042E1,-3.631904984E1,6.095694480E1
3.170370378E0,1.479795074E1,4.896705246E1,-3.877200317E1,6.418738040E1
3.172333123E0,1.487505054E1,5.000205231E1,-3.566699982E1,6.319499379E1
3.174295785E0,1.495200062E1,4.969500351E1,-2.643000031E1,5.823830880E1
3.176258455E0,1.522005081E1,4.712700272E1,-1.523895073E1,5.181534475E1
3.178220655E0,1.514295101E1,4.291095352E1,-5.427000046E0,4.582697052E1
3.180182993E0,1.276695061E1,3.854205322E1,1.203000069E0,4.061935627E1
3.182145475E0,7.861050606E0,3.451800156E1,4.996950150E0,3.575273498E1
3.184107914E0,2.419050217E0,3.133605194E1,7.066950321E0,3.221399916E1
3.186070221E0,-2.218050003E0,2.853900146E1,7.374000549E0,2.955960478E1
3.188032584E0,-5.898000240E0,2.600895119E1,6.684000492E0,2.749414140E1
3.189995422E0,-8.542050362E0,2.355600166E1,5.035950184E0,2.555802483E1
3.191958120E0,-1.038195038E1,2.114100075E1,2.275950193E0,2.366234890E1
3.193921758E0,-1.149300098E1,1.880295181E1,-6.360000372E-1,2.204641841E1
3.195885120E0,-1.210695076E1,1.657995033E1,-3.664050102E0,2.085421475E1
3.197847978E0,-1.229805088E1,1.477905083E1,-6.270000458E0,2.022313785E1
3.199810977E0,-1.203000069E1,1.336095047E1,-8.340000153E0,1.981896860E1
3.201773707E0,-1.160805035E1,1.224900055E1,-9.412950516E0,1.932326279E1
3.203736516E0,-1.126305008E1,1.148295021E1,-9.604050636E0,1.873371910E1
3.205699503E0,-1.130205059E1,1.098495007E1,-9.298050880E0,1.829915915E1
3.207662437E0,-1.183800030E1,1.079295063E1,-8.761050224E0,1.825875230E1
3.209625091E0,-1.264305019E1,1.087005043E1,-7.918050289E0,1.845806693E1
3.211587857E0,-1.375500107E1,1.117605019E1,-7.266000271E0,1.915460551E1
3.213550447E0,-1.475100040E1,1.163595009E1,-6.883050442E0,2.000909120E1
3.215513088E0,-1.551795101E1,1.205805016E1,-6.844950199E0,2.081001491E1
3.217475519E0,-1.593900108E1,1.240305042E1,-7.189950466E0,2.143788243E1
3.219438011E0,-1.624604988E1,1.274805069E1,-7.687950134E0,2.203523339E1
3.221400443E0,-1.616895103E1,1.301595020E1,-8.340000153E0,2.236974608E1
3.223362910E0,-1.590105057E1,1.332300091E1,-9.144000053E0,2.267065282E1
3.225325550E0,-1.551795101E1,1.366695023E1,-9.949050903E0,2.294724267E1
3.227288139E0,-1.479000092E1,1.389705086E1,-1.052400017E1,2.286103080E1
3.229250580E0,-1.390800095E1,1.412700081E1,-1.063905048E1,2.249875635E1
3.231213064E0,-1.294995022E1,1.424205112E1,-1.044795036E1,2.190198388E1
3.233175951E0,-1.222200012E1,1.435695076E1,-1.006395054E1,2.137246880E1
3.235138702E0,-1.160805035E1,1.447200108E1,-9.643050194E0,2.090870788E1
3.237101295E0,-1.095705032E1,1.439595032E1,-9.298050880E0,2.034094608E1
3.239063934E0,-1.030500031E1,1.435695076E1,-8.914050102E0,1.979331593E1
3.241026680E0,-9.499950409E0,1.443405056E1,-8.340000153E0,1.918714351E1
3.242989394E0,-8.809950829E0,1.454895115E1,-7.650000572E0,1.864965742E1
3.244951872E0,-7.929000378E0,1.454895115E1,-6.768000126E0,1.789823601E1
3.246914410E0,-7.123950481E0,1.451100063E1,-5.925000191E0,1.721701011E1
3.248877353E0,-6.357000351E0,1.424205112E1,-4.966950417E0,1.636820302E1
3.250840177E0,-5.782950401E0,1.397400093E1,-3.625050068E0,1.555172676E1
3.252802983E0,-5.361000061E0,1.374405098E1,-2.629050016E0,1.498503130E1
3.254765795E0,-4.900950432E0,1.355205059E1,-2.206950188E0,1.457902670E1
3.256728345E0,-4.518000126E0,1.336095047E1,-2.092050076E0,1.425847103E1
3.258690962E0,-4.096050262E0,1.305405045E1,-1.900950074E0,1.381301821E1
3.260653757E0,-3.751050234E0,1.274805069E1,-1.632000089E0,1.338830081E1
3.262616499E0,-3.520950079E0,1.240305042E1,-1.057050109E0,1.293638683E1
3.264579139E0,-3.367950201E0,1.194300079E1,-5.970000029E-1,1.242315441E1
3.266541809E0,-3.330000162E0,1.155900097E1,-9.900000691E-2,1.202951393E1
3.268504385E0,-3.253050089E0,1.117605019E1,1.300500035E-1,1.164059043E1
3.270467010E0,-2.946000099E0,1.094595051E1,1.500000060E-2,1.133547415E1
3.272429624E0,-2.677950144E0,1.071600056E1,-3.289500177E-1,1.105044311E1
3.274392241E0,-2.295000076E0,1.067805004E1,-8.659500480E-1,1.095616938E1
3.276355215E0,-1.834950089E0,1.071600056E1,-1.210950017E0,1.093920060E1
3.278318085E0,-1.452000022E0,1.079295063E1,-1.249050021E0,1.096157896E1
3.280280988E0,-1.183050036E0,1.090800095E1,-1.096050024E0,1.102657779E1
3.282243870E0,-1.030050039E0,1.121400070E1,-7.890000343E-1,1.128881464E1
3.284206440E0,-8.770500422E-1,1.152105045E1,-5.970000029E-1,1.156979815E1
3.286169102E0,-6.850500107E-1,1.186605072E1,-3.289500177E-1,1.189036002E1
3.288131709E0,-4.930500090E-1,1.198095036E1,-2.910000086E-1,1.199462174E1
3.290094333E0,-4.930500090E-1,1.232595062E1,-2.910000086E-1,1.233923977E1
3.292056733E0,-3.400500119E-1,1.263300037E1,-2.910000086E-1,1.264092613E1
3.294019222E0,-2.250000089E-1,1.290105057E1,-1.759500057E-1,1.290421207E1
3.295981723E0,-2.629500031E-1,1.324605083E1,-9.900000691E-2,1.324903040E1
3.297944220E0,-2.629500031E-1,1.343700027E1,1.500000060E-2,1.343958125E1
3.299906271E0,-7.200000435E-2,1.351395035E1,2.830500007E-1,1.351710603E1
3.301868453E0,4.200000316E-2,1.351395035E1,7.810500264E-1,1.353656741E1
3.303831372E0,4.050000105E-3,1.366695023E1,1.126049995E0,1.371326123E1
3.305794071E0,4.050000105E-3,1.374405098E1,1.548000097E0,1.383095290E1
