"Time (s)","Acceleration x (m/s^2)","Acceleration y (m/s^2)","Acceleration z (m/s^2)","Absolute acceleration (m/s^2)"
3.921660500E-2,-4.863000393E0,3.428805161E1,-5.542050362E0,3.507183454E1
4.117855600E-2,-4.786050320E0,3.164295197E1,-6.001950264E0,3.256080610E1
4.314306600E-2,-4.900950432E0,2.957295227E1,-6.499950409E0,3.067292253E1
4.510621300E-2,-4.978050232E0,2.773395157E1,-6.844950199E0,2.899666182E1
4.706975900E-2,-5.016000271E0,2.620095062E1,-7.458000183E0,2.769967218E1
4.903310100E-2,-4.824000359E0,2.489700127E1,-8.185950279E0,2.664847901E1
5.099651300E-2,-4.555950165E0,2.374800110E1,-8.646000862E0,2.568029534E1
5.295993700E-2,-4.134000301E0,2.282805061E1,-9.028950691E0,2.489441311E1
5.492335700E-2,-3.675000191E0,2.209995079E1,-9.336000443E0,2.427085404E1
5.688687100E-2,-3.253050089E0,2.148600197E1,-9.604050636E0,2.375854381E1
5.885035700E-2,-3.022950172E0,2.087295151E1,-9.910950661E0,2.330333185E1
6.081336700E-2,-2.830950022E0,2.041305161E1,-1.010295010E1,2.295161333E1
6.277654700E-2,-2.524950027E0,1.991505051E1,-9.988050461E0,2.242199280E1
6.473978600E-2,-2.295000076E0,1.945500183E1,-9.873000145E0,2.193718882E1
6.670300700E-2,-1.950000048E0,1.891800117E1,-9.604050636E0,2.130565787E1
6.866642000E-2,-1.758000135E0,1.845795059E1,-9.451050758E0,2.081126774E1
7.062977600E-2,-1.720050097E0,1.792200089E1,-9.298050880E0,2.026352482E1
7.259297600E-2,-1.605000019E0,1.742400169E1,-9.144000053E0,1.974296323E1
7.455622900E-2,-1.642950058E0,1.696395111E1,-8.838000298E0,1.919857212E1
7.651959000E-2,-1.605000019E0,1.650405121E1,-8.646000862E0,1.870061663E1
7.848292000E-2,-1.528050065E0,1.600500107E1,-8.569950104E0,1.821919430E1
8.044581900E-2,-1.452000022E0,1.550700092E1,-8.530950546E0,1.775816710E1
8.240884500E-2,-1.528050065E0,1.493205070E1,-8.301000595E0,1.715248338E1
8.437188200E-2,-1.489950061E0,1.447200108E1,-7.840950489E0,1.652692563E1
8.633494900E-2,-1.297950029E0,1.401195049E1,-7.150950432E0,1.578466100E1
8.829816300E-2,-1.106999993E0,1.336095047E1,-6.576000214E0,1.493265634E1
9.026133300E-2,-1.222050071E0,1.274805069E1,-5.925000191E0,1.411069913E1
9.222426000E-2,-1.222050071E0,1.205805016E1,-5.197050095E0,1.318708875E1
9.418725800E-2,-1.106999993E0,1.125300026E1,-4.392000198E0,1.213033922E1
9.615068800E-2,-1.030050039E0,1.063995075E1,-3.664050102E0,1.130021319E1
9.811400600E-2,-9.529500604E-1,1.010295010E1,-3.204000235E0,1.064158503E1
1.000773570E-1,-6.079500318E-1,9.643050194E0,-2.896950245E0,1.008713740E1
1.020406980E-1,-3.019500077E-1,9.259950638E0,-2.704950094E0,9.651663827E0
1.040041350E-1,-1.870500147E-1,8.722949982E0,-2.629050016E0,9.112450169E0
1.059675440E-1,-4.549500346E-1,8.377950668E0,-2.437050104E0,8.737061871E0
1.079306470E-1,-9.919500351E-1,7.842000484E0,-2.437050104E0,8.271647338E0
1.098938780E-1,-6.469500065E-1,7.305000305E0,-2.206950188E0,7.658472622E0
1.118572880E-1,8.100000024E-2,6.730050087E0,-2.014950037E0,7.025678531E0
1.138206450E-1,1.189500093E-1,6.270000458E0,-2.014950037E0,6.586886859E0
1.157837200E-1,-3.299999982E-2,5.734050274E0,-1.900950074E0,6.041029112E0
1.177468780E-1,-1.480500102E-1,5.197050095E0,-1.786050081E0,5.497383322E0
1.197099360E-1,-3.400500119E-1,4.699050426E0,-1.632000089E0,4.985993703E0
1.216730270E-1,-1.480500102E-1,4.162050247E0,-1.171950102E0,4.326435959E0
1.236371370E-1,1.189500093E-1,3.664050102E0,-8.659500480E-1,3.766866303E0
1.256009480E-1,6.550500393E-1,3.166050196E0,-9.810000658E-1,3.378657355E0
1.275641250E-1,2.917050123E0,2.476050138E0,-9.810000658E-1,3.949983144E0
1.295274880E-1,4.450050354E0,2.092950106E0,-9.810000658E-1,5.014553762E0
1.314906220E-1,3.837000132E0,1.939050078E0,-1.096050024E0,4.436644100E0
1.334538440E-1,3.223050117E0,1.786050081E0,-9.040500522E-1,3.794118270E0
1.354172550E-1,2.839950085E0,1.555950046E0,-5.970000029E-1,3.292826450E0
1.373806110E-1,2.533950090E0,1.441050053E0,-1.759500057E-1,2.920357293E0
1.393429200E-1,2.149950027E0,1.288050056E0,1.680000126E-1,2.511888148E0
1.413055360E-1,1.882050037E0,1.210950017E0,5.130000114E-1,2.296014220E0
1.432688380E-1,1.690050125E0,1.018950105E0,8.580000401E-1,2.151904461E0
1.452319630E-1,1.537050128E0,8.659500480E-1,1.126049995E0,2.092936018E0
1.471947170E-1,1.498950124E0,6.360000372E-1,1.432950020E0,2.169030493E0
1.491575800E-1,1.422000051E0,4.060500264E-1,1.701000094E0,2.253965858E0
1.511217290E-1,1.459950089E0,9.900000691E-2,1.816050053E0,2.332229204E0
1.530855010E-1,1.498950124E0,-1.290000081E-1,1.930950046E0,2.447868574E0
1.550488240E-1,1.422000051E0,-3.210000098E-1,1.969950080E0,2.450679185E0
1.570122760E-1,1.459950089E0,-5.509500504E-1,1.969950080E0,2.513106353E0
1.589756490E-1,1.498950124E0,-8.190000653E-1,2.085000038E0,2.695336294E0
1.609390460E-1,1.537050128E0,-1.126049995E0,2.085000038E0,2.824488776E0
1.629022930E-1,1.651950121E0,-1.432950020E0,2.161050081E0,3.074479210E0
1.648655840E-1,1.575000048E0,-1.663050056E0,2.046000004E0,3.071233735E0
1.668287810E-1,1.614000082E0,-1.854000092E0,1.969950080E0,3.150081891E0
1.687920220E-1,1.537050128E0,-2.083950043E0,1.893000126E0,3.207619110E0
1.707554300E-1,1.422000051E0,-2.275950193E0,1.740000129E0,3.198379883E0
1.727187890E-1,1.384050012E0,-2.351999998E0,1.663050056E0,3.195815062E0
1.746823130E-1,1.269000053E0,-2.506050110E0,1.548000097E0,3.207327952E0
1.766457890E-1,1.192050099E0,-2.620950222E0,1.585950017E0,3.287187394E0
1.786091540E-1,1.114950061E0,-2.812050104E0,1.585950017E0,3.415549280E0
1.805725550E-1,1.039050102E0,-2.965950251E0,1.510050058E0,3.486651285E0
1.825359810E-1,8.470500112E-1,-3.081000090E0,1.510050058E0,3.534162765E0
1.844993990E-1,6.550500393E-1,-3.196050167E0,1.471050024E0,3.578800832E0
1.864620580E-1,4.639500082E-1,-3.387000084E0,1.471050024E0,3.721694151E0
1.884249400E-1,2.340000123E-1,-3.502050161E0,1.471050024E0,3.805666763E0
1.903887160E-1,4.050000105E-3,-3.541050196E0,1.548000097E0,3.864628985E0
1.923522360E-1,-2.250000089E-1,-3.616950274E0,1.893000126E0,4.088569892E0
1.943152380E-1,-4.170000255E-1,-3.655950069E0,2.275950193E0,4.326639483E0
1.962783920E-1,-5.320500135E-1,-3.655950069E0,2.583000183E0,4.507875117E0
1.982416350E-1,-4.170000255E-1,-3.616950274E0,3.118950129E0,4.794170231E0
2.002048520E-1,-1.870500147E-1,-3.541050196E0,3.771000147E0,5.176337151E0
2.021682600E-1,1.189500093E-1,-3.541050196E0,4.269000053E0,5.547751531E0
2.041316160E-1,2.719500065E-1,-3.463950157E0,4.768050194E0,5.899763567E0
2.060952310E-1,3.490500152E-1,-3.426000118E0,5.074050426E0,6.132316076E0
2.080587700E-1,5.410500169E-1,-3.349050045E0,5.304000378E0,6.296133046E0
2.100230300E-1,6.550500393E-1,-3.234000206E0,5.496000290E0,6.410449834E0
2.119870780E-1,8.089500666E-1,-3.081000090E0,5.725950241E0,6.552363537E0
2.139503400E-1,1.039050102E0,-2.926950216E0,5.841000080E0,6.615432308E0
2.159138390E-1,1.306950092E0,-2.851050138E0,5.841000080E0,6.629772799E0
2.178773380E-1,1.384050012E0,-2.773950100E0,5.841000080E0,6.612690491E0
2.198408370E-1,1.459950089E0,-2.659050226E0,5.764050484E0,6.513545912E0
2.218040680E-1,1.690050125E0,-2.620950222E0,5.764050484E0,6.553619418E0
2.237673770E-1,1.804950118E0,-2.544000149E0,5.878950119E0,6.655211205E0
2.257307240E-1,1.804950118E0,-2.428950071E0,5.572050095E0,6.340771691E0
2.276940630E-1,1.767000079E0,-2.275950193E0,5.227050304E0,5.968609004E0
2.296573210E-1,1.804950118E0,-2.161050081E0,4.806000233E0,5.570064687E0
2.316206030E-1,1.767000079E0,-2.122950077E0,4.345950127E0,5.149416357E0
2.335840040E-1,1.804950118E0,-2.046000004E0,3.733050108E0,4.623810555E0
2.355473700E-1,1.882050037E0,-2.008050203E0,3.043050051E0,4.102990565E0
2.375107580E-1,1.882050037E0,-1.969050050E0,2.314950228E0,3.574669915E0
2.394741400E-1,1.920000076E0,-1.893000126E0,1.548000097E0,3.109043916E0
2.414382010E-1,1.959000111E0,-1.854000092E0,8.580000401E-1,2.830399590E0
2.434020630E-1,1.996950150E0,-1.854000092E0,-2.140500098E-1,2.733302699E0
2.453654120E-1,2.111999989E0,-1.701000094E0,-1.096050024E0,2.924939474E0
2.473289110E-1,2.111999989E0,-1.585950017E0,-1.824000120E0,3.209790935E0
2.492921190E-1,2.188950062E0,-1.509000063E0,-2.629050016E0,3.739049017E0
2.512553960E-1,2.188950062E0,-1.432950020E0,-3.357000113E0,4.256089507E0
2.532184390E-1,2.149950027E0,-1.279050112E0,-4.009050369E0,4.725541151E0
2.551815500E-1,2.188950062E0,-1.164000034E0,-4.698000431E0,5.312024708E0
2.571451610E-1,2.149950027E0,-1.011000037E0,-5.119950294E0,5.644315478E0
2.591086250E-1,1.996950150E0,-8.190000653E-1,-5.464950085E0,5.875734034E0
2.610719280E-1,1.959000111E0,-6.660000086E-1,-5.656950474E0,6.023481228E0
2.630352950E-1,1.690050125E0,-4.740000367E-1,-5.617950439E0,5.885772048E0
2.649985480E-1,1.537050128E0,-3.589500189E-1,-5.427000046E0,5.651875592E0
2.669618340E-1,1.306950092E0,-2.059500068E-1,-5.043000221E0,5.213672907E0
2.689253700E-1,1.230000019E0,-1.680000126E-1,-4.621950150E0,4.785765063E0
2.708888320E-1,9.619500637E-1,-1.290000081E-1,-4.047000408E0,4.161754586E0
2.728504420E-1,6.550500393E-1,-5.295000225E-2,-3.510000229E0,3.570993680E0
2.748125980E-1,3.490500152E-1,6.105000153E-2,-3.012000084E0,3.032772250E0
2.767761920E-1,8.100000024E-2,2.530499995E-1,-2.475000143E0,2.489220965E0
2.787393650E-1,-1.099500060E-1,3.679500222E-1,-2.014950037E0,2.051219119E0
2.807029660E-1,-3.780000210E-1,5.590500236E-1,-1.441050053E0,1.591240459E0
2.826664420E-1,-5.700000525E-1,7.890000343E-1,-7.890000343E-1,1.252973331E0
2.846291200E-1,-7.999500632E-1,9.810000658E-1,1.680000126E-1,1.276912384E0
2.865920120E-1,-7.999500632E-1,1.173000097E0,1.548000097E0,2.100512707E0
2.885557960E-1,-7.230000496E-1,1.479000092E0,3.234000206E0,3.628901717E0
2.905193180E-1,-5.700000525E-1,1.824000120E0,5.151000023E0,5.494058403E0
2.924823640E-1,-3.780000210E-1,2.322000027E0,7.411950588E0,7.776347450E0
2.944455500E-1,-3.780000210E-1,2.896950245E0,1.001805019E1,1.043535023E1
2.964089870E-1,-4.549500346E-1,3.433950186E0,1.258605099E1,1.305402899E1
2.983723370E-1,-6.079500318E-1,4.047000408E0,1.530795097E1,1.584554128E1
3.003357280E-1,-8.770500422E-1,4.774950027E0,1.737705040E1,1.804248445E1
3.022991060E-1,-1.030050039E0,5.542050362E0,1.848900032E1,1.932921256E1
3.042624920E-1,-9.529500604E-1,6.499950409E0,1.833495140E1,1.947634237E1
3.062258750E-1,-7.230000496E-1,7.726950169E0,1.691700172E1,1.861218513E1
3.081901560E-1,-1.870500147E-1,8.991000175E0,1.427295113E1,1.686980159E1
3.101541780E-1,7.699500322E-1,1.033305073E1,1.078500080E1,1.495596880E1
3.121177690E-1,1.996950150E0,1.163595009E1,6.876000404E0,1.366244948E1
3.140814870E-1,3.147000074E0,1.282395077E1,2.506050110E0,1.344014918E1
3.160457600E-1,3.376950264E0,1.428105068E1,-2.551950216E0,1.489512174E1
3.180098700E-1,3.184950113E0,1.581405067E1,-6.997950554E0,1.758406716E1
3.199730860E-1,2.686950207E0,1.753905106E1,-1.010295010E1,2.041831565E1
3.219365640E-1,1.804950118E0,1.964700127E1,-1.194195080E1,2.306236529E1
3.238990310E-1,9.619500637E-1,2.206095123E1,-1.236405087E1,2.530771959E1
3.258617950E-1,-1.480500102E-1,2.539605141E1,-1.129095078E1,2.779328903E1
3.278251500E-1,-9.150000215E-1,2.961195183E1,-9.106050491E0,3.099395218E1
3.297883320E-1,-1.720050097E0,3.382800293E1,-6.040050507E0,3.440602512E1
3.317513620E-1,-2.830950022E0,3.762195206E1,-2.130000114E0,3.778839048E1
3.337144260E-1,-2.793000221E0,4.118700027E1,1.510050058E0,4.130920107E1
3.356782250E-1,-2.026050091E0,4.417605209E1,4.423050404E0,4.444313032E1
3.376418080E-1,-1.567050099E0,4.613100052E1,5.764050484E0,4.651611692E1
3.396062860E-1,-1.870500147E-1,4.659105301E1,4.690950394E0,4.682698179E1
3.415705010E-1,2.188950062E0,4.563300323E1,3.118950129E0,4.579181517E1
3.435349410E-1,4.795050144E0,4.379295349E1,1.624950051E0,4.408464295E1
3.454993280E-1,7.324050426E0,4.206795120E1,9.195000678E-2,4.270085114E1
3.474625420E-1,9.471000671E0,3.999900055E1,-1.824000120E0,4.114543565E1
3.494260990E-1,1.039095020E1,3.758400345E1,-3.510000229E0,3.915161891E1
3.513894990E-1,9.777000427E0,3.532305145E1,-5.043000221E0,3.699648027E1
3.533529450E-1,7.056000233E0,3.333000183E1,-5.695050240E0,3.454142091E1
3.553151710E-1,2.839950085E0,3.152805138E1,-5.848050117E0,3.219135024E1
3.572777700E-1,-7.230000496E-1,2.961195183E1,-6.307950497E0,3.028499067E1
3.592409730E-1,-3.483000278E0,2.781000137E1,-6.883050442E0,2.886007364E1
3.612039990E-1,-5.284050465E0,2.616195107E1,-7.726050377E0,2.778598077E1
3.631670850E-1,-6.357000351E0,2.474400139E1,-8.493000031E0,2.692226045E1
3.651301530E-1,-6.894000530E0,2.344095039E1,-8.838000298E0,2.598298766E1
3.670933920E-1,-7.162050247E0,2.232900047E1,-8.416049957E0,2.491403465E1
3.690565950E-1,-7.468950272E0,2.133300018E1,-8.263050079E0,2.406574561E1
3.710197870E-1,-7.468950272E0,2.052795029E1,-7.803000450E0,2.319630956E1
3.729829820E-1,-7.315950394E0,1.976205063E1,-7.075050354E0,2.222876768E1
3.749463980E-1,-7.239000320E0,1.918695068E1,-6.385050297E0,2.147815331E1
3.769097490E-1,-7.047000408E0,1.872705078E1,-5.848050117E0,2.084615878E1
3.788729960E-1,-7.009050369E0,1.830495071E1,-5.695050240E0,2.041155567E1
3.808362800E-1,-6.931950092E0,1.792200089E1,-5.925000191E0,2.010859704E1
3.827996810E-1,-6.856050491E0,1.761495018E1,-6.385050297E0,1.995146023E1
3.847630470E-1,-6.894000530E0,1.738500023E1,-6.997950554E0,1.996839473E1
3.867263910E-1,-6.894000530E0,1.715505028E1,-7.458000183E0,1.993601666E1
3.886897410E-1,-6.894000530E0,1.700205040E1,-8.071050644E0,2.004342335E1
3.906529320E-1,-7.047000408E0,1.681005096E1,-8.416049957E0,2.007655162E1
3.926161840E-1,-7.086000443E0,1.669500160E1,-8.569950104E0,2.005937500E1
3.945794550E-1,-7.123950481E0,1.654200172E1,-8.416049957E0,1.988010031E1
3.965427200E-1,-7.201050282E0,1.642695045E1,-8.224950790E0,1.973194471E1
3.985060810E-1,-7.354050159E0,1.638899994E1,-7.803000450E0,1.958489696E1
4.004694130E-1,-7.315950394E0,1.635000038E1,-7.342950344E0,1.935883680E1
4.024329530E-1,-7.354050159E0,1.631204987E1,-6.805950165E0,1.914382360E1
4.043964560E-1,-7.354050159E0,1.638899994E1,-6.423000336E0,1.907711472E1
4.063596410E-1,-7.276950359E0,1.635000038E1,-6.193050385E0,1.893753923E1
4.083229190E-1,-7.009050369E0,1.635000038E1,-5.772000313E0,1.870201292E1
4.102861420E-1,-6.856050491E0,1.638899994E1,-5.119950294E0,1.848833790E1
4.122493810E-1,-6.625950336E0,1.650405121E1,-4.353000164E0,1.830943840E1
4.142126690E-1,-6.549000263E0,1.654200172E1,-3.586950064E0,1.814919933E1
4.161759320E-1,-6.472050190E0,1.665705109E1,-2.782050133E0,1.808548002E1
4.181389780E-1,-6.511050224E0,1.665705109E1,-2.092050076E0,1.800632665E1
4.201020880E-1,-6.472050190E0,1.669500160E1,-1.287000060E0,1.795179326E1
4.220656540E-1,-6.664050102E0,1.681005096E1,-5.590500236E-1,1.809143206E1
4.240290860E-1,-6.931950092E0,1.696395111E1,-2.520000041E-1,1.832733132E1
4.259923230E-1,-7.047000408E0,1.700205040E1,-2.140500098E-1,1.840586184E1
4.279556210E-1,-7.201050282E0,1.715505028E1,-3.670500219E-1,1.860875065E1
4.299188400E-1,-7.315950394E0,1.734705162E1,-5.209500194E-1,1.883387159E1
4.318820830E-1,-7.431000233E0,1.742400169E1,-7.120500207E-1,1.895580689E1
4.338454910E-1,-7.507050514E0,1.726995087E1,-5.590500236E-1,1.883930857E1
4.358088500E-1,-7.507050514E0,1.711695099E1,-5.590500236E-1,1.869915387E1
4.377718110E-1,-7.507050514E0,1.704000092E1,-5.970000029E-1,1.862991808E1
4.397349050E-1,-7.392000198E0,1.684905052E1,-6.360000372E-1,1.841023266E1
4.416981580E-1,-7.123950481E0,1.673400116E1,-6.360000372E-1,1.819840546E1
4.436613650E-1,-6.702000141E0,1.646505165E1,-6.739500165E-1,1.778957392E1
4.456247800E-1,-6.241950512E0,1.627395058E1,-4.440000355E-1,1.743561154E1
4.475881340E-1,-5.898000240E0,1.619700050E1,-9.900000691E-2,1.723772123E1
4.495504480E-1,-5.398950100E0,1.604400063E1,2.449500114E-1,1.692981449E1
4.515130640E-1,-4.900950432E0,1.569900036E1,4.360500276E-1,1.645199280E1
4.534776610E-1,-4.249050140E0,1.527705097E1,3.979500234E-1,1.586193802E1
4.554416770E-1,-3.675000191E0,1.477905083E1,2.070000172E-1,1.523052260E1
4.574047740E-1,-3.100050211E0,1.428105068E1,-2.205000073E-2,1.461366505E1
4.593681410E-1,-2.524950027E0,1.362900066E1,-3.289500177E-1,1.386482022E1
4.613315320E-1,-2.026050091E0,1.297800064E1,-5.590500236E-1,1.314708776E1
4.632949130E-1,-1.567050099E0,1.236405087E1,-5.590500236E-1,1.247549345E1
4.652586590E-1,-1.222050071E0,1.175100040E1,-4.440000355E-1,1.182271343E1
4.672222980E-1,-9.150000215E-1,1.121400070E1,-2.205000073E-2,1.125128984E1
4.691845590E-1,-7.999500632E-1,1.087005043E1,5.899500251E-1,1.091540002E1
4.711472230E-1,-7.999500632E-1,1.048605061E1,1.318050027E0,1.059879395E1
4.731107100E-1,-7.620000243E-1,1.006500053E1,2.161050081E0,1.032254897E1
4.750739700E-1,-6.850500107E-1,9.681000710E0,3.273000240E0,1.024224579E1
4.770373760E-1,-3.780000210E-1,9.375000000E0,3.847950220E0,1.014101720E1
4.790007390E-1,4.050000105E-3,8.953050613E0,3.808950186E0,9.729606015E0
4.809647140E-1,2.340000123E-1,8.608050346E0,3.004050255E0,9.120175695E0
4.829285090E-1,7.320000529E-1,8.224950790E0,2.391000032E0,8.596657533E0
4.848921540E-1,1.306950092E0,7.842000484E0,2.161050081E0,8.238642339E0
4.868558330E-1,1.575000048E0,7.420050144E0,2.046000004E0,7.856455009E0
4.888189870E-1,1.959000111E0,7.075050354E0,2.353049994E0,7.709141536E0
4.907822950E-1,2.380050182E0,6.807000160E0,2.391000032E0,7.597155468E0
4.927456920E-1,3.031950235E0,6.424050331E0,3.273000240E0,7.821360205E0
4.947090620E-1,3.645000219E0,6.154950142E0,4.269000053E0,8.330294071E0
4.966726700E-1,3.990000248E0,5.887050152E0,5.188950062E0,8.803559747E0
4.986362110E-1,4.066950321E0,5.734050274E0,6.147000313E0,9.338363363E0
5.005992090E-1,4.488000393E0,5.542050362E0,7.182000160E0,1.012114598E1
5.025623670E-1,4.642050266E0,5.311950207E0,7.987050533E0,1.065637940E1
5.045253850E-1,5.025000095E0,5.044050217E0,8.409000397E0,1.101836450E1
5.064884440E-1,5.254950047E0,4.545000076E0,8.179050446E0,1.073165373E1
5.084517170E-1,5.446050167E0,4.162050247E0,7.489050388E0,1.015224115E1
5.104149170E-1,5.715000153E0,3.702000141E0,6.568950176E0,9.461349703E0
5.123781990E-1,5.868000507E0,3.166050196E0,5.572050095E0,8.689363961E0
5.143414560E-1,5.944950104E0,2.706000090E0,4.882050037E0,8.154709117E0
5.163048170E-1,6.060000420E0,2.169000149E0,4.192950249E0,7.681731479E0
5.182681480E-1,6.097950459E0,1.747950077E0,4.116000175E0,7.561863971E0
5.202313630E-1,6.136050224E0,1.249050021E0,4.192950249E0,7.536051360E0
5.221946120E-1,6.175050259E0,5.980500579E-1,4.423050404E0,7.619204974E0
5.241584240E-1,6.213000298E0,6.105000153E-2,4.614000320E0,7.739127778E0
5.261220710E-1,6.366000175E0,-3.589500189E-1,4.843950272E0,8.007412665E0
5.280851870E-1,6.328050137E0,-1.011000037E0,5.035950184E0,8.150284281E0
5.300484580E-1,6.136050224E0,-1.585950017E0,5.151000023E0,8.166954821E0
5.320118760E-1,5.983050346E0,-2.083950043E0,5.112000465E0,8.140779323E0
5.339752400E-1,5.905950069E0,-2.620950222E0,5.035950184E0,8.192095003E0
5.359383140E-1,5.715000153E0,-3.042000055E0,4.921050072E0,8.132141470E0
5.379014730E-1,5.638050079E0,-3.616950274E0,4.729050159E0,8.199625198E0
5.398648950E-1,5.485050201E0,-3.961950302E0,4.498950005E0,8.125477035E0
5.418282400E-1,5.331000328E0,-4.422000408E0,4.269000053E0,8.136216170E0
5.437917870E-1,5.215950012E0,-4.882050037E0,4.000950336E0,8.188293515E0
5.457552600E-1,4.987050056E0,-5.149950027E0,3.694050074E0,8.064654952E0
5.477184960E-1,4.833000183E0,-5.494950294E0,3.310950041E0,8.032108047E0
5.496818010E-1,4.680000305E0,-5.839950085E0,3.004050255E0,8.064225802E0
5.516451530E-1,4.450050354E0,-6.109050274E0,2.583000183E0,7.987198091E0
5.536084910E-1,4.182000160E0,-6.339000225E0,2.200050116E0,7.906470117E0
5.555717580E-1,3.874950171E0,-6.568950176E0,1.740000129E0,7.822655923E0
5.575350400E-1,3.568050146E0,-6.837000370E0,1.395000100E0,7.837192175E0
5.594984420E-1,3.300000191E0,-7.105050564E0,1.087950110E0,7.909195927E0
5.614618080E-1,2.992950201E0,-7.372950554E0,6.660000086E-1,7.985092785E0
5.634260970E-1,2.686950207E0,-7.642050266E0,3.220500052E-1,8.107055562E0
5.653901150E-1,2.380050182E0,-7.756950378E0,1.300500035E-1,8.114914112E0
5.673531930E-1,2.111999989E0,-7.872000217E0,-9.900000691E-2,8.150995790E0
5.693165600E-1,1.882050037E0,-7.948050499E0,-1.759500057E-1,8.169735460E0
5.712797670E-1,1.690050125E0,-7.987050533E0,-2.910000086E-1,8.169083587E0
5.732430210E-1,1.575000048E0,-8.025000572E0,-2.910000086E-1,8.183271982E0
5.752062480E-1,1.422000051E0,-8.025000572E0,-2.910000086E-1,8.155206885E0
5.771694830E-1,1.345050097E0,-8.062950134E0,-3.289500177E-1,8.180986050E0
5.791326870E-1,1.306950092E0,-7.948050499E0,-3.289500177E-1,8.061503172E0
5.810958870E-1,1.306950092E0,-7.833000183E0,-3.670500219E-1,7.949763275E0
5.830589420E-1,1.269000053E0,-7.680000305E0,-4.060500264E-1,7.794718882E0
5.850220400E-1,1.306950092E0,-7.527000427E0,-2.910000086E-1,7.645164157E0
5.869854730E-1,1.306950092E0,-6.990000248E0,-9.900000691E-2,7.111822763E0
5.889488080E-1,1.153950095E0,-6.339000225E0,1.300500035E-1,6.444488939E0
5.909113300E-1,9.619500637E-1,-5.572050095E0,3.600000143E-1,5.665923596E0
5.928740690E-1,9.240000248E-1,-4.882050037E0,5.509500504E-1,4.999173389E0
5.948374280E-1,9.619500637E-1,-4.231050014E0,7.810500264E-1,4.408760744E0
5.968006060E-1,1.153950095E0,-3.655950069E0,1.011000037E0,3.964806781E0
5.987636670E-1,1.269000053E0,-3.118950129E0,1.203000069E0,3.575670595E0
6.007267620E-1,1.459950089E0,-2.620950222E0,1.395000100E0,3.308603876E0
6.026900010E-1,1.804950118E0,-2.238000154E0,1.432950020E0,3.212450059E0
6.046532070E-1,2.149950027E0,-1.816050053E0,1.471050024E0,3.175580433E0
6.066166230E-1,2.419050217E0,-1.432950020E0,1.471050024E0,3.173190490E0
6.085799770E-1,2.533950090E0,-1.126049995E0,1.356000066E0,3.086685574E0
6.105433230E-1,2.686950207E0,-8.190000653E-1,1.050000072E0,2.998826882E0
6.125066710E-1,2.878050089E0,-5.509500504E-1,8.200500607E-1,3.042893421E0
6.144701250E-1,3.070050240E0,-2.830500007E-1,5.899500251E-1,3.139007297E0
6.164335340E-1,3.300000191E0,-1.290000081E-1,4.360500276E-1,3.331183256E0
6.183966900E-1,3.453000069E0,2.295000106E-2,3.220500052E-1,3.468061762E0
6.203599210E-1,3.607050180E0,2.530499995E-1,2.830500007E-1,3.626977062E0
6.223229710E-1,3.721950293E0,5.590500236E-1,2.830500007E-1,3.774330167E0
6.242860750E-1,3.798000097E0,8.659500480E-1,2.830500007E-1,3.905738282E0
6.262484850E-1,3.837000132E0,1.134000063E0,4.360500276E-1,4.024756611E0
6.282110890E-1,3.913050175E0,1.363950014E0,4.750500321E-1,4.171090246E0
6.301754620E-1,3.952050209E0,1.708950043E0,4.750500321E-1,4.331845292E0
6.321393170E-1,3.990000248E0,1.978050113E0,2.830500007E-1,4.462387425E0
6.341028470E-1,4.066950321E0,2.284050226E0,1.680000126E-1,4.667461232E0
6.360664730E-1,4.219950199E0,2.551950216E0,-9.900000691E-2,4.932568356E0
6.380300300E-1,4.411950111E0,2.859000206E0,-4.060500264E-1,5.272955773E0
6.399935840E-1,4.488000393E0,3.241950035E0,-1.096050024E0,5.643909391E0
6.419570750E-1,4.795050144E0,3.472050190E0,-1.786050081E0,6.183656952E0
6.439205840E-1,5.101050377E0,3.778950214E0,-2.629050016E0,6.871177749E0
6.458841720E-1,5.331000328E0,3.931950092E0,-3.472050190E0,7.478965741E0
6.478477360E-1,5.676000118E0,4.239000320E0,-4.162050247E0,8.216371664E0
6.498110960E-1,5.868000507E0,4.621950150E0,-4.162050247E0,8.550936522E0
6.517745120E-1,5.983050346E0,5.044050217E0,-2.820000172E0,8.318156948E0
6.537369900E-1,5.983050346E0,5.542050362E0,1.500000060E-2,8.155454534E0
6.556997430E-1,6.021000385E0,6.154950142E0,4.461000443E0,9.697235783E0
6.576635510E-1,5.944950104E0,6.730050087E0,8.869050026E0,1.262125407E1
6.596270490E-1,5.905950069E0,7.612050533E0,1.208805084E1,1.545783079E1
6.615902800E-1,5.944950104E0,8.685000420E0,1.408095074E1,1.757967115E1
6.635535890E-1,6.060000420E0,9.873000145E0,1.534605026E1,1.922761024E1
6.655169850E-1,6.213000298E0,1.132905006E1,1.561395073E1,2.026682524E1
6.674803560E-1,6.481050491E0,1.286295033E1,1.484805107E1,2.068632706E1
6.694442390E-1,6.711000443E0,1.447200108E1,1.304595089E1,2.060759997E1
6.714079720E-1,7.018050194E0,1.596705055E1,1.036305046E1,2.028774376E1
6.733715180E-1,7.056000233E0,1.746195030E1,6.876000404E0,2.004959424E1
6.753351230E-1,6.634950161E0,1.911000061E1,2.275950193E0,2.035668530E1
6.772991900E-1,5.331000328E0,2.095005035E1,-3.204000235E0,2.185382785E1
6.792631210E-1,2.878050089E0,2.313405037E1,-9.451050758E0,2.515531394E1
6.812255110E-1,-3.019500077E-1,2.597100067E1,-1.535295105E1,3.017113116E1
6.831883530E-1,-3.636000156E0,2.911305046E1,-1.849605179E1,3.468276425E1
6.851517660E-1,-6.931950092E0,3.210300064E1,-1.933995056E1,3.811414790E1
6.871150250E-1,-1.003695011E1,3.651105118E1,-1.822800064E1,4.202448373E1
6.890784760E-1,-1.272000027E1,4.210695267E1,-1.635000038E1,4.692671288E1
6.910418710E-1,-1.479000092E1,4.831605148E1,-1.359000111E1,5.232468909E1
6.930048950E-1,-1.682100105E1,5.352795410E1,-1.267095089E1,5.752165630E1
6.949680270E-1,-1.877595139E1,5.797395325E1,-1.194195080E1,6.209771167E1
6.969314250E-1,-2.030895042E1,6.142395401E1,-1.251705074E1,6.589409801E1
6.988947650E-1,-2.107500076E1,6.418305206E1,-1.178895092E1,6.857549995E1
7.008582930E-1,-2.142000008E1,6.533295441E1,-1.163595009E1,6.973239326E1
7.028217650E-1,-2.149695015E1,6.502605438E1,-1.117605019E1,6.939316041E1
7.047850010E-1,-2.076900101E1,6.349305344E1,-1.056300068E1,6.763354361E1
7.067483060E-1,-1.846905136E1,6.042705154E1,-9.873000145E0,6.395319029E1
7.087113140E-1,-1.456005096E1,5.609595108E1,-9.106050491E0,5.866575634E1
7.106744300E-1,-1.042005062E1,5.119005203E1,-7.956000328E0,5.284218791E1
7.126378150E-1,-7.162050247E0,4.655295181E1,-6.460950375E0,4.754173078E1
7.146011210E-1,-5.131050110E0,4.229805374E1,-5.542050362E0,4.296704956E1
7.165643400E-1,-3.865950108E0,3.850395203E1,-5.503050327E0,3.908687062E1
7.185275840E-1,-3.061050177E0,3.509295273E1,-6.078000069E0,3.574671236E1
7.204905020E-1,-2.295000076E0,3.206505203E1,-6.730050087E0,3.284399734E1
7.224535120E-1,-1.642950058E0,2.938200188E1,-7.687950134E0,3.041555353E1
7.244167350E-1,-7.999500632E-1,2.700495148E1,-8.110050201E0,2.820780457E1
7.263798950E-1,-7.200000435E-2,2.493600082E1,-8.455050468E0,2.633053740E1
7.283439040E-1,8.089500666E-1,2.301900101E1,-8.646000862E0,2.460248236E1
7.303076640E-1,1.575000048E0,2.125605011E1,-8.991000175E0,2.313305807E1
7.322712850E-1,2.494950056E0,1.953195000E1,-9.183000565E0,2.172669662E1
7.342349580E-1,3.453000069E0,1.799805069E1,-9.412950516E0,2.060234636E1
7.361981580E-1,4.603050232E0,1.661894989E1,-9.489000320E0,1.968295440E1
7.381614960E-1,5.178000450E0,1.539195061E1,-1.002600002E1,1.908519082E1
7.401248430E-1,5.446050167E0,1.431900024E1,-1.014105034E1,1.837210201E1
7.420881870E-1,5.791050434E0,1.339905071E1,-1.021800041E1,1.781792237E1
7.440512550E-1,5.791050434E0,1.263300037E1,-1.044795036E1,1.738644962E1
7.460144100E-1,5.791050434E0,1.213395023E1,-1.071600056E1,1.719307074E1
7.479778330E-1,5.715000153E0,1.171305084E1,-1.060095024E1,1.679990871E1
7.499411780E-1,5.560950279E0,1.152105045E1,-1.029405022E1,1.642029967E1
7.519047050E-1,5.370000362E0,1.125300026E1,-1.010295010E1,1.604794440E1
7.538681780E-1,5.293050289E0,1.102305031E1,-9.949050903E0,1.576412488E1
7.558317520E-1,5.215950012E0,1.087005043E1,-9.643050194E0,1.543867054E1
7.577952790E-1,5.178000450E0,1.067805004E1,-9.183000565E0,1.500533041E1
7.597584600E-1,5.101050377E0,1.037100029E1,-8.148000717E0,1.414101402E1
7.617217420E-1,4.987050056E0,9.873000145E0,-7.228050232E0,1.321330807E1
7.636851430E-1,4.987050056E0,9.451050758E0,-6.423000336E0,1.246787721E1
7.656485090E-1,4.909950256E0,8.953050613E0,-5.733000278E0,1.171033812E1
7.676118820E-1,4.756950378E0,8.608050346E0,-5.082000256E0,1.107040353E1
7.695752640E-1,4.527000427E0,8.071949959E0,-4.276950359E0,1.019521522E1
7.715385150E-1,4.258049965E0,7.573050499E0,-3.433950186E0,9.342060653E0
7.735018040E-1,4.182000160E0,6.883050442E0,-2.475000143E0,8.425623682E0
7.754652040E-1,3.837000132E0,6.424050331E0,-1.747050047E0,7.683955787E0
7.774285710E-1,3.376950264E0,5.848950386E0,-1.249050021E0,6.868343298E0
7.793921440E-1,3.031950235E0,5.427000046E0,-9.420000315E-1,6.287480878E0
7.813556530E-1,2.610000134E0,5.005050182E0,-9.420000315E-1,5.722760880E0
7.833190180E-1,2.304000139E0,4.545000076E0,-9.040500522E-1,5.175205197E0
7.852824250E-1,1.959000111E0,4.123950005E0,-7.510500550E-1,4.626955939E0
7.872459400E-1,1.459950089E0,3.702000141E0,-7.890000343E-1,4.056942243E0
7.892094230E-1,1.269000053E0,3.280950069E0,-8.659500480E-1,3.622825414E0
7.911729760E-1,1.039050102E0,2.821050167E0,-9.420000315E-1,3.150446511E0
7.931365050E-1,8.850000501E-1,2.245950222E0,-1.057050109E0,2.635312585E0
7.950999110E-1,8.470500112E-1,1.708950043E0,-1.018950105E0,2.162466944E0
7.970633530E-1,9.240000248E-1,1.134000063E0,-8.659500480E-1,1.699882841E0
7.990275820E-1,1.114950061E0,4.830000103E-1,-6.360000372E-1,1.371458601E0
8.009915810E-1,1.077000022E0,-5.295000225E-2,-4.060500264E-1,1.152219325E0
8.029550680E-1,9.619500637E-1,-3.210000098E-1,-1.369500011E-1,1.023300657E0
8.049187180E-1,1.039050102E0,-7.039500475E-1,2.070000172E-1,1.272014069E0
8.068802550E-1,7.699500322E-1,-9.730500579E-1,3.600000143E-1,1.291994380E0
8.088424110E-1,4.260000288E-1,-1.203000069E0,4.360500276E-1,1.348638134E0
8.108057800E-1,1.189500093E-1,-1.471050024E0,3.979500234E-1,1.528561906E0
8.127687930E-1,-7.200000435E-2,-1.663050056E0,5.130000114E-1,1.741863513E0
8.147320560E-1,-4.170000255E-1,-2.008050203E0,7.050000429E-1,2.168681558E0
8.166952500E-1,-7.620000243E-1,-2.238000154E0,9.349500537E-1,2.542325772E0
8.186585320E-1,-9.919500351E-1,-2.467050076E0,1.050000072E0,2.858811134E0
8.206217880E-1,-1.260000110E0,-2.773950100E0,1.203000069E0,3.275608127E0
8.225853750E-1,-1.375050068E0,-3.042000055E0,1.318050027E0,3.589120073E0
8.245488650E-1,-1.336950064E0,-3.310950041E0,1.395000100E0,3.833516783E0
8.265116580E-1,-1.413000107E0,-3.579000235E0,1.432950020E0,4.105990470E0
8.284746790E-1,-1.413000107E0,-3.732000113E0,1.432950020E0,4.240016498E0
8.304379000E-1,-1.452000022E0,-4.000950336E0,1.240950108E0,4.433493524E0
8.324010620E-1,-1.413000107E0,-4.231050014E0,1.240950108E0,4.630152341E0
8.343643050E-1,-1.336950064E0,-4.498950005E0,1.126049995E0,4.826590433E0
8.363275240E-1,-1.297950029E0,-4.651950359E0,9.730500579E-1,4.926676653E0
8.382908210E-1,-1.297950029E0,-4.804950237E0,8.959500194E-1,5.057167933E0
8.402540810E-1,-1.336950064E0,-4.920000076E0,6.280500293E-1,5.136952702E0
8.422174870E-1,-1.413000107E0,-5.035050392E0,5.130000114E-1,5.254661813E0
8.441808500E-1,-1.336950064E0,-5.188950062E0,3.979500234E-1,5.373174335E0
8.461447340E-1,-1.260000110E0,-5.419050217E0,3.220500052E-1,5.572918601E0
8.481084660E-1,-1.222050071E0,-5.572050095E0,2.449500114E-1,5.709741600E0
8.500717970E-1,-1.222050071E0,-5.686950207E0,2.070000172E-1,5.820451704E0
8.520352420E-1,-1.260000110E0,-5.764050484E0,2.830500007E-1,5.906944689E0
8.539977150E-1,-1.297950029E0,-5.764050484E0,4.750500321E-1,5.927446735E0
8.559604730E-1,-1.336950064E0,-5.649000168E0,5.509500504E-1,5.831139196E0
8.579238290E-1,-1.489950061E0,-5.419050217E0,6.280500293E-1,5.655130704E0
8.598870090E-1,-1.528050065E0,-5.265000343E0,9.349500537E-1,5.561411441E0
8.618502540E-1,-1.489950061E0,-4.996950150E0,1.203000069E0,5.351324242E0
8.638134760E-1,-1.106999993E0,-4.729050159E0,1.510050058E0,5.086218200E0
8.657765290E-1,-8.770500422E-1,-4.422000408E0,1.663050056E0,4.805105605E0
8.677396320E-1,-6.469500065E-1,-4.039050102E0,2.122950077E0,4.608620951E0
8.697026590E-1,-4.549500346E-1,-3.694050074E0,2.620950222E0,4.552182504E0
8.716657080E-1,-3.019500077E-1,-3.310950041E0,3.004050255E0,4.480834957E0
8.736290280E-1,-1.480500102E-1,-2.889000177E0,3.310950041E0,4.396661347E0
8.755922590E-1,4.050000105E-3,-2.544000149E0,3.618000269E0,4.422881313E0
8.775551300E-1,1.189500093E-1,-2.199000120E0,3.924000263E0,4.499725403E0
8.795181070E-1,2.719500065E-1,-1.930950046E0,4.116000175E0,4.554556216E0
8.814820560E-1,4.639500082E-1,-1.624050021E0,4.231050014E0,4.555718638E0
8.834457200E-1,6.169500351E-1,-1.432950020E0,4.345950127E0,4.617494516E0
8.854088930E-1,8.089500666E-1,-1.240950108E0,4.461000443E0,4.700519368E0
8.873721990E-1,8.850000501E-1,-9.730500579E-1,4.498950005E0,4.687280944E0
8.893354170E-1,9.240000248E-1,-7.810500264E-1,4.498950005E0,4.658794515E0
8.912986610E-1,8.850000501E-1,-5.509500504E-1,4.461000443E0,4.581189365E0
8.932618890E-1,8.470500112E-1,-2.830500007E-1,4.345950127E0,4.436766111E0
8.952251220E-1,8.089500666E-1,-2.440500110E-1,4.116000175E0,4.201835083E0
8.971875290E-1,8.089500666E-1,-9.105000645E-2,3.847950220E0,3.933117238E0
8.991501550E-1,7.699500322E-1,1.380000114E-1,3.579000235E0,3.663483279E0
9.011136230E-1,8.089500666E-1,3.679500222E-1,3.157950163E0,3.280615287E0
9.030768450E-1,8.089500666E-1,5.209500194E-1,2.812950134E0,2.972957718E0
9.050401230E-1,8.850000501E-1,6.360000372E-1,2.391000032E0,2.627660992E0
9.070033840E-1,1.000050068E0,8.280000687E-1,1.893000126E0,2.295459372E0
9.089667950E-1,1.039050102E0,9.430500269E-1,1.471050024E0,2.032967447E0
9.109301580E-1,1.114950061E0,1.057950020E0,1.240950108E0,1.975431358E0
9.128935460E-1,1.230000019E0,1.210950017E0,8.200500607E-1,1.910963656E0
9.148569270E-1,1.306950092E0,1.249050021E0,4.360500276E-1,1.859673123E0
9.168209890E-1,1.306950092E0,1.402950048E0,5.295000225E-2,1.918121760E0
9.187848510E-1,1.384050012E0,1.479000092E0,-2.910000086E-1,2.046391143E0
9.207482090E-1,1.537050128E0,1.594050050E0,-4.819500148E-1,2.266229131E0
9.227117080E-1,1.651950121E0,1.671000123E0,-7.120500207E-1,2.455238450E0
9.246747130E-1,1.882050037E0,1.747950077E0,-7.890000343E-1,2.686998859E0
9.266378620E-1,1.959000111E0,1.708950043E0,-7.890000343E-1,2.716746719E0
9.286007460E-1,2.074050188E0,1.863000035E0,-8.659500480E-1,2.919301766E0
9.305637080E-1,2.111999989E0,1.978050113E0,-7.890000343E-1,2.999291125E0
9.325264640E-1,2.111999989E0,2.131050110E0,-6.360000372E-1,3.066987866E0
9.344892660E-1,2.074050188E0,2.169000149E0,-4.060500264E-1,3.028386113E0
9.364525700E-1,2.188950062E0,2.208000183E0,-2.140500098E-1,3.116501980E0
9.384157260E-1,2.074050188E0,2.284050226E0,1.500000060E-2,3.085254385E0
9.403782050E-1,1.996950150E0,2.361000061E0,2.449500114E-1,3.101956108E0
9.423408820E-1,1.804950118E0,2.398950100E0,3.220500052E-1,3.019357997E0
9.443038670E-1,1.614000082E0,2.361000061E0,4.360500276E-1,2.893001414E0
9.462667790E-1,1.422000051E0,2.361000061E0,5.130000114E-1,2.803493257E0
9.482300190E-1,1.269000053E0,2.361000061E0,4.360500276E-1,2.715662359E0
9.501931630E-1,1.153950095E0,2.322000027E0,3.220500052E-1,2.612853067E0
9.521568140E-1,8.470500112E-1,2.322000027E0,1.500000060E-2,2.471720624E0
9.541203170E-1,6.169500351E-1,2.245950222E0,-1.759500057E-1,2.335782128E0
9.560827170E-1,4.639500082E-1,2.245950222E0,-4.060500264E-1,2.329038135E0
9.580454540E-1,3.870000243E-1,2.169000149E0,-6.360000372E-1,2.293213185E0
9.600086330E-1,3.109500110E-1,2.131050110E0,-8.269500136E-1,2.306926701E0
9.619716830E-1,3.109500110E-1,2.131050110E0,-9.040500522E-1,2.335673560E0
9.639349450E-1,3.109500110E-1,2.131050110E0,-7.120500207E-1,2.268276816E0
9.658981440E-1,4.639500082E-1,2.208000183E0,-1.759500057E-1,2.263067127E0
9.678613860E-1,5.790000558E-1,2.322000027E0,7.050000429E-1,2.494784610E0
9.698246110E-1,6.940500140E-1,2.514000177E0,1.740000129E0,3.135203783E0
9.717877980E-1,8.470500112E-1,2.743950129E0,3.081000090E0,4.211806926E0
9.737509970E-1,8.089500666E-1,3.088950157E0,4.614000320E0,5.611150706E0
9.757142780E-1,9.240000248E-1,3.396000147E0,6.454050541E0,7.351282978E0
9.776775340E-1,1.039050102E0,3.741000175E0,8.638950348E0,9.471334148E0
9.796407620E-1,1.077000022E0,4.162050247E0,1.090005016E1,1.171723879E1
9.816039980E-1,1.306950092E0,4.584000111E0,1.312305069E1,1.396193522E1
9.835672270E-1,1.498950124E0,4.966950417E0,1.538400078E1,1.623529882E1
9.855304590E-1,2.074050188E0,5.464950085E0,1.703205109E1,1.800716879E1
9.874938230E-1,2.649000168E0,5.848950386E0,1.787595177E1,1.899413262E1
9.894571490E-1,3.184950113E0,6.462000370E0,1.745400047E1,1.888235919E1
9.914202330E-1,3.837000132E0,7.113000393E0,1.584405041E1,1.778626655E1
9.933833860E-1,4.527000427E0,7.918050289E0,1.297005081E1,1.585596012E1
9.953468090E-1,5.331000328E0,9.030000687E0,9.289950371E0,1.400941308E1
9.973101530E-1,5.485050201E0,1.052505016E1,4.996950150E0,1.287757615E1
9.992742660E-1,4.756950378E0,1.209600067E1,4.360500276E-1,1.300507396E1
1.001238153E0,4.564949989E0,1.355205059E1,-3.280050039E0,1.467159064E1
1.003201453E0,4.450050354E0,1.477905083E1,-6.346950531E0,1.668853117E1
1.005164925E0,4.603050232E0,1.635000038E1,-8.683950424E0,1.907672873E1
1.007128114E0,4.833000183E0,1.842000008E1,-9.643050194E0,2.134578906E1
1.009091386E0,4.872000217E0,2.121795082E1,-9.604050636E0,2.379444498E1
1.011054789E0,4.488000393E0,2.470605087E1,-8.377950668E0,2.647113814E1
1.013018153E0,3.952050209E0,2.876895142E1,-6.997950554E0,2.987042983E1
1.014981331E0,3.415050268E0,3.375105286E1,-6.078000069E0,3.446357820E1
1.016944554E0,3.223050117E0,3.888705063E1,-5.503050327E0,3.940652638E1
1.018907471E0,3.798000097E0,4.291095352E1,-4.927950382E0,4.335965212E1
1.020870477E0,5.254950047E0,4.436805344E1,-5.197050095E0,4.497941746E1
1.022833880E0,6.634950161E0,4.452105331E1,-4.736999989E0,4.526130710E1
1.024797167E0,7.477950573E0,4.452105331E1,-4.200000286E0,4.533965081E1
1.026760596E0,8.282999992E0,4.425300217E1,-3.778950214E0,4.517982685E1
1.028723996E0,8.398050308E0,4.394595337E1,-3.739950180E0,4.489723036E1
1.030687334E0,7.210050106E0,4.379295349E1,-3.855000257E0,4.454961981E1
1.032650690E0,4.833000183E0,4.287300110E1,-4.813050270E0,4.341218224E1
1.034613043E0,1.230000019E0,4.111005020E1,-6.001950264E0,4.156407745E1
1.036575690E0,-2.640000105E0,3.892500305E1,-7.305000305E0,3.969242362E1
1.038539005E0,-6.127950191E0,3.662594986E1,-8.263050079E0,3.804326449E1
1.040502134E0,-8.542050362E0,3.421095276E1,-9.106050491E0,3.641807338E1
1.042465337E0,-9.960000038E0,3.191100121E1,-9.681000710E0,3.480280698E1
1.044428519E0,-1.026705074E1,2.972700119E1,-9.412950516E0,3.282850237E1
1.046391624E0,-1.011405087E1,2.777205086E1,-8.416049957E0,3.073126634E1
1.048354752E0,-9.538950920E0,2.604705048E1,-6.921000481E0,2.858917052E1
1.050317999E0,-9.193950653E0,2.470605087E1,-5.617950439E0,2.695327523E1
1.052281211E0,-8.964000702E0,2.355600166E1,-4.582950115E0,2.561721989E1
1.054244445E0,-8.695050240E0,2.275095177E1,-4.047000408E0,2.468983429E1
1.056207673E0,-8.656949997E0,2.209995079E1,-4.009050369E0,2.407120880E1
1.058171084E0,-8.695050240E0,2.164005089E1,-4.468050003E0,2.374571902E1
1.060134442E0,-8.848950386E0,2.133300018E1,-5.197050095E0,2.367298353E1
1.062097444E0,-9.040050507E0,2.114100075E1,-6.001950264E0,2.376316125E1
1.064060570E0,-9.270000458E0,2.083500099E1,-6.615000248E0,2.374422884E1
1.066023593E0,-9.577050209E0,2.060505104E1,-6.883050442E0,2.374161752E1
1.067986647E0,-9.691950798E0,2.033595085E1,-7.075050354E0,2.361230918E1
1.069950268E0,-9.922050476E0,2.014500046E1,-7.266000271E0,2.360217975E1
1.071913722E0,-9.999000549E0,1.980000114E1,-7.150950432E0,2.330571066E1
1.073876790E0,-1.003695011E1,1.949295044E1,-6.805950165E0,2.295727427E1
1.075839964E0,-1.003695011E1,1.933995056E1,-6.460950375E0,2.272703093E1
1.077802663E0,-1.007505035E1,1.918695068E1,-6.193050385E0,2.253884623E1
1.079765502E0,-1.003695011E1,1.895700073E1,-5.848050117E0,2.223303701E1
1.081728619E0,-9.844950676E0,1.857299995E1,-5.503050327E0,2.172931071E1
1.083691654E0,-9.577050209E0,1.807500076E1,-5.005050182E0,2.105887154E1
1.085654698E0,-9.270000458E0,1.784505081E1,-4.774950027E0,2.066830653E1
1.087617736E0,-8.848950386E0,1.753905106E1,-4.698000431E0,2.019884756E1
1.089580820E0,-8.464950562E0,1.730895042E1,-4.315050125E0,1.974524779E1
1.091543890E0,-8.311950684E0,1.715505028E1,-3.894000292E0,1.945629750E1
1.093507013E0,-8.044050217E0,1.704000092E1,-3.357000113E0,1.913995363E1
1.095470121E0,-7.852050304E0,1.684905052E1,-2.743950129E0,1.879027567E1
1.097433174E0,-7.699050426E0,1.688700104E1,-2.130000114E0,1.868108889E1
1.099396257E0,-7.431000233E0,1.696395111E1,-1.632000089E0,1.859190216E1
1.101359333E0,-7.201050282E0,1.711695099E1,-1.671000123E0,1.864503628E1
1.103322411E0,-6.970950127E0,1.715505028E1,-1.708950043E0,1.859597822E1
1.105285622E0,-6.894000530E0,1.730895042E1,-1.555950046E0,1.869620252E1
1.107248794E0,-7.009050369E0,1.742400169E1,-1.287000060E0,1.882495661E1
1.109211659E0,-7.009050369E0,1.738500023E1,-1.171950102E0,1.878133347E1
1.111174626E0,-7.047000408E0,1.723200035E1,-1.096050024E0,1.864948730E1
1.113137721E0,-7.047000408E0,1.688700104E1,-1.171950102E0,1.833587974E1
1.115100778E0,-7.009050369E0,1.673400116E1,-1.402050018E0,1.819668448E1
1.117063904E0,-7.047000408E0,1.661894989E1,-1.363950014E0,1.810276415E1
1.119027009E0,-6.970950127E0,1.654200172E1,-1.363950014E0,1.800256444E1
1.120990437E0,-6.894000530E0,1.642695045E1,-1.402050018E0,1.787002207E1
1.122953773E0,-6.625950336E0,1.623495102E1,-1.479000092E0,1.759728086E1
1.124916762E0,-6.166050434E0,1.600500107E1,-1.671000123E0,1.723288944E1
1.126879852E0,-5.706000328E0,1.573695087E1,-2.014950037E0,1.686031098E1
1.128843286E0,-5.169000149E0,1.535400105E1,-2.359950066E0,1.637172181E1
1.130806619E0,-4.671000004E0,1.497105026E1,-2.667000055E0,1.590796896E1
1.132769854E0,-4.057950020E0,1.443405056E1,-2.974050045E0,1.528573674E1
1.134733103E0,-3.483000278E0,1.374405098E1,-3.127050161E0,1.451925174E1
1.136696374E0,-2.946000099E0,1.286295033E1,-3.319050074E0,1.360700191E1
1.138659639E0,-2.448000193E0,1.201905060E1,-3.357000113E0,1.271690733E1
1.140623179E0,-2.218050003E0,1.113795090E1,-2.974050045E0,1.173961966E1
1.142586639E0,-2.103000164E0,1.041000080E1,-2.092050076E0,1.082438912E1
1.144549744E0,-2.179949999E0,9.949950218E0,-1.018950105E0,1.023679396E1
1.146512920E0,-2.410050154E0,9.565950394E0,9.195000678E-2,9.865303010E0
1.148475619E0,-2.563050032E0,8.991000175E0,1.011000037E0,9.403692397E0
1.150438458E0,-2.371050119E0,8.416950226E0,1.548000097E0,8.880497400E0
1.152402115E0,-2.065050125E0,7.765050411E0,1.624950051E0,8.197615664E0
1.154365533E0,-1.681950092E0,7.036950111E0,1.740000129E0,7.441453046E0
1.156328913E0,-1.106999993E0,6.424050331E0,2.161050081E0,6.867605776E0
1.158292305E0,-4.549500346E-1,5.964000225E0,2.698050022E0,6.561688208E0
1.160256228E0,4.050000105E-3,5.580000401E0,2.851050138E0,6.266171699E0
1.162219995E0,5.790000558E-1,5.235000134E0,3.004050255E0,6.063397183E0
1.164183270E0,1.269000053E0,4.966950417E0,3.118950129E0,6.000733912E0
1.166146689E0,1.920000076E0,4.813950062E0,3.196050167E0,6.088945078E0
1.168109909E0,2.494950056E0,4.929000378E0,3.157950163E0,6.363369370E0
1.170073204E0,3.184950113E0,4.966950417E0,3.502950191E0,6.861862991E0
1.172036423E0,3.837000132E0,5.119950294E0,4.308000088E0,7.713321320E0
1.173999665E0,4.335000038E0,5.311950207E0,5.419050217E0,8.739287476E0
1.175963073E0,4.756950378E0,5.389050484E0,6.339000225E0,9.584016166E0
1.177926433E0,4.987050056E0,5.389050484E0,6.876000404E0,1.005941921E1
1.179889578E0,5.101050377E0,5.311950207E0,7.219950199E0,1.031335110E1
1.181852800E0,5.101050377E0,5.082000256E0,7.105050564E0,1.011578890E1
1.183816077E0,5.101050377E0,4.966950417E0,6.760950089E0,9.818439667E0
1.185779337E0,4.948050022E0,4.813950062E0,6.109050274E0,9.218340928E0
1.187742698E0,4.795050144E0,4.660050392E0,5.457000256E0,8.630609905E0
1.189706029E0,4.872000217E0,4.392000198E0,5.188950062E0,8.363686663E0
1.191669607E0,5.025000095E0,3.856050253E0,4.843950272E0,7.973932765E0
1.193633110E0,5.293050289E0,3.319050074E0,4.806000233E0,7.882265727E0
1.195596700E0,5.560950279E0,2.743950129E0,4.690950394E0,7.775502936E0
1.197560264E0,5.944950104E0,2.016000032E0,4.384050369E0,7.656799952E0
1.199523619E0,6.328050137E0,1.210950017E0,3.924000263E0,7.543765409E0
1.201487035E0,6.634950161E0,4.060500264E-1,3.655950069E0,7.586396455E0
1.203451440E0,6.865050316E0,-3.589500189E-1,3.618000269E0,7.768377366E0
1.205415562E0,7.095000267E0,-1.203000069E0,3.694050074E0,8.089019959E0
1.207379182E0,7.095000267E0,-1.854000092E0,3.924000263E0,8.317098244E0
1.209342949E0,6.826050282E0,-2.506050110E0,4.078050137E0,8.337010406E0
1.211306313E0,6.595950127E0,-3.118950129E0,4.078050137E0,8.358522650E0
1.213269795E0,6.289950371E0,-3.694050074E0,4.153950214E0,8.394330467E0
1.215233667E0,5.868000507E0,-4.192049980E0,4.039050102E0,8.265629965E0
1.217197418E0,5.523000240E0,-4.729050159E0,3.808950186E0,8.208260996E0
1.219160741E0,5.215950012E0,-5.112000465E0,3.541050196E0,8.116509088E0
1.221124189E0,5.025000095E0,-5.533950329E0,3.118950129E0,8.099572958E0
1.223087922E0,4.680000305E0,-5.955000401E0,2.620950222E0,8.014599971E0
1.225051571E0,4.450050354E0,-6.262050152E0,2.085000038E0,7.960115917E0
1.227015247E0,4.219950199E0,-6.568950176E0,1.585950017E0,7.967077479E0
1.228978932E0,3.874950171E0,-6.913050175E0,1.318050027E0,8.033850722E0
1.230942266E0,3.568050146E0,-7.143000126E0,9.730500579E-1,8.043647124E0
1.232905703E0,3.300000191E0,-7.450050354E0,6.280500293E-1,8.172374097E0
1.234869124E0,2.917050123E0,-7.603050232E0,3.979500234E-1,8.153153897E0
1.236832549E0,2.572050095E0,-7.795050144E0,3.600000143E-1,8.216315990E0
1.238796777E0,2.227050066E0,-7.948050499E0,2.070000172E-1,8.256761335E0
1.240760773E0,1.882050037E0,-8.140049934E0,9.195000678E-2,8.355296529E0
1.242723739E0,1.614000082E0,-8.254950523E0,-2.205000073E-2,8.411283529E0
1.244687006E0,1.422000051E0,-8.293050766E0,-1.369500011E-1,8.415196400E0
1.246650545E0,1.306950092E0,-8.332050323E0,-9.900000691E-2,8.434511375E0
1.248614004E0,1.077000022E0,-8.178000450E0,-2.205000073E-2,8.248642713E0
1.250576496E0,7.320000529E-1,-8.101950645E0,5.295000225E-2,8.135123357E0
1.252539257E0,4.260000288E-1,-7.872000217E0,9.195000678E-2,7.884054683E0
1.254502928E0,1.570500135E-1,-7.680000305E0,2.070000172E-1,7.684394472E0
1.256466332E0,4.050000105E-3,-7.488000393E0,2.830500007E-1,7.493349291E0
1.258429399E0,-1.099500060E-1,-7.143000126E0,2.449500114E-1,7.148044510E0
1.260392565E0,-2.629500031E-1,-6.645000458E0,2.830500007E-1,6.656221983E0
1.262355256E0,-4.549500346E-1,-5.917050362E0,3.600000143E-1,5.945423831E0
1.264318093E0,-4.930500090E-1,-5.035050392E0,5.130000114E-1,5.085076182E0
1.266281931E0,-5.700000525E-1,-4.153950214E0,7.810500264E-1,4.265001945E0
1.268245476E0,-3.780000210E-1,-3.349050045E0,8.959500194E-1,3.487369590E0
1.270208834E0,-1.480500102E-1,-2.697000027E0,1.011000037E0,2.884068138E0
1.272172247E0,1.570500135E-1,-2.122950077E0,1.011000037E0,2.356629545E0
1.274136837E0,5.020500422E-1,-1.663050056E0,9.730500579E-1,1.991134387E0
1.276101086E0,9.619500637E-1,-1.356000066E0,8.580000401E-1,1.870895019E0
1.278064368E0,1.306950092E0,-1.126049995E0,8.580000401E-1,1.926725514E0
1.280027934E0,1.575000048E0,-8.580000401E-1,7.810500264E-1,1.956228096E0
1.281991423E0,1.920000076E0,-5.890500546E-1,7.050000429E-1,2.128474881E0
1.283954934E0,2.227050066E0,-3.210000098E-1,7.050000429E-1,2.357926645E0
1.285918167E0,2.494950056E0,-1.680000126E-1,6.280500293E-1,2.578264266E0
1.287881478E0,2.725050211E0,-1.500000060E-2,5.509500504E-1,2.780228338E0
1.289843973E0,2.839950085E0,2.530499995E-1,5.509500504E-1,2.903945031E0
1.291806708E0,3.070050240E0,4.830000103E-1,5.130000114E-1,3.149867695E0
1.293770158E0,3.223050117E0,7.890000343E-1,4.750500321E-1,3.352050961E0
1.295733399E0,3.376950264E0,9.430500269E-1,3.979500234E-1,3.528668398E0
1.297696638E0,3.529950142E0,1.057950020E0,3.600000143E-1,3.702621539E0
1.299659871E0,3.721950293E0,1.249050021E0,3.979500234E-1,3.946061854E0
1.301623281E0,3.874950171E0,1.518000126E0,3.979500234E-1,4.180661123E0
1.303586639E0,4.066950321E0,1.786050081E0,4.360500276E-1,4.463205063E0
1.305550073E0,4.219950199E0,1.978050113E0,3.220500052E-1,4.671656894E0
1.307513485E0,4.603050232E0,2.092950106E0,3.220500052E-1,5.066776864E0
1.309477877E0,4.717950344E0,2.284050226E0,2.449500114E-1,5.247469999E0
1.311441999E0,5.140050411E0,2.476050138E0,1.500000060E-2,5.705363049E0
1.313405484E0,5.446050167E0,2.667000055E0,-5.590500236E-1,6.089736336E0
1.315369155E0,5.905950069E0,2.859000206E0,-1.326000094E0,6.694206798E0
1.317332806E0,6.213000298E0,3.051000118E0,-2.475000143E0,7.350891111E0
1.319296463E0,6.558000088E0,3.319050074E0,-3.586950064E0,8.178610475E0
1.321259793E0,6.940950394E0,3.586950064E0,-4.392000198E0,8.962849372E0
1.323223224E0,7.324050426E0,4.085999966E0,-4.315050125E0,9.431689560E0
1.325186285E0,7.438950539E0,4.545000076E0,-3.012000084E0,9.223185747E0
1.327149455E0,7.438950539E0,5.197050095E0,-1.759500057E-1,9.076247749E0
1.329112290E0,7.171050549E0,5.887050152E0,3.771000147E0,1.001507701E1
1.331075224E0,6.979950428E0,6.577050209E0,7.948950291E0,1.245644846E1
1.333038500E0,6.520050526E0,7.381950378E0,1.128300095E1,1.497699438E1
1.335001711E0,6.175050259E0,8.340000153E0,1.358295059E1,1.709337284E1
1.336965261E0,5.715000153E0,9.528000832E0,1.480905056E1,1.851356273E1
1.338928712E0,5.293050289E0,1.083105087E1,1.465605068E1,1.897703523E1
1.340892445E0,5.407950401E0,1.236405087E1,1.335300064E1,1.898468613E1
1.342856096E0,5.830050468E0,1.385895061E1,1.174305058E1,1.907771573E1
1.344819412E0,6.673050404E0,1.489395046E1,9.328050613E0,1.879818848E1
1.346782843E0,7.708050251E0,1.577505112E1,6.952050209E0,1.888378348E1
1.348746085E0,8.589000702E0,1.654200172E1,4.423050404E0,1.915651662E1
1.350709382E0,8.896050453E0,1.803705025E1,8.200500607E-1,2.012827309E1
1.352673502E0,7.822950363E0,2.029800034E1,-3.549000263E0,2.204093403E1
1.354637380E0,5.523000240E0,2.286600113E1,-8.646000862E0,2.506214018E1
1.356599939E0,2.380050182E0,2.551095200E1,-1.290105057E1,2.868641519E1
1.358562867E0,-1.222050071E0,2.865405083E1,-1.566000080E1,3.267695916E1
1.360526690E0,-5.053950310E0,3.294600296E1,-1.657995033E1,3.722735926E1
1.362490250E0,-8.158950806E0,3.789105225E1,-1.554495049E1,4.176057715E1
1.364453426E0,-1.042005062E1,4.344795227E1,-1.324500084E1,4.660184609E1
1.366416714E0,-1.287300014E1,4.946505356E1,-1.067805004E1,5.221615084E1
1.368380349E0,-1.501995087E1,5.525295258E1,-8.722949982E0,5.791871501E1
1.370343875E0,-1.632299995E1,6.031200409E1,-7.113000393E0,6.288539528E1
1.372306876E0,-1.797105026E1,6.472005463E1,-7.573050499E0,6.759434305E1
1.374270031E0,-1.904400063E1,6.747900391E1,-9.565950394E0,7.076437900E1
1.376233229E0,-1.892895126E1,6.805395508E1,-1.090695095E1,7.147452397E1
1.378196414E0,-1.766400146E1,6.686595154E1,-1.125195026E1,7.006910023E1
1.380159485E0,-1.536405087E1,6.360795212E1,-1.044795036E1,6.626601918E1
1.382122613E0,-1.233705044E1,5.835705185E1,-8.953050613E0,6.031505143E1
1.384085815E0,-9.844950676E0,5.264700317E1,-8.110050201E0,5.417012933E1
1.386048995E0,-8.427000046E0,4.735695267E1,-7.420050144E0,4.866983090E1
1.388012415E0,-7.776000500E0,4.272000122E1,-6.768000126E0,4.394622298E1
1.389975765E0,-7.354050159E0,3.873405075E1,-6.154950142E0,3.990353559E1
1.391938957E0,-6.931950092E0,3.536100006E1,-5.656950474E0,3.647538000E1
1.393902209E0,-6.357000351E0,3.241005325E1,-5.388000488E0,3.346421304E1
1.395865436E0,-5.668050289E0,2.988000107E1,-5.388000488E0,3.088643403E1
1.397828671E0,-4.863000393E0,2.769495201E1,-5.542050362E0,2.865961378E1
1.399792125E0,-3.943050146E0,2.570205116E1,-5.772000313E0,2.663567281E1
1.401755515E0,-2.830950022E0,2.386305046E1,-6.154950142E0,2.480610543E1
1.403718850E0,-1.758000135E0,2.209995079E1,-6.615000248E0,2.313561362E1
1.405682204E0,-4.930500090E-1,2.049000168E1,-6.960000515E0,2.164543541E1
1.407646133E0,9.619500637E-1,1.884195137E1,-7.495950222E0,2.030107754E1
1.409609894E0,2.227050066E0,1.734705162E1,-8.416049957E0,1.940901463E1
1.411572720E0,3.415050268E0,1.608195114E1,-9.259050369E0,1.886853822E1
1.413535820E0,4.411950111E0,1.493205070E1,-9.988050461E0,1.849844842E1
1.415499096E0,5.178000450E0,1.401195049E1,-1.075395012E1,1.840635457E1
1.417462303E0,5.752950191E0,1.324605083E1,-1.129095078E1,1.833139024E1
1.419425718E0,5.944950104E0,1.270905018E1,-1.182705021E1,1.835051784E1
1.421389072E0,6.021000385E0,1.228800011E1,-1.190400028E1,1.813705089E1
1.423352597E0,5.983050346E0,1.217295074E1,-1.159695053E1,1.784564045E1
1.425316072E0,5.791050434E0,1.213395023E1,-1.132905006E1,1.758170608E1
1.427279087E0,5.715000153E0,1.213395023E1,-1.109895039E1,1.740921235E1
1.429242233E0,5.485050201E0,1.201905060E1,-1.075395012E1,1.703498741E1
1.431205523E0,5.485050201E0,1.198095036E1,-1.025595093E1,1.669770872E1
1.433168770E0,5.254950047E0,1.190400028E1,-9.718950272E0,1.624123509E1
1.435131954E0,5.178000450E0,1.167405033E1,-8.991000175E0,1.561836176E1
1.437095156E0,5.178000450E0,1.136805058E1,-7.995000362E0,1.483119325E1
1.439058446E0,4.948050022E0,1.090800095E1,-6.883050442E0,1.381463235E1
1.441021703E0,4.872000217E0,1.041000080E1,-6.040050507E0,1.298409461E1
1.442984930E0,4.680000305E0,9.910950661E0,-5.272950172E0,1.216278543E1
1.444948166E0,4.488000393E0,9.412950516E0,-4.621950150E0,1.140649850E1
1.446911530E0,4.527000427E0,8.914950371E0,-3.970050097E0,1.075785159E1
1.448874857E0,4.411950111E0,8.493000031E0,-3.394950151E0,1.015490226E1
1.450838102E0,4.372950077E0,8.071949959E0,-3.012000084E0,9.661843148E0
1.452801382E0,4.372950077E0,7.612050533E0,-2.667000055E0,9.174905721E0
1.454764559E0,4.372950077E0,7.152000427E0,-2.359950066E0,8.708798241E0
1.456727767E0,4.335000038E0,6.615000248E0,-1.977000117E0,8.152237918E0
1.458690821E0,4.105050087E0,6.232050419E0,-1.402050018E0,7.593130639E0
1.460653921E0,3.952050209E0,5.695050240E0,-1.287000060E0,7.050437379E0
1.462617367E0,3.607050180E0,5.082000256E0,-1.441050053E0,6.396417971E0
1.464580702E0,3.492000103E0,4.507050037E0,-1.708950043E0,5.952148772E0
1.466543961E0,3.568050146E0,3.817050219E0,-2.014950037E0,5.600078381E0
1.468507242E0,3.376950264E0,3.127050161E0,-2.092050076E0,5.055581996E0
1.470470599E0,2.992950201E0,2.551950216E0,-1.747050047E0,4.303764013E0
1.472433933E0,2.686950207E0,1.978050113E0,-1.171950102E0,3.536361224E0
1.474397386E0,2.494950056E0,1.363950014E0,-5.590500236E-1,2.897873764E0
1.476360794E0,2.188950062E0,9.430500269E-1,-2.205000073E-2,2.383554474E0
1.478324176E0,1.996950150E0,2.140500098E-1,3.979500234E-1,2.047435354E0
1.480287565E0,1.843950033E0,-2.830500007E-1,8.959500194E-1,2.069539916E0
1.482251128E0,1.575000048E0,-7.810500264E-1,1.356000066E0,2.220225320E0
1.484214640E0,1.345050097E0,-1.203000069E0,1.548000097E0,2.377535116E0
1.486178014E0,1.192050099E0,-1.663050056E0,2.046000004E0,2.893585136E0
1.488141421E0,9.619500637E-1,-2.083950043E0,2.698050022E0,3.542268994E0
1.490104936E0,9.240000248E-1,-2.467050076E0,3.234000206E0,4.171195207E0
1.492068419E0,7.699500322E-1,-2.812050104E0,3.733050108E0,4.736677311E0
1.494030751E0,5.790000558E-1,-3.157050133E0,4.000950336E0,5.129308940E0
1.495993421E0,3.870000243E-1,-3.349050045E0,4.153950214E0,5.349879214E0
1.497957135E0,1.570500135E-1,-3.541050196E0,4.116000175E0,5.431865116E0
1.499920524E0,4.200000316E-2,-3.771000147E0,4.078050137E0,5.554520594E0
1.501883729E0,-1.870500147E-1,-3.961950302E0,3.963000298E0,5.606907281E0
1.503846988E0,-3.780000210E-1,-4.116000175E0,3.847950220E0,5.647217222E0
1.505810393E0,-4.549500346E-1,-4.269000053E0,3.579000235E0,5.589327658E0
1.507773755E0,-7.230000496E-1,-4.498950005E0,3.273000240E0,5.610330720E0
1.509737071E0,-7.620000243E-1,-4.804950237E0,2.965950251E0,5.697811133E0
1.511700421E0,-7.620000243E-1,-5.112000465E0,2.812950134E0,5.884376029E0
1.513663677E0,-9.150000215E-1,-5.419050217E0,2.620950222E0,6.088736351E0
1.515626960E0,-9.150000215E-1,-5.686950207E0,2.506050110E0,6.281633135E0
1.517590361E0,-9.150000215E-1,-6.070050240E0,2.314950228E0,6.560619598E0
1.519553727E0,-8.380500674E-1,-6.454050541E0,2.200050116E0,6.870030336E0
1.521517269E0,-7.620000243E-1,-6.837000370E0,2.008050203E0,7.166413588E0
1.523480746E0,-6.850500107E-1,-7.105050564E0,1.893000126E0,7.384746882E0
1.525443980E0,-5.700000525E-1,-7.372950554E0,1.855050087E0,7.624074420E0
1.527407286E0,-6.850500107E-1,-7.603050232E0,1.930950046E0,7.874276756E0
1.529370504E0,-6.850500107E-1,-7.717950344E0,2.008050203E0,8.004268652E0
1.531333748E0,-7.620000243E-1,-7.833000183E0,2.200050116E0,8.171704621E0
1.533297305E0,-7.620000243E-1,-7.909950256E0,2.275950193E0,8.266069585E0
1.535260760E0,-7.620000243E-1,-7.872000217E0,2.353049994E0,8.251416589E0
1.537223954E0,-6.850500107E-1,-7.717950344E0,2.430000067E0,8.120403399E0
1.539187224E0,-6.469500065E-1,-7.488000393E0,2.430000067E0,7.898961610E0
1.541150493E0,-3.019500077E-1,-7.411950588E0,2.467950106E0,7.817861795E0
1.543113762E0,1.189500093E-1,-7.258050442E0,2.467950106E0,7.667086999E0
1.545078206E0,5.410500169E-1,-6.990000248E0,2.506050110E0,7.445342554E0
1.547042303E0,6.940500140E-1,-6.760050297E0,2.506050110E0,7.242946403E0
1.549005432E0,7.699500322E-1,-6.339000225E0,2.506050110E0,6.859740087E0
1.550968844E0,8.089500666E-1,-5.917050362E0,2.583000183E0,6.506748431E0
1.552932358E0,8.470500112E-1,-5.533950329E0,2.659050226E0,6.197793807E0
1.554895842E0,8.850000501E-1,-5.112000465E0,2.620950222E0,5.812499799E0
1.556859070E0,1.000050068E0,-4.804950237E0,2.467950106E0,5.493489296E0
1.558822377E0,9.619500637E-1,-4.384050369E0,2.353049994E0,5.067749978E0
1.560785595E0,9.240000248E-1,-4.000950336E0,2.200050116E0,4.658497628E0
1.562748839E0,8.850000501E-1,-3.579000235E0,1.855050087E0,4.127187734E0
1.564712382E0,8.470500112E-1,-3.234000206E0,1.663050056E0,3.733896964E0
1.566675837E0,8.089500666E-1,-2.889000177E0,1.510050058E0,3.358716037E0
1.568639109E0,7.320000529E-1,-2.506050110E0,1.471050024E0,2.996681398E0
1.570602411E0,8.089500666E-1,-2.199000120E0,1.165050030E0,2.616742882E0
1.572565809E0,8.089500666E-1,-1.816050053E0,8.959500194E-1,2.180633954E0
1.574529179E0,7.320000529E-1,-1.548000097E0,5.509500504E-1,1.798798026E0
1.576492387E0,6.169500351E-1,-1.279050112E0,2.070000172E-1,1.435076842E0
1.578455642E0,5.020500422E-1,-8.959500194E-1,-1.759500057E-1,1.041988045E0
1.580418721E0,5.410500169E-1,-7.429500222E-1,-6.360000372E-1,1.117678802E0
1.582381829E0,5.410500169E-1,-5.130000114E-1,-9.810000658E-1,1.232179070E0
1.584345395E0,5.020500422E-1,-3.979500234E-1,-1.363950014E0,1.506910119E0
1.586308827E0,5.020500422E-1,-2.440500110E-1,-1.632000089E0,1.724830120E0
1.588272609E0,4.260000288E-1,-1.290000081E-1,-1.900950074E0,1.952364774E0
1.590236289E0,4.639500082E-1,-9.105000645E-2,-2.092050076E0,2.144810768E0
1.592198736E0,5.020500422E-1,6.105000153E-2,-2.169000149E0,2.227182748E0
1.594161535E0,5.410500169E-1,2.140500098E-1,-2.322000027E0,2.393791271E0
1.596126236E0,6.550500393E-1,3.679500222E-1,-2.398950100E0,2.513849509E0
1.598090380E0,7.320000529E-1,5.590500236E-1,-2.437050104E0,2.605297337E0
1.600053274E0,7.699500322E-1,7.129500508E-1,-2.514000177E0,2.724209559E0
1.602016535E0,8.470500112E-1,8.280000687E-1,-2.475000143E0,2.743848309E0
1.603979801E0,9.240000248E-1,1.057950020E0,-2.322000027E0,2.713801469E0
1.605943068E0,9.240000248E-1,1.249050021E0,-2.169000149E0,2.668044911E0
1.607906293E0,9.240000248E-1,1.402950048E0,-1.861950040E0,2.507768497E0
1.609869531E0,9.240000248E-1,1.633050084E0,-1.555950046E0,2.437541624E0
1.611832761E0,9.619500637E-1,1.863000035E0,-1.171950102E0,2.401995857E0
1.613795993E0,8.089500666E-1,2.169000149E0,-7.890000343E-1,2.445707037E0
1.615758302E0,6.169500351E-1,2.437050104E0,-5.590500236E-1,2.575340266E0
1.617720896E0,5.020500422E-1,2.706000090E0,-3.289500177E-1,2.771768180E0
1.619684010E0,3.490500152E-1,2.935950041E0,-1.759500057E-1,2.961857012E0
1.621646971E0,1.960500032E-1,3.166050196E0,-1.759500057E-1,3.176990376E0
1.623610113E0,1.189500093E-1,3.357000113E0,-2.520000041E-1,3.368546105E0
1.625573202E0,4.050000105E-3,3.549000263E0,-4.819500148E-1,3.581577179E0
1.627536443E0,-1.099500060E-1,3.664050102E0,-5.970000029E-1,3.713995309E0
1.629499649E0,-1.870500147E-1,3.741000175E0,-7.120500207E-1,3.812752976E0
1.631463020E0,-2.250000089E-1,3.817050219E0,-8.269500136E-1,3.912076648E0
1.633426342E0,-2.629500031E-1,3.856050253E0,-8.269500136E-1,3.952481826E0
1.635389603E0,-3.400500119E-1,4.009050369E0,-6.360000372E-1,4.073403359E0
1.637352882E0,-3.400500119E-1,4.162050247E0,-1.759500057E-1,4.179623748E0
1.639315588E0,-4.170000255E-1,4.354050159E0,5.509500504E-1,4.408535785E0
1.641278445E0,-4.549500346E-1,4.545000076E0,1.701000094E0,4.874157009E0
1.643241919E0,-4.930500090E-1,4.774950027E0,3.388050079E0,5.875553541E0
1.645205212E0,-6.079500318E-1,5.119950294E0,5.686950207E0,7.676255397E0
1.647168567E0,-6.850500107E-1,5.503950119E0,8.715000153E0,1.033024627E1
1.649131904E0,-6.079500318E-1,5.964000225E0,1.231800079E1,1.369934471E1
1.651095273E0,-4.930500090E-1,6.424050331E0,1.592100048E1,1.717526644E1
1.653058649E0,-3.400500119E-1,6.960000515E0,1.887195015E1,2.011734932E1
1.655021901E0,-1.099500060E-1,7.650000572E0,2.067300034E1,2.204331056E1
1.656985190E0,1.570500135E-1,8.340000153E0,2.101800156E1,2.261275429E1
1.658949085E0,7.320000529E-1,9.067950249E0,1.990695000E1,2.188721554E1
1.660912803E0,1.269000053E0,9.949950218E0,1.726200104E1,1.996468257E1
1.662876113E0,1.996950150E0,1.094595051E1,1.346805096E1,1.746968915E1
1.664839556E0,2.917050123E0,1.236405087E1,8.830050468E0,1.547089934E1
1.666803830E0,3.798000097E0,1.412700081E1,3.771000147E0,1.510686595E1
1.668767861E0,4.564949989E0,1.600500107E1,-1.326000094E0,1.669602060E1
1.670731001E0,5.025000095E0,1.788300133E1,-6.117000103E0,1.955684158E1
1.672694402E0,5.178000450E0,1.980000114E1,-9.910950661E0,2.273936404E1
1.674657603E0,4.948050022E0,2.240595055E1,-1.221105099E1,2.599268330E1
1.676620863E0,4.182000160E0,2.581695175E1,-1.286205101E1,2.914509357E1
1.678584223E0,3.262050152E0,2.903700066E1,-1.209600067E1,3.162438316E1
1.680547554E0,1.882050037E0,3.241005325E1,-1.010295010E1,3.400034213E1
1.682510047E0,4.260000288E-1,3.597405243E1,-7.189950466E0,3.668799956E1
1.684472786E0,-5.320500135E-1,3.965400314E1,-3.970050097E0,3.985579431E1
1.686435394E0,-9.919500351E-1,4.298805237E1,-1.096050024E0,4.301346228E1
1.688398031E0,-6.850500107E-1,4.528800201E1,7.050000429E-1,4.529866935E1
1.690362309E0,1.570500135E-1,4.609305191E1,1.318050027E0,4.611216060E1
1.692326106E0,1.767000079E0,4.544100189E1,1.585950017E0,4.550299089E1
1.694289556E0,3.337950230E0,4.421505356E1,1.969950080E0,4.438460968E1
1.696253108E0,4.795050144E0,4.252800369E1,1.318050027E0,4.281776337E1
1.698217227E0,5.752950191E0,4.076505280E1,-5.209500194E-1,4.117228867E1
1.700181149E0,5.830050468E0,3.930900192E1,-2.704950094E0,3.983094118E1
1.702144308E0,5.025000095E0,3.800505066E1,-4.852050304E0,3.864164714E1
1.704107690E0,3.568050146E0,3.666405106E1,-7.036050320E0,3.750319487E1
1.706069813E0,1.306950092E0,3.513105011E1,-8.455050468E0,3.615780246E1
1.708032305E0,-1.413000107E0,3.340605164E1,-8.838000298E0,3.458426094E1
1.709995632E0,-3.943050146E0,3.179595184E1,-9.067950249E0,3.329801675E1
1.711958703E0,-6.013050079E0,3.010995102E1,-9.028950691E0,3.200449769E1
1.713921961E0,-7.584000587E0,2.842395210E1,-8.761050224E0,3.069518071E1
1.715885164E0,-8.734050751E0,2.677500153E1,-8.914050102E0,2.954055921E1
1.717848580E0,-9.462000847E0,2.528100204E1,-8.875950813E0,2.841550681E1
1.719811933E0,-9.883950233E0,2.397795105E1,-8.722949982E0,2.736282999E1
1.721775193E0,-9.999000549E0,2.290395164E1,-8.185950279E0,2.629792378E1
1.723738478E0,-9.844950676E0,2.190795135E1,-7.266000271E0,2.509334865E1
1.725701699E0,-9.424050331E0,2.110305023E1,-6.307950497E0,2.395708023E1
1.727664939E0,-8.925000191E0,2.037495041E1,-5.580000401E0,2.293317765E1
1.729628123E0,-8.427000046E0,1.976205063E1,-5.350050449E0,2.213991903E1
1.731591324E0,-8.082000732E0,1.914795113E1,-5.772000313E0,2.157032118E1
1.733554421E0,-7.891050339E0,1.872705078E1,-6.576000214E0,2.135918737E1
1.735517551E0,-7.776000500E0,1.830495071E1,-7.381050587E0,2.121361148E1
1.737480798E0,-7.621950150E0,1.780695152E1,-8.263050079E0,2.105848150E1
1.739444010E0,-7.546050549E0,1.734705162E1,-9.144000053E0,2.101132589E1
1.741407200E0,-7.468950272E0,1.700205040E1,-9.528000832E0,2.087193656E1
1.743370397E0,-7.431000233E0,1.669500160E1,-9.489000320E0,2.059087104E1
1.745333677E0,-7.162050247E0,1.642695045E1,-9.144000053E0,2.011845923E1
1.747296933E0,-7.009050369E0,1.623495102E1,-8.646000862E0,1.968384496E1
1.749260295E0,-6.625950336E0,1.592895031E1,-8.148000717E0,1.907942849E1
1.751223626E0,-6.396000385E0,1.550700092E1,-7.381050587E0,1.832636915E1
1.753187020E0,-6.204000473E0,1.523895073E1,-6.921000481E0,1.784980361E1
1.755150395E0,-5.782950401E0,1.493205070E1,-6.615000248E0,1.732532487E1
1.757113809E0,-5.361000061E0,1.462605095E1,-5.772000313E0,1.661257583E1
1.759077192E0,-5.131050110E0,1.462605095E1,-4.774950027E0,1.621879124E1
1.761040263E0,-4.824000359E0,1.466400051E1,-3.549000263E0,1.583980092E1
1.763003425E0,-4.747950077E0,1.454895115E1,-2.014950037E0,1.543615992E1
1.764966126E0,-4.863000393E0,1.454895115E1,-5.209500194E-1,1.534901108E1
1.766928963E0,-5.053950310E0,1.470195103E1,4.750500321E-1,1.555363142E1
1.768892441E0,-5.361000061E0,1.485600090E1,1.203000069E0,1.583945370E1
1.770855731E0,-5.706000328E0,1.474095058E1,1.701000094E0,1.589803338E1
1.772818907E0,-6.127950191E0,1.466400051E1,2.200050116E0,1.604446649E1
1.774782117E0,-6.472050190E0,1.462605095E1,2.506050110E0,1.618916573E1
1.776745036E0,-6.856050491E0,1.462605095E1,2.506050110E0,1.634647001E1
1.778708040E0,-7.047000408E0,1.470195103E1,2.314950228E0,1.646713616E1
1.780671485E0,-7.009050369E0,1.462605095E1,2.122950077E0,1.635711070E1
1.782634804E0,-6.817050457E0,1.466400051E1,2.008050203E0,1.629531692E1
1.784598155E0,-6.664050102E0,1.489395046E1,2.008050203E0,1.643993886E1
1.786561496E0,-6.241950512E0,1.497105026E1,2.046000004E0,1.634871274E1
1.788524709E0,-5.668050289E0,1.500900078E1,1.930950046E0,1.615937705E1
1.790487960E0,-5.053950310E0,1.500900078E1,1.663050056E0,1.592414059E1
1.792451206E0,-4.479000092E0,1.508595085E1,1.395000100E0,1.579852462E1
1.794414440E0,-3.712950230E0,1.512405109E1,1.087950110E0,1.561110362E1
1.796377310E0,-3.100050211E0,1.516200066E1,7.429500222E-1,1.549350025E1
1.798340286E0,-2.371050119E0,1.512405109E1,5.509500504E-1,1.531869270E1
1.800304506E0,-1.795950055E0,1.520100117E1,3.979500234E-1,1.531189855E1
1.802268361E0,-1.297950029E0,1.527705097E1,2.449500114E-1,1.533404582E1
1.804231474E0,-7.999500632E-1,1.516200066E1,1.500000060E-2,1.518309616E1
1.806194781E0,-3.780000210E-1,1.485600090E1,-2.205000073E-2,1.486082545E1
1.808158178E0,-1.480500102E-1,1.466400051E1,-1.369500011E-1,1.466538732E1
1.810121548E0,-3.299999982E-2,1.435695076E1,1.500000060E-2,1.435699652E1
1.812083900E0,-1.099500060E-1,1.408905029E1,2.830500007E-1,1.409232218E1
1.814046550E0,-2.250000089E-1,1.382100105E1,8.580000401E-1,1.384943534E1
1.816009899E0,-5.320500135E-1,1.366695023E1,1.855050087E0,1.380252935E1
1.817973029E0,-7.999500632E-1,1.336095047E1,2.928000212E0,1.370139054E1
1.819935918E0,-9.919500351E-1,1.297800064E1,3.808950186E0,1.356173171E1
1.821898877E0,-7.999500632E-1,1.251795101E1,4.653000355E0,1.337869313E1
1.823862108E0,-4.549500346E-1,1.198095036E1,4.996950150E0,1.298921328E1
1.825825259E0,4.200000316E-2,1.132905006E1,5.035950184E0,1.239798103E1
1.827789400E0,7.699500322E-1,1.063995075E1,5.266050339E0,1.189675003E1
1.829753254E0,1.422000051E0,9.988050461E0,5.112000465E0,1.130998607E1
1.831716019E0,1.996950150E0,9.336000443E0,4.921050072E0,1.074083088E1
1.833679103E0,2.533950090E0,8.914950371E0,4.996950150E0,1.052932828E1
1.835642043E0,3.184950113E0,8.569950104E0,5.266050339E0,1.055079325E1
1.837605026E0,3.721950293E0,8.302050591E0,5.764050484E0,1.077038699E1
1.839568082E0,4.297049999E0,7.995000362E0,6.607050419E0,1.122665510E1
1.841531110E0,4.833000183E0,7.687950134E0,7.374000549E0,1.169779262E1
1.843494240E0,5.293050289E0,7.381950378E0,8.254950523E0,1.227411019E1
1.845457340E0,5.715000153E0,7.036950111E0,8.562000275E0,1.246947242E1
1.847420414E0,6.060000420E0,6.807000160E0,8.599950790E0,1.253068274E1
1.849383496E0,6.442950249E0,6.462000370E0,8.485050201E0,1.246054307E1
1.851346887E0,6.711000443E0,5.925000191E0,7.834050179E0,1.189602860E1
1.853310187E0,7.056000233E0,5.389050484E0,6.721950531E0,1.113614041E1
1.855273586E0,7.363050461E0,4.813950062E0,5.419050217E0,1.033221818E1
1.857236956E0,7.746000290E0,4.162050247E0,4.498950005E0,9.877435593E0
1.859200029E0,8.014050484E0,3.511050224E0,3.618000269E0,9.467967299E0
1.861163189E0,8.128950119E0,3.088950157E0,3.157950163E0,9.251707537E0
1.863126566E0,8.282999992E0,2.476050138E0,2.928000212E0,9.127546133E0
1.865089879E0,8.091000557E0,2.016000032E0,3.004050255E0,8.863005364E0
1.867053276E0,7.861050606E0,1.555950046E0,3.196050167E0,8.627388588E0
1.869016648E0,7.708050251E0,8.659500480E-1,3.388050079E0,8.464206490E0
1.870980936E0,7.438950539E0,1.759500057E-1,3.579000235E0,8.257008308E0
1.872944956E0,7.171050549E0,-3.979500234E-1,3.771000147E0,8.111890797E0
1.874908078E0,6.865050316E0,-1.164000034E0,3.963000298E0,8.011815230E0
1.876871477E0,6.595950127E0,-1.777950048E0,4.308000088E0,8.076294274E0
1.878834814E0,6.250950336E0,-2.314050198E0,4.345950127E0,7.957166011E0
1.880798170E0,6.021000385E0,-2.889000177E0,4.039050102E0,7.804658442E0
1.882761603E0,5.752950191E0,-3.502050161E0,3.579000235E0,7.626928210E0
1.884725014E0,5.676000118E0,-4.192049980E0,2.736000061E0,7.568088049E0
1.886688341E0,5.523000240E0,-4.767000198E0,1.701000094E0,7.491410005E0
1.888651699E0,5.446050167E0,-5.419050217E0,7.810500264E-1,7.722409392E0
1.890615628E0,5.331000328E0,-5.955000401E0,-3.670500219E-1,8.001019934E0
1.892579389E0,5.254950047E0,-6.529950142E0,-1.287000060E0,8.480042335E0
1.894542170E0,5.062950134E0,-6.990000248E0,-2.130000114E0,8.889908212E0
1.896505238E0,4.833000183E0,-7.411950588E0,-2.782050133E0,9.275489488E0
1.898468136E0,4.450050354E0,-7.717950344E0,-3.165000200E0,9.454466243E0
1.900431084E0,4.066950321E0,-8.062950134E0,-3.357000113E0,9.634349980E0
1.902394227E0,3.568050146E0,-8.370000839E0,-3.433950186E0,9.725220294E0
1.904357312E0,3.184950113E0,-8.599950790E0,-3.165000200E0,9.701561065E0
1.906320703E0,2.649000168E0,-8.830050468E0,-2.514000177E0,9.555479583E0
1.908284005E0,2.149950027E0,-8.944950104E0,-2.053950071E0,9.426193737E0
1.910247039E0,1.614000082E0,-9.097949982E0,-1.363950014E0,9.340131143E0
1.912210156E0,1.230000019E0,-9.175050735E0,-6.360000372E-1,9.278952101E0
1.914172189E0,8.850000501E-1,-9.175050735E0,-6.105000153E-2,9.217836416E0
1.916134540E0,4.639500082E-1,-9.097949982E0,3.220500052E-1,9.115462670E0
1.918097019E0,1.189500093E-1,-9.021000862E0,7.429500222E-1,9.052324585E0
1.920059461E0,-1.870500147E-1,-8.868000031E0,9.730500579E-1,8.923185455E0
1.922022647E0,-4.930500090E-1,-8.715000153E0,1.203000069E0,8.811443420E0
1.923985615E0,-7.230000496E-1,-8.485050201E0,1.240950108E0,8.605740129E0
1.925948846E0,-7.620000243E-1,-8.254950523E0,1.279950023E0,8.388273019E0
1.927912000E0,-8.380500674E-1,-7.909950256E0,1.203000069E0,8.044678374E0
1.929875244E0,-7.230000496E-1,-7.642050266E0,1.203000069E0,7.769869401E0
1.931838461E0,-6.079500318E-1,-7.182000160E0,1.126049995E0,7.295116047E0
1.933801529E0,-3.780000210E-1,-6.684000492E0,1.050000072E0,6.776521729E0
1.935764631E0,-2.629500031E-1,-6.109050274E0,1.011000037E0,6.197722084E0
1.937727704E0,-1.480500102E-1,-5.494950294E0,9.730500579E-1,5.582403063E0
1.939690785E0,-3.299999982E-2,-4.843950272E0,8.959500194E-1,4.926222657E0
1.941654041E0,4.050000105E-3,-4.153950214E0,8.580000401E-1,4.241636813E0
1.943617245E0,4.050000105E-3,-3.502050161E0,7.050000429E-1,3.572309728E0
1.945580299E0,8.100000024E-2,-2.889000177E0,6.660000086E-1,2.965879134E0
1.947543430E0,1.570500135E-1,-2.351999998E0,6.280500293E-1,2.439470339E0
1.949506812E0,2.340000123E-1,-1.893000126E0,5.899500251E-1,1.996558668E0
1.951470121E0,3.870000243E-1,-1.509000063E0,5.899500251E-1,1.665800481E0
1.953434419E0,5.790000558E-1,-1.279050112E0,6.280500293E-1,1.538069274E0
1.955398428E0,9.240000248E-1,-1.011000037E0,5.509500504E-1,1.476293697E0
1.957361527E0,1.077000022E0,-7.810500264E-1,5.509500504E-1,1.439970190E0
1.959324892E0,1.306950092E0,-5.130000114E-1,4.750500321E-1,1.482214589E0
1.961288865E0,1.345050097E0,-3.210000098E-1,3.600000143E-1,1.428915945E0
1.963252659E0,1.537050128E0,-1.680000126E-1,2.830500007E-1,1.571898344E0
1.965214488E0,1.804950118E0,-1.290000081E-1,2.449500114E-1,1.826057622E0
1.967176892E0,2.035050154E0,-1.500000060E-2,3.220500052E-1,2.060429648E0
1.969140816E0,2.111999989E0,9.900000691E-2,2.070000172E-1,2.124427914E0
1.971104318E0,2.227050066E0,3.679500222E-1,2.070000172E-1,2.266713088E0
1.973067503E0,2.304000139E0,4.830000103E-1,1.680000126E-1,2.360069841E0
1.975030781E0,2.341950178E0,6.739500165E-1,1.300500035E-1,2.440461486E0
1.976993959E0,2.419050217E0,9.040500522E-1,9.195000678E-2,2.584098537E0
1.978957166E0,2.419050217E0,1.096050024E0,-2.205000073E-2,2.655864418E0
1.980920435E0,2.419050217E0,1.249050021E0,-2.205000073E-2,2.722575271E0
1.982883692E0,2.457000017E0,1.402950048E0,-9.900000691E-2,2.831063214E0
1.984846920E0,2.533950090E0,1.594050050E0,-2.140500098E-1,3.001285729E0
1.986810156E0,2.610000134E0,1.747950077E0,-6.739500165E-1,3.212730738E0
1.988773520E0,2.955000162E0,2.053950071E0,-1.671000123E0,3.967742212E0
1.990736846E0,3.300000191E0,2.245950222E0,-2.590050220E0,4.758429762E0
1.992700024E0,3.529950142E0,2.551950216E0,-3.510000229E0,5.594023554E0
1.994663272E0,3.760050297E0,2.821050167E0,-4.276950359E0,6.355203117E0
1.996626139E0,4.372950077E0,3.127050161E0,-4.736999989E0,7.165214859E0
1.998589118E0,4.909950256E0,3.511050224E0,-4.084949970E0,7.288477307E0
2.000551491E0,5.254950047E0,4.047000408E0,-2.053950071E0,6.943444620E0
2.002514041E0,5.293050289E0,4.699050426E0,1.432950020E0,7.221551221E0
2.004477207E0,5.101050377E0,5.503950119E0,5.572050095E0,9.346760087E0
2.006440193E0,4.795050144E0,6.462000370E0,9.405000687E0,1.237756004E1
2.008403151E0,4.372950077E0,7.726950169E0,1.239495087E1,1.524674583E1
2.010366118E0,3.913050175E0,9.067950249E0,1.446405029E1,1.751423519E1
2.012329168E0,3.568050146E0,1.060095024E1,1.546095085E1,1.908277048E1
2.014292193E0,3.415050268E0,1.221105099E1,1.511595058E1,1.972978197E1
2.016255095E0,3.300000191E0,1.401195049E1,1.392795086E1,2.003029139E1
2.018218036E0,3.415050268E0,1.573695087E1,1.170495033E1,1.990778876E1
2.020180821E0,3.760050297E0,1.719405174E1,8.217000008E0,1.942401819E1
2.022143651E0,3.837000132E0,1.857299995E1,2.889000177E0,1.918398341E1
2.024107445E0,3.184950113E0,2.002995110E1,-3.894000292E0,2.065202378E1
2.026070957E0,1.767000079E0,2.140995026E1,-1.106100082E1,2.416307097E1
2.028032730E0,-3.780000210E-1,2.321100044E1,-1.711695099E1,2.884238958E1
2.029995022E0,-2.410050154E0,2.539605141E1,-2.083395004E1,3.293662465E1
2.031958187E0,-4.402950287E0,2.807895088E1,-2.217600060E1,3.604980522E1
2.033921097E0,-6.741000175E0,3.260100174E1,-2.171595192E1,3.974731394E1
2.035884203E0,-9.385050774E0,3.674100113E1,-2.075805092E1,4.323051029E1
2.037847251E0,-1.095705032E1,4.145505142E1,-1.972305107E1,4.719721373E1
2.039810037E0,-1.249005032E1,4.785600281E1,-1.757595062E1,5.248916461E1
2.041772887E0,-1.463595104E1,5.410305405E1,-1.535295105E1,5.811251695E1
2.043736137E0,-1.712805176E1,5.923905182E1,-1.462500095E1,6.337606859E1
2.045699270E0,-1.931205177E1,6.307200241E1,-1.516200066E1,6.768248736E1
2.047662203E0,-2.038500023E1,6.594600677E1,-1.539195061E1,7.072012576E1
2.049625195E0,-2.019405174E1,6.790095520E1,-1.539195061E1,7.249311406E1
2.051588269E0,-1.900605011E1,6.859095001E1,-1.481700039E1,7.270138833E1
2.053551331E0,-1.716600037E1,6.797805023E1,-1.405005074E1,7.150587953E1
2.055514545E0,-1.471305084E1,6.506505585E1,-1.297695065E1,6.795834464E1
2.057477715E0,-1.149300098E1,5.985195160E1,-1.175100040E1,6.206795624E1
2.059440642E0,-7.852050304E0,5.333700180E1,-1.067805004E1,5.495917765E1
2.061403640E0,-4.978050232E0,4.712700272E1,-9.949050903E0,4.842229841E1
2.063366836E0,-3.291000128E0,4.149300385E1,-9.681000710E0,4.273431671E1
2.065329994E0,-2.256000042E0,3.674100113E1,-9.528000832E0,3.802332837E1
2.067292923E0,-1.567050099E0,3.279300308E1,-9.220950127E0,3.410077152E1
2.069255919E0,-9.529500604E-1,2.941995049E1,-9.106050491E0,3.081171459E1
2.071219144E0,-3.780000210E-1,2.654595184E1,-8.838000298E0,2.798107740E1
2.073182302E0,8.100000024E-2,2.401605034E1,-8.722949982E0,2.555126399E1
2.075145897E0,5.790000558E-1,2.183100128E1,-8.761050224E0,2.353048786E1
2.077109370E0,1.077000022E0,1.991505051E1,-9.067950249E0,2.190883127E1
2.079072064E0,1.384050012E0,1.826700020E1,-9.604050636E0,2.068421329E1
2.081034987E0,1.843950033E0,1.681005096E1,-1.006395054E1,1.967894981E1
2.082997730E0,2.227050066E0,1.554600048E1,-1.056300068E1,1.892656509E1
2.084960526E0,2.917050123E0,1.431900024E1,-1.098405075E1,1.828092777E1
2.086923785E0,3.300000191E0,1.336095047E1,-1.136700058E1,1.784975352E1
2.088886908E0,3.376950264E0,1.263300037E1,-1.171200085E1,1.755469895E1
2.090850203E0,3.337950230E0,1.209600067E1,-1.221105099E1,1.750899512E1
2.092813447E0,3.376950264E0,1.171305084E1,-1.244100094E1,1.741774548E1
2.094776991E0,3.262050152E0,1.148295021E1,-1.267095089E1,1.740839203E1
2.096740447E0,3.108000040E0,1.136805058E1,-1.270905018E1,1.733240302E1
2.098703330E0,3.300000191E0,1.113795090E1,-1.267095089E1,1.719002466E1
2.100666377E0,3.223050117E0,1.102305031E1,-1.190400028E1,1.654088610E1
2.102629593E0,3.262050152E0,1.079295063E1,-1.106100082E1,1.579476159E1
2.104592759E0,3.337950230E0,1.048605061E1,-9.873000145E0,1.478429237E1
2.106555822E0,3.453000069E0,1.014105034E1,-8.569950104E0,1.371889778E1
2.108518915E0,3.453000069E0,9.873000145E0,-7.458000183E0,1.284605418E1
2.110481814E0,3.568050146E0,9.412950516E0,-6.385050297E0,1.192071670E1
2.112444766E0,3.798000097E0,8.877000809E0,-5.427000046E0,1.107602264E1
2.114407908E0,3.682950258E0,8.493000031E0,-4.813050270E0,1.043362952E1
2.116370995E0,3.568050146E0,7.995000362E0,-4.200000286E0,9.710356072E0
2.118334251E0,3.337950230E0,7.573050499E0,-3.778950214E0,9.097992653E0
2.120297457E0,3.262050152E0,6.960000515E0,-3.204000235E0,8.327556416E0
2.122260527E0,2.992950201E0,6.499950409E0,-2.590050220E0,7.610221177E0
2.124223627E0,2.686950207E0,6.040050507E0,-1.747050047E0,6.837696645E0
2.126186520E0,2.725050211E0,5.311950207E0,-8.269500136E-1,6.027151896E0
2.128149473E0,2.725050211E0,4.584000111E0,-9.900000691E-2,5.333737589E0
2.130112705E0,2.802000046E0,3.931950092E0,2.830500007E-1,4.836481478E0
2.132075855E0,2.649000168E0,3.357000113E0,2.449500114E-1,4.283299214E0
2.134038985E0,2.494950056E0,2.859000206E0,1.500000060E-2,3.794586006E0
2.136002107E0,2.227050066E0,2.322000027E0,-4.440000355E-1,3.247856547E0
2.137965311E0,1.996950150E0,1.900950074E0,-8.659500480E-1,2.889859957E0
2.139928490E0,1.575000048E0,1.594050050E0,-1.018950105E0,2.461682357E0
2.141891551E0,1.269000053E0,1.288050056E0,-9.810000658E-1,2.057132764E0
2.143854646E0,1.114950061E0,8.659500480E-1,-7.120500207E-1,1.581138310E0
2.145818094E0,1.306950092E0,4.830000103E-1,-5.590500236E-1,1.501314252E0
2.147781428E0,1.153950095E0,2.140500098E-1,-4.440000355E-1,1.254812440E0
2.149744282E0,7.699500322E-1,-1.500000060E-2,-3.289500177E-1,8.374103930E-1
2.151707276E0,5.410500169E-1,-2.059500068E-1,-1.759500057E-1,6.050693601E-1
2.153669466E0,5.020500422E-1,-4.360500276E-1,1.300500035E-1,6.775742578E-1
2.155631891E0,2.719500065E-1,-7.810500264E-1,4.360500276E-1,9.349521787E-1
2.157595297E0,3.109500110E-1,-1.087950110E0,1.050000072E0,1.543640341E0
2.159558389E0,4.260000288E-1,-1.356000066E0,1.395000100E0,1.991541484E0
2.161522229E0,4.639500082E-1,-1.624050021E0,1.701000094E0,2.397121065E0
2.163485850E0,6.940500140E-1,-1.930950046E0,2.200050116E0,3.008403898E0
2.165449330E0,9.240000248E-1,-2.238000154E0,2.620950222E0,3.568164907E0
2.167412852E0,1.345050097E0,-2.506050110E0,2.812950134E0,4.000266913E0
2.169376043E0,1.575000048E0,-2.736000061E0,3.004050255E0,4.357825079E0
2.171339324E0,1.614000082E0,-2.965950251E0,3.004050255E0,4.519532618E0
2.173302546E0,1.804950118E0,-3.196050167E0,2.851050138E0,4.647694965E0
2.175265786E0,1.959000111E0,-3.349050045E0,2.620950222E0,4.682221450E0
2.177229194E0,2.035050154E0,-3.502050161E0,2.353049994E0,4.684295970E0
2.179192553E0,2.074050188E0,-3.694050074E0,1.930950046E0,4.655776864E0
2.181155767E0,1.920000076E0,-4.000950336E0,1.548000097E0,4.700032786E0
2.183119020E0,1.843950033E0,-4.153950214E0,1.165050030E0,4.691779586E0
2.185083147E0,1.651950121E0,-4.306950092E0,5.509500504E-1,4.645675867E0
2.187047018E0,1.384050012E0,-4.461000443E0,5.295000225E-2,4.671073012E0
2.189010005E0,1.230000019E0,-4.498950005E0,-2.140500098E-1,4.668968687E0
2.190973251E0,9.619500637E-1,-4.614000320E0,-4.060500264E-1,4.730668399E0
2.192935861E0,6.550500393E-1,-4.690050125E0,-4.060500264E-1,4.752950384E0
2.194898680E0,4.260000288E-1,-4.690050125E0,-2.910000086E-1,4.718339454E0
2.196861125E0,1.570500135E-1,-4.729050159E0,9.195000678E-2,4.732550572E0
2.198823680E0,-2.250000089E-1,-4.843950272E0,3.979500234E-1,4.865474639E0
2.200786980E0,-5.320500135E-1,-4.804950237E0,8.959500194E-1,4.916640157E0
2.202750062E0,-7.620000243E-1,-4.729050159E0,1.356000066E0,4.978282397E0
2.204713494E0,-9.529500604E-1,-4.575000286E0,1.777950048E0,4.999984781E0
2.206676827E0,-1.144950032E0,-4.422000408E0,2.620950222E0,5.266343917E0
2.208640041E0,-1.452000022E0,-4.039050102E0,3.310950041E0,5.420758246E0
2.210603290E0,-1.681950092E0,-3.732000113E0,3.963000298E0,5.697556697E0
2.212566383E0,-1.911000133E0,-3.541050196E0,4.576050282E0,6.093537082E0
2.214529521E0,-2.179949999E0,-3.310950041E0,5.035950184E0,6.409006664E0
2.216492736E0,-2.371050119E0,-3.004050255E0,5.341950417E0,6.571349242E0
2.218455918E0,-2.485950232E0,-2.736000061E0,5.572050095E0,6.686806947E0
2.220419023E0,-2.563050032E0,-2.467050076E0,5.649000168E0,6.675834363E0
2.222382150E0,-2.677950144E0,-2.122950077E0,5.533950329E0,6.504071052E0
2.224345218E0,-2.601000071E0,-1.893000126E0,5.419050217E0,6.301964463E0
2.226308304E0,-2.448000193E0,-1.701000094E0,5.227050304E0,6.017321759E0
2.228271495E0,-2.371050119E0,-1.471050024E0,5.112000465E0,5.823951889E0
2.230234668E0,-2.179949999E0,-1.318050027E0,4.882050037E0,5.506709584E0
2.232197908E0,-1.834950089E0,-1.164000034E0,4.843950272E0,5.309029303E0
2.234161129E0,-1.567050099E0,-8.959500194E-1,5.112000465E0,5.421339429E0
2.236123867E0,-1.452000022E0,-6.660000086E-1,5.304000378E0,5.539339318E0
2.238086747E0,-1.297950029E0,-3.210000098E-1,5.380950451E0,5.544577805E0
2.240048926E0,-1.144950032E0,-1.290000081E-1,5.419050217E0,5.540185631E0
2.242011300E0,-9.919500351E-1,2.295000106E-2,5.380950451E0,5.471665133E0
2.243974001E0,-8.380500674E-1,2.910000086E-1,5.341950417E0,5.415112480E0
2.245936606E0,-6.469500065E-1,5.209500194E-1,5.266050339E0,5.331155541E0
2.247899358E0,-4.930500090E-1,7.510500550E-1,5.035950184E0,5.115463689E0
2.249862067E0,-2.629500031E-1,9.040500522E-1,4.768050194E0,4.860118502E0
2.251825255E0,-7.200000435E-2,1.057950020E0,4.423050404E0,4.548386210E0
2.253788269E0,1.189500093E-1,1.173000097E0,4.078050137E0,4.245064340E0
2.255752619E0,3.490500152E-1,1.210950017E0,3.847950220E0,4.049068628E0
2.257716577E0,6.940500140E-1,1.210950017E0,3.502950191E0,3.770777826E0
2.259679549E0,9.619500637E-1,1.288050056E0,3.196050167E0,3.577591025E0
2.261642810E0,1.230000019E0,1.326000094E0,2.889000177E0,3.408445147E0
2.263606169E0,1.345050097E0,1.363950014E0,2.620950222E0,3.246367119E0
2.265569500E0,1.729050040E0,1.326000094E0,2.085000038E0,3.015810911E0
2.267532760E0,1.959000111E0,1.402950048E0,1.930950046E0,3.087801540E0
2.269496041E0,2.227050066E0,1.441050053E0,1.585950017E0,3.090568670E0
2.271459263E0,2.610000134E0,1.479000092E0,1.356000066E0,3.292154028E0
2.273422502E0,2.839950085E0,1.402950048E0,1.087950110E0,3.349211962E0
2.275385865E0,3.070050240E0,1.479000092E0,6.280500293E-1,3.465125767E0
2.277349192E0,3.300000191E0,1.479000092E0,3.600000143E-1,3.634149493E0
2.279312767E0,3.492000103E0,1.479000092E0,9.195000678E-2,3.793410180E0
2.281276269E0,3.682950258E0,1.518000126E0,-2.910000086E-1,3.994136702E0
2.283238959E0,3.837000132E0,1.671000123E0,-6.360000372E-1,4.233120299E0
2.285201887E0,4.066950321E0,1.671000123E0,-1.057050109E0,4.522132380E0
2.287164809E0,4.219950199E0,1.824000120E0,-1.479000092E0,4.829326805E0
2.289127733E0,4.372950077E0,1.900950074E0,-1.824000120E0,5.105220857E0
2.291090970E0,4.488000393E0,1.939050078E0,-2.169000149E0,5.348516091E0
2.293054116E0,4.488000393E0,1.978050113E0,-2.475000143E0,5.493674133E0
2.295017406E0,4.603050232E0,2.016000032E0,-2.743950129E0,5.725520926E0
2.296980654E0,4.527000427E0,2.016000032E0,-3.012000084E0,5.799149378E0
2.298943838E0,4.488000393E0,1.978050113E0,-3.165000200E0,5.837127379E0
2.300907041E0,4.297049999E0,1.978050113E0,-3.357000113E0,5.800583652E0
2.302870141E0,4.105050087E0,1.978050113E0,-3.394950151E0,5.682411900E0
2.304833271E0,3.990000248E0,1.900950074E0,-3.280050039E0,5.503856959E0
2.306796473E0,3.874950171E0,1.863000035E0,-3.280050039E0,5.407840254E0
2.308759654E0,3.721950293E0,1.747950077E0,-3.012000084E0,5.097096032E0
2.310722550E0,3.721950293E0,1.747950077E0,-2.514000177E0,4.819589230E0
2.312685550E0,3.682950258E0,1.747950077E0,-1.900950074E0,4.498117746E0
2.314648054E0,3.607050180E0,1.747950077E0,-1.057050109E0,4.145297988E0
2.316610704E0,3.721950293E0,1.747950077E0,3.220500052E-1,4.124555692E0
2.318573673E0,3.874950171E0,1.863000035E0,1.930950046E0,4.713234137E0
2.320536548E0,4.027950287E0,2.169000149E0,4.000950336E0,6.077544632E0
2.322499510E0,4.143000126E0,2.551950216E0,6.376950264E0,8.021371118E0
2.324462457E0,4.182000160E0,3.012000084E0,8.983950615E0,1.035725053E1
2.326425377E0,4.105050087E0,3.472050190E0,1.155105019E1,1.274100974E1
2.328388305E0,4.105050087E0,3.894000292E0,1.423395061E1,1.531731127E1
2.330351361E0,4.143000126E0,4.468950272E0,1.638105011E1,1.747783652E1
2.332314380E0,4.143000126E0,5.005050182E0,1.806705093E1,1.919982570E1
2.334277259E0,4.335000038E0,5.656950474E0,1.914000130E1,2.042383323E1
2.336240200E0,4.564949989E0,6.193950176E0,1.925505066E1,2.073549525E1
2.338203344E0,4.717950344E0,7.075050354E0,1.837395096E1,2.024641862E1
2.340166428E0,5.025000095E0,8.071949959E0,1.645695114E1,1.900626852E1
2.342129684E0,5.407950401E0,9.145050049E0,1.388895035E1,1.748658942E1
2.344092890E0,6.021000385E0,1.010295010E1,1.128300095E1,1.629810285E1
2.346056115E0,6.481050491E0,1.117605019E1,8.254950523E0,1.533141616E1
2.348019341E0,6.673050404E0,1.251795101E1,4.000950336E0,1.473893832E1
2.349983429E0,6.442950249E0,1.443405056E1,-7.890000343E-1,1.582643183E1
2.351947264E0,6.060000420E0,1.700205040E1,-4.545000076E0,1.861317675E1
2.353910212E0,5.676000118E0,2.026005173E1,-7.228050232E0,2.224705337E1
2.355873420E0,5.485050201E0,2.382405090E1,-9.565950394E0,2.625221103E1
2.357836830E0,5.062950134E0,2.769495201E1,-1.136700058E1,3.036202452E1
2.359800184E0,4.833000183E0,3.179595184E1,-1.255605030E1,3.452527833E1
2.361763259E0,5.101050377E0,3.589695358E1,-1.290105057E1,3.848440070E1
2.363726416E0,5.523000240E0,3.919395065E1,-1.270905018E1,4.157149571E1
2.365689479E0,6.175050259E0,4.176195145E1,-1.247895050E1,4.402176780E1
2.367652570E0,7.132950306E0,4.402305222E1,-9.910950661E0,4.568517319E1
2.369615793E0,8.896050453E0,4.597800064E1,-5.272950172E0,4.712664066E1
2.371578967E0,1.008405018E1,4.685895157E1,-3.931950092E0,4.809271922E1
2.373542028E0,1.004595089E1,4.720395279E1,-4.468050003E0,4.846749178E1
2.375505123E0,8.589000702E0,4.720395279E1,-5.464950085E0,4.828923039E1
2.377468016E0,5.599950314E0,4.678305054E1,-6.576000214E0,4.757370114E1
2.379430969E0,1.269000053E0,4.555605316E1,-8.071050644E0,4.628289316E1
2.381393420E0,-3.138000250E0,4.341000366E1,-1.025595093E1,4.471532168E1
2.383355998E0,-6.931950092E0,4.065000153E1,-1.320705032E1,4.330012395E1
2.385319339E0,-9.615000725E0,3.754605103E1,-1.569795036E1,4.181602363E1
2.387282457E0,-1.095705032E1,3.459405136E1,-1.673295021E1,3.995994199E1
2.389245888E0,-1.130205059E1,3.172005081E1,-1.581300068E1,3.720146451E1
2.391209227E0,-1.126305008E1,2.941995049E1,-1.339905071E1,3.423338055E1
2.393172409E0,-1.145505047E1,2.761905098E1,-1.109895039E1,3.189383730E1
2.395135627E0,-1.183800030E1,2.635395050E1,-9.259050369E0,3.033807792E1
2.397098859E0,-1.229805088E1,2.531895065E1,-7.650000572E0,2.916871314E1
2.399062087E0,-1.272000027E1,2.466705132E1,-6.423000336E0,2.848713325E1
2.401025318E0,-1.314105034E1,2.409300041E1,-5.848050117E0,2.805992807E1
2.402988548E0,-1.344795036E1,2.367105103E1,-6.117000103E0,2.790311301E1
2.404951460E0,-1.375500107E1,2.321100044E1,-6.538050175E0,2.776142460E1
2.406914468E0,-1.390800095E1,2.290395164E1,-7.036050320E0,2.770432268E1
2.408877736E0,-1.425300026E1,2.275095177E1,-7.765050411E0,2.794726875E1
2.410840928E0,-1.456005096E1,2.244405174E1,-8.493000031E0,2.806887230E1
2.412804121E0,-1.475100040E1,2.206095123E1,-9.106050491E0,2.805704435E1
2.414767313E0,-1.479000092E1,2.175495148E1,-9.796050072E0,2.807106407E1
2.416730421E0,-1.471305084E1,2.129505157E1,-1.063905048E1,2.798468299E1
2.418693550E0,-1.456005096E1,2.071995163E1,-1.140600014E1,2.777423840E1
2.420656618E0,-1.421505070E1,2.014500046E1,-1.182705021E1,2.734534378E1
2.422619704E0,-1.394595051E1,1.964700127E1,-1.217205048E1,2.699357344E1
2.424582779E0,-1.379295063E1,1.918695068E1,-1.209600067E1,2.654614465E1
2.426545858E0,-1.367805099E1,1.864995003E1,-1.140600014E1,2.578772100E1
2.428509283E0,-1.329495049E1,1.819005013E1,-1.010295010E1,2.469216946E1
2.430472614E0,-1.279695034E1,1.780695152E1,-8.991000175E0,2.369994820E1
2.432435649E0,-1.222200012E1,1.719405174E1,-7.803000450E0,2.249221017E1
2.434398770E0,-1.153200054E1,1.669500160E1,-7.495950222E0,2.163098206E1
2.436362019E0,-1.114800072E1,1.646505165E1,-6.844950199E0,2.102924604E1
2.438325230E0,-1.045905018E1,1.612005043E1,-5.272950172E0,1.992615768E1
2.440288570E0,-9.730050087E0,1.581405067E1,-4.084949970E0,1.901170402E1
2.442251893E0,-8.772000313E0,1.546905041E1,-3.357000113E0,1.809720862E1
2.444215288E0,-7.852050304E0,1.500900078E1,-2.629050016E0,1.714166568E1
2.446178662E0,-7.276950359E0,1.458705044E1,-2.014950037E0,1.642547018E1
2.448141915E0,-6.856050491E0,1.416600037E1,-1.977000117E0,1.586157382E1
2.450105203E0,-6.741000175E0,1.385895061E1,-1.977000117E0,1.553770012E1
2.452068783E0,-6.664050102E0,1.362900066E1,-1.708950043E0,1.526694904E1
2.454032278E0,-6.549000263E0,1.332300091E1,-1.287000060E0,1.490127937E1
2.455995600E0,-6.472050190E0,1.305405045E1,-8.659500480E-1,1.459607948E1
2.457958972E0,-6.241950512E0,1.270905018E1,-6.739500165E-1,1.417519352E1
2.459922403E0,-5.898000240E0,1.240305042E1,-5.970000029E-1,1.374694423E1
2.461885816E0,-5.553000450E0,1.213395023E1,-4.060500264E-1,1.335040969E1
2.463849331E0,-5.398950100E0,1.205805016E1,1.500000060E-2,1.321156542E1
2.465812816E0,-5.092950344E0,1.228800011E1,2.449500114E-1,1.330387501E1
2.467775509E0,-4.747950077E0,1.232595062E1,3.600000143E-1,1.321369323E1
2.469738434E0,-4.249050140E0,1.232595062E1,3.979500234E-1,1.304384338E1
2.471702077E0,-3.790050268E0,1.232595062E1,5.509500504E-1,1.290724935E1
2.473665509E0,-3.330000162E0,1.221105099E1,6.660000086E-1,1.267447132E1
2.475629065E0,-2.830950022E0,1.209600067E1,1.011000037E0,1.246393322E1
2.477592585E0,-2.371050119E0,1.194300079E1,1.203000069E0,1.223537314E1
2.479556127E0,-2.026050091E0,1.186605072E1,1.356000066E0,1.211390832E1
2.481519662E0,-1.720050097E0,1.190400028E1,1.471050024E0,1.211725147E1
2.483482842E0,-1.452000022E0,1.178895092E1,1.510050058E0,1.197363433E1
2.485446126E0,-1.297950029E0,1.171305084E1,1.471050024E0,1.187620404E1
2.487409478E0,-1.260000110E0,1.163595009E1,1.624950051E0,1.181623449E1
2.489372812E0,-1.222050071E0,1.152105045E1,1.816050053E0,1.172715003E1
2.491336205E0,-1.222050071E0,1.140600014E1,1.893000126E0,1.162642228E1
2.493299581E0,-1.106999993E0,1.129095078E1,2.200050116E0,1.155643712E1
2.495262833E0,-9.529500604E-1,1.117605019E1,2.659050226E0,1.152747846E1
2.497226122E0,-6.079500318E-1,1.110000038E1,3.196050167E0,1.156695069E1
2.499189541E0,-7.200000435E-2,1.075500011E1,3.579000235E0,1.133509833E1
2.501152908E0,4.639500082E-1,1.041000080E1,3.963000298E0,1.114848589E1
2.503116837E0,1.077000022E0,1.014105034E1,4.461000443E0,1.113109860E1
2.505080601E0,1.651950121E0,9.873000145E0,5.341950417E0,1.134643139E1
2.507043741E0,2.457000017E0,9.681000710E0,6.531000137E0,1.193367448E1
2.509007064E0,2.992950201E0,9.528000832E0,7.219950199E0,1.232348293E1
2.510970583E0,3.682950258E0,9.259950638E0,7.642050266E0,1.255833352E1
2.512934052E0,4.411950111E0,9.030000687E0,8.064000130E0,1.288543031E1
2.514897423E0,5.025000095E0,8.761950493E0,8.370000839E0,1.311790061E1
2.516860823E0,5.446050167E0,8.493000031E0,8.293950081E0,1.306063245E1
2.518824205E0,5.868000507E0,8.224950790E0,8.370000839E0,1.312021949E1
2.520787593E0,6.405000210E0,7.765050411E0,8.562000275E0,1.321468442E1
2.522751006E0,6.826050282E0,7.342950344E0,8.830050468E0,1.335977820E1
2.524714391E0,7.018050194E0,6.807000160E0,8.638950348E0,1.304682884E1
2.526677640E0,7.171050549E0,6.346950531E0,8.332050323E0,1.269373111E1
2.528640929E0,7.401000500E0,5.619000435E0,7.719000340E0,1.208018793E1
2.530604284E0,7.669050217E0,4.966950417E0,7.066950321E0,1.155104820E1
2.532567620E0,7.822950363E0,4.354050159E0,6.339000225E0,1.096992384E1
2.534531183E0,8.014050484E0,3.741000175E0,5.686950207E0,1.051482240E1
2.536494687E0,8.167950630E0,3.051000118E0,4.996950150E0,1.004955372E1
2.538458097E0,8.320950508E0,2.398950100E0,4.461000443E0,9.741339943E0
2.540421535E0,8.589000702E0,1.633050084E0,4.078050137E0,9.647190189E0
2.542385090E0,8.781000137E0,1.018950105E0,3.808950186E0,9.625607734E0
2.544348610E0,8.857950211E0,4.830000103E-1,3.733050108E0,9.624564097E0
2.546313028E0,8.896050453E0,-9.105000645E-2,3.655950069E0,9.618418512E0
2.548277168E0,8.857950211E0,-4.360500276E-1,3.733050108E0,9.622322208E0
2.550240289E0,8.818950653E0,-9.340500236E-1,3.886050224E0,9.682340957E0
2.552203709E0,8.743050575E0,-1.432950020E0,4.192950249E0,9.801791209E0
2.554166862E0,8.665950775E0,-1.777950048E0,4.653000355E0,9.995510068E0
2.556130093E0,8.473950386E0,-2.083950043E0,5.266050339E0,1.019225044E1
2.558093363E0,8.244000435E0,-2.275950193E0,5.686950207E0,1.027058397E1
2.560056625E0,7.938000202E0,-2.467050076E0,6.109050274E0,1.031594293E1
2.562019985E0,7.438950539E0,-2.773950100E0,6.070950508E0,9.994459683E0
2.563983317E0,6.903000355E0,-3.196050167E0,5.611050129E0,9.452514698E0
2.565946711E0,6.289950371E0,-3.655950069E0,5.035950184E0,8.848177260E0
2.567910086E0,5.715000153E0,-4.077000141E0,4.345950127E0,8.256539190E0
2.569873118E0,5.254950047E0,-4.461000443E0,3.579000235E0,7.766869873E0
2.571836247E0,4.756950378E0,-4.767000198E0,2.812950134E0,7.298325579E0
2.573799719E0,4.450050354E0,-5.112000465E0,2.008050203E0,7.068787911E0
2.575763091E0,4.219950199E0,-5.494950294E0,1.318050027E0,7.052638818E0
2.577727199E0,4.027950287E0,-5.878950119E0,7.429500222E-1,7.165082885E0
2.579691091E0,3.837000132E0,-6.262050152E0,2.449500114E-1,7.348186349E0
2.581654555E0,3.645000219E0,-6.529950142E0,9.195000678E-2,7.478952484E0
2.583618155E0,3.453000069E0,-6.837000370E0,-9.900000691E-2,7.660129538E0
2.585581817E0,3.147000074E0,-7.182000160E0,-1.369500011E-1,7.842416150E0
2.587545461E0,2.839950085E0,-7.411950588E0,-6.105000153E-2,7.937635360E0
2.589508982E0,2.494950056E0,-7.603050232E0,1.300500035E-1,8.003003287E0
2.591472540E0,2.035050154E0,-7.756950378E0,1.300500035E-1,8.020512534E0
2.593434980E0,1.537050128E0,-7.795050144E0,2.830500007E-1,7.950185353E0
2.595397757E0,1.114950061E0,-7.833000183E0,4.750500321E-1,7.926201993E0
2.597360164E0,6.550500393E-1,-7.717950344E0,6.660000086E-1,7.774278364E0
2.599322680E0,2.340000123E-1,-7.603050232E0,8.580000401E-1,7.654886864E0
2.601286077E0,-7.200000435E-2,-7.411950588E0,9.730500579E-1,7.475896063E0
2.603249216E0,-4.170000255E-1,-7.219950199E0,1.203000069E0,7.331355882E0
2.605212972E0,-6.469500065E-1,-7.027950287E0,1.356000066E0,7.186749316E0
2.607176538E0,-8.380500674E-1,-6.798000336E0,1.432950020E0,6.997748369E0
2.609140073E0,-9.529500604E-1,-6.607050419E0,1.471050024E0,6.835584630E0
2.611103617E0,-9.529500604E-1,-6.262050152E0,1.510050058E0,6.511653945E0
2.613066478E0,-9.919500351E-1,-5.649000168E0,1.585950017E0,5.950664268E0
2.615029540E0,-1.030050039E0,-4.959000111E0,1.777950048E0,5.367847945E0
2.616992743E0,-9.529500604E-1,-4.345950127E0,1.816050053E0,4.805562830E0
2.618955912E0,-7.999500632E-1,-3.886050224E0,1.740000129E0,4.332309649E0
2.620919379E0,-4.549500346E-1,-3.502050161E0,1.624950051E0,3.887389553E0
2.622882759E0,4.200000316E-2,-3.234000206E0,1.510050058E0,3.569421874E0
2.624847226E0,4.260000288E-1,-2.965950251E0,1.471050024E0,3.338012146E0
2.626811374E0,9.240000248E-1,-2.659050226E0,1.471050024E0,3.176210372E0
2.628774579E0,1.306950092E0,-2.467050076E0,1.432950020E0,3.138120517E0
2.630738064E0,1.459950089E0,-2.238000154E0,1.279950023E0,2.962831587E0
2.632701296E0,1.767000079E0,-2.083950043E0,1.126049995E0,2.955186230E0
2.634664603E0,2.111999989E0,-1.930950046E0,1.011000037E0,3.035001335E0
2.636627820E0,2.341950178E0,-1.777950048E0,8.580000401E-1,3.063005237E0
2.638591064E0,2.457000017E0,-1.624050021E0,7.810500264E-1,3.047035723E0
2.640554796E0,2.610000134E0,-1.509000063E0,5.509500504E-1,3.064755756E0
2.642518379E0,2.725050211E0,-1.432950020E0,5.509500504E-1,3.127745253E0
2.644481776E0,2.802000046E0,-1.279050112E0,4.750500321E-1,3.116543916E0
2.646445227E0,2.878050089E0,-1.087950110E0,3.220500052E-1,3.093626345E0
2.648409095E0,2.917050123E0,-1.011000037E0,1.300500035E-1,3.090018689E0
2.650372841E0,2.917050123E0,-9.340500236E-1,-9.900000691E-2,3.064544317E0
2.652336005E0,2.992950201E0,-7.429500222E-1,-3.289500177E-1,3.101279374E0
2.654299357E0,3.031950235E0,-5.130000114E-1,-4.819500148E-1,3.112582056E0
2.656262746E0,3.108000040E0,-3.979500234E-1,-7.120500207E-1,3.213260603E0
2.658226124E0,3.184950113E0,-2.059500068E-1,-9.420000315E-1,3.327714935E0
2.660189150E0,3.300000191E0,-1.290000081E-1,-1.171950102E0,3.504298689E0
2.662152280E0,3.492000103E0,-5.295000225E-2,-1.402050018E0,3.763324684E0
2.664114974E0,3.760050297E0,6.105000153E-2,-1.786050081E0,4.163133463E0
2.666077805E0,4.027950287E0,2.140500098E-1,-2.322000027E0,4.654233024E0
2.668041644E0,4.297049999E0,4.830000103E-1,-2.820000172E0,5.162395633E0
2.670005187E0,4.603050232E0,7.510500550E-1,-3.586950064E0,5.883736770E0
2.671968726E0,4.872000217E0,9.810000658E-1,-4.545000076E0,6.734669475E0
2.673932266E0,5.293050289E0,1.210950017E0,-5.772000313E0,7.924567428E0
2.675895784E0,5.791050434E0,1.633050084E0,-6.270000458E0,8.689995595E0
2.677859323E0,6.136050224E0,2.169000149E0,-6.423000336E0,9.143883601E0
2.679822636E0,6.442950249E0,2.782050133E0,-5.809950352E0,9.110814120E0
2.681786015E0,6.595950127E0,3.586950064E0,-4.084949970E0,8.547489988E0
2.683748320E0,6.595950127E0,4.774950027E0,-1.249050021E0,8.238132786E0
2.685710939E0,6.558000088E0,6.040050507E0,2.391000032E0,9.230734339E0
2.687674495E0,6.289950371E0,7.267050266E0,6.531000137E0,1.162013158E1
2.689637779E0,5.983050346E0,8.877000809E0,1.021005058E1,1.479334877E1
2.691600956E0,5.638050079E0,1.075500011E1,1.281600094E1,1.765524047E1
2.693564165E0,5.523000240E0,1.263300037E1,1.469400024E1,2.014968668E1
2.695526859E0,5.944950104E0,1.435695076E1,1.595895100E1,2.227448279E1
2.697489704E0,6.558000088E0,1.558395100E1,1.592100048E1,2.322380568E1
2.699453069E0,7.056000233E0,1.650405121E1,1.366005039E1,2.255588221E1
2.701416264E0,7.132950306E0,1.711695099E1,9.214050293E0,2.070670698E1
2.703380042E0,6.250950336E0,1.795995140E1,2.698050022E0,1.920712650E1
2.705343649E0,4.143000126E0,1.926300049E1,-5.848050117E0,2.055303695E1
2.707305870E0,1.306950092E0,2.129505157E1,-1.454895115E1,2.582361941E1
2.709268497E0,-1.605000019E0,2.390100098E1,-2.179305077E1,3.238473305E1
2.711231635E0,-4.249050140E0,2.761905098E1,-2.669805145E1,3.864779884E1
2.713194634E0,-6.511050224E0,3.175800133E1,-2.827005196E1,4.301348929E1
2.715157410E0,-8.389050484E0,3.689400101E1,-2.700495148E1,4.648452304E1
2.717120251E0,-9.730050087E0,4.421505356E1,-2.179305077E1,5.024521766E1
2.719083322E0,-1.225995064E1,5.199495316E1,-1.788300133E1,5.633456559E1
2.721046326E0,-1.582395077E1,5.797395325E1,-1.481700039E1,6.189442765E1
2.723009426E0,-1.954200172E1,6.196005249E1,-1.424205112E1,6.651145733E1
2.724972490E0,-2.222505188E1,6.479595184E1,-1.504695034E1,7.013472051E1
2.726935930E0,-2.302995110E1,6.682800293E1,-1.489395046E1,7.223704301E1
2.728899259E0,-2.211000061E1,6.801600647E1,-1.374405098E1,7.282807289E1
2.730862654E0,-2.065395164E1,6.713400269E1,-1.336005020E1,7.149860821E1
2.732826029E0,-1.808595085E1,6.376200485E1,-1.259400082E1,6.746335107E1
2.734789066E0,-1.463595104E1,5.881695175E1,-1.159695053E1,6.171008133E1
2.736752227E0,-1.156995010E1,5.310705185E1,-1.044795036E1,5.534783075E1
2.738715604E0,-9.193950653E0,4.739595413E1,-9.643050194E0,4.923305408E1
2.740678918E0,-7.699050426E0,4.195305252E1,-9.183000565E0,4.363096942E1
2.742642135E0,-6.741000175E0,3.731595230E1,-8.838000298E0,3.893625083E1
2.744605381E0,-6.013050079E0,3.321495056E1,-8.875950813E0,3.490232392E1
2.746568843E0,-5.514000416E0,2.991795158E1,-9.144000053E0,3.176634641E1
2.748532235E0,-5.016000271E0,2.708205223E1,-9.336000443E0,2.908193109E1
2.750495214E0,-4.441050053E0,2.462895203E1,-9.604050636E0,2.680570820E1
2.752458314E0,-3.712950230E0,2.252100182E1,-9.565950394E0,2.474851368E1
2.754421431E0,-2.946000099E0,2.052795029E1,-9.681000710E0,2.288662130E1
2.756384543E0,-1.795950055E0,1.868805122E1,-9.643050194E0,2.110585493E1
2.758348475E0,-7.200000435E-2,1.700205040E1,-1.048605061E1,1.997578932E1
2.760312163E0,8.850000501E-1,1.554600048E1,-1.113705063E1,1.914406573E1
2.762275136E0,1.537050128E0,1.424205112E1,-1.155900097E1,1.840676633E1
2.764238318E0,2.227050066E0,1.332300091E1,-1.209600067E1,1.813216307E1
2.766201377E0,2.802000046E0,1.247895050E1,-1.259400082E1,1.794949209E1
2.768164472E0,3.031950235E0,1.190400028E1,-1.297695065E1,1.786894493E1
2.770127610E0,2.878050089E0,1.159800053E1,-1.336005020E1,1.792450083E1
2.772090721E0,2.917050123E0,1.140600014E1,-1.332195091E1,1.777865002E1
2.774053973E0,2.839950085E0,1.121400070E1,-1.305405045E1,1.744211459E1
2.776017183E0,2.839950085E0,1.110000038E1,-1.247895050E1,1.694106049E1
2.777980373E0,2.839950085E0,1.098495007E1,-1.194195080E1,1.647254180E1
2.779943569E0,2.878050089E0,1.090800095E1,-1.121400070E1,1.590664857E1
2.781906449E0,3.108000040E0,1.056300068E1,-1.060095024E1,1.528452792E1
2.783869419E0,3.147000074E0,1.018005085E1,-9.834000587E0,1.449981422E1
2.785832513E0,3.300000191E0,9.757950783E0,-9.028950691E0,1.369779381E1
2.787795571E0,3.262050152E0,9.298050880E0,-8.110050201E0,1.276196049E1
2.789758696E0,3.262050152E0,8.761950493E0,-7.228050232E0,1.181767565E1
2.791721802E0,3.184950113E0,8.148000717E0,-6.423000336E0,1.085305285E1
2.793685009E0,2.955000162E0,7.650000572E0,-5.427000046E0,9.833964827E0
2.795648187E0,2.725050211E0,6.960000515E0,-4.660050392E0,8.808153920E0
2.797611607E0,2.686950207E0,6.232050419E0,-3.739950180E0,7.748895482E0
2.799574956E0,2.572050095E0,5.580000401E0,-2.935050249E0,6.809285287E0
2.801537672E0,2.494950056E0,4.929000378E0,-2.245050192E0,5.963226549E0
2.803500573E0,2.457000017E0,4.315950394E0,-1.671000123E0,5.239896783E0
2.805463504E0,2.457000017E0,3.778950214E0,-1.171950102E0,4.657336240E0
2.807426422E0,2.341950178E0,3.396000147E0,-8.659500480E-1,4.215141412E0
2.809389707E0,2.304000139E0,2.974050045E0,-7.120500207E-1,3.828890903E0
2.811352884E0,2.265000105E0,2.629050016E0,-5.970000029E-1,3.521155843E0
2.813315900E0,2.380050182E0,2.169000149E0,-1.759500057E-1,3.224927739E0
2.815278963E0,2.457000017E0,1.863000035E0,-2.205000073E-2,3.083521431E0
2.817241727E0,2.494950056E0,1.555950046E0,1.300500035E-1,2.943241297E0
2.819204578E0,2.341950178E0,1.210950017E0,-2.205000073E-2,2.636591888E0
2.821167873E0,2.227050066E0,7.510500550E-1,-1.759500057E-1,2.356859475E0
2.823131038E0,2.188950062E0,1.380000114E-1,-3.670500219E-1,2.223796775E0
2.825094641E0,2.380050182E0,-2.830500007E-1,-5.590500236E-1,2.461156863E0
2.827058115E0,2.304000139E0,-5.890500546E-1,-3.289500177E-1,2.400750866E0
2.829020584E0,2.341950178E0,-9.340500236E-1,-9.900000691E-2,2.523287753E0
2.830983348E0,2.227050066E0,-1.356000066E0,3.600000143E-1,2.632126172E0
2.832946432E0,2.149950027E0,-1.701000094E0,8.580000401E-1,2.872603438E0
2.834909422E0,1.920000076E0,-2.008050203E0,1.356000066E0,3.091504826E0
2.836872559E0,1.729050040E0,-2.275950193E0,1.740000129E0,3.346216337E0
2.838835653E0,1.614000082E0,-2.544000149E0,2.391000032E0,3.846272764E0
2.840798567E0,1.614000082E0,-2.812050104E0,3.004050255E0,4.420061084E0
2.842761520E0,1.498950124E0,-2.926950216E0,3.655950069E0,4.917302101E0
2.844724978E0,1.537050128E0,-3.004050255E0,4.116000175E0,5.322433511E0
2.846688288E0,1.498950124E0,-3.042000055E0,4.498950005E0,5.633929974E0
2.848651461E0,1.651950121E0,-3.042000055E0,4.653000355E0,5.799406508E0
2.850614674E0,1.651950121E0,-2.926950216E0,4.768050194E0,5.833547756E0
2.852577972E0,1.959000111E0,-2.965950251E0,4.690950394E0,5.885538031E0
2.854541231E0,2.188950062E0,-2.965950251E0,4.614000320E0,5.905705904E0
2.856504233E0,2.341950178E0,-2.926950216E0,4.461000443E0,5.826859631E0
2.858467310E0,2.341950178E0,-2.812050104E0,4.192950249E0,5.565356072E0
2.860430206E0,2.419050217E0,-2.697000027E0,3.924000263E0,5.340729460E0
2.862393156E0,2.457000017E0,-2.736000061E0,3.771000147E0,5.267161240E0
2.864356273E0,2.457000017E0,-2.736000061E0,3.541050196E0,5.105054545E0
2.866319327E0,2.494950056E0,-2.773950100E0,3.388050079E0,5.039688312E0
2.868282229E0,2.457000017E0,-2.697000027E0,3.310950041E0,4.926768556E0
2.870245175E0,2.494950056E0,-2.736000061E0,3.157950163E0,4.866530730E0
2.872208453E0,2.610000134E0,-2.697000027E0,3.043050051E0,4.831776428E0
2.874171634E0,2.764050245E0,-2.581950188E0,3.004050255E0,4.830192384E0
2.876134364E0,2.802000046E0,-2.581950188E0,2.965950251E0,4.828512392E0
2.878097237E0,2.802000046E0,-2.506050110E0,2.965950251E0,4.788355908E0
2.880060483E0,2.725050211E0,-2.428950071E0,3.081000090E0,4.776846099E0
2.882023619E0,2.533950090E0,-2.428950071E0,3.157950163E0,4.721583499E0
2.883986552E0,2.380050182E0,-2.314050198E0,3.234000206E0,4.634460542E0
2.885949545E0,2.111999989E0,-2.238000154E0,3.349050045E0,4.548112229E0
2.887912635E0,1.843950033E0,-2.199000120E0,3.426000118E0,4.469141983E0
2.889875696E0,1.651950121E0,-2.199000120E0,3.502950191E0,4.453672729E0
2.891839092E0,1.384050012E0,-2.199000120E0,3.694050074E0,4.516326152E0
2.893802389E0,1.306950092E0,-2.238000154E0,3.694050074E0,4.512512513E0
2.895765474E0,1.230000019E0,-2.275950193E0,3.733050108E0,4.541862221E0
2.897728621E0,1.077000022E0,-2.275950193E0,3.924000263E0,4.662365965E0
2.899691870E0,9.619500637E-1,-2.314050198E0,4.153950214E0,4.851337818E0
2.901655086E0,9.240000248E-1,-2.314050198E0,4.498950005E0,5.142874246E0
2.903618320E0,9.240000248E-1,-2.351999998E0,4.806000233E0,5.429854351E0
2.905581548E0,8.470500112E-1,-2.314050198E0,5.035950184E0,5.606524440E0
2.907544735E0,7.699500322E-1,-2.391000032E0,5.188950062E0,5.764972415E0
2.909507934E0,8.850000501E-1,-2.314050198E0,5.266050339E0,5.819737071E0
2.911471025E0,9.240000248E-1,-2.238000154E0,5.304000378E0,5.830509475E0
2.913434155E0,9.619500637E-1,-2.238000154E0,5.380950451E0,5.906658986E0
2.915397178E0,9.240000248E-1,-2.161050081E0,5.266050339E0,5.766732148E0
2.917360232E0,8.089500666E-1,-2.046000004E0,4.959000111E0,5.425145005E0
2.919323132E0,7.320000529E-1,-1.854000092E0,4.882050037E0,5.273286735E0
2.921286078E0,6.940500140E-1,-1.663050056E0,4.614000320E0,4.953427083E0
2.923249061E0,6.169500351E-1,-1.509000063E0,4.308000088E0,4.606145166E0
2.925212019E0,5.790000558E-1,-1.279050112E0,4.039050102E0,4.276112251E0
2.927174532E0,5.410500169E-1,-1.048950076E0,3.847950220E0,4.024891586E0
2.929137175E0,3.870000243E-1,-5.890500546E-1,3.388050079E0,3.460582657E0
2.931101092E0,4.639500082E-1,-3.210000098E-1,3.234000206E0,3.282841444E0
2.933064635E0,8.470500112E-1,-4.740000367E-1,2.545050144E0,2.723866735E0
2.935027793E0,1.000050068E0,-4.740000367E-1,1.777950048E0,2.094249877E0
2.936991078E0,1.000050068E0,-2.830500007E-1,1.318050027E0,1.678533084E0
2.938955154E0,1.077000022E0,-2.059500068E-1,6.280500293E-1,1.263642074E0
2.940918999E0,1.153950095E0,-1.290000081E-1,1.500000060E-2,1.161235043E0
2.942881450E0,1.192050099E0,2.295000106E-2,-5.970000029E-1,1.333386345E0
2.944844309E0,1.230000019E0,2.530499995E-1,-1.249050021E0,1.771174837E0
2.946807764E0,1.306950092E0,4.830000103E-1,-1.977000117E0,2.418664304E0
2.948771057E0,1.345050097E0,6.739500165E-1,-2.667000055E0,3.062067550E0
2.950733918E0,1.498950124E0,8.280000687E-1,-3.319050074E0,3.734772949E0
2.952696905E0,1.767000079E0,9.430500269E-1,-4.009050369E0,4.481530709E0
2.954660177E0,1.996950150E0,1.096050024E0,-4.660050392E0,5.187022770E0
2.956623365E0,2.188950062E0,1.249050021E0,-5.197050095E0,5.775894564E0
2.958586230E0,2.380050182E0,1.402950048E0,-5.695050240E0,6.329810814E0
2.960549199E0,2.419050217E0,1.594050050E0,-6.040050507E0,6.698881223E0
2.962512429E0,2.610000134E0,1.671000123E0,-6.232050419E0,6.960085813E0
2.964475582E0,2.494950056E0,1.824000120E0,-6.232050419E0,6.956306825E0
2.966438646E0,2.419050217E0,1.978050113E0,-6.001950264E0,6.766675193E0
2.968401737E0,2.341950178E0,2.131050110E0,-5.542050362E0,6.382822841E0
2.970364826E0,2.188950062E0,2.245950222E0,-4.927950382E0,5.841274668E0
2.972327905E0,2.111999989E0,2.322000027E0,-3.970050097E0,5.060980720E0
2.974291026E0,2.074050188E0,2.322000027E0,-2.743950129E0,4.150015737E0
2.976254134E0,1.920000076E0,2.476050138E0,-1.134000063E0,3.332143563E0
2.978216261E0,1.920000076E0,2.551950216E0,6.280500293E-1,3.254734557E0
2.980178675E0,2.111999989E0,2.706000090E0,2.238000154E0,4.097758549E0
2.982142076E0,2.265000105E0,2.896950245E0,3.963000298E0,5.406285005E0
2.984105197E0,2.265000105E0,3.204000235E0,5.841000080E0,7.036556325E0
2.986067727E0,2.227050066E0,3.586950064E0,7.948950291E0,9.000654058E0
2.988030430E0,2.227050066E0,4.123950005E0,1.017195034E1,1.119978970E1
2.989993345E0,2.227050066E0,4.584000111E0,1.231800079E1,1.333063962E1
2.991956197E0,2.304000139E0,5.235000134E0,1.404300022E1,1.516309659E1
2.993919142E0,2.457000017E0,5.887050152E0,1.530795097E1,1.658395525E1
2.995882053E0,2.533950090E0,6.691950321E0,1.599705029E1,1.752451768E1
2.997845159E0,2.764050245E0,7.534950256E0,1.603605080E1,1.793238340E1
2.999808207E0,3.147000074E0,8.493000031E0,1.546095085E1,1.791858421E1
3.001771515E0,3.645000219E0,9.412950516E0,1.438800049E1,1.757567131E1
3.003734746E0,4.182000160E0,1.052505016E1,1.281600094E1,1.710308996E1
3.005697951E0,4.603050232E0,1.190400028E1,1.090005016E1,1.678405159E1
3.007661151E0,4.948050022E0,1.351395035E1,8.446949959E0,1.668715124E1
3.009624792E0,5.062950134E0,1.535400105E1,5.151000023E0,1.696795843E1
3.011588303E0,4.987050056E0,1.757700157E1,7.429500222E-1,1.828588601E1
3.013552522E0,4.603050232E0,2.026005173E1,-3.778950214E0,2.111724964E1
3.015516534E0,3.990000248E0,2.355600166E1,-7.687950134E0,2.509800577E1
3.017479812E0,3.147000074E0,2.727405167E1,-1.117605019E1,2.964256402E1
3.019443305E0,2.610000134E0,3.091500092E1,-1.401195049E1,3.404238739E1
3.021406536E0,1.690050125E0,3.470895004E1,-1.608195114E1,3.829094717E1
3.023369844E0,1.920000076E0,3.815895081E1,-1.707795143E1,4.185030886E1
3.025333061E0,2.878050089E0,4.153200150E1,-1.657995033E1,4.481166225E1
3.027296305E0,3.990000248E0,4.402305222E1,-1.546800041E1,4.683170150E1
3.029259897E0,5.560950279E0,4.536405182E1,-1.175100040E1,4.719011947E1
3.031223384E0,7.554000378E0,4.517295074E1,-6.307950497E0,4.623254957E1
3.033186031E0,9.816000938E0,4.421505356E1,-4.060500264E-1,4.529337382E1
3.035148924E0,1.134900093E1,4.260495377E1,1.930950046E0,4.413287296E1
3.037112933E0,1.035195065E1,4.076505280E1,1.816050053E0,4.209810506E1
3.039076615E0,6.136050224E0,3.900195312E1,1.680000126E-1,3.948204255E1
3.041039346E0,1.039050102E0,3.700905228E1,-2.743950129E0,3.712517795E1
3.043002368E0,-3.138000250E0,3.467100143E1,-6.001950264E0,3.532631870E1
3.044966039E0,-6.166050434E0,3.206505203E1,-9.106050491E0,3.389849400E1
3.046929520E0,-8.656949997E0,2.957295227E1,-1.232595062E1,3.318781927E1
3.048892889E0,-1.007505035E1,2.761905098E1,-1.401195049E1,3.256767375E1
3.050856291E0,-1.022895050E1,2.604705048E1,-1.519995117E1,3.184523171E1
3.052819686E0,-9.346950531E0,2.485905075E1,-1.535295105E1,3.067655447E1
3.054783074E0,-8.542050362E0,2.393895149E1,-1.474005032E1,2.938212222E1
3.056746637E0,-8.158950806E0,2.321100044E1,-1.366695023E1,2.814435198E1
3.058710149E0,-8.044050217E0,2.267400169E1,-1.194195080E1,2.685939846E1
3.060673692E0,-8.082000732E0,2.221500015E1,-1.033305073E1,2.579916481E1
3.062637226E0,-8.350950241E0,2.198505020E1,-8.799000740E0,2.510982310E1
3.064600614E0,-8.656949997E0,2.167800140E1,-7.611000538E0,2.455210495E1
3.066564025E0,-8.964000702E0,2.148600197E1,-7.113000393E0,2.434330224E1
3.068527360E0,-9.117000580E0,2.121795082E1,-6.960000515E0,2.411975837E1
3.070490718E0,-9.309000015E0,2.110305023E1,-7.075050354E0,2.412576523E1
3.072454106E0,-9.499950409E0,2.091105080E1,-7.458000183E0,2.414835129E1
3.074417485E0,-9.691950798E0,2.079600143E1,-8.032950401E0,2.430917271E1
3.076380478E0,-9.960000038E0,2.064300156E1,-8.416049957E0,2.441649055E1
3.078343608E0,-1.018995094E1,2.052795029E1,-9.028950691E0,2.463237288E1
3.080306855E0,-1.057395077E1,2.045100021E1,-9.604050636E0,2.494573377E1
3.082270067E0,-1.084200096E1,2.033595085E1,-1.002600002E1,2.513206236E1
3.084233346E0,-1.061205006E1,1.983795166E1,-1.014105034E1,2.467794227E1
3.086196606E0,-1.034400082E1,1.945500183E1,-9.910950661E0,2.416034752E1
3.088160123E0,-9.960000038E0,1.903305054E1,-9.528000832E0,2.349981730E1
3.090123582E0,-9.424050331E0,1.861200142E1,-9.144000053E0,2.277788529E1
3.092087179E0,-9.079050064E0,1.834305000E1,-8.493000031E0,2.215914446E1
3.094050736E0,-8.619000435E0,1.776900101E1,-7.534950256E0,2.113764511E1
3.096014272E0,-8.197050095E0,1.730895042E1,-6.040050507E0,2.008167337E1
3.097977815E0,-7.546050549E0,1.688700104E1,-4.813050270E0,1.911227710E1
3.099941142E0,-6.817050457E0,1.623495102E1,-3.778950214E0,1.800906095E1
3.101904522E0,-6.013050079E0,1.558395100E1,-3.165000200E0,1.700098604E1
3.103867727E0,-5.323050022E0,1.508595085E1,-2.014950037E0,1.612392007E1
3.105830984E0,-4.747950077E0,1.462605095E1,-9.420000315E-1,1.540622473E1
3.107793534E0,-4.096050262E0,1.405095100E1,1.500000060E-2,1.463581487E1
3.109756291E0,-3.712950230E0,1.370595074E1,4.750500321E-1,1.420791179E1
3.111719718E0,-3.330000162E0,1.324605083E1,1.165050030E0,1.370781184E1
3.113682962E0,-3.214950085E0,1.274805069E1,1.548000097E0,1.323801362E1
3.115646551E0,-3.367950201E0,1.240305042E1,1.855050087E0,1.298537482E1
3.117610039E0,-3.636000156E0,1.217295074E1,2.238000154E0,1.289999503E1
3.119573452E0,-3.904950142E0,1.205805016E1,2.353049994E0,1.289116183E1
3.121536887E0,-3.981000185E0,1.190400028E1,2.467950106E0,1.279235564E1
3.123500218E0,-4.018949986E0,1.182795048E1,2.698050022E0,1.278013480E1
3.125463579E0,-3.981000185E0,1.178895092E1,2.851050138E0,1.276543039E1
3.127426966E0,-3.828000069E0,1.182795048E1,2.965950251E0,1.278087860E1
3.129390346E0,-3.559950113E0,1.201905060E1,2.928000212E0,1.287260686E1
3.131353731E0,-3.138000250E0,1.221105099E1,2.965950251E0,1.295197563E1
3.133317115E0,-2.601000071E0,1.236405087E1,3.081000090E0,1.300490356E1
3.135280206E0,-1.720050097E0,1.263300037E1,3.463950157E0,1.321174559E1
3.137243368E0,-7.620000243E-1,1.290105057E1,3.733050108E0,1.345189254E1
3.139207691E0,4.050000105E-3,1.293900108E1,4.000950336E0,1.354346222E1
3.141171674E0,8.850000501E-1,1.301595020E1,4.192950249E0,1.370324839E1
3.143134912E0,1.345050097E0,1.313100052E1,4.269000053E0,1.387287626E1
3.145098368E0,1.767000079E0,1.328400040E1,4.153950214E0,1.403004840E1
3.147061545E0,2.111999989E0,1.339905071E1,4.039050102E0,1.415305726E1
3.149024815E0,2.419050217E0,1.351395035E1,3.808950186E0,1.424734219E1
3.150988039E0,2.533950090E0,1.362900066E1,3.541050196E0,1.430767621E1
3.152951276E0,2.764050245E0,1.347600079E1,3.118950129E0,1.410568754E1
3.154914730E0,3.070050240E0,1.347600079E1,2.659050226E0,1.407474169E1
3.156878121E0,3.337950230E0,1.343700027E1,1.816050053E0,1.396398675E1
3.158841806E0,3.568050146E0,1.316895103E1,1.165050030E0,1.369341428E1
3.160805414E0,3.874950171E0,1.286295033E1,3.600000143E-1,1.343876222E1
3.162769166E0,4.027950287E0,1.240305042E1,-3.670500219E-1,1.304587172E1
3.164732876E0,4.219950199E0,1.198095036E1,-9.040500522E-1,1.273453798E1
3.166696206E0,4.527000427E0,1.140600014E1,-1.018950105E0,1.231376593E1
3.168659647E0,4.680000305E0,1.098495007E1,-8.269500136E-1,1.196893383E1
3.170622256E0,4.603050232E0,1.067805004E1,-3.670500219E-1,1.163372468E1
3.172585109E0,4.833000183E0,1.033305073E1,8.959500194E-1,1.144257639E1
3.174548584E0,4.872000217E0,9.988050461E0,2.085000038E0,1.130684586E1
3.176511876E0,4.948050022E0,9.720000267E0,3.463950157E0,1.144379985E1
3.178475322E0,5.062950134E0,9.412950516E0,4.959000111E0,1.178256269E1
3.180438722E0,5.178000450E0,9.183000565E0,6.339000225E0,1.230130529E1
3.182402425E0,5.485050201E0,8.838000298E0,7.564950466E0,1.286174563E1
3.184366035E0,5.868000507E0,8.224950790E0,8.332050323E0,1.309604169E1
3.186329066E0,6.366000175E0,7.573050499E0,8.869050026E0,1.328672648E1
3.188292267E0,6.787950516E0,6.922050476E0,9.060000420E0,1.326931282E1
3.190255637E0,7.095000267E0,6.154950142E0,8.907000542E0,1.294438483E1
3.192218958E0,7.516050339E0,5.274000168E0,8.446949959E0,1.247625962E1
3.194182333E0,7.861050606E0,4.431000233E0,7.948950291E0,1.202562640E1
3.196145707E0,8.244000435E0,3.586950064E0,7.335000515E0,1.160310245E1
3.198109093E0,8.473950386E0,2.743950129E0,6.607050419E0,1.109009525E1
3.200072476E0,8.551050186E0,1.939050078E0,5.764050484E0,1.049307641E1
3.202035502E0,8.512949944E0,1.326000094E0,4.996950150E0,9.959824486E0
3.203998632E0,8.359050751E0,7.510500550E-1,4.269000053E0,9.416059000E0
3.205962109E0,8.014050484E0,2.910000086E-1,3.618000269E0,8.797704934E0
3.207925481E0,7.438950539E0,1.759500057E-1,2.965950251E0,8.010356073E0
3.209889364E0,6.865050316E0,-1.500000060E-2,2.545050144E0,7.321640600E0
3.211853097E0,6.250950336E0,-9.105000645E-2,2.122950077E0,6.602241077E0
3.213816287E0,5.676000118E0,-1.290000081E-1,1.855050087E0,5.972840963E0
3.215779637E0,5.062950134E0,-1.290000081E-1,1.777950048E0,5.367607609E0
3.217742653E0,4.527000427E0,-1.290000081E-1,1.740000129E0,4.851595028E0
3.219705777E0,4.027950287E0,-1.680000126E-1,1.893000126E0,4.453768853E0
3.221668846E0,3.568050146E0,-2.830500007E-1,2.046000004E0,4.122767901E0
3.223631931E0,3.300000191E0,-4.740000367E-1,2.200050116E0,3.994358247E0
3.225595007E0,2.955000162E0,-6.660000086E-1,2.391000032E0,3.859075424E0
3.227558085E0,2.686950207E0,-8.959500194E-1,2.659050226E0,3.884967948E0
3.229521516E0,2.494950056E0,-1.240950108E0,2.698050022E0,3.878686230E0
3.231484847E0,2.341950178E0,-1.816050053E0,2.889000177E0,4.138730537E0
3.233448196E0,2.265000105E0,-2.428950071E0,3.118950129E0,4.556080973E0
3.235411539E0,2.457000017E0,-2.889000177E0,3.808950186E0,5.375060244E0
3.237374931E0,2.533950090E0,-3.349050045E0,4.039050102E0,5.826745661E0
3.239338308E0,2.572050095E0,-3.771000147E0,4.269000053E0,6.249819618E0
3.241301859E0,2.572050095E0,-4.153950214E0,4.461000443E0,6.615985869E0
3.243265370E0,2.533950090E0,-4.575000286E0,4.345950127E0,6.799912733E0
3.245228780E0,2.380050182E0,-4.920000076E0,3.963000298E0,6.751030364E0
3.247192219E0,2.188950062E0,-5.227050304E0,3.502950191E0,6.662148100E0
3.249155728E0,1.882050037E0,-5.419050217E0,2.928000212E0,6.440605782E0
3.251119217E0,1.729050040E0,-5.649000168E0,2.391000032E0,6.373201558E0
3.253082375E0,1.498950124E0,-5.878950119E0,1.663050056E0,6.290837898E0
3.255045651E0,1.345050097E0,-6.147000313E0,1.279950023E0,6.421296183E0
3.257009639E0,1.153950095E0,-6.339000225E0,7.050000429E-1,6.481631719E0
3.258973418E0,9.619500637E-1,-6.492000103E0,1.500000060E-2,6.562898617E0
3.260936151E0,8.089500666E-1,-6.645000458E0,-5.209500194E-1,6.714299682E0
3.262899190E0,5.790000558E-1,-6.798000336E0,-9.040500522E-1,6.882249351E0
3.264861597E0,4.639500082E-1,-6.913050175E0,-1.171950102E0,7.027017815E0
3.266824190E0,3.870000243E-1,-7.027950287E0,-1.326000094E0,7.162410942E0
3.268787484E0,2.719500065E-1,-7.219950199E0,-1.363950014E0,7.352686402E0
3.270750572E0,2.719500065E-1,-7.297050476E0,-1.363950014E0,7.428409123E0
3.272713828E0,2.340000123E-1,-7.450050354E0,-1.402050018E0,7.584441346E0
3.274677034E0,2.340000123E-1,-7.603050232E0,-1.402050018E0,7.734783325E0
3.276640314E0,2.719500065E-1,-7.717950344E0,-1.441050053E0,7.856038415E0
3.278603572E0,2.719500065E-1,-7.833000183E0,-1.479000092E0,7.976044756E0
3.280566979E0,3.490500152E-1,-7.872000217E0,-1.363950014E0,7.996910840E0
3.282530342E0,5.020500422E-1,-7.872000217E0,-1.249050021E0,7.986273701E0
3.284494271E0,5.790000558E-1,-7.795050144E0,-1.057050109E0,7.887674103E0
3.286458034E0,6.940500140E-1,-7.564950466E0,-8.659500480E-1,7.645917241E0
3.288420409E0,6.169500351E-1,-7.105050564E0,-4.440000355E-1,7.145593530E0
3.290383190E0,5.410500169E-1,-6.529950142E0,-1.369500011E-1,6.553757646E0
3.292346136E0,4.260000288E-1,-5.955000401E0,5.295000225E-2,5.970453040E0
3.294309034E0,3.109500110E-1,-5.419050217E0,1.680000126E-1,5.430563430E0
3.296272187E0,3.490500152E-1,-4.804950237E0,1.680000126E-1,4.820540084E0
3.298235265E0,3.870000243E-1,-4.306950092E0,1.680000126E-1,4.327564225E0
3.300199558E0,5.410500169E-1,-3.808950186E0,1.680000126E-1,3.850851937E0
3.302163495E0,7.320000529E-1,-3.349050045E0,1.300500035E-1,3.430579147E0
3.304125570E0,9.619500637E-1,-2.965950251E0,2.070000172E-1,3.124909250E0
3.306088190E0,1.114950061E0,-2.697000027E0,3.600000143E-1,2.940497032E0
