"Time (s)","Acceleration x (m/s^2)","Acceleration y (m/s^2)","Acceleration z (m/s^2)","Absolute acceleration (m/s^2)"
3.332225300E-2,2.227050066E0,-2.059500068E-1,7.050000429E-1,2.345035706E0
3.528497900E-2,2.419050217E0,-1.290000081E-1,8.200500607E-1,2.557523618E0
3.725025400E-2,2.649000168E0,-9.105000645E-2,8.200500607E-1,2.774522318E0
3.921349400E-2,2.917050123E0,-1.500000060E-2,8.580000401E-1,3.040652971E0
4.117733000E-2,3.184950113E0,9.900000691E-2,8.580000401E-1,3.299980651E0
4.314119100E-2,3.376950264E0,2.140500098E-1,8.959500194E-1,3.500333831E0
4.510503500E-2,3.645000219E0,2.910000086E-1,1.087950110E0,3.815015471E0
4.706924200E-2,3.837000132E0,4.440000355E-1,1.165050030E0,4.034482323E0
4.903334200E-2,4.143000126E0,5.980500579E-1,1.279950023E0,4.377257815E0
5.099732600E-2,4.411950111E0,8.280000687E-1,1.165050030E0,4.637696570E0
5.296134400E-2,4.642050266E0,9.810000658E-1,1.050000072E0,4.859371560E0
5.492531700E-2,4.909950256E0,1.096050024E0,8.959500194E-1,5.109957300E0
5.688932000E-2,5.254950047E0,1.326000094E0,8.959500194E-1,5.493223341E0
5.885309400E-2,5.370000362E0,1.708950043E0,1.087950110E0,5.739429378E0
6.081693600E-2,5.560950279E0,2.016000032E0,1.624950051E0,6.134238894E0
6.278082700E-2,5.523000240E0,2.398950100E0,2.583000183E0,6.552128141E0
6.474470300E-2,5.560950279E0,2.859000206E0,3.771000147E0,7.301951266E0
6.670836500E-2,5.331000328E0,3.319050074E0,4.959000111E0,8.001708567E0
6.867209000E-2,5.062950134E0,3.817050219E0,6.109050274E0,8.804761875E0
7.063613600E-2,4.756950378E0,4.392000198E0,6.913950443E0,9.472114515E0
7.260008800E-2,4.335000038E0,4.890000343E0,7.564950466E0,9.996639648E0
7.456409600E-2,3.990000248E0,5.427000046E0,7.909950256E0,1.038940540E1
7.652808800E-2,3.568050146E0,6.117000103E0,7.909950256E0,1.061677847E1
7.849166500E-2,3.147000074E0,6.844950199E0,7.603950500E0,1.070406539E1
8.045537700E-2,2.686950207E0,7.612050533E0,6.913950443E0,1.062853355E1
8.241906600E-2,2.341950178E0,8.493000031E0,5.878950119E0,1.059140381E1
8.438276200E-2,2.074050188E0,9.183000565E0,4.000950336E0,1.022921244E1
8.634663300E-2,2.035050154E0,9.835050583E0,1.893000126E0,1.022022987E1
8.831045200E-2,2.111999989E0,1.037100029E1,6.660000086E-1,1.060479830E1
9.027482000E-2,1.804950118E0,1.094595051E1,-3.670500219E-1,1.109983798E1
9.223904400E-2,1.114950061E0,1.186605072E1,-1.363950014E0,1.199610908E1
9.420192500E-2,8.100000024E-2,1.316895103E1,-2.322000027E0,1.337234147E1
9.616520000E-2,-1.260000110E0,1.462605095E1,-3.280050039E0,1.504219714E1
9.812918800E-2,-2.793000221E0,1.646505165E1,-3.625050068E0,1.708917096E1
1.000929670E-1,-4.210950375E0,1.853505135E1,-3.394950151E0,1.930818267E1
1.020566070E-1,-5.782950401E0,2.095005035E1,-3.127050161E0,2.195735794E1
1.040203150E-1,-7.354050159E0,2.397795105E1,-2.551950216E0,2.520985205E1
1.059843190E-1,-8.848950386E0,2.731200218E1,-2.092050076E0,2.878586562E1
1.079482360E-1,-9.999000549E0,3.072300148E1,-1.824000120E0,3.236062126E1
1.099121160E-1,-1.091805077E1,3.436395264E1,-1.708950043E0,3.609716864E1
1.118760070E-1,-1.187700081E1,3.827400208E1,-1.555950046E0,4.010465514E1
1.138398400E-1,-1.287300014E1,4.225995255E1,-1.708950043E0,4.421015983E1
1.158036940E-1,-1.341000080E1,4.628400040E1,-2.130000114E0,4.823456971E1
1.177675390E-1,-1.341000080E1,4.988700104E1,-2.398950100E0,5.171359546E1
1.197313860E-1,-1.341000080E1,5.318295288E1,-3.165000200E0,5.493880072E1
1.216950070E-1,-1.283505058E1,5.509995270E1,-3.894000292E0,5.670896357E1
1.236586940E-1,-1.191495037E1,5.598105240E1,-4.237950325E0,5.739167616E1
1.256224170E-1,-1.076505089E1,5.594295120E1,-4.507050037E0,5.714729749E1
1.275861400E-1,-9.232050896E0,5.517600250E1,-4.660050392E0,5.613678015E1
1.295501430E-1,-7.468950272E0,5.391105270E1,-4.468050003E0,5.460906786E1
1.315140630E-1,-5.514000416E0,5.145795059E1,-4.353000164E0,5.193528175E1
1.334778970E-1,-3.865950108E0,4.816200256E1,-4.162050247E0,4.849584233E1
1.354417570E-1,-3.100050211E0,4.432995224E1,-4.162050247E0,4.463269697E1
1.374055810E-1,-2.869950056E0,4.076505280E1,-4.660050392E0,4.113079397E1
1.393694290E-1,-2.830950022E0,3.766095352E1,-5.197050095E0,3.812310360E1
1.413330950E-1,-2.640000105E0,3.486300278E1,-5.848050117E0,3.544852964E1
1.432968140E-1,-2.448000193E0,3.244800186E1,-6.460950375E0,3.317543383E1
1.452606810E-1,-2.218050003E0,3.034005165E1,-6.997950554E0,3.121553767E1
1.472245040E-1,-2.103000164E0,2.838495064E1,-7.611000538E0,2.946277926E1
1.491883640E-1,-1.873050094E0,2.681400108E1,-7.995000362E0,2.804316319E1
1.511521120E-1,-1.567050099E0,2.535705185E1,-8.263050079E0,2.671542104E1
1.531161540E-1,-1.183050036E0,2.397795105E1,-8.530950546E0,2.547781115E1
1.550801100E-1,-9.150000215E-1,2.267400169E1,-8.569950104E0,2.425678508E1
1.570438930E-1,-6.850500107E-1,2.160105133E1,-8.608050346E0,2.326313055E1
1.590077270E-1,-4.930500090E-1,2.060505104E1,-8.493000031E0,2.229220214E1
1.609712320E-1,-5.320500135E-1,1.999200058E1,-8.377950668E0,2.168301690E1
1.629348530E-1,-5.320500135E-1,1.922504997E1,-8.224950790E0,2.091734780E1
1.648986920E-1,-6.850500107E-1,1.853505135E1,-8.185950279E0,2.027380586E1
1.668624670E-1,-9.150000215E-1,1.807500076E1,-8.110050201E0,1.983219080E1
1.688265060E-1,-1.260000110E0,1.765395164E1,-8.071050644E0,1.945228695E1
1.707904670E-1,-1.567050099E0,1.723200035E1,-7.995000362E0,1.906088961E1
1.727543340E-1,-1.681950092E0,1.681005096E1,-7.726050377E0,1.857683030E1
1.747182330E-1,-1.873050094E0,1.635000038E1,-7.534950256E0,1.809989791E1
1.766820250E-1,-1.795950055E0,1.592895031E1,-7.305000305E0,1.761589975E1
1.786458480E-1,-1.834950089E0,1.546905041E1,-6.921000481E0,1.704578570E1
1.806095630E-1,-1.795950055E0,1.497105026E1,-6.538050175E0,1.643483747E1
1.825733100E-1,-1.720050097E0,1.451100063E1,-6.001950264E0,1.579718705E1
1.845369720E-1,-1.642950058E0,1.408905029E1,-5.542050362E0,1.522875390E1
1.865006740E-1,-1.375050068E0,1.366695023E1,-5.158050060E0,1.467248348E1
1.884643650E-1,-1.183050036E0,1.320795059E1,-4.698000431E0,1.406843183E1
1.904280590E-1,-9.529500604E-1,1.290105057E1,-4.545000076E0,1.371139108E1
1.923920650E-1,-6.850500107E-1,1.259400082E1,-4.276950359E0,1.331804995E1
1.943559800E-1,-3.400500119E-1,1.228800011E1,-3.931950092E0,1.290623152E1
1.963196670E-1,-1.870500147E-1,1.201905060E1,-3.319050074E0,1.247031108E1
1.982834300E-1,4.200000316E-2,1.167405033E1,-2.782050133E0,1.200104237E1
2.002469300E-1,3.490500152E-1,1.117605019E1,-2.206950188E0,1.139721733E1
2.022105070E-1,3.490500152E-1,1.067805004E1,-1.594050050E0,1.080201760E1
2.041742180E-1,1.960500032E-1,1.002600002E1,-1.479000092E0,1.013639745E1
2.061378890E-1,4.200000316E-2,9.336000443E0,-1.249050021E0,9.419277797E0
2.081017160E-1,-3.299999982E-2,8.569950104E0,-1.134000063E0,8.644714566E0
2.100655000E-1,-1.870500147E-1,7.918050289E0,-9.040500522E-1,7.971688315E0
2.120293570E-1,4.050000105E-3,7.228050232E0,-7.120500207E-1,7.263039432E0
2.139931920E-1,4.050000105E-3,6.499950409E0,-4.819500148E-1,6.517794684E0
2.159570400E-1,8.100000024E-2,5.809950352E0,-5.970000029E-1,5.841103756E0
2.179208840E-1,8.100000024E-2,5.082000256E0,-8.269500136E-1,5.149478995E0
2.198849010E-1,4.200000316E-2,4.431000233E0,-9.040500522E-1,4.522480908E0
2.218488740E-1,-3.299999982E-2,3.817050219E0,-9.040500522E-1,3.922788277E0
2.238128790E-1,-2.250000089E-1,3.241950035E0,-7.890000343E-1,3.344157007E0
2.257768740E-1,-1.480500102E-1,2.706000090E0,-3.670500219E-1,2.734790853E0
2.277399750E-1,-7.200000435E-2,2.245950222E0,2.070000172E-1,2.256618135E0
2.297033380E-1,-1.480500102E-1,1.747950077E0,1.087950110E0,2.064190815E0
2.316668870E-1,-7.200000435E-2,1.363950014E0,1.624950051E0,2.122735573E0
2.336303940E-1,-7.200000435E-2,9.040500522E-1,1.855050087E0,2.064873198E0
2.355941630E-1,-3.299999982E-2,4.060500264E-1,1.701000094E0,1.749104612E0
2.375578550E-1,-3.299999982E-2,-1.500000060E-2,1.548000097E0,1.548424458E0
2.395225840E-1,4.200000316E-2,-3.210000098E-1,1.471050024E0,1.506251367E0
2.414870090E-1,1.960500032E-1,-7.810500264E-1,1.240950108E0,1.479334958E0
2.434509950E-1,2.340000123E-1,-1.356000066E0,8.959500194E-1,1.642016632E0
2.454150690E-1,3.490500152E-1,-1.816050053E0,5.509500504E-1,1.929616455E0
2.473796410E-1,5.790000558E-1,-2.314050198E0,3.600000143E-1,2.412399095E0
2.493440670E-1,8.089500666E-1,-2.851050138E0,3.600000143E-1,2.985378889E0
2.513078150E-1,1.000050068E0,-3.387000084E0,3.600000143E-1,3.549854887E0
2.532717610E-1,1.192050099E0,-4.000950336E0,3.979500234E-1,4.193679918E0
2.552357440E-1,1.306950092E0,-4.537050247E0,3.600000143E-1,4.735244819E0
2.571997020E-1,1.537050128E0,-5.035050392E0,5.130000114E-1,5.289369013E0
2.591633950E-1,1.690050125E0,-5.494950294E0,7.050000429E-1,5.792043959E0
2.611271650E-1,1.920000076E0,-5.994000435E0,8.959500194E-1,6.357449799E0
2.630913390E-1,2.074050188E0,-6.454050541E0,1.165050030E0,6.878502318E0
2.650553940E-1,2.341950178E0,-6.913050175E0,1.471050024E0,7.445735795E0
2.670190700E-1,2.457000017E0,-7.372950554E0,1.663050056E0,7.947514356E0
2.689828570E-1,2.572050095E0,-7.717950344E0,1.893000126E0,8.352583354E0
2.709467130E-1,2.649000168E0,-8.025000572E0,2.275950193E0,8.752016074E0
2.729105480E-1,2.649000168E0,-8.254950523E0,2.583000183E0,9.046175986E0
2.748743960E-1,2.610000134E0,-8.446949959E0,2.889000177E0,9.301042217E0
2.768382400E-1,2.610000134E0,-8.677050591E0,3.118950129E0,9.582857484E0
2.788022310E-1,2.419050217E0,-8.791950226E0,3.349050045E0,9.714233317E0
2.807661720E-1,2.227050066E0,-8.907000542E0,3.618000269E0,9.868350247E0
2.827296880E-1,2.111999989E0,-8.868000031E0,3.847950220E0,9.894881980E0
2.846933280E-1,1.920000076E0,-8.752950668E0,4.308000088E0,9.942806970E0
2.866575240E-1,1.575000048E0,-8.562000275E0,4.690950394E0,9.889059078E0
2.886215570E-1,1.306950092E0,-8.370000839E0,5.112000465E0,9.894320661E0
2.905855430E-1,1.230000019E0,-7.948050499E0,5.533950329E0,9.762633509E0
2.925495500E-1,1.230000019E0,-7.527000427E0,6.070950508E0,9.748080609E0
2.945137730E-1,1.575000048E0,-6.990000248E0,6.531000137E0,9.695085941E0
2.964779320E-1,2.035050154E0,-6.415050507E0,6.876000404E0,9.621521901E0
2.984419060E-1,2.188950062E0,-5.802000046E0,6.913950443E0,9.287487154E0
3.004059340E-1,2.227050066E0,-5.112000465E0,6.454050541E0,8.529189243E0
3.023696840E-1,2.380050182E0,-4.461000443E0,6.186000347E0,7.989478338E0
3.043335300E-1,2.494950056E0,-3.732000113E0,6.147000313E0,7.611715540E0
3.062975550E-1,2.764050245E0,-3.234000206E0,6.876000404E0,8.085673296E0
3.082615280E-1,2.878050089E0,-2.736000061E0,6.684000492E0,7.774620970E0
3.102253530E-1,2.839950085E0,-2.351999998E0,6.376950264E0,7.366323041E0
3.121892220E-1,2.955000162E0,-1.930950046E0,6.031950474E0,6.988921273E0
3.141532330E-1,2.917050123E0,-1.663050056E0,5.878950119E0,6.770300688E0
3.161172100E-1,2.839950085E0,-1.279050112E0,5.572050095E0,6.383496528E0
3.180810800E-1,2.764050245E0,-9.340500236E-1,5.151000023E0,5.919900712E0
3.200449810E-1,2.610000134E0,-7.039500475E-1,4.614000320E0,5.347583129E0
3.220087730E-1,2.419050217E0,-3.589500189E-1,4.192950249E0,4.854016981E0
3.239725970E-1,2.111999989E0,-9.105000645E-2,3.694050074E0,4.256153193E0
3.259359200E-1,1.843950033E0,2.140500098E-1,3.081000090E0,3.597016915E0
3.278993800E-1,1.651950121E0,5.209500194E-1,2.506050110E0,3.046410228E0
3.298634720E-1,1.422000051E0,7.510500550E-1,1.893000126E0,2.483869925E0
3.318273780E-1,1.306950092E0,9.810000658E-1,1.432950020E0,2.173436319E0
3.337918000E-1,1.269000053E0,1.173000097E0,9.730500579E-1,1.983208708E0
3.357560700E-1,1.153950095E0,1.326000094E0,4.360500276E-1,1.811081638E0
3.377205160E-1,1.039050102E0,1.518000126E0,-6.105000153E-2,1.840564207E0
3.396849450E-1,8.850000501E-1,1.747950077E0,-5.970000029E-1,2.048161020E0
3.416486930E-1,7.699500322E-1,1.939050078E0,-1.018950105E0,2.321852186E0
3.436126400E-1,6.169500351E-1,2.208000183E0,-1.479000092E0,2.728247317E0
3.455760630E-1,4.260000288E-1,2.398950100E0,-1.786050081E0,3.020995283E0
3.475396400E-1,3.870000243E-1,2.743950129E0,-2.130000114E0,3.495129728E0
3.495035310E-1,2.719500065E-1,3.012000084E0,-2.398950100E0,3.860189489E0
3.514673300E-1,2.340000123E-1,3.357000113E0,-2.551950216E0,4.223346501E0
3.534313650E-1,2.719500065E-1,3.625950098E0,-2.667000055E0,4.509363615E0
3.553953300E-1,2.719500065E-1,3.931950092E0,-2.551950216E0,4.695384781E0
3.573593360E-1,3.109500110E-1,4.201050282E0,-2.398950100E0,4.847728845E0
3.593233300E-1,3.870000243E-1,4.468950272E0,-2.206950188E0,4.999191403E0
3.612869980E-1,4.639500082E-1,4.621950150E0,-1.939050078E0,5.033645598E0
3.632507750E-1,3.870000243E-1,4.890000343E0,-1.708950043E0,5.194456913E0
3.652145870E-1,3.109500110E-1,5.119950294E0,-1.479000092E0,5.338353885E0
3.671783880E-1,2.340000123E-1,5.311950207E0,-1.402050018E0,5.498846721E0
3.691424220E-1,8.100000024E-2,5.503950119E0,-1.516950130E0,5.709743042E0
3.711063880E-1,-7.200000435E-2,5.619000435E0,-1.594050050E0,5.841176718E0
3.730704040E-1,-2.250000089E-1,5.734050274E0,-1.786050081E0,6.009986060E0
3.750343980E-1,-4.170000255E-1,5.772000313E0,-2.092050076E0,6.153580271E0
3.769985800E-1,-5.320500135E-1,5.772000313E0,-2.437050104E0,6.287947045E0
3.789627060E-1,-6.850500107E-1,5.734050274E0,-2.782050133E0,6.410025663E0
3.809266850E-1,-7.999500632E-1,5.656950474E0,-2.974050045E0,6.440961298E0
3.828907080E-1,-8.380500674E-1,5.580000401E0,-3.012000084E0,6.396161106E0
3.848545040E-1,-8.770500422E-1,5.389050484E0,-2.820000172E0,6.145199985E0
3.868183800E-1,-8.770500422E-1,5.158950329E0,-2.398950100E0,5.756643714E0
3.887822210E-1,-7.999500632E-1,5.005050182E0,-1.786050081E0,5.374050830E0
3.907460720E-1,-7.620000243E-1,4.774950027E0,-1.057050109E0,4.949560257E0
3.927091970E-1,-6.850500107E-1,4.621950150E0,-2.205000073E-2,4.672494292E0
3.946725340E-1,-6.469500065E-1,4.507050037E0,1.624950051E0,4.834512077E0
3.966364920E-1,-5.320500135E-1,4.507050037E0,3.847950220E0,5.950067071E0
3.986002820E-1,-3.400500119E-1,4.545000076E0,6.415950298E0,7.870011305E0
4.005644990E-1,-2.250000089E-1,4.660050392E0,9.175050735E0,1.029311666E1
4.025285900E-1,1.189500093E-1,4.966950417E0,1.182000065E1,1.282174563E1
4.044936560E-1,4.260000288E-1,5.311950207E0,1.400400066E1,1.498366863E1
4.064584360E-1,9.240000248E-1,5.772000313E0,1.538400078E1,1.645713352E1
4.084224890E-1,1.306950092E0,6.270000458E0,1.595895100E1,1.719619554E1
4.103867510E-1,1.498950124E0,6.883050442E0,1.549905109E1,1.702480014E1
4.123506610E-1,1.804950118E0,7.765050411E0,1.415805054E1,1.624820753E1
4.143146740E-1,2.035050154E0,8.914950371E0,1.228005028E1,1.531069574E1
4.162784910E-1,2.304000139E0,1.029495049E1,1.032495022E1,1.476140302E1
4.182423660E-1,2.533950090E0,1.182795048E1,8.217000008E0,1.462328297E1
4.202063760E-1,2.572050095E0,1.385895061E1,6.147000313E0,1.537763202E1
4.221703540E-1,2.341950178E0,1.600500107E1,3.463950157E0,1.654218065E1
4.241349440E-1,1.690050125E0,1.880295181E1,8.200500607E-1,1.889655388E1
4.260993540E-1,1.114950061E0,2.229105186E1,-1.287000060E0,2.235599419E1
4.280631050E-1,6.169500351E-1,2.585595131E1,-2.859000206E0,2.602085179E1
4.300270490E-1,6.550500393E-1,2.991795158E1,-4.276950359E0,3.022921140E1
4.319909930E-1,8.850000501E-1,3.405795288E1,-5.617950439E0,3.452953441E1
4.339549510E-1,1.039050102E0,3.789105225E1,-6.652950287E0,3.848471402E1
4.359184630E-1,1.882050037E0,4.057305145E1,-7.342950344E0,4.127509584E1
4.378821060E-1,4.143000126E0,4.214505386E1,-7.726050377E0,4.304720513E1
4.398456260E-1,6.903000355E0,4.256595230E1,-7.534950256E0,4.377541758E1
4.418091830E-1,9.163949966E0,4.214505386E1,-6.960000515E0,4.368781468E1
4.437728160E-1,1.081200027E1,4.176195145E1,-5.464950085E0,4.348362471E1
4.457364520E-1,1.085100079E1,4.134000015E1,-4.774950027E0,4.300627836E1
4.477003790E-1,8.818950653E0,4.053495026E1,-4.468050003E0,4.172312972E1
4.496642210E-1,4.833000183E0,3.923205185E1,-3.817050219E0,3.971248740E1
4.516273030E-1,1.039050102E0,3.723900223E1,-3.049950123E0,3.737813676E1
4.535906080E-1,-1.987950087E0,3.459405136E1,-2.820000172E0,3.476568331E1
4.555547470E-1,-4.173000336E0,3.145095062E1,-3.472050190E0,3.191600475E1
4.575186590E-1,-5.859000206E0,2.815500069E1,-4.507050037E0,2.910919867E1
4.594826290E-1,-7.086000443E0,2.508900070E1,-5.772000313E0,2.670178545E1
4.614465820E-1,-8.158950806E0,2.271300125E1,-6.615000248E0,2.502413100E1
4.634102760E-1,-8.695050240E0,2.106495094E1,-6.652950287E0,2.374021492E1
4.653740460E-1,-8.044050217E0,1.983795166E1,-5.848050117E0,2.219123160E1
4.673376960E-1,-6.741000175E0,1.895700073E1,-4.966950417E0,2.072388855E1
4.693014010E-1,-6.013050079E0,1.842000008E1,-4.047000408E0,1.979473128E1
4.712654510E-1,-5.974050522E0,1.815195084E1,-3.319050074E0,1.939584214E1
4.732293990E-1,-6.357000351E0,1.799805069E1,-2.974050045E0,1.931802929E1
4.751932290E-1,-6.931950092E0,1.792200089E1,-2.974050045E0,1.944466563E1
4.771570930E-1,-7.392000198E0,1.769205093E1,-3.127050161E0,1.942752624E1
4.791207390E-1,-7.852050304E0,1.746195030E1,-3.510000229E0,1.946521266E1
4.810844290E-1,-8.236050606E0,1.723200035E1,-4.123950005E0,1.953922540E1
4.830479870E-1,-8.619000435E0,1.700205040E1,-4.774950027E0,1.965087871E1
4.850115830E-1,-9.154950142E0,1.673400116E1,-5.119950294E0,1.974977969E1
4.869751120E-1,-9.462000847E0,1.638899994E1,-5.388000488E0,1.967636471E1
4.889386600E-1,-9.691950798E0,1.615904999E1,-5.656950474E0,1.967358370E1
4.909023660E-1,-9.654000282E0,1.588995075E1,-6.001950264E0,1.953749378E1
4.928660330E-1,-9.691950798E0,1.566000080E1,-6.232050419E0,1.944242752E1
4.948300900E-1,-9.654000282E0,1.543095112E1,-6.423000336E0,1.930204412E1
4.967940330E-1,-9.499950409E0,1.527705097E1,-6.307950497E0,1.906377674E1
4.987581780E-1,-9.079050064E0,1.508595085E1,-6.117000103E0,1.863954810E1
5.007222630E-1,-8.772000313E0,1.493205070E1,-5.887050152E0,1.829129540E1
5.026857350E-1,-8.311950684E0,1.466400051E1,-5.580000401E0,1.775550167E1
5.046494000E-1,-8.158950806E0,1.443405056E1,-5.388000488E0,1.743389925E1
5.066132770E-1,-8.197050095E0,1.420395088E1,-4.927950382E0,1.712391736E1
5.085770910E-1,-8.005949974E0,1.424205112E1,-4.507050037E0,1.694829653E1
5.105409430E-1,-7.699050426E0,1.431900024E1,-4.237950325E0,1.680087404E1
5.125047830E-1,-7.315950394E0,1.447200108E1,-4.084949970E0,1.672270198E1
5.144687450E-1,-7.315950394E0,1.481700039E1,-3.739950180E0,1.694266384E1
5.164326860E-1,-7.239000320E0,1.516200066E1,-3.472050190E0,1.715647173E1
5.183965170E-1,-7.009050369E0,1.546905041E1,-3.394950151E0,1.731889125E1
5.203603800E-1,-6.856050491E0,1.585200119E1,-3.049950123E0,1.753834558E1
5.223244020E-1,-6.625950336E0,1.635000038E1,-2.896950245E0,1.787786483E1
5.242883780E-1,-6.166050434E0,1.665705109E1,-2.974050045E0,1.800895618E1
5.262522770E-1,-5.553000450E0,1.692495155E1,-2.820000172E0,1.803447255E1
5.282161790E-1,-5.016000271E0,1.707900047E1,-2.551950216E0,1.798235151E1
5.301807350E-1,-4.288050175E0,1.719405174E1,-2.206950188E0,1.785758715E1
5.321451000E-1,-3.828000069E0,1.730895042E1,-2.014950037E0,1.784133888E1
5.341084530E-1,-3.445050240E0,1.738500023E1,-1.516950130E0,1.778785377E1
5.360721020E-1,-3.175950050E0,1.730895042E1,-7.510500550E-1,1.761392914E1
5.380358360E-1,-3.100050211E0,1.707900047E1,-1.369500011E-1,1.735860950E1
5.399995520E-1,-3.022950172E0,1.669500160E1,2.070000172E-1,1.696773866E1
5.419625200E-1,-3.138000250E0,1.631204987E1,4.750500321E-1,1.661793275E1
5.439257080E-1,-3.291000128E0,1.592895031E1,7.429500222E-1,1.628232522E1
5.458898460E-1,-3.483000278E0,1.550700092E1,8.580000401E-1,1.591648619E1
5.478537060E-1,-3.636000156E0,1.508595085E1,8.200500607E-1,1.553959112E1
5.498180260E-1,-3.712950230E0,1.458705044E1,5.509500504E-1,1.506225700E1
5.517822250E-1,-3.712950230E0,1.393605042E1,3.600000143E-1,1.442668017E1
5.537469570E-1,-3.790050268E0,1.324605083E1,1.680000126E-1,1.377862721E1
5.557115320E-1,-3.790050268E0,1.263300037E1,5.295000225E-2,1.318938904E1
5.576754340E-1,-3.712950230E0,1.205805016E1,-1.759500057E-1,1.261798444E1
5.596395340E-1,-3.559950113E0,1.167405033E1,-4.819500148E-1,1.221429375E1
5.616033020E-1,-3.367950201E0,1.144395065E1,-1.171950102E0,1.198668270E1
5.635671600E-1,-3.022950172E0,1.106100082E1,-1.977000117E0,1.163582814E1
5.655311830E-1,-2.640000105E0,1.071600056E1,-2.667000055E0,1.135408111E1
5.674951580E-1,-2.256000042E0,1.041000080E1,-3.319050074E0,1.115678028E1
5.694589830E-1,-1.834950089E0,1.002600002E1,-3.472050190E0,1.076767620E1
5.714228520E-1,-1.489950061E0,9.643050194E0,-3.319050074E0,1.030652520E1
5.733872740E-1,-1.336950064E0,9.336000443E0,-2.935050249E0,9.877391341E0
5.753515370E-1,-1.222050071E0,9.067950249E0,-2.667000055E0,9.530688190E0
5.773154480E-1,-1.144950032E0,8.800050735E0,-2.169000149E0,9.135445537E0
5.792794620E-1,-1.106999993E0,8.532000542E0,-1.594050050E0,8.749941588E0
5.812434600E-1,-1.144950032E0,8.340000153E0,-1.057050109E0,8.484330737E0
5.832074620E-1,-1.260000110E0,8.263050079E0,-4.060500264E-1,8.368421208E0
5.851705660E-1,-1.144950032E0,8.302050591E0,4.360500276E-1,8.391966052E0
5.871339290E-1,-8.770500422E-1,8.377950668E0,1.203000069E0,8.509199924E0
5.890977210E-1,-3.780000210E-1,8.377950668E0,1.510050058E0,8.521337489E0
5.910613880E-1,4.200000316E-2,8.493000031E0,1.432950020E0,8.613138759E0
5.930259410E-1,5.020500422E-1,8.532000542E0,1.318050027E0,8.647794133E0
5.949902350E-1,1.114950061E0,8.532000542E0,1.087950110E0,8.673049194E0
5.969543600E-1,1.498950124E0,8.416950226E0,1.203000069E0,8.633603636E0
5.989185390E-1,1.996950150E0,8.263050079E0,1.816050053E0,8.692746649E0
6.008826890E-1,2.494950056E0,8.110050201E0,2.965950251E0,8.988578917E0
6.028468470E-1,2.878050089E0,7.803000450E0,4.345950127E0,9.383883569E0
6.048106390E-1,3.300000191E0,7.420050144E0,5.533950329E0,9.827092736E0
6.067745390E-1,3.682950258E0,6.997950554E0,6.568950176E0,1.028039595E1
6.087389210E-1,4.143000126E0,6.577050209E0,7.450050354E0,1.076686072E1
6.107031580E-1,4.450050354E0,6.154950142E0,7.987050533E0,1.102176645E1
6.126671180E-1,4.872000217E0,5.695050240E0,8.179050446E0,1.109354991E1
6.146311600E-1,5.215950012E0,5.082000256E0,7.909950256E0,1.075175214E1
6.165949720E-1,5.485050201E0,4.468950272E0,7.182000160E0,1.008158810E1
6.185588520E-1,5.676000118E0,3.856050253E0,5.917050362E0,9.060771815E0
6.205228530E-1,5.983050346E0,3.241950035E0,4.384050369E0,8.094876720E0
6.224868310E-1,6.289950371E0,2.706000090E0,3.081000090E0,7.508560029E0
6.244508350E-1,6.634950161E0,2.131050110E0,1.930950046E0,7.231355771E0
6.264148310E-1,6.865050316E0,1.555950046E0,1.432950020E0,7.183539667E0
6.283788770E-1,7.018050194E0,9.040500522E-1,1.395000100E0,7.212236844E0
6.303429080E-1,6.940950394E0,2.140500098E-1,1.510050058E0,7.106536495E0
6.323076380E-1,6.520050526E0,-2.440500110E-1,1.930950046E0,6.804350619E0
6.342721530E-1,5.830050468E0,-6.660000086E-1,2.545050144E0,6.396117941E0
6.362362460E-1,5.215950012E0,-1.126049995E0,3.234000206E0,6.239621820E0
6.382004620E-1,4.297049999E0,-1.432950020E0,3.618000269E0,5.797232995E0
6.401645600E-1,3.645000219E0,-1.816050053E0,3.388050079E0,5.297447285E0
6.421286930E-1,3.070050240E0,-2.314050198E0,3.043050051E0,4.903079685E0
6.440923200E-1,2.610000134E0,-2.697000027E0,2.736000061E0,4.644524322E0
6.460560880E-1,2.341950178E0,-3.157050133E0,2.698050022E0,4.767721689E0
6.480199910E-1,2.074050188E0,-3.502050161E0,2.583000183E0,4.820573561E0
6.499838550E-1,1.882050037E0,-3.924000263E0,2.620950222E0,5.080282519E0
6.519476540E-1,1.882050037E0,-4.269000053E0,2.773950100E0,5.427823961E0
6.539114730E-1,1.614000082E0,-4.614000320E0,2.889000177E0,5.678055763E0
6.558753270E-1,1.614000082E0,-4.996950150E0,3.004050255E0,6.049696273E0
6.578391670E-1,1.459950089E0,-5.265000343E0,3.081000090E0,6.272499058E0
6.598030590E-1,1.306950092E0,-5.494950294E0,3.118950129E0,6.452166085E0
6.617669360E-1,1.269000053E0,-5.610000134E0,3.081000090E0,6.524953960E0
6.637310930E-1,1.153950095E0,-5.686950207E0,2.965950251E0,6.516890698E0
6.656951670E-1,9.240000248E-1,-5.649000168E0,2.736000061E0,6.344341989E0
6.676591410E-1,8.470500112E-1,-5.533950329E0,2.545050144E0,6.149746352E0
6.696231550E-1,6.550500393E-1,-5.380050182E0,2.275950193E0,5.878263332E0
6.715870170E-1,6.169500351E-1,-5.304000378E0,1.930950046E0,5.678170078E0
6.735509240E-1,6.550500393E-1,-5.227050304E0,1.740000129E0,5.547859577E0
6.755148940E-1,7.699500322E-1,-5.188950062E0,1.471050024E0,5.448120223E0
6.774788450E-1,8.089500666E-1,-5.149950027E0,1.356000066E0,5.386568636E0
6.794431090E-1,7.699500322E-1,-4.882050037E0,1.126049995E0,5.069045690E0
6.814072600E-1,5.790000558E-1,-4.614000320E0,8.959500194E-1,4.735711822E0
6.833704690E-1,5.020500422E-1,-4.345950127E0,6.280500293E-1,4.419704016E0
6.853339540E-1,4.260000288E-1,-4.153950214E0,3.600000143E-1,4.191226362E0
6.872991680E-1,4.260000288E-1,-4.039050102E0,1.680000126E-1,4.064926292E0
6.892638750E-1,3.870000243E-1,-3.808950186E0,5.295000225E-2,3.828925990E0
6.912275990E-1,2.340000123E-1,-3.694050074E0,1.300500035E-1,3.703737971E0
6.931915940E-1,1.570500135E-1,-3.387000084E0,2.070000172E-1,3.396952058E0
6.951550540E-1,4.200000316E-2,-3.042000055E0,3.979500234E-1,3.068206733E0
6.971186700E-1,-7.200000435E-2,-2.697000027E0,5.130000114E-1,2.746299721E0
6.990830960E-1,-1.099500060E-1,-2.467050076E0,8.959500194E-1,2.627004286E0
7.010472840E-1,-1.099500060E-1,-2.238000154E0,1.011000037E0,2.458221872E0
7.030115670E-1,-7.200000435E-2,-1.930950046E0,1.203000069E0,2.276172499E0
7.049758220E-1,4.050000105E-3,-1.738950133E0,1.279950023E0,2.159221163E0
7.069399600E-1,1.570500135E-1,-1.548000097E0,1.279950023E0,2.014755833E0
7.089041320E-1,3.870000243E-1,-1.471050024E0,1.165050030E0,1.916011160E0
7.108688230E-1,6.169500351E-1,-1.318050027E0,1.011000037E0,1.772005726E0
7.128333610E-1,8.470500112E-1,-1.203000069E0,7.050000429E-1,1.631480293E0
7.147981890E-1,1.077000022E0,-1.048950076E0,4.750500321E-1,1.576673030E0
7.167629180E-1,1.230000019E0,-7.810500264E-1,1.300500035E-1,1.462823364E0
7.187269740E-1,1.345050097E0,-6.660000086E-1,-6.105000153E-2,1.502146090E0
7.206912280E-1,1.459950089E0,-4.740000367E-1,-3.289500177E-1,1.569821140E0
7.226553650E-1,1.729050040E0,-3.979500234E-1,-5.209500194E-1,1.849153100E0
7.246195360E-1,2.074050188E0,-3.210000098E-1,-5.209500194E-1,2.162432452E0
7.265837050E-1,2.341950178E0,-2.059500068E-1,-4.819500148E-1,2.399879551E0
7.285478620E-1,2.610000134E0,-1.290000081E-1,-2.910000086E-1,2.629338834E0
7.305112940E-1,2.839950085E0,-9.105000645E-2,-9.900000691E-2,2.843133410E0
7.324749390E-1,3.108000040E0,9.900000691E-2,1.300500035E-1,3.112294693E0
7.344379180E-1,3.376950264E0,3.289500177E-1,3.979500234E-1,3.416191655E0
7.364010930E-1,3.682950258E0,6.739500165E-1,5.899500251E-1,3.790299759E0
7.383654190E-1,3.874950171E0,9.040500522E-1,7.429500222E-1,4.047779645E0
7.403294040E-1,4.182000160E0,1.173000097E0,9.349500537E-1,4.442880391E0
7.422936320E-1,4.450050354E0,1.479000092E0,1.087950110E0,4.813940680E0
7.442577890E-1,4.680000305E0,1.747950077E0,1.203000069E0,5.138573877E0
7.462221220E-1,4.909950256E0,2.092950106E0,1.356000066E0,5.506976289E0
7.481864040E-1,5.178000450E0,2.361000061E0,1.432950020E0,5.868505407E0
7.501506430E-1,5.485050201E0,2.590950012E0,1.432950020E0,6.233148758E0
7.521149150E-1,5.715000153E0,2.782050133E0,1.432950020E0,6.515702222E0
7.540792280E-1,5.905950069E0,2.974050045E0,1.165050030E0,6.714354881E0
7.560435290E-1,6.097950459E0,3.088950157E0,7.050000429E-1,6.871945716E0
7.580086040E-1,6.250950336E0,3.357000113E0,2.070000172E-1,7.098357477E0
7.599734520E-1,6.405000210E0,3.586950064E0,-1.759500057E-1,7.343105396E0
7.619373320E-1,6.481050491E0,3.741000175E0,-1.759500057E-1,7.485322718E0
7.639014780E-1,6.634950161E0,3.970950127E0,1.680000126E-1,7.734289402E0
7.658650470E-1,6.634950161E0,4.354050159E0,9.730500579E-1,7.995445131E0
7.678287860E-1,6.520050526E0,4.699050426E0,2.085000038E0,8.302972897E0
7.697928300E-1,6.097950459E0,5.350050449E0,4.078050137E0,9.079566758E0
7.717567840E-1,5.676000118E0,6.079050064E0,6.991050243E0,1.086492570E1
7.737208310E-1,5.101050377E0,6.768000126E0,1.021005058E1,1.326920019E1
7.756848550E-1,4.450050354E0,7.342950344E0,1.300800037E1,1.558620998E1
7.776488070E-1,3.874950171E0,7.918050289E0,1.503900051E1,1.743222004E1
7.796127810E-1,3.376950264E0,8.569950104E0,1.584405041E1,1.832707754E1
7.815767840E-1,2.802000046E0,9.412950516E0,1.553805065E1,1.838167184E1
7.835407790E-1,2.419050217E0,1.037100029E1,1.431105042E1,1.783859902E1
7.855044100E-1,2.457000017E0,1.110000038E1,1.228005028E1,1.673458970E1
7.874681550E-1,2.802000046E0,1.171305084E1,9.673050880E0,1.544715759E1
7.894318380E-1,3.147000074E0,1.232595062E1,6.492000103E0,1.428211236E1
7.913955400E-1,3.492000103E0,1.301595020E1,2.889000177E0,1.378242890E1
7.933601310E-1,3.529950142E0,1.382100105E1,-1.018950105E0,1.430100966E1
7.953244610E-1,3.184950113E0,1.489395046E1,-4.392000198E0,1.585128807E1
7.972884100E-1,2.227050066E0,1.673400116E1,-6.730050087E0,1.817361057E1
7.992524680E-1,9.240000248E-1,1.853505135E1,-8.263050079E0,2.031452439E1
8.012156020E-1,-7.620000243E-1,2.110305023E1,-8.722949982E0,2.284752130E1
8.031790060E-1,-2.869950056E0,2.474400139E1,-8.224950790E0,2.623265205E1
8.051432880E-1,-5.245950222E0,2.941995049E1,-6.576000214E0,3.059897480E1
8.071073120E-1,-7.546050549E0,3.470895004E1,-4.621950150E0,3.581921991E1
8.090713280E-1,-9.615000725E0,4.091805267E1,-3.127050161E0,4.214870954E1
8.110353330E-1,-1.164705086E1,4.743405151E1,-2.092050076E0,4.888782783E1
8.129995110E-1,-1.302600098E1,5.360505295E1,-1.210950017E0,5.517830011E1
8.149636390E-1,-1.394595051E1,5.908605194E1,-2.206950188E0,6.074966419E1
8.169272570E-1,-1.379295063E1,6.314805222E1,-2.590050220E0,6.468871885E1
8.188910250E-1,-1.291095066E1,6.552495575E1,-3.739950180E0,6.688945881E1
8.208548840E-1,-1.156995010E1,6.698100281E1,-5.119950294E0,6.816547787E1
8.228187160E-1,-9.499950409E0,6.790095520E1,-6.154950142E0,6.883801411E1
8.247827450E-1,-7.201050282E0,6.713400269E1,-6.460950375E0,6.782752628E1
8.267467160E-1,-4.363950253E0,6.479595184E1,-5.656950474E0,6.518865335E1
8.287117570E-1,-8.380500674E-1,6.069495392E1,-5.464950085E0,6.094625041E1
8.306764850E-1,2.111999989E0,5.471595383E1,-5.350050449E0,5.501744439E1
8.326405090E-1,3.300000191E0,4.846905136E1,-5.388000488E0,4.887913144E1
8.346047620E-1,2.419050217E0,4.321800232E1,-5.617950439E0,4.364869867E1
8.365678170E-1,1.192050099E0,3.896400070E1,-6.117000103E0,3.945924511E1
8.385312230E-1,1.570500135E-1,3.551399994E1,-6.691050529E0,3.613916177E1
8.404956850E-1,-4.549500346E-1,3.244800186E1,-7.189950466E0,3.323815867E1
8.424598370E-1,-7.999500632E-1,2.984205055E1,-7.534950256E0,3.078901390E1
8.444239910E-1,-1.030050039E0,2.769495201E1,-7.918050289E0,2.882302709E1
8.463881440E-1,-1.183050036E0,2.589405060E1,-8.224950790E0,2.719469212E1
8.483521190E-1,-1.183050036E0,2.432295036E1,-8.530950546E0,2.580276417E1
8.503161460E-1,-9.150000215E-1,2.298105049E1,-8.608050346E0,2.455737033E1
8.522803210E-1,-6.469500065E-1,2.175495148E1,-8.340000153E0,2.330776825E1
8.542444520E-1,-3.400500119E-1,2.068095016E1,-8.455050468E0,2.234513845E1
8.562084760E-1,-7.200000435E-2,1.964700127E1,-8.530950546E0,2.141931278E1
8.581725310E-1,4.200000316E-2,1.880295181E1,-8.340000153E0,2.056959804E1
8.601364760E-1,1.960500032E-1,1.803705025E1,-8.455050468E0,1.992138287E1
8.621004540E-1,3.109500110E-1,1.734705162E1,-8.683950424E0,1.940174953E1
8.640646820E-1,2.719500065E-1,1.673400116E1,-8.646000862E0,1.883757104E1
8.660288370E-1,2.719500065E-1,1.623495102E1,-8.608050346E0,1.837787045E1
8.679931510E-1,4.639500082E-1,1.573695087E1,-8.493000031E0,1.788848574E1
8.699574320E-1,6.550500393E-1,1.531605053E1,-8.416049957E0,1.748829298E1
8.719213400E-1,6.169500351E-1,1.504695034E1,-8.301000595E0,1.719587022E1
8.738853570E-1,6.169500351E-1,1.454895115E1,-7.918050289E0,1.657552796E1
8.758484980E-1,5.790000558E-1,1.420395088E1,-7.381050587E0,1.601772048E1
8.778118960E-1,5.410500169E-1,1.378200054E1,-6.921000481E0,1.543167268E1
8.797767190E-1,7.320000529E-1,1.347600079E1,-6.576000214E0,1.501273460E1
8.817411240E-1,6.169500351E-1,1.313100052E1,-5.887050152E0,1.440351212E1
8.837051910E-1,6.940500140E-1,1.274805069E1,-5.197050095E0,1.378418773E1
8.856693570E-1,8.470500112E-1,1.221105099E1,-4.621950150E0,1.308394754E1
8.876335090E-1,1.039050102E0,1.163595009E1,-4.237950325E0,1.242719528E1
8.895976650E-1,1.114950061E0,1.106100082E1,-3.931950092E0,1.179190758E1
8.915616240E-1,1.306950092E0,1.041000080E1,-3.510000229E0,1.106328779E1
8.935256510E-1,1.422000051E0,9.873000145E0,-3.088950157E0,1.044221380E1
8.954894660E-1,1.882050037E0,9.220950127E0,-2.859000206E0,9.835746833E0
8.974533430E-1,2.188950062E0,8.647050858E0,-2.667000055E0,9.309988196E0
8.994172280E-1,2.111999989E0,7.995000362E0,-2.437050104E0,8.620892527E0
9.013811100E-1,2.074050188E0,7.381950378E0,-2.667000055E0,8.118359740E0
9.033452610E-1,2.227050066E0,6.768000126E0,-2.667000055E0,7.607789889E0
9.053093360E-1,1.959000111E0,6.079050064E0,-2.359950066E0,6.808957000E0
9.072733690E-1,1.575000048E0,5.427000046E0,-1.939050078E0,5.974350999E0
9.092374150E-1,1.384050012E0,4.852050304E0,-1.861950040E0,5.378182271E0
9.112015860E-1,1.384050012E0,4.315950394E0,-1.594050050E0,4.804582999E0
9.131657210E-1,1.269000053E0,3.856050253E0,-1.441050053E0,4.307680344E0
9.151296490E-1,9.240000248E-1,3.396000147E0,-1.096050024E0,3.686179418E0
9.170936410E-1,5.410500169E-1,2.935950041E0,-6.360000372E-1,3.052381662E0
9.190571470E-1,1.960500032E-1,2.437050104E0,-2.910000086E-1,2.462179892E0
9.210207950E-1,8.100000024E-2,2.016000032E0,-2.140500098E-1,2.028949121E0
9.229851690E-1,4.050000105E-3,1.518000126E0,-9.900000691E-2,1.521230353E0
9.249493310E-1,-1.480500102E-1,9.430500269E-1,-9.900000691E-2,9.597203552E-1
9.269135040E-1,-2.629500031E-1,4.830000103E-1,-1.369500011E-1,5.667336384E-1
9.288776600E-1,-4.930500090E-1,2.295000106E-2,-1.759500057E-1,5.240070786E-1
9.308423530E-1,-7.230000496E-1,-3.589500189E-1,-1.369500011E-1,8.187365208E-1
9.328068890E-1,-7.230000496E-1,-8.190000653E-1,-2.520000041E-1,1.121157518E0
9.347706630E-1,-8.770500422E-1,-1.279050112E0,-3.670500219E-1,1.593710037E0
9.367346600E-1,-9.150000215E-1,-1.624050021E0,-4.060500264E-1,1.907784090E0
9.386989850E-1,-9.919500351E-1,-2.008050203E0,-3.670500219E-1,2.269571812E0
9.406632070E-1,-9.529500604E-1,-2.391000032E0,-4.440000355E-1,2.611920941E0
9.426273500E-1,-9.529500604E-1,-2.736000061E0,-3.670500219E-1,2.920365708E0
9.445915160E-1,-9.529500604E-1,-3.118950129E0,-2.910000086E-1,3.274239565E0
9.465551270E-1,-8.380500674E-1,-3.463950157E0,-9.900000691E-2,3.565260104E0
9.485189010E-1,-7.620000243E-1,-3.808950186E0,1.300500035E-1,3.886599871E0
9.504820330E-1,-8.380500674E-1,-4.269000053E0,2.449500114E-1,4.357371901E0
9.524453570E-1,-8.380500674E-1,-4.651950359E0,5.130000114E-1,4.754591368E0
9.544093370E-1,-8.380500674E-1,-5.035050392E0,7.810500264E-1,5.163729225E0
9.563731250E-1,-6.850500107E-1,-5.494950294E0,1.011000037E0,5.629022413E0
9.583371610E-1,-7.620000243E-1,-5.878950119E0,1.165050030E0,6.041526306E0
9.603011250E-1,-6.850500107E-1,-6.223950386E0,1.318050027E0,6.398758301E0
9.622652800E-1,-6.469500065E-1,-6.529950142E0,1.471050024E0,6.724788572E0
9.642293690E-1,-7.230000496E-1,-6.721950531E0,1.510050058E0,6.927308221E0
9.661934000E-1,-7.620000243E-1,-6.760050297E0,1.585950017E0,6.985281777E0
9.681574480E-1,-7.620000243E-1,-6.874950409E0,1.701000094E0,7.123130526E0
9.701212600E-1,-8.380500674E-1,-6.913050175E0,1.701000094E0,7.168402329E0
9.720851410E-1,-1.030050039E0,-6.837000370E0,1.816050053E0,7.148679244E0
9.740494660E-1,-1.068000078E0,-6.837000370E0,1.816050053E0,7.154246013E0
9.760136680E-1,-1.183050036E0,-6.721950531E0,1.893000126E0,7.082914358E0
9.779778150E-1,-1.260000110E0,-6.568950176E0,2.008050203E0,6.983621719E0
9.799419780E-1,-1.452000022E0,-6.415050507E0,2.161050081E0,6.923244508E0
9.819061300E-1,-1.528050065E0,-6.109050274E0,2.430000067E0,6.749839448E0
9.838702860E-1,-1.336950064E0,-5.802000046E0,2.965950251E0,6.651879501E0
9.858345990E-1,-8.770500422E-1,-5.572050095E0,3.541050196E0,6.660029694E0
9.877988800E-1,-3.400500119E-1,-5.304000378E0,4.345950127E0,6.865517935E0
9.897628780E-1,4.050000105E-3,-4.882050037E0,5.227050304E0,7.152376099E0
9.917269590E-1,1.570500135E-1,-4.461000443E0,5.956050396E0,7.443099218E0
9.936911240E-1,2.340000123E-1,-4.116000175E0,6.301050186E0,7.529903512E0
9.956552650E-1,3.870000243E-1,-3.732000113E0,6.531000137E0,7.532035359E0
9.976194160E-1,4.260000288E-1,-3.387000084E0,6.492000103E0,7.334801356E0
9.995835670E-1,5.410500169E-1,-3.042000055E0,6.301050186E0,7.017815394E0
1.001548443E0,6.550500393E-1,-2.736000061E0,6.070950508E0,6.691130470E0
1.003513106E0,7.699500322E-1,-2.314050198E0,5.956050396E0,6.436007123E0
1.005477354E0,9.619500637E-1,-2.008050203E0,5.764050484E0,6.179149741E0
1.007441723E0,1.230000019E0,-1.738950133E0,6.262050152E0,6.614387327E0
1.009405994E0,1.306950092E0,-1.509000063E0,6.684000492E0,6.975748154E0
1.011370281E0,1.306950092E0,-1.240950108E0,6.607050419E0,6.848444418E0
1.013334412E0,1.306950092E0,-1.048950076E0,6.454050541E0,6.668071925E0
1.015298588E0,1.384050012E0,-8.580000401E-1,6.262050152E0,6.470319204E0
1.017262738E0,1.422000051E0,-5.890500546E-1,6.070950508E0,6.263026759E0
1.019226896E0,1.384050012E0,-2.830500007E-1,5.764050484E0,5.934643184E0
1.021190356E0,1.384050012E0,-1.680000126E-1,5.457000256E0,5.632288188E0
1.023154001E0,1.384050012E0,-1.500000060E-2,4.959000111E0,5.148543632E0
1.025117880E0,1.422000051E0,1.759500057E-1,4.653000355E0,4.868619399E0
1.027081691E0,1.422000051E0,3.679500222E-1,4.192950249E0,4.442781015E0
1.029045364E0,1.422000051E0,5.980500579E-1,3.694050074E0,4.003217951E0
1.031009078E0,1.537050128E0,7.890000343E-1,3.157950163E0,3.599679622E0
1.032973145E0,1.614000082E0,9.810000658E-1,2.698050022E0,3.293452795E0
1.034937095E0,1.690050125E0,1.249050021E0,2.353049994E0,3.154875537E0
1.036901149E0,1.767000079E0,1.441050053E0,1.893000126E0,2.963505359E0
1.038865172E0,1.804950118E0,1.708950043E0,1.510050058E0,2.908368332E0
1.040828989E0,1.920000076E0,2.016000032E0,1.240950108E0,3.048050786E0
1.042792866E0,2.111999989E0,2.322000027E0,8.200500607E-1,3.244180972E0
1.044757755E0,2.188950062E0,2.782050133E0,3.600000143E-1,3.558216593E0
1.046722370E0,2.341950178E0,3.088950157E0,-6.105000153E-2,3.876863528E0
1.048686220E0,2.457000017E0,3.549000263E0,-5.209500194E-1,4.347831744E0
1.050650295E0,2.572050095E0,3.894000292E0,-9.420000315E-1,4.760886894E0
1.052614102E0,2.686950207E0,4.315950394E0,-1.479000092E0,5.294768218E0
1.054577987E0,2.955000162E0,4.545000076E0,-1.861950040E0,5.732007467E0
1.056541876E0,3.147000074E0,4.890000343E0,-2.322000027E0,6.261581026E0
1.058505761E0,3.300000191E0,5.119950294E0,-2.667000055E0,6.649570029E0
1.060469556E0,3.453000069E0,5.350050449E0,-3.012000084E0,7.044032495E0
1.062433377E0,3.568050146E0,5.464950085E0,-3.433950186E0,7.374867806E0
1.064397092E0,3.607050180E0,5.580000401E0,-3.817050219E0,7.662707605E0
1.066360838E0,3.529950142E0,5.656950474E0,-4.200000286E0,7.880459318E0
1.068324861E0,3.376950264E0,5.656950474E0,-4.545000076E0,8.003868280E0
1.070288817E0,3.223050117E0,5.656950474E0,-4.927950382E0,8.165404809E0
1.072252960E0,2.917050123E0,5.542050362E0,-5.235000134E0,8.162642344E0
1.074217048E0,2.610000134E0,5.427000046E0,-5.542050362E0,8.184054765E0
1.076181079E0,2.227050066E0,5.235000134E0,-5.695050240E0,8.049756246E0
1.078145127E0,1.804950118E0,5.044050217E0,-5.848050117E0,7.930950617E0
1.080108957E0,1.498950124E0,4.699050426E0,-6.078000069E0,7.827516287E0
1.082072838E0,1.269000053E0,4.354050159E0,-6.232050419E0,7.707565527E0
1.084035912E0,9.240000248E-1,3.970950127E0,-6.307950497E0,7.510822886E0
1.085999223E0,5.410500169E-1,3.549000263E0,-6.307950497E0,7.257987149E0
1.087963024E0,2.719500065E-1,3.127050161E0,-5.925000191E0,6.705074703E0
1.089926682E0,8.100000024E-2,2.706000090E0,-5.158050060E0,5.825330712E0
1.091890876E0,-7.200000435E-2,2.322000027E0,-3.739950180E0,4.402737271E0
1.093854913E0,-3.019500077E-1,2.016000032E0,-1.977000117E0,2.839711148E0
1.095818187E0,-3.400500119E-1,1.824000120E0,-6.105000153E-2,1.856431402E0
1.097781684E0,-3.019500077E-1,1.633050084E0,1.893000126E0,2.518228715E0
1.099745814E0,-1.870500147E-1,1.555950046E0,3.924000263E0,4.225369371E0
1.101709759E0,4.200000316E-2,1.633050084E0,6.031950474E0,6.249243402E0
1.103674675E0,2.719500065E-1,1.863000035E0,8.293950081E0,8.504959370E0
1.105639303E0,5.790000558E-1,2.208000183E0,1.055505085E1,1.079905571E1
1.107603377E0,9.240000248E-1,2.706000090E0,1.281600094E1,1.313111163E1
1.109567613E0,1.153950095E0,3.280950069E0,1.461795044E1,1.502600111E1
1.111531347E0,1.269000053E0,3.931950092E0,1.603605080E1,1.655975597E1
1.113495228E0,1.269000053E0,4.584000111E0,1.684095001E1,1.749974330E1
1.115459247E0,1.306950092E0,5.197050095E0,1.691700172E1,1.774548944E1
1.117423226E0,1.269000053E0,5.964000225E0,1.618905067E1,1.729927806E1
1.119387050E0,1.269000053E0,6.844950199E0,1.488600063E1,1.643340255E1
1.121350920E0,1.192050099E0,7.957050323E0,1.327605057E1,1.552382530E1
1.123314762E0,1.153950095E0,9.412950516E0,1.151295090E1,1.491587331E1
1.125278613E0,6.169500351E-1,1.110000038E1,9.405000687E0,1.456175380E1
1.127241742E0,-7.200000435E-2,1.339905071E1,7.144050121E0,1.518476856E1
1.129205079E0,-8.380500674E-1,1.608195114E1,4.882050037E0,1.682753378E1
1.131169192E0,-1.605000019E0,1.907205009E1,2.583000183E0,1.931297517E1
1.133133077E0,-2.295000076E0,2.217600060E1,6.280500293E-1,2.230328394E1
1.135097502E0,-2.448000193E0,2.528100204E1,-1.516950130E0,2.544450642E1
1.137061769E0,-2.332950115E0,2.853900146E1,-2.859000206E0,2.877657282E1
1.139025494E0,-1.260000110E0,3.179595184E1,-3.586950064E0,3.202243533E1
1.140989382E0,4.260000288E-1,3.482400131E1,-4.047000408E0,3.506095771E1
1.142953986E0,2.572050095E0,3.777600098E1,-4.813050270E0,3.816814306E1
1.144918380E0,5.715000153E0,4.018995285E1,-5.464950085E0,4.096045918E1
1.146882088E0,9.088050842E0,4.156995010E1,-5.887050152E0,4.295708066E1
1.148845997E0,1.284405041E1,4.072695160E1,-5.962950230E0,4.311856900E1
1.150809642E0,1.575705051E1,3.961500168E1,-6.997950554E0,4.320421635E1
1.152773372E0,1.682999992E1,3.827400208E1,-7.803000450E0,4.253275148E1
1.154736923E0,1.407000065E1,3.720105362E1,-8.455050468E0,4.066166729E1
1.156700526E0,8.896050453E0,3.612705231E1,-9.259050369E0,3.834101767E1
1.158663513E0,3.874950171E0,3.440295029E1,-1.002600002E1,3.604301463E1
1.160626680E0,-3.400500119E-1,3.210300064E1,-1.102200031E1,3.394411252E1
1.162590260E0,-3.712950230E0,2.957295227E1,-1.201905060E1,3.213725381E1
1.164553702E0,-6.166050434E0,2.715900040E1,-1.282395077E1,3.066080876E1
1.166517437E0,-7.852050304E0,2.516595078E1,-1.332195091E1,2.953733482E1
1.168481086E0,-8.848950386E0,2.347905159E1,-1.293900108E1,2.823096767E1
1.170444786E0,-9.117000580E0,2.225295067E1,-1.205700016E1,2.690138966E1
1.172408471E0,-8.695050240E0,2.129505157E1,-1.079295063E1,2.540808736E1
1.174372584E0,-8.427000046E0,2.060505104E1,-9.298050880E0,2.412542659E1
1.176336562E0,-8.427000046E0,2.014500046E1,-7.840950489E0,2.320163524E1
1.178300341E0,-8.887050629E0,1.983795166E1,-6.538050175E0,2.269956156E1
1.180264179E0,-9.691950798E0,1.957005119E1,-5.733000278E0,2.257848769E1
1.182228206E0,-1.057395077E1,1.930200005E1,-5.043000221E0,2.257891698E1
1.184192177E0,-1.122495079E1,1.907205009E1,-4.392000198E0,2.256174374E1
1.186156173E0,-1.195305061E1,1.884195137E1,-4.237950325E0,2.271243654E1
1.188120168E0,-1.283505058E1,1.868805122E1,-4.660050392E0,2.314514748E1
1.190084035E0,-1.341000080E1,1.861200142E1,-5.197050095E0,2.352114045E1
1.192047939E0,-1.375500107E1,1.853505135E1,-5.656950474E0,2.376445395E1
1.194012451E0,-1.390800095E1,1.857299995E1,-6.117000103E0,2.399596858E1
1.195976784E0,-1.394595051E1,1.857299995E1,-6.576000214E0,2.413896522E1
1.197940938E0,-1.387005043E1,1.853505135E1,-6.997950554E0,2.418465917E1
1.199905155E0,-1.371600056E1,1.845795059E1,-7.342950344E0,2.414008142E1
1.201869073E0,-1.352505112E1,1.845795059E1,-7.420050144E0,2.405577045E1
1.203833078E0,-1.333305073E1,1.849695015E1,-7.113000393E0,2.388518748E1
1.205796897E0,-1.314105034E1,1.868805122E1,-6.730050087E0,2.381646566E1
1.207760771E0,-1.294995022E1,1.918695068E1,-6.499950409E0,2.404349481E1
1.209724482E0,-1.256700039E1,1.953195000E1,-6.538050175E0,2.412825459E1
1.211688237E0,-1.195305061E1,1.957005119E1,-6.460950375E0,2.382448745E1
1.213652053E0,-1.134000015E1,1.957005119E1,-6.193050385E0,2.345072238E1
1.215615851E0,-1.068795013E1,1.953195000E1,-5.580000401E0,2.295355644E1
1.217579886E0,-9.769050598E0,1.922504997E1,-5.043000221E0,2.214652901E1
1.219543851E0,-8.925000191E0,1.880295181E1,-4.468050003E0,2.128779218E1
1.221507317E0,-7.966950417E0,1.830495071E1,-4.084949970E0,2.037720137E1
1.223470929E0,-7.009050369E0,1.769205093E1,-3.894000292E0,1.942417802E1
1.225434634E0,-6.241950512E0,1.704000092E1,-3.625050068E0,1.850579816E1
1.227398312E0,-5.668050289E0,1.635000038E1,-3.165000200E0,1.759166089E1
1.229362187E0,-5.092950344E0,1.550700092E1,-2.475000143E0,1.650850831E1
1.231326004E0,-4.441050053E0,1.466400051E1,-2.590050220E0,1.553911827E1
1.233290083E0,-4.057950020E0,1.374405098E1,-2.359950066E0,1.452361043E1
1.235254052E0,-3.712950230E0,1.274805069E1,-1.747050047E0,1.339219846E1
1.237217518E0,-3.483000278E0,1.175100040E1,-9.810000658E-1,1.229551392E1
1.239181131E0,-3.406050205E0,1.090800095E1,-4.819500148E-1,1.143756698E1
1.241144161E0,-3.445050240E0,1.029495049E1,-9.900000691E-2,1.085652696E1
1.243107362E0,-3.520950079E0,9.757950783E0,3.979500234E-1,1.038138031E1
1.245071988E0,-3.636000156E0,9.412950516E0,5.509500504E-1,1.010582409E1
1.247036200E0,-3.712950230E0,9.145050049E0,2.070000172E-1,9.872223094E0
1.248999669E0,-3.598050117E0,8.877000809E0,-2.520000041E-1,9.581785429E0
1.250963356E0,-3.445050240E0,8.914950371E0,-7.510500550E-1,9.586907085E0
1.252927048E0,-3.330000162E0,8.991000175E0,-6.360000372E-1,9.608927166E0
1.254890739E0,-3.175950050E0,9.375000000E0,-9.900000691E-2,9.898842595E0
1.256853506E0,-3.138000250E0,1.002600002E1,7.050000429E-1,1.052923298E1
1.258816530E0,-2.985000134E0,1.075500011E1,1.471050024E0,1.125807450E1
1.260780381E0,-2.830950022E0,1.167405033E1,1.740000129E0,1.213776461E1
1.262743990E0,-2.716050148E0,1.259400082E1,2.467950106E0,1.311779565E1
1.264707696E0,-2.563050032E0,1.374405098E1,3.273000240E0,1.435899347E1
1.266671374E0,-2.256000042E0,1.485600090E1,3.847950220E0,1.551119015E1
1.268635579E0,-1.720050097E0,1.562205029E1,3.655950069E0,1.613607754E1
1.270599619E0,-9.919500351E-1,1.608195114E1,3.157950163E0,1.641906717E1
1.272563972E0,-1.870500147E-1,1.623495102E1,2.430000067E0,1.641686702E1
1.274528234E0,6.550500393E-1,1.646505165E1,1.855050087E0,1.658216594E1
1.276492010E0,1.537050128E0,1.661894989E1,1.701000094E0,1.677633511E1
1.278455929E0,2.341950178E0,1.661894989E1,2.008050203E0,1.690285454E1
1.280419632E0,2.917050123E0,1.642695045E1,2.736000061E0,1.690679091E1
1.282383395E0,3.184950113E0,1.635000038E1,3.694050074E0,1.706201705E1
1.284346895E0,3.682950258E0,1.615904999E1,4.576050282E0,1.719358181E1
1.286310472E0,4.219950199E0,1.558395100E1,5.227050304E0,1.697025525E1
1.288274363E0,4.909950256E0,1.485600090E1,5.533950329E0,1.659617367E1
1.290238162E0,5.215950012E0,1.405095100E1,5.419050217E0,1.593742338E1
1.292202166E0,5.485050201E0,1.328400040E1,5.188950062E0,1.527990985E1
1.294166100E0,5.638050079E0,1.263300037E1,4.959000111E0,1.469598548E1
1.296129977E0,5.983050346E0,1.201905060E1,5.112000465E0,1.436617616E1
1.298093871E0,6.328050137E0,1.125300026E1,5.572050095E0,1.406136464E1
1.300057664E0,6.558000088E0,1.037100029E1,6.339000225E0,1.381115260E1
1.302021486E0,6.711000443E0,9.451050758E0,7.029000282E0,1.355605888E1
1.303985201E0,6.940950394E0,8.377950668E0,7.258950233E0,1.307896052E1
1.305948948E0,7.171050549E0,7.305000305E0,7.258950233E0,1.254907781E1
1.307912765E0,7.438950539E0,6.270000458E0,7.066950321E0,1.202466955E1
1.309876561E0,7.708050251E0,5.389050484E0,6.991050243E0,1.171881766E1
1.311840102E0,7.822950363E0,4.507050037E0,5.841000080E0,1.075310813E1
1.313803717E0,7.899000168E0,3.586950064E0,4.039050102E0,9.569448267E0
1.315767197E0,7.783950329E0,2.935950041E0,2.583000183E0,8.711003117E0
1.317730717E0,7.401000500E0,2.437050104E0,1.471050024E0,7.929565548E0
1.319694303E0,7.132950306E0,1.863000035E0,1.011000037E0,7.441227740E0
1.321657869E0,7.018050194E0,1.288050056E0,1.165050030E0,7.229760925E0
1.323621583E0,6.979950428E0,6.739500165E-1,1.701000094E0,7.215768699E0
1.325585254E0,6.826050282E0,-1.500000060E-2,2.506050110E0,7.271552420E0
1.327549450E0,6.634950161E0,-4.360500276E-1,3.234000206E0,7.394015188E0
1.329513489E0,6.405000210E0,-8.959500194E-1,3.847950220E0,7.525521578E0
1.331477168E0,6.060000420E0,-1.203000069E0,4.269000053E0,7.509672144E0
1.333440953E0,5.791050434E0,-1.509000063E0,4.461000443E0,7.464172511E0
1.335404449E0,5.446050167E0,-1.777950048E0,4.461000443E0,7.260929262E0
1.337368030E0,5.025000095E0,-2.122950077E0,4.537950039E0,7.095810986E0
1.339331905E0,4.642050266E0,-2.391000032E0,4.653000355E0,6.993992003E0
1.341295705E0,4.450050354E0,-2.620950222E0,4.882050037E0,7.106809466E0
1.343259200E0,4.143000126E0,-2.851050138E0,5.035950184E0,7.117143471E0
1.345222784E0,3.760050297E0,-2.965950251E0,4.843950272E0,6.811658635E0
1.347186315E0,3.337950230E0,-2.965950251E0,4.498950005E0,6.338716256E0
1.349149861E0,2.878050089E0,-2.926950216E0,4.039050102E0,5.758831098E0
1.351113712E0,2.494950056E0,-2.926950216E0,3.886050224E0,5.467467393E0
1.353077474E0,2.149950027E0,-2.812050104E0,3.694050074E0,5.116240500E0
1.355041201E0,1.804950118E0,-2.736000061E0,3.694050074E0,4.938577448E0
1.357004938E0,1.498950124E0,-2.736000061E0,3.655950069E0,4.806091834E0
1.358968757E0,1.306950092E0,-2.659050226E0,3.733050108E0,4.765955283E0
1.360932551E0,1.269000053E0,-2.581950188E0,3.808950186E0,4.773356201E0
1.362896652E0,1.230000019E0,-2.544000149E0,3.847950220E0,4.774050450E0
1.364860648E0,1.153950095E0,-2.544000149E0,3.847950220E0,4.755024550E0
1.366824829E0,9.240000248E-1,-2.351999998E0,3.847950220E0,4.603520493E0
1.368788956E0,7.699500322E-1,-2.314050198E0,3.541050196E0,4.299614850E0
1.370752169E0,5.790000558E-1,-2.199000120E0,3.118950129E0,3.859882446E0
1.372715650E0,4.639500082E-1,-2.122950077E0,2.620950222E0,3.404636061E0
1.374679752E0,4.639500082E-1,-2.161050081E0,2.085000038E0,3.038521388E0
1.376643662E0,3.870000243E-1,-2.238000154E0,1.432950020E0,2.685471927E0
1.378607499E0,3.109500110E-1,-2.351999998E0,1.050000072E0,2.594435208E0
1.380571357E0,3.490500152E-1,-2.467050076E0,4.750500321E-1,2.536502419E0
1.382535921E0,3.490500152E-1,-2.659050226E0,9.195000678E-2,2.683437874E0
1.384500278E0,3.870000243E-1,-2.889000177E0,-9.900000691E-2,2.916486250E0
1.386463921E0,3.109500110E-1,-2.926950216E0,-3.670500219E-1,2.966218670E0
1.388427760E0,2.340000123E-1,-2.926950216E0,-5.590500236E-1,2.989035046E0
1.390391607E0,1.570500135E-1,-2.926950216E0,-7.510500550E-1,3.025851692E0
1.392355451E0,8.100000024E-2,-2.889000177E0,-9.420000315E-1,3.039777473E0
1.394319297E0,4.200000316E-2,-2.697000027E0,-1.018950105E0,2.883371717E0
1.396283143E0,-3.299999982E-2,-2.506050110E0,-1.171950102E0,2.766738729E0
1.398246775E0,-7.200000435E-2,-2.314050198E0,-1.096050024E0,2.561510877E0
1.400210463E0,-1.099500060E-1,-1.930950046E0,-9.420000315E-1,2.151283603E0
1.402174335E0,-7.200000435E-2,-1.738950133E0,-7.510500550E-1,1.895575837E0
1.404138153E0,1.189500093E-1,-1.585950017E0,-4.060500264E-1,1.641421087E0
1.406101509E0,3.109500110E-1,-1.432950020E0,-2.205000073E-2,1.466465776E0
1.408065001E0,5.790000558E-1,-1.279050112E0,4.360500276E-1,1.470153012E0
1.410028867E0,8.850000501E-1,-1.164000034E0,9.730500579E-1,1.756401886E0
1.411992619E0,1.192050099E0,-1.048950076E0,1.395000100E0,2.113600005E0
1.413956302E0,1.384050012E0,-8.580000401E-1,1.585950017E0,2.273102717E0
1.415920006E0,1.614000082E0,-6.660000086E-1,1.701000094E0,2.437612274E0
1.417883696E0,1.843950033E0,-5.130000114E-1,1.777950048E0,2.612360448E0
1.419847391E0,2.227050066E0,-2.830500007E-1,1.777950048E0,2.863734568E0
1.421811112E0,2.419050217E0,-2.059500068E-1,1.701000094E0,2.964392126E0
1.423774835E0,2.649000168E0,-9.105000645E-2,1.510050058E0,3.050531621E0
1.425737802E0,2.878050089E0,9.900000691E-2,1.471050024E0,3.233722544E0
1.427700991E0,3.184950113E0,3.679500222E-1,1.395000100E0,3.496472468E0
1.429665084E0,3.492000103E0,6.360000372E-1,1.318050027E0,3.786266847E0
1.431628912E0,3.721950293E0,8.659500480E-1,1.240950108E0,4.017802961E0
1.433592933E0,3.837000132E0,1.096050024E0,1.318050027E0,4.202517286E0
1.435556903E0,3.990000248E0,1.288050056E0,1.279950023E0,4.383770864E0
1.437521134E0,4.219950199E0,1.402950048E0,1.356000066E0,4.649191833E0
1.439485288E0,4.372950077E0,1.555950046E0,1.471050024E0,4.869051355E0
1.441449398E0,4.564949989E0,1.633050084E0,1.548000097E0,5.089393410E0
1.443413521E0,4.756950378E0,1.671000123E0,1.701000094E0,5.321110752E0
1.445377184E0,5.062950134E0,1.671000123E0,1.816050053E0,5.632383445E0
1.447340982E0,5.331000328E0,1.671000123E0,1.663050056E0,5.829025767E0
1.449304656E0,5.599950314E0,1.518000126E0,1.471050024E0,5.985629129E0
1.451268367E0,5.983050346E0,1.288050056E0,1.126049995E0,6.222857301E0
1.453232956E0,6.328050137E0,1.134000063E0,5.509500504E-1,6.452419750E0
1.455197288E0,6.442950249E0,1.096050024E0,-2.520000041E-1,6.540369834E0
1.457161158E0,6.558000088E0,9.430500269E-1,-1.287000060E0,6.749302013E0
1.459125184E0,6.558000088E0,9.430500269E-1,-2.398950100E0,7.046394119E0
1.461088819E0,6.558000088E0,9.430500269E-1,-3.510000229E0,7.497787014E0
1.463052569E0,6.595950127E0,1.096050024E0,-4.009050369E0,7.796176537E0
1.465016475E0,6.711000443E0,1.363950014E0,-3.702000141E0,7.784773062E0
1.466980336E0,6.787950516E0,1.786050081E0,-2.514000177E0,7.455631696E0
1.468943423E0,6.520050526E0,2.361000061E0,-7.120500207E-1,6.970824584E0
1.470906731E0,6.250950336E0,2.821050167E0,2.161050081E0,7.190468803E0
1.472870488E0,5.752950191E0,3.357000113E0,5.572050095E0,8.684102021E0
1.474834114E0,5.178000450E0,4.009050369E0,8.983950615E0,1.111735320E1
1.476797863E0,4.450050354E0,4.621950150E0,1.189605045E1,1.351596788E1
1.478761576E0,3.721950293E0,5.235000134E0,1.411905098E1,1.551147127E1
1.480725587E0,3.184950113E0,5.964000225E0,1.526895046E1,1.669892374E1
1.482689538E0,2.494950056E0,6.960000515E0,1.534605026E1,1.703430778E1
1.484653367E0,1.996950150E0,7.957050323E0,1.404300022E1,1.626371160E1
1.486617232E0,1.690050125E0,8.877000809E0,1.239495087E1,1.533923791E1
1.488580895E0,1.920000076E0,9.796050072E0,1.047795010E1,1.447191886E1
1.490544617E0,2.304000139E0,1.079295063E1,6.454050541E0,1.278479442E1
1.492509024E0,2.304000139E0,1.167405033E1,2.046000004E0,1.207385538E1
1.494473230E0,2.074050188E0,1.267095089E1,-3.012000084E0,1.318813198E1
1.496435934E0,1.422000051E0,1.447200108E1,-7.918050289E0,1.655766951E1
1.498399078E0,3.109500110E-1,1.654200172E1,-1.090695095E1,1.981656100E1
1.500362683E0,-1.030050039E0,1.857299995E1,-1.236405087E1,2.233578036E1
1.502326153E0,-2.755050182E0,2.137095070E1,-1.224900055E1,2.478600108E1
1.504290049E0,-4.786050320E0,2.462895203E1,-1.121400070E1,2.748172788E1
1.506253830E0,-7.047000408E0,2.919000053E1,-8.875950813E0,3.131291824E1
1.508217868E0,-9.577050209E0,3.501600266E1,-6.270000458E0,3.683956078E1
1.510181830E0,-1.183800030E1,4.103295135E1,-4.353000164E0,4.292772948E1
1.512145477E0,-1.383105087E1,4.674405289E1,-3.970050097E0,4.890874918E1
1.514109217E0,-1.505805111E1,5.149695206E1,-3.817050219E0,5.378894725E1
1.516073030E0,-1.639905167E1,5.628795242E1,-5.542050362E0,5.888953053E1
1.518036825E0,-1.705095100E1,6.065700150E1,-7.534950256E0,6.345693213E1
1.520000321E0,-1.693605042E1,6.422205353E1,-9.412950516E0,6.708133571E1
1.521963904E0,-1.540305042E1,6.598500061E1,-1.079295063E1,6.861313323E1
1.523927659E0,-1.432995033E1,6.659805298E1,-1.201905060E1,6.917445854E1
1.525891364E0,-1.333305073E1,6.571605682E1,-1.274700069E1,6.825581582E1
1.527855223E0,-1.187700081E1,6.288000488E1,-1.259400082E1,6.521937610E1
1.529819013E0,-1.022895050E1,5.785905457E1,-1.155900097E1,5.988248598E1
1.531782690E0,-8.427000046E0,5.184195328E1,-9.949050903E0,5.345639404E1
1.533746400E0,-6.549000263E0,4.628400040E1,-8.953050613E0,4.759469731E1
1.535710313E0,-5.092950344E0,4.141695023E1,-8.224950790E0,4.253177312E1
1.537674167E0,-3.828000069E0,3.697095108E1,-7.956000328E0,3.801056103E1
1.539637788E0,-2.448000193E0,3.302295303E1,-8.263050079E0,3.412896319E1
1.541601477E0,-1.642950058E0,3.007200050E1,-8.608050346E0,3.132288349E1
1.543565214E0,-9.150000215E-1,2.758005142E1,-8.953050613E0,2.901126638E1
1.545528936E0,-2.629500031E-1,2.531895065E1,-9.643050194E0,2.709440573E1
1.547493345E0,3.490500152E-1,2.340300179E1,-1.040895081E1,2.561578781E1
1.549457552E0,9.619500637E-1,2.175495148E1,-1.121400070E1,2.449402118E1
1.551421323E0,1.345050097E0,2.041305161E1,-1.209600067E1,2.376583825E1
1.553385232E0,1.537050128E0,1.930200005E1,-1.297695065E1,2.330946110E1
1.555348707E0,1.843950033E0,1.830495071E1,-1.332195091E1,2.271443921E1
1.557312309E0,2.188950062E0,1.750005150E1,-1.355205059E1,2.224188346E1
1.559276196E0,2.494950056E0,1.661894989E1,-1.385895061E1,2.178267163E1
1.561239999E0,2.610000134E0,1.608195114E1,-1.412700081E1,2.156416947E1
1.563203992E0,2.610000134E0,1.562205029E1,-1.428000069E1,2.132554748E1
1.565167926E0,2.494950056E0,1.539195061E1,-1.435695076E1,2.119572963E1
1.567131578E0,2.457000017E0,1.516200066E1,-1.435695076E1,2.102486975E1
1.569095313E0,2.227050066E0,1.500900078E1,-1.389705086E1,2.057566230E1
1.571058998E0,1.959000111E0,1.481700039E1,-1.355205059E1,2.017521393E1
1.573022698E0,1.882050037E0,1.454895115E1,-1.312995052E1,1.968780568E1
1.574986549E0,1.959000111E0,1.420395088E1,-1.236405087E1,1.893303082E1
1.576950369E0,1.882050037E0,1.401195049E1,-1.148205090E1,1.821302725E1
1.578914041E0,1.459950089E0,1.382100105E1,-1.067805004E1,1.752633096E1
1.580877756E0,1.843950033E0,1.355205059E1,-9.834000587E0,1.684534934E1
1.582841488E0,1.843950033E0,1.324605083E1,-8.761050224E0,1.598793343E1
1.584805215E0,1.920000076E0,1.278600025E1,-7.879950523E0,1.514139435E1
1.586769068E0,2.035050154E0,1.232595062E1,-6.997950554E0,1.431928070E1
1.588732893E0,2.341950178E0,1.194300079E1,-5.925000191E0,1.353608606E1
1.590696383E0,2.188950062E0,1.136805058E1,-5.388000488E0,1.276928446E1
1.592659972E0,1.843950033E0,1.075500011E1,-4.927950382E0,1.197308958E1
1.594624177E0,1.767000079E0,1.014105034E1,-4.736999989E0,1.133147652E1
1.596588201E0,1.882050037E0,9.565950394E0,-4.582950115E0,1.077278752E1
1.598551833E0,1.614000082E0,8.953050613E0,-4.392000198E0,1.010206797E1
1.600515583E0,1.384050012E0,8.416950226E0,-3.931950092E0,9.392596929E0
1.602479310E0,1.192050099E0,7.803000450E0,-3.472050190E0,8.623394458E0
1.604443044E0,9.240000248E-1,7.267050266E0,-3.165000200E0,7.980038965E0
1.606405828E0,3.109500110E-1,6.883050442E0,-2.859000206E0,7.459688698E0
1.608368890E0,-1.870500147E-1,6.309000492E0,-2.514000177E0,6.794017354E0
1.610332509E0,-4.549500346E-1,5.619000435E0,-1.747050047E0,5.901892009E0
1.612295965E0,-1.030050039E0,4.813950062E0,-1.134000063E0,5.051838717E0
1.614259653E0,-1.873050094E0,4.123950005E0,-6.360000372E-1,4.573814201E0
1.616223273E0,-2.677950144E0,3.280950069E0,-1.369500011E-1,4.237311133E0
1.618186258E0,-3.138000250E0,2.437050104E0,4.360500276E-1,3.997048712E0
1.620149429E0,-3.943050146E0,1.708950043E0,7.810500264E-1,4.367859184E0
1.622113225E0,-4.441050053E0,9.810000658E-1,8.959500194E-1,4.635516491E0
1.624076827E0,-4.708950043E0,3.679500222E-1,5.899500251E-1,4.760004071E0
1.626042022E0,-4.900950432E0,-2.059500068E-1,3.220500052E-1,4.915836322E0
1.628006750E0,-5.245950222E0,-7.429500222E-1,1.300500035E-1,5.299894477E0
1.629970581E0,-5.053950310E0,-1.318050027E0,-6.105000153E-2,5.223351100E0
1.631934675E0,-4.900950432E0,-1.663050056E0,-4.060500264E-1,5.191331934E0
1.633898478E0,-4.747950077E0,-1.930950046E0,-5.590500236E-1,5.155980502E0
1.635862367E0,-4.555950165E0,-2.351999998E0,-7.510500550E-1,5.181955430E0
1.637825890E0,-4.173000336E0,-2.620950222E0,-9.420000315E-1,5.017038561E0
1.639789521E0,-3.712950230E0,-2.926950216E0,-9.810000658E-1,4.828602086E0
1.641752863E0,-3.214950085E0,-3.157050133E0,-1.018950105E0,4.619645972E0
1.643716290E0,-2.830950022E0,-3.463950157E0,-9.040500522E-1,4.564048117E0
1.645679992E0,-2.371050119E0,-3.808950186E0,-8.659500480E-1,4.569447414E0
1.647643606E0,-1.911000133E0,-4.039050102E0,-5.590500236E-1,4.503152692E0
1.649606592E0,-1.489950061E0,-4.345950127E0,-1.759500057E-1,4.597628964E0
1.651569762E0,-9.529500604E-1,-4.767000198E0,3.220500052E-1,4.871973000E0
1.653533363E0,-5.700000525E-1,-5.149950027E0,7.810500264E-1,5.239935542E0
1.655496837E0,-7.200000435E-2,-5.457000256E0,1.126049995E0,5.572434332E0
1.657461323E0,3.870000243E-1,-5.725050449E0,1.395000100E0,5.905251641E0
1.659425519E0,9.619500637E-1,-5.994000435E0,1.893000126E0,6.358996667E0
1.661388901E0,1.269000053E0,-6.300000191E0,2.391000032E0,6.856912184E0
1.663352521E0,1.614000082E0,-6.568950176E0,2.965950251E0,7.385997805E0
1.665316045E0,2.035050154E0,-6.952050209E0,3.655950069E0,8.114086649E0
1.667279598E0,2.380050182E0,-7.182000160E0,4.153950214E0,8.631400092E0
1.669243017E0,2.610000134E0,-7.335000515E0,4.729050159E0,9.109239741E0
1.671206462E0,2.764050245E0,-7.450050354E0,5.380950451E0,9.596762568E0
1.673170151E0,2.917050123E0,-7.488000393E0,6.031950474E0,1.004807234E1
1.675133768E0,2.917050123E0,-7.411950588E0,6.684000492E0,1.039817559E1
1.677097294E0,2.802000046E0,-7.258050442E0,7.029000282E0,1.048510112E1
1.679060847E0,2.533950090E0,-6.952050209E0,7.374000549E0,1.044642471E1
1.681024423E0,2.227050066E0,-6.607050419E0,7.948950291E0,1.057348939E1
1.682987995E0,1.959000111E0,-6.223950386E0,8.370000839E0,1.061282968E1
1.684951843E0,1.459950089E0,-5.764050484E0,8.562000275E0,1.042418251E1
1.686915610E0,1.230000019E0,-5.265000343E0,8.715000153E0,1.025594249E1
1.688879291E0,7.699500322E-1,-4.651950359E0,8.677050591E0,9.875458073E0
1.690842997E0,8.470500112E-1,-4.345950127E0,9.367050171E0,1.036081103E1
1.692805805E0,3.870000243E-1,-3.886050224E0,9.597000122E0,1.036115663E1
1.694768862E0,2.340000123E-1,-3.502050161E0,9.442950249E0,1.007414615E1
1.696732707E0,1.189500093E-1,-3.196050167E0,9.214050293E0,9.753338330E0
1.698696321E0,4.050000105E-3,-2.812050104E0,8.791950226E0,9.230711292E0
1.700660027E0,-1.480500102E-1,-2.544000149E0,8.562000275E0,8.933179964E0
1.702623706E0,-2.250000089E-1,-2.275950193E0,8.101950645E0,8.418561549E0
1.704587550E0,-3.019500077E-1,-1.930950046E0,7.719000340E0,7.962581750E0
1.706551335E0,-4.170000255E-1,-1.663050056E0,7.219950199E0,7.420734828E0
1.708514697E0,-3.400500119E-1,-1.393950105E0,6.799050331E0,6.948799631E0
1.710478183E0,-2.250000089E-1,-1.164000034E0,6.223950386E0,6.335856650E0
1.712442271E0,-1.870500147E-1,-9.730500579E-1,5.994000435E0,6.075348166E0
1.714406182E0,-1.099500060E-1,-6.280500293E-1,5.686950207E0,5.722581454E0
1.716369954E0,4.050000105E-3,-3.589500189E-1,5.304000378E0,5.316134077E0
1.718333780E0,8.100000024E-2,-1.680000126E-1,5.151000023E0,5.154375446E0
1.720296368E0,1.189500093E-1,-1.500000060E-2,4.806000233E0,4.807495433E0
1.722259318E0,1.570500135E-1,1.759500057E-1,4.537950039E0,4.544074567E0
1.724223001E0,1.189500093E-1,4.440000355E-1,4.153950214E0,4.179304669E0
1.726186470E0,4.200000316E-2,6.360000372E-1,3.924000263E0,3.975429299E0
1.728150561E0,1.189500093E-1,8.280000687E-1,3.502950191E0,3.601443219E0
1.730114470E0,1.570500135E-1,1.018950105E0,3.043050051E0,3.212954658E0
1.732077901E0,1.570500135E-1,1.210950017E0,2.545050144E0,2.822825692E0
1.734041472E0,3.109500110E-1,1.363950014E0,1.969950080E0,2.416144215E0
1.736005365E0,2.719500065E-1,1.594050050E0,1.510050058E0,2.212510688E0
1.737969163E0,3.490500152E-1,1.863000035E0,1.165050030E0,2.224847549E0
1.739932892E0,4.260000288E-1,2.053950071E0,7.810500264E-1,2.238353427E0
1.741896635E0,4.639500082E-1,2.245950222E0,3.979500234E-1,2.327639627E0
1.743862075E0,6.550500393E-1,2.398950100E0,1.300500035E-1,2.490173717E0
1.745827018E0,8.470500112E-1,2.629050016E0,-1.759500057E-1,2.767734835E0
1.747791218E0,1.077000022E0,2.782050133E0,-3.289500177E-1,3.001323059E0
1.749755635E0,1.306950092E0,2.896950245E0,-4.819500148E-1,3.214454088E0
1.751719213E0,1.345050097E0,3.166050196E0,-7.510500550E-1,3.520952966E0
1.753683030E0,1.651950121E0,3.319050074E0,-9.810000658E-1,3.835021998E0
1.755646746E0,1.843950033E0,3.511050224E0,-1.210950017E0,4.146567900E0
1.757610491E0,2.188950062E0,3.702000141E0,-1.708950043E0,4.627830773E0
1.759574174E0,2.457000017E0,3.894000292E0,-2.130000114E0,5.073163495E0
1.761537876E0,2.686950207E0,4.009050369E0,-2.743950129E0,5.551706817E0
1.763501900E0,2.917050123E0,4.201050282E0,-3.241950035E0,6.055431027E0
1.765465816E0,3.070050240E0,4.239000320E0,-3.970050097E0,6.569294480E0
1.767429516E0,3.223050117E0,4.354050159E0,-4.698000431E0,7.170565731E0
1.769393280E0,3.300000191E0,4.354050159E0,-5.427000046E0,7.700654748E0
1.771357094E0,3.376950264E0,4.354050159E0,-6.040050507E0,8.175803080E0
1.773320893E0,3.415050268E0,4.354050159E0,-6.691050529E0,8.682769046E0
1.775284637E0,3.300000191E0,4.315950394E0,-7.381050587E0,9.165006101E0
1.777248381E0,3.147000074E0,4.276950359E0,-7.918050289E0,9.533699923E0
1.779212064E0,3.031950235E0,4.201050282E0,-8.416049957E0,9.882886349E0
1.781175765E0,2.839950085E0,4.085999966E0,-8.646000862E0,9.975672564E0
1.783139456E0,2.533950090E0,4.009050369E0,-8.455050468E0,9.694393552E0
1.785103150E0,2.341950178E0,3.856050253E0,-7.840950489E0,9.046234507E0
1.787067040E0,2.074050188E0,3.702000141E0,-6.652950287E0,7.891022541E0
1.789030859E0,1.804950118E0,3.511050224E0,-5.158050060E0,6.495444483E0
1.790994666E0,1.459950089E0,3.357000113E0,-3.165000200E0,4.839228274E0
1.792958476E0,1.269000053E0,3.204000235E0,-9.420000315E-1,3.572582077E0
1.794921247E0,1.192050099E0,3.088950157E0,1.624950051E0,3.688232528E0
1.796884323E0,1.114950061E0,3.051000118E0,4.078050137E0,5.213655941E0
1.798847984E0,1.114950061E0,3.012000084E0,6.262050152E0,7.037650904E0
1.800811474E0,1.153950095E0,3.127050161E0,8.140049934E0,8.796047775E0
1.802775697E0,1.230000019E0,3.280950069E0,9.865050316E0,1.046884670E1
1.804739705E0,1.269000053E0,3.625950098E0,1.166595078E1,1.228219373E1
1.806703390E0,1.306950092E0,4.085999966E0,1.342995071E1,1.409847830E1
1.808667169E0,1.306950092E0,4.621950150E0,1.503900051E1,1.578740251E1
1.810631161E0,1.459950089E0,5.119950294E0,1.626600075E1,1.711514317E1
1.812595090E0,1.767000079E0,5.695050240E0,1.707105064E1,1.808249586E1
1.814558743E0,2.265000105E0,6.270000458E0,1.726200104E1,1.850458892E1
1.816522477E0,2.686950207E0,6.997950554E0,1.638105011E1,1.801471110E1
1.818485847E0,3.223050117E0,7.687950134E0,1.465605068E1,1.686097420E1
1.820449323E0,3.492000103E0,8.722949982E0,1.262505054E1,1.573771973E1
1.822412876E0,3.798000097E0,9.757950783E0,1.032495022E1,1.470533934E1
1.824376403E0,3.721950293E0,1.117605019E1,7.948950291E0,1.421065876E1
1.826340484E0,2.992950201E0,1.316895103E1,5.341950417E0,1.452292865E1
1.828304403E0,1.729050040E0,1.546905041E1,2.122950077E0,1.570948922E1
1.830268192E0,3.870000243E-1,1.792200089E1,-1.018950105E0,1.795511470E1
1.832232020E0,-1.068000078E0,2.049000168E1,-2.974050045E0,2.073223979E1
1.834195708E0,-1.950000048E0,2.305800056E1,-4.429950237E0,2.356052523E1
1.836159424E0,-2.485950232E0,2.589405060E1,-5.887050152E0,2.667094232E1
1.838122571E0,-2.640000105E0,2.892195129E1,-7.075050354E0,2.989155742E1
1.840085885E0,-1.950000048E0,3.168105125E1,-8.301000595E0,3.280850682E1
1.842050408E0,4.200000316E-2,3.375105286E1,-9.373950005E0,3.502864930E1
1.844014576E0,3.108000040E0,3.509295273E1,-1.040895081E1,3.673583063E1
1.845978323E0,7.516050339E0,3.513105011E1,-1.132905006E1,3.767000225E1
1.847942193E0,1.157895088E1,3.478605270E1,-1.132905006E1,3.837302362E1
1.849905720E0,1.280505085E1,3.463305283E1,-1.186605072E1,3.878428593E1
1.851869347E0,1.299705029E1,3.493905258E1,-1.221105099E1,3.922716505E1
1.853832870E0,1.142595100E1,3.513105011E1,-1.201905060E1,3.884843131E1
1.855796424E0,7.516050339E0,3.474795151E1,-1.148205090E1,3.735971948E1
1.857759058E0,2.074050188E0,3.367395020E1,-1.098405075E1,3.548078320E1
1.859721962E0,-3.138000250E0,3.241005325E1,-1.052400017E1,3.422006980E1
1.861685789E0,-7.276950359E0,3.076200104E1,-1.044795036E1,3.329285781E1
1.863649345E0,-1.026705074E1,2.915205193E1,-1.071600056E1,3.271218627E1
1.865613196E0,-1.233705044E1,2.788695145E1,-1.098405075E1,3.241194603E1
1.867576960E0,-1.360095024E1,2.692905045E1,-1.102200031E1,3.211921693E1
1.869540870E0,-1.402305031E1,2.623905182E1,-1.090695095E1,3.168746376E1
1.871504734E0,-1.402305031E1,2.574105072E1,-1.052400017E1,3.114485851E1
1.873468713E0,-1.367805099E1,2.543400192E1,-1.025595093E1,3.064575113E1
1.875432658E0,-1.348605061E1,2.535705185E1,-9.718950272E0,3.032015227E1
1.877396308E0,-1.363995075E1,2.524200058E1,-8.914050102E0,3.004441943E1
1.879360044E0,-1.417605114E1,2.508900070E1,-8.263050079E0,2.997826511E1
1.881323789E0,-1.498095036E1,2.482095146E1,-7.995000362E0,3.007371836E1
1.883287521E0,-1.620795059E1,2.443800163E1,-8.071050644E0,3.041472414E1
1.885251161E0,-1.701300049E1,2.401605034E1,-8.646000862E0,3.067517221E1
1.887214828E0,-1.751100159E1,2.336400032E1,-9.183000565E0,3.060782885E1
1.889178524E0,-1.781700134E1,2.271300125E1,-9.451050758E0,3.037512672E1
1.891142211E0,-1.797105026E1,2.198505020E1,-9.757950783E0,3.002530072E1
1.893105940E0,-1.793205070E1,2.137095070E1,-1.075395012E1,2.989855213E1
1.895069663E0,-1.777905083E1,2.071995163E1,-1.186605072E1,2.976935007E1
1.897033306E0,-1.743405151E1,2.002995110E1,-1.286205101E1,2.950554947E1
1.898996972E0,-1.720395088E1,1.922504997E1,-1.332195091E1,2.903537237E1
1.900960534E0,-1.685895157E1,1.830495071E1,-1.305405045E1,2.810166724E1
1.902924126E0,-1.636095047E1,1.746195030E1,-1.178895092E1,2.667545262E1
1.904887984E0,-1.586295033E1,1.661894989E1,-9.834000587E0,2.499060335E1
1.906851754E0,-1.528800106E1,1.573695087E1,-8.224950790E0,2.343127002E1
1.908815434E0,-1.475100040E1,1.508595085E1,-7.150950432E0,2.227810625E1
1.910779140E0,-1.425300026E1,1.447200108E1,-6.385050297E0,2.129215111E1
1.912742514E0,-1.379295063E1,1.393605042E1,-5.809950352E0,2.045029367E1
1.914705986E0,-1.321800041E1,1.362900066E1,-5.388000488E0,1.973564651E1
1.916669361E0,-1.268205070E1,1.351395035E1,-4.774950027E0,1.913795736E1
1.918632761E0,-1.225995064E1,1.355205059E1,-3.970050097E0,1.870095620E1
1.920596818E0,-1.156995010E1,1.351395035E1,-2.896950245E0,1.802450887E1
1.922560682E0,-1.068795013E1,1.336095047E1,-1.939050078E0,1.721938416E1
1.924524210E0,-9.730050087E0,1.297800064E1,-1.096050024E0,1.625741987E1
1.926487837E0,-8.734050751E0,1.255605030E1,-2.910000086E-1,1.529780124E1
1.928450825E0,-7.776000500E0,1.186605072E1,5.509500504E-1,1.419763675E1
1.930413996E0,-6.970950127E0,1.106100082E1,1.279950023E0,1.313690058E1
1.932378272E0,-6.280950069E0,1.044795036E1,1.548000097E0,1.228846227E1
1.934342225E0,-5.859000206E0,9.835050583E0,1.893000126E0,1.160342850E1
1.936305739E0,-5.514000416E0,9.336000443E0,2.085000038E0,1.104139167E1
1.938269381E0,-5.131050110E0,8.877000809E0,3.118950129E0,1.071712035E1
1.940233206E0,-5.053950310E0,8.877000809E0,3.771000147E0,1.088870971E1
1.942196984E0,-4.900950432E0,8.800050735E0,3.733050108E0,1.074224703E1
1.944160708E0,-4.479000092E0,8.532000542E0,3.310950041E0,1.018915429E1
1.946124448E0,-4.057950020E0,8.110050201E0,2.965950251E0,9.541317180E0
1.948088266E0,-3.636000156E0,7.687950134E0,2.928000212E0,8.994345982E0
1.950052061E0,-3.175950050E0,7.381950378E0,2.965950251E0,8.566020721E0
1.952015943E0,-2.677950144E0,7.036950111E0,3.234000206E0,8.194439650E0
1.953979812E0,-1.987950087E0,6.922050476E0,3.694050074E0,8.093993717E0
1.955943430E0,-1.297950029E0,7.036950111E0,4.308000088E0,8.352377261E0
1.957907121E0,-6.469500065E-1,7.189950466E0,5.035950184E0,8.801972862E0
1.959872074E0,8.100000024E-2,7.458000183E0,5.457000256E0,9.241600485E0
1.961836658E0,7.699500322E-1,7.957050323E0,5.457000256E0,9.679169628E0
1.963800184E0,1.230000019E0,8.608050346E0,5.419050217E0,1.024585458E1
1.965764030E0,1.422000051E0,9.490050316E0,5.188950062E0,1.090909446E1
1.967728100E0,1.767000079E0,1.048605061E1,4.843950272E0,1.168517868E1
1.969692105E0,2.265000105E0,1.125300026E1,4.384050369E0,1.228739753E1
1.971655745E0,2.686950207E0,1.213395023E1,3.541050196E0,1.292251857E1
1.973619492E0,3.070050240E0,1.305405045E1,2.659050226E0,1.367128339E1
1.975583125E0,3.529950142E0,1.389705086E1,1.548000097E0,1.442168072E1
1.977546795E0,4.105050087E0,1.462605095E1,9.730500579E-1,1.522233980E1
1.979510535E0,4.680000305E0,1.512405109E1,1.279950023E0,1.588324892E1
1.981474254E0,5.178000450E0,1.558395100E1,1.930950046E0,1.653480527E1
1.983437943E0,5.485050201E0,1.585200119E1,3.004050255E0,1.704101040E1
1.985401641E0,5.715000153E0,1.592895031E1,3.886050224E0,1.736358463E1
1.987365306E0,6.136050224E0,1.569900036E1,4.921050072E0,1.755922716E1
1.989328967E0,6.405000210E0,1.523895073E1,5.686950207E0,1.748116271E1
1.991293024E0,6.979950428E0,1.447200108E1,6.454050541E0,1.731511743E1
1.993256965E0,7.401000500E0,1.355205059E1,6.721950531E0,1.684094720E1
1.995220796E0,8.053050041E0,1.251795101E1,6.837000370E0,1.637972181E1
1.997184660E0,9.126000404E0,1.132905006E1,7.297050476E0,1.627507924E1
1.999148383E0,9.969000816E0,1.018005085E1,7.756950378E0,1.622296803E1
2.001112136E0,1.096605015E1,9.030000687E0,8.485050201E0,1.654663849E1
2.003076132E0,1.169400024E1,7.842000484E0,9.098999977E0,1.676420037E1
2.005040057E0,1.238400078E1,6.654000282E0,9.787950516E0,1.713018302E1
2.007004070E0,1.291995049E1,5.580000401E0,1.028700066E1,1.743226628E1
2.008968057E0,1.326495075E1,4.621950150E0,1.021005058E1,1.736566942E1
2.010931890E0,1.357200050E1,3.702000141E0,9.826950073E0,1.716021417E1
2.012895762E0,1.353405094E1,2.782050133E0,8.907000542E0,1.643913004E1
2.014859468E0,1.345695019E1,2.053950071E0,7.834050179E0,1.570606766E1
2.016823223E0,1.326495075E1,1.518000126E0,6.991050243E0,1.507109904E1
2.018787264E0,1.284405041E1,1.057950020E0,6.415950298E0,1.439629492E1
2.020751221E0,1.234500027E1,7.129500508E-1,5.994000435E0,1.374173827E1
2.022715544E0,1.177005100E1,4.830000103E-1,5.649000168E0,1.306440173E1
2.024679760E0,1.092705059E1,3.679500222E-1,5.380950451E0,1.218566574E1
2.026643589E0,9.853950500E0,5.209500194E-1,5.188950062E0,1.114885340E1
2.028607531E0,8.857950211E0,6.360000372E-1,5.266050339E0,1.032468228E1
2.030571675E0,7.975950241E0,5.209500194E-1,5.074050426E0,9.467479015E0
2.032535760E0,7.324050426E0,2.140500098E-1,5.074050426E0,8.912548445E0
2.034499926E0,6.750000477E0,-1.680000126E-1,5.035950184E0,8.423272802E0
2.036464068E0,6.289950371E0,-3.589500189E-1,5.112000465E0,8.113252710E0
2.038428089E0,6.021000385E0,-8.190000653E-1,5.035950184E0,7.892021351E0
2.040392146E0,5.446050167E0,-1.164000034E0,5.227050304E0,7.637827792E0
2.042355731E0,5.062950134E0,-1.548000097E0,5.457000256E0,7.603198021E0
2.044319454E0,4.603050232E0,-1.816050053E0,5.457000256E0,7.366475482E0
2.046283695E0,4.258049965E0,-2.199000120E0,4.729050159E0,6.732793361E0
2.048247774E0,4.066950321E0,-2.659050226E0,3.886050224E0,6.221898373E0
2.050211581E0,3.874950171E0,-3.118950129E0,3.310950041E0,5.975406170E0
2.052175468E0,3.682950258E0,-3.502050161E0,3.004050255E0,5.903625655E0
2.054139486E0,3.492000103E0,-3.847050190E0,2.812950134E0,5.908176397E0
2.056103466E0,3.376950264E0,-4.231050014E0,2.659050226E0,6.031262340E0
2.058067485E0,3.223050117E0,-4.690050125E0,2.391000032E0,6.172641525E0
2.060031481E0,2.992950201E0,-5.149950027E0,2.122950077E0,6.323500077E0
2.061995302E0,2.764050245E0,-5.457000256E0,2.122950077E0,6.475009079E0
2.063959175E0,2.419050217E0,-5.610000134E0,1.969950080E0,6.419081614E0
2.065923241E0,1.843950033E0,-5.878950119E0,1.510050058E0,6.343694303E0
2.067887250E0,1.384050012E0,-6.070050240E0,9.730500579E-1,6.301422916E0
2.069852085E0,1.153950095E0,-6.262050152E0,2.830500007E-1,6.373773625E0
2.071816692E0,7.699500322E-1,-6.415050507E0,-2.520000041E-1,6.466003407E0
2.073779553E0,4.639500082E-1,-6.529950142E0,-6.739500165E-1,6.581011099E0
2.075742925E0,2.719500065E-1,-6.607050419E0,-9.420000315E-1,6.679403873E0
2.077707572E0,4.200000316E-2,-6.568950176E0,-1.249050021E0,6.686777727E0
2.079671846E0,-2.629500031E-1,-6.300000191E0,-1.555950046E0,6.494622826E0
2.081636096E0,-5.700000525E-1,-5.994000435E0,-1.786050081E0,6.280359557E0
2.083600367E0,-8.380500674E-1,-5.572050095E0,-2.014950037E0,5.984153560E0
2.085564141E0,-1.068000078E0,-5.188950062E0,-2.092050076E0,5.695831847E0
2.087528060E0,-1.183050036E0,-4.690050125E0,-2.053950071E0,5.254987009E0
2.089492118E0,-1.336950064E0,-4.306950092E0,-1.861950040E0,4.878945841E0
2.091456135E0,-1.375050068E0,-3.771000147E0,-1.594050050E0,4.318819325E0
2.093420312E0,-1.489950061E0,-3.349050045E0,-1.402050018E0,3.924516740E0
2.095384442E0,-1.528050065E0,-2.889000177E0,-1.287000060E0,3.512496004E0
2.097348241E0,-1.489950061E0,-2.467050076E0,-1.249050021E0,3.141084719E0
2.099312137E0,-1.489950061E0,-2.008050203E0,-1.171950102E0,2.761464076E0
2.101275929E0,-1.375050068E0,-1.624050021E0,-1.134000063E0,2.411277110E0
2.103239752E0,-1.222050071E0,-1.356000066E0,-1.057050109E0,2.109383201E0
2.105203268E0,-9.919500351E-1,-1.126049995E0,-7.890000343E-1,1.695427533E0
2.107166887E0,-7.230000496E-1,-9.730500579E-1,-4.440000355E-1,1.291004074E0
2.109130590E0,-5.320500135E-1,-8.190000653E-1,-1.759500057E-1,9.923692500E-1
2.111094269E0,-3.780000210E-1,-6.280500293E-1,2.449500114E-1,7.728721519E-1
2.113057424E0,-7.200000435E-2,-5.509500504E-1,5.509500504E-1,7.824806174E-1
2.115020733E0,8.100000024E-2,-3.979500234E-1,9.730500579E-1,1.054396337E0
2.116985765E0,2.719500065E-1,-2.830500007E-1,1.240950108E0,1.301549568E0
2.118950283E0,6.169500351E-1,-1.680000126E-1,1.432950020E0,1.569138971E0
2.120913249E0,9.240000248E-1,-1.290000081E-1,1.548000097E0,1.807407356E0
2.122876670E0,1.230000019E0,2.295000106E-2,1.740000129E0,2.130968605E0
2.124840092E0,1.498950124E0,2.910000086E-1,1.893000126E0,2.432073592E0
2.126803514E0,1.804950118E0,5.980500579E-1,1.893000126E0,2.683087452E0
2.128767623E0,2.341950178E0,8.280000687E-1,2.238000154E0,3.343495094E0
2.130731524E0,2.764050245E0,1.173000097E0,2.889000177E0,4.166800333E0
2.132695182E0,3.147000074E0,1.555950046E0,3.886050224E0,5.236981608E0
2.134658911E0,3.337950230E0,2.053950071E0,5.304000378E0,6.594925522E0
2.136622552E0,3.376950264E0,2.476050138E0,7.029000282E0,8.181776234E0
2.138586219E0,3.108000040E0,3.051000118E0,8.869050026E0,9.880704142E0
2.140549600E0,2.839950085E0,3.511050224E0,1.044000053E1,1.137481434E1
2.142513065E0,2.494950056E0,4.047000408E0,1.170495033E1,1.263363963E1
2.144476750E0,1.959000111E0,4.621950150E0,1.247100067E1,1.344343566E1
2.146440370E0,1.537050128E0,5.197050095E0,1.266300106E1,1.377401353E1
2.148403941E0,1.306950092E0,5.887050152E0,1.193505096E1,1.337202003E1
2.150367526E0,1.077000022E0,6.577050209E0,1.086195087E1,1.274360606E1
2.152331186E0,8.089500666E-1,7.342950344E0,9.214050293E0,1.180982823E1
2.154294827E0,7.699500322E-1,8.187000275E0,6.568950176E0,1.052477567E1
2.156258574E0,1.230000019E0,8.761950493E0,4.231050014E0,9.807469639E0
2.158222289E0,1.498950124E0,9.259950638E0,1.701000094E0,9.533464145E0
2.160187013E0,1.843950033E0,9.873000145E0,-5.970000029E-1,1.006144585E1
2.162151442E0,1.920000076E0,1.075500011E1,-2.820000172E0,1.128312141E1
2.164114800E0,1.651950121E0,1.194300079E1,-4.890000343E0,1.301062299E1
2.166078492E0,8.089500666E-1,1.370595074E1,-6.538050175E0,1.520702423E1
2.168041509E0,-7.230000496E-1,1.562205029E1,-7.534950256E0,1.735933926E1
2.170004723E0,-2.485950232E0,1.773000145E1,-7.458000183E0,1.939470718E1
2.171968812E0,-4.441050053E0,2.052795029E1,-6.883050442E0,2.210194679E1
2.173932644E0,-6.357000351E0,2.390100098E1,-5.962950230E0,2.544063829E1
2.175896834E0,-7.966950417E0,2.685195160E1,-5.158050060E0,2.847990667E1
2.177860933E0,-9.499950409E0,3.037800217E1,-4.047000408E0,3.208504770E1
2.179824737E0,-1.130205059E1,3.543795013E1,-2.169000149E0,3.725975334E1
2.181788627E0,-1.264305019E1,4.049700165E1,-6.739500165E-1,4.243003735E1
2.183751429E0,-1.371600056E1,4.536405182E1,-2.140500098E-1,4.739273875E1
2.185714550E0,-1.387005043E1,5.023200226E1,5.899500251E-1,5.211506875E1
2.187678475E0,-1.325595093E1,5.414100266E1,1.432950020E0,5.575860247E1
2.189642164E0,-1.145505047E1,5.605800247E1,1.203000069E0,5.722905758E1
2.191606938E0,-9.385050774E0,5.732295227E1,1.680000126E-1,5.808638618E1
2.193571394E0,-7.123950481E0,5.820405197E1,-1.441050053E0,5.865610762E1
2.195534957E0,-4.479000092E0,5.808900452E1,-2.667000055E0,5.832243802E1
2.197498781E0,-1.834950089E0,5.713095093E1,-3.549000263E0,5.727048104E1
2.199463215E0,9.619500637E-1,5.452500153E1,-4.545000076E0,5.472255627E1
2.201427471E0,3.184950113E0,5.088405228E1,-5.388000488E0,5.126754561E1
2.203391428E0,4.680000305E0,4.682100296E1,-5.772000313E0,4.740701118E1
2.205355473E0,6.060000420E0,4.298805237E1,-6.576000214E0,4.390831391E1
2.207319240E0,7.095000267E0,3.927000046E1,-7.420050144E0,4.058976606E1
2.209283089E0,7.018050194E0,3.589695358E1,-7.573050499E0,3.735231451E1
2.211246739E0,5.791050434E0,3.317595291E1,-6.997950554E0,3.439696831E1
2.213210458E0,4.717950344E0,3.099195099E1,-6.844950199E0,3.208758989E1
2.215173831E0,3.952050209E0,2.911305046E1,-7.075050354E0,3.021993954E1
2.217137305E0,3.529950142E0,2.734995079E1,-7.458000183E0,2.856750117E1
2.219100808E0,3.415050268E0,2.574105072E1,-8.148000717E0,2.721496236E1
2.221064303E0,3.453000069E0,2.420805168E1,-8.683950424E0,2.594925761E1
2.223027859E0,3.607050180E0,2.275095177E1,-9.183000565E0,2.479806679E1
2.224991390E0,3.760050297E0,2.148600197E1,-9.451050758E0,2.377201336E1
2.226954796E0,3.760050297E0,2.037495041E1,-9.834000587E0,2.293434433E1
2.228918238E0,3.798000097E0,1.945500183E1,-1.006395054E1,2.223072202E1
2.230881792E0,3.798000097E0,1.872705078E1,-1.014105034E1,2.163257122E1
2.232845313E0,3.721950293E0,1.799805069E1,-1.029405022E1,2.106537948E1
2.234808660E0,3.529950142E0,1.742400169E1,-1.033305073E1,2.056278970E1
2.236772069E0,3.376950264E0,1.696395111E1,-1.017900085E1,2.006966589E1
2.238735629E0,3.147000074E0,1.642695045E1,-1.006395054E1,1.952002590E1
2.240699144E0,2.917050123E0,1.588995075E1,-9.873000145E0,1.893345843E1
2.242663002E0,2.649000168E0,1.535400105E1,-9.718950272E0,1.836356568E1
2.244626759E0,2.457000017E0,1.481700039E1,-9.412950516E0,1.772523588E1
2.246590487E0,2.457000017E0,1.431900024E1,-9.298050880E0,1.724889467E1
2.248554223E0,2.419050217E0,1.382100105E1,-9.106050491E0,1.672698507E1
2.250518087E0,2.341950178E0,1.336095047E1,-8.646000862E0,1.608580303E1
2.252481913E0,2.035050154E0,1.282395077E1,-8.148000717E0,1.532922236E1
2.254445584E0,1.690050125E0,1.244100094E1,-7.534950256E0,1.464275415E1
2.256409300E0,1.651950121E0,1.209600067E1,-7.534950256E0,1.434634611E1
2.258372628E0,1.804950118E0,1.175100040E1,-6.805950165E0,1.369908074E1
2.260336069E0,1.882050037E0,1.136805058E1,-5.887050152E0,1.293955354E1
2.262300164E0,2.074050188E0,1.083105087E1,-5.197050095E0,1.219109006E1
2.264264067E0,2.149950027E0,1.041000080E1,-4.582950115E0,1.157557055E1
2.266228039E0,2.533950090E0,9.720000267E0,-4.123950005E0,1.085846545E1
2.268191990E0,2.610000134E0,9.183000565E0,-3.817050219E0,1.028151119E1
2.270155883E0,2.839950085E0,8.569950104E0,-3.357000113E0,9.632175820E0
2.272119780E0,2.533950090E0,7.957050323E0,-2.704950094E0,8.777944402E0
2.274083437E0,2.533950090E0,7.381950378E0,-2.398950100E0,8.165112126E0
2.276047165E0,2.686950207E0,6.768000126E0,-1.900950074E0,7.525897840E0
2.278011165E0,2.419050217E0,6.232050419E0,-1.671000123E0,6.890754515E0
2.279975086E0,1.996950150E0,5.734050274E0,-1.441050053E0,6.240494187E0
2.281938920E0,2.035050154E0,5.158950329E0,-1.287000060E0,5.693203560E0
2.283902780E0,1.843950033E0,4.507050037E0,-1.018950105E0,4.975129253E0
2.285866624E0,1.729050040E0,4.085999966E0,-5.970000029E-1,4.476764319E0
2.287830473E0,1.345050097E0,3.702000141E0,-6.105000153E-2,3.939250171E0
2.289792561E0,1.114950061E0,3.319050074E0,3.979500234E-1,3.523857439E0
2.291755165E0,3.490500152E-1,2.859000206E0,1.126049995E0,3.092524322E0
2.293719422E0,-1.480500102E-1,2.398950100E0,1.585950017E0,2.879603765E0
2.295683182E0,-7.230000496E-1,1.900950074E0,2.046000004E0,2.884866768E0
2.297646998E0,-1.222050071E0,1.326000094E0,2.620950222E0,3.181361767E0
2.299610797E0,-1.528050065E0,8.280000687E-1,2.928000212E0,3.404953209E0
2.301575417E0,-1.642950058E0,9.900000691E-2,3.004050255E0,3.425405644E0
2.303539797E0,-1.758000135E0,-3.589500189E-1,2.889000177E0,3.400842780E0
2.305503359E0,-1.873050094E0,-9.730500579E-1,2.583000183E0,3.335720764E0
2.307467170E0,-1.758000135E0,-1.624050021E0,2.200050116E0,3.250895793E0
2.309430617E0,-1.681950092E0,-2.238000154E0,1.969950080E0,3.423200859E0
2.311394170E0,-1.528050065E0,-2.812050104E0,1.740000129E0,3.642823525E0
2.313357390E0,-1.528050065E0,-3.426000118E0,1.471050024E0,4.029441895E0
2.315320708E0,-1.605000019E0,-4.000950336E0,1.279950023E0,4.496876774E0
2.317284264E0,-1.567050099E0,-4.575000286E0,1.050000072E0,4.948613319E0
2.319247764E0,-1.567050099E0,-5.112000465E0,9.349500537E-1,5.427920999E0
2.321211490E0,-1.605000019E0,-5.649000168E0,7.050000429E-1,5.914748770E0
2.323175149E0,-1.528050065E0,-5.994000435E0,7.429500222E-1,6.230164761E0
2.325138623E0,-1.336950064E0,-6.529950142E0,7.429500222E-1,6.706687637E0
2.327102151E0,-1.336950064E0,-6.990000248E0,6.280500293E-1,7.144367416E0
2.329066096E0,-1.183050036E0,-7.450050354E0,7.429500222E-1,7.579896596E0
2.331029918E0,-1.068000078E0,-7.795050144E0,8.200500607E-1,7.910493854E0
2.332993725E0,-1.068000078E0,-8.178000450E0,1.050000072E0,8.314013211E0
2.334957536E0,-1.030050039E0,-8.370000839E0,1.240950108E0,8.523958840E0
2.336921432E0,-8.380500674E-1,-8.599950790E0,1.510050058E0,8.771643671E0
2.338885303E0,-7.620000243E-1,-8.868000031E0,1.740000129E0,9.069160326E0
2.340849150E0,-6.079500318E-1,-8.983050346E0,2.085000038E0,9.241862471E0
2.342813001E0,-5.700000525E-1,-9.060000420E0,2.583000183E0,9.438241235E0
2.344776486E0,-6.079500318E-1,-9.097949982E0,3.118950129E0,9.636915846E0
2.346740078E0,-6.079500318E-1,-9.060000420E0,3.618000269E0,9.774616964E0
2.348703966E0,-6.079500318E-1,-8.944950104E0,4.231050014E0,9.913804508E0
2.350667768E0,-5.700000525E-1,-8.715000153E0,4.690950394E0,9.913684649E0
2.352631597E0,-4.170000255E-1,-8.485050201E0,5.341950417E0,1.003525785E1
2.354595404E0,-1.870500147E-1,-8.062950134E0,5.841000080E0,9.958083878E0
2.356559078E0,-3.299999982E-2,-7.527000427E0,6.415950298E0,9.890462207E0
2.358522791E0,4.200000316E-2,-6.990000248E0,6.952050209E0,9.858644409E0
2.360486479E0,4.200000316E-2,-6.529950142E0,7.105050564E0,9.650065097E0
2.362450175E0,-7.200000435E-2,-5.839950085E0,7.144050121E0,9.227548598E0
2.364414055E0,-2.629500031E-1,-5.265000343E0,7.029000282E0,8.786137734E0
2.366377874E0,-3.780000210E-1,-4.651950359E0,6.837000370E0,8.278170101E0
2.368341725E0,-4.930500090E-1,-4.077000141E0,6.646050453E0,7.812490966E0
2.370305567E0,-4.170000255E-1,-3.463950157E0,6.492000103E0,7.370136027E0
2.372269414E0,-3.019500077E-1,-3.004050255E0,6.301050186E0,6.987039802E0
2.374233259E0,4.050000105E-3,-2.620950222E0,6.339000225E0,6.859469391E0
2.376196916E0,2.719500065E-1,-2.238000154E0,6.876000404E0,7.236158032E0
2.378160636E0,3.870000243E-1,-1.854000092E0,6.684000492E0,6.947153945E0
2.380125269E0,5.410500169E-1,-1.548000097E0,6.339000225E0,6.547668537E0
2.382089634E0,6.550500393E-1,-1.279050112E0,5.956050396E0,6.126956509E0
2.384053392E0,7.320000529E-1,-8.959500194E-1,5.533950329E0,5.653596798E0
2.386017328E0,8.470500112E-1,-5.130000114E-1,4.959000111E0,5.056910601E0
2.387980979E0,8.470500112E-1,-2.059500068E-1,4.308000088E0,4.395312717E0
2.389944713E0,8.089500666E-1,-1.500000060E-2,3.886050224E0,3.969384279E0
2.391908173E0,8.470500112E-1,2.910000086E-1,3.157950163E0,3.282502697E0
2.393871713E0,8.850000501E-1,6.739500165E-1,2.467950106E0,2.707066944E0
2.395834530E0,7.699500322E-1,1.018950105E0,1.663050056E0,2.096859045E0
2.397797559E0,4.639500082E-1,1.402950048E0,1.126049995E0,1.857823200E0
2.399762450E0,3.490500152E-1,1.747950077E0,4.360500276E-1,1.835021801E0
2.401726792E0,2.340000123E-1,2.208000183E0,-2.910000086E-1,2.239352991E0
2.403690419E0,2.340000123E-1,2.590950012E0,-9.420000315E-1,2.766792734E0
2.405654255E0,1.960500032E-1,3.012000084E0,-1.402050018E0,3.328111231E0
2.407617878E0,1.570500135E-1,3.472050190E0,-1.977000117E0,3.998540570E0
2.409581563E0,8.100000024E-2,3.894000292E0,-2.514000177E0,4.635730381E0
2.411545467E0,8.100000024E-2,4.276950359E0,-3.012000084E0,5.231731060E0
2.413509316E0,2.340000123E-1,4.468950272E0,-3.702000141E0,5.807846208E0
2.415473297E0,3.490500152E-1,4.699050426E0,-4.200000286E0,6.312124304E0
2.417437239E0,3.870000243E-1,4.774950027E0,-4.545000076E0,6.603555291E0
2.419401249E0,3.490500152E-1,4.852050304E0,-4.890000343E0,6.897559817E0
2.421365239E0,1.960500032E-1,4.774950027E0,-5.158050060E0,7.031647303E0
2.423328882E0,4.050000105E-3,4.660050392E0,-5.427000046E0,7.153210157E0
2.425292626E0,-2.629500031E-1,4.545000076E0,-5.580000401E0,7.201567390E0
2.427256849E0,-6.079500318E-1,4.431000233E0,-5.617950439E0,7.180858824E0
2.429220932E0,-8.770500422E-1,4.239000320E0,-5.695050240E0,7.153456348E0
2.431184738E0,-1.297950029E0,4.047000408E0,-5.617950439E0,7.044448433E0
2.433148626E0,-1.489950061E0,3.931950092E0,-5.272950172E0,6.744196485E0
2.435112496E0,-1.720050097E0,3.778950214E0,-5.082000256E0,6.562451040E0
2.437076381E0,-1.873050094E0,3.664050102E0,-4.698000431E0,6.245381322E0
2.439040400E0,-1.950000048E0,3.549000263E0,-3.931950092E0,5.644301071E0
2.441004379E0,-1.987950087E0,3.549000263E0,-2.935050249E0,5.016160721E0
2.442967663E0,-2.065050125E0,3.664050102E0,-1.402050018E0,4.433445548E0
2.444931150E0,-2.103000164E0,3.894000292E0,7.810500264E-1,4.493983434E0
2.446894656E0,-2.065050125E0,4.392000198E0,3.541050196E0,6.007756174E0
2.448858153E0,-1.911000133E0,4.966950417E0,6.568950176E0,8.454207495E0
2.450822239E0,-1.720050097E0,5.848950386E0,9.481950760E0,1.127280724E1
2.452786153E0,-1.489950061E0,6.768000126E0,1.189605045E1,1.376741781E1
2.454749809E0,-9.529500604E-1,7.726950169E0,1.350600052E1,1.558928872E1
2.456713540E0,-3.780000210E-1,8.722949982E0,1.411905098E1,1.660061267E1
2.458678112E0,2.719500065E-1,9.873000145E0,1.377405071E1,1.694917584E1
2.460642447E0,1.077000022E0,1.106100082E1,1.251000023E1,1.673337306E1
2.462606616E0,1.882050037E0,1.244100094E1,1.055505085E1,1.642345016E1
2.464570834E0,2.992950201E0,1.389705086E1,8.064000130E0,1.634361868E1
2.466534751E0,4.105050087E0,1.546905041E1,4.614000320E0,1.665628877E1
2.468498757E0,4.488000393E0,1.746195030E1,5.899500251E-1,1.803912129E1
2.470463341E0,4.105050087E0,2.018295097E1,-3.394950151E0,2.087411394E1
2.472427755E0,3.952050209E0,2.328795052E1,-6.921000481E0,2.461397139E1
2.474391279E0,3.300000191E0,2.643105125E1,-1.014105034E1,2.850142757E1
2.476355064E0,2.265000105E0,2.953500175E1,-1.209600067E1,3.199624644E1
2.478319100E0,1.767000079E0,3.233295059E1,-1.205700016E1,3.455304959E1
2.480283062E0,2.188950062E0,3.455595016E1,-1.083105087E1,3.627970310E1
2.482246744E0,2.725050211E0,3.628095245E1,-8.799000740E0,3.743201602E1
2.484210516E0,4.795050144E0,3.700905228E1,-7.075050354E0,3.798313828E1
2.486174014E0,8.206049919E0,3.670200348E1,-6.078000069E0,3.809617303E1
2.488137593E0,1.207695103E1,3.559095001E1,-5.311950207E0,3.795767754E1
2.490100899E0,1.518195057E1,3.417300034E1,-3.778950214E0,3.758411952E1
2.492064285E0,1.663800049E1,3.256305313E1,-2.437050104E0,3.664852934E1
2.494028195E0,1.525800037E1,3.145095062E1,-1.747050047E0,3.500030077E1
2.495991962E0,1.035195065E1,3.041700172E1,-1.708950043E0,3.217572666E1
2.497955282E0,5.293050289E0,2.911305046E1,-1.977000117E0,2.965627451E1
2.499918733E0,1.459950089E0,2.769495201E1,-2.551950216E0,2.785057039E1
2.501881746E0,-1.183050036E0,2.604705048E1,-3.433950186E0,2.629905815E1
2.503844887E0,-3.022950172E0,2.439900208E1,-4.315050125E0,2.496135388E1
2.505808502E0,-4.249050140E0,2.275095177E1,-5.350050449E0,2.375464740E1
2.507771971E0,-4.708950043E0,2.140995026E1,-6.576000214E0,2.288676384E1
2.509735387E0,-4.326000214E0,2.022105026E1,-7.765050411E0,2.208848477E1
2.511698819E0,-3.943050146E0,1.945500183E1,-8.569950104E0,2.162148897E1
2.513662915E0,-3.865950108E0,1.903305054E1,-9.106050491E0,2.145047176E1
2.515626817E0,-4.173000336E0,1.895700073E1,-8.914050102E0,2.135982439E1
2.517590445E0,-4.863000393E0,1.891800117E1,-8.301000595E0,2.122371674E1
2.519554142E0,-6.127950191E0,1.903305054E1,-7.342950344E0,2.130088510E1
2.521517833E0,-6.856050491E0,1.911000061E1,-6.270000458E0,2.124877543E1
2.523481526E0,-7.468950272E0,1.899495125E1,-5.427000046E0,2.111979452E1
2.525445262E0,-8.619000435E0,1.899495125E1,-4.582950115E0,2.135646912E1
2.527408986E0,-9.424050331E0,1.891800117E1,-4.276950359E0,2.156376121E1
2.529372843E0,-1.015200043E1,1.884195137E1,-4.009050369E0,2.177509424E1
2.531336668E0,-1.080300045E1,1.876500130E1,-3.855000257E0,2.199297887E1
2.533300474E0,-1.130205059E1,1.868805122E1,-4.009050369E0,2.220477631E1
2.535264285E0,-1.164705086E1,1.857299995E1,-4.429950237E0,2.236592453E1
2.537228182E0,-1.199205017E1,1.853505135E1,-4.927950382E0,2.261950686E1
2.539192053E0,-1.214505100E1,1.838205147E1,-5.503050327E0,2.270871293E1
2.541155715E0,-1.206795025E1,1.826700020E1,-6.040050507E0,2.271125117E1
2.543119439E0,-1.195305061E1,1.807500076E1,-6.307950497E0,2.256925588E1
2.545083126E0,-1.187700081E1,1.803705025E1,-6.307950497E0,2.249863483E1
2.547046824E0,-1.137795067E1,1.784505081E1,-6.270000458E0,2.207298135E1
2.549010649E0,-1.076505089E1,1.765395164E1,-6.232050419E0,2.159598995E1
2.550974437E0,-1.015200043E1,1.753905106E1,-6.001950264E0,2.113539287E1
2.552938289E0,-9.462000847E0,1.730895042E1,-5.503050327E0,2.047957001E1
2.554902125E0,-8.772000313E0,1.711695099E1,-5.005050182E0,1.987431830E1
2.556866198E0,-8.121000290E0,1.673400116E1,-4.507050037E0,1.913872881E1
2.558830202E0,-7.431000233E0,1.631204987E1,-4.009050369E0,1.836777668E1
2.560794202E0,-6.894000530E0,1.600500107E1,-3.357000113E0,1.774702094E1
2.562758204E0,-6.241950512E0,1.573695087E1,-2.782050133E0,1.715672964E1
2.564722023E0,-5.553000450E0,1.546905041E1,-2.514000177E0,1.662671138E1
2.566685896E0,-4.824000359E0,1.512405109E1,-2.551950216E0,1.607856806E1
2.568649692E0,-4.134000301E0,1.481700039E1,-2.667000055E0,1.561237805E1
2.570613511E0,-3.406050205E0,1.462605095E1,-3.127050161E0,1.533952369E1
2.572577227E0,-2.716050148E0,1.420395088E1,-3.241950035E0,1.482023580E1
2.574540973E0,-2.140950203E0,1.370595074E1,-3.049950123E0,1.420348370E1
2.576504956E0,-1.758000135E0,1.297800064E1,-2.514000177E0,1.333563879E1
2.578468880E0,-1.605000019E0,1.201905060E1,-1.977000117E0,1.228585088E1
2.580432714E0,-1.528050065E0,1.113795090E1,-1.326000094E0,1.132021040E1
2.582396574E0,-1.567050099E0,1.014105034E1,-8.659500480E-1,1.029788413E1
2.584360057E0,-1.873050094E0,9.375000000E0,-4.060500264E-1,9.568898488E0
2.586323651E0,-2.256000042E0,8.800050735E0,2.449500114E-1,9.087927687E0
2.588286829E0,-2.677950144E0,8.493000031E0,7.429500222E-1,8.936131223E0
2.590250122E0,-3.100050211E0,8.110050201E0,1.126049995E0,8.755067914E0
2.592213881E0,-3.675000191E0,7.803000450E0,1.203000069E0,8.708596419E0
2.594177504E0,-4.210950375E0,7.765050411E0,7.050000429E-1,8.861440967E0
2.596142109E0,-4.518000126E0,7.650000572E0,2.830500007E-1,8.889035448E0
2.598106427E0,-4.441050053E0,7.573050499E0,-6.105000153E-2,8.779393290E0
2.600069888E0,-4.249050140E0,7.612050533E0,-4.440000355E-1,8.728967662E0
2.602033593E0,-3.712950230E0,7.534950256E0,-7.890000343E-1,8.437060852E0
2.603997418E0,-3.253050089E0,7.420050144E0,-9.810000658E-1,8.160995047E0
2.605961207E0,-2.677950144E0,7.342950344E0,-1.363950014E0,7.934147489E0
2.607924883E0,-2.026050091E0,7.189950466E0,-1.632000089E0,7.646155306E0
2.609888593E0,-1.489950061E0,7.189950466E0,-2.092050076E0,7.634920590E0
2.611852282E0,-1.106999993E0,7.305000305E0,-2.551950216E0,7.816708281E0
2.613815978E0,-8.770500422E-1,7.534950256E0,-3.127050161E0,8.205067632E0
2.615779489E0,-6.469500065E-1,7.879950523E0,-3.739950180E0,8.746393080E0
2.617743055E0,-6.079500318E-1,8.302050591E0,-4.315050125E0,9.376209513E0
2.619706768E0,-5.320500135E-1,8.722949982E0,-4.966950417E0,1.005204109E1
2.621670437E0,-5.320500135E-1,8.953050613E0,-5.197050095E0,1.036578613E1
2.623634004E0,-6.079500318E-1,9.220950127E0,-4.545000076E0,1.029818189E1
2.625597598E0,-6.850500107E-1,9.375000000E0,-3.127050161E0,9.906480769E0
2.627561261E0,-9.150000215E-1,9.681000710E0,-1.594050050E0,9.853932988E0
2.629524904E0,-1.106999993E0,1.010295010E1,9.195000678E-2,1.016383316E1
2.631487930E0,-8.770500422E-1,1.025595093E1,2.200050116E0,1.052587130E1
2.633451137E0,-4.930500090E-1,1.044795036E1,4.308000088E0,1.131201264E1
2.635415791E0,3.109500110E-1,1.060095024E1,6.415950298E0,1.239521094E1
2.637380004E0,1.614000082E0,1.052505016E1,8.983950615E0,1.393172803E1
2.639343653E0,2.764050245E0,1.044795036E1,1.124505043E1,1.559649960E1
2.641307467E0,3.952050209E0,1.025595093E1,1.231800079E1,1.650867571E1
2.643270733E0,4.987050056E0,9.873000145E0,1.273995018E1,1.687166651E1
2.645234160E0,5.868000507E0,9.412950516E0,1.239495087E1,1.663345648E1
2.647197746E0,6.750000477E0,8.953050613E0,1.174305058E1,1.623634376E1
2.649161264E0,7.401000500E0,8.377950668E0,1.082295036E1,1.555959898E1
2.651124672E0,7.783950329E0,7.803000450E0,9.787950516E0,1.474044348E1
2.653088112E0,7.401000500E0,7.458000183E0,8.599950790E0,1.357776597E1
2.655051666E0,6.634950161E0,7.152000427E0,7.834050179E0,1.251183504E1
2.657015187E0,6.097950459E0,6.807000160E0,7.642050266E0,1.191306775E1
2.658978563E0,5.638050079E0,6.270000458E0,7.642050266E0,1.137987024E1
2.660941972E0,5.485050201E0,5.580000401E0,7.527000427E0,1.085715965E1
2.662905532E0,5.254950047E0,4.813950062E0,7.411950588E0,1.028229676E1
2.664869047E0,4.795050144E0,4.085999966E0,6.991050243E0,9.410774947E0
2.666832950E0,4.680000305E0,3.241950035E0,6.492000103E0,8.634738457E0
2.668796739E0,4.564949989E0,2.514000177E0,6.147000313E0,8.058819898E0
2.670760255E0,4.411950111E0,1.824000120E0,5.686950207E0,7.425205915E0
2.672723837E0,4.527000427E0,1.057950020E0,5.188950062E0,6.966935758E0
2.674688403E0,4.717950344E0,3.289500177E-1,4.729050159E0,6.688137183E0
2.676652681E0,4.872000217E0,-1.680000126E-1,4.461000443E0,6.607959978E0
2.678616274E0,4.756950378E0,-3.589500189E-1,4.078050137E0,6.275979201E0
2.680580068E0,4.987050056E0,-1.048950076E0,3.924000263E0,6.431853745E0
2.682543368E0,5.331000328E0,-1.585950017E0,4.192950249E0,6.965316485E0
2.684506823E0,5.715000153E0,-2.083950043E0,4.345950127E0,7.476052236E0
2.686470420E0,5.905950069E0,-2.467050076E0,4.614000320E0,7.890220609E0
2.688433975E0,6.021000385E0,-2.851050138E0,4.768050194E0,8.192388857E0
2.690397512E0,5.830050468E0,-3.196050167E0,4.729050159E0,8.158930110E0
2.692361054E0,5.752950191E0,-3.426000118E0,4.729050159E0,8.197428141E0
2.694324406E0,5.599950314E0,-3.541050196E0,4.729050159E0,8.140171707E0
2.696287818E0,5.370000362E0,-3.616950274E0,4.768050194E0,8.040742243E0
2.698251332E0,5.178000450E0,-3.502050161E0,4.729050159E0,7.838364587E0
2.700214816E0,4.948050022E0,-3.234000206E0,4.614000320E0,7.498730247E0
2.702178050E0,4.603050232E0,-2.926950216E0,4.461000443E0,7.046675383E0
2.704141357E0,4.258049965E0,-2.544000149E0,4.231050014E0,6.519563673E0
2.706105064E0,3.990000248E0,-2.199000120E0,4.000950336E0,6.063275278E0
2.708068657E0,3.682950258E0,-1.816050053E0,3.808950186E0,5.600916168E0
2.710032232E0,3.376950264E0,-1.240950108E0,3.463950157E0,4.994266808E0
2.711995813E0,3.031950235E0,-5.509500504E-1,2.965950251E0,4.277046770E0
2.713959344E0,2.725050211E0,-2.059500068E-1,2.275950193E0,3.556439700E0
2.715922890E0,2.649000168E0,-2.059500068E-1,1.432950020E0,3.018768466E0
2.717887333E0,2.686950207E0,-4.360500276E-1,7.810500264E-1,2.831939297E0
2.719851509E0,2.955000162E0,-9.730500579E-1,5.295000225E-2,3.111535967E0
2.721815119E0,3.070050240E0,-1.509000063E0,-4.819500148E-1,3.454644045E0
2.723778895E0,3.070050240E0,-1.854000092E0,-8.269500136E-1,3.680539517E0
2.725742348E0,2.878050089E0,-2.122950077E0,-7.510500550E-1,3.654335169E0
2.727705895E0,2.649000168E0,-2.122950077E0,-5.590500236E-1,3.440444135E0
2.729669476E0,2.341950178E0,-2.046000004E0,-2.520000041E-1,3.119992092E0
2.731633047E0,1.996950150E0,-1.969050050E0,-9.900000691E-2,2.806201881E0
2.733596715E0,1.729050040E0,-1.893000126E0,9.195000678E-2,2.565447002E0
2.735560355E0,1.690050125E0,-1.738950133E0,1.300500035E-1,2.428400707E0
2.737524056E0,1.614000082E0,-1.663050056E0,9.195000678E-2,2.319307344E0
2.739487739E0,1.575000048E0,-1.471050024E0,1.500000060E-2,2.155188698E0
2.741451249E0,1.575000048E0,-1.279050112E0,9.195000678E-2,2.031021699E0
2.743414813E0,1.614000082E0,-1.011000037E0,2.449500114E-1,1.920186930E0
2.745378347E0,1.767000079E0,-7.429500222E-1,2.070000172E-1,1.927981593E0
2.747341890E0,1.996950150E0,-5.509500504E-1,1.500000060E-2,2.071613105E0
2.749305428E0,2.341950178E0,-3.979500234E-1,-2.205000073E-2,2.375622247E0
2.751268967E0,2.686950207E0,-2.830500007E-1,1.500000060E-2,2.701859307E0
2.753232685E0,3.108000040E0,-3.210000098E-1,1.300500035E-1,3.127238120E0
2.755196350E0,3.568050146E0,-3.210000098E-1,1.680000126E-1,3.586397476E0
2.757160092E0,3.913050175E0,-2.830500007E-1,1.300500035E-1,3.925428891E0
2.759123811E0,4.219950199E0,-2.440500110E-1,-1.369500011E-1,4.229219242E0
2.761087815E0,4.411950111E0,-1.680000126E-1,-4.440000355E-1,4.437416345E0
2.763051735E0,4.564949989E0,-1.680000126E-1,-7.890000343E-1,4.635678318E0
2.765015569E0,4.717950344E0,-1.290000081E-1,-9.040500522E-1,4.805517969E0
2.766979429E0,4.872000217E0,-1.290000081E-1,-7.890000343E-1,4.937159930E0
2.768942372E0,5.062950134E0,-9.105000645E-2,-7.120500207E-1,5.113586745E0
2.770905583E0,5.140050411E0,-1.500000060E-2,-6.739500165E-1,5.184067115E0
2.772869177E0,5.215950012E0,1.759500057E-1,-6.739500165E-1,5.262252518E0
2.774832658E0,5.485050201E0,3.289500177E-1,-3.289500177E-1,5.504742677E0
2.776795336E0,5.715000153E0,5.590500236E-1,5.295000225E-2,5.742522736E0
2.778758260E0,5.983050346E0,8.659500480E-1,5.899500251E-1,6.074109150E0
2.780722083E0,6.060000420E0,1.134000063E0,1.585950017E0,6.365909101E0
2.782685643E0,5.983050346E0,1.518000126E0,3.004050255E0,6.864803986E0
2.784649358E0,5.752950191E0,2.053950071E0,5.112000465E0,7.965406177E0
2.786613027E0,5.140050411E0,2.667000055E0,7.795050144E0,9.710603188E0
2.788576729E0,4.258049965E0,3.511050224E0,1.090005016E1,1.221759210E1
2.790540417E0,3.147000074E0,4.276950359E0,1.396605110E1,1.494143558E1
2.792503886E0,1.959000111E0,5.119950294E0,1.649595070E1,1.738297909E1
2.794467419E0,9.240000248E-1,5.925000191E0,1.783695030E1,1.881797543E1
2.796430418E0,-1.480500102E-1,6.844950199E0,1.806705093E1,1.932080722E1
2.798393573E0,-9.529500604E-1,7.612050533E0,1.726200104E1,1.888989431E1
2.800356860E0,-1.567050099E0,8.377950668E0,1.561395073E1,1.778879312E1
2.802320109E0,-1.681950092E0,8.953050613E0,1.342995071E1,1.622805126E1
2.804284193E0,-1.297950029E0,9.183000565E0,1.074705029E1,1.419546630E1
2.806248032E0,-6.850500107E-1,9.451050758E0,7.182000160E0,1.189002861E1
2.808212466E0,4.050000105E-3,9.796050072E0,3.502950191E0,1.040352217E1
2.810176725E0,2.719500065E-1,1.048605061E1,1.500000060E-2,1.048958718E1
2.812140632E0,3.109500110E-1,1.171305084E1,-2.896950245E0,1.206998636E1
2.814104645E0,4.050000105E-3,1.339905071E1,-5.082000256E0,1.433043276E1
2.816068462E0,-9.529500604E-1,1.562205029E1,-6.232050419E0,1.684621683E1
2.818032337E0,-2.485950232E0,1.849695015E1,-6.385050297E0,1.972526250E1
2.819996222E0,-4.134000301E0,2.194605064E1,-5.925000191E0,2.310464725E1
2.821960104E0,-5.743950367E0,2.612400055E1,-4.927950382E0,2.719818129E1
2.823924431E0,-7.239000320E0,3.095295143E1,-4.009050369E0,3.203998772E1
2.825888634E0,-9.079050064E0,3.635700226E1,-3.319050074E0,3.762016556E1
2.827852600E0,-1.099500084E1,4.164705276E1,-3.357000113E0,4.320458884E1
2.829816636E0,-1.298805046E1,4.797105408E1,-4.009050369E0,4.985964269E1
2.831780494E0,-1.471305084E1,5.433300400E1,-4.774950027E0,5.649202896E1
2.833744405E0,-1.524900055E1,5.939205170E1,-5.617950439E0,6.157523195E1
2.835708359E0,-1.444500065E1,6.303300476E1,-5.542050362E0,6.490402187E1
2.837672311E0,-1.249005032E1,6.517995453E1,-5.542050362E0,6.659686293E1
2.839636319E0,-1.003695011E1,6.552495575E1,-5.235000134E0,6.649560452E1
2.841600311E0,-6.778950214E0,6.456705475E1,-5.043000221E0,6.511751359E1
2.843564493E0,-3.483000278E0,6.211395264E1,-5.197050095E0,6.242822865E1
2.845528619E0,4.050000105E-3,5.759100342E1,-5.464950085E0,5.784971366E1
2.847493351E0,2.610000134E0,5.180295181E1,-5.388000488E0,5.214775610E1
2.849457914E0,3.837000132E0,4.601595306E1,-5.695050240E0,4.652552099E1
2.851421998E0,3.262050152E0,4.149300385E1,-5.464950085E0,4.197828032E1
2.853386223E0,2.304000139E0,3.750705338E1,-5.809950352E0,3.802424217E1
2.855349103E0,1.192050099E0,3.447900009E1,-6.154950142E0,3.504434108E1
2.857312377E0,3.490500152E-1,3.195000076E1,-6.538050175E0,3.261396150E1
2.859276485E0,-1.099500060E-1,2.953500175E1,-7.189950466E0,3.039775987E1
2.861240360E0,-1.870500147E-1,2.731200218E1,-7.803000450E0,2.840540911E1
2.863204157E0,-3.019500077E-1,2.566395187E1,-8.263050079E0,2.696307839E1
2.865167977E0,1.570500135E-1,2.397795105E1,-8.416049957E0,2.541253034E1
2.867132908E0,7.699500322E-1,2.236800194E1,-8.530950546E0,2.395198219E1
2.869097514E0,1.306950092E0,2.095005035E1,-8.646000862E0,2.270167525E1
2.871061309E0,1.651950121E0,1.968495178E1,-8.530950546E0,2.151751340E1
2.873025318E0,2.074050188E0,1.868805122E1,-8.455050468E0,2.061632414E1
2.874989316E0,2.265000105E0,1.776900101E1,-8.608050346E0,1.987375538E1
2.876953318E0,2.265000105E0,1.700205040E1,-8.569950104E0,1.917404465E1
2.878917272E0,2.074050188E0,1.635000038E1,-8.530950546E0,1.855805253E1
2.880881241E0,1.920000076E0,1.566000080E1,-8.608050346E0,1.797277263E1
2.882845117E0,1.651950121E0,1.520100117E1,-8.722949982E0,1.760367098E1
2.884809016E0,1.537050128E0,1.466400051E1,-8.761050224E0,1.715084357E1
2.886773032E0,1.306950092E0,1.401195049E1,-8.530950546E0,1.645660938E1
2.888737014E0,1.269000053E0,1.343700027E1,-8.377950668E0,1.588563486E1
2.890701017E0,1.192050099E0,1.313100052E1,-8.646000862E0,1.576697463E1
2.892665014E0,1.153950095E0,1.282395077E1,-8.608050346E0,1.548818404E1
2.894628975E0,1.077000022E0,1.244100094E1,-8.530950546E0,1.512334456E1
2.896592944E0,8.089500666E-1,1.198095036E1,-8.377950668E0,1.464198173E1
2.898556814E0,9.240000248E-1,1.148295021E1,-7.840950489E0,1.393529426E1
2.900520713E0,9.619500637E-1,1.110000038E1,-7.305000305E0,1.332285202E1
2.902484684E0,1.306950092E0,1.067805004E1,-6.921000481E0,1.279175980E1
2.904448634E0,1.690050125E0,1.025595093E1,-6.423000336E0,1.221866327E1
2.906412508E0,1.729050040E0,9.681000710E0,-4.429950237E0,1.078590969E1
2.908376405E0,1.575000048E0,9.067950249E0,-3.088950157E0,9.708241856E0
2.910340062E0,1.614000082E0,8.455050468E0,-2.437050104E0,8.946065498E0
2.912303790E0,1.690050125E0,7.957050323E0,-2.514000177E0,8.514171490E0
2.914267790E0,1.804950118E0,7.612050533E0,-3.012000084E0,8.382917318E0
2.916231711E0,1.843950033E0,6.997950554E0,-3.510000229E0,8.043106694E0
2.918195530E0,1.843950033E0,6.346950531E0,-3.394950151E0,7.430317577E0
2.920159390E0,1.996950150E0,5.656950474E0,-3.165000200E0,6.782781497E0
2.922123593E0,1.959000111E0,5.044050217E0,-2.974050045E0,6.174552428E0
2.924087696E0,1.651950121E0,4.545000076E0,-2.475000143E0,5.432457142E0
2.926051679E0,1.767000079E0,3.970950127E0,-2.130000114E0,4.840210189E0
2.928015698E0,1.498950124E0,3.472050190E0,-1.824000120E0,4.198685560E0
2.929979349E0,1.306950092E0,3.166050196E0,-1.134000063E0,3.608039430E0
2.931943098E0,1.077000022E0,2.743950129E0,-1.759500057E-1,2.952989969E0
2.933905384E0,8.089500666E-1,2.398950100E0,6.280500293E-1,2.608411132E0
2.935868098E0,3.109500110E-1,1.978050113E0,1.432950020E0,2.462258702E0
2.937832318E0,4.050000105E-3,1.402950048E0,1.969950080E0,2.418468226E0
2.939796096E0,-3.019500077E-1,9.040500522E-1,2.430000067E0,2.610245320E0
2.941760449E0,-5.700000525E-1,2.530499995E-1,2.545050144E0,2.620346275E0
2.943724634E0,-6.850500107E-1,-2.059500068E-1,2.467950106E0,2.569530433E0
2.945688243E0,-6.850500107E-1,-7.429500222E-1,2.008050203E0,2.248006644E0
2.947652021E0,-5.700000525E-1,-1.471050024E0,1.663050056E0,2.292296604E0
2.949615878E0,-4.549500346E-1,-2.046000004E0,1.356000066E0,2.496363701E0
2.951579711E0,-3.400500119E-1,-2.659050226E0,1.087950110E0,2.893063698E0
2.953543384E0,-7.200000435E-2,-3.271950245E0,9.730500579E-1,3.414332852E0
2.955507102E0,2.340000123E-1,-3.886050224E0,8.580000401E-1,3.986515574E0
2.957470789E0,3.870000243E-1,-4.461000443E0,7.429500222E-1,4.538972208E0
2.959434486E0,5.410500169E-1,-5.149950027E0,5.509500504E-1,5.207520174E0
2.961399078E0,6.550500393E-1,-5.610000134E0,4.360500276E-1,5.664921154E0
2.963363407E0,8.089500666E-1,-6.300000191E0,3.979500234E-1,6.364178410E0
2.965326792E0,9.240000248E-1,-6.798000336E0,4.360500276E-1,6.874352641E0
2.967290467E0,1.039050102E0,-7.335000515E0,4.360500276E-1,7.421050956E0
2.969254387E0,1.192050099E0,-7.909950256E0,4.360500276E-1,8.011144495E0
2.971218235E0,1.345050097E0,-8.523000717E0,5.509500504E-1,8.646053837E0
2.973182082E0,1.306950092E0,-9.097949982E0,7.050000429E-1,9.218342447E0
2.975145929E0,1.384050012E0,-9.595950127E0,7.050000429E-1,9.720847614E0
2.977109721E0,1.498950124E0,-9.979950905E0,8.200500607E-1,1.012515450E1
2.979073535E0,1.690050125E0,-1.040100002E1,1.165050030E0,1.060162311E1
2.981037026E0,1.843950033E0,-1.074600029E1,1.471050024E0,1.100184812E1
2.983000612E0,2.074050188E0,-1.105305099E1,1.777950048E0,1.138563687E1
2.984964007E0,2.035050154E0,-1.124400043E1,2.275950193E0,1.165113403E1
2.986927458E0,1.959000111E0,-1.128300095E1,2.851050138E0,1.180136766E1
2.988891555E0,1.804950118E0,-1.135905075E1,3.273000240E0,1.195819424E1
2.990855460E0,1.498950124E0,-1.135905075E1,3.541050196E0,1.199224424E1
2.992819252E0,1.306950092E0,-1.132095051E1,3.847950220E0,1.202824841E1
2.994783078E0,1.114950061E0,-1.120605087E1,4.078050137E0,1.197702729E1
2.996746071E0,7.320000529E-1,-1.093800068E1,4.345950127E0,1.179249615E1
2.998709308E0,3.490500152E-1,-1.051605034E1,4.576050282E0,1.147385667E1
3.000673218E0,1.570500135E-1,-9.903000832E0,4.843950272E0,1.102533194E1
3.002636927E0,5.790000558E-1,-9.405000687E0,5.266050339E0,1.079446919E1
3.004601157E0,1.269000053E0,-8.677050591E0,5.764050484E0,1.049408624E1
3.006565235E0,1.422000051E0,-7.833000183E0,6.031950474E0,9.988113062E0
3.008529042E0,1.306950092E0,-6.990000248E0,5.802000046E0,9.177768059E0
3.010492929E0,1.192050099E0,-6.070050240E0,5.380950451E0,8.198848767E0
3.012456579E0,1.114950061E0,-5.380050182E0,4.996950150E0,7.426813879E0
3.014420305E0,9.240000248E-1,-4.690050125E0,5.188950062E0,7.055178876E0
3.016383856E0,7.320000529E-1,-4.000950336E0,4.882050037E0,6.354356005E0
3.018347458E0,6.169500351E-1,-3.387000084E0,4.498950005E0,5.665063818E0
3.020311120E0,5.790000558E-1,-2.812050104E0,4.269000053E0,5.144631018E0
3.022274764E0,6.940500140E-1,-2.428950071E0,4.000950336E0,4.731712953E0
3.024238299E0,8.850000501E-1,-2.122950077E0,3.502950191E0,4.190561080E0
3.026201857E0,7.699500322E-1,-1.624050021E0,2.851050138E0,3.370289070E0
3.028165392E0,8.089500666E-1,-1.393950105E0,2.314950228E0,2.820725379E0
3.030128934E0,7.320000529E-1,-1.087950110E0,1.777950048E0,2.209200284E0
3.032091796E0,6.169500351E-1,-6.280500293E-1,1.356000066E0,1.616728290E0
3.034054857E0,5.410500169E-1,-2.830500007E-1,8.580000401E-1,1.053098520E0
3.036018781E0,4.260000288E-1,-9.105000645E-2,3.600000143E-1,5.651248876E-1
3.037982460E0,3.109500110E-1,2.910000086E-1,-2.205000073E-2,4.264470857E-1
3.039946200E0,1.189500093E-1,6.360000372E-1,-3.289500177E-1,7.258465858E-1
3.041909922E0,-7.200000435E-2,1.134000063E0,-7.120500207E-1,1.340953159E0
3.043873430E0,-4.549500346E-1,1.594050050E0,-9.040500522E-1,1.888195327E0
3.045837001E0,-6.469500065E-1,2.053950071E0,-1.096050024E0,2.416315555E0
3.047800728E0,-7.999500632E-1,2.629050016E0,-1.249050021E0,3.018600677E0
3.049764399E0,-9.150000215E-1,3.319050074E0,-1.441050053E0,3.732283977E0
3.051728275E0,-1.030050039E0,4.009050369E0,-1.555950046E0,4.422043475E0
3.053692091E0,-1.183050036E0,4.813950062E0,-1.747050047E0,5.256035241E0
3.055655763E0,-1.297950029E0,5.542050362E0,-1.861950040E0,5.988810770E0
3.057619477E0,-1.297950029E0,6.346950531E0,-2.245050192E0,6.856289498E0
3.059583116E0,-1.297950029E0,7.075050354E0,-2.322000027E0,7.558617328E0
3.061546780E0,-1.183050036E0,7.687950134E0,-2.475000143E0,8.162708519E0
3.063510342E0,-9.919500351E-1,8.187000275E0,-2.704950094E0,8.679152803E0
3.065473934E0,-7.999500632E-1,8.608050346E0,-2.820000172E0,9.093451041E0
3.067437643E0,-6.079500318E-1,8.953050613E0,-3.049950123E0,9.477811682E0
3.069401317E0,-4.170000255E-1,9.106050491E0,-3.510000229E0,9.768016492E0
3.071364963E0,-1.099500060E-1,9.220950127E0,-3.817050219E0,9.980374873E0
3.073328621E0,4.200000316E-2,9.183000565E0,-4.162050247E0,1.008225796E1
3.075292318E0,1.189500093E-1,9.067950249E0,-4.582950115E0,1.016096957E1
3.077256004E0,1.570500135E-1,8.647050858E0,-4.736999989E0,9.860797236E0
3.079219878E0,2.340000123E-1,8.110050201E0,-4.927950382E0,9.492753302E0
3.081183696E0,2.340000123E-1,7.458000183E0,-4.774950027E0,8.858705916E0
3.083147354E0,2.340000123E-1,6.883050442E0,-4.621950150E0,8.294188482E0
3.085111069E0,1.570500135E-1,6.309000492E0,-4.200000286E0,7.580775311E0
3.087074801E0,-7.200000435E-2,5.848950386E0,-3.472050190E0,6.802245007E0
3.089038528E0,-2.629500031E-1,5.619000435E0,-1.900950074E0,5.937669558E0
3.091001449E0,-4.549500346E-1,5.542050362E0,5.130000114E-1,5.584305754E0
3.092964607E0,-6.079500318E-1,5.734050274E0,3.733050108E0,6.869104665E0
3.094928269E0,-7.620000243E-1,6.193950176E0,7.182000160E0,9.514556696E0
3.096891773E0,-8.380500674E-1,6.960000515E0,1.047795010E1,1.260679869E1
3.098855318E0,-6.850500107E-1,8.032950401E0,1.346805096E1,1.569668698E1
3.100818850E0,-4.170000255E-1,9.375000000E0,1.611194992E1,1.864562802E1
3.102782930E0,4.050000105E-3,1.083105087E1,1.756905174E1,2.063936187E1
3.104746850E0,5.410500169E-1,1.236405087E1,1.756905174E1,2.149032499E1
3.106711068E0,1.192050099E0,1.408905029E1,1.626600075E1,2.155238042E1
3.108675182E0,2.111999989E0,1.592895031E1,1.404300022E1,2.134005289E1
3.110638803E0,3.337950230E0,1.776900101E1,1.097700024E1,2.115121374E1
3.112602569E0,4.219950199E0,1.968495178E1,7.182000160E0,2.137490193E1
3.114566923E0,4.143000126E0,2.209995079E1,2.467950106E0,2.261997022E1
3.116531105E0,2.917050123E0,2.528100204E1,-2.974050045E0,2.562192849E1
3.118493844E0,1.000050068E0,2.911305046E1,-7.879950523E0,3.017720046E1
3.120457016E0,-6.079500318E-1,3.348300171E1,-1.175100040E1,3.549037922E1
3.122420391E0,-1.297950029E0,3.754605103E1,-1.324500084E1,3.983491771E1
3.124383706E0,-1.911000133E0,4.153200150E1,-1.255605030E1,4.343055916E1
3.126348364E0,-7.230000496E-1,4.486605072E1,-1.148205090E1,4.631762871E1
3.128312629E0,2.764050245E0,4.674405289E1,-1.079295063E1,4.805345188E1
3.130275859E0,6.940950394E0,4.724205399E1,-9.988050461E0,4.878267735E1
3.132239396E0,1.303500080E1,4.551795197E1,-9.681000710E0,4.832718667E1
3.134202754E0,1.774995041E1,4.222200012E1,-9.373950005E0,4.675071093E1
3.136166165E0,1.778805161E1,3.838905334E1,-8.416049957E0,4.313889305E1
3.138129545E0,1.188495064E1,3.490095139E1,-6.117000103E0,3.737306717E1
3.140092934E0,5.752950191E0,3.172005081E1,-3.855000257E0,3.246720016E1
3.142054916E0,1.459950089E0,2.850000191E1,-1.096050024E0,2.855841187E1
3.144017314E0,-1.642950058E0,2.574105072E1,1.279950023E0,2.582516697E1
3.145980686E0,-3.675000191E0,2.347905159E1,2.773950100E0,2.392626776E1
3.147943773E0,-5.092950344E0,2.156295013E1,3.234000206E0,2.239101871E1
3.149907885E0,-6.204000473E0,2.014500046E1,2.161050081E0,2.118916711E1
3.151871696E0,-7.047000408E0,1.914795113E1,2.449500114E-1,2.040500545E1
3.153835258E0,-7.660950184E0,1.861200142E1,-2.206950188E0,2.024765131E1
3.155798876E0,-7.813950539E0,1.834305000E1,-4.774950027E0,2.050184026E1
3.157762401E0,-7.660950184E0,1.826700020E1,-6.730050087E0,2.092049302E1
3.159725953E0,-7.239000320E0,1.830495071E1,-8.032950401E0,2.126035368E1
3.161689489E0,-6.817050457E0,1.842000008E1,-8.493000031E0,2.139858942E1
3.163653030E0,-6.778950214E0,1.853505135E1,-8.185950279E0,2.136614323E1
3.165616697E0,-7.162050247E0,1.861200142E1,-7.687950134E0,2.137302360E1
3.167580331E0,-7.813950539E0,1.872705078E1,-7.113000393E0,2.150244239E1
3.169543854E0,-8.656949997E0,1.872705078E1,-6.691050529E0,2.168906110E1
3.171507410E0,-9.462000847E0,1.864995003E1,-6.154950142E0,2.179985108E1
3.173470990E0,-9.999000549E0,1.845795059E1,-5.887050152E0,2.180214007E1
3.175434562E0,-1.061205006E1,1.807500076E1,-5.925000191E0,2.178134262E1
3.177398060E0,-1.111005020E1,1.773000145E1,-6.423000336E0,2.188700757E1
3.179361573E0,-1.156995010E1,1.734705162E1,-7.113000393E0,2.203131226E1
3.181324980E0,-1.218300056E1,1.696395111E1,-7.803000450E0,2.229546941E1
3.183288419E0,-1.272000027E1,1.654200172E1,-8.340000153E0,2.247202328E1
3.185252153E0,-1.318005085E1,1.627395058E1,-8.493000031E0,2.259836847E1
3.187215801E0,-1.352505112E1,1.600500107E1,-8.340000153E0,2.255310776E1
3.189179456E0,-1.356300068E1,1.543095112E1,-7.879950523E0,2.200370105E1
3.191143109E0,-1.352505112E1,1.497105026E1,-7.381050587E0,2.148346484E1
3.193106988E0,-1.329495049E1,1.462605095E1,-6.768000126E0,2.089217319E1
3.195070801E0,-1.279695034E1,1.416600037E1,-6.423000336E0,2.014180820E1
3.197034519E0,-1.225995064E1,1.389705086E1,-6.232050419E0,1.955179952E1
3.198998265E0,-1.183800030E1,1.355205059E1,-6.117000103E0,1.900563118E1
3.200961759E0,-1.145505047E1,1.332300091E1,-5.656950474E0,1.845864630E1
3.202925333E0,-1.091805077E1,1.320795059E1,-5.119950294E0,1.788484505E1
3.204889225E0,-1.026705074E1,1.313100052E1,-4.927950382E0,1.738160524E1
3.206853023E0,-9.691950798E0,1.316895103E1,-4.736999989E0,1.702334722E1
3.208816653E0,-9.079050064E0,1.313100052E1,-4.582950115E0,1.660890594E1
3.210780333E0,-8.619000435E0,1.336095047E1,-4.429950237E0,1.650535141E1
3.212744027E0,-8.236050606E0,1.351395035E1,-4.200000286E0,1.637374075E1
3.214707716E0,-7.621950150E0,1.382100105E1,-3.778950214E0,1.622943803E1
3.216671274E0,-6.970950127E0,1.385895061E1,-3.319050074E0,1.586444929E1
3.218634871E0,-6.051000118E0,1.385895061E1,-2.437050104E0,1.531745174E1
3.220598895E0,-5.092950344E0,1.385895061E1,-1.824000120E0,1.487735298E1
3.222562793E0,-4.173000336E0,1.378200054E1,-1.594050050E0,1.448787308E1
3.224526510E0,-3.406050205E0,1.347600079E1,-1.287000060E0,1.395923151E1
3.226490270E0,-2.448000193E0,1.290105057E1,-6.360000372E-1,1.314664622E1
3.228452869E0,-1.720050097E0,1.213395023E1,-2.205000073E-2,1.225527669E1
3.230415809E0,-1.336950064E0,1.159800053E1,3.979500234E-1,1.168158448E1
3.232379629E0,-1.106999993E0,1.098495007E1,6.280500293E-1,1.105843677E1
3.234343191E0,-9.919500351E-1,1.041000080E1,3.600000143E-1,1.046334944E1
3.236307748E0,-1.068000078E0,9.910950661E0,5.295000225E-2,9.968468833E0
3.238272023E0,-1.297950029E0,9.336000443E0,-2.140500098E-1,9.428223372E0
3.240234716E0,-1.528050065E0,8.838000298E0,-1.369500011E-1,8.970169539E0
3.242197872E0,-1.911000133E0,8.647050858E0,7.429500222E-1,8.886809595E0
3.244161700E0,-2.371050119E0,8.569950104E0,1.471050024E0,9.012763817E0
3.246125331E0,-2.524950027E0,8.377950668E0,1.855050087E0,8.944643138E0
3.248089014E0,-2.677950144E0,8.263050079E0,2.200050116E0,8.960448320E0
3.250052696E0,-2.716050148E0,8.224950790E0,2.545050144E0,9.027957917E0
3.252016525E0,-2.677950144E0,8.263050079E0,2.391000032E0,9.009233860E0
3.253980311E0,-2.485950232E0,8.148000717E0,1.893000126E0,8.726586602E0
3.255943808E0,-2.256000042E0,8.148000717E0,1.318050027E0,8.556676209E0
3.257907390E0,-1.795950055E0,8.148000717E0,6.660000086E-1,8.370119969E0
3.259872027E0,-1.144950032E0,8.187000275E0,5.295000225E-2,8.266842673E0
3.261836369E0,-4.930500090E-1,8.302050591E0,-2.910000086E-1,8.321768041E0
3.263800311E0,4.200000316E-2,8.493000031E0,-4.819500148E-1,8.506767267E0
3.265764371E0,5.410500169E-1,8.685000420E0,-8.269500136E-1,8.741041914E0
3.267728540E0,8.470500112E-1,8.991000175E0,-1.057050109E0,9.092465717E0
3.269692677E0,1.192050099E0,9.145050049E0,-1.402050018E0,9.328379714E0
3.271656064E0,1.459950089E0,9.375000000E0,-1.861950040E0,9.668967743E0
3.273619674E0,1.882050037E0,9.375000000E0,-2.284050226E0,9.831054001E0
3.275583379E0,2.035050154E0,9.528000832E0,-2.130000114E0,9.973020077E0
3.277547056E0,2.188950062E0,9.604950905E0,-1.671000123E0,9.991938034E0
3.279510617E0,2.265000105E0,9.720000267E0,-9.420000315E-1,1.002476906E1
3.281474212E0,2.380050182E0,9.757950783E0,2.830500007E-1,1.004800277E1
3.283436975E0,2.649000168E0,9.835050583E0,1.893000126E0,1.035996483E1
3.285399981E0,2.802000046E0,9.988050461E0,3.847950220E0,1.106431549E1
3.287363430E0,3.070050240E0,1.002600002E1,5.764050484E0,1.196537350E1
3.289326749E0,3.376950264E0,1.014105034E1,8.179050446E0,1.345888410E1
3.291290370E0,3.645000219E0,1.014105034E1,9.903000832E0,1.463544854E1
3.293253903E0,4.258049965E0,1.002600002E1,1.147500038E1,1.582173504E1
3.295217744E0,4.872000217E0,9.873000145E0,1.262505054E1,1.675125127E1
3.297181504E0,5.638050079E0,9.528000832E0,1.300800037E1,1.708152459E1
3.299145051E0,6.442950249E0,9.067950249E0,1.293105030E1,1.705729731E1
