"Time (s)","Acceleration x (m/s^2)","Acceleration y (m/s^2)","Acceleration z (m/s^2)","Absolute acceleration (m/s^2)"
3.903465600E-2,-3.559950113E0,3.241950035E0,-4.698000431E0,6.727160834E0
4.099642400E-2,-3.636000156E0,2.974050045E0,-4.084949970E0,6.225133498E0
4.296073300E-2,-3.559950113E0,2.667000055E0,-3.778950214E0,5.836659903E0
4.492395900E-2,-3.406050205E0,2.245950222E0,-3.280050039E0,5.234901972E0
4.688750200E-2,-3.100050211E0,1.671000123E0,-2.974050045E0,4.609503920E0
4.885065000E-2,-2.793000221E0,1.134000063E0,-2.859000206E0,4.154598483E0
5.081393500E-2,-2.601000071E0,5.209500194E-1,-2.859000206E0,3.900060572E0
5.277805700E-2,-2.332950115E0,-1.680000126E-1,-2.935050249E0,3.753052119E0
5.474193300E-2,-2.218050003E0,-5.890500546E-1,-3.817050219E0,4.453829605E0
5.670473900E-2,-2.410050154E0,-1.048950076E0,-5.005050182E0,5.653243789E0
5.866785800E-2,-2.524950027E0,-1.548000097E0,-5.962950230E0,6.657961579E0
6.063104700E-2,-3.061050177E0,-2.083950043E0,-7.305000305E0,8.189988121E0
6.259422600E-2,-3.559950113E0,-3.081000090E0,-8.455050468E0,9.677483391E0
6.455733100E-2,-3.100050211E0,-4.422000408E0,-9.489000320E0,1.091812832E1
6.652045800E-2,-2.103000164E0,-6.070050240E0,-1.037100029E1,1.219941665E1
6.848456200E-2,-6.079500318E-1,-7.795050144E0,-1.006395054E1,1.274423440E1
7.044837900E-2,1.192050099E0,-9.673050880E0,-7.879950523E0,1.253325644E1
7.241120000E-2,2.878050089E0,-1.113000011E1,-5.235000134E0,1.263191598E1
7.437430900E-2,4.372950077E0,-1.239405060E1,-2.014950037E0,1.329643585E1
7.633643400E-2,5.254950047E0,-1.346700096E1,1.816050053E0,1.456957970E1
7.829884800E-2,6.213000298E0,-1.434900093E1,4.843950272E0,1.636945493E1
8.026172200E-2,7.095000267E0,-1.507695103E1,7.795050144E0,1.839609436E1
8.222446100E-2,7.669050217E0,-1.569000053E1,1.028700066E1,2.026851821E1
8.418757700E-2,7.822950363E0,-1.603499985E1,1.235595036E1,2.170228748E1
8.615059600E-2,7.708050251E0,-1.615005112E1,1.392795086E1,2.267655187E1
8.811345900E-2,7.363050461E0,-1.626495171E1,1.500105095E1,2.331940599E1
9.007636700E-2,6.903000355E0,-1.622700119E1,1.534605026E1,2.337666016E1
9.203915800E-2,6.366000175E0,-1.607400131E1,1.569105053E1,2.334755968E1
9.400198300E-2,5.638050079E0,-1.580505085E1,1.580595112E1,2.305244742E1
9.596482800E-2,4.642050266E0,-1.553700066E1,1.534605026E1,2.232595527E1
9.792770100E-2,3.721950293E0,-1.523100090E1,1.442595100E1,2.130597017E1
9.989049800E-2,2.686950207E0,-1.500105095E1,1.381305027E1,2.056821793E1
1.018533180E-1,1.537050128E0,-1.515405083E1,1.273995018E1,1.985734399E1
1.038162130E-1,1.345050097E0,-1.553700066E1,1.063200092E1,1.887450642E1
1.057790860E-1,1.345050097E0,-1.607400131E1,7.987050533E0,1.799932371E1
1.077412740E-1,6.940500140E-1,-1.657200050E1,6.186000347E0,1.770252825E1
1.097036790E-1,-2.629500031E-1,-1.676399994E1,4.192950249E0,1.728240922E1
1.116669150E-1,-1.144950032E0,-1.726200104E1,2.545050144E0,1.748613367E1
1.136299080E-1,-1.720050097E0,-1.810500145E1,1.510050058E0,1.824910685E1
1.155929990E-1,-2.140950203E0,-1.948500061E1,1.471050024E0,1.965738804E1
1.175560620E-1,-2.830950022E0,-2.105595016E1,3.043050051E0,2.146223355E1
1.195198810E-1,-3.483000278E0,-2.446800041E1,-1.824000120E0,2.478187466E1
1.214834650E-1,-5.323050022E0,-2.983305168E1,-1.588995075E1,3.421748631E1
1.234460960E-1,-1.068795013E1,-3.021705055E1,-2.416905022E1,4.014281269E1
1.254090060E-1,-1.632299995E1,-2.465895081E1,-1.240200043E1,3.206733224E1
1.273722900E-1,-8.350950241E0,-3.071505165E1,9.349500537E-1,3.184378902E1
1.293354650E-1,-3.751050234E0,-3.420300293E1,-1.615800095E1,3.801311329E1
1.312973710E-1,-2.026050091E0,-3.213300323E1,1.011000037E0,3.221268224E1
1.332596690E-1,-1.106999993E0,-3.366600037E1,1.208805084E1,3.578751183E1
1.352227430E-1,-1.642950058E0,-3.462405014E1,1.304595089E1,3.703675158E1
1.371855900E-1,-1.795950055E0,-3.562095261E1,1.373595047E1,3.821981209E1
1.391488420E-1,-1.528050065E0,-3.631095123E1,1.622700119E1,3.980120204E1
1.411119750E-1,-1.030050039E0,-3.638700104E1,1.542300034E1,3.953408386E1
1.430750410E-1,-7.620000243E-1,-3.585105133E1,1.204995060E1,3.782961585E1
1.450381600E-1,-3.299999982E-2,-3.516105270E1,9.481950760E0,3.641714028E1
1.470019490E-1,1.422000051E0,-3.351300049E1,6.684000492E0,3.420261903E1
1.489655420E-1,2.764050245E0,-3.117495155E1,3.541050196E0,3.149693024E1
1.509296120E-1,4.411950111E0,-2.879895210E1,-1.402050018E0,2.916865938E1
1.528935420E-1,5.407950401E0,-2.649900055E1,-4.162050247E0,2.736358200E1
1.548566930E-1,6.289950371E0,-2.408400154E1,-1.071600056E1,2.710046630E1
1.568200450E-1,6.558000088E0,-2.193795013E1,-1.397400093E1,2.682449856E1
1.587832550E-1,5.868000507E0,-1.979205132E1,-1.493205070E1,2.547792895E1
1.607465060E-1,4.219950199E0,-1.806705093E1,-1.332195091E1,2.284076805E1
1.627095530E-1,2.494950056E0,-1.691700172E1,-1.025595093E1,1.993976561E1
1.646726600E-1,1.153950095E0,-1.580505085E1,-6.270000458E0,1.704242174E1
1.666349610E-1,1.189500093E-1,-1.503900051E1,-3.586950064E0,1.546130319E1
1.685975010E-1,-8.380500674E-1,-1.434900093E1,-1.939050078E0,1.450365715E1
1.705599490E-1,-1.605000019E0,-1.339095020E1,-2.910000086E-1,1.348993156E1
1.725224240E-1,-1.987950087E0,-1.281600094E1,7.429500222E-1,1.299052733E1
1.744854680E-1,-1.911000133E0,-1.227900028E1,1.624950051E0,1.253260676E1
1.764483460E-1,-1.605000019E0,-1.197300053E1,2.545050144E0,1.234528440E1
1.784117970E-1,-1.068000078E0,-1.204905033E1,3.847950220E0,1.269357944E1
1.803750950E-1,-2.250000089E-1,-1.220295048E1,5.725950241E0,1.348143655E1
1.823382700E-1,2.719500065E-1,-1.147395039E1,5.802000046E0,1.286035376E1
1.843014810E-1,5.410500169E-1,-1.174305058E1,6.876000404E0,1.361878678E1
1.862651200E-1,6.169500351E-1,-1.208805084E1,8.217000008E0,1.462944598E1
1.882286330E-1,8.850000501E-1,-1.208805084E1,8.254950523E0,1.466452885E1
1.901917500E-1,1.077000022E0,-1.239405060E1,8.791950226E0,1.523387042E1
1.921550300E-1,1.384050012E0,-1.262400055E1,8.869050026E0,1.549003011E1
1.941182070E-1,1.843950033E0,-1.285395050E1,9.405000687E0,1.603365938E1
1.960814140E-1,2.380050182E0,-1.304595089E1,9.979950905E0,1.659701460E1
1.980445140E-1,2.610000134E0,-1.300800037E1,1.051695061E1,1.693004502E1
2.000076450E-1,2.649000168E0,-1.308405018E1,1.139805031E1,1.755349315E1
2.019704770E-1,2.572050095E0,-1.331400108E1,1.220295048E1,1.824253455E1
2.039334040E-1,2.419050217E0,-1.362105083E1,1.369800091E1,1.946843750E1
2.058965510E-1,2.188950062E0,-1.411905098E1,1.519305038E1,2.085588365E1
2.078596330E-1,1.882050037E0,-1.496205044E1,1.649595070E1,2.234997662E1
2.098224850E-1,1.614000082E0,-1.626495171E1,1.718595123E1,2.371730529E1
2.117854050E-1,1.804950118E0,-1.795200157E1,1.676399994E1,2.462851801E1
2.137483880E-1,2.341950178E0,-1.952295113E1,1.611194992E1,2.542096146E1
2.157113410E-1,2.878050089E0,-2.074995041E1,1.584405041E1,2.626552013E1
2.176744390E-1,3.529950142E0,-2.186100197E1,1.496295071E1,2.672552804E1
2.196374940E-1,4.219950199E0,-2.258895111E1,1.239495087E1,2.610945229E1
2.216005310E-1,4.680000305E0,-2.274300194E1,7.258950233E0,2.432773928E1
2.235635730E-1,5.101050377E0,-2.278095055E1,1.624950051E0,2.340155733E1
2.255266500E-1,5.331000328E0,-2.354805183E1,2.851050138E0,2.431170082E1
2.274897200E-1,5.523000240E0,-2.439105034E1,1.471050024E0,2.505176354E1
2.294528430E-1,5.676000118E0,-2.511900139E1,2.161050081E0,2.584282000E1
2.314159510E-1,5.830050468E0,-2.561700058E1,3.157950163E0,2.646115750E1
2.333789790E-1,5.752950191E0,-2.592405128E1,3.655950069E0,2.680520177E1
2.353420300E-1,5.101050377E0,-2.588595200E1,4.192950249E0,2.671486585E1
2.373052850E-1,4.717950344E0,-2.588595200E1,4.882050037E0,2.676146444E1
2.392684840E-1,4.795050144E0,-2.577105141E1,4.843950272E0,2.665714634E1
2.412317210E-1,5.446050167E0,-2.577105141E1,5.457000256E0,2.689954284E1
2.431949460E-1,6.442950249E0,-2.557905197E1,5.380950451E0,2.692125806E1
2.451581780E-1,7.095000267E0,-2.527200127E1,4.729050159E0,2.667165147E1
2.471214080E-1,7.630950451E0,-2.477400208E1,2.928000212E0,2.608746383E1
2.490853650E-1,8.014050484E0,-2.419905090E1,1.011000037E0,2.551158934E1
2.510491050E-1,8.551050186E0,-2.366295052E1,-9.420000315E-1,2.517822572E1
2.530121140E-1,9.010950089E0,-2.308800125E1,-3.241950035E0,2.499526482E1
2.549753380E-1,9.126000404E0,-2.243595123E1,-5.005050182E0,2.473269735E1
2.569383900E-1,9.126000404E0,-2.205300140E1,-6.691050529E0,2.478686974E1
2.589014920E-1,8.628000259E0,-2.147805023E1,-8.224950790E0,2.456417810E1
2.608647030E-1,7.861050606E0,-2.109495163E1,-9.412950516E0,2.440075282E1
2.628278790E-1,6.903000355E0,-2.082600021E1,-9.949050903E0,2.409060632E1
2.647909400E-1,5.830050468E0,-2.048100090E1,-1.017900085E1,2.360239278E1
2.667540350E-1,5.025000095E0,-2.009805107E1,-1.033305073E1,2.315068509E1
2.687172880E-1,4.411950111E0,-1.994505119E1,-1.029405022E1,2.287439269E1
2.706804950E-1,3.798000097E0,-1.983000183E1,-1.063905048E1,2.282198879E1
2.726432350E-1,3.300000191E0,-1.975305176E1,-1.117605019E1,2.293419178E1
2.746061120E-1,2.649000168E0,-1.952295113E1,-1.098405075E1,2.255686577E1
2.765691770E-1,2.074050188E0,-1.921695137E1,-1.098405075E1,2.223156034E1
2.785321870E-1,1.459950089E0,-1.879500008E1,-1.079295063E1,2.172259804E1
2.804953210E-1,1.114950061E0,-1.848795128E1,-1.060095024E1,2.134074980E1
2.824584180E-1,6.550500393E-1,-1.829700089E1,-1.021800041E1,2.096704234E1
2.844209020E-1,8.100000024E-2,-1.806705093E1,-9.796050072E0,2.055206772E1
2.863835690E-1,-3.400500119E-1,-1.791300011E1,-9.489000320E0,2.027393237E1
2.883467150E-1,-9.529500604E-1,-1.772205162E1,-9.412950516E0,2.008937194E1
2.903097200E-1,-1.452000022E0,-1.760700035E1,-9.259050369E0,1.994604671E1
2.922726750E-1,-1.834950089E0,-1.729995155E1,-9.681000710E0,1.990922249E1
2.942356450E-1,-2.179949999E0,-1.695495033E1,-1.006395054E1,1.983697616E1
2.961987390E-1,-2.103000164E0,-1.672500038E1,-1.086900043E1,2.005700421E1
2.981617970E-1,-1.642950058E0,-1.657200050E1,-1.175100040E1,2.038176872E1
3.001248770E-1,-9.150000215E-1,-1.641900063E1,-1.270905018E1,2.078318462E1
3.020879510E-1,1.570500135E-1,-1.630395126E1,-1.359000111E1,2.122573018E1
3.040517500E-1,1.575000048E0,-1.622700119E1,-1.466400051E1,2.192781575E1
3.060153360E-1,3.184950113E0,-1.615005112E1,-1.573695087E1,2.277322290E1
3.079786230E-1,5.101050377E0,-1.611194992E1,-1.681005096E1,2.383680890E1
3.099420110E-1,6.940950394E0,-1.588200092E1,-1.795995140E1,2.495945913E1
3.119050350E-1,8.665950775E0,-1.565205097E1,-1.888005066E1,2.601041552E1
3.138681650E-1,1.027605057E1,-1.553700066E1,-1.960800171E1,2.704568978E1
3.158312780E-1,1.169400024E1,-1.530705070E1,-2.006805038E1,2.781693889E1
3.177943960E-1,1.291995049E1,-1.480905056E1,-2.033595085E1,2.828045254E1
3.197578340E-1,1.395495033E1,-1.427205086E1,-2.045100021E1,2.857753461E1
3.217211720E-1,1.491300106E1,-1.365900040E1,-2.025900078E1,2.862504157E1
3.236841600E-1,1.583295059E1,-1.308405018E1,-1.979895020E1,2.852846162E1
3.256472510E-1,1.660004997E1,-1.235595036E1,-1.899495125E1,2.808984409E1
3.276100100E-1,1.725105095E1,-1.170405102E1,-1.795995140E1,2.751623927E1
3.295728660E-1,1.774995041E1,-1.109100056E1,-1.669500160E1,2.677301088E1
3.315361890E-1,1.809495163E1,-1.044000053E1,-1.497000027E1,2.570061855E1
3.334993550E-1,1.828605080E1,-9.865050316E0,-1.297695065E1,2.449694102E1
3.354627320E-1,1.828605080E1,-9.289950371E0,-1.071600056E1,2.314120782E1
3.374260470E-1,1.817100143E1,-8.907000542E0,-8.263050079E0,2.185858981E1
3.393892650E-1,1.782600021E1,-8.523000717E0,-5.580000401E0,2.053154230E1
3.413525110E-1,1.759605026E1,-8.062950134E0,-2.667000055E0,1.953829673E1
3.433146670E-1,1.736595154E1,-7.564950466E0,9.195000678E-2,1.894236530E1
3.452771360E-1,1.713600159E1,-6.952050209E0,2.620950222E0,1.867733741E1
3.472405420E-1,1.679100037E1,-6.415050507E0,5.341950417E0,1.875171994E1
3.492036730E-1,1.644600105E1,-5.839950085E0,7.680000305E0,1.906720673E1
3.511669210E-1,1.614000130E1,-5.457000256E0,1.017195034E1,1.984306094E1
3.531301340E-1,1.579500103E1,-4.651950359E0,1.162800026E1,2.015770547E1
3.550931740E-1,1.552695084E1,-4.269000053E0,1.331505108E1,2.089500297E1
3.570562750E-1,1.514295101E1,-3.732000113E0,1.419600105E1,2.108941052E1
3.590195270E-1,1.498995113E1,-3.234000206E0,1.477095032E1,2.129174407E1
3.609827350E-1,1.468305111E1,-2.697000027E0,1.461795044E1,2.089378554E1
3.629456100E-1,1.437705040E1,-2.275950193E0,1.366005039E1,1.996187627E1
3.649085830E-1,1.410795021E1,-1.854000092E0,1.266300106E1,1.904791777E1
3.668716510E-1,1.376400089E1,-1.393950105E0,1.151295090E1,1.799830147E1
3.688346770E-1,1.372500038E1,-9.340500236E-1,9.673050880E0,1.681713407E1
3.707978070E-1,1.357200050E1,-5.130000114E-1,8.140049934E0,1.583422810E1
3.727609070E-1,1.349505043E1,-1.680000126E-1,6.223950386E0,1.486210512E1
3.747232610E-1,1.341900063E1,1.759500057E-1,4.308000088E0,1.409465860E1
3.766858330E-1,1.330395031E1,6.739500165E-1,2.353049994E0,1.352723722E1
3.786500850E-1,1.322700024E1,1.173000097E0,5.899500251E-1,1.329200909E1
3.806138070E-1,1.330395031E1,1.518000126E0,-2.130000114E0,1.355862525E1
3.825766390E-1,1.345695019E1,1.863000035E0,-4.123950005E0,1.419743784E1
3.845397320E-1,1.341900063E1,2.322000027E0,-6.307950497E0,1.500838104E1
3.865027610E-1,1.311195087E1,2.782050133E0,-8.032950401E0,1.562662314E1
3.884658090E-1,1.303500080E1,3.166050196E0,-1.002600002E1,1.674681451E1
3.904288750E-1,1.265205097E1,3.357000113E0,-1.033305073E1,1.667680368E1
3.923919460E-1,1.295895100E1,3.472050190E0,-1.025595093E1,1.688709782E1
3.943547100E-1,1.345695019E1,3.241950035E0,-1.190400028E1,1.825664184E1
3.963175640E-1,1.334205055E1,2.935950041E0,-1.213395023E1,1.827191462E1
3.982804530E-1,1.295895100E1,2.322000027E0,-1.190400028E1,1.774912161E1
4.002433310E-1,1.222995090E1,1.594050050E0,-1.136700058E1,1.677263834E1
4.022069680E-1,1.100400066E1,7.510500550E-1,-1.006395054E1,1.493101494E1
4.041703930E-1,9.892050743E0,-9.105000645E-2,-8.875950813E0,1.329072838E1
4.061332310E-1,8.818950653E0,-5.130000114E-1,-7.995000362E0,1.191457471E1
4.080962410E-1,7.783950329E0,-1.164000034E0,-7.189950466E0,1.066021419E1
4.100590140E-1,6.558000088E0,-1.432950020E0,-6.538050175E0,9.370528854E0
4.120218570E-1,5.676000118E0,-1.701000094E0,-5.848050117E0,8.325266893E0
4.139846080E-1,4.948050022E0,-1.854000092E0,-5.235000134E0,7.438127571E0
4.159473900E-1,4.027950287E0,-2.046000004E0,-4.200000286E0,6.168508891E0
4.179102910E-1,3.415050268E0,-2.314050198E0,-3.280050039E0,5.270305960E0
4.198731570E-1,2.610000134E0,-2.391000032E0,-2.014950037E0,4.072960288E0
4.218359110E-1,1.767000079E0,-2.083950043E0,-1.326000094E0,3.037007295E0
4.237986980E-1,1.192050099E0,-2.008050203E0,-1.708950043E0,2.893744859E0
4.257600390E-1,6.940500140E-1,-2.275950193E0,2.698050022E0,3.597378021E0
4.277218240E-1,1.189500093E-1,-2.238000154E0,2.506050110E0,3.362005495E0
4.296852560E-1,-3.400500119E-1,-2.275950193E0,2.736000061E0,3.575091555E0
4.316482060E-1,-1.068000078E0,-2.199000120E0,3.733050108E0,4.462273950E0
4.336111700E-1,-1.567050099E0,-2.046000004E0,3.847950220E0,4.631250687E0
4.355741290E-1,-2.140950203E0,-1.816050053E0,3.924000263E0,4.824881722E0
4.375373710E-1,-2.755050182E0,-1.585950017E0,4.000950336E0,5.110102011E0
4.395005230E-1,-3.175950050E0,-1.432950020E0,3.388050079E0,4.859926730E0
4.414634080E-1,-3.483000278E0,-1.471050024E0,2.851050138E0,4.735373903E0
4.434263710E-1,-3.675000191E0,-1.585950017E0,2.353049994E0,4.643027905E0
4.453892870E-1,-3.790050268E0,-1.816050053E0,1.548000097E0,4.478707752E0
4.473522170E-1,-3.790050268E0,-2.275950193E0,1.011000037E0,4.535035986E0
4.493158400E-1,-3.828000069E0,-2.773950100E0,9.195000678E-2,4.728301861E0
4.512792730E-1,-3.981000185E0,-3.234000206E0,-9.810000658E-1,5.222018856E0
4.532421100E-1,-3.981000185E0,-3.655950069E0,-1.861950040E0,5.716746569E0
4.552051210E-1,-4.057950020E0,-4.077000141E0,-2.704950094E0,6.356543363E0
4.571680290E-1,-4.134000301E0,-4.384050369E0,-3.510000229E0,6.973518319E0
4.591309680E-1,-4.363950253E0,-4.614000320E0,-4.123950005E0,7.572319618E0
4.610937170E-1,-4.402950287E0,-4.959000111E0,-4.507050037E0,8.018176436E0
4.630565150E-1,-4.134000301E0,-5.494950294E0,-4.429950237E0,8.179785837E0
4.650193230E-1,-3.904950142E0,-6.070050240E0,-3.702000141E0,8.111655230E0
4.669821280E-1,-3.636000156E0,-6.798000336E0,-2.359950066E0,8.062423334E0
4.689439460E-1,-3.175950050E0,-7.642050266E0,-7.120500207E-1,8.306299190E0
4.709060540E-1,-2.485950232E0,-8.599950790E0,7.429500222E-1,8.982821210E0
4.728692140E-1,-1.873050094E0,-9.595950127E0,1.893000126E0,9.958615615E0
4.748320280E-1,-1.222050071E0,-1.063095093E1,2.583000183E0,1.100828842E1
4.767949700E-1,-6.850500107E-1,-1.170405102E1,2.965950251E0,1.209342651E1
4.787578740E-1,4.050000105E-3,-1.262400055E1,2.773950100E0,1.292517719E1
4.807213410E-1,6.550500393E-1,-1.358205032E1,1.740000129E0,1.370871190E1
4.826846430E-1,1.269000053E0,-1.473195076E1,1.126049995E0,1.482931971E1
4.846476920E-1,1.614000082E0,-1.591995049E1,1.240950108E0,1.604960364E1
4.866108090E-1,2.035050154E0,-1.729995155E1,2.200050116E0,1.755761867E1
4.885736990E-1,2.610000134E0,-1.879500008E1,3.118950129E0,1.922997604E1
4.905366550E-1,3.376950264E0,-2.002200127E1,3.655950069E0,2.063129416E1
4.924997520E-1,4.105050087E0,-2.174595070E1,2.889000177E0,2.231779850E1
4.944628070E-1,4.450050354E0,-2.373900032E1,1.585950017E0,2.420451036E1
4.964263440E-1,5.370000362E0,-2.577105141E1,-3.670500219E-1,2.632714797E1
4.983897680E-1,9.318000793E0,-3.048495102E1,-6.307950497E0,3.249534762E1
5.003524710E-1,9.853950500E0,-2.968005180E1,-2.667000055E0,3.138660072E1
5.023153850E-1,1.307400036E1,-3.343605042E1,-1.370505047E1,3.842821048E1
5.042786240E-1,1.656105042E1,-3.623400116E1,-2.114100075E1,4.510114348E1
5.062417680E-1,2.027895164E1,-3.960705185E1,-2.631495094E1,5.169556150E1
5.082048450E-1,2.303895187E1,-4.301805115E1,-3.428700256E1,5.964012553E1
5.101679340E-1,2.418900108E1,-4.708095169E1,-3.746895218E1,6.485095345E1
5.121311880E-1,2.499405098E1,-5.129700089E1,-3.673995209E1,6.786684731E1
5.140943930E-1,2.541495132E1,-5.490000153E1,-3.371205139E1,6.925628006E1
5.160576290E-1,2.610495186E1,-5.861700439E1,-3.160395241E1,7.152783740E1
5.180208550E-1,2.668005180E1,-6.156900406E1,-2.876805115E1,7.300800088E1
5.199838890E-1,2.763795090E1,-6.390705490E1,-2.439900208E1,7.377858292E1
5.219469920E-1,2.737005043E1,-6.494100189E1,-1.922504997E1,7.304831233E1
5.239101080E-1,2.756100082E1,-6.570795441E1,-1.481700039E1,7.277834526E1
5.258732200E-1,2.786805153E1,-6.689595032E1,-9.681000710E0,7.311236721E1
5.278357060E-1,2.806005096E1,-6.819900513E1,-4.507050037E0,7.388358587E1
5.297983760E-1,2.836605072E1,-6.957900238E1,5.509500504E-1,7.514102709E1
5.317613520E-1,2.848095131E1,-7.103594971E1,5.457000256E0,7.672711118E1
5.337242630E-1,2.713995171E1,-7.145700073E1,9.865050316E0,7.707138996E1
5.356876840E-1,2.445705032E1,-7.111200714E1,1.197300053E1,7.614734146E1
5.376509560E-1,1.874595070E1,-6.881295013E1,9.942000389E0,7.201025028E1
5.396141800E-1,1.226895046E1,-6.536295319E1,5.917050362E0,6.676716468E1
5.415774190E-1,4.680000305E0,-6.095505142E1,1.510050058E0,6.115309434E1
5.435404870E-1,-2.065050125E0,-5.620305252E1,-2.053950071E0,5.627847062E1
5.455035920E-1,-7.776000500E0,-5.175705338E1,-3.817050219E0,5.247693427E1
5.474668890E-1,-1.210695076E1,-4.792395401E1,-3.586950064E0,4.955955847E1
5.494301290E-1,-1.463595104E1,-4.424505234E1,-2.590050220E0,4.667487632E1
5.513924130E-1,-1.521105099E1,-4.110195160E1,-1.134000063E0,4.384099056E1
5.533549770E-1,-1.417605114E1,-3.891705322E1,1.318050027E0,4.143953080E1
5.553180110E-1,-1.225995064E1,-3.719205093E1,3.234000206E0,3.929394100E1
5.572809030E-1,-1.015200043E1,-3.558300018E1,4.996950150E0,3.733875367E1
5.592441920E-1,-7.776000500E0,-3.355095291E1,6.760950089E0,3.509762202E1
5.612073640E-1,-5.821050167E0,-3.121305084E1,7.948950291E0,3.273110109E1
5.631702460E-1,-4.555950165E0,-2.849205208E1,8.869050026E0,3.018631746E1
5.651332130E-1,-3.483000278E0,-2.580900192E1,9.214050293E0,2.762489084E1
5.670961280E-1,-2.908050060E0,-2.370105171E1,9.289950371E0,2.562225176E1
5.690590590E-1,-2.640000105E0,-2.193795013E1,8.599950790E0,2.371080788E1
5.710219350E-1,-2.256000042E0,-2.052000046E1,8.101950645E0,2.217659936E1
5.729848280E-1,-1.795950055E0,-1.956195068E1,7.872000217E0,2.116279137E1
5.749477550E-1,-1.489950061E0,-1.875705147E1,7.335000515E0,2.019527577E1
5.769106720E-1,-1.144950032E0,-1.833495140E1,6.991050243E0,1.965594406E1
5.788738410E-1,-6.469500065E-1,-1.818195152E1,6.646050453E0,1.936935446E1
5.808369220E-1,-5.700000525E-1,-1.810500145E1,6.339000225E0,1.919111517E1
5.827998190E-1,-4.930500090E-1,-1.798995018E1,5.994000435E0,1.896864378E1
5.847627700E-1,-3.019500077E-1,-1.802805138E1,5.802000046E0,1.894109328E1
5.867256430E-1,-2.629500031E-1,-1.798995018E1,5.572050095E0,1.883494604E1
5.886885390E-1,-1.099500060E-1,-1.887195015E1,4.384050369E0,1.937479004E1
5.906509610E-1,-6.850500107E-1,-1.760700035E1,6.147000313E0,1.866176218E1
5.926135290E-1,-9.529500604E-1,-1.741500092E1,5.917050362E0,1.841743347E1
5.945761520E-1,-1.375050068E0,-1.691700172E1,6.223950386E0,1.807797744E1
5.965387580E-1,-1.950000048E0,-1.611194992E1,6.760950089E0,1.758146400E1
5.985015560E-1,-2.524950027E0,-1.553700066E1,6.837000370E0,1.716153653E1
6.004642970E-1,-2.908050060E0,-1.484700108E1,7.411950588E0,1.684717210E1
6.024272470E-1,-3.445050240E0,-1.392705059E1,7.909950256E0,1.638286978E1
6.043901390E-1,-4.326000214E0,-1.266300106E1,7.872000217E0,1.552527813E1
6.063532480E-1,-4.900950432E0,-1.166595078E1,8.446949959E0,1.521396353E1
6.083162930E-1,-5.668050289E0,-1.059300041E1,8.907000542E0,1.495570495E1
6.102793750E-1,-6.241950512E0,-9.673050880E0,9.328050613E0,1.481696284E1
6.122424460E-1,-7.162050247E0,-8.523000717E0,9.597000122E0,1.469826236E1
6.142051890E-1,-7.813950539E0,-7.182000160E0,9.673050880E0,1.435990469E1
6.161680110E-1,-8.427000046E0,-6.147000313E0,1.047795010E1,1.478470090E1
6.181307710E-1,-9.154950142E0,-5.035050392E0,1.066995049E1,1.493360934E1
6.200935490E-1,-9.769050598E0,-3.808950186E0,1.086195087E1,1.509716622E1
6.220568570E-1,-1.053495026E1,-2.581950188E0,1.113000011E1,1.554118870E1
6.240200090E-1,-1.118700027E1,-1.164000034E0,1.132200050E1,1.595905908E1
6.259821390E-1,-1.180005074E1,6.105000153E-2,1.074705029E1,1.596070219E1
6.279445920E-1,-1.249005032E1,1.249050021E0,1.093800068E1,1.664936460E1
6.299079100E-1,-1.252800083E1,1.863000035E0,1.074705029E1,1.661085982E1
6.318709750E-1,-1.287300014E1,2.935950041E0,1.066995049E1,1.697591761E1
6.338338750E-1,-1.329495049E1,3.741000175E0,1.074705029E1,1.749999659E1
6.357968230E-1,-1.341000080E1,4.660050392E0,1.032495022E1,1.755416726E1
6.377597760E-1,-1.363995075E1,5.619000435E0,1.040205002E1,1.805059741E1
6.397227340E-1,-1.344795036E1,6.768000126E0,1.005705070E1,1.810517781E1
6.416856520E-1,-1.287300014E1,7.612050533E0,9.942000389E0,1.795830777E1
6.436485820E-1,-1.260495090E1,8.685000420E0,9.634950638E0,1.808718589E1
6.456115040E-1,-1.245195103E1,9.681000710E0,9.328050613E0,1.832444781E1
6.475744290E-1,-1.237500095E1,1.052505016E1,8.754000664E0,1.845399299E1
6.495375400E-1,-1.241295052E1,1.136805058E1,7.987050533E0,1.863080488E1
6.515005900E-1,-1.268205070E1,1.190400028E1,7.489050388E0,1.893741029E1
6.534634930E-1,-1.294995022E1,1.228800011E1,7.066950321E0,1.919994646E1
6.554264390E-1,-1.291095066E1,1.263300037E1,6.684000492E0,1.926035327E1
6.573893580E-1,-1.318005085E1,1.297800064E1,6.301050186E0,1.954086678E1
6.593522850E-1,-1.371600056E1,1.324605083E1,6.531000137E0,2.015540862E1
6.613151430E-1,-1.417605114E1,1.336095047E1,7.029000282E0,2.070947291E1
6.632780350E-1,-1.452105045E1,1.332300091E1,6.799050331E0,2.084683057E1
6.652411430E-1,-1.494300079E1,1.316895103E1,6.913950443E0,2.108357785E1
6.672041870E-1,-1.501995087E1,1.305405045E1,7.066950321E0,2.111750326E1
6.691669100E-1,-1.490505028E1,1.278600025E1,6.262050152E0,2.061202558E1
6.711297270E-1,-1.459800053E1,1.251795101E1,6.492000103E0,2.029647216E1
6.730926430E-1,-1.421505070E1,1.221105099E1,6.415950298E0,1.980762103E1
6.750555470E-1,-1.375500107E1,1.178895092E1,6.568950176E0,1.926993837E1
6.770185190E-1,-1.314105034E1,1.140600014E1,6.684000492E0,1.864027644E1
6.789814710E-1,-1.256700039E1,1.102305031E1,6.876000404E0,1.807530134E1
6.809443900E-1,-1.210695076E1,1.067805004E1,6.721950531E0,1.748667002E1
6.829073190E-1,-1.176195049E1,1.048605061E1,6.531000137E0,1.705739428E1
6.848702340E-1,-1.134000015E1,1.014105034E1,6.646050453E0,1.660140030E1
6.868331260E-1,-1.099500084E1,9.910950661E0,6.147000313E0,1.602818141E1
6.887960530E-1,-1.065000057E1,9.796050072E0,5.725950241E0,1.556186414E1
6.907589700E-1,-1.018995094E1,9.757950783E0,5.496000290E0,1.514129198E1
6.927217600E-1,-9.730050087E0,9.528000832E0,5.725950241E0,1.477305590E1
6.946845880E-1,-9.117000580E0,9.336000443E0,6.109050274E0,1.440836906E1
6.966472880E-1,-8.809950829E0,9.145050049E0,6.876000404E0,1.444044859E1
6.986100350E-1,-7.966950417E0,8.685000420E0,7.411950588E0,1.392259109E1
7.005728070E-1,-7.315950394E0,8.377950668E0,7.642050266E0,1.349496646E1
7.025355720E-1,-6.511050224E0,8.110050201E0,7.987050533E0,1.311333922E1
7.044985670E-1,-5.935950279E0,7.765050411E0,7.987050533E0,1.262238051E1
7.064614950E-1,-5.323050022E0,7.573050499E0,7.564950466E0,1.195468239E1
7.084247320E-1,-4.900950432E0,7.305000305E0,6.913950443E0,1.118861275E1
7.103878790E-1,-4.518000126E0,7.152000427E0,6.109050274E0,1.043474631E1
7.123504490E-1,-4.057950020E0,7.075050354E0,5.266050339E0,9.708479904E0
7.143131890E-1,-3.904950142E0,7.075050354E0,3.886050224E0,8.966959321E0
7.162762780E-1,-3.904950142E0,7.189950466E0,2.583000183E0,8.579971635E0
7.182392640E-1,-3.790050268E0,7.152000427E0,1.585950017E0,8.248080298E0
7.202030620E-1,-3.790050268E0,6.997950554E0,9.195000678E-2,7.958909963E0
7.221666330E-1,-3.751050234E0,6.615000248E0,-8.269500136E-1,7.649343270E0
7.241292660E-1,-3.751050234E0,6.270000458E0,-1.708950043E0,7.503585399E0
7.260921740E-1,-3.751050234E0,5.809950352E0,-2.629050016E0,7.398500181E0
7.280551440E-1,-3.636000156E0,5.158950329E0,-3.510000229E0,7.221867296E0
7.300180950E-1,-3.751050234E0,4.545000076E0,-4.237950325E0,7.258624285E0
7.319809810E-1,-3.828000069E0,4.085999966E0,-4.813050270E0,7.383389001E0
7.339439100E-1,-4.018949986E0,3.511050224E0,-4.545000076E0,7.009740249E0
7.359070110E-1,-4.363950253E0,3.051000118E0,-4.890000343E0,7.229437522E0
7.378700620E-1,-4.441050053E0,2.398950100E0,-4.927950382E0,7.054259856E0
7.398330990E-1,-4.671000004E0,1.863000035E0,-4.660050392E0,6.856025075E0
7.417961410E-1,-4.824000359E0,1.326000094E0,-4.429950237E0,6.682343512E0
7.437591990E-1,-4.900950432E0,8.280000687E-1,-4.162050247E0,6.482866766E0
7.457222690E-1,-4.824000359E0,2.140500098E-1,-3.894000292E0,6.203227800E0
7.476862930E-1,-4.824000359E0,-2.059500068E-1,-3.394950151E0,5.902464011E0
7.496500380E-1,-4.708950043E0,-5.890500546E-1,-2.974050045E0,5.600550343E0
7.516131820E-1,-4.633050442E0,-1.011000037E0,-2.743950129E0,5.478735235E0
7.535765020E-1,-4.786050320E0,-1.164000034E0,-2.743950129E0,5.638300812E0
7.555392920E-1,-4.939050198E0,-1.432950020E0,-2.169000149E0,5.581408806E0
7.575022510E-1,-4.900950432E0,-1.548000097E0,-1.786050081E0,5.441102308E0
7.594653920E-1,-4.671000004E0,-1.816050053E0,-1.479000092E0,5.225296173E0
7.614284800E-1,-4.786050320E0,-2.238000154E0,-1.786050081E0,5.577176458E0
7.633913310E-1,-4.633050442E0,-2.773950100E0,-2.284050226E0,5.863176698E0
7.653542510E-1,-4.518000126E0,-3.271950245E0,-3.165000200E0,6.413673659E0
7.673170440E-1,-4.441050053E0,-4.000950336E0,-3.664050102E0,7.011119191E0
7.692798710E-1,-4.210950375E0,-4.959000111E0,-4.507050037E0,7.914372066E0
7.712426310E-1,-4.134000301E0,-6.184950352E0,-5.464950085E0,9.230885590E0
7.732054100E-1,-3.828000069E0,-7.603050232E0,-5.580000401E0,1.017822980E1
7.751684920E-1,-3.330000162E0,-8.944950104E0,-5.427000046E0,1.097967955E1
7.771314850E-1,-2.716050148E0,-1.028595066E1,-5.005050182E0,1.175705051E1
7.790944110E-1,-1.720050097E0,-1.162800026E1,-4.660050392E0,1.264456532E1
7.810573470E-1,-4.930500090E-1,-1.277805042E1,-4.468050003E0,1.354566874E1
7.830212130E-1,1.077000022E0,-1.385100079E1,-4.392000198E0,1.457051192E1
7.849848060E-1,2.149950027E0,-1.461705112E1,-3.549000263E0,1.519460008E1
7.869477960E-1,3.300000191E0,-1.523100090E1,-3.319050074E0,1.593390985E1
7.889109620E-1,4.258049965E0,-1.565205097E1,-3.204000235E0,1.653430696E1
7.908738240E-1,5.215950012E0,-1.595895100E1,-3.357000113E0,1.712202386E1
7.928367570E-1,6.175050259E0,-1.626495171E1,-2.859000206E0,1.763104597E1
7.948000370E-1,7.056000233E0,-1.638000107E1,-1.671000123E0,1.791323019E1
7.967632160E-1,8.053050041E0,-1.680195045E1,-1.287000060E0,1.867655009E1
7.987251950E-1,8.665950775E0,-1.695495033E1,-3.289500177E-1,1.904408705E1
8.006875260E-1,8.896050453E0,-1.676399994E1,1.356000066E0,1.902656416E1
8.026505450E-1,9.126000404E0,-1.668704987E1,2.698050022E0,1.920991907E1
8.046133660E-1,9.049050331E0,-1.641900063E1,3.579000235E0,1.908607178E1
8.065761720E-1,8.934000015E0,-1.591995049E1,5.227050304E0,1.898902932E1
8.085389830E-1,8.512949944E0,-1.557600117E1,6.646050453E0,1.895394723E1
8.105018800E-1,7.899000168E0,-1.511595058E1,8.179050446E0,1.891515350E1
8.124647510E-1,7.248000145E0,-1.480905056E1,9.405000687E0,1.898145207E1
8.144275230E-1,6.595950127E0,-1.454100037E1,9.865050316E0,1.876876308E1
8.163903100E-1,5.905950069E0,-1.442595100E1,9.865050316E0,1.844742601E1
8.183530760E-1,5.293050289E0,-1.473195076E1,9.634950638E0,1.838148602E1
8.203158480E-1,4.717950344E0,-1.503900051E1,9.214050293E0,1.825730853E1
8.222786610E-1,3.952050209E0,-1.473195076E1,8.754000664E0,1.758640389E1
8.242414620E-1,3.108000040E0,-1.388895035E1,7.987050533E0,1.632040386E1
8.262045600E-1,2.188950062E0,-1.285395050E1,7.450050354E0,1.501728325E1
8.281675580E-1,1.230000019E0,-1.166595078E1,7.297050476E0,1.381500102E1
8.301293880E-1,4.639500082E-1,-1.070805073E1,7.144050121E0,1.288080169E1
8.320915600E-1,-2.250000089E-1,-9.826050758E0,7.258950233E0,1.221860291E1
8.340544750E-1,-7.999500632E-1,-9.060000420E0,7.450050354E0,1.175698847E1
8.360171730E-1,-1.106999993E0,-8.293050766E0,8.025000572E0,1.159313479E1
8.379799070E-1,-1.336950064E0,-7.680000305E0,8.485050201E0,1.152240934E1
8.399426640E-1,-1.336950064E0,-7.182000160E0,9.022050858E0,1.160887434E1
8.419053910E-1,-1.030050039E0,-6.837000370E0,1.017195034E1,1.229935571E1
8.438681270E-1,-6.850500107E-1,-6.376950264E0,1.090005016E1,1.264697125E1
8.458309460E-1,-3.780000210E-1,-6.070050240E0,1.097700024E1,1.254922022E1
8.477937410E-1,-3.400500119E-1,-5.380050182E0,1.465605068E1,1.561603008E1
8.497564680E-1,-2.250000089E-1,-5.533950329E0,2.052000046E1,2.125430898E1
8.517192420E-1,-3.100050211E0,-5.994000435E0,1.392795086E1,1.547663296E1
8.536825050E-1,-3.330000162E0,-7.948050499E0,1.914000130E1,2.099047540E1
8.556456250E-1,-6.549000263E0,-8.293050766E0,1.503900051E1,1.838030554E1
8.576092350E-1,-1.245195103E1,-8.140049934E0,-5.043000221E0,1.570806635E1
8.595727020E-1,-2.257005119E1,-4.498950005E0,-5.260800171E1,5.742168237E1
8.615357040E-1,-2.280000114E1,-3.771000147E0,-3.616500092E1,4.291815217E1
8.634988490E-1,-2.161200142E1,-6.798000336E0,-5.034705353E1,5.520975650E1
8.654619140E-1,-1.670595169E1,-1.128300095E1,-4.973295212E1,5.366340894E1
8.674250020E-1,-9.999000549E0,-1.618905067E1,-3.877200317E1,4.318950803E1
8.693875810E-1,-5.131050110E0,-1.894799995E1,-2.758005142E1,3.385282284E1
8.713503100E-1,-3.406050205E0,-2.105595016E1,-2.037405014E1,2.949671396E1
8.733133860E-1,-3.253050089E0,-2.373900032E1,-1.539195061E1,2.847866947E1
8.752763700E-1,-3.406050205E0,-2.638395119E1,-1.140600014E1,2.894496325E1
8.772391030E-1,-3.367950201E0,-2.872200203E1,-7.228050232E0,2.980840820E1
8.792019100E-1,-3.559950113E0,-3.075300217E1,-1.096050024E0,3.097776158E1
8.811637710E-1,-3.022950172E0,-3.255495071E1,5.611050129E0,3.317298490E1
8.831259100E-1,-2.793000221E0,-3.393405151E1,9.558000565E0,3.536489894E1
8.850890070E-1,-2.524950027E0,-3.420300293E1,1.323795033E1,3.676226477E1
8.870518270E-1,-8.770500422E-1,-3.416400146E1,1.408095074E1,3.696243210E1
8.890154440E-1,1.537050128E0,-3.416400146E1,1.316100025E1,3.664360035E1
8.909788270E-1,3.607050180E0,-3.389595032E1,1.297005081E1,3.647147484E1
8.929418520E-1,5.025000095E0,-3.278505325E1,1.239495087E1,3.540826386E1
8.949049820E-1,6.097950459E0,-3.140505219E1,1.101495075E1,3.383476677E1
8.968680650E-1,6.595950127E0,-3.006300163E1,1.040205002E1,3.248835591E1
8.988311510E-1,6.940950394E0,-2.906700134E1,1.044000053E1,3.165534663E1
9.007937310E-1,7.324050426E0,-2.806995201E1,1.097700024E1,3.101706715E1
9.027564590E-1,7.746000290E0,-2.730405045E1,1.116795063E1,3.049975102E1
9.047194140E-1,7.975950241E0,-2.626905060E1,1.212600040E1,3.001197573E1
9.066823030E-1,8.014050484E0,-2.500395203E1,1.388895035E1,2.970396546E1
9.086452360E-1,7.975950241E0,-2.335605049E1,1.607400131E1,2.945325780E1
9.106081220E-1,7.861050606E0,-2.247405052E1,1.799100113E1,2.984217125E1
9.125708710E-1,7.630950451E0,-2.178495026E1,1.845000076E1,2.955026211E1
9.145336610E-1,7.783950329E0,-2.044305038E1,1.684095001E1,2.760662582E1
9.164962460E-1,8.359050751E0,-1.929300117E1,1.431105042E1,2.543422473E1
9.184588920E-1,9.088050842E0,-1.810500145E1,1.147500038E1,2.328216870E1
9.204219400E-1,9.433050156E0,-1.687905121E1,8.332050323E0,2.105487752E1
9.223848460E-1,9.700950623E0,-1.572900105E1,5.917050362E0,1.940415940E1
9.243475930E-1,9.931050301E0,-1.480905056E1,4.690950394E0,1.843742808E1
9.263103860E-1,9.969000816E0,-1.400400066E1,3.733050108E0,1.759058484E1
9.282736910E-1,9.739050865E0,-1.316100025E1,2.161050081E0,1.651457468E1
9.302368460E-1,9.163949966E0,-1.227900028E1,-9.900000691E-2,1.532193290E1
9.321991950E-1,8.436000824E0,-1.166595078E1,-2.140500098E-1,1.439813650E1
9.341617760E-1,7.746000290E0,-1.128300095E1,-2.520000041E-1,1.368832111E1
9.361239910E-1,7.746000290E0,-1.120605087E1,1.279950023E0,1.368263018E1
9.380863140E-1,7.708050251E0,-1.093800068E1,1.126049995E0,1.342839849E1
9.400493390E-1,7.210050106E0,-1.044000053E1,8.580000401E-1,1.271670546E1
9.420121580E-1,6.979950428E0,-1.017105007E1,1.395000100E0,1.241434625E1
9.439749250E-1,6.711000443E0,-9.940950394E0,1.930950046E0,1.214860444E1
9.459377040E-1,6.097950459E0,-9.481050491E0,1.203000069E0,1.133677765E1
9.479012360E-1,5.025000095E0,-9.136050224E0,4.750500321E-1,1.043761046E1
9.498645480E-1,3.837000132E0,-8.907000542E0,-2.359950066E0,9.981312187E0
9.518264590E-1,2.188950062E0,-8.332050323E0,-4.698000431E0,9.812531428E0
9.537887810E-1,4.260000288E-1,-7.872000217E0,-6.805950165E0,1.041493260E1
9.557514860E-1,-6.469500065E-1,-8.062950134E0,-8.224950790E0,1.153600991E1
9.577140820E-1,-1.489950061E0,-9.366000175E0,-6.997950554E0,1.178614536E1
9.596763410E-1,-2.295000076E0,-1.132095051E1,-3.894000292E0,1.218992141E1
9.616386990E-1,-3.367950201E0,-1.423395061E1,1.432950020E0,1.469699916E1
9.636013580E-1,-3.712950230E0,-1.753005028E1,6.684000492E0,1.912497123E1
9.655639280E-1,-3.712950230E0,-2.071095085E1,1.120695019E1,2.383957250E1
9.675267120E-1,-4.057950020E0,-2.304900169E1,1.469400024E1,2.763398416E1
9.694894470E-1,-3.675000191E0,-2.496600151E1,1.691700172E1,3.038078019E1
9.714523570E-1,-3.022950172E0,-2.646105194E1,1.910205078E1,3.277520163E1
9.734152160E-1,-2.026050091E0,-2.784000206E1,1.998405075E1,3.432976665E1
9.753781510E-1,-1.375050068E0,-2.875995064E1,2.067300034E1,3.544571154E1
9.773410630E-1,-8.770500422E-1,-2.910495186E1,2.040495110E1,3.555600468E1
9.793043930E-1,-1.480500102E-1,-2.906700134E1,1.967700005E1,3.510123668E1
9.812676010E-1,1.039050102E0,-2.891400146E1,1.768395042E1,3.390901368E1
9.832302960E-1,2.304000139E0,-2.860695076E1,1.507800102E1,3.241931775E1
9.851931420E-1,3.453000069E0,-2.814705086E1,1.185795021E1,3.073744727E1
9.871558980E-1,4.143000126E0,-2.737995148E1,8.140049934E0,2.886323970E1
9.891186800E-1,4.948050022E0,-2.661405182E1,3.847950220E0,2.734223243E1
9.910823610E-1,5.599950314E0,-2.550195122E1,-5.970000029E-1,2.611638123E1
9.930457690E-1,6.213000298E0,-2.435295105E1,-4.966950417E0,2.561909823E1
9.950086100E-1,6.711000443E0,-2.312595177E1,-9.489000320E0,2.588220043E1
9.969716170E-1,6.865050316E0,-2.182305145E1,-1.309200096E1,2.635858455E1
9.989343010E-1,6.634950161E0,-2.059605026E1,-1.596705055E1,2.689175623E1
1.000897079E0,6.213000298E0,-1.960005188E1,-1.795995140E1,2.730060916E1
1.002859647E0,5.676000118E0,-1.871805000E1,-1.872600174E1,2.707850650E1
1.004822290E0,4.909950256E0,-1.787505150E1,-1.903305054E1,2.656844162E1
1.006784945E0,4.219950199E0,-1.737705040E1,-1.884105110E1,2.597604795E1
1.008747596E0,3.721950293E0,-1.714695168E1,-1.811295128E1,2.521804651E1
1.010710521E0,3.492000103E0,-1.707000160E1,-1.726995087E1,2.453222824E1
1.012673365E0,3.147000074E0,-1.703205109E1,-1.669500160E1,2.405654697E1
1.014636288E0,2.917050123E0,-1.699394989E1,-1.635000038E1,2.376186076E1
1.016599198E0,2.839950085E0,-1.729995155E1,-1.604295158E1,2.376404712E1
1.018561944E0,3.223050117E0,-1.787505150E1,-1.569795036E1,2.400689825E1
1.020524738E0,3.682950258E0,-1.864200020E1,-1.531500053E1,2.440568654E1
1.022487503E0,4.219950199E0,-1.936995125E1,-1.523895073E1,2.500457179E1
1.024450277E0,4.756950378E0,-1.998300171E1,-1.562205029E1,2.580692522E1
1.026413284E0,5.370000362E0,-2.044305038E1,-1.635000038E1,2.672223279E1
1.028376212E0,6.213000298E0,-2.082600021E1,-1.707795143E1,2.764018963E1
1.030338955E0,7.056000233E0,-2.105595016E1,-1.769099998E1,2.839210554E1
1.032301752E0,7.861050606E0,-2.101800156E1,-1.819005013E1,2.888650947E1
1.034264650E0,8.589000702E0,-2.074995041E1,-1.880295181E1,2.928962908E1
1.036227519E0,9.049050331E0,-2.017500114E1,-1.903305054E1,2.917486925E1
1.038190534E0,9.471000671E0,-1.967700005E1,-1.868805122E1,2.874243280E1
1.040153480E0,9.624000549E0,-1.894799995E1,-1.795995140E1,2.782459242E1
1.042116401E0,9.739050865E0,-1.822005081E1,-1.715505028E1,2.685358660E1
1.044079329E0,9.816000938E0,-1.745400047E1,-1.619700050E1,2.575536512E1
1.046042206E0,9.931050301E0,-1.664895058E1,-1.527705097E1,2.468200968E1
1.048005098E0,1.012200069E1,-1.591995049E1,-1.443405056E1,2.375376890E1
1.049968056E0,1.054395008E1,-1.523100090E1,-1.355205059E1,2.295248019E1
1.051931005E0,1.096605015E1,-1.469400024E1,-1.263195038E1,2.226508633E1
1.053893880E0,1.134900093E1,-1.408095074E1,-1.140600014E1,2.138153023E1
1.055856776E0,1.200000095E1,-1.350600052E1,-1.040895081E1,2.085085921E1
1.057819569E0,1.261395073E1,-1.293105030E1,-9.373950005E0,2.035177519E1
1.059782392E0,1.330395031E1,-1.239405060E1,-8.340000153E0,2.000407925E1
1.061745497E0,1.391700077E1,-1.189605045E1,-7.266000271E0,1.969755535E1
1.063708529E0,1.453005028E1,-1.143600082E1,-6.193050385E0,1.950021408E1
1.065671569E0,1.506705093E1,-1.097595024E1,-5.235000134E0,1.936214694E1
1.067634606E0,1.575705051E1,-1.051605034E1,-4.123950005E0,1.938759705E1
1.069597556E0,1.625505066E1,-1.005600071E1,-3.088950157E0,1.936211340E1
1.071560531E0,1.679100037E1,-9.595950127E0,-2.130000114E0,1.945653753E1
1.073522709E0,1.736595154E1,-9.175050735E0,-7.120500207E-1,1.965362165E1
1.075485132E0,1.790295029E1,-8.599950790E0,3.979500234E-1,1.986537558E1
1.077447959E0,1.843905067E1,-8.293050766E0,1.624950051E0,2.028333660E1
1.079410668E0,1.882305145E1,-7.795050144E0,3.043050051E0,2.059927733E1
1.081373628E0,1.939800072E1,-7.335000515E0,3.847950220E0,2.109244854E1
1.083336514E0,1.962795067E1,-6.913050175E0,4.882050037E0,2.137477772E1
1.085299614E0,1.997295189E1,-6.262050152E0,5.841000080E0,2.173129911E1
1.087262658E0,2.008800125E1,-5.839950085E0,6.492000103E0,2.190385529E1
1.089225561E0,2.027895164E1,-5.035050392E0,7.066950321E0,2.205741143E1
1.091188506E0,2.070105171E1,-4.422000408E0,7.489050388E0,2.245380826E1
1.093151965E0,2.112195015E1,-3.732000113E0,6.646050453E0,2.245516844E1
1.095115274E0,2.104605103E1,-3.271950245E0,6.339000225E0,2.222217015E1
1.097078774E0,2.058600044E1,-2.889000177E0,5.151000023E0,2.141640814E1
1.099042241E0,2.024100113E1,-2.275950193E0,4.345950127E0,2.082703432E1
1.101005658E0,2.012595177E1,-1.738950133E0,3.118950129E0,2.044029677E1
1.102969089E0,1.962795067E1,-1.279050112E0,1.432950020E0,1.972170790E1
1.104933005E0,1.912905121E1,-7.810500264E-1,3.220500052E-1,1.914769844E1
1.106896779E0,1.878404999E1,-3.589500189E-1,-6.360000372E-1,1.879824128E1
1.108858961E0,1.836300087E1,-5.295000225E-2,-1.977000117E0,1.846919419E1
1.110821617E0,1.782600021E1,2.910000086E-1,-2.859000206E0,1.805615814E1
1.112784946E0,1.721295166E1,7.510500550E-1,-4.200000286E0,1.773385980E1
1.114748077E0,1.698300171E1,1.096050024E0,-5.197050095E0,1.779418451E1
1.116711146E0,1.679100037E1,1.402950048E0,-6.538050175E0,1.807351826E1
1.118674233E0,1.610205078E1,1.747950077E0,-7.687950134E0,1.792863481E1
1.120637168E0,1.537305069E1,2.092950106E0,-1.014105034E1,1.853515658E1
1.122600151E0,1.441500092E1,2.169000149E0,-1.167405033E1,1.867565967E1
1.124563019E0,1.368705082E1,2.016000032E0,-1.328400040E1,1.917978839E1
1.126525920E0,1.307400036E1,1.863000035E0,-1.359000111E1,1.894962756E1
1.128488711E0,1.261395073E1,1.671000123E0,-1.286205101E1,1.809243905E1
1.130451535E0,1.157895088E1,1.555950046E0,-1.094595051E1,1.600958827E1
1.132414638E0,1.046700096E1,1.671000123E0,-8.953050613E0,1.387470597E1
1.134377639E0,9.433050156E0,1.747950077E0,-7.036050320E0,1.189721685E1
1.136340729E0,8.206049919E0,1.824000120E0,-4.966950417E0,9.764057976E0
1.138303793E0,6.405000210E0,1.900950074E0,-2.514000177E0,7.138475731E0
1.140266738E0,5.715000153E0,1.594050050E0,1.500000060E-2,5.933165033E0
1.142229718E0,4.833000183E0,1.249050021E0,1.500000060E-2,4.991817477E0
1.144192977E0,4.066950321E0,6.360000372E-1,9.349500537E-1,4.221221691E0
1.146156164E0,3.415050268E0,-9.105000645E-2,2.506050110E0,4.236879228E0
1.148119178E0,2.610000134E0,-5.890500546E-1,4.843950272E0,5.533799319E0
1.150082243E0,1.498950124E0,-8.190000653E-1,5.802000046E0,6.048207760E0
1.152044466E0,1.000050068E0,-1.048950076E0,6.492000103E0,6.651801390E0
1.154006935E0,8.100000024E-2,-1.011000037E0,6.454050541E0,6.533257263E0
1.155970065E0,-1.222050071E0,-3.589500189E-1,1.510050058E0,1.975475302E0
1.157933005E0,-1.528050065E0,-9.730500579E-1,6.876000404E0,7.110636046E0
1.159896106E0,-2.140950203E0,-9.340500236E-1,5.611050129E0,6.077828623E0
1.161859159E0,-2.601000071E0,-9.730500579E-1,3.081000090E0,4.147841527E0
1.163822240E0,-2.946000099E0,-1.393950105E0,2.965950251E0,4.406685190E0
1.165785313E0,-3.214950085E0,-1.738950133E0,1.471050024E0,3.940030430E0
1.167749271E0,-3.367950201E0,-2.008050203E0,2.070000172E-1,3.926601989E0
1.169712984E0,-3.483000278E0,-2.428950071E0,-2.520000041E-1,4.253774017E0
1.171675593E0,-3.330000162E0,-2.812050104E0,-1.171950102E0,4.513312964E0
1.173638525E0,-3.100050211E0,-3.310950041E0,-1.402050018E0,4.747467297E0
1.175601670E0,-2.716050148E0,-3.886050224E0,-1.326000094E0,4.923067235E0
1.177564753E0,-2.026050091E0,-4.614000320E0,-4.060500264E-1,5.055566689E0
1.179527064E0,-1.528050065E0,-5.610000134E0,6.280500293E-1,5.848203599E0
1.181489602E0,-1.030050039E0,-6.300000191E0,1.011000037E0,6.463213331E0
1.183452950E0,-4.930500090E-1,-7.027950287E0,1.318050027E0,7.167456970E0
1.185416061E0,-1.870500147E-1,-7.987050533E0,1.624950051E0,8.152817096E0
1.187379133E0,2.719500065E-1,-8.907000542E0,2.314950228E0,9.206932715E0
1.189342217E0,3.490500152E-1,-9.673050880E0,3.157950163E0,1.018147330E1
1.191307114E0,1.345050097E0,-1.135905075E1,3.081000090E0,1.184608607E1
1.193271466E0,2.992950201E0,-1.388895035E1,6.660000086E-1,1.422336981E1
1.195233784E0,1.269000053E0,-1.243305016E1,8.944950104E0,1.536890463E1
1.197196698E0,3.108000040E0,-1.484700108E1,4.269000053E0,1.575809210E1
1.199159982E0,3.529950142E0,-1.538400078E1,9.405000687E0,1.837340649E1
1.201123158E0,4.987050056E0,-1.814295006E1,1.135995007E1,2.197921224E1
1.203086452E0,5.446050167E0,-1.956195068E1,1.113000011E1,2.315612834E1
1.205049705E0,5.446050167E0,-2.124795151E1,1.021005058E1,2.419462830E1
1.207012933E0,5.752950191E0,-2.297295189E1,7.335000515E0,2.479224046E1
1.208976169E0,6.558000088E0,-2.531100082E1,4.231050014E0,2.648690076E1
1.210940434E0,7.861050606E0,-2.772495079E1,1.050000072E0,2.883698169E1
1.212904398E0,9.586050034E0,-3.082995224E1,-3.433950186E0,3.246798922E1
1.214867499E0,1.085100079E1,-3.378105164E1,-7.189950466E0,3.620219683E1
1.216830856E0,1.219200039E1,-3.646395111E1,-9.373950005E0,3.957443042E1
1.218794065E0,1.364895058E1,-3.880200195E1,-1.416495037E1,4.350327604E1
1.220757318E0,1.456800079E1,-4.144695282E1,-1.562205029E1,4.662751334E1
1.222720589E0,1.606305122E1,-4.462800217E1,-1.723200035E1,5.046406670E1
1.224683854E0,1.729005051E1,-4.796205139E1,-2.125605011E1,5.523697934E1
1.226647416E0,1.767300034E1,-5.221695328E1,-2.194605064E1,5.933442752E1
1.228610907E0,1.874595070E1,-5.650905228E1,-2.152395058E1,6.330848368E1
1.230574049E0,1.866900063E1,-5.957595444E1,-2.650695038E1,6.782657554E1
1.232537294E0,1.778805161E1,-6.210495377E1,-2.872995186E1,7.070254731E1
1.234500026E0,1.636995125E1,-6.367695236E1,-3.053100204E1,7.249049353E1
1.236462909E0,1.495200062E1,-6.498000336E1,-3.206400299E1,7.398691402E1
1.238426057E0,1.334205055E1,-6.636000061E1,-3.260100174E1,7.512978975E1
1.240389100E0,1.265205097E1,-6.781605530E1,-3.087600136E1,7.558054783E1
1.242352139E0,1.169400024E1,-6.869805145E1,-2.516505051E1,7.409083400E1
1.244315179E0,1.150200081E1,-6.919605255E1,-1.922504997E1,7.273233296E1
1.246278622E0,1.165605068E1,-6.881295013E1,-1.251705074E1,7.090671465E1
1.248241946E0,1.131105042E1,-6.789300537E1,-6.001950264E0,6.908996632E1
1.250204465E0,1.188495064E1,-6.678105164E1,-2.520000041E-1,6.783085149E1
1.252167203E0,1.069695091E1,-6.517095184E1,5.035950184E0,6.623472290E1
1.254130337E0,8.589000702E0,-6.244995117E1,7.719000340E0,6.350866319E1
1.256093355E0,6.405000210E0,-5.919195175E1,8.944950104E0,6.020567508E1
1.258056667E0,4.105050087E0,-5.505300140E1,9.367050171E0,5.599487502E1
1.260019893E0,2.227050066E0,-5.003205109E1,9.022050858E0,5.088775186E1
1.261982905E0,1.000050068E0,-4.344000244E1,8.064000130E0,4.419346117E1
1.263945977E0,5.790000558E-1,-3.730695343E1,6.684000492E0,3.790540697E1
1.265908740E0,1.189500093E-1,-3.435600281E1,5.151000023E0,3.474020552E1
1.267871593E0,4.200000316E-2,-3.240105057E1,3.924000263E0,3.263782499E1
1.269835924E0,2.719500065E-1,-3.040800095E1,3.043050051E0,3.056109671E1
1.271799822E0,7.320000529E-1,-2.860695076E1,2.583000183E0,2.873265295E1
1.273762998E0,1.269000053E0,-2.676705170E1,1.969950080E0,2.686942725E1
1.275726376E0,1.192050099E0,-2.481195068E1,1.701000094E0,2.489874056E1
1.277689582E0,1.192050099E0,-2.278095055E1,1.893000126E0,2.289052513E1
1.279652838E0,1.537050128E0,-2.074995041E1,2.698050022E0,2.098100186E1
1.281616019E0,2.265000105E0,-1.948500061E1,3.081000090E0,1.985668743E1
1.283579222E0,2.992950201E0,-1.871805000E1,3.733050108E0,1.931990709E1
1.285542507E0,3.682950258E0,-1.818195152E1,4.231050014E0,1.902759228E1
1.287505764E0,4.182000160E0,-1.783695030E1,4.921050072E0,1.897004626E1
1.289469170E0,4.411950111E0,-1.753005028E1,5.304000378E0,1.883880003E1
1.291432533E0,4.258049965E0,-1.714695168E1,5.533950329E0,1.851414453E1
1.293395742E0,3.913050175E0,-1.660995102E1,5.994000435E0,1.808674862E1
1.295358996E0,3.607050180E0,-1.607400131E1,6.376950264E0,1.766493204E1
1.297322227E0,3.262050152E0,-1.576695061E1,6.721950531E0,1.744770247E1
1.299285462E0,3.070050240E0,-1.603499985E1,7.105050564E0,1.780528495E1
1.301248512E0,2.494950056E0,-1.507695103E1,7.834050179E0,1.717298955E1
1.303211616E0,2.074050188E0,-1.434900093E1,7.909950256E0,1.651553284E1
1.305175002E0,1.575000048E0,-1.358205032E1,8.332050323E0,1.601173878E1
1.307138306E0,1.114950061E0,-1.254795074E1,8.446949959E0,1.516723921E1
1.309100689E0,5.020500422E-1,-1.147395039E1,8.524050713E0,1.430255335E1
1.311063328E0,-2.250000089E-1,-1.021005058E1,8.524050713E0,1.330245084E1
1.313026659E0,-7.230000496E-1,-8.944950104E0,8.524050713E0,1.237716858E1
1.314989788E0,-1.106999993E0,-7.795050144E0,8.254950523E0,1.140756170E1
1.316953036E0,-1.528050065E0,-6.990000248E0,8.254950523E0,1.092425048E1
1.318916249E0,-1.720050097E0,-6.223950386E0,8.179050446E0,1.042079637E1
1.320879449E0,-2.065050125E0,-5.227050304E0,8.217000008E0,9.955178352E0
1.322842677E0,-2.179949999E0,-4.269000053E0,8.217000008E0,9.512919246E0
1.324806088E0,-2.485950232E0,-3.157050133E0,8.101950645E0,9.043700479E0
1.326769446E0,-2.869950056E0,-2.275950193E0,8.293950081E0,9.066761856E0
1.328731890E0,-3.291000128E0,-1.011000037E0,7.795050144E0,8.521479312E0
1.330694602E0,-3.367950201E0,-1.500000060E-2,7.603950500E0,8.316452174E0
1.332657600E0,-3.406050205E0,8.659500480E-1,7.374000549E0,8.168655433E0
1.334620518E0,-3.253050089E0,1.671000123E0,7.335000515E0,8.196145975E0
1.336584118E0,-3.175950050E0,2.208000183E0,6.991050243E0,7.989787672E0
1.338547518E0,-3.253050089E0,2.629050016E0,6.991050243E0,8.146718503E0
1.340510586E0,-3.559950113E0,3.511050224E0,7.182000160E0,8.751105347E0
1.342473751E0,-3.675000191E0,4.047000408E0,7.374000549E0,9.179309495E0
1.344437011E0,-3.904950142E0,4.813950062E0,8.025000572E0,1.014018663E1
1.346400229E0,-4.210950375E0,5.695050240E0,8.485050201E0,1.105268190E1
1.348363418E0,-4.555950165E0,6.538950443E0,8.791950226E0,1.186646298E1
1.350326616E0,-4.633050442E0,7.228050232E0,8.791950226E0,1.228854163E1
1.352290031E0,-4.633050442E0,7.534950256E0,9.328050613E0,1.285508304E1
1.354253383E0,-4.747950077E0,7.842000484E0,9.826950073E0,1.343908290E1
1.356216300E0,-5.169000149E0,8.148000717E0,1.013295078E1,1.399232539E1
1.358179329E0,-5.590950489E0,8.416950226E0,1.036305046E1,1.447399714E1
1.360142594E0,-6.241950512E0,8.685000420E0,1.055505085E1,1.502665222E1
1.362105789E0,-6.625950336E0,8.761950493E0,1.097700024E1,1.552963388E1
1.364069206E0,-7.201050282E0,8.914950371E0,1.036305046E1,1.545070484E1
1.366032558E0,-7.660950184E0,8.493000031E0,1.070805073E1,1.566791491E1
1.367995588E0,-8.656949997E0,8.416950226E0,1.074705029E1,1.616437206E1
1.369958713E0,-9.577050209E0,8.224950790E0,1.124505043E1,1.690623747E1
1.371921782E0,-1.034400082E1,7.957050323E0,1.135995007E1,1.730206543E1
1.373884867E0,-1.114800072E1,7.573050499E0,1.132200050E1,1.760161098E1
1.375848121E0,-1.176195049E1,7.228050232E0,1.132200050E1,1.785429598E1
1.377811326E0,-1.237500095E1,6.768000126E0,1.116795063E1,1.799081976E1
1.379774513E0,-1.283505058E1,6.154950142E0,1.155105019E1,1.833163100E1
1.381737709E0,-1.333305073E1,5.772000313E0,1.082295036E1,1.811691154E1
1.383700811E0,-1.394595051E1,5.389050484E0,1.097700024E1,1.854793614E1
1.385663940E0,-1.452105045E1,5.082000256E0,1.051695061E1,1.863582257E1
1.387627367E0,-1.490505028E1,4.774950027E0,1.063200092E1,1.892089097E1
1.389590707E0,-1.513395119E1,4.468950272E0,1.078500080E1,1.911345697E1
1.391554058E0,-1.532595062E1,4.123950005E0,1.070805073E1,1.914560201E1
1.393517403E0,-1.536405087E1,3.741000175E0,1.066995049E1,1.907608410E1
1.395480480E0,-1.532595062E1,3.433950186E0,1.105305099E1,1.920538239E1
1.397443636E0,-1.524900055E1,3.241950035E0,1.063200092E1,1.887012722E1
1.399407014E0,-1.490505028E1,2.935950041E0,1.070805073E1,1.858608826E1
1.401370326E0,-1.463595104E1,2.743950129E0,1.047795010E1,1.820790387E1
1.403333433E0,-1.425300026E1,2.398950100E0,1.021005058E1,1.769599138E1
1.405296583E0,-1.379295063E1,2.169000149E0,1.001805019E1,1.718462622E1
1.407259782E0,-1.333305073E1,1.786050081E0,9.979950905E0,1.674991453E1
1.409222966E0,-1.291095066E1,1.518000126E0,1.009500027E1,1.645922239E1
1.411186250E0,-1.275795078E1,1.518000126E0,1.032495022E1,1.648254318E1
1.413149504E0,-1.272000027E1,1.555950046E0,1.051695061E1,1.657786589E1
1.415112890E0,-1.260495090E1,1.708950043E0,1.040205002E1,1.643191840E1
1.417076221E0,-1.249005032E1,1.786050081E0,1.032495022E1,1.630324903E1
1.419039435E0,-1.237500095E1,1.978050113E0,1.040205002E1,1.628668092E1
1.421002684E0,-1.229805088E1,2.284050226E0,1.021005058E1,1.614633314E1
1.422965777E0,-1.218300056E1,2.476050138E0,9.673050880E0,1.575195989E1
1.424928915E0,-1.183800030E1,2.551950216E0,9.098999977E0,1.514735956E1
1.426892097E0,-1.156995010E1,2.629050016E0,8.524050713E0,1.460941785E1
1.428855279E0,-1.130205059E1,2.782050133E0,7.335000515E0,1.375784805E1
1.430818204E0,-1.091805077E1,2.821050167E0,6.531000137E0,1.303135140E1
1.432781204E0,-1.034400082E1,2.974050045E0,5.649000168E0,1.215543210E1
1.434744653E0,-9.960000038E0,3.166050196E0,4.231050014E0,1.127507245E1
1.436707971E0,-9.499950409E0,3.396000147E0,3.273000240E0,1.060633798E1
1.438671312E0,-8.809950829E0,3.433950186E0,2.314950228E0,9.734795429E0
1.440634653E0,-8.389050484E0,3.472050190E0,1.050000072E0,9.139682746E0
1.442598586E0,-7.776000500E0,3.586950064E0,-2.205000073E-2,8.563461960E0
1.444562346E0,-7.354050159E0,3.664050102E0,-7.890000343E-1,8.254080079E0
1.446525532E0,-6.894000530E0,3.664050102E0,-1.900950074E0,8.035304453E0
1.448488886E0,-6.280950069E0,3.664050102E0,-2.974050045E0,7.856244051E0
1.450452092E0,-5.974050522E0,3.664050102E0,-3.625050068E0,7.890217410E0
1.452415344E0,-5.629050255E0,3.741000175E0,-4.468050003E0,8.102145390E0
1.454378705E0,-5.361000061E0,3.625950098E0,-4.736999989E0,8.020411751E0
1.456342034E0,-5.245950222E0,3.664050102E0,-5.197050095E0,8.243457198E0
1.458305069E0,-5.323050022E0,3.741000175E0,-5.656950474E0,8.621544671E0
1.460268190E0,-4.633050442E0,3.088950157E0,-6.193050385E0,8.328303701E0
1.462231614E0,-4.786050320E0,3.319050074E0,-5.464950085E0,7.986742169E0
1.464194952E0,-4.786050320E0,3.166050196E0,-6.117000103E0,8.387362027E0
1.466158345E0,-4.863000393E0,3.088950157E0,-6.193050385E0,8.458383945E0
1.468121721E0,-4.939050198E0,2.896950245E0,-5.542050362E0,7.968742673E0
1.470085152E0,-4.978050232E0,2.629050016E0,-5.772000313E0,8.062808178E0
1.472048567E0,-4.978050232E0,2.361000061E0,-4.927950382E0,7.391887470E0
1.474011962E0,-4.939050198E0,2.053950071E0,-4.545000076E0,7.019255904E0
1.475975353E0,-4.708950043E0,1.671000123E0,-4.621950150E0,6.806531797E0
1.477938736E0,-4.708950043E0,1.173000097E0,-4.009050369E0,6.294650475E0
1.479902122E0,-4.824000359E0,1.018950105E0,-3.625050068E0,6.119659040E0
1.481865146E0,-4.863000393E0,7.890000343E-1,-2.514000177E0,5.530957491E0
1.483828276E0,-4.479000092E0,2.910000086E-1,-2.169000149E0,4.985046085E0
1.485792424E0,-4.173000336E0,-1.680000126E-1,-1.441050053E0,4.418006458E0
1.487756274E0,-3.981000185E0,-5.509500504E-1,-9.810000658E-1,4.136939637E0
1.489719219E0,-3.751050234E0,-1.087950110E0,-3.670500219E-1,3.922848330E0
1.491682430E0,-3.636000156E0,-1.585950017E0,-9.900000691E-2,3.968064465E0
1.493644898E0,-3.445050240E0,-2.122950077E0,3.979500234E-1,4.066159417E0
1.495607583E0,-3.291000128E0,-2.812050104E0,6.660000086E-1,4.379710452E0
1.497571078E0,-3.022950172E0,-3.541050196E0,7.429500222E-1,4.714789388E0
1.499534342E0,-2.946000099E0,-4.269000053E0,5.509500504E-1,5.216016104E0
1.501498648E0,-3.138000250E0,-5.035050392E0,1.500000060E-2,5.932874769E0
1.503462649E0,-3.483000278E0,-5.839950085E0,-1.171950102E0,6.899983694E0
1.505426154E0,-3.598050117E0,-6.798000336E0,-3.012000084E0,8.260200828E0
1.507389805E0,-3.367950201E0,-7.872000217E0,-4.468050003E0,9.657895568E0
1.509353458E0,-3.022950172E0,-9.136050224E0,-5.388000488E0,1.102887985E1
1.511317111E0,-2.371050119E0,-1.032495022E1,-5.197050095E0,1.179982226E1
1.513280090E0,-1.452000022E0,-1.151295090E1,-5.119950294E0,1.268346299E1
1.515243267E0,-1.099500060E-1,-1.243305016E1,-5.082000256E0,1.343203454E1
1.517207587E0,1.192050099E0,-1.339095020E1,-6.385050297E0,1.488312461E1
1.519171572E0,2.725050211E0,-1.408095074E1,-6.615000248E0,1.579421731E1
1.521135049E0,4.027950287E0,-1.500105095E1,-7.305000305E0,1.716446744E1
1.523098665E0,5.715000153E0,-1.580505085E1,-7.458000183E0,1.838702330E1
1.525061875E0,7.324050426E0,-1.645695114E1,-7.113000393E0,1.936666544E1
1.527025204E0,8.934000015E0,-1.710900116E1,-6.154950142E0,2.025876818E1
1.528988777E0,1.035195065E1,-1.737705040E1,-4.507050037E0,2.072289224E1
1.530952279E0,1.142595100E1,-1.737705040E1,-2.437050104E0,2.093928008E1
1.532914568E0,1.230705070E1,-1.760700035E1,-4.440000355E-1,2.148643978E1
1.534877209E0,1.280505085E1,-1.756905174E1,2.008050203E0,2.183284617E1
1.536840495E0,1.249905014E1,-1.749195099E1,4.653000355E0,2.199647736E1
1.538803592E0,1.169400024E1,-1.722405052E1,6.684000492E0,2.186534749E1
1.540766845E0,1.085100079E1,-1.672500038E1,9.252000809E0,2.197883925E1
1.542730053E0,9.816000938E0,-1.615005112E1,1.078500080E1,2.175992343E1
1.544693093E0,8.473950386E0,-1.557600117E1,1.204995060E1,2.143877228E1
1.546656193E0,7.210050106E0,-1.480905056E1,1.293105030E1,2.094050770E1
1.548619445E0,5.983050346E0,-1.423395061E1,1.335300064E1,2.041335023E1
1.550582652E0,5.025000095E0,-1.385100079E1,1.231800079E1,1.920505122E1
1.552545932E0,3.913050175E0,-1.377405071E1,1.086195087E1,1.797271297E1
1.554509191E0,2.992950201E0,-1.388895035E1,9.214050293E0,1.693397223E1
1.556472224E0,2.111999989E0,-1.446405029E1,7.719000340E0,1.653034365E1
1.558435333E0,1.345050097E0,-1.530705070E1,6.070950508E0,1.652184618E1
1.560397998E0,1.000050068E0,-1.615005112E1,5.074050426E0,1.695789606E1
1.562360794E0,5.020500422E-1,-1.718505096E1,4.806000233E0,1.785148927E1
1.564323783E0,-3.299999982E-2,-1.879500008E1,4.921050072E0,1.942858334E1
1.566286715E0,-5.700000525E-1,-2.052000046E1,5.611050129E0,2.128095868E1
1.568249836E0,-1.452000022E0,-2.247405052E1,7.450050354E0,2.372118254E1
1.570212888E0,-2.601000071E0,-2.488905144E1,8.025000572E0,2.627985382E1
1.572176105E0,-3.904950142E0,-2.603895187E1,8.715000153E0,2.773493966E1
1.574139273E0,-4.863000393E0,-2.676705170E1,9.673050880E0,2.887372062E1
1.576102335E0,-5.361000061E0,-2.764905167E1,1.028700066E1,2.998387504E1
1.578065429E0,-5.629050255E0,-2.726505089E1,1.220295048E1,3.039705918E1
1.580028708E0,-6.204000473E0,-2.757195091E1,8.907000542E0,2.963168503E1
1.581991946E0,-7.239000320E0,-2.803200150E1,6.070950508E0,2.958128925E1
1.583956032E0,-8.695050240E0,-2.787900162E1,3.579000235E0,2.942196242E1
1.585919869E0,-9.079050064E0,-2.833905220E1,-1.249050021E0,2.978407554E1
1.587883357E0,-8.619000435E0,-2.791695213E1,7.810500264E-1,2.922761407E1
1.589846948E0,-7.162050247E0,-2.734200096E1,-6.154950142E0,2.892686280E1
1.591810278E0,-5.208000183E0,-2.538705063E1,-1.175100040E1,2.845543210E1
1.593773698E0,-3.828000069E0,-2.255100060E1,-1.090695095E1,2.534093115E1
1.595736761E0,-2.601000071E0,-2.002200127E1,-1.282395077E1,2.391860049E1
1.597699929E0,-1.336950064E0,-1.814295006E1,-1.435695076E1,2.317490253E1
1.599663891E0,-1.870500147E-1,-1.684005165E1,-1.401195049E1,2.190792286E1
1.601627620E0,6.550500393E-1,-1.603499985E1,-1.366695023E1,2.107927511E1
1.603590562E0,1.114950061E0,-1.565205097E1,-1.267095089E1,2.016885742E1
1.605553751E0,1.269000053E0,-1.542195034E1,-1.129095078E1,1.915548180E1
1.607516943E0,1.306950092E0,-1.546095085E1,-9.220950127E0,1.804923935E1
1.609480134E0,1.114950061E0,-1.561395073E1,-6.576000214E0,1.697887952E1
1.611443193E0,9.619500637E-1,-1.572900105E1,-3.702000141E0,1.618739098E1
1.613406290E0,8.089500666E-1,-1.584405041E1,-7.510500550E-1,1.588245604E1
1.615367800E0,6.169500351E-1,-1.595895100E1,1.701000094E0,1.606120000E1
1.617329765E0,2.719500065E-1,-1.618905067E1,3.924000263E0,1.666004492E1
1.619293888E0,6.169500351E-1,-1.641900063E1,6.070950508E0,1.751629667E1
1.621257379E0,1.192050099E0,-1.664895058E1,7.756950378E0,1.840594518E1
1.623220386E0,1.729050040E0,-1.695495033E1,9.865050316E0,1.969210940E1
1.625183535E0,2.380050182E0,-1.726200104E1,1.162800026E1,2.094878776E1
1.627146802E0,2.610000134E0,-1.745400047E1,1.366005039E1,2.231706096E1
1.629110018E0,2.878050089E0,-1.764495087E1,1.592100048E1,2.393962656E1
1.631073117E0,3.568050146E0,-1.776000023E1,1.664895058E1,2.460357993E1
1.633036251E0,4.258049965E0,-1.779900169E1,1.680195045E1,2.484433517E1
1.634999093E0,4.717950344E0,-1.795200157E1,1.684095001E1,2.506294103E1
1.636962020E0,5.178000450E0,-1.814295006E1,1.707105064E1,2.544403851E1
1.638925136E0,5.676000118E0,-1.845000076E1,1.768395042E1,2.617902993E1
1.640888186E0,6.634950161E0,-1.891005135E1,1.887195015E1,2.752749731E1
1.642851268E0,7.477950573E0,-1.940805054E1,1.779900169E1,2.737510971E1
1.644814340E0,8.473950386E0,-2.002200127E1,1.599705029E1,2.699248021E1
1.646777463E0,9.508950233E0,-2.074995041E1,1.649595070E1,2.816197731E1
1.648740571E0,1.027605057E1,-2.132505035E1,1.653404999E1,2.887437959E1
1.650703449E0,1.062105083E1,-2.182305145E1,1.634205055E1,2.925944141E1
1.652666405E0,1.104195023E1,-2.232105064E1,1.638105011E1,2.980759583E1
1.654629277E0,1.154100037E1,-2.278095055E1,1.557600117E1,2.991284356E1
1.656592174E0,1.192395020E1,-2.297295189E1,1.366005039E1,2.926660355E1
1.658555281E0,1.215405083E1,-2.285805130E1,1.097700024E1,2.811949493E1
1.660518326E0,1.188495064E1,-2.243595123E1,7.489050388E0,2.647092433E1
1.662481989E0,1.127205086E1,-2.159295082E1,3.655950069E0,2.463088765E1
1.664445475E0,1.154100037E1,-2.048100090E1,-1.018950105E0,2.353092320E1
1.666408438E0,1.096605015E1,-1.952295113E1,-2.014950037E0,2.248243537E1
1.668371554E0,9.816000938E0,-1.875705147E1,-3.817050219E0,2.151164165E1
1.670333587E0,8.244000435E0,-1.825800133E1,-2.514000177E0,2.019005578E1
1.672295938E0,7.018050194E0,-1.825800133E1,8.200500607E-1,1.957754129E1
1.674258959E0,6.136050224E0,-1.860300064E1,3.349050045E0,1.987306925E1
1.676221783E0,5.331000328E0,-1.910205078E1,5.151000023E0,2.049001488E1
1.678184723E0,4.411950111E0,-1.956195068E1,6.262050152E0,2.100829575E1
1.680147629E0,3.376950264E0,-1.990695000E1,6.991050243E0,2.136738718E1
1.682110555E0,2.917050123E0,-2.013600159E1,6.799050331E0,2.145215203E1
1.684073475E0,2.725050211E0,-2.025105095E1,5.686950207E0,2.121019486E1
1.686036543E0,2.878050089E0,-2.021295166E1,4.116000175E0,2.082757894E1
1.687999561E0,3.376950264E0,-2.032800102E1,2.353049994E0,2.074049814E1
1.689963549E0,4.027950287E0,-2.044305038E1,4.750500321E-1,2.084150583E1
1.691927253E0,4.564949989E0,-2.063505173E1,-2.206950188E0,2.124887661E1
1.693890088E0,4.948050022E0,-2.082600021E1,-4.468050003E0,2.186707467E1
1.695853178E0,4.987050056E0,-2.098005104E1,-6.460950375E0,2.251171006E1
1.697816258E0,4.680000305E0,-2.117100143E1,-8.032950401E0,2.312232680E1
1.699779337E0,4.411950111E0,-2.124795151E1,-8.991000175E0,2.348997299E1
1.701742548E0,4.027950287E0,-2.113305092E1,-9.489000320E0,2.351321653E1
1.703705720E0,3.415050268E0,-2.105595016E1,-1.017900085E1,2.363530546E1
1.705668782E0,2.955000162E0,-2.098005104E1,-1.113705063E1,2.393592414E1
1.707631876E0,2.610000134E0,-2.067300034E1,-1.171200085E1,2.390305435E1
1.709594965E0,2.419050217E0,-2.048100090E1,-1.213395023E1,2.392814138E1
1.711558075E0,2.035050154E0,-2.013600159E1,-1.247895050E1,2.377654716E1
1.713521282E0,1.882050037E0,-1.986795044E1,-1.259400082E1,2.359844113E1
1.715484460E0,1.920000076E0,-1.967700005E1,-1.251705074E1,2.339972843E1
1.717447566E0,1.767000079E0,-1.940805054E1,-1.270905018E1,2.326617011E1
1.719410693E0,1.804950118E0,-1.925505066E1,-1.259400082E1,2.307864115E1
1.721373881E0,1.843950033E0,-1.925505066E1,-1.259400082E1,2.308172403E1
1.723337061E0,1.651950121E0,-1.910205078E1,-1.255605030E1,2.291880630E1
1.725300121E0,1.345050097E0,-1.875705147E1,-1.236405087E1,2.250568580E1
1.727263217E0,1.153950095E0,-1.860300064E1,-1.205700016E1,2.219852442E1
1.729226291E0,1.000050068E0,-1.856505013E1,-1.182705021E1,2.203497908E1
1.731189371E0,9.240000248E-1,-1.841205025E1,-1.144395065E1,2.169841876E1
1.733152457E0,1.077000022E0,-1.837305069E1,-1.109895039E1,2.149222232E1
1.735115535E0,1.345050097E0,-1.833495140E1,-1.086900043E1,2.135684371E1
1.737078476E0,1.729050040E0,-1.822005081E1,-1.109895039E1,2.140435856E1
1.739041458E0,2.304000139E0,-1.810500145E1,-1.148205090E1,2.156239752E1
1.741004686E0,3.262050152E0,-1.802805138E1,-1.209600067E1,2.195369764E1
1.742967841E0,4.372950077E0,-1.798995018E1,-1.274700069E1,2.247770065E1
1.744930590E0,5.485050201E0,-1.772205162E1,-1.362900066E1,2.301969914E1
1.746893458E0,6.673050404E0,-1.741500092E1,-1.466400051E1,2.372434972E1
1.748856525E0,7.669050217E0,-1.691700172E1,-1.562205029E1,2.427030560E1
1.750819533E0,8.398050308E0,-1.618905067E1,-1.646505165E1,2.457052170E1
1.752782667E0,9.010950089E0,-1.549905109E1,-1.723200035E1,2.486683821E1
1.754745764E0,9.508950233E0,-1.477095032E1,-1.769099998E1,2.493135753E1
1.756708639E0,1.000695038E1,-1.404195023E1,-1.776795006E1,2.475914924E1
1.758671593E0,1.039095020E1,-1.323795033E1,-1.742295074E1,2.422342642E1
1.760634286E0,1.085100079E1,-1.258605099E1,-1.684800148E1,2.366448925E1
1.762597055E0,1.127205086E1,-1.185795021E1,-1.596705055E1,2.286081401E1
1.764560003E0,1.180905056E1,-1.124400043E1,-1.504695034E1,2.218765277E1
1.766522899E0,1.234500027E1,-1.055505085E1,-1.397400093E1,2.142617166E1
1.768485711E0,1.280505085E1,-9.903000832E0,-1.255605030E1,2.048641384E1
1.770448535E0,1.326495075E1,-9.442950249E0,-1.109895039E1,1.970570799E1
1.772411474E0,1.372500038E1,-8.868000031E0,-9.298050880E0,1.880081940E1
1.774374379E0,1.403205109E1,-8.370000839E0,-7.611000538E0,1.802450279E1
1.776337305E0,1.433805084E1,-7.987050533E0,-5.656950474E0,1.736012001E1
1.778300225E0,1.472205067E1,-7.717950344E0,-3.778950214E0,1.704658318E1
1.780263479E0,1.495200062E1,-7.258050442E0,-2.053950071E0,1.674694986E1
1.782226625E0,1.510500050E1,-6.837000370E0,-3.670500219E-1,1.658434020E1
1.784189015E0,1.545000076E1,-6.454050541E0,1.126049995E0,1.678169481E1
1.786151627E0,1.567995071E1,-6.184950352E0,2.812950134E0,1.708880200E1
1.788115098E0,1.594800091E1,-5.764050484E0,4.078050137E0,1.744114399E1
1.790078317E0,1.606305122E1,-5.457000256E0,5.457000256E0,1.782075526E1
1.792041376E0,1.610205078E1,-5.149950027E0,6.760950089E0,1.820737408E1
1.794004478E0,1.614000130E1,-4.575000286E0,7.489050388E0,1.837161248E1
1.795967415E0,1.614000130E1,-4.039050102E0,7.834050179E0,1.838983170E1
1.797930401E0,1.617794991E1,-3.502050161E0,8.715000153E0,1.870672730E1
1.799893493E0,1.621605110E1,-3.042000055E0,9.060000420E0,1.882279696E1
1.801856553E0,1.614000130E1,-2.544000149E0,8.983950615E0,1.864625826E1
1.803819642E0,1.617794991E1,-2.238000154E0,9.597000122E0,1.894299657E1
1.805782716E0,1.629300117E1,-1.930950046E0,9.098999977E0,1.876119015E1
1.807745794E0,1.606305122E1,-1.624050021E0,9.405000687E0,1.868457093E1
1.809708870E0,1.591005039E1,-1.318050027E0,8.677050591E0,1.817025499E1
1.811671723E0,1.564200115E1,-1.087950110E0,7.872000217E0,1.754492015E1
1.813634641E0,1.567995071E1,-7.810500264E-1,6.721950531E0,1.707792471E1
1.815597799E0,1.560300064E1,-6.280500293E-1,5.188950062E0,1.645519002E1
1.817560880E0,1.552695084E1,-4.360500276E-1,3.388050079E0,1.589827743E1
1.819524497E0,1.518195057E1,-1.680000126E-1,1.432950020E0,1.525035058E1
1.821487957E0,1.495200062E1,-9.105000645E-2,-4.819500148E-1,1.496004306E1
1.823450429E0,1.453005028E1,2.295000106E-2,-2.359950066E0,1.472047051E1
1.825413190E0,1.441500092E1,1.759500057E-1,-4.084949970E0,1.498365863E1
1.827376130E0,1.418505096E1,2.910000086E-1,-5.809950352E0,1.533153205E1
1.829339024E0,1.403205109E1,3.289500177E-1,-7.534950256E0,1.593054114E1
1.831302132E0,1.387905025E1,4.060500264E-1,-8.914050102E0,1.650009702E1
1.833265178E0,1.353405094E1,4.830000103E-1,-1.071600056E1,1.726952495E1
1.835228081E0,1.322700024E1,8.280000687E-1,-1.209600067E1,1.794303073E1
1.837191026E0,1.315005016E1,1.096050024E0,-1.213395023E1,1.792645791E1
1.839153905E0,1.311195087E1,1.210950017E0,-1.339905071E1,1.878627732E1
1.841116800E0,1.307400036E1,1.134000063E0,-1.385895061E1,1.908627658E1
1.843079547E0,1.299705029E1,1.018950105E0,-1.351395035E1,1.877733819E1
1.845042338E0,1.219200039E1,9.430500269E-1,-1.109895039E1,1.651426403E1
1.847005104E0,1.196205044E1,6.360000372E-1,-1.006395054E1,1.564539060E1
1.848967877E0,1.150200081E1,6.105000153E-2,-9.988050461E0,1.523354528E1
1.850931400E0,1.054395008E1,-3.589500189E-1,-8.416049957E0,1.349568914E1
1.852894711E0,9.279000282E0,-8.959500194E-1,-7.036050320E0,1.167940824E1
1.854857163E0,7.975950241E0,-1.318050027E0,-5.542050362E0,9.801395836E0
1.856819867E0,6.595950127E0,-1.624050021E0,-3.931950092E0,7.848842467E0
1.858782646E0,5.140050411E0,-1.663050056E0,-2.130000114E0,5.807129601E0
1.860745403E0,3.760050297E0,-1.893000126E0,-5.590500236E-1,4.246641572E0
1.862707080E0,2.610000134E0,-2.008050203E0,9.349500537E-1,3.423229165E0
1.864669084E0,1.690050125E0,-1.969050050E0,1.777950048E0,3.145557804E0
1.866630948E0,8.089500666E-1,-2.046000004E0,2.161050081E0,3.083934772E0
1.868592853E0,-1.099500060E-1,-1.930950046E0,2.200050116E0,2.929313502E0
1.870556085E0,-1.144950032E0,-1.318050027E0,-2.014950037E0,2.666118921E0
1.872518928E0,-1.297950029E0,-1.777950048E0,2.314950228E0,3.194491385E0
1.874482405E0,-1.987950087E0,-1.816050053E0,2.085000038E0,3.405467442E0
1.876445697E0,-2.026050091E0,-1.777950048E0,-1.369500011E-1,2.699025870E0
1.878408378E0,-2.485950232E0,-1.893000126E0,2.449500114E-1,3.134230135E0
1.880371238E0,-2.640000105E0,-2.122950077E0,-3.289500177E-1,3.403634190E0
1.882334171E0,-2.716050148E0,-2.275950193E0,-1.210950017E0,3.744766699E0
1.884297082E0,-2.869950056E0,-2.544000149E0,-9.810000658E-1,3.958650175E0
1.886259887E0,-2.830950022E0,-2.736000061E0,-9.420000315E-1,4.048127767E0
1.888222713E0,-2.640000105E0,-3.118950129E0,-5.970000029E-1,4.129631880E0
1.890184752E0,-2.256000042E0,-3.771000147E0,5.295000225E-2,4.394631043E0
1.892147021E0,-1.489950061E0,-4.690050125E0,6.280500293E-1,4.960944285E0
1.894110055E0,-5.700000525E-1,-6.262050152E0,1.510050058E0,6.466716581E0
1.896072865E0,-3.299999982E-2,-7.297050476E0,2.430000067E0,7.691094524E0
1.898036878E0,4.639500082E-1,-8.293050766E0,3.118950129E0,8.872304691E0
1.900000514E0,1.000050068E0,-9.442950249E0,3.771000147E0,1.021713520E1
1.901963496E0,1.306950092E0,-1.059300041E1,4.231050014E0,1.148135708E1
1.903926670E0,1.459950089E0,-1.178100014E1,3.771000147E0,1.245567584E1
1.905889595E0,1.804950118E0,-1.319895077E1,3.118950129E0,1.368203187E1
1.907852593E0,2.265000105E0,-1.500105095E1,3.081000090E0,1.548077248E1
1.909815518E0,2.725050211E0,-1.664895058E1,3.808950186E0,1.729513098E1
1.911778454E0,4.411950111E0,-1.983000183E1,3.963000298E0,2.069781746E1
1.913741508E0,2.764050245E0,-1.860300064E1,9.060000420E0,2.087570871E1
1.915704528E0,2.917050123E0,-1.975305176E1,6.721950531E0,2.106838518E1
1.917667301E0,2.955000162E0,-2.090295029E1,8.179050446E0,2.263983708E1
1.919630146E0,2.802000046E0,-2.224500084E1,8.409000397E0,2.394582540E1
1.921593267E0,3.913050175E0,-2.404605103E1,6.876000404E0,2.531410502E1
1.923556303E0,5.868000507E0,-2.649900055E1,6.376950264E0,2.788002788E1
1.925520063E0,8.551050186E0,-2.922000122E1,1.777950048E0,3.049737754E1
1.927483610E0,1.088895035E1,-3.190305138E1,-1.363950014E0,3.373772794E1
1.929446292E0,1.280505085E1,-3.477795029E1,-4.852050304E0,3.737669790E1
1.931409228E0,1.460700035E1,-3.765195084E1,-8.838000298E0,4.134179617E1
1.933371987E0,1.610205078E1,-4.052700043E1,-1.021800041E1,4.478974587E1
1.935334785E0,1.725105095E1,-4.324800110E1,-1.424205112E1,4.869111190E1
1.937297369E0,1.732800102E1,-4.577805328E1,-1.642695045E1,5.163075133E1
1.939260016E0,1.633095169E1,-4.757895279E1,-1.830495071E1,5.353062630E1
1.941222626E0,1.560300064E1,-4.968705368E1,-1.911000061E1,5.547476053E1
1.943185247E0,1.686795044E1,-5.290695190E1,-1.803600121E1,5.838639098E1
1.945148045E0,1.583295059E1,-5.509095383E1,-1.957005119E1,6.056964934E1
1.947110788E0,1.360995102E1,-5.654805374E1,-2.094900131E1,6.182049664E1
1.949073697E0,1.150200081E1,-5.739105225E1,-2.267400169E1,6.277052854E1
1.951036558E0,9.624000549E0,-5.804205322E1,-2.447505188E1,6.372228412E1
1.952999672E0,7.899000168E0,-5.827200317E1,-2.524200058E1,6.399358679E1
1.954962711E0,6.328050137E0,-5.880900192E1,-2.600895119E1,6.461430544E1
1.956925416E0,5.140050411E0,-5.972895432E1,-2.508900070E1,6.498789163E1
1.958888233E0,4.564949989E0,-6.068700409E1,-2.336400032E1,6.518916892E1
1.960851354E0,4.909950256E0,-6.187500381E1,-2.022105026E1,6.528027713E1
1.962814385E0,5.523000240E0,-6.264195251E1,-1.577505112E1,6.483340176E1
1.964777291E0,5.752950191E0,-6.302505112E1,-1.048605061E1,6.414990851E1
1.966740233E0,5.254950047E0,-6.291000366E1,-4.774950027E0,6.330942433E1
1.968702477E0,5.178000450E0,-6.241200256E1,-9.900000691E-2,6.262650839E1
1.970664925E0,5.599950314E0,-6.164505386E1,4.000950336E0,6.202805585E1
1.972628109E0,5.791050434E0,-6.053400421E1,7.603950500E0,6.128394565E1
1.974591077E0,5.446050167E0,-5.857905197E1,9.942000389E0,5.966580398E1
1.976554128E0,5.446050167E0,-5.639400101E1,9.942000389E0,5.752204954E1
1.978517154E0,5.830050468E0,-5.286795425E1,8.370000839E0,5.384298459E1
1.980479949E0,5.485050201E0,-4.796205139E1,6.109050274E0,4.865968192E1
1.982442795E0,3.913050175E0,-4.263495255E1,4.614000320E0,4.306204987E1
1.984405551E0,2.686950207E0,-3.822705078E1,3.655950069E0,3.849536445E1
1.986368334E0,1.459950089E0,-3.416400146E1,2.889000177E0,3.431700413E1
1.988330335E0,4.260000288E-1,-3.052305222E1,2.430000067E0,3.062259122E1
1.990292565E0,-1.870500147E-1,-2.849205208E1,2.275950193E0,2.858342122E1
1.992255840E0,1.189500093E-1,-2.772495079E1,1.893000126E0,2.778975522E1
1.994218802E0,1.960500032E-1,-2.676705170E1,2.046000004E0,2.684584899E1
1.996181720E0,4.050000105E-3,-2.511900139E1,2.620950222E0,2.525536829E1
1.998144651E0,4.639500082E-1,-2.354805183E1,3.541050196E0,2.381732628E1
2.000108112E0,1.269000053E0,-2.212995148E1,4.192950249E0,2.255938708E1
2.002071418E0,1.767000079E0,-2.094105148E1,5.035950184E0,2.161043083E1
2.004034424E0,2.533950090E0,-2.002200127E1,5.725950241E0,2.097827314E1
2.005997541E0,3.184950113E0,-1.952295113E1,6.301050186E0,2.076036515E1
2.007960386E0,3.682950258E0,-1.906305122E1,6.531000137E0,2.048457975E1
2.009923310E0,3.913050175E0,-1.871805000E1,6.913950443E0,2.033420931E1
2.011886277E0,3.913050175E0,-1.825800133E1,7.219950199E0,2.001984653E1
2.013849231E0,3.760050297E0,-1.768395042E1,7.489050388E0,1.956900500E1
2.015812298E0,3.568050146E0,-1.699394989E1,7.795050144E0,1.903386775E1
2.017775322E0,2.992950201E0,-1.626495171E1,8.025000572E0,1.838224793E1
2.019738408E0,2.494950056E0,-1.530705070E1,8.101950645E0,1.749777647E1
2.021701476E0,2.188950062E0,-1.434900093E1,8.332050323E0,1.673643907E1
2.023664240E0,1.920000076E0,-1.358205032E1,8.599950790E0,1.619004771E1
2.025627093E0,1.575000048E0,-1.296900082E1,8.869050026E0,1.579036591E1
2.027589637E0,1.230000019E0,-1.220295048E1,8.830050468E0,1.511273277E1
2.029552261E0,8.089500666E-1,-1.135905075E1,8.869050026E0,1.443407366E1
2.031514154E0,8.100000024E-2,-1.028595066E1,8.562000275E0,1.338339235E1
2.033476261E0,-4.170000255E-1,-9.250950813E0,8.638950348E0,1.266433745E1
2.035439143E0,-9.529500604E-1,-8.101950645E0,8.754000664E0,1.196587839E1
2.037401798E0,-1.605000019E0,-7.027950287E0,8.907000542E0,1.145874203E1
2.039365118E0,-2.218050003E0,-5.839950085E0,8.715000153E0,1.072268579E1
2.041328250E0,-2.830950022E0,-4.651950359E0,8.754000664E0,1.030958039E1
2.043291138E0,-3.214950085E0,-3.616950274E0,8.944950104E0,1.017007206E1
2.045254098E0,-3.712950230E0,-2.697000027E0,9.214050293E0,1.029361605E1
2.047217015E0,-4.326000214E0,-1.701000094E0,9.252000809E0,1.035409089E1
2.049179944E0,-4.594050407E0,-1.126049995E0,9.712050438E0,1.080264835E1
2.051141965E0,-4.939050198E0,-3.979500234E-1,9.903000832E0,1.107348213E1
2.053104252E0,-5.398950100E0,2.140500098E-1,9.903000832E0,1.128113049E1
2.055067463E0,-5.859000206E0,1.210950017E0,1.017195034E1,1.180096848E1
2.057030404E0,-5.782950401E0,1.671000123E0,1.036305046E1,1.198447210E1
2.058993504E0,-5.859000206E0,2.361000061E0,1.070805073E1,1.243239941E1
2.060956558E0,-6.088950157E0,3.241950035E0,1.097700024E1,1.296457050E1
2.062919441E0,-6.280950069E0,4.354050159E0,1.113000011E1,1.350129583E1
2.064882387E0,-6.433950424E0,5.119950294E0,1.204995060E1,1.458804026E1
2.066845485E0,-6.931950092E0,6.193950176E0,1.170495033E1,1.494733465E1
2.068808539E0,-7.392000198E0,7.342950344E0,1.231800079E1,1.613362111E1
2.070771441E0,-7.621950150E0,8.263050079E0,1.235595036E1,1.670453920E1
2.072734387E0,-7.660950184E0,8.838000298E0,1.224105072E1,1.693055610E1
2.074697272E0,-8.274000168E0,9.720000267E0,1.243305016E1,1.781904094E1
2.076660199E0,-8.695050240E0,1.006500053E1,1.251000023E1,1.825946988E1
2.078622986E0,-9.462000847E0,1.056300068E1,1.258605099E1,1.896088402E1
2.080585815E0,-1.022895050E1,1.067805004E1,1.251000023E1,1.936884836E1
2.082548888E0,-1.087995052E1,1.060095024E1,1.231800079E1,1.955726497E1
2.084511890E0,-1.145505047E1,1.029495049E1,1.208805084E1,1.957869148E1
2.086475186E0,-1.195305061E1,9.910950661E0,1.204995060E1,1.965460942E1
2.088438409E0,-1.264305019E1,9.681000710E0,1.224105072E1,2.008511428E1
2.090401776E0,-1.356300068E1,9.681000710E0,1.258605099E1,2.088265887E1
2.092365101E0,-1.475100040E1,9.528000832E0,1.231800079E1,2.145012719E1
2.094328317E0,-1.570905113E1,9.336000443E0,1.204995060E1,2.188918686E1
2.096291565E0,-1.666800117E1,9.220950127E0,1.185795021E1,2.243789579E1
2.098254481E0,-1.747200012E1,8.914950371E0,1.170495033E1,2.284191303E1
2.100217492E0,-1.812405014E1,8.647050858E0,1.155105019E1,2.316634288E1
2.102180400E0,-1.866105080E1,8.340000153E0,1.189605045E1,2.364966037E1
2.104143338E0,-1.885200119E1,8.071949959E0,1.204995060E1,2.378561823E1
2.106106079E0,-1.904400063E1,7.842000484E0,1.239495087E1,2.403759011E1
2.108068877E0,-1.892895126E1,7.612050533E0,1.258605099E1,2.397200844E1
2.110031457E0,-1.858395004E1,7.305000305E0,1.254795074E1,2.358341147E1
2.111994103E0,-1.804695129E1,6.960000515E0,1.277805042E1,2.318216191E1
2.113957028E0,-1.751100159E1,6.615000248E0,1.270095062E1,2.262095382E1
2.115919871E0,-1.678305054E1,6.040050507E0,1.316100025E1,2.216675265E1
2.117882673E0,-1.616895103E1,5.656950474E0,1.335300064E1,2.171954632E1
2.119845488E0,-1.559400082E1,5.311950207E0,1.373595047E1,2.144914944E1
2.121808349E0,-1.524900055E1,5.044050217E0,1.423395061E1,2.146112323E1
2.123771221E0,-1.498095036E1,4.929000378E0,1.434900093E1,2.132176695E1
2.125734198E0,-1.494300079E1,4.929000378E0,1.480905056E1,2.160778323E1
2.127697144E0,-1.505805111E1,5.119950294E0,1.461795044E1,2.160192744E1
2.129660064E0,-1.490505028E1,5.158950329E0,1.473300076E1,2.158324822E1
2.131622992E0,-1.482795048E1,5.274000168E0,1.388895035E1,2.099014376E1
2.133585851E0,-1.456005096E1,5.197050095E0,1.320000076E1,2.032841445E1
2.135548743E0,-1.425300026E1,5.197050095E0,1.197300053E1,1.932640907E1
2.137511851E0,-1.402305031E1,5.158950329E0,1.105305099E1,1.858576457E1
2.139474895E0,-1.367805099E1,5.235000134E0,9.214050293E0,1.730297744E1
2.141437798E0,-1.321800041E1,5.158950329E0,8.217000008E0,1.639662747E1
2.143400743E0,-1.260495090E1,4.966950417E0,6.646050453E0,1.509057224E1
2.145363725E0,-1.187700081E1,4.660050392E0,5.304000378E0,1.381707776E1
2.147326683E0,-1.126305008E1,4.545000076E0,3.579000235E0,1.266185474E1
2.149289735E0,-1.065000057E1,4.507050037E0,2.122950077E0,1.175767533E1
2.151252760E0,-1.003695011E1,4.276950359E0,1.126049995E0,1.096816578E1
2.153216567E0,-9.691950798E0,4.162050247E0,-1.369500011E-1,1.054871214E1
2.155180144E0,-8.964000702E0,3.931950092E0,-1.402050018E0,9.888340830E0
2.157142961E0,-8.542050362E0,3.856050253E0,-2.169000149E0,9.619787398E0
2.159105998E0,-8.005949974E0,3.702000141E0,-3.241950035E0,9.397354950E0
2.161068766E0,-7.621950150E0,3.472050190E0,-3.855000257E0,9.220102146E0
2.163031613E0,-7.239000320E0,3.357000113E0,-4.890000343E0,9.358668642E0
2.164994864E0,-6.778950214E0,3.127050161E0,-5.733000278E0,9.412752037E0
2.166957996E0,-6.549000263E0,2.974050045E0,-6.385050297E0,9.617860750E0
2.168921219E0,-6.204000473E0,2.706000090E0,-6.460950375E0,9.357133006E0
2.170884433E0,-5.706000328E0,2.476050138E0,-6.883050442E0,9.277157292E0
2.172847712E0,-5.208000183E0,2.284050226E0,-7.420050144E0,9.348652068E0
2.174810972E0,-4.863000393E0,2.131050110E0,-7.342950344E0,9.061405363E0
2.176774153E0,-4.671000004E0,1.978050113E0,-7.573050499E0,9.114933743E0
2.178737358E0,-4.555950165E0,1.786050081E0,-7.765050411E0,9.178380287E0
2.180700393E0,-4.096050262E0,1.441050053E0,-7.420050144E0,8.597173788E0
2.182663492E0,-3.790050268E0,1.096050024E0,-6.805950165E0,7.866814116E0
2.184626430E0,-3.483000278E0,8.659500480E-1,-6.805950165E0,7.694291265E0
2.186589415E0,-3.253050089E0,5.590500236E-1,-6.423000336E0,7.221482197E0
2.188552642E0,-2.985000134E0,2.530499995E-1,-6.078000069E0,6.776160043E0
2.190515798E0,-2.716050148E0,-1.500000060E-2,-5.772000313E0,6.379117574E0
2.192479796E0,-2.410050154E0,-2.830500007E-1,-5.311950207E0,5.839972093E0
2.194443524E0,-1.950000048E0,-8.580000401E-1,-5.005050182E0,5.439594799E0
2.196406535E0,-1.528050065E0,-1.393950105E0,-4.392000198E0,4.854657520E0
2.198369757E0,-1.144950032E0,-1.893000126E0,-4.123950005E0,4.679885009E0
2.200332629E0,-8.380500674E-1,-2.428950071E0,-3.664050102E0,4.475197148E0
2.202295603E0,-5.700000525E-1,-3.004050255E0,-3.702000141E0,4.801460511E0
2.204258697E0,-4.930500090E-1,-3.616950274E0,-4.047000408E0,5.450104577E0
2.206221755E0,-5.700000525E-1,-4.153950214E0,-4.813050270E0,6.383232359E0
2.208184656E0,-6.850500107E-1,-4.804950237E0,-6.040050507E0,7.748486976E0
2.210147603E0,-7.999500632E-1,-5.533950329E0,-7.765050411E0,9.568726887E0
2.212110656E0,-6.850500107E-1,-6.568950176E0,-9.106050491E0,1.124902465E1
2.214073678E0,-2.250000089E-1,-7.948050499E0,-1.102200031E1,1.359068146E1
2.216037291E0,7.699500322E-1,-9.405000687E0,-1.140600014E1,1.480350297E1
2.218000741E0,2.035050154E0,-1.086105061E1,-1.017900085E1,1.502384464E1
2.219963755E0,3.415050268E0,-1.220295048E1,-8.799000740E0,1.542715083E1
2.221926897E0,4.335000038E0,-1.335300064E1,-8.185950279E0,1.625129636E1
2.223889963E0,5.560950279E0,-1.438695049E1,-7.189950466E0,1.701775250E1
2.225853051E0,6.750000477E0,-1.542195034E1,-6.040050507E0,1.788522488E1
2.227816144E0,7.861050606E0,-1.634205055E1,-4.237950325E0,1.862307590E1
2.229779223E0,9.163949966E0,-1.722405052E1,-3.433950186E0,1.981004566E1
2.231741579E0,9.969000816E0,-1.783695030E1,-1.861950040E0,2.051839739E1
2.233704147E0,1.069695091E1,-1.822005081E1,7.050000429E-1,2.113982108E1
2.235667355E0,1.119600010E1,-1.860300064E1,3.043050051E0,2.192446589E1
2.237630375E0,1.177005100E1,-1.887195015E1,5.151000023E0,2.283018625E1
2.239593592E0,1.192395020E1,-1.871805000E1,8.254950523E0,2.367889762E1
2.241556755E0,1.173195076E1,-1.841205025E1,1.051695061E1,2.423321095E1
2.243519457E0,1.119600010E1,-1.802805138E1,1.239495087E1,2.457632726E1
2.245482295E0,1.050600052E1,-1.749195099E1,1.408095074E1,2.479148180E1
2.247445592E0,9.547050476E0,-1.657200050E1,1.576800060E1,2.478723898E1
2.249408755E0,8.589000702E0,-1.576695061E1,1.645695114E1,2.435567501E1
2.251371667E0,7.285950184E0,-1.473195076E1,1.599705029E1,2.293514903E1
2.253334632E0,5.905950069E0,-1.377405071E1,1.515405083E1,2.131314092E1
2.255297548E0,4.527000427E0,-1.281600094E1,1.423395061E1,1.968118297E1
2.257260478E0,3.300000191E0,-1.201095104E1,1.300800037E1,1.801002554E1
2.259223444E0,2.149950027E0,-1.135905075E1,1.124505043E1,1.612766190E1
2.261186399E0,1.114950061E0,-1.124400043E1,9.175050735E0,1.455514395E1
2.263148220E0,3.109500110E-1,-1.162800026E1,7.144050121E0,1.365080701E1
2.265110353E0,-7.230000496E-1,-1.178100014E1,5.533950329E0,1.303607685E1
2.267073411E0,-1.950000048E0,-1.181895065E1,4.921050072E0,1.295016712E1
2.269036198E0,-2.830950022E0,-1.250895023E1,3.426000118E0,1.327499871E1
2.270999190E0,-3.253050089E0,-1.415700054E1,3.081000090E0,1.484909293E1
2.272962121E0,-3.598050117E0,-1.657200050E1,3.847950220E0,1.738918877E1
2.274925213E0,-4.402950287E0,-2.040495110E1,3.655950069E0,2.119230925E1
2.276888265E0,-7.047000408E0,-2.396895027E1,2.736000061E0,2.513277717E1
2.278852247E0,-9.960000038E0,-2.565600204E1,-4.237950325E0,2.784586620E1
2.280815957E0,-1.578600121E1,-2.312595177E1,-2.746500206E1,3.922159886E1
2.282779062E0,-8.005949974E0,-2.511900139E1,-1.594050050E0,2.641212716E1
2.284742344E0,-4.555950165E0,-2.615400124E1,-5.197050095E0,2.705176135E1
2.286704358E0,-4.633050442E0,-2.534895134E1,-7.890000343E-1,2.578094280E1
2.288666737E0,-3.675000191E0,-2.638395119E1,4.078050137E0,2.694900739E1
2.290630068E0,-5.169000149E0,-2.623095131E1,2.659050226E0,2.686730201E1
2.292593120E0,-6.166050434E0,-2.680500221E1,1.663050056E0,2.755529091E1
2.294556246E0,-7.392000198E0,-2.761005211E1,1.126049995E0,2.860462608E1
2.296519351E0,-8.464950562E0,-2.887500191E1,1.279950023E0,3.011742677E1
2.298482199E0,-8.695050240E0,-2.918205070E1,1.126049995E0,3.047070676E1
2.300445122E0,-7.852050304E0,-2.757195091E1,7.050000429E-1,2.867689307E1
2.302408810E0,-6.664050102E0,-2.511900139E1,5.295000225E-2,2.598800874E1
2.304372274E0,-5.208000183E0,-2.278095055E1,-1.555950046E0,2.342041747E1
2.306335241E0,-3.598050117E0,-2.105595016E1,-3.739950180E0,2.168608377E1
2.308298353E0,-1.911000133E0,-2.021295166E1,-4.736999989E0,2.084836937E1
2.310261672E0,-3.400500119E-1,-2.002200127E1,-5.503050327E0,2.076727550E1
2.312224913E0,8.470500112E-1,-2.013600159E1,-5.772000313E0,2.096406548E1
2.314188098E0,1.575000048E0,-2.032800102E1,-4.315050125E0,2.084053522E1
2.316151300E0,1.882050037E0,-2.036595154E1,-1.708950043E0,2.052400070E1
2.318113139E0,1.882050037E0,-2.013600159E1,7.429500222E-1,2.023740712E1
2.320075377E0,1.459950089E0,-1.948500061E1,2.889000177E0,1.975203850E1
2.322038421E0,1.153950095E0,-1.887195015E1,4.537950039E0,1.944415320E1
2.324001226E0,1.114950061E0,-1.856505013E1,5.917050362E0,1.951706138E1
2.325963945E0,1.345050097E0,-1.883295059E1,6.952050209E0,2.012014388E1
2.327926689E0,1.767000079E0,-1.845000076E1,8.025000572E0,2.019716444E1
2.329889507E0,2.494950056E0,-1.822005081E1,9.214050293E0,2.056924282E1
2.331852303E0,3.147000074E0,-1.779900169E1,1.151295090E1,2.143026153E1
2.333815253E0,3.798000097E0,-1.756905174E1,1.388895035E1,2.271561854E1
2.335778154E0,4.450050354E0,-1.726200104E1,1.526895046E1,2.347169521E1
2.337741037E0,5.025000095E0,-1.714695168E1,1.572900105E1,2.380483253E1
2.339703925E0,5.905950069E0,-1.729995155E1,1.630395126E1,2.449464016E1
2.341666853E0,6.787950516E0,-1.760700035E1,1.653404999E1,2.508899246E1
2.343629769E0,7.938000202E0,-1.795200157E1,1.634205055E1,2.554112026E1
2.345592733E0,8.857950211E0,-1.814295006E1,1.592100048E1,2.571202394E1
2.347555687E0,9.931050301E0,-1.856505013E1,1.530795097E1,2.603113922E1
2.349518561E0,1.085100079E1,-1.898700142E1,1.492395115E1,2.647592791E1
2.351481459E0,1.127205086E1,-1.940805054E1,1.507800102E1,2.703844801E1
2.353444251E0,1.203900051E1,-2.013600159E1,1.546095085E1,2.809692322E1
2.355407074E0,1.253700066E1,-2.098005104E1,1.515405083E1,2.875733269E1
2.357369986E0,1.226895046E1,-2.140095139E1,1.369800091E1,2.821636218E1
2.359332859E0,1.207695103E1,-2.182305145E1,1.082295036E1,2.718886859E1
2.361295612E0,1.230705070E1,-2.212995148E1,8.791950226E0,2.680478760E1
2.363258400E0,1.280505085E1,-2.235900116E1,8.025000572E0,2.698693933E1
2.365221030E0,1.345695019E1,-2.243595123E1,6.913950443E0,2.706037928E1
2.367183707E0,1.387905025E1,-2.224500084E1,5.419050217E0,2.677375961E1
2.369147564E0,1.418505096E1,-2.182305145E1,2.545050144E0,2.615221837E1
2.371111081E0,1.407000065E1,-2.117100143E1,-6.360000372E-1,2.542795147E1
2.373074038E0,1.357200050E1,-2.040495110E1,-2.859000206E0,2.467255781E1
2.375037160E0,1.295895100E1,-2.029005051E1,-5.082000256E0,2.460583848E1
2.377000229E0,1.200000095E1,-2.063505173E1,-4.660050392E0,2.432121404E1
2.378963314E0,1.111905098E1,-2.128605080E1,-1.786050081E0,2.408151216E1
2.380925649E0,1.008405018E1,-2.182305145E1,4.360500276E-1,2.404420476E1
2.382888218E0,8.781000137E0,-2.239800072E1,3.234000206E0,2.427416645E1
2.384851561E0,7.899000168E0,-2.304900169E1,4.461000443E0,2.476996584E1
2.386814677E0,6.787950516E0,-2.327895164E1,5.611050129E0,2.488914915E1
2.388777614E0,5.638050079E0,-2.343300056E1,5.841000080E0,2.479940334E1
2.390740603E0,4.297049999E0,-2.331795120E1,5.304000378E0,2.429658221E1
2.392703469E0,3.070050240E0,-2.301105118E1,3.733050108E0,2.351317392E1
2.394666372E0,1.959000111E0,-2.251305199E1,1.930950046E0,2.268047088E1
2.396629478E0,1.192050099E0,-2.193795013E1,-6.105000153E-2,2.197039751E1
2.398592524E0,5.410500169E-1,-2.147805023E1,-2.284050226E0,2.160593118E1
2.400555427E0,1.960500032E-1,-2.101800156E1,-4.966950417E0,2.159781057E1
2.402518372E0,-3.019500077E-1,-2.063505173E1,-7.573050499E0,2.198289397E1
2.404481350E0,-9.529500604E-1,-2.036595154E1,-1.014105034E1,2.277105614E1
2.406444308E0,-1.911000133E0,-1.998300171E1,-1.213395023E1,2.345644958E1
2.408407406E0,-2.485950232E0,-1.963800049E1,-1.324500084E1,2.381724289E1
2.410370462E0,-2.869950056E0,-1.929300117E1,-1.431900024E1,2.419690632E1
2.412333183E0,-3.138000250E0,-1.929300117E1,-1.516200066E1,2.473768792E1
2.414296002E0,-3.367950201E0,-1.936995125E1,-1.566000080E1,2.513510941E1
2.416258901E0,-3.175950050E0,-1.952295113E1,-1.566000080E1,2.522831553E1
2.418221773E0,-2.908050060E0,-1.967700005E1,-1.512405109E1,2.498755705E1
2.420184885E0,-2.755050182E0,-1.979205132E1,-1.477905083E1,2.485429420E1
2.422147927E0,-2.256000042E0,-1.990695000E1,-1.424205112E1,2.458072852E1
2.424111055E0,-1.911000133E0,-1.994505119E1,-1.343700027E1,2.412488269E1
2.426074158E0,-1.567050099E0,-1.994505119E1,-1.263195038E1,2.366066110E1
2.428036876E0,-1.260000110E0,-1.994505119E1,-1.190400028E1,2.326151092E1
2.429999704E0,-7.620000243E-1,-1.994505119E1,-1.106100082E1,2.281954098E1
2.431962597E0,-6.469500065E-1,-1.979205132E1,-1.063905048E1,2.247961821E1
2.433925471E0,-2.629500031E-1,-1.948500061E1,-1.033305073E1,2.205688847E1
2.435889169E0,1.570500135E-1,-1.929300117E1,-9.873000145E0,2.167304065E1
2.437852625E0,5.410500169E-1,-1.910205078E1,-9.643050194E0,2.140489421E1
2.439815579E0,1.000050068E0,-1.879500008E1,-9.565950394E0,2.111301814E1
2.441778690E0,1.767000079E0,-1.856505013E1,-9.796050072E0,2.106527884E1
2.443741581E0,2.686950207E0,-1.818195152E1,-1.010295010E1,2.097314147E1
2.445704536E0,3.798000097E0,-1.787505150E1,-1.060095024E1,2.112634414E1
2.447667453E0,5.140050411E0,-1.760700035E1,-1.132905006E1,2.155861672E1
2.449630382E0,6.442950249E0,-1.718505096E1,-1.201905060E1,2.193844028E1
2.451593528E0,7.746000290E0,-1.668704987E1,-1.259400082E1,2.229499967E1
2.453556611E0,8.934000015E0,-1.626495171E1,-1.316895103E1,2.275491775E1
2.455519102E0,1.008405018E1,-1.569000053E1,-1.343700027E1,2.298732610E1
2.457481767E0,1.092705059E1,-1.511595058E1,-1.359000111E1,2.307770627E1
2.459444778E0,1.157895088E1,-1.442595100E1,-1.370505047E1,2.302191509E1
2.461407688E0,1.196205044E1,-1.350600052E1,-1.389705086E1,2.277346533E1
2.463371002E0,1.215405083E1,-1.243305016E1,-1.385895061E1,2.223448223E1
2.465334177E0,1.249905014E1,-1.155105019E1,-1.378200054E1,2.189969301E1
2.467297373E0,1.284405041E1,-1.059300041E1,-1.316895103E1,2.122740116E1
2.469260562E0,1.338000107E1,-9.750000000E0,-1.244100094E1,2.070906644E1
2.471223486E0,1.391700077E1,-9.136050224E0,-1.144395065E1,2.020183979E1
2.473186487E0,1.445295048E1,-8.599950790E0,-1.037100029E1,1.975865831E1
2.475149706E0,1.502805042E1,-7.987050533E0,-9.144000053E0,1.931962765E1
2.477112865E0,1.556505108E1,-7.411950588E0,-7.803000450E0,1.892338877E1
2.479075568E0,1.598700047E1,-6.913050175E0,-6.385050297E0,1.855110007E1
2.481038405E0,1.636995125E1,-6.454050541E0,-5.005050182E0,1.829427778E1
2.483001567E0,1.686795044E1,-6.147000313E0,-3.357000113E0,1.826424963E1
2.484964634E0,1.713600159E1,-5.686950207E0,-1.671000123E0,1.813218670E1
2.486926954E0,1.748100090E1,-5.265000343E0,-4.060500264E-1,1.826117460E1
2.488889488E0,1.771095085E1,-4.843950272E0,1.279950023E0,1.840597475E1
2.490852522E0,1.767300034E1,-4.269000053E0,2.620950222E0,1.836923195E1
2.492815409E0,1.767300034E1,-3.655950069E0,3.541050196E0,1.839130089E1
2.494778519E0,1.744305038E1,-3.004050255E0,5.074050426E0,1.841277579E1
2.496741563E0,1.725105095E1,-2.467050076E0,5.841000080E0,1.837940088E1
2.498704425E0,1.713600159E1,-1.816050053E0,6.454050541E0,1.840096075E1
2.500667338E0,1.675304985E1,-1.393950105E0,7.144050121E0,1.826595818E1
2.502630128E0,1.633095169E1,-9.340500236E-1,7.411950588E0,1.795854794E1
2.504592954E0,1.598700047E1,-5.130000114E-1,7.719000340E0,1.776035808E1
2.506554812E0,1.560300064E1,-1.290000081E-1,7.411950588E0,1.727446907E1
2.508516954E0,1.548795033E1,2.140500098E-1,6.531000137E0,1.681000849E1
2.510479980E0,1.529700089E1,7.129500508E-1,6.109050274E0,1.648717772E1
2.512442736E0,1.498995113E1,1.210950017E0,4.653000355E0,1.574215510E1
2.514406048E0,1.464495087E1,1.633050084E0,2.851050138E0,1.500899482E1
2.516369197E0,1.433805084E1,1.824000120E0,1.011000037E0,1.448891989E1
2.518332983E0,1.410795021E1,2.053950071E0,-6.739500165E-1,1.427260238E1
2.520296582E0,1.399305058E1,2.092950106E0,-1.900950074E0,1.427583678E1
2.522259399E0,1.368705082E1,2.245950222E0,-2.896950245E0,1.416940271E1
2.524222439E0,1.322700024E1,2.361000061E0,-3.855000257E0,1.397815737E1
2.526185162E0,1.334205055E1,2.629050016E0,-5.388000488E0,1.462712433E1
2.528147978E0,1.295895100E1,2.896950245E0,-6.307950497E0,1.470091736E1
2.530110784E0,1.261395073E1,3.051000118E0,-6.883050442E0,1.469002172E1
2.532073593E0,1.249905014E1,3.088950157E0,-7.803000450E0,1.505505508E1
2.534037080E0,1.200000095E1,3.051000118E0,-7.495950222E0,1.447404209E1
2.536000365E0,1.265205097E1,2.896950245E0,-7.305000305E0,1.489394991E1
2.537963362E0,1.311195087E1,2.437050104E0,-1.063905048E1,1.706024221E1
2.539926444E0,1.338000107E1,1.786050081E0,-1.152105045E1,1.774680273E1
2.541890060E0,1.360995102E1,9.040500522E-1,-1.224900055E1,1.833265086E1
2.543853519E0,1.353405094E1,-5.295000225E-2,-1.205700016E1,1.812579906E1
2.545816226E0,1.303500080E1,-8.580000401E-1,-1.198095036E1,1.772542190E1
2.547779146E0,1.222995090E1,-1.738950133E0,-1.129095078E1,1.673562715E1
2.549742069E0,1.092705059E1,-2.391000032E0,-1.037100029E1,1.525368686E1
2.551704991E0,9.433050156E0,-2.851050138E0,-9.144000053E0,1.344335000E1
2.553667690E0,7.822950363E0,-3.081000090E0,-7.840950489E0,1.149659160E1
2.555630454E0,6.558000088E0,-3.349050045E0,-6.460950375E0,9.796294253E0
2.557593236E0,5.370000362E0,-3.502050161E0,-4.852050304E0,8.040127572E0
2.559556004E0,4.450050354E0,-3.616950274E0,-3.204000235E0,6.568934079E0
2.561518773E0,3.529950142E0,-3.655950069E0,-1.708950043E0,5.361625608E0
2.563481542E0,2.610000134E0,-3.541050196E0,-2.910000086E-1,4.408607285E0
2.565443276E0,1.729050040E0,-3.426000118E0,1.087950110E0,3.988825177E0
2.567405313E0,5.790000558E-1,-3.042000055E0,1.279950023E0,3.350712978E0
2.569367446E0,-1.480500102E-1,-2.736000061E0,6.280500293E-1,2.811060650E0
2.571329547E0,-7.999500632E-1,-2.697000027E0,4.345950127E0,5.176969360E0
2.573292296E0,-1.297950029E0,-2.581950188E0,3.502950191E0,4.541123330E0
2.575254855E0,-1.642950058E0,-2.467050076E0,3.618000269E0,4.677130201E0
2.577217795E0,-2.065050125E0,-2.506050110E0,3.924000263E0,5.093377783E0
2.579180624E0,-2.410050154E0,-2.581950188E0,3.196050167E0,4.763354405E0
2.581143711E0,-2.755050182E0,-2.581950188E0,2.659050226E0,4.618150754E0
2.583106745E0,-3.022950172E0,-2.697000027E0,1.855050087E0,4.455698342E0
2.585070551E0,-3.367950201E0,-2.851050138E0,1.050000072E0,4.535865474E0
2.587034130E0,-3.520950079E0,-3.157050133E0,1.680000126E-1,4.732048077E0
2.588997302E0,-3.598050117E0,-3.502050161E0,-7.890000343E-1,5.082601798E0
2.590960593E0,-3.559950113E0,-3.771000147E0,-1.555950046E0,5.414302121E0
2.592923498E0,-3.367950201E0,-4.231050014E0,-2.206950188E0,5.840847705E0
2.594886516E0,-2.946000099E0,-4.843950272E0,-2.743950129E0,6.298573896E0
2.596849602E0,-2.601000071E0,-5.380050182E0,-2.704950094E0,6.559489031E0
2.598812668E0,-2.179949999E0,-5.839950085E0,-2.322000027E0,6.651983397E0
2.600775747E0,-1.642950058E0,-6.376950264E0,-1.479000092E0,6.749238537E0
2.602738822E0,-1.144950032E0,-7.066950321E0,-3.289500177E-1,7.166652324E0
2.604700999E0,-5.700000525E-1,-7.909950256E0,8.580000401E-1,7.976739759E0
2.606663439E0,-1.480500102E-1,-8.907000542E0,2.275950193E0,9.194374733E0
2.608627345E0,5.020500422E-1,-1.001805019E1,3.733050108E0,1.070275885E1
2.610590822E0,1.153950095E0,-1.116795063E1,4.537950039E0,1.210981885E1
2.612553786E0,1.614000082E0,-1.227900028E1,4.690950394E0,1.324325714E1
2.614516901E0,2.149950027E0,-1.331400108E1,4.384050369E0,1.418114268E1
2.616479791E0,2.686950207E0,-1.450200081E1,4.882050037E0,1.553583411E1
2.618442747E0,3.147000074E0,-1.565205097E1,6.262050152E0,1.714944842E1
2.620405708E0,3.300000191E0,-1.672500038E1,6.837000370E0,1.836736816E1
2.622368668E0,3.376950264E0,-1.764495087E1,7.489050388E0,1.946365741E1
2.624331765E0,3.837000132E0,-1.867995071E1,9.481950760E0,2.129719509E1
2.626294822E0,4.795050144E0,-2.013600159E1,7.719000340E0,2.209149230E1
2.628257723E0,5.830050468E0,-2.163105011E1,6.837000370E0,2.342298852E1
2.630220670E0,7.018050194E0,-2.339400101E1,6.031950474E0,2.515783652E1
2.632184850E0,9.241050720E0,-2.557905197E1,2.238000154E0,2.728907406E1
2.634148668E0,1.222995090E1,-2.864505196E1,-8.269500136E-1,3.115757608E1
2.636111934E0,1.556505108E1,-3.240105057E1,-5.388000488E0,3.634734436E1
2.638075362E0,1.614000130E1,-3.358905029E1,-3.357000113E0,3.741648555E1
2.640038414E0,1.928295135E1,-3.749895096E1,-9.259050369E0,4.317098041E1
2.642001583E0,2.227200127E1,-4.071795273E1,-1.129095078E1,4.776483313E1
2.643964644E0,2.273205185E1,-4.378500366E1,-1.554495049E1,5.172541167E1
2.645927737E0,2.411205101E1,-4.685100174E1,-1.788300133E1,5.564358997E1
2.647890766E0,2.575995064E1,-5.033895111E1,-1.849605179E1,5.949528542E1
2.649853814E0,2.702505112E1,-5.340495300E1,-1.976100159E1,6.303125873E1
2.651816876E0,2.679495049E1,-5.612595367E1,-2.010600090E1,6.536316485E1
2.653779947E0,2.591295052E1,-5.827200317E1,-2.252100182E1,6.763359284E1
2.655742846E0,2.449500084E1,-5.988195419E1,-2.558700180E1,6.957404807E1
2.657705795E0,2.299995041E1,-6.091695404E1,-2.715795135E1,7.055088469E1
2.659668578E0,2.215695190E1,-6.222000122E1,-2.930505180E1,7.225679989E1
2.661631410E0,2.131395149E1,-6.390705490E1,-2.968800163E1,7.361911189E1
2.663594634E0,2.085405159E1,-6.582300568E1,-2.965005112E1,7.514442810E1
2.665557764E0,2.031795120E1,-6.758595276E1,-2.604705048E1,7.522718252E1
2.667520653E0,1.912905121E1,-6.900405121E1,-1.876500130E1,7.402435381E1
2.669483612E0,1.614000130E1,-6.988605499E1,-1.094595051E1,7.255600703E1
2.671445808E0,1.249905014E1,-6.980895233E1,-3.702000141E0,7.101563831E1
2.673408228E0,8.589000702E0,-6.885105133E1,1.855050087E0,6.940950521E1
2.675370366E0,3.645000219E0,-6.658995056E1,4.345950127E0,6.683109175E1
2.677332597E0,-2.218050003E0,-6.325500488E1,4.345950127E0,6.344290875E1
2.679295458E0,-6.625950336E0,-5.957595444E1,3.694050074E0,6.005700268E1
2.681258134E0,-9.499950409E0,-5.608800125E1,3.463950157E0,5.699220905E1
2.683221099E0,-1.191495037E1,-5.260005188E1,2.965950251E0,5.401414964E1
2.685183980E0,-1.333305073E1,-4.926495361E1,2.583000183E0,5.110262015E1
2.687147072E0,-1.360095024E1,-4.497300339E1,2.008050203E0,4.702753605E1
2.689110115E0,-1.176195049E1,-4.021995163E1,2.161050081E0,4.196019692E1
2.691073154E0,-1.011405087E1,-3.558300018E1,3.388050079E0,3.714731229E1
2.693036194E0,-8.158950806E0,-3.320595169E1,3.963000298E0,3.442250829E1
2.694998962E0,-6.586950302E0,-3.228600311E1,4.461000443E0,3.325168321E1
2.696961809E0,-5.821050167E0,-3.098295212E1,5.035950184E0,3.192473557E1
2.698924550E0,-5.437950134E0,-2.891400146E1,5.649000168E0,2.995833749E1
2.700887333E0,-5.245950222E0,-2.661405182E1,6.031950474E0,2.778870588E1
2.702850279E0,-4.210950375E0,-2.381595039E1,6.568950176E0,2.506157822E1
2.704813177E0,-3.904950142E0,-2.113305092E1,7.144050121E0,2.264711745E1
2.706776104E0,-3.904950142E0,-1.914000130E1,7.527000427E0,2.093427860E1
2.708739023E0,-3.981000185E0,-1.756905174E1,7.719000340E0,1.959854351E1
2.710702053E0,-3.291000128E0,-1.626495171E1,7.603950500E0,1.825375027E1
2.712665071E0,-2.065050125E0,-1.542195034E1,7.411950588E0,1.723479028E1
2.714628744E0,-5.320500135E-1,-1.534605026E1,8.101950645E0,1.736162262E1
2.716592225E0,9.619500637E-1,-1.534605026E1,8.179050446E0,1.741618422E1
2.718554468E0,1.804950118E0,-1.526895046E1,7.719000340E0,1.720411751E1
2.720517073E0,2.380050182E0,-1.515405083E1,6.991050243E0,1.685777799E1
2.722480045E0,2.533950090E0,-1.500105095E1,6.339000225E0,1.648136391E1
2.724442913E0,2.533950090E0,-1.484700108E1,5.686950207E0,1.609955734E1
2.726406026E0,2.149950027E0,-1.442595100E1,5.380950451E0,1.554622061E1
2.728369067E0,1.767000079E0,-1.396605110E1,5.188950062E0,1.500326882E1
2.730331971E0,1.306950092E0,-1.331400108E1,5.380950451E0,1.441961758E1
2.732294915E0,1.039050102E0,-1.281600094E1,5.649000168E0,1.404424110E1
2.734256753E0,8.089500666E-1,-1.296900082E1,5.764050484E0,1.421526153E1
2.736218915E0,1.570500135E-1,-1.155105019E1,7.182000160E0,1.360266707E1
2.738181832E0,-2.629500031E-1,-1.086105061E1,7.105050564E0,1.298126752E1
2.740144528E0,-9.529500604E-1,-9.750000000E0,7.374000549E0,1.226158627E1
2.742107265E0,-1.642950058E0,-8.599950790E0,7.680000305E0,1.164649489E1
2.744069990E0,-2.256000042E0,-7.527000427E0,7.719000340E0,1.101490980E1
2.746032623E0,-2.869950056E0,-6.492000103E0,7.527000427E0,1.034593708E1
2.747995290E0,-3.520950079E0,-5.341950417E0,7.335000515E0,9.733229488E0
2.749957896E0,-4.057950020E0,-4.575000286E0,7.182000160E0,9.432852818E0
2.751920520E0,-4.363950253E0,-4.077000141E0,7.335000515E0,9.458764428E0
2.753883313E0,-4.786050320E0,-3.157050133E0,7.335000515E0,9.309966475E0
2.755846057E0,-5.323050022E0,-2.161050081E0,7.335000515E0,9.317039849E0
2.757808996E0,-5.821050167E0,-1.087950110E0,7.297050476E0,9.397617046E0
2.759771888E0,-6.280950069E0,-3.210000098E-1,7.411950588E0,9.720616560E0
2.761733511E0,-6.625950336E0,3.679500222E-1,7.489050388E0,1.000622210E1
2.763695505E0,-7.009050369E0,1.096050024E0,7.219950199E0,1.012204493E1
2.765658587E0,-7.276950359E0,1.939050078E0,7.219950199E0,1.043271789E1
2.767621350E0,-7.201050282E0,2.629050016E0,7.527000427E0,1.074349871E1
2.769584140E0,-7.239000320E0,3.472050190E0,7.948950291E0,1.129796747E1
2.771546908E0,-7.315950394E0,4.354050159E0,8.293950081E0,1.188572635E1
2.773510038E0,-7.431000233E0,5.274000168E0,8.715000153E0,1.260896784E1
2.775473062E0,-7.354050159E0,6.309000492E0,8.715000153E0,1.303214367E1
2.777436148E0,-7.201050282E0,7.267050266E0,9.060000420E0,1.366560472E1
2.779399216E0,-7.315950394E0,8.302050591E0,8.791950226E0,1.413313705E1
2.781362100E0,-7.507050514E0,9.067950249E0,8.562000275E0,1.455648920E1
2.783325049E0,-7.929000378E0,9.030000687E0,8.638950348E0,1.480004806E1
2.785287967E0,-8.311950684E0,9.412950516E0,8.446949959E0,1.513417078E1
2.787250895E0,-8.619000435E0,1.067805004E1,8.409000397E0,1.609407372E1
2.789213637E0,-9.079050064E0,1.155900097E1,8.293950081E0,1.687688542E1
2.791176434E0,-9.691950798E0,1.198095036E1,8.064000130E0,1.739267604E1
2.793139184E0,-1.034400082E1,1.213395023E1,8.179050446E0,1.792004373E1
2.795101958E0,-1.107195091E1,1.221105099E1,8.025000572E0,1.833298932E1
2.797064546E0,-1.172295094E1,1.209600067E1,7.948950291E0,1.862596633E1
2.799027189E0,-1.233705044E1,1.190400028E1,8.140049934E0,1.897810447E1
2.800989979E0,-1.283505058E1,1.171305084E1,8.332050323E0,1.927062910E1
2.802952725E0,-1.329495049E1,1.132905006E1,8.370000839E0,1.936904742E1
2.804915319E0,-1.360095024E1,1.087005043E1,8.638950348E0,1.943644275E1
2.806877958E0,-1.375500107E1,1.041000080E1,8.715000153E0,1.932664996E1
2.808840749E0,-1.390800095E1,9.835050583E0,8.944950104E0,1.923987637E1
2.810803495E0,-1.371600056E1,9.183000565E0,8.869050026E0,1.873809539E1
2.812766089E0,-1.333305073E1,8.493000031E0,8.830050468E0,1.810721079E1
2.814728727E0,-1.279695034E1,7.879950523E0,9.022050858E0,1.752863257E1
2.816691344E0,-1.210695076E1,7.113000393E0,8.907000542E0,1.662852038E1
2.818653963E0,-1.137795067E1,6.538950443E0,8.677050591E0,1.573235015E1
2.820616397E0,-1.061205006E1,5.964000225E0,8.599950790E0,1.490449793E1
2.822578886E0,-9.769050598E0,5.427000046E0,8.332050323E0,1.393950292E1
2.824541703E0,-9.117000580E0,4.929000378E0,7.948950291E0,1.306141474E1
2.826504423E0,-8.389050484E0,4.468950272E0,7.872000217E0,1.234163976E1
2.828467080E0,-7.813950539E0,3.970950127E0,7.564950466E0,1.157820122E1
2.830429746E0,-7.239000320E0,3.511050224E0,7.450050354E0,1.096511968E1
2.832392353E0,-6.856050491E0,3.166050196E0,7.297050476E0,1.050124982E1
2.834354977E0,-6.433950424E0,2.821050167E0,7.411950588E0,1.021229914E1
2.836317770E0,-6.013050079E0,2.590950012E0,7.411950588E0,9.889732289E0
2.838280514E0,-5.974050522E0,2.284050226E0,7.756950378E0,1.005367815E1
2.840243276E0,-6.204000473E0,2.131050110E0,7.909950256E0,1.027610381E1
2.842206010E0,-6.280950069E0,1.939050078E0,8.025000572E0,1.037356656E1
2.844168785E0,-6.319050312E0,1.708950043E0,8.254950523E0,1.053542193E1
2.846131547E0,-6.433950424E0,1.633050084E0,8.599950790E0,1.086378038E1
2.848094498E0,-6.472050190E0,1.518000126E0,8.983950615E0,1.117600674E1
2.850057393E0,-6.549000263E0,1.288050056E0,9.367050171E0,1.150174362E1
2.852020202E0,-6.778950214E0,1.326000094E0,9.442950249E0,1.169964750E1
2.853983025E0,-6.741000175E0,1.210950017E0,9.673050880E0,1.185223172E1
2.855945785E0,-6.778950214E0,1.326000094E0,9.060000420E0,1.139280694E1
2.857908564E0,-6.586950302E0,1.210950017E0,9.098999977E0,1.129805801E1
2.859871466E0,-6.664050102E0,1.249050021E0,8.179050446E0,1.062386728E1
2.861834331E0,-6.357000351E0,1.249050021E0,7.564950466E0,9.959922438E0
2.863797309E0,-6.433950424E0,1.555950046E0,6.262050152E0,9.112078287E0
2.865760254E0,-6.280950069E0,1.633050084E0,5.151000023E0,8.285528806E0
2.867723129E0,-6.280950069E0,1.708950043E0,3.847950220E0,7.561584815E0
2.869686025E0,-6.241950512E0,1.824000120E0,2.506050110E0,6.969161340E0
2.871649718E0,-6.127950191E0,2.053950071E0,1.240950108E0,6.581066905E0
2.873613177E0,-5.974050522E0,2.131050110E0,2.070000172E-1,6.346140813E0
2.875576344E0,-5.935950279E0,2.322000027E0,-1.171950102E0,6.480791378E0
2.877539583E0,-5.668050289E0,2.398950100E0,-1.861950040E0,6.430288766E0
2.879502136E0,-5.514000416E0,2.361000061E0,-2.704950094E0,6.579914656E0
2.881464890E0,-5.245950222E0,2.169000149E0,-3.472050190E0,6.654298453E0
2.883427796E0,-5.131050110E0,2.131050110E0,-3.970050097E0,6.828641708E0
2.885390658E0,-4.978050232E0,2.092950106E0,-4.698000431E0,7.157697417E0
2.887353472E0,-4.786050320E0,1.863000035E0,-4.660050392E0,6.934920075E0
2.889316290E0,-4.708950043E0,1.786050081E0,-4.927950382E0,7.046196163E0
2.891279410E0,-4.708950043E0,1.786050081E0,-5.542050362E0,7.488558447E0
2.893242442E0,-4.939050198E0,1.708950043E0,-5.427000046E0,7.534391588E0
2.895205167E0,-5.053950310E0,1.633050084E0,-5.427000046E0,7.593523280E0
2.897167982E0,-5.361000061E0,1.633050084E0,-5.311950207E0,7.721657156E0
2.899131117E0,-5.553000450E0,1.671000123E0,-5.082000256E0,7.710692706E0
2.901094148E0,-5.668050289E0,1.594050050E0,-4.774950027E0,7.580761004E0
2.903056829E0,-5.782950401E0,1.363950014E0,-4.698000431E0,7.574568175E0
2.905019612E0,-5.821050167E0,1.096050024E0,-4.123950005E0,7.217542126E0
2.906982423E0,-5.859000206E0,8.280000687E-1,-3.970050097E0,7.125641395E0
2.908945225E0,-5.553000450E0,3.679500222E-1,-3.204000235E0,6.421590046E0
2.910909075E0,-5.476050377E0,-5.295000225E-2,-2.743950129E0,6.125291319E0
2.912872615E0,-5.398950100E0,-2.059500068E-1,-2.398950100E0,5.911517501E0
2.914835253E0,-5.437950134E0,-5.509500504E-1,-1.708950043E0,5.726723135E0
2.916798155E0,-5.398950100E0,-1.164000034E0,-1.632000089E0,5.759078273E0
2.918761037E0,-5.245950222E0,-1.816050053E0,-1.824000120E0,5.843372995E0
2.920723925E0,-5.323050022E0,-2.428950071E0,-2.092050076E0,6.213801856E0
2.922686523E0,-5.398950100E0,-3.118950129E0,-1.939050078E0,6.529657517E0
2.924649217E0,-5.859000206E0,-3.732000113E0,-2.437050104E0,7.361720007E0
2.926611819E0,-6.127950191E0,-4.461000443E0,-2.743950129E0,8.061114117E0
2.928574448E0,-6.127950191E0,-5.419050217E0,-3.433950186E0,8.871859595E0
2.930536700E0,-5.782950401E0,-6.454050541E0,-4.047000408E0,9.564282306E0
2.932499063E0,-5.016000271E0,-7.717950344E0,-4.621950150E0,1.029997279E1
2.934461550E0,-3.904950142E0,-8.983050346E0,-5.005050182E0,1.099974347E1
2.936423994E0,-2.793000221E0,-1.013295078E1,-5.388000488E0,1.181135433E1
2.938386639E0,-1.489950061E0,-1.128300095E1,-5.388000488E0,1.259192641E1
2.940349225E0,4.639500082E-1,-1.239405060E1,-4.890000343E0,1.333191071E1
2.942312927E0,2.188950062E0,-1.335300064E1,-4.468050003E0,1.424982805E1
2.944276302E0,4.027950287E0,-1.411905098E1,-3.931950092E0,1.519974393E1
2.946239139E0,5.791050434E0,-1.484700108E1,-2.974050045E0,1.621156007E1
2.948202140E0,7.210050106E0,-1.519200039E1,-2.284050226E0,1.697052102E1
2.950165184E0,8.320950508E0,-1.553700066E1,-1.096050024E0,1.765893350E1
2.952128215E0,9.088050842E0,-1.576695061E1,-8.269500136E-1,1.821738856E1
2.954090039E0,9.700950623E0,-1.553700066E1,1.203000069E0,1.835630795E1
2.956052217E0,9.816000938E0,-1.526895046E1,2.506050110E0,1.832416464E1
2.958014962E0,9.508950233E0,-1.480905056E1,4.039050102E0,1.805663420E1
2.959977533E0,8.781000137E0,-1.419600105E1,5.725950241E0,1.764706535E1
2.961940471E0,7.746000290E0,-1.342905045E1,7.680000305E0,1.730093411E1
2.963903302E0,6.442950249E0,-1.270095062E1,9.481950760E0,1.710944607E1
2.965865927E0,5.178000450E0,-1.208805084E1,1.066995049E1,1.693459492E1
2.967828612E0,3.874950171E0,-1.139805031E1,1.086195087E1,1.621458499E1
2.969791394E0,2.533950090E0,-1.093800068E1,1.024800014E1,1.520139036E1
2.971754148E0,1.422000051E0,-1.070805073E1,9.367050171E0,1.429776428E1
2.973716200E0,6.550500393E-1,-1.070805073E1,7.834050179E0,1.328396715E1
2.975678458E0,4.200000316E-2,-1.109100056E1,6.339000225E0,1.277477911E1
2.977641314E0,-3.400500119E-1,-1.174305058E1,4.882050037E0,1.272199998E1
2.979603995E0,-5.700000525E-1,-1.304595089E1,3.771000147E0,1.359198943E1
2.981566734E0,-6.850500107E-1,-1.526895046E1,3.388050079E0,1.565531939E1
2.983529456E0,-7.230000496E-1,-1.829700089E1,3.655950069E0,1.867267901E1
2.985492234E0,-1.106999993E0,-2.105595016E1,4.116000175E0,2.148301524E1
2.987454995E0,-1.260000110E0,-2.450595093E1,5.686950207E0,2.518870052E1
2.989417811E0,-2.448000193E0,-2.676705170E1,-8.659500480E-1,2.689270591E1
2.991380610E0,-3.061050177E0,-2.554095078E1,1.893000126E0,2.579328680E1
2.993343554E0,-2.332950115E0,-2.538705063E1,5.899500251E-1,2.550084385E1
2.995306456E0,-1.987950087E0,-2.423805046E1,3.963000298E0,2.464021930E1
2.997269204E0,-1.413000107E0,-2.477400208E1,5.686950207E0,2.545759515E1
2.999231997E0,-1.605000019E0,-2.638395119E1,6.339000225E0,2.718219692E1
3.001194941E0,-2.448000193E0,-2.718900108E1,7.756950378E0,2.837965405E1
3.003157841E0,-3.865950108E0,-2.826195145E1,7.144050121E0,2.940613749E1
3.005121313E0,-4.978050232E0,-2.956500053E1,5.112000465E0,3.041385851E1
3.007084614E0,-5.437950134E0,-3.086805153E1,-6.739500165E-1,3.135063182E1
3.009047293E0,-5.514000416E0,-3.228600311E1,-4.047000408E0,3.300255157E1
3.011010154E0,-5.437950134E0,-3.220995331E1,-4.009050369E0,3.291086262E1
3.012972187E0,-5.208000183E0,-2.845395088E1,2.449500114E-1,2.892767857E1
3.014934462E0,-4.057950020E0,-2.511900139E1,7.144050121E0,2.642855731E1
3.016898036E0,-2.985000134E0,-2.519595146E1,-8.071050644E0,2.662495173E1
3.018861229E0,-2.256000042E0,-2.366295052E1,-6.040050507E0,2.452563910E1
3.020823927E0,-1.375050068E0,-2.270400047E1,-6.652950287E0,2.369861067E1
3.022786770E0,-6.469500065E-1,-2.220600128E1,-7.458000183E0,2.343388154E1
3.024750382E0,8.100000024E-2,-2.193795013E1,-7.036050320E0,2.303879817E1
3.026713768E0,7.320000529E-1,-2.163105011E1,-5.197050095E0,2.225864961E1
3.028676805E0,1.153950095E0,-2.128605080E1,-3.855000257E0,2.166306964E1
3.030639968E0,1.114950061E0,-2.078805161E1,-1.555950046E0,2.087599539E1
3.032601903E0,9.240000248E-1,-1.998300171E1,8.200500607E-1,2.002115420E1
3.034564198E0,7.699500322E-1,-1.917795181E1,2.545050144E0,1.936140333E1
3.036526913E0,6.550500393E-1,-1.848795128E1,4.116000175E0,1.895190994E1
3.038489504E0,9.240000248E-1,-1.772205162E1,5.188950062E0,1.848918853E1
3.040452278E0,1.384050012E0,-1.710900116E1,6.607050419E0,1.839256998E1
3.042414985E0,1.959000111E0,-1.664895058E1,8.025000572E0,1.858563615E1
3.044377405E0,2.304000139E0,-1.634205055E1,9.597000122E0,1.909118761E1
3.046339910E0,2.457000017E0,-1.622700119E1,1.116795063E1,1.985133592E1
3.048302364E0,2.686950207E0,-1.615005112E1,1.231800079E1,2.048846007E1
3.050264833E0,3.147000074E0,-1.611194992E1,1.327605057E1,2.111284108E1
3.052227528E0,3.837000132E0,-1.607400131E1,1.400400066E1,2.166121240E1
3.054190149E0,4.450050354E0,-1.603499985E1,1.492395115E1,2.235281830E1
3.056152719E0,5.215950012E0,-1.607400131E1,1.534605026E1,2.282719675E1
3.058115304E0,6.021000385E0,-1.630395126E1,1.649595070E1,2.396221321E1
3.060078149E0,6.634950161E0,-1.657200050E1,1.653404999E1,2.433163729E1
3.062040918E0,7.285950184E0,-1.695495033E1,1.672605133E1,2.490614792E1
3.064004029E0,8.244000435E0,-1.753005028E1,1.733895111E1,2.599818131E1
3.065967053E0,9.586050034E0,-1.829700089E1,1.787595177E1,2.731706881E1
3.067930094E0,1.077405071E1,-1.902495003E1,1.776105118E1,2.816884505E1
3.069893130E0,1.134900093E1,-1.960005188E1,1.615095139E1,2.781753200E1
3.071856080E0,1.192395020E1,-2.036595154E1,1.503900051E1,2.798435468E1
3.073819055E0,1.257495022E1,-2.090295029E1,1.404300022E1,2.814726557E1
3.075781939E0,1.315005016E1,-2.132505035E1,1.300800037E1,2.822923424E1
3.077744839E0,1.384005070E1,-2.174595070E1,1.277805042E1,2.876998345E1
3.079707765E0,1.426200104E1,-2.190000153E1,1.247100067E1,2.895756547E1
3.081670683E0,1.464495087E1,-2.190000153E1,1.013295078E1,2.822696130E1
3.083633787E0,1.468305111E1,-2.159295082E1,6.568950176E0,2.692579844E1
3.085596837E0,1.422300053E1,-2.151600075E1,3.771000147E0,2.606630918E1
3.087559904E0,1.395495033E1,-2.190000153E1,2.889000177E0,2.612847159E1
3.089522976E0,1.368705082E1,-2.262795067E1,3.771000147E0,2.671291736E1
3.091485875E0,1.334205055E1,-2.347095108E1,4.345950127E0,2.734562378E1
3.093448824E0,1.265205097E1,-2.416095161E1,4.308000088E0,2.761131727E1
3.095411562E0,1.188495064E1,-2.442900085E1,4.000950336E0,2.745971118E1
3.097374362E0,1.127205086E1,-2.477400208E1,4.078050137E0,2.752164243E1
3.099337471E0,1.085100079E1,-2.485095024E1,3.081000090E0,2.729114339E1
3.101300500E0,1.023705006E1,-2.469705200E1,1.585950017E0,2.678165060E1
3.103264532E0,9.624000549E0,-2.412300110E1,-2.140500098E-1,2.597280089E1
3.105228270E0,8.973000526E0,-2.339400101E1,-2.974050045E0,2.523170615E1
3.107191234E0,7.899000168E0,-2.243595123E1,-5.350050449E0,2.438009744E1
3.109154425E0,6.750000477E0,-2.151600075E1,-7.458000183E0,2.375126442E1
3.111117257E0,5.407950401E0,-2.078805161E1,-9.259050369E0,2.339057568E1
3.113080195E0,4.372950077E0,-2.036595154E1,-1.048605061E1,2.332063318E1
3.115042980E0,3.300000191E0,-2.013600159E1,-1.144395065E1,2.339471239E1
3.117005810E0,2.265000105E0,-2.009805107E1,-1.155900097E1,2.329532970E1
3.118967983E0,1.153950095E0,-2.013600159E1,-1.186605072E1,2.340071196E1
3.120930349E0,4.050000105E-3,-2.021295166E1,-1.236405087E1,2.369458134E1
3.122893346E0,-8.770500422E-1,-2.029005051E1,-1.286205101E1,2.403929538E1
3.124856173E0,-1.567050099E0,-2.032800102E1,-1.290105057E1,2.412717093E1
3.126818978E0,-2.371050119E0,-2.044305038E1,-1.270905018E1,2.418801654E1
3.128781790E0,-2.946000099E0,-2.074995041E1,-1.247895050E1,2.439187496E1
3.130744866E0,-2.985000134E0,-2.128605080E1,-1.209600067E1,2.466413219E1
3.132707865E0,-3.367950201E0,-2.170800018E1,-1.182705021E1,2.494913780E1
3.134670433E0,-3.291000128E0,-2.224500084E1,-1.163595009E1,2.531928274E1
3.136633147E0,-3.751050234E0,-2.251305199E1,-1.132905006E1,2.548048789E1
3.138596240E0,-4.057950020E0,-2.258895111E1,-1.109895039E1,2.549341818E1
3.140559222E0,-4.326000214E0,-2.258895111E1,-1.086900043E1,2.543836002E1
3.142521956E0,-4.671000004E0,-2.239800072E1,-1.086900043E1,2.533029506E1
3.144484762E0,-4.479000092E0,-2.247405052E1,-1.094595051E1,2.539602767E1
3.146447529E0,-4.326000214E0,-2.239800072E1,-1.113705063E1,2.538540153E1
3.148410305E0,-3.712950230E0,-2.243595123E1,-1.182705021E1,2.563273344E1
3.150373252E0,-2.830950022E0,-2.224500084E1,-1.259400082E1,2.571892682E1
3.152336149E0,-1.528050065E0,-2.228295135E1,-1.359000111E1,2.614484630E1
3.154299843E0,4.639500082E-1,-2.239800072E1,-1.474005032E1,2.681706116E1
3.156263303E0,2.649000168E0,-2.255100060E1,-1.577505112E1,2.764809338E1
3.158225970E0,4.833000183E0,-2.247405052E1,-1.684800148E1,2.850080686E1
3.160188858E0,6.826050282E0,-2.224500084E1,-1.761495018E1,2.918426793E1
3.162151786E0,8.551050186E0,-2.193795013E1,-1.807500076E1,2.968332475E1
3.164114702E0,9.892050743E0,-2.128605080E1,-1.842000008E1,2.983697420E1
3.166077762E0,1.096605015E1,-2.063505173E1,-1.838100052E1,2.973080550E1
3.168040779E0,1.192395020E1,-1.979205132E1,-1.807500076E1,2.933618135E1
3.170003906E0,1.257495022E1,-1.887195015E1,-1.738500023E1,2.857478099E1
3.171967005E0,1.307400036E1,-1.783695030E1,-1.657995033E1,2.764020685E1
3.173929673E0,1.353405094E1,-1.676399994E1,-1.573695087E1,2.668058942E1
3.175892468E0,1.391700077E1,-1.572900105E1,-1.477905083E1,2.568082412E1
3.177854873E0,1.441500092E1,-1.457895088E1,-1.385895061E1,2.474689016E1
3.179817392E0,1.498995113E1,-1.373595047E1,-1.267095089E1,2.395679375E1
3.181780248E0,1.564200115E1,-1.285395050E1,-1.140600014E1,2.323775124E1
3.183743005E0,1.617794991E1,-1.189605045E1,-1.002600002E1,2.244465985E1
3.185705776E0,1.675304985E1,-1.120605087E1,-8.301000595E0,2.179786380E1
3.187668543E0,1.732800102E1,-1.047795010E1,-6.576000214E0,2.129062790E1
3.189631088E0,1.782600021E1,-9.787950516E0,-5.005050182E0,2.094327544E1
3.191593699E0,1.828605080E1,-9.250950813E0,-3.088950157E0,2.072441453E1
3.193556116E0,1.847805023E1,-8.715000153E0,-1.096050024E0,2.045949397E1
3.195518603E0,1.870800018E1,-8.062950134E0,7.050000429E-1,2.038375483E1
3.197481600E0,1.893795013E1,-7.450050354E0,2.238000154E0,2.047334487E1
3.199444448E0,1.912905121E1,-6.684000492E0,3.771000147E0,2.061108694E1
3.201407384E0,1.916805077E1,-6.070050240E0,5.188950062E0,2.076499176E1
3.203370294E0,1.909095001E1,-5.341950417E0,6.376950264E0,2.082465609E1
3.205332890E0,1.916805077E1,-4.537050247E0,6.913950443E0,2.087586419E1
3.207295588E0,1.889895058E1,-3.847050190E0,7.642050266E0,2.074538648E1
3.209258549E0,1.851600075E1,-3.196050167E0,8.638950348E0,2.068063064E1
3.211221433E0,1.832505035E1,-2.467050076E0,8.944950104E0,2.054034905E1
3.213184318E0,1.805595016E1,-1.624050021E0,8.791950226E0,2.014828190E1
3.215147202E0,1.767300034E1,-8.580000401E-1,8.370000839E0,1.957365625E1
3.217109477E0,1.763505173E1,-2.440500110E-1,7.795050144E0,1.928256769E1
3.219071916E0,1.763505173E1,-1.500000060E-2,7.489050388E0,1.915936195E1
3.221034876E0,1.736595154E1,1.759500057E-1,6.339000225E0,1.848756758E1
3.222997683E0,1.698300171E1,3.679500222E-1,5.496000290E0,1.785395624E1
3.224960491E0,1.694505119E1,6.739500165E-1,3.502950191E0,1.731645543E1
3.226923299E0,1.690605164E1,8.659500480E-1,2.275950193E0,1.708052694E1
3.228886717E0,1.667595100E1,1.210950017E0,1.050000072E0,1.675279803E1
3.230849971E0,1.648500061E1,1.671000123E0,-9.040500522E-1,1.659411923E1
3.232812838E0,1.610205078E1,2.169000149E0,-2.859000206E0,1.649710530E1
3.234775819E0,1.567995071E1,2.437050104E0,-4.736999989E0,1.656017018E1
3.236738956E0,1.522005081E1,2.743950129E0,-7.075050354E0,1.700692643E1
3.238702048E0,1.476000023E1,2.896950245E0,-8.914050102E0,1.748457082E1
3.240665129E0,1.407000065E1,3.127050161E0,-1.021800041E1,1.766779254E1
3.242628209E0,1.357200050E1,3.319050074E0,-1.129095078E1,1.796387654E1
3.244591060E0,1.307400036E1,3.396000147E0,-1.198095036E1,1.805562167E1
3.246553978E0,1.249905014E1,3.702000141E0,-1.293900108E1,1.836705770E1
3.248516901E0,1.196205044E1,3.625950098E0,-1.290105057E1,1.796316427E1
3.250479822E0,1.184700012E1,3.472050190E0,-1.259400082E1,1.763562874E1
3.252442971E0,1.165605068E1,3.319050074E0,-1.140600014E1,1.664260947E1
3.254406053E0,1.131105042E1,3.012000084E0,-1.060095024E1,1.579215476E1
3.256368770E0,1.050600052E1,2.476050138E0,-8.493000031E0,1.373455208E1
3.258331594E0,9.777000427E0,1.708950043E0,-6.346950531E0,1.178108775E1
3.260294173E0,8.781000137E0,7.890000343E-1,-5.119950294E0,1.019521336E1
3.262256824E0,7.285950184E0,2.295000106E-2,-4.353000164E0,8.487296814E0
3.264220334E0,5.983050346E0,-3.589500189E-1,-2.820000172E0,6.624057483E0
3.266183592E0,4.872000217E0,-8.190000653E-1,-1.096050024E0,5.060481487E0
3.268145738E0,3.721950293E0,-1.318050027E0,2.449500114E-1,3.956029621E0
3.270108209E0,2.992950201E0,-1.930950046E0,1.510050058E0,3.868665166E0
3.272070488E0,1.920000076E0,-1.969050050E0,2.545050144E0,3.747110704E0
3.274032824E0,4.260000288E-1,-1.356000066E0,8.200500607E-1,1.640943115E0
3.275995500E0,-1.099500060E-1,-2.008050203E0,2.583000183E0,3.273567560E0
3.277958067E0,-7.999500632E-1,-2.314050198E0,2.812950134E0,3.729267606E0
3.279921051E0,-1.222050071E0,-2.391000032E0,1.432950020E0,3.043621739E0
3.281883913E0,-1.795950055E0,-2.581950188E0,1.356000066E0,3.425002124E0
3.283847703E0,-2.140950203E0,-2.851050138E0,4.750500321E-1,3.596919126E0
3.285811221E0,-2.640000105E0,-2.965950251E0,-6.739500165E-1,4.027489301E0
3.287773878E0,-2.985000134E0,-3.042000055E0,-1.516950130E0,4.523839943E0
3.289736776E0,-3.253050089E0,-3.196050167E0,-2.284050226E0,5.100387925E0
3.291699748E0,-3.559950113E0,-3.310950041E0,-3.165000200E0,5.801108622E0
3.293662698E0,-3.865950108E0,-3.463950157E0,-3.855000257E0,6.465720989E0
3.295625212E0,-4.057950020E0,-3.616950274E0,-4.545000076E0,7.085641350E0
3.297587853E0,-4.134000301E0,-3.808950186E0,-5.158050060E0,7.629124487E0
3.299550527E0,-4.057950020E0,-4.039050102E0,-5.311950207E0,7.810102374E0
