"Time (s)","Acceleration x (m/s^2)","Acceleration y (m/s^2)","Acceleration z (m/s^2)","Absolute acceleration (m/s^2)"
3.714627800E-2,-8.121000290E0,1.240305042E1,1.087950110E0,1.486505772E1
3.910826300E-2,-8.044050217E0,1.263300037E1,1.011000037E0,1.501071495E1
4.107281600E-2,-7.699050426E0,1.278600025E1,8.580000401E-1,1.494969378E1
4.303636100E-2,-7.392000198E0,1.316895103E1,6.280500293E-1,1.511480682E1
4.500020100E-2,-6.931950092E0,1.359105110E1,2.449500114E-1,1.525872218E1
4.696380700E-2,-6.319050312E0,1.393605042E1,9.195000678E-2,1.530203754E1
4.892749300E-2,-5.514000416E0,1.408905029E1,1.500000060E-2,1.512963198E1
5.089087100E-2,-4.939050198E0,1.431900024E1,-1.759500057E-1,1.514790227E1
5.285434000E-2,-4.096050262E0,1.451100063E1,-4.819500148E-1,1.508572315E1
5.481788900E-2,-3.214950085E0,1.462605095E1,-8.659500480E-1,1.500023799E1
5.678141500E-2,-2.677950144E0,1.481700039E1,-9.810000658E-1,1.508897871E1
5.874477600E-2,-2.103000164E0,1.497105026E1,-1.171950102E0,1.516339087E1
6.070818600E-2,-1.567050099E0,1.508595085E1,-1.326000094E0,1.522497407E1
6.267170000E-2,-1.144950032E0,1.520100117E1,-1.402050018E0,1.530839937E1
6.463518400E-2,-9.150000215E-1,1.550700092E1,-1.171950102E0,1.557811830E1
6.659841700E-2,-7.230000496E-1,1.577505112E1,-6.360000372E-1,1.580441277E1
6.856172400E-2,-6.469500065E-1,1.608195114E1,9.195000678E-2,1.609522139E1
7.052418700E-2,-4.549500346E-1,1.631204987E1,8.580000401E-1,1.634093371E1
7.248692100E-2,-1.870500147E-1,1.642695045E1,1.548000097E0,1.650078766E1
7.445077700E-2,4.050000105E-3,1.654200172E1,2.046000004E0,1.666805188E1
7.641430400E-2,4.639500082E-1,1.650405121E1,2.583000183E0,1.671139868E1
7.837856500E-2,9.240000248E-1,1.635000038E1,3.004050255E0,1.664934252E1
8.034261100E-2,1.422000051E0,1.612005043E1,3.426000118E0,1.654132966E1
8.230565800E-2,2.265000105E0,1.550700092E1,3.847950220E0,1.613703889E1
8.426899800E-2,3.184950113E0,1.466400051E1,4.078050137E0,1.555015470E1
8.623225500E-2,4.066950321E0,1.370595074E1,3.963000298E0,1.483571845E1
8.819553600E-2,4.909950256E0,1.263300037E1,3.847950220E0,1.408925232E1
9.015889300E-2,5.599950314E0,1.152105045E1,3.886050224E0,1.338638986E1
9.212222700E-2,6.250950336E0,1.033305073E1,4.231050014E0,1.279640972E1
9.408540200E-2,6.634950161E0,9.298050880E0,4.768050194E0,1.237782761E1
9.604865100E-2,6.826050282E0,8.148000717E0,5.419050217E0,1.193109313E1
9.801187900E-2,7.018050194E0,6.997950554E0,6.109050274E0,1.164237243E1
9.997511300E-2,7.056000233E0,6.001950264E0,6.568950176E0,1.135612842E1
1.019382080E-1,6.787950516E0,5.082000256E0,6.684000492E0,1.079716914E1
1.039013440E-1,6.405000210E0,4.392000198E0,6.531000137E0,1.014729798E1
1.058645400E-1,5.905950069E0,3.817050219E0,6.223950386E0,9.390829410E0
1.078277210E-1,5.485050201E0,3.319050074E0,5.917050362E0,8.724296767E0
1.097908260E-1,5.215950012E0,2.821050167E0,5.725950241E0,8.243237516E0
1.117539540E-1,5.025000095E0,2.361000061E0,5.380950451E0,7.731725228E0
1.137169770E-1,4.987050056E0,1.863000035E0,5.227050304E0,7.460797027E0
1.156800310E-1,5.062950134E0,1.402950048E0,4.959000111E0,7.224501021E0
1.176432380E-1,5.140050411E0,9.040500522E-1,4.729050159E0,7.042821887E0
1.196064380E-1,5.215950012E0,3.679500222E-1,4.576050282E0,6.948507604E0
1.215703950E-1,5.331000328E0,-2.059500068E-1,4.423050404E0,6.930032812E0
1.235341300E-1,5.407950401E0,-5.890500546E-1,4.078050137E0,6.798779334E0
1.254967790E-1,5.523000240E0,-1.087950110E0,3.847950220E0,6.818642680E0
1.274597470E-1,5.638050079E0,-1.624050021E0,3.579000235E0,6.872727977E0
1.294227830E-1,5.715000153E0,-2.046000004E0,3.157950163E0,6.842513573E0
1.313858080E-1,5.676000118E0,-2.428950071E0,3.157950163E0,6.934653922E0
1.333489390E-1,5.676000118E0,-2.812050104E0,3.234000206E0,7.112198005E0
1.353120390E-1,5.560950279E0,-3.196050167E0,3.541050196E0,7.326523129E0
1.372754270E-1,5.485050201E0,-3.463950157E0,4.000950336E0,7.621832457E0
1.392387310E-1,5.293050289E0,-3.732000113E0,4.729050159E0,8.019234478E0
1.412019220E-1,5.062950134E0,-3.961950302E0,5.188950062E0,8.261701822E0
1.431651660E-1,4.872000217E0,-4.153950214E0,4.959000111E0,8.098356043E0
1.451286190E-1,4.642050266E0,-4.498950005E0,4.231050014E0,7.725992884E0
1.470920100E-1,4.527000427E0,-4.843950272E0,3.579000235E0,7.534376536E0
1.490557090E-1,4.411950111E0,-5.149950027E0,2.851050138E0,7.356342567E0
1.510193180E-1,4.335000038E0,-5.494950294E0,2.122950077E0,7.313933353E0
1.529822710E-1,4.297049999E0,-5.802000046E0,1.432950020E0,7.360787253E0
1.549454400E-1,4.143000126E0,-6.070050240E0,8.580000401E-1,7.399062375E0
1.569092660E-1,4.105050087E0,-6.376950264E0,4.750500321E-1,7.598855402E0
1.588728990E-1,3.990000248E0,-6.645000458E0,2.830500007E-1,7.756046052E0
1.608360620E-1,3.837000132E0,-6.874950409E0,2.070000172E-1,7.875935636E0
1.627993630E-1,3.607050180E0,-7.066950321E0,1.300500035E-1,7.935333065E0
1.647629170E-1,3.376950264E0,-7.182000160E0,-9.900000691E-2,7.936921342E0
1.667264140E-1,3.031950235E0,-7.411950588E0,-5.209500194E-1,8.025031008E0
1.686893740E-1,2.686950207E0,-7.488000393E0,-1.018950105E0,8.020480697E0
1.706524920E-1,2.304000139E0,-7.564950466E0,-1.363950014E0,8.024789831E0
1.726153820E-1,1.767000079E0,-7.488000393E0,-1.402050018E0,7.820369775E0
1.745783390E-1,1.384050012E0,-7.411950588E0,-1.210950017E0,7.636688150E0
1.765414200E-1,1.192050099E0,-7.297050476E0,-7.890000343E-1,7.435754847E0
1.785044750E-1,8.850000501E-1,-7.105050564E0,-2.140500098E-1,7.163154753E0
1.804657990E-1,5.790000558E-1,-6.760050297E0,4.750500321E-1,6.801411149E0
1.824276310E-1,3.109500110E-1,-6.339000225E0,1.050000072E0,6.432893122E0
1.843914160E-1,4.050000105E-3,-5.802000046E0,1.318050027E0,5.949829981E0
1.863546290E-1,-2.250000089E-1,-5.227050304E0,1.318050027E0,5.395362431E0
1.883180440E-1,-4.170000255E-1,-4.651950359E0,1.318050027E0,4.853018343E0
1.902813990E-1,-4.549500346E-1,-4.153950214E0,1.318050027E0,4.381727718E0
1.922447890E-1,-3.780000210E-1,-3.616950274E0,1.432950020E0,3.908779740E0
1.942081680E-1,-3.019500077E-1,-2.965950251E0,1.510050058E0,3.341898544E0
1.961713740E-1,-7.200000435E-2,-2.428950071E0,1.585950017E0,2.901761518E0
1.981346310E-1,8.100000024E-2,-1.893000126E0,1.663050056E0,2.521060484E0
2.000988080E-1,3.870000243E-1,-1.471050024E0,1.585950017E0,2.197497360E0
2.020627110E-1,7.320000529E-1,-1.240950108E0,1.510050058E0,2.087111024E0
2.040258280E-1,1.039050102E0,-1.048950076E0,1.432950020E0,2.057490495E0
2.059891750E-1,1.230000019E0,-8.959500194E-1,1.356000066E0,2.038225371E0
2.079525210E-1,1.384050012E0,-7.810500264E-1,1.240950108E0,2.016331012E0
2.099158670E-1,1.575000048E0,-6.280500293E-1,1.318050027E0,2.147633084E0
2.118792570E-1,1.843950033E0,-5.890500546E-1,1.432950020E0,2.408418039E0
2.138426340E-1,2.074050188E0,-4.740000367E-1,1.471050024E0,2.586570778E0
2.158058860E-1,2.227050066E0,-4.360500276E-1,1.585950017E0,2.768596951E0
2.177691750E-1,2.457000017E0,-3.210000098E-1,1.663050056E0,2.984229478E0
2.197323510E-1,2.533950090E0,-2.059500068E-1,1.701000094E0,3.058875576E0
2.216955600E-1,2.802000046E0,-1.680000126E-1,1.777950048E0,3.322729997E0
2.236586090E-1,2.992950201E0,-1.290000081E-1,1.663050056E0,3.426386930E0
2.256217080E-1,3.262050152E0,-1.290000081E-1,1.432950020E0,3.565243043E0
2.275842860E-1,3.568050146E0,-1.500000060E-2,1.050000072E0,3.719369166E0
2.295470160E-1,3.913050175E0,1.380000114E-1,4.360500276E-1,3.939688477E0
2.315108270E-1,4.335000038E0,3.289500177E-1,-2.205000073E-2,4.347518792E0
2.334743220E-1,4.717950344E0,5.209500194E-1,-2.140500098E-1,4.751448387E0
2.354364670E-1,5.101050377E0,8.280000687E-1,-2.205000073E-2,5.167860802E0
2.373990110E-1,5.446050167E0,1.173000097E0,5.509500504E-1,5.598119113E0
2.393621330E-1,5.560950279E0,1.633050084E0,1.471050024E0,5.979549210E0
2.413250860E-1,5.638050079E0,2.245950222E0,2.583000183E0,6.595740371E0
2.432880490E-1,5.485050201E0,2.821050167E0,3.924000263E0,7.310395189E0
2.452510090E-1,5.215950012E0,3.586950064E0,5.304000378E0,8.258617638E0
2.472142460E-1,4.795050144E0,4.584000111E0,6.646050453E0,9.390183679E0
2.491773990E-1,4.335000038E0,5.695050240E0,7.642050266E0,1.047027960E1
2.511403290E-1,3.990000248E0,6.538950443E0,8.254950523E0,1.126153555E1
2.531033240E-1,3.952050209E0,7.305000305E0,8.332050323E0,1.176455664E1
2.550665490E-1,3.990000248E0,8.187000275E0,7.680000305E0,1.191341597E1
2.570297060E-1,4.182000160E0,9.259950638E0,6.109050274E0,1.185564450E1
2.589929500E-1,4.450050354E0,1.052505016E1,4.345950127E0,1.222566610E1
2.609561680E-1,4.795050144E0,1.194300079E1,2.583000183E0,1.312629665E1
2.629199870E-1,4.833000183E0,1.351395035E1,2.449500114E-1,1.435425879E1
2.648836300E-1,4.488000393E0,1.527705097E1,-2.590050220E0,1.613191849E1
2.668467460E-1,3.721950293E0,1.707900047E1,-5.235000134E0,1.824692844E1
2.688100160E-1,2.494950056E0,1.926300049E1,-8.148000717E0,2.106366253E1
2.707723390E-1,9.619500637E-1,2.175495148E1,-1.033305073E1,2.410342712E1
2.727349390E-1,-7.999500632E-1,2.439900208E1,-1.190400028E1,2.715983146E1
2.746983220E-1,-2.908050060E0,2.784900093E1,-1.255605030E1,3.068677251E1
2.766614760E-1,-4.978050232E0,3.156600189E1,-1.190400028E1,3.410130030E1
2.786247200E-1,-7.201050282E0,3.486300278E1,-1.090695095E1,3.723232019E1
2.805879370E-1,-9.232050896E0,3.804405212E1,-9.220950127E0,4.021948019E1
2.825513060E-1,-1.076505089E1,4.095705032E1,-8.377950668E0,4.316892805E1
2.845146300E-1,-1.191495037E1,4.436805344E1,-7.458000183E0,4.654150808E1
2.864775300E-1,-1.287300014E1,4.758705139E1,-6.768000126E0,4.975989769E1
2.884405550E-1,-1.367805099E1,5.046195221E1,-6.307950497E0,5.266201610E1
2.904039550E-1,-1.410000038E1,5.260800171E1,-5.464950085E0,5.473826389E1
2.923672450E-1,-1.402305031E1,5.395005417E1,-5.617950439E0,5.602513411E1
2.943303320E-1,-1.387005043E1,5.460105133E1,-5.464950085E0,5.659963591E1
2.962934780E-1,-1.352505112E1,5.410305405E1,-5.656950474E0,5.605415733E1
2.982572630E-1,-1.318005085E1,5.295300293E1,-6.078000069E0,5.490606838E1
3.002208600E-1,-1.233705044E1,5.042400360E1,-6.232050419E0,5.228404542E1
3.021840290E-1,-1.084200096E1,4.678305054E1,-6.078000069E0,4.840604185E1
3.041473240E-1,-9.040050507E0,4.245105362E1,-6.346950531E0,4.386454431E1
3.061109370E-1,-7.239000320E0,3.838905334E1,-7.150950432E0,3.971471559E1
3.080744330E-1,-6.013050079E0,3.493905258E1,-7.803000450E0,3.630125318E1
3.100377990E-1,-4.939050198E0,3.175800133E1,-8.493000031E0,3.324298294E1
3.120012040E-1,-4.018949986E0,2.903700066E1,-9.183000565E0,3.071851014E1
3.139644050E-1,-3.214950085E0,2.654595184E1,-9.796050072E0,2.847781699E1
3.159276660E-1,-2.563050032E0,2.478195190E1,-1.014105034E1,2.689898265E1
3.178912060E-1,-2.065050125E0,2.324895096E1,-1.025595093E1,2.549436569E1
3.198546640E-1,-1.567050099E0,2.187000084E1,-1.029405022E1,2.422230486E1
3.218177210E-1,-1.144950032E0,2.071995163E1,-1.025595093E1,2.314760972E1
3.237808960E-1,-7.230000496E-1,1.964700127E1,-1.040895081E1,2.224575566E1
3.257444960E-1,-2.629500031E-1,1.891800117E1,-1.040895081E1,2.159412346E1
3.277079710E-1,4.050000105E-3,1.819005013E1,-1.037100029E1,2.093885353E1
3.296714600E-1,2.340000123E-1,1.765395164E1,-1.010295010E1,2.034173949E1
3.316349560E-1,3.870000243E-1,1.715505028E1,-9.834000587E0,1.977759052E1
3.335989080E-1,4.639500082E-1,1.665705109E1,-9.565950394E0,1.921405755E1
3.355627260E-1,5.410500169E-1,1.627395058E1,-9.220950127E0,1.871256593E1
3.375262180E-1,7.320000529E-1,1.588995075E1,-8.914050102E0,1.823421641E1
3.394898050E-1,8.470500112E-1,1.562205029E1,-8.608050346E0,1.785677685E1
3.414529890E-1,8.089500666E-1,1.531605053E1,-8.455050468E0,1.751352856E1
3.434162810E-1,6.169500351E-1,1.500900078E1,-8.340000153E0,1.718156961E1
3.453796350E-1,8.089500666E-1,1.474095058E1,-8.110050201E0,1.684407726E1
3.473429710E-1,9.240000248E-1,1.443405056E1,-7.765050411E0,1.641619930E1
3.493060500E-1,6.550500393E-1,1.405095100E1,-7.420050144E0,1.590331597E1
3.512692040E-1,6.550500393E-1,1.362900066E1,-7.036050320E0,1.535202768E1
3.532317170E-1,7.699500322E-1,1.324605083E1,-6.499950409E0,1.477498024E1
3.551944250E-1,3.109500110E-1,1.278600025E1,-5.656950474E0,1.398497698E1
3.571577000E-1,-6.079500318E-1,1.205805016E1,-5.119950294E0,1.311411712E1
3.591208080E-1,-6.850500107E-1,1.132905006E1,-4.545000076E0,1.222594350E1
3.610838800E-1,-2.629500031E-1,1.056300068E1,-3.472050190E0,1.112210675E1
3.630469630E-1,-2.629500031E-1,9.910950661E0,-2.974050045E0,1.035089655E1
3.650102120E-1,-6.469500065E-1,9.259950638E0,-2.475000143E0,9.606812990E0
3.669734170E-1,-7.999500632E-1,8.569950104E0,-2.245050192E0,8.895179326E0
3.689365180E-1,-1.030050039E0,7.842000484E0,-2.475000143E0,8.287556961E0
3.708996500E-1,-1.375050068E0,7.267050266E0,-2.782050133E0,7.901935535E0
3.728632120E-1,-1.911000133E0,6.577050209E0,-2.667000055E0,7.349993215E0
3.748266480E-1,-2.332950115E0,5.925000191E0,-2.206950188E0,6.739355506E0
3.767900600E-1,-2.601000071E0,5.311950207E0,-1.747050047E0,6.167187384E0
3.787534860E-1,-2.793000221E0,4.660050392E0,-1.402050018E0,5.610941467E0
3.807168180E-1,-2.793000221E0,4.085999966E0,-1.210950017E0,5.095355326E0
3.826801780E-1,-2.908050060E0,3.549000263E0,-9.040500522E-1,4.676479928E0
3.846435660E-1,-2.985000134E0,3.012000084E0,-2.520000041E-1,4.248043586E0
3.866069460E-1,-3.100050211E0,2.551950216E0,1.300500035E-1,4.017421340E0
3.885690620E-1,-3.291000128E0,2.208000183E0,3.979500234E-1,3.983002746E0
3.905315540E-1,-3.214950085E0,1.824000120E0,7.810500264E-1,3.777951777E0
3.924947750E-1,-3.100050211E0,1.518000126E0,1.011000037E0,3.596770325E0
3.944577830E-1,-3.061050177E0,1.249050021E0,1.087950110E0,3.480486975E0
3.964211870E-1,-2.985000134E0,1.018950105E0,1.165050030E0,3.362413818E0
3.983844750E-1,-3.022950172E0,7.510500550E-1,1.087950110E0,3.299384696E0
4.003475470E-1,-2.830950022E0,4.440000355E-1,9.730500579E-1,3.026258494E0
4.023106930E-1,-2.830950022E0,6.105000153E-2,7.429500222E-1,2.927452794E0
4.042746130E-1,-2.793000221E0,-2.059500068E-1,5.899500251E-1,2.862045889E0
4.062383060E-1,-2.563050032E0,-3.979500234E-1,3.600000143E-1,2.618623626E0
4.082022230E-1,-2.140950203E0,-8.190000653E-1,9.195000678E-2,2.294097575E0
4.101660750E-1,-1.834950089E0,-1.203000069E0,-1.369500011E-1,2.198409948E0
4.121293320E-1,-1.567050099E0,-1.585950017E0,-3.289500177E-1,2.253684003E0
4.140927660E-1,-1.222050071E0,-1.930950046E0,-3.289500177E-1,2.308718815E0
4.160559610E-1,-7.999500632E-1,-2.391000032E0,-4.060500264E-1,2.553757601E0
4.180192270E-1,-1.870500147E-1,-2.697000027E0,-3.289500177E-1,2.723417883E0
4.199835770E-1,4.260000288E-1,-3.042000055E0,-1.759500057E-1,3.076718831E0
4.219476100E-1,8.850000501E-1,-3.426000118E0,-6.105000153E-2,3.538987002E0
4.239101090E-1,1.422000051E0,-3.694050074E0,1.300500035E-1,3.960429660E0
4.258730640E-1,2.035050154E0,-3.961950302E0,3.979500234E-1,4.471783039E0
4.278361610E-1,2.802000046E0,-4.116000175E0,6.660000086E-1,5.023566235E0
4.297992160E-1,3.453000069E0,-4.306950092E0,9.730500579E-1,5.605341648E0
4.317625220E-1,3.874950171E0,-4.345950127E0,1.318050027E0,5.969905962E0
4.337257550E-1,4.182000160E0,-4.422000408E0,1.471050024E0,6.261565389E0
4.356889760E-1,4.372950077E0,-4.537050247E0,1.548000097E0,6.488745767E0
4.376522080E-1,4.411950111E0,-4.614000320E0,1.663050056E0,6.596971898E0
4.396156180E-1,4.488000393E0,-4.614000320E0,1.855050087E0,6.698683252E0
4.415789760E-1,4.411950111E0,-4.729050159E0,2.046000004E0,6.783460416E0
4.435423650E-1,4.335000038E0,-4.767000198E0,2.161050081E0,6.796076344E0
4.455057450E-1,4.258049965E0,-4.729050159E0,2.430000067E0,6.811740250E0
4.474692660E-1,4.105050087E0,-4.690050125E0,2.736000061E0,6.806886419E0
4.494327450E-1,3.952050209E0,-4.651950359E0,3.118950129E0,6.854720483E0
4.513961140E-1,3.798000097E0,-4.537050247E0,3.541050196E0,6.895554087E0
4.533595160E-1,3.607050180E0,-4.384050369E0,4.039050102E0,6.967397963E0
4.553227630E-1,3.453000069E0,-4.269000053E0,4.614000320E0,7.171929300E0
4.572860550E-1,3.337950230E0,-4.192049980E0,5.074050426E0,7.379782009E0
4.592494540E-1,3.147000074E0,-4.039050102E0,5.304000378E0,7.372242210E0
4.612128220E-1,3.108000040E0,-4.039050102E0,5.419050217E0,7.439065481E0
4.631762090E-1,3.147000074E0,-4.039050102E0,5.341950417E0,7.399592519E0
4.651395910E-1,3.376950264E0,-3.924000263E0,5.686950207E0,7.690446918E0
4.671029760E-1,3.415050268E0,-4.000950336E0,5.802000046E0,7.831562836E0
4.690663600E-1,3.453000069E0,-3.961950302E0,5.457000256E0,7.576220130E0
4.710295110E-1,3.492000103E0,-3.886050224E0,5.304000378E0,7.444989662E0
4.729927370E-1,3.607050180E0,-3.771000147E0,5.266050339E0,7.413672456E0
4.749558330E-1,3.568050146E0,-3.655950069E0,5.151000023E0,7.254636724E0
4.769189680E-1,3.568050146E0,-3.541050196E0,4.996950150E0,7.087984843E0
4.788825300E-1,3.607050180E0,-3.426000118E0,4.768050194E0,6.890761240E0
4.808459660E-1,3.492000103E0,-3.234000206E0,4.423050404E0,6.497399243E0
4.828091930E-1,3.415050268E0,-3.118950129E0,4.116000175E0,6.191274157E0
4.847724920E-1,3.415050268E0,-3.004050255E0,3.618000269E0,5.811782189E0
4.867355310E-1,3.337950230E0,-2.889000177E0,2.928000212E0,5.297302993E0
4.886986460E-1,3.223050117E0,-2.697000027E0,2.200050116E0,4.743635917E0
4.906620310E-1,3.031950235E0,-2.581950188E0,1.510050058E0,4.259042167E0
4.926253360E-1,2.917050123E0,-2.467050076E0,7.050000429E-1,3.884912169E0
4.945895000E-1,2.725050211E0,-2.314050198E0,-1.369500011E-1,3.577636409E0
4.965534130E-1,2.572050095E0,-2.199000120E0,-9.810000658E-1,3.523266148E0
4.985166630E-1,2.457000017E0,-2.046000004E0,-1.824000120E0,3.681024523E0
5.004801080E-1,2.380050182E0,-2.046000004E0,-2.782050133E0,4.194109897E0
5.024436610E-1,2.188950062E0,-1.854000092E0,-3.586950064E0,4.592932557E0
5.044071820E-1,1.996950150E0,-1.777950048E0,-4.468050003E0,5.206955646E0
5.063704090E-1,1.614000082E0,-1.509000063E0,-5.272950172E0,5.717174212E0
5.083337230E-1,1.422000051E0,-1.356000066E0,-5.962950230E0,6.278343393E0
5.102969400E-1,1.230000019E0,-1.203000069E0,-6.538050175E0,6.760636752E0
5.122601850E-1,1.000050068E0,-8.959500194E-1,-6.805950165E0,6.937130835E0
5.142224670E-1,6.550500393E-1,-6.660000086E-1,-6.960000515E0,7.022410821E0
5.161850310E-1,4.260000288E-1,-3.979500234E-1,-6.883050442E0,6.907693076E0
5.181475340E-1,1.189500093E-1,-1.290000081E-1,-6.538050175E0,6.540404437E0
5.201100450E-1,-1.480500102E-1,9.900000691E-2,-5.848050117E0,5.850761487E0
5.220735330E-1,-5.320500135E-1,4.830000103E-1,-4.813050270E0,4.866396935E0
5.240367350E-1,-8.770500422E-1,9.040500522E-1,-3.855000257E0,4.055557947E0
5.260000160E-1,-1.297950029E0,1.210950017E0,-2.704950094E0,3.235402484E0
5.279632730E-1,-1.720050097E0,1.555950046E0,-1.516950130E0,2.771405885E0
5.299261000E-1,-2.026050091E0,1.863000035E0,-2.520000041E-1,2.763901609E0
5.318890500E-1,-2.332950115E0,2.169000149E0,9.730500579E-1,3.330772328E0
5.338527330E-1,-2.524950027E0,2.514000177E0,1.855050087E0,4.017061159E0
5.358162020E-1,-2.640000105E0,2.821050167E0,2.773950100E0,4.756335118E0
5.377799320E-1,-2.716050148E0,3.166050196E0,3.808950186E0,5.648796665E0
5.397435860E-1,-2.716050148E0,3.586950064E0,5.151000023E0,6.839293853E0
5.417070660E-1,-2.640000105E0,4.085999966E0,7.144050121E0,8.643057816E0
5.436705930E-1,-2.640000105E0,4.621950150E0,9.520050049E0,1.090703336E1
5.456339530E-1,-2.793000221E0,5.311950207E0,1.197300053E1,1.339292376E1
5.475973620E-1,-2.830950022E0,6.001950264E0,1.404300022E1,1.553201662E1
5.495607870E-1,-2.946000099E0,6.768000126E0,1.557600117E1,1.723648905E1
5.515242070E-1,-2.908050060E0,7.612050533E0,1.611194992E1,1.805533159E1
5.534879310E-1,-2.908050060E0,8.647050858E0,1.572900105E1,1.818322627E1
5.554515760E-1,-2.793000221E0,1.002600002E1,1.400400066E1,1.744802457E1
5.574150520E-1,-2.485950232E0,1.144395065E1,1.124505043E1,1.623561253E1
5.593785780E-1,-2.140950203E0,1.324605083E1,7.489050388E0,1.536643765E1
5.613431990E-1,-1.834950089E0,1.520100117E1,3.157950163E0,1.563362170E1
5.633074990E-1,-1.336950064E0,1.738500023E1,-1.210950017E0,1.747833140E1
5.652709380E-1,-9.529500604E-1,1.964700127E1,-5.848050117E0,2.052102490E1
5.672346400E-1,-1.183050036E0,2.206095123E1,-1.056300068E1,2.448800033E1
5.691983310E-1,-1.911000133E0,2.436105156E1,-1.474005032E1,2.853737616E1
5.711620250E-1,-2.869950056E0,2.666100121E1,-1.738500023E1,3.195753169E1
5.731255370E-1,-3.675000191E0,2.903700066E1,-1.792094994E1,3.431928729E1
5.750891020E-1,-4.518000126E0,3.106800079E1,-1.646505165E1,3.545040090E1
5.770525720E-1,-5.092950344E0,3.279300308E1,-1.320705032E1,3.571757792E1
5.790160830E-1,-5.323050022E0,3.455595016E1,-8.953050613E0,3.609162879E1
5.809794910E-1,-5.053950310E0,3.578205109E1,-4.353000164E0,3.639843684E1
5.829429290E-1,-4.402950287E0,3.677895355E1,-1.759500057E-1,3.704198097E1
5.849054030E-1,-2.985000134E0,3.727695084E1,2.659050226E0,3.749069001E1
5.868681600E-1,-1.528050065E0,3.700905228E1,3.808950186E0,3.723590994E1
5.888327010E-1,-2.250000089E-1,3.608895111E1,3.886050224E0,3.629826998E1
5.907967100E-1,7.320000529E-1,3.482400131E1,2.698050022E0,3.493603248E1
5.927610690E-1,1.269000053E0,3.355905151E1,1.318050027E0,3.360889102E1
5.947253260E-1,1.114950061E0,3.221805191E1,-4.819500148E-1,3.224094072E1
5.966875260E-1,2.719500065E-1,3.076200104E1,-2.092050076E0,3.083425592E1
5.986503280E-1,-1.413000107E0,2.926695061E1,-3.510000229E0,2.951052471E1
6.006137610E-1,-3.483000278E0,2.750400162E1,-4.698000431E0,2.811890119E1
6.025770130E-1,-5.476050377E0,2.558700180E1,-5.427000046E0,2.672328794E1
6.045404200E-1,-7.086000443E0,2.367105103E1,-5.848050117E0,2.539152908E1
6.065037820E-1,-7.891050339E0,2.171595192E1,-6.078000069E0,2.389128142E1
6.084671700E-1,-8.082000732E0,2.006805038E1,-6.040050507E0,2.246169166E1
6.104305510E-1,-7.776000500E0,1.872705078E1,-5.733000278E0,2.107215952E1
6.123940020E-1,-7.392000198E0,1.769205093E1,-5.235000134E0,1.987600462E1
6.143574180E-1,-6.970950127E0,1.700205040E1,-4.736999989E0,1.897638091E1
6.163207530E-1,-6.625950336E0,1.650405121E1,-4.392000198E0,1.831874968E1
6.182841120E-1,-6.511050224E0,1.615904999E1,-4.200000286E0,1.792062147E1
6.202473650E-1,-6.664050102E0,1.592895031E1,-4.276950359E0,1.778857291E1
6.222106500E-1,-6.549000263E0,1.562205029E1,-4.736999989E0,1.758911676E1
6.241738170E-1,-6.433950424E0,1.531605053E1,-5.350050449E0,1.745279810E1
6.261370250E-1,-6.396000385E0,1.512405109E1,-5.962950230E0,1.747004630E1
6.281003030E-1,-6.433950424E0,1.500900078E1,-6.538050175E0,1.759010866E1
6.300635610E-1,-6.357000351E0,1.485600090E1,-6.921000481E0,1.757875035E1
6.320265630E-1,-6.319050312E0,1.462605095E1,-7.150950432E0,1.746390149E1
6.339896400E-1,-6.241950512E0,1.451100063E1,-7.189950466E0,1.735587720E1
6.359527020E-1,-6.051000118E0,1.428105068E1,-6.921000481E0,1.698420615E1
6.379157790E-1,-5.898000240E0,1.401195049E1,-6.538050175E0,1.654893542E1
6.398788560E-1,-5.590950489E0,1.370595074E1,-5.925000191E0,1.594419770E1
6.418419330E-1,-5.053950310E0,1.336095047E1,-5.311950207E0,1.524054547E1
6.438053690E-1,-4.288050175E0,1.297800064E1,-4.927950382E0,1.452930039E1
6.457687000E-1,-3.675000191E0,1.278600025E1,-4.582950115E0,1.407092252E1
6.477321250E-1,-3.214950085E0,1.255605030E1,-4.315050125E0,1.366052564E1
6.496955320E-1,-2.946000099E0,1.240305042E1,-4.276950359E0,1.344644491E1
6.516590930E-1,-2.830950022E0,1.224900055E1,-4.084949970E0,1.321889211E1
6.536226090E-1,-2.677950144E0,1.221105099E1,-3.931950092E0,1.310501487E1
6.555863320E-1,-2.371050119E0,1.228800011E1,-3.855000257E0,1.309495522E1
6.575499940E-1,-2.103000164E0,1.236405087E1,-3.931950092E0,1.314353815E1
6.595133510E-1,-1.911000133E0,1.251795101E1,-3.739950180E0,1.320372093E1
6.614767840E-1,-1.795950055E0,1.274805069E1,-3.739950180E0,1.340617247E1
6.634403400E-1,-1.567050099E0,1.286295033E1,-3.664050102E0,1.346612046E1
6.654038590E-1,-1.375050068E0,1.316895103E1,-3.394950151E0,1.366885952E1
6.673674010E-1,-1.452000022E0,1.343700027E1,-3.204000235E0,1.388981274E1
6.693309360E-1,-1.375050068E0,1.366695023E1,-2.896950245E0,1.403811283E1
6.712943110E-1,-1.375050068E0,1.385895061E1,-2.704950094E0,1.418724885E1
6.732577220E-1,-1.567050099E0,1.408905029E1,-2.398950100E0,1.437748051E1
6.752212360E-1,-1.758000135E0,1.443405056E1,-2.053950071E0,1.468506353E1
6.771847200E-1,-2.026050091E0,1.493205070E1,-1.786050081E0,1.517435310E1
6.791481340E-1,-2.256000042E0,1.539195061E1,-1.555950046E0,1.563402252E1
6.811115690E-1,-2.640000105E0,1.600500107E1,-1.134000063E0,1.626086147E1
6.830751090E-1,-2.985000134E0,1.650405121E1,-7.890000343E-1,1.679036787E1
6.850386280E-1,-3.367950201E0,1.696395111E1,-3.670500219E-1,1.729894365E1
6.870012700E-1,-3.828000069E0,1.738500023E1,5.295000225E-2,1.780153424E1
6.889641690E-1,-4.173000336E0,1.769205093E1,4.750500321E-1,1.818373643E1
6.909281310E-1,-4.326000214E0,1.803705025E1,8.580000401E-1,1.856840390E1
6.928917820E-1,-4.402950287E0,1.830495071E1,1.050000072E0,1.885629052E1
6.948551480E-1,-4.479000092E0,1.849695015E1,1.050000072E0,1.906045925E1
6.968186110E-1,-4.518000126E0,1.857299995E1,8.200500607E-1,1.913220151E1
6.987825220E-1,-4.518000126E0,1.853505135E1,5.509500504E-1,1.908570144E1
7.007463020E-1,-4.518000126E0,1.842000008E1,3.600000143E-1,1.896940505E1
7.027105200E-1,-4.479000092E0,1.826700020E1,1.680000126E-1,1.880885329E1
7.046746100E-1,-4.441050053E0,1.799805069E1,5.295000225E-2,1.853794913E1
7.066380590E-1,-4.363950253E0,1.769205093E1,-2.205000073E-2,1.822232736E1
7.086016930E-1,-4.326000214E0,1.746195030E1,1.680000126E-1,1.799061450E1
7.105644950E-1,-4.288050175E0,1.715505028E1,3.220500052E-1,1.768578074E1
7.125275400E-1,-4.326000214E0,1.707900047E1,4.360500276E-1,1.762375314E1
7.144911170E-1,-4.288050175E0,1.681005096E1,5.899500251E-1,1.735837633E1
7.164545380E-1,-4.288050175E0,1.661894989E1,8.959500194E-1,1.718661096E1
7.184181060E-1,-4.210950375E0,1.646505165E1,1.279950023E0,1.704313061E1
7.203816240E-1,-4.057950020E0,1.635000038E1,1.663050056E0,1.692794159E1
7.223449870E-1,-3.790050268E0,1.612005043E1,1.969950080E0,1.667636682E1
7.243083950E-1,-3.675000191E0,1.600500107E1,1.969950080E0,1.653923786E1
7.262719550E-1,-3.483000278E0,1.577505112E1,1.969950080E0,1.627464998E1
7.282354700E-1,-3.175950050E0,1.550700092E1,2.046000004E0,1.596057181E1
7.301988970E-1,-2.793000221E0,1.512405109E1,1.969950080E0,1.550543373E1
7.321623370E-1,-2.485950232E0,1.489395046E1,1.855050087E0,1.521351109E1
7.341256670E-1,-2.179949999E0,1.470195103E1,1.663050056E0,1.495544321E1
7.360890290E-1,-1.720050097E0,1.439595032E1,1.663050056E0,1.459341267E1
7.380524160E-1,-1.297950029E0,1.412700081E1,1.855050087E0,1.430727217E1
7.400157960E-1,-7.999500632E-1,1.374405098E1,2.200050116E0,1.394198974E1
7.419793620E-1,-1.870500147E-1,1.324605083E1,2.812950134E0,1.354273011E1
7.439428730E-1,4.260000288E-1,1.259400082E1,3.273000240E0,1.301932652E1
7.459070020E-1,1.153950095E0,1.178895092E1,3.655950069E0,1.239665017E1
7.478709500E-1,1.767000079E0,1.094595051E1,4.116000175E0,1.182698521E1
7.498342390E-1,2.572050095E0,1.002600002E1,4.423050404E0,1.125608693E1
7.517977220E-1,3.376950264E0,9.259950638E0,5.074050426E0,1.108586788E1
7.537610680E-1,4.066950321E0,8.532000542E0,5.802000046E0,1.109046089E1
7.557244380E-1,4.642050266E0,7.879950523E0,6.568950176E0,1.126025565E1
7.576878690E-1,5.140050411E0,7.305000305E0,7.450050354E0,1.163126812E1
7.596512820E-1,5.446050167E0,6.691950321E0,7.909950256E0,1.170508328E1
7.616143020E-1,5.868000507E0,6.117000103E0,8.179050446E0,1.177913352E1
7.635774380E-1,6.060000420E0,5.542050362E0,8.140049934E0,1.156279984E1
7.655410490E-1,6.520050526E0,4.852050304E0,7.872000217E0,1.131467359E1
7.675045180E-1,6.750000477E0,4.276950359E0,7.489050388E0,1.095174354E1
7.694678440E-1,7.018050194E0,3.664050102E0,7.029000282E0,1.058702681E1
7.714312120E-1,7.248000145E0,3.127050161E0,6.415950298E0,1.017233341E1
7.733944190E-1,7.363050461E0,2.590950012E0,5.725950241E0,9.680601232E0
7.753576740E-1,7.438950539E0,2.016000032E0,5.035950184E0,9.206684284E0
7.773209390E-1,7.477950573E0,1.326000094E0,4.345950127E0,8.750160200E0
7.792842050E-1,7.516050339E0,5.590500236E-1,3.808950186E0,8.444622617E0
7.812481510E-1,7.324050426E0,-1.290000081E-1,3.388050079E0,8.070764461E0
7.832118970E-1,7.171050549E0,-5.890500546E-1,3.157950163E0,7.857709282E0
7.851751760E-1,6.979950428E0,-1.203000069E0,3.196050167E0,7.770563288E0
7.871385920E-1,6.673050404E0,-1.738950133E0,3.196050167E0,7.600545107E0
7.891018060E-1,6.328050137E0,-2.275950193E0,3.196050167E0,7.445730621E0
7.910650680E-1,6.060000420E0,-2.812050104E0,3.004050255E0,7.324994799E0
7.930283380E-1,5.791050434E0,-3.426000118E0,2.583000183E0,7.207331815E0
7.949916050E-1,5.560950279E0,-3.886050224E0,2.122950077E0,7.108619513E0
7.969549650E-1,5.370000362E0,-4.461000443E0,1.663050056E0,7.176570513E0
7.989182970E-1,5.178000450E0,-4.996950150E0,1.279950023E0,7.308862533E0
8.008820920E-1,4.909950256E0,-5.457000256E0,6.660000086E-1,7.370889995E0
8.028457540E-1,4.680000305E0,-5.878950119E0,2.449500114E-1,7.518274926E0
8.048092720E-1,4.450050354E0,-6.339000225E0,1.500000060E-2,7.745069206E0
8.067728330E-1,4.182000160E0,-6.684000492E0,-2.205000073E-2,7.884508489E0
8.087363220E-1,3.837000132E0,-6.990000248E0,-2.140500098E-1,7.976746886E0
8.106998330E-1,3.492000103E0,-7.297050476E0,-2.520000041E-1,8.093485922E0
8.126632750E-1,2.992950201E0,-7.488000393E0,-2.520000041E-1,8.067924441E0
8.146267130E-1,2.533950090E0,-7.680000305E0,-3.670500219E-1,8.095556403E0
8.165900880E-1,1.959000111E0,-7.833000183E0,-3.289500177E-1,8.080951764E0
8.185534820E-1,1.422000051E0,-7.872000217E0,-2.520000041E-1,8.003372762E0
8.205165050E-1,1.077000022E0,-7.872000217E0,-1.759500057E-1,7.947280974E0
8.224796360E-1,5.410500169E-1,-7.756950378E0,-2.205000073E-2,7.775827962E0
8.244434370E-1,1.189500093E-1,-7.642050266E0,5.295000225E-2,7.643159365E0
8.264070320E-1,-1.480500102E-1,-7.488000393E0,5.295000225E-2,7.489651019E0
8.283705620E-1,-5.700000525E-1,-7.297050476E0,5.295000225E-2,7.319470569E0
8.303341110E-1,-8.770500422E-1,-7.027950287E0,9.195000678E-2,7.083061260E0
8.322969270E-1,-1.183050036E0,-6.645000458E0,1.680000126E-1,6.751582220E0
8.342599580E-1,-1.452000022E0,-6.147000313E0,3.600000143E-1,6.326414223E0
8.362233720E-1,-1.605000019E0,-5.649000168E0,6.280500293E-1,5.906071012E0
8.381866630E-1,-1.795950055E0,-5.112000465E0,9.730500579E-1,5.504980633E0
8.401500640E-1,-1.873050094E0,-4.575000286E0,1.126049995E0,5.070200476E0
8.421134320E-1,-1.911000133E0,-4.077000141E0,1.318050027E0,4.691599677E0
8.440770000E-1,-1.758000135E0,-3.732000113E0,1.432950020E0,4.367119769E0
8.460405090E-1,-1.681950092E0,-3.426000118E0,1.471050024E0,4.090283743E0
8.480038580E-1,-1.528050065E0,-3.157050133E0,1.471050024E0,3.803405147E0
8.499672650E-1,-1.297950029E0,-2.926950216E0,1.471050024E0,3.523591920E0
8.519305110E-1,-1.106999993E0,-2.697000027E0,1.432950020E0,3.248477165E0
8.538938040E-1,-9.529500604E-1,-2.544000149E0,1.356000066E0,3.036245503E0
8.558573380E-1,-7.620000243E-1,-2.391000032E0,1.279950023E0,2.817054712E0
8.578208020E-1,-4.930500090E-1,-2.199000120E0,1.279950023E0,2.591712156E0
8.597838190E-1,-3.400500119E-1,-2.046000004E0,1.203000069E0,2.397698728E0
8.617469630E-1,4.050000105E-3,-1.930950046E0,1.126049995E0,2.235301562E0
8.637105680E-1,1.960500032E-1,-1.816050053E0,1.126049995E0,2.145801014E0
8.656740380E-1,4.260000288E-1,-1.738950133E0,1.050000072E0,2.075553840E0
8.676381740E-1,6.940500140E-1,-1.663050056E0,1.050000072E0,2.085651231E0
8.696021150E-1,9.619500637E-1,-1.585950017E0,9.349500537E-1,2.077189684E0
8.715654000E-1,1.192050099E0,-1.471050024E0,7.810500264E-1,2.048172541E0
8.735288810E-1,1.384050012E0,-1.356000066E0,5.899500251E-1,2.025431225E0
8.754920680E-1,1.651950121E0,-1.318050027E0,5.509500504E-1,2.183973680E0
8.774553420E-1,1.996950150E0,-1.203000069E0,3.979500234E-1,2.365033464E0
8.794187000E-1,2.265000105E0,-1.011000037E0,3.979500234E-1,2.512112810E0
8.813820330E-1,2.649000168E0,-8.959500194E-1,3.220500052E-1,2.814896895E0
8.833463170E-1,2.955000162E0,-7.429500222E-1,2.449500114E-1,3.056795904E0
8.853103300E-1,3.337950230E0,-5.509500504E-1,1.300500035E-1,3.385612308E0
8.872736080E-1,3.645000219E0,-3.210000098E-1,5.295000225E-2,3.659490580E0
8.892371020E-1,4.066950321E0,-2.059500068E-1,-6.105000153E-2,4.072619234E0
8.911995660E-1,4.488000393E0,-9.105000645E-2,-2.520000041E-1,4.495991730E0
8.931623320E-1,4.987050056E0,6.105000153E-2,-5.209500194E-1,5.014557238E0
8.951256680E-1,5.293050289E0,2.910000086E-1,-8.269500136E-1,5.365156912E0
8.970888500E-1,5.599950314E0,5.980500579E-1,-1.171950102E0,5.752440737E0
8.990522690E-1,5.830050468E0,9.810000658E-1,-1.441050053E0,6.085102698E0
9.010156190E-1,6.097950459E0,1.288050056E0,-1.555950046E0,6.423788079E0
9.029791900E-1,6.442950249E0,1.786050081E0,-1.402050018E0,6.831348846E0
9.049426960E-1,6.711000443E0,2.361000061E0,-8.659500480E-1,7.166708988E0
9.069051360E-1,6.826050282E0,2.935950041E0,-6.105000153E-2,7.430914627E0
9.088679050E-1,6.750000477E0,3.586950064E0,1.050000072E0,7.715647565E0
9.108315740E-1,6.442950249E0,4.545000076E0,2.659050226E0,8.321008455E0
9.127949800E-1,6.097950459E0,5.464950085E0,4.882050037E0,9.533367285E0
9.147581360E-1,5.676000118E0,6.424050331E0,7.297050476E0,1.125754616E1
9.167213660E-1,5.254950047E0,7.420050144E0,9.405000687E0,1.308150152E1
9.186846270E-1,4.795050144E0,8.532000542E0,1.086195087E1,1.462085893E1
9.206478890E-1,4.527000427E0,9.757950783E0,1.170495033E1,1.589708145E1
9.226114300E-1,4.219950199E0,1.125300026E1,1.159005070E1,1.669632504E1
9.245748890E-1,3.990000248E0,1.278600025E1,1.066995049E1,1.712453643E1
9.265384410E-1,4.027950287E0,1.416600037E1,9.136950493E0,1.733158430E1
9.285019660E-1,4.372950077E0,1.531605053E1,6.991050243E0,1.739479462E1
9.304655720E-1,4.987050056E0,1.623495102E1,4.039050102E0,1.745732593E1
9.324291400E-1,5.407950401E0,1.696395111E1,7.810500264E-1,1.782222220E1
9.343933940E-1,5.485050201E0,1.761495018E1,-2.475000143E0,1.861445329E1
9.363574470E-1,5.025000095E0,1.888005066E1,-5.580000401E0,2.031854678E1
9.383205380E-1,3.837000132E0,2.121795082E1,-7.611000538E0,2.286594271E1
9.402839110E-1,1.996950150E0,2.424600029E1,-8.608050346E0,2.580610142E1
9.422463910E-1,4.050000105E-3,2.727405167E1,-9.373950005E0,2.883998699E1
9.442091370E-1,-1.987950087E0,3.022500229E1,-1.021800041E1,3.196733084E1
9.461726300E-1,-3.981000185E0,3.386595154E1,-1.140600014E1,3.595619384E1
9.481359040E-1,-5.821050167E0,3.808200073E1,-1.132905006E1,4.015558218E1
9.500991280E-1,-7.546050549E0,4.206795120E1,-1.140600014E1,4.423519228E1
9.520623670E-1,-9.538950920E0,4.632300186E1,-1.155900097E1,4.868698583E1
9.540257850E-1,-1.141695023E1,5.042400360E1,-1.125195026E1,5.291061591E1
9.559891440E-1,-1.310295105E1,5.375805283E1,-1.086900043E1,5.638927859E1
9.579524890E-1,-1.432995033E1,5.617305374E1,-1.052400017E1,5.891955552E1
9.599158380E-1,-1.471305084E1,5.759100342E1,-1.021800041E1,6.031256148E1
9.618792280E-1,-1.444500065E1,5.820405197E1,-8.799000740E0,6.061181505E1
9.638426050E-1,-1.394595051E1,5.805105209E1,-7.611000538E0,6.018589132E1
9.658058170E-1,-1.344795036E1,5.686305237E1,-6.805950165E0,5.882665256E1
9.677690740E-1,-1.245195103E1,5.475495148E1,-6.040050507E0,5.647688028E1
9.697323440E-1,-1.087995052E1,5.053905106E1,-5.503050327E0,5.198896583E1
9.716956100E-1,-8.734050751E0,4.536405182E1,-5.503050327E0,4.652380469E1
9.736593310E-1,-6.817050457E0,4.053495026E1,-5.887050152E0,4.152362856E1
9.756229180E-1,-5.437950134E0,3.643395233E1,-6.346950531E0,3.738031521E1
9.775861390E-1,-4.555950165E0,3.298500061E1,-6.652950287E0,3.395627622E1
9.795494630E-1,-3.943050146E0,3.003300095E1,-7.075050354E0,3.110603041E1
9.815128570E-1,-3.598050117E0,2.758005142E1,-7.650000572E0,2.884662389E1
9.834762310E-1,-3.253050089E0,2.566395187E1,-8.263050079E0,2.715692835E1
9.854399780E-1,-3.022950172E0,2.397795105E1,-8.646000862E0,2.566775594E1
9.874036150E-1,-2.755050182E0,2.252100182E1,-8.953050613E0,2.439145218E1
9.893672190E-1,-2.371050119E0,2.118000031E1,-9.336000443E0,2.326747077E1
9.913308700E-1,-1.950000048E0,1.999200058E1,-9.681000710E0,2.229807979E1
9.932942550E-1,-1.605000019E0,1.899495125E1,-1.010295010E1,2.157437829E1
9.952577180E-1,-1.260000110E0,1.819005013E1,-1.040895081E1,2.099551811E1
9.972212230E-1,-6.469500065E-1,1.738500023E1,-1.083105087E1,2.049313154E1
9.991847160E-1,-3.019500077E-1,1.669500160E1,-1.125195026E1,2.013505990E1
1.001148090E0,-3.299999982E-2,1.615904999E1,-1.148205090E1,1.982305421E1
1.003111526E0,4.200000316E-2,1.566000080E1,-1.155900097E1,1.946401532E1
1.005074857E0,4.200000316E-2,1.531605053E1,-1.171200085E1,1.928092663E1
1.007038219E0,1.960500032E-1,1.489395046E1,-1.155900097E1,1.885414276E1
1.009002507E0,4.260000288E-1,1.470195103E1,-1.159695053E1,1.873013886E1
1.010966524E0,6.940500140E-1,1.451100063E1,-1.163595009E1,1.861306475E1
1.012929651E0,6.169500351E-1,1.431900024E1,-1.129095078E1,1.824554644E1
1.014893050E0,6.550500393E-1,1.408905029E1,-1.067805004E1,1.769042626E1
1.016856566E0,6.940500140E-1,1.397400093E1,-1.040895081E1,1.743848228E1
1.018820048E0,9.619500637E-1,1.370595074E1,-1.010295010E1,1.705426733E1
1.020783417E0,1.114950061E0,1.359105110E1,-9.796050072E0,1.679054438E1
1.022746819E0,1.192050099E0,1.336095047E1,-9.412950516E0,1.638717847E1
1.024710375E0,1.153950095E0,1.309305096E1,-9.028950691E0,1.594620754E1
1.026673889E0,1.077000022E0,1.286295033E1,-8.416049957E0,1.540926075E1
1.028637432E0,1.077000022E0,1.244100094E1,-6.997950554E0,1.431466889E1
1.030600966E0,8.470500112E-1,1.190400028E1,-6.346950531E0,1.351689674E1
1.032563470E0,6.940500140E-1,1.148295021E1,-6.078000069E0,1.301083917E1
1.034526276E0,3.490500152E-1,1.087005043E1,-5.656950474E0,1.225891190E1
1.036490134E0,-7.200000435E-2,1.018005085E1,-4.966950417E0,1.132736579E1
1.038453673E0,-3.780000210E-1,9.490050316E0,-4.084949970E0,1.033879854E1
1.040417527E0,-5.320500135E-1,8.877000809E0,-3.357000113E0,9.505454767E0
1.042381289E0,-7.620000243E-1,8.416950226E0,-2.820000172E0,8.909438597E0
1.044344970E0,-1.068000078E0,7.842000484E0,-2.092050076E0,8.186224361E0
1.046308675E0,-1.297950029E0,7.152000427E0,-1.402050018E0,7.402805458E0
1.048272026E0,-1.528050065E0,6.424050331E0,-1.171950102E0,6.706476474E0
1.050235497E0,-1.873050094E0,5.619000435E0,-7.890000343E-1,5.975282721E0
1.052199001E0,-2.640000105E0,4.736999989E0,-7.510500550E-1,5.474746170E0
1.054162495E0,-3.445050240E0,3.778950214E0,-7.510500550E-1,5.168453546E0
1.056125682E0,-3.253050089E0,2.974050045E0,-4.060500264E-1,4.426306042E0
1.058088959E0,-2.830950022E0,2.284050226E0,-2.910000086E-1,3.649088169E0
1.060052425E0,-2.448000193E0,1.555950046E0,-3.289500177E-1,2.919228254E0
1.062015822E0,-2.218050003E0,8.280000687E-1,-2.140500098E-1,2.377214197E0
1.063979926E0,-1.987950087E0,2.530499995E-1,-2.520000041E-1,2.019773218E0
1.065943822E0,-1.950000048E0,-1.680000126E-1,-2.140500098E-1,1.968893496E0
1.067906940E0,-1.950000048E0,-5.509500504E-1,-6.105000153E-2,2.027257568E0
1.069870286E0,-1.834950089E0,-9.730500579E-1,1.500000060E-2,2.077039539E0
1.071833661E0,-1.758000135E0,-1.279050112E0,9.195000678E-2,2.176002865E0
1.073797007E0,-1.642950058E0,-1.624050021E0,9.195000678E-2,2.311985763E0
1.075760263E0,-1.297950029E0,-1.893000126E0,9.195000678E-2,2.297080442E0
1.077723545E0,-1.222050071E0,-2.161050081E0,1.300500035E-1,2.486052460E0
1.079686001E0,-1.030050039E0,-2.428950071E0,2.449500114E-1,2.649679611E0
1.081648699E0,-7.230000496E-1,-2.736000061E0,5.899500251E-1,2.890755340E0
1.083612053E0,-4.170000255E-1,-3.004050255E0,9.349500537E-1,3.173694780E0
1.085575192E0,-1.870500147E-1,-3.349050045E0,1.240950108E0,3.576462090E0
1.087538438E0,1.189500093E-1,-3.616950274E0,1.548000097E0,3.936087231E0
1.089501653E0,4.260000288E-1,-3.924000263E0,1.930950046E0,4.394066701E0
1.091465653E0,7.699500322E-1,-4.116000175E0,2.391000032E0,4.821945837E0
1.093429423E0,1.114950061E0,-4.422000408E0,2.736000061E0,5.318166750E0
1.095392558E0,1.269000053E0,-4.614000320E0,3.004050255E0,5.650104249E0
1.097355882E0,1.422000051E0,-4.882050037E0,3.273000240E0,6.047233027E0
1.099319097E0,1.690050125E0,-5.074050426E0,3.618000269E0,6.456948436E0
1.101282344E0,1.996950150E0,-5.341950417E0,3.886050224E0,6.901132552E0
1.103245706E0,2.149950027E0,-5.610000134E0,4.153950214E0,7.304087144E0
1.105209034E0,2.380050182E0,-5.802000046E0,4.308000088E0,7.608331496E0
1.107172234E0,2.533950090E0,-5.917050362E0,4.537950039E0,7.875619252E0
1.109135483E0,2.686950207E0,-6.031950474E0,4.806000233E0,8.167114923E0
1.111098710E0,2.802000046E0,-6.109050274E0,5.035950184E0,8.398362564E0
1.113061944E0,3.070050240E0,-6.184950352E0,5.419050217E0,8.777523830E0
1.115025039E0,3.070050240E0,-6.223950386E0,5.917050362E0,9.119991878E0
1.116988175E0,2.839950085E0,-6.184950352E0,6.070950508E0,9.120053038E0
1.118951616E0,2.610000134E0,-5.994000435E0,6.070950508E0,8.921691655E0
1.120914957E0,2.380050182E0,-5.802000046E0,6.223950386E0,8.835462739E0
1.122878710E0,2.035050154E0,-5.533950329E0,6.376950264E0,8.685132701E0
1.124842342E0,1.804950118E0,-5.227050304E0,6.415950298E0,8.470201771E0
1.126805866E0,1.537050128E0,-4.882050037E0,6.492000103E0,8.266982581E0
1.128769421E0,1.422000051E0,-4.651950359E0,6.415950298E0,8.051530570E0
1.130732961E0,1.306950092E0,-4.384050369E0,6.376950264E0,7.848153340E0
1.132696502E0,1.345050097E0,-4.192049980E0,6.339000225E0,7.717860238E0
1.134659814E0,1.384050012E0,-3.886050224E0,6.339000225E0,7.563061856E0
1.136623194E0,1.345050097E0,-3.694050074E0,6.301050186E0,7.426870078E0
1.138586623E0,1.537050128E0,-3.579000235E0,6.186000347E0,7.310154996E0
1.140550038E0,1.575000048E0,-3.310950041E0,6.109050274E0,7.124851618E0
1.142513548E0,1.575000048E0,-3.118950129E0,5.994000435E0,6.938048448E0
1.144477033E0,1.537050128E0,-2.851050138E0,5.764050484E0,6.611753774E0
1.146440222E0,1.498950124E0,-2.581950188E0,5.533950329E0,6.287918931E0
1.148403497E0,1.422000051E0,-2.428950071E0,5.227050304E0,5.936660465E0
1.150367080E0,1.422000051E0,-2.275950193E0,4.729050159E0,5.437457939E0
1.152330572E0,1.384050012E0,-2.122950077E0,4.269000053E0,4.964561705E0
1.154293755E0,1.306950092E0,-1.969050050E0,3.847950220E0,4.515749942E0
1.156257031E0,1.230000019E0,-1.816050053E0,3.388050079E0,4.036065062E0
1.158220074E0,1.192050099E0,-1.585950017E0,3.043050051E0,3.632681449E0
1.160183185E0,1.077000022E0,-1.393950105E0,2.583000183E0,3.126486189E0
1.162146481E0,1.114950061E0,-1.203000069E0,2.200050116E0,2.744183542E0
1.164109722E0,1.114950061E0,-1.048950076E0,1.740000129E0,2.317544034E0
1.166073296E0,1.153950095E0,-8.580000401E-1,1.279950023E0,1.925106997E0
1.168036783E0,1.192050099E0,-7.039500475E-1,7.429500222E-1,1.571147302E0
1.170000691E0,1.269000053E0,-5.509500504E-1,1.300500035E-1,1.389539527E0
1.171964476E0,1.306950092E0,-3.979500234E-1,-4.819500148E-1,1.448709281E0
1.173927612E0,1.306950092E0,-2.440500110E-1,-1.210950017E0,1.798354497E0
1.175890939E0,1.345050097E0,-1.290000081E-1,-1.861950040E0,2.300577909E0
1.177853305E0,1.384050012E0,-1.500000060E-2,-2.437050104E0,2.802683115E0
1.179815915E0,1.422000051E0,1.759500057E-1,-3.088950157E0,3.405092601E0
1.181779251E0,1.422000051E0,4.440000355E-1,-3.664050102E0,3.955310775E0
1.183742375E0,1.422000051E0,7.129500508E-1,-4.162050247E0,4.455675502E0
1.185705804E0,1.384050012E0,1.018950105E0,-4.660050392E0,4.966882665E0
1.187669144E0,1.422000051E0,1.326000094E0,-5.043000221E0,5.404832248E0
1.189632516E0,1.459950089E0,1.633050084E0,-5.350050449E0,5.781119844E0
1.191595861E0,1.459950089E0,1.978050113E0,-5.580000401E0,6.097584848E0
1.193559118E0,1.422000051E0,2.284050226E0,-5.580000401E0,6.194786037E0
1.195522401E0,1.384050012E0,2.514000177E0,-5.656950474E0,6.343254684E0
1.197485623E0,1.345050097E0,2.821050167E0,-5.427000046E0,6.262572419E0
1.199448863E0,1.269000053E0,3.088950157E0,-4.966950417E0,5.985195957E0
1.201412281E0,1.077000022E0,3.241950035E0,-4.468050003E0,5.624379069E0
1.203375640E0,7.320000529E-1,3.433950186E0,-3.970050097E0,5.299918464E0
1.205338129E0,2.719500065E-1,3.586950064E0,-3.510000229E0,5.025959528E0
1.207300873E0,-2.250000089E-1,3.741000175E0,-3.127050161E0,4.880998876E0
1.209264502E0,-8.380500674E-1,3.817050219E0,-2.896950245E0,4.864619308E0
1.211227871E0,-1.375050068E0,3.894000292E0,-2.551950216E0,4.854528903E0
1.213191248E0,-1.873050094E0,3.970950127E0,-2.130000114E0,4.879924390E0
1.215154630E0,-2.256000042E0,4.009050369E0,-1.516950130E0,4.843878482E0
1.217117701E0,-2.524950027E0,4.009050369E0,-5.970000029E-1,4.775381295E0
1.219080863E0,-2.677950144E0,4.047000408E0,4.750500321E-1,4.875992392E0
1.221044239E0,-2.755050182E0,4.123950005E0,1.740000129E0,5.255936224E0
1.223007553E0,-2.793000221E0,4.276950359E0,3.234000206E0,6.045817723E0
1.224970935E0,-2.793000221E0,4.468950272E0,4.996950150E0,7.262360330E0
1.226934307E0,-2.946000099E0,4.813950062E0,7.105050564E0,9.073851183E0
1.228897919E0,-3.022950172E0,5.235000134E0,9.712050438E0,1.143972805E1
1.230861461E0,-3.061050177E0,5.656950474E0,1.254795074E1,1.410043208E1
1.232825134E0,-2.869950056E0,6.193950176E0,1.526895046E1,1.672550389E1
1.234788769E0,-2.448000193E0,6.691950321E0,1.756905174E1,1.895907390E1
1.236752316E0,-1.834950089E0,7.305000305E0,1.883400154E1,2.028422257E1
1.238715872E0,-1.106999993E0,7.918050289E0,1.914000130E1,2.074272448E1
1.240679451E0,-3.019500077E-1,8.608050346E0,1.833495140E1,2.025734799E1
1.242643023E0,4.260000288E-1,9.565950394E0,1.657200050E1,1.913949016E1
1.244607232E0,1.192050099E0,1.071600056E1,1.400400066E1,1.767387015E1
1.246571254E0,1.920000076E0,1.221105099E1,1.097700024E1,1.653150630E1
1.248534531E0,2.725050211E0,1.405095100E1,7.872000217E0,1.633473325E1
1.250498026E0,3.070050240E0,1.642695045E1,4.384050369E0,1.727685757E1
1.252462337E0,3.108000040E0,1.911000061E1,3.600000143E-1,1.936443615E1
1.254426408E0,2.878050089E0,2.221500015E1,-3.664050102E0,2.269834063E1
1.256390172E0,2.227050066E0,2.497395134E1,-7.726050377E0,2.623642224E1
1.258354026E0,1.729050040E0,2.723505211E1,-1.113705063E1,2.947493128E1
1.260317726E0,1.422000051E0,2.976495171E1,-1.297695065E1,3.250193352E1
1.262281478E0,1.306950092E0,3.264000320E1,-1.332195091E1,3.527821288E1
1.264245115E0,1.077000022E0,3.559095001E1,-1.209600067E1,3.760570281E1
1.266208786E0,1.269000053E0,3.888705063E1,-1.010295010E1,4.019804309E1
1.268172347E0,2.533950090E0,4.218300247E1,-7.726050377E0,4.295949784E1
1.270135940E0,4.564949989E0,4.429095078E1,-5.772000313E0,4.489814113E1
1.272099440E0,6.826050282E0,4.371600342E1,-5.158050060E0,4.454536337E1
1.274062988E0,9.433050156E0,4.141695023E1,-4.200000286E0,4.268473033E1
1.276026524E0,1.150200081E1,3.896400070E1,-3.204000235E0,4.075236178E1
1.277990064E0,1.261395073E1,3.704700089E1,-3.012000084E0,3.925129516E1
1.279953602E0,1.215405083E1,3.570600128E1,-3.319050074E0,3.786364447E1
1.281917141E0,1.000695038E1,3.447900009E1,-4.047000408E0,3.612919478E1
1.283880828E0,6.634950161E0,3.317595291E1,-5.388000488E0,3.425926100E1
1.285844461E0,2.572050095E0,3.160500145E1,-6.460950375E0,3.236101726E1
1.287807263E0,-1.297950029E0,2.953500175E1,-6.805950165E0,3.033680867E1
1.289770309E0,-4.210950375E0,2.754195213E1,-7.075050354E0,2.874626181E1
1.291733751E0,-5.859000206E0,2.566395187E1,-7.150950432E0,2.727824044E1
1.293697077E0,-6.625950336E0,2.428395081E1,-7.150950432E0,2.616772013E1
1.295660670E0,-6.817050457E0,2.321100044E1,-7.189950466E0,2.523723650E1
1.297624172E0,-6.702000141E0,2.225295067E1,-7.495950222E0,2.441925243E1
1.299587538E0,-6.396000385E0,2.152500153E1,-7.534950256E0,2.368564939E1
1.301550944E0,-6.166050434E0,2.091105080E1,-7.650000572E0,2.310443101E1
1.303514325E0,-6.127950191E0,2.049000168E1,-7.534950256E0,2.267526004E1
1.305477713E0,-6.319050312E0,2.022105026E1,-7.150950432E0,2.235972635E1
1.307441127E0,-6.586950302E0,1.999200058E1,-6.805950165E0,2.212213731E1
1.309404543E0,-6.970950127E0,1.980000114E1,-6.385050297E0,2.194089921E1
1.311367698E0,-7.392000198E0,1.953195000E1,-6.040050507E0,2.173984700E1
1.313330930E0,-7.699050426E0,1.933995056E1,-6.040050507E0,2.167466898E1
1.315294160E0,-8.236050606E0,1.907205009E1,-6.346950531E0,2.172232505E1
1.317257391E0,-8.503950119E0,1.872705078E1,-6.805950165E0,2.166426911E1
1.319220962E0,-8.619000435E0,1.842000008E1,-7.611000538E0,2.171430175E1
1.321184447E0,-8.619000435E0,1.807500076E1,-8.683950424E0,2.182667671E1
1.323148040E0,-8.503950119E0,1.769205093E1,-9.412950516E0,2.176992125E1
1.325111601E0,-8.389050484E0,1.730895042E1,-9.643050194E0,2.151660637E1
1.327075271E0,-8.503950119E0,1.692495155E1,-9.834000587E0,2.134194743E1
1.329038909E0,-8.542050362E0,1.657995033E1,-9.489000320E0,2.092612015E1
1.331002451E0,-8.542050362E0,1.623495102E1,-9.028950691E0,2.044656963E1
1.332966007E0,-8.503950119E0,1.592895031E1,-8.455050468E0,1.993831748E1
1.334929542E0,-8.464950562E0,1.562205029E1,-7.879950523E0,1.943701272E1
1.336893084E0,-8.464950562E0,1.535400105E1,-7.342950344E0,1.900841014E1
1.338856486E0,-8.427000046E0,1.520100117E1,-6.805950165E0,1.866562948E1
1.340819930E0,-8.274000168E0,1.512405109E1,-5.809950352E0,1.819207309E1
1.342783474E0,-8.082000732E0,1.497105026E1,-5.005050182E0,1.773419322E1
1.344746995E0,-7.966950417E0,1.485600090E1,-4.507050037E0,1.744954331E1
1.346710357E0,-7.852050304E0,1.466400051E1,-4.123950005E0,1.713751933E1
1.348673766E0,-7.660950184E0,1.454895115E1,-3.739950180E0,1.686266185E1
1.350637146E0,-7.699050426E0,1.443405056E1,-3.357000113E0,1.669989948E1
1.352600535E0,-7.584000587E0,1.451100063E1,-2.667000055E0,1.658912576E1
1.354563914E0,-7.468950272E0,1.443405056E1,-2.169000149E0,1.639608476E1
1.356527299E0,-7.354050159E0,1.431900024E1,-1.824000120E0,1.620008636E1
1.358490998E0,-7.276950359E0,1.428105068E1,-1.326000094E0,1.608293168E1
1.360454605E0,-7.201050282E0,1.420395088E1,-1.096050024E0,1.596272757E1
1.362418312E0,-7.239000320E0,1.428105068E1,-1.171950102E0,1.605381579E1
1.364381990E0,-7.276950359E0,1.431900024E1,-1.249050021E0,1.611049039E1
1.366345346E0,-7.315950394E0,1.431900024E1,-1.441050053E0,1.614414827E1
1.368308814E0,-7.392000198E0,1.428105068E1,-1.555950046E0,1.615583659E1
1.370272364E0,-7.392000198E0,1.416600037E1,-1.594050050E0,1.605796466E1
1.372235889E0,-7.315950394E0,1.405095100E1,-1.287000060E0,1.589366929E1
1.374199386E0,-7.201050282E0,1.401195049E1,-1.287000060E0,1.580652558E1
1.376162891E0,-6.931950092E0,1.393605042E1,-1.171950102E0,1.560893655E1
1.378126620E0,-6.702000141E0,1.385895061E1,-9.420000315E-1,1.542318651E1
1.380090279E0,-6.433950424E0,1.382100105E1,-5.590500236E-1,1.525543592E1
1.382053663E0,-6.127950191E0,1.378200054E1,-9.900000691E-2,1.508327264E1
1.384017127E0,-5.935950279E0,1.374405098E1,9.195000678E-2,1.497140267E1
1.385979552E0,-5.629050255E0,1.362900066E1,2.830500007E-1,1.474842307E1
1.387942281E0,-5.361000061E0,1.351395035E1,3.979500234E-1,1.454391762E1
1.389906868E0,-4.978050232E0,1.332300091E1,2.449500114E-1,1.422474386E1
1.391870904E0,-4.633050442E0,1.297800064E1,-1.369500011E-1,1.378087125E1
1.393834178E0,-4.210950375E0,1.247895050E1,-5.590500236E-1,1.318214116E1
1.395797675E0,-3.790050268E0,1.190400028E1,-9.810000658E-1,1.253124355E1
1.397761220E0,-3.559950113E0,1.132905006E1,-1.555950046E0,1.197671076E1
1.399724750E0,-3.367950201E0,1.075500011E1,-2.092050076E0,1.146253853E1
1.401688170E0,-3.291000128E0,1.014105034E1,-2.359950066E0,1.091975037E1
1.403651612E0,-3.291000128E0,9.643050194E0,-2.284050226E0,1.044202970E1
1.405614987E0,-3.520950079E0,9.145050049E0,-1.671000123E0,9.940888857E0
1.407578381E0,-3.675000191E0,8.761950493E0,-5.970000029E-1,9.520179192E0
1.409540863E0,-3.828000069E0,8.569950104E0,6.660000086E-1,9.409632581E0
1.411503612E0,-3.828000069E0,8.455050468E0,1.510050058E0,9.403282093E0
1.413466945E0,-3.675000191E0,8.455050468E0,2.161050081E0,9.469088778E0
1.415430092E0,-3.138000250E0,8.302050591E0,3.463950157E0,9.527331225E0
1.417393517E0,-2.716050148E0,8.340000153E0,4.308000088E0,9.771969899E0
1.419356861E0,-1.834950089E0,8.224950790E0,5.188950062E0,9.896568096E0
1.421320568E0,-7.620000243E-1,8.148000717E0,6.147000313E0,1.023504629E1
1.423284169E0,1.960500032E-1,8.148000717E0,6.952050209E0,1.071257921E1
1.425248223E0,1.077000022E0,8.187000275E0,7.756950378E0,1.132948285E1
1.427212154E0,2.035050154E0,8.071949959E0,8.715000153E0,1.205193067E1
1.429175491E0,2.955000162E0,7.803000450E0,9.442950249E0,1.260111707E1
1.431139002E0,3.645000219E0,7.573050499E0,1.001805019E1,1.307663757E1
1.433102500E0,4.297049999E0,7.075050354E0,1.017195034E1,1.311447864E1
1.435066002E0,4.795050144E0,6.424050331E0,9.787950516E0,1.265167593E1
1.437029392E0,5.293050289E0,5.580000401E0,9.098999977E0,1.191404996E1
1.438992829E0,5.868000507E0,4.736999989E0,8.025000572E0,1.101241268E1
1.440956159E0,6.213000298E0,4.123950005E0,7.335000515E0,1.045995071E1
1.442919521E0,6.520050526E0,3.433950186E0,6.568950176E0,9.871888328E0
1.444882954E0,6.787950516E0,2.706000090E0,5.802000046E0,9.330697360E0
1.446846366E0,6.903000355E0,2.016000032E0,5.227050304E0,8.890316356E0
1.448809556E0,7.132950306E0,1.210950017E0,4.882050037E0,8.728103607E0
1.450772819E0,7.132950306E0,5.980500579E-1,4.498950005E0,8.454418672E0
1.452737305E0,7.248000145E0,-5.295000225E-2,4.308000088E0,8.431795453E0
1.454701433E0,7.401000500E0,-4.740000367E-1,4.039050102E0,8.444726766E0
1.456665187E0,7.669050217E0,-1.203000069E0,3.886050224E0,8.681182335E0
1.458629050E0,7.975950241E0,-1.969050050E0,3.655950069E0,8.992158320E0
1.460592388E0,8.128950119E0,-2.506050110E0,3.388050079E0,9.156363936E0
1.462555887E0,8.282999992E0,-3.118950129E0,3.234000206E0,9.423093765E0
1.464519252E0,8.282999992E0,-3.579000235E0,3.157950163E0,9.559810709E0
1.466482656E0,8.167950630E0,-3.961950302E0,3.004050255E0,9.562258396E0
1.468446038E0,7.899000168E0,-4.231050014E0,2.736000061E0,9.369188023E0
1.470409426E0,7.783950329E0,-4.537050247E0,2.391000032E0,9.321565792E0
1.472372619E0,7.708050251E0,-4.920000076E0,1.893000126E0,9.338302249E0
1.474335877E0,7.554000378E0,-5.265000343E0,1.548000097E0,9.336993875E0
1.476299417E0,7.363050461E0,-5.725050449E0,1.050000072E0,9.385798575E0
1.478262875E0,7.171050549E0,-5.994000435E0,6.660000086E-1,9.369928665E0
1.480226293E0,6.940950394E0,-6.223950386E0,4.360500276E-1,9.332978646E0
1.482189723E0,6.750000477E0,-6.454050541E0,4.750500321E-1,9.351093378E0
1.484153031E0,6.442950249E0,-6.684000492E0,4.360500276E-1,9.293955569E0
1.486116392E0,6.136050224E0,-6.874950409E0,4.750500321E-1,9.227227537E0
1.488079600E0,5.752950191E0,-7.066950321E0,6.280500293E-1,9.134148542E0
1.490042853E0,5.331000328E0,-7.219950199E0,8.200500607E-1,9.012198815E0
1.492005719E0,4.833000183E0,-7.182000160E0,1.126049995E0,8.729662403E0
1.493968699E0,4.219950199E0,-7.066950321E0,1.395000100E0,8.348400554E0
1.495931647E0,3.529950142E0,-6.684000492E0,1.548000097E0,7.715744610E0
1.497894612E0,2.610000134E0,-6.070050240E0,1.624950051E0,6.804268754E0
1.499857662E0,1.690050125E0,-5.227050304E0,1.663050056E0,5.739691612E0
1.501820687E0,1.153950095E0,-4.461000443E0,1.663050056E0,4.898761196E0
1.503783098E0,7.320000529E-1,-3.771000147E0,1.510050058E0,4.127531631E0
1.505745689E0,5.410500169E-1,-3.196050167E0,1.432950020E0,3.544124370E0
1.507709538E0,5.410500169E-1,-2.697000027E0,1.203000069E0,3.002291363E0
1.509673009E0,5.020500422E-1,-2.314050198E0,1.011000037E0,2.574685153E0
1.511637145E0,5.410500169E-1,-1.854000092E0,8.200500607E-1,2.098221524E0
1.513601086E0,5.790000558E-1,-1.471050024E0,6.280500293E-1,1.701080856E0
1.515564331E0,6.940500140E-1,-1.126049995E0,5.509500504E-1,1.432913107E0
1.517527780E0,7.320000529E-1,-8.190000653E-1,3.979500234E-1,1.168310492E0
1.519491000E0,7.699500322E-1,-5.509500504E-1,4.750500321E-1,1.059264624E0
1.521454300E0,8.089500666E-1,-2.830500007E-1,7.050000429E-1,1.109748879E0
1.523417833E0,9.619500637E-1,-1.290000081E-1,9.349500537E-1,1.347635162E0
1.525381298E0,1.114950061E0,-9.105000645E-2,1.240950108E0,1.670736637E0
1.527343949E0,1.230000019E0,2.295000106E-2,1.471050024E0,1.917658709E0
1.529306838E0,1.306950092E0,9.900000691E-2,1.510050058E0,1.999542629E0
1.531270182E0,1.422000051E0,1.380000114E-1,1.624950051E0,2.163698412E0
1.533233385E0,1.614000082E0,2.910000086E-1,1.663050056E0,2.335682503E0
1.535196801E0,1.804950118E0,3.289500177E-1,1.510050058E0,2.376195325E0
1.537160154E0,1.996950150E0,3.679500222E-1,1.471050024E0,2.507426029E0
1.539123860E0,2.227050066E0,4.060500264E-1,1.395000100E0,2.659070119E0
1.541087462E0,2.341950178E0,5.209500194E-1,1.165050030E0,2.667107259E0
1.543051069E0,2.494950056E0,5.590500236E-1,8.200500607E-1,2.685106108E0
1.545014651E0,2.610000134E0,6.360000372E-1,6.280500293E-1,2.758811988E0
1.546979262E0,2.686950207E0,7.510500550E-1,3.600000143E-1,2.813072628E0
1.548943572E0,2.802000046E0,8.659500480E-1,1.300500035E-1,2.935640773E0
1.550907294E0,2.878050089E0,9.810000658E-1,-6.105000153E-2,3.041259697E0
1.552871189E0,3.070050240E0,1.134000063E0,-2.140500098E-1,3.279783838E0
1.554834315E0,3.147000074E0,1.326000094E0,-2.520000041E-1,3.424235640E0
1.556797660E0,3.262050152E0,1.441050053E0,-3.670500219E-1,3.585013552E0
1.558760871E0,3.300000191E0,1.555950046E0,-3.289500177E-1,3.663221249E0
1.560724121E0,3.453000069E0,1.671000123E0,-3.289500177E-1,3.850150516E0
1.562687393E0,3.607050180E0,1.708950043E0,-3.670500219E-1,4.008247369E0
1.564650658E0,3.798000097E0,1.824000120E0,-4.060500264E-1,4.232807319E0
1.566614169E0,3.874950171E0,1.978050113E0,-5.209500194E-1,4.381701724E0
1.568577629E0,4.182000160E0,2.053950071E0,-3.289500177E-1,4.670764857E0
1.570540506E0,4.411950111E0,2.245950222E0,2.070000172E-1,4.955042401E0
1.572503554E0,4.603050232E0,2.514000177E0,1.011000037E0,5.341384596E0
1.574467491E0,4.642050266E0,2.859000206E0,1.930950046E0,5.783690944E0
1.576431167E0,4.564949989E0,3.280950069E0,3.463950157E0,6.603207740E0
1.578394182E0,4.335000038E0,3.741000175E0,5.419050217E0,7.883743584E0
1.580357395E0,3.952050209E0,4.354050159E0,7.795050144E0,9.764182526E0
1.582320808E0,3.415050268E0,4.966950417E0,1.028700066E1,1.192290012E1
1.584284162E0,2.839950085E0,5.619000435E0,1.235595036E1,1.386751570E1
1.586247508E0,2.380050182E0,6.385050297E0,1.381305027E1,1.540239799E1
1.588210856E0,1.843950033E0,7.228050232E0,1.427295113E1,1.610471967E1
1.590174413E0,1.345050097E0,8.224950790E0,1.362105083E1,1.596846897E1
1.592137918E0,1.306950092E0,9.106050491E0,1.204995060E1,1.516013138E1
1.594101148E0,1.459950089E0,1.006500053E1,9.520050049E0,1.393079477E1
1.596064459E0,1.804950118E0,1.113795090E1,6.376950264E0,1.296060530E1
1.598028576E0,1.882050037E0,1.240305042E1,2.545050144E0,1.280058797E1
1.599992457E0,1.498950124E0,1.355205059E1,-1.824000120E0,1.375615873E1
1.601954856E0,8.470500112E-1,1.485600090E1,-6.193050385E0,1.611744798E1
1.603917690E0,-5.700000525E-1,1.638899994E1,-1.014105034E1,1.928121161E1
1.605880807E0,-2.640000105E0,1.884195137E1,-1.301595020E1,2.305219494E1
1.607843841E0,-4.900950432E0,2.183100128E1,-1.393500042E1,2.635898649E1
1.609807421E0,-7.123950481E0,2.524200058E1,-1.320705032E1,2.936554856E1
1.611770841E0,-8.809950829E0,2.880705070E1,-1.148205090E1,3.223815902E1
1.613734216E0,-1.003695011E1,3.283095169E1,-9.373950005E0,3.558767617E1
1.615697608E0,-1.080300045E1,3.754605103E1,-6.921000481E0,3.967758831E1
1.617661171E0,-1.114800072E1,4.187700272E1,-5.580000401E0,4.369322237E1
1.619624683E0,-1.191495037E1,4.593900299E1,-6.232050419E0,4.786644431E1
1.621588271E0,-1.237500095E1,4.942695236E1,-7.075050354E0,5.144142889E1
1.623551836E0,-1.260495090E1,5.214795303E1,-7.879950523E0,5.422533922E1
1.625515326E0,-1.298805046E1,5.487000275E1,-8.761050224E0,5.706279574E1
1.627478838E0,-1.241295052E1,5.724600220E1,-9.220950127E0,5.929765619E1
1.629442246E0,-1.153200054E1,5.881695175E1,-8.530950546E0,6.054087848E1
1.631405685E0,-1.076505089E1,5.908605194E1,-7.420050144E0,6.051532863E1
1.633369194E0,-9.385050774E0,5.762895203E1,-6.883050442E0,5.879244571E1
1.635332683E0,-7.431000233E0,5.483100128E1,-7.266000271E0,5.580728650E1
1.637296275E0,-5.208000183E0,5.073000336E1,-7.611000538E0,5.156145688E1
1.639259837E0,-2.908050060E0,4.601595306E1,-7.342950344E0,4.668879535E1
1.641223372E0,-1.144950032E0,4.172295380E1,-6.997950554E0,4.232123694E1
1.643186915E0,-1.099500060E-1,3.827400208E1,-6.768000126E0,3.886794501E1
1.645151128E0,3.490500152E-1,3.516900253E1,-6.883050442E0,3.583792626E1
1.647115144E0,7.699500322E-1,3.244800186E1,-7.381050587E0,3.328581613E1
1.649078430E0,1.230000019E0,3.018705177E1,-7.687950134E0,3.117491896E1
1.651041924E0,1.498950124E0,2.823195076E1,-7.650000572E0,2.928843464E1
1.653005335E0,2.035050154E0,2.658405113E1,-7.458000183E0,2.768528437E1
1.654968771E0,2.610000134E0,2.493600082E1,-7.420050144E0,2.614714864E1
1.656932281E0,3.147000074E0,2.344095039E1,-7.381050587E0,2.477623201E1
1.658895769E0,3.645000219E0,2.202300072E1,-7.726050377E0,2.362182130E1
1.660859500E0,4.066950321E0,2.071995163E1,-8.110050201E0,2.261922622E1
1.662823157E0,4.411950111E0,1.960800171E1,-8.416049957E0,2.178919300E1
1.664786676E0,4.795050144E0,1.861200142E1,-8.838000298E0,2.115441684E1
1.666750236E0,4.909950256E0,1.773000145E1,-9.106050491E0,2.052755997E1
1.668713456E0,4.795050144E0,1.707900047E1,-9.451050758E0,2.009992844E1
1.670676775E0,4.680000305E0,1.654200172E1,-9.757950783E0,1.976759539E1
1.672640140E0,4.411950111E0,1.612005043E1,-1.006395054E1,1.950908583E1
1.674603480E0,3.952050209E0,1.577505112E1,-1.048605061E1,1.935014718E1
1.676566917E0,3.529950142E0,1.550700092E1,-1.063905048E1,1.913418461E1
1.678530326E0,3.262050152E0,1.512405109E1,-1.063905048E1,1.877677523E1
1.680493887E0,2.802000046E0,1.493205070E1,-1.037100029E1,1.839497185E1
1.682457403E0,2.457000017E0,1.466400051E1,-9.834000587E0,1.782630998E1
1.684421091E0,2.111999989E0,1.439595032E1,-9.220950127E0,1.722584833E1
1.686384721E0,1.767000079E0,1.416600037E1,-8.455050468E0,1.659173692E1
1.688347929E0,1.614000082E0,1.370595074E1,-7.534950256E0,1.572366234E1
1.690311261E0,1.345050097E0,1.320795059E1,-6.576000214E0,1.481563017E1
1.692274789E0,1.306950092E0,1.270905018E1,-5.542050362E0,1.392632030E1
1.694238259E0,1.269000053E0,1.201905060E1,-4.507050037E0,1.289889292E1
1.696201621E0,1.306950092E0,1.117605019E1,-3.586950064E0,1.181009852E1
1.698165021E0,1.498950124E0,1.041000080E1,-3.049950123E0,1.095066956E1
1.700128763E0,1.767000079E0,9.604950905E0,-2.820000172E0,1.016512529E1
1.702092404E0,2.074050188E0,8.685000420E0,-2.322000027E0,9.226191012E0
1.704055791E0,2.265000105E0,7.842000484E0,-1.671000123E0,8.331832841E0
1.706019252E0,2.572050095E0,6.997950554E0,-1.134000063E0,7.541399723E0
1.707982807E0,2.380050182E0,6.270000458E0,-7.510500550E-1,6.748453215E0
1.709946331E0,2.035050154E0,5.580000401E0,-5.590500236E-1,5.965766550E0
1.711909693E0,1.767000079E0,4.929000378E0,-6.360000372E-1,5.274640277E0
1.713873102E0,1.384050012E0,4.354050159E0,-7.510500550E-1,4.630056524E0
1.715836662E0,1.192050099E0,3.702000141E0,-7.510500550E-1,3.961043381E0
1.717800177E0,8.470500112E-1,3.166050196E0,-6.739500165E-1,3.345979107E0
1.719762609E0,5.790000558E-1,2.629050016E0,-4.060500264E-1,2.722502833E0
1.721725348E0,4.200000316E-2,2.245950222E0,-2.205000073E-2,2.246451113E0
1.723688167E0,-3.400500119E-1,1.939050078E0,6.660000086E-1,2.078245709E0
1.725650962E0,-5.700000525E-1,1.594050050E0,1.318050027E0,2.145495629E0
1.727614628E0,-1.030050039E0,1.249050021E0,1.777950048E0,2.404627916E0
1.729578039E0,-1.297950029E0,8.280000687E-1,2.353049994E0,2.811957088E0
1.731541705E0,-1.489950061E0,4.440000355E-1,2.851050138E0,3.247394973E0
1.733505317E0,-1.681950092E0,2.295000106E-2,2.928000212E0,3.376783685E0
1.735469204E0,-1.795950055E0,-2.059500068E-1,2.889000177E0,3.407957457E0
1.737433010E0,-1.987950087E0,-3.979500234E-1,2.773950100E0,3.435856360E0
1.739396323E0,-1.681950092E0,-1.011000037E0,2.275950193E0,3.005166630E0
1.741359781E0,-1.642950058E0,-1.471050024E0,1.740000129E0,2.809069866E0
1.743323198E0,-1.260000110E0,-1.854000092E0,1.395000100E0,2.640254135E0
1.745286627E0,-1.068000078E0,-2.238000154E0,1.087950110E0,2.707933585E0
1.747250904E0,-8.770500422E-1,-2.697000027E0,5.130000114E-1,2.882047004E0
1.749214933E0,-5.700000525E-1,-3.081000090E0,2.830500007E-1,3.146041785E0
1.751178388E0,-3.780000210E-1,-3.387000084E0,2.830500007E-1,3.419761817E0
1.753142012E0,-7.200000435E-2,-3.771000147E0,1.680000126E-1,3.775427143E0
1.755104770E0,1.960500032E-1,-4.116000175E0,2.449500114E-1,4.127940595E0
1.757067781E0,5.020500422E-1,-4.422000408E0,4.360500276E-1,4.471720193E0
1.759031769E0,7.320000529E-1,-4.767000198E0,5.509500504E-1,4.854241540E0
1.760995471E0,1.039050102E0,-5.149950027E0,5.509500504E-1,5.282533138E0
1.762958487E0,1.422000051E0,-5.419050217E0,5.509500504E-1,5.629541309E0
1.764921704E0,1.767000079E0,-5.725050449E0,6.660000086E-1,6.028436608E0
1.766884877E0,2.111999989E0,-5.917050362E0,6.280500293E-1,6.313990479E0
1.768848074E0,2.341950178E0,-6.070050240E0,6.280500293E-1,6.536412425E0
1.770812256E0,2.341950178E0,-6.109050274E0,4.360500276E-1,6.557085138E0
1.772776149E0,2.149950027E0,-6.031950474E0,2.830500007E-1,6.409900853E0
1.774739447E0,1.959000111E0,-5.955000401E0,1.680000126E-1,6.271198865E0
1.776702920E0,1.690050125E0,-5.878950119E0,9.195000678E-2,6.117742944E0
1.778666259E0,1.422000051E0,-5.725050449E0,-6.105000153E-2,5.899323173E0
1.780629627E0,1.269000053E0,-5.649000168E0,-1.759500057E-1,5.792453922E0
1.782592699E0,1.039050102E0,-5.380050182E0,-2.140500098E-1,5.483646824E0
1.784555858E0,6.940500140E-1,-5.188950062E0,-1.759500057E-1,5.238116701E0
1.786518515E0,4.639500082E-1,-4.959000111E0,-2.205000073E-2,4.980704560E0
1.788481319E0,3.109500110E-1,-4.729050159E0,9.195000678E-2,4.740154019E0
1.790444108E0,2.340000123E-1,-4.461000443E0,3.600000143E-1,4.481615888E0
1.792406914E0,1.960500032E-1,-4.306950092E0,6.660000086E-1,4.362546357E0
1.794370353E0,1.570500135E-1,-4.116000175E0,1.165050030E0,4.280591516E0
1.796333606E0,2.340000123E-1,-3.961950302E0,1.585950017E0,4.273996216E0
1.798297194E0,2.719500065E-1,-3.771000147E0,2.046000004E0,4.298896943E0
1.800260683E0,2.719500065E-1,-3.655950069E0,2.773950100E0,4.597252100E0
1.802224051E0,1.960500032E-1,-3.463950157E0,3.157950163E0,4.691485429E0
1.804187454E0,1.189500093E-1,-3.234000206E0,3.463950157E0,4.740449043E0
1.806150520E0,8.100000024E-2,-3.042000055E0,3.771000147E0,4.845695765E0
1.808113685E0,8.100000024E-2,-2.812050104E0,3.963000298E0,4.859995694E0
1.810077241E0,8.100000024E-2,-2.544000149E0,4.116000175E0,4.839416825E0
1.812040683E0,1.189500093E-1,-2.275950193E0,4.153950214E0,4.738079861E0
1.814003582E0,1.960500032E-1,-2.083950043E0,4.192950249E0,4.686375484E0
1.815966627E0,2.340000123E-1,-1.816050053E0,4.153950214E0,4.539614101E0
1.817929889E0,2.340000123E-1,-1.509000063E0,4.192950249E0,4.462361369E0
1.819893087E0,2.719500065E-1,-1.240950108E0,4.269000053E0,4.454017898E0
1.821856279E0,4.260000288E-1,-1.011000037E0,4.576050282E0,4.705723460E0
1.823819473E0,3.870000243E-1,-7.429500222E-1,4.768050194E0,4.841079054E0
1.825782589E0,3.870000243E-1,-4.740000367E-1,4.806000233E0,4.844799613E0
1.827745718E0,4.260000288E-1,-2.059500068E-1,4.843950272E0,4.867005821E0
1.829708965E0,4.639500082E-1,-9.105000645E-2,4.843950272E0,4.866969688E0
1.831672178E0,5.790000558E-1,2.295000106E-2,4.882050037E0,4.916317762E0
1.833635052E0,6.550500393E-1,2.530499995E-1,4.806000233E0,4.857032334E0
1.835598026E0,5.410500169E-1,5.209500194E-1,4.843950272E0,4.901834175E0
1.837561069E0,5.020500422E-1,7.890000343E-1,4.768050194E0,4.858896783E0
1.839524096E0,4.639500082E-1,9.810000658E-1,4.729050159E0,4.851961062E0
1.841488083E0,5.790000558E-1,1.210950017E0,4.690950394E0,4.879206555E0
1.843451788E0,6.550500393E-1,1.402950048E0,4.537950039E0,4.794825330E0
1.845414758E0,7.320000529E-1,1.594050050E0,4.423050404E0,4.758171341E0
1.847377944E0,7.320000529E-1,1.824000120E0,4.308000088E0,4.735152085E0
1.849341002E0,9.240000248E-1,2.053950071E0,4.116000175E0,4.691902001E0
1.851304098E0,1.192050099E0,2.245950222E0,3.771000147E0,4.548155444E0
1.853267350E0,1.306950092E0,2.437050104E0,3.463950157E0,4.432412712E0
1.855230557E0,1.459950089E0,2.706000090E0,3.081000090E0,4.352752267E0
1.857193658E0,1.651950121E0,3.088950157E0,2.545050144E0,4.329876732E0
1.859156790E0,1.959000111E0,3.511050224E0,2.008050203E0,4.494154062E0
1.861120032E0,2.341950178E0,3.856050253E0,1.395000100E0,4.722274819E0
1.863083245E0,2.686950207E0,4.276950359E0,9.349500537E-1,5.136743851E0
1.865046974E0,2.955000162E0,4.660050392E0,3.220500052E-1,5.527369340E0
1.867010552E0,3.415050268E0,5.044050217E0,-3.289500177E-1,6.100263850E0
1.868973544E0,3.645000219E0,5.427000046E0,-8.659500480E-1,6.594560302E0
1.870936708E0,3.990000248E0,5.734050274E0,-1.516950130E0,7.148466424E0
1.872899830E0,4.372950077E0,6.040050507E0,-2.169000149E0,7.765916826E0
1.874862954E0,4.642050266E0,6.232050419E0,-2.629050016E0,8.203595985E0
1.876826023E0,4.795050144E0,6.385050297E0,-3.049950123E0,8.547723026E0
1.878789108E0,4.909950256E0,6.499950409E0,-3.280050039E0,8.781554253E0
1.880752362E0,4.948050022E0,6.462000370E0,-3.280050039E0,8.774928835E0
1.882715567E0,4.795050144E0,6.424050331E0,-3.049950123E0,8.576894793E0
1.884678763E0,4.680000305E0,6.346950531E0,-2.667000055E0,8.324606489E0
1.886641959E0,4.564949989E0,6.193950176E0,-2.092050076E0,7.973735681E0
1.888605015E0,4.411950111E0,6.079050064E0,-1.363950014E0,7.634167480E0
1.890568113E0,4.335000038E0,5.848950386E0,-5.970000029E-1,7.304714570E0
1.892530330E0,4.182000160E0,5.656950474E0,3.600000143E-1,7.044133305E0
1.894492805E0,4.027950287E0,5.503950119E0,1.585950017E0,7.002363021E0
1.896456115E0,3.874950171E0,5.427000046E0,3.157950163E0,7.378361441E0
1.898419183E0,3.837000132E0,5.427000046E0,5.227050304E0,8.455587170E0
1.900382082E0,3.837000132E0,5.503950119E0,7.297050476E0,9.912768663E0
1.902345031E0,3.874950171E0,5.542050362E0,9.214050293E0,1.142927311E1
1.904307949E0,4.143000126E0,5.656950474E0,1.097700024E1,1.302536268E1
1.906270877E0,4.450050354E0,5.887050152E0,1.235595036E1,1.439200531E1
1.908233474E0,4.717950344E0,6.040050507E0,1.331505108E1,1.536332812E1
1.910196175E0,5.025000095E0,6.424050331E0,1.354500103E1,1.581094879E1
1.912159090E0,5.370000362E0,6.807000160E0,1.289295101E1,1.553706346E1
1.914121942E0,5.638050079E0,7.305000305E0,1.155105019E1,1.478436331E1
1.916085058E0,5.676000118E0,8.032950401E0,9.750000000E0,1.384946820E1
1.918048096E0,5.560950279E0,8.991000175E0,7.909950256E0,1.320339219E1
1.920011420E0,5.215950012E0,1.021800041E1,6.568950176E0,1.321986283E1
1.921974649E0,4.909950256E0,1.136805058E1,5.035950184E0,1.336790857E1
1.923938061E0,4.488000393E0,1.259400082E1,3.388050079E0,1.379238512E1
1.925901419E0,3.837000132E0,1.408905029E1,1.740000129E0,1.470549246E1
1.927865349E0,3.337950230E0,1.562205029E1,1.300500035E-1,1.597520829E1
1.929829111E0,2.878050089E0,1.738500023E1,-1.555950046E0,1.769017766E1
1.931792235E0,2.649000168E0,1.918695068E1,-3.280050039E0,1.964471956E1
1.933755526E0,2.341950178E0,2.106495094E1,-4.621950150E0,2.169284011E1
1.935718971E0,2.419050217E0,2.271300125E1,-5.427000046E0,2.347732010E1
1.937682370E0,2.380050182E0,2.455200195E1,-5.464950085E0,2.526521558E1
1.939645753E0,2.686950207E0,2.604705048E1,-4.698000431E0,2.660337851E1
1.941609141E0,2.992950201E0,2.746500206E1,-3.510000229E0,2.784967128E1
1.943572509E0,3.262050152E0,2.853900146E1,-2.284050226E0,2.881548995E1
1.945535862E0,3.337950230E0,2.941995049E1,-1.018950105E0,2.962623259E1
1.947499072E0,3.108000040E0,3.007200050E1,-1.369500011E-1,3.023249301E1
1.949462324E0,2.686950207E0,3.026295090E1,2.449500114E-1,3.038298700E1
1.951425416E0,1.996950150E0,3.018705177E1,2.830500007E-1,3.025435542E1
1.953388555E0,1.077000022E0,2.995695114E1,-6.105000153E-2,2.997636699E1
1.955351230E0,-7.200000435E-2,2.949705124E1,-3.670500219E-1,2.949942273E1
1.957314031E0,-1.144950032E0,2.880705070E1,-1.171950102E0,2.885360546E1
1.959277199E0,-2.716050148E0,2.803995132E1,-2.551950216E0,2.828653829E1
1.961240260E0,-4.402950287E0,2.704395103E1,-4.736999989E0,2.780648176E1
1.963203520E0,-5.898000240E0,2.593200111E1,-6.921000481E0,2.748008982E1
1.965166722E0,-7.123950481E0,2.474400139E1,-8.683950424E0,2.717401829E1
1.967129768E0,-7.966950417E0,2.374800110E1,-9.681000710E0,2.685445270E1
1.969092867E0,-8.427000046E0,2.278905106E1,-1.029405022E1,2.638792617E1
1.971056255E0,-8.695050240E0,2.206095123E1,-1.048605061E1,2.592772117E1
1.973019558E0,-8.809950829E0,2.152500153E1,-1.040895081E1,2.548111421E1
1.974983137E0,-8.887050629E0,2.114100075E1,-1.021800041E1,2.510635605E1
1.976946635E0,-8.925000191E0,2.071995163E1,-9.910950661E0,2.464140757E1
1.978910195E0,-9.309000015E0,2.029800034E1,-9.796050072E0,2.438501376E1
1.980873726E0,-9.615000725E0,1.991505051E1,-9.757950783E0,2.417178270E1
1.982836771E0,-9.960000038E0,1.960800171E1,-9.757950783E0,2.406019400E1
1.984799958E0,-1.022895050E1,1.933995056E1,-9.910950661E0,2.401857737E1
1.986763331E0,-1.049700069E1,1.911000061E1,-1.010295010E1,2.403016329E1
1.988726649E0,-1.076505089E1,1.895700073E1,-1.063905048E1,2.425785631E1
1.990689750E0,-1.080300045E1,1.891800117E1,-1.117605019E1,2.448468266E1
1.992652901E0,-1.080300045E1,1.876500130E1,-1.159695053E1,2.456256001E1
1.994616280E0,-1.072695065E1,1.868805122E1,-1.171200085E1,2.452512370E1
1.996579592E0,-1.068795013E1,1.868805122E1,-1.167405033E1,2.448997729E1
1.998542855E0,-1.045905018E1,1.853505135E1,-1.140600014E1,2.414615286E1
2.000506132E0,-1.026705074E1,1.845795059E1,-1.117605019E1,2.389586510E1
2.002469845E0,-9.922050476E0,1.830495071E1,-1.117605019E1,2.363096283E1
2.004433433E0,-9.654000282E0,1.811295128E1,-1.113705063E1,2.335192973E1
2.006396784E0,-9.346950531E0,1.795995140E1,-1.098405075E1,2.303420738E1
2.008360204E0,-9.117000580E0,1.784505081E1,-1.079295063E1,2.276078473E1
2.010323448E0,-8.809950829E0,1.780695152E1,-1.037100029E1,2.241116693E1
2.012286743E0,-8.619000435E0,1.773000145E1,-9.910950661E0,2.206506431E1
2.014249947E0,-8.542050362E0,1.765395164E1,-9.183000565E0,2.165539500E1
2.016213189E0,-8.464950562E0,1.757700157E1,-8.455050468E0,2.126250810E1
2.018176552E0,-8.311950684E0,1.750005150E1,-7.879950523E0,2.091492163E1
2.020139879E0,-8.158950806E0,1.742400169E1,-7.726050377E0,2.073297296E1
2.022103140E0,-8.005949974E0,1.723200035E1,-7.113000393E0,2.028871227E1
2.024066420E0,-7.813950539E0,1.711695099E1,-6.117000103E0,1.978548772E1
2.026029302E0,-7.621950150E0,1.723200035E1,-5.235000134E0,1.955610356E1
2.027992286E0,-7.392000198E0,1.738500023E1,-4.507050037E0,1.942146750E1
2.029955558E0,-7.276950359E0,1.750005150E1,-3.970050097E0,1.936406741E1
2.031918746E0,-7.201050282E0,1.746195030E1,-2.743950129E0,1.908675184E1
2.033881984E0,-7.086000443E0,1.757700157E1,-9.420000315E-1,1.897497696E1
2.035845207E0,-7.009050369E0,1.780695152E1,1.500000060E-2,1.913673260E1
2.037807330E0,-6.856050491E0,1.811295128E1,7.050000429E-1,1.937992408E1
2.039769796E0,-6.702000141E0,1.838205147E1,1.356000066E0,1.961263262E1
2.041732796E0,-6.433950424E0,1.849695015E1,1.395000100E0,1.963361679E1
2.043695640E0,-6.051000118E0,1.830495071E1,1.279950023E0,1.932159660E1
2.045659793E0,-5.629050255E0,1.792200089E1,7.810500264E-1,1.880144573E1
2.047623563E0,-5.284050465E0,1.750005150E1,9.195000678E-2,1.828063037E1
2.049586382E0,-5.016000271E0,1.711695099E1,-4.819500148E-1,1.784327732E1
2.051549483E0,-4.671000004E0,1.646505165E1,-1.057050109E0,1.714740569E1
2.053513050E0,-4.555950165E0,1.592895031E1,-1.057050109E0,1.660137027E1
2.055476481E0,-4.479000092E0,1.550700092E1,-7.120500207E-1,1.615659415E1
2.057439679E0,-4.402950287E0,1.516200066E1,-4.060500264E-1,1.579357818E1
2.059402945E0,-4.363950253E0,1.481700039E1,9.195000678E-2,1.544655357E1
2.061365233E0,-4.326000214E0,1.466400051E1,5.509500504E-1,1.529871677E1
2.063327833E0,-4.134000301E0,1.439595032E1,8.580000401E-1,1.500231676E1
2.065291035E0,-3.943050146E0,1.412700081E1,9.730500579E-1,1.469920483E1
2.067254061E0,-3.712950230E0,1.378200054E1,9.349500537E-1,1.430397392E1
2.069217463E0,-3.520950079E0,1.336095047E1,7.810500264E-1,1.383915193E1
2.071180754E0,-3.367950201E0,1.301595020E1,5.509500504E-1,1.345591298E1
2.073145046E0,-3.138000250E0,1.274805069E1,2.830500007E-1,1.313163963E1
2.075109051E0,-2.793000221E0,1.240305042E1,-6.105000153E-2,1.271378139E1
2.077072150E0,-2.371050119E0,1.213395023E1,-3.670500219E-1,1.236888648E1
2.079035515E0,-1.950000048E0,1.194300079E1,-5.209500194E-1,1.211235555E1
2.080999082E0,-1.489950061E0,1.171305084E1,-6.739500165E-1,1.182665294E1
2.082962590E0,-1.260000110E0,1.159800053E1,-9.040500522E-1,1.170121887E1
2.084925824E0,-1.144950032E0,1.152105045E1,-1.018950105E0,1.162255451E1
2.086889135E0,-1.030050039E0,1.148295021E1,-5.590500236E-1,1.154260307E1
2.088852127E0,-8.380500674E-1,1.144395065E1,3.600000143E-1,1.148024105E1
2.090815212E0,-6.469500065E-1,1.140600014E1,1.432950020E0,1.151384945E1
2.092778692E0,-4.170000255E-1,1.125300026E1,2.583000183E0,1.155317246E1
2.094742056E0,-7.200000435E-2,1.117605019E1,3.963000298E0,1.185810495E1
2.096706492E0,3.490500152E-1,1.113795090E1,5.266050339E0,1.232505871E1
2.098670638E0,7.320000529E-1,1.113795090E1,5.994000435E0,1.266956256E1
2.100633713E0,1.384050012E0,1.102305031E1,6.301050186E0,1.277209716E1
2.102597101E0,1.996950150E0,1.075500011E1,6.376950264E0,1.266188501E1
2.104560260E0,2.764050245E0,1.052505016E1,6.454050541E0,1.265193357E1
2.106523486E0,3.492000103E0,1.018005085E1,6.646050453E0,1.264901129E1
2.108486717E0,4.027950287E0,9.681000710E0,6.991050243E0,1.260241809E1
2.110449946E0,4.527000427E0,9.259950638E0,7.642050266E0,1.283126459E1
2.112412997E0,5.101050377E0,8.722949982E0,8.562000275E0,1.324456190E1
2.114376101E0,5.715000153E0,8.110050201E0,9.520050049E0,1.375010887E1
2.116339173E0,6.175050259E0,7.420050144E0,9.979950905E0,1.388480500E1
2.118302255E0,6.328050137E0,6.730050087E0,1.009500027E1,1.368381610E1
2.120265356E0,6.595950127E0,5.887050152E0,9.903000832E0,1.327529069E1
2.122228465E0,7.018050194E0,5.044050217E0,9.481950760E0,1.282976466E1
2.124191538E0,7.363050461E0,4.276950359E0,8.869050026E0,1.229499349E1
2.126154621E0,7.669050217E0,3.549000263E0,8.217000008E0,1.178680717E1
2.128117876E0,7.938000202E0,2.935950041E0,7.680000305E0,1.142865060E1
2.130081080E0,8.206049919E0,2.361000061E0,7.258950233E0,1.120740537E1
2.132044127E0,8.473950386E0,1.863000035E0,6.837000370E0,1.104641020E1
2.134007227E0,8.781000137E0,1.326000094E0,6.454050541E0,1.097811496E1
2.135970434E0,8.896050453E0,6.739500165E-1,6.147000313E0,1.083418364E1
2.137933610E0,8.818950653E0,-1.500000060E-2,5.878950119E0,1.059887589E1
2.139897075E0,8.436000824E0,-5.509500504E-1,5.611050129E0,1.014660236E1
2.141860456E0,7.899000168E0,-1.393950105E0,5.266050339E0,9.595237710E0
2.143823251E0,7.363050461E0,-2.122950077E0,4.996950150E0,9.148275243E0
2.145786222E0,6.903000355E0,-2.659050226E0,4.843950272E0,8.842274381E0
2.147749497E0,6.328050137E0,-3.157050133E0,4.690950394E0,8.486235895E0
2.149712682E0,5.944950104E0,-3.732000113E0,4.729050159E0,8.463697300E0
2.151676146E0,5.560950279E0,-4.269000053E0,4.729050159E0,8.456503111E0
2.153639528E0,5.215950012E0,-4.537050247E0,4.690950394E0,8.354398546E0
2.155603052E0,5.101050377E0,-4.729050159E0,4.690950394E0,8.389853750E0
2.157566532E0,4.948050022E0,-5.149950027E0,4.537950039E0,8.461570473E0
2.159529766E0,4.795050144E0,-5.533950329E0,4.308000088E0,8.495644583E0
2.161493073E0,4.642050266E0,-5.917050362E0,4.039050102E0,8.536629393E0
2.163456290E0,4.450050354E0,-6.262050152E0,3.655950069E0,8.507772397E0
2.165419534E0,4.335000038E0,-6.721950531E0,3.118950129E0,8.585143806E0
2.167382768E0,4.219950199E0,-6.952050209E0,2.545050144E0,8.521517590E0
2.169346001E0,3.990000248E0,-7.258050442E0,1.930950046E0,8.504585015E0
2.171309051E0,3.721950293E0,-7.488000393E0,1.395000100E0,8.477563868E0
2.173272154E0,3.492000103E0,-7.680000305E0,8.580000401E-1,8.480131690E0
2.175236127E0,3.223050117E0,-7.833000183E0,2.449500114E-1,8.473720814E0
2.177199845E0,2.992950201E0,-8.062950134E0,-1.369500011E-1,8.601608633E0
2.179162979E0,2.764050245E0,-8.101950645E0,-4.440000355E-1,8.571972588E0
2.181126294E0,2.572050095E0,-8.062950134E0,-6.360000372E-1,8.487113915E0
2.183089511E0,2.419050217E0,-7.987050533E0,-7.510500550E-1,8.379072524E0
2.185052756E0,2.149950027E0,-7.680000305E0,-7.120500207E-1,8.006978521E0
2.187015939E0,1.729050040E0,-6.952050209E0,-6.739500165E-1,7.195472519E0
2.188979141E0,1.269000053E0,-5.955000401E0,-4.819500148E-1,6.107754638E0
2.190942177E0,8.470500112E-1,-4.920000076E0,-2.140500098E-1,4.996970270E0
2.192905275E0,5.790000558E-1,-3.924000263E0,-2.205000073E-2,3.966548289E0
2.194867853E0,4.260000288E-1,-3.196050167E0,9.195000678E-2,3.225626683E0
2.196830583E0,3.870000243E-1,-2.544000149E0,1.680000126E-1,2.578745777E0
2.198794034E0,4.260000288E-1,-1.969050050E0,2.070000172E-1,2.025211873E0
2.200757273E0,4.639500082E-1,-1.432950020E0,2.830500007E-1,1.532551034E0
2.202720932E0,5.410500169E-1,-9.730500579E-1,2.830500007E-1,1.148772753E0
2.204684451E0,6.550500393E-1,-5.509500504E-1,2.449500114E-1,8.903016455E-1
2.206646687E0,7.320000529E-1,-2.440500110E-1,3.220500052E-1,8.361224140E-1
2.208609299E0,8.470500112E-1,-9.105000645E-2,3.220500052E-1,9.107689229E-1
2.210571600E0,1.000050068E0,2.295000106E-2,3.979500234E-1,1.076564472E0
2.212533992E0,1.114950061E0,2.140500098E-1,4.360500276E-1,1.216170494E0
2.214497360E0,1.230000019E0,3.289500177E-1,5.509500504E-1,1.387319040E0
2.216460446E0,1.345050097E0,3.679500222E-1,7.050000429E-1,1.562553052E0
2.218423477E0,1.422000051E0,4.830000103E-1,8.580000401E-1,1.729606089E0
2.220386525E0,1.690050125E0,5.209500194E-1,8.200500607E-1,1.949394893E0
2.222349786E0,1.804950118E0,5.980500579E-1,7.810500264E-1,2.055613763E0
2.224312985E0,2.035050154E0,6.360000372E-1,7.050000429E-1,2.245651406E0
2.226276087E0,2.227050066E0,7.129500508E-1,7.429500222E-1,2.453573823E0
2.228239218E0,2.419050217E0,7.890000343E-1,5.899500251E-1,2.611965933E0
2.230202464E0,2.533950090E0,8.659500480E-1,5.509500504E-1,2.733919989E0
2.232165677E0,2.649000168E0,1.018950105E0,5.130000114E-1,2.884203567E0
2.234129091E0,2.955000162E0,1.134000063E0,4.360500276E-1,3.195015137E0
2.236092446E0,3.147000074E0,1.249050021E0,2.830500007E-1,3.397624571E0
2.238055806E0,3.415050268E0,1.326000094E0,1.300500035E-1,3.665754709E0
2.240019155E0,3.682950258E0,1.402950048E0,-1.759500057E-1,3.945041172E0
2.241982005E0,3.990000248E0,1.555950046E0,-4.060500264E-1,4.301855315E0
2.243945001E0,4.219950199E0,1.708950043E0,-3.289500177E-1,4.564723217E0
2.245907416E0,4.450050354E0,1.939050078E0,1.300500035E-1,4.855901190E0
2.247870001E0,4.717950344E0,2.245950222E0,1.203000069E0,5.361954589E0
2.249833522E0,4.756950378E0,2.551950216E0,2.467950106E0,5.935638511E0
2.251796768E0,4.717950344E0,3.051000118E0,4.192950249E0,7.010598331E0
2.253760131E0,4.564949989E0,3.586950064E0,6.223950386E0,8.511318204E0
2.255723460E0,4.219950199E0,4.123950005E0,8.332050323E0,1.020970156E1
2.257686855E0,3.798000097E0,4.699050426E0,1.013295078E1,1.179756633E1
2.259650230E0,3.415050268E0,5.350050449E0,1.174305058E1,1.334858962E1
2.261613690E0,2.955000162E0,6.040050507E0,1.285500050E1,1.450742134E1
2.263577105E0,2.572050095E0,6.730050087E0,1.369800091E1,1.547721696E1
2.265540485E0,2.572050095E0,7.381950378E0,1.373595047E1,1.580458694E1
2.267503876E0,2.764050245E0,8.032950401E0,1.316100025E1,1.566461597E1
2.269466899E0,3.147000074E0,8.647050858E0,1.224105072E1,1.531399428E1
2.271430030E0,3.376950264E0,9.375000000E0,1.047795010E1,1.445966308E1
2.273393438E0,3.645000219E0,9.757950783E0,8.332050323E0,1.333891647E1
2.275356778E0,3.415050268E0,1.041000080E1,5.457000256E0,1.223967062E1
2.277320891E0,2.917050123E0,1.148295021E1,1.893000126E0,1.199794884E1
2.279284778E0,1.575000048E0,1.309305096E1,-1.786050081E0,1.330783917E1
2.281247131E0,4.050000105E-3,1.527705097E1,-5.388000488E0,1.619934727E1
2.283209934E0,-1.911000133E0,1.811295128E1,-7.995000362E0,1.989097676E1
2.285173251E0,-3.712950230E0,2.144805145E1,-9.757950783E0,2.385419280E1
2.287136408E0,-4.863000393E0,2.485905075E1,-1.044795036E1,2.740038036E1
2.289099832E0,-5.743950367E0,2.865405083E1,-1.063905048E1,3.110043392E1
2.291063177E0,-6.817050457E0,3.290805054E1,-1.086900043E1,3.532063331E1
2.293026568E0,-7.699050426E0,3.704700089E1,-1.083105087E1,3.935819248E1
2.294989946E0,-8.005949974E0,4.137795258E1,-9.220950127E0,4.314227759E1
2.296953178E0,-8.887050629E0,4.620795059E1,-7.266000271E0,4.761248919E1
2.298916467E0,-9.385050774E0,5.030895233E1,-7.189950466E0,5.167944708E1
2.300880228E0,-9.079050064E0,5.329800415E1,-7.113000393E0,5.453165293E1
2.302843850E0,-8.619000435E0,5.548305130E1,-7.381050587E0,5.663158181E1
2.304807330E0,-8.503950119E0,5.697795105E1,-8.032950401E0,5.816641957E1
2.306770852E0,-7.891050339E0,5.697795105E1,-8.416049957E0,5.813420231E1
2.308734422E0,-7.239000320E0,5.621100235E1,-8.224950790E0,5.726892461E1
2.310697989E0,-6.741000175E0,5.414100266E1,-7.956000328E0,5.513607887E1
2.312661658E0,-5.974050522E0,5.122905350E1,-7.840950489E0,5.216881929E1
2.314625297E0,-4.939050198E0,4.800900269E1,-8.032950401E0,4.892634104E1
2.316588639E0,-3.790050268E0,4.452105331E1,-8.185950279E0,4.542574657E1
2.318552068E0,-2.869950056E0,4.099500275E1,-8.377950668E0,4.194063568E1
2.320515620E0,-1.950000048E0,3.766095352E1,-8.493000031E0,3.865593059E1
2.322479139E0,-1.297950029E0,3.497805023E1,-8.530950546E0,3.602673715E1
2.324442861E0,-8.380500674E-1,3.271605301E1,-8.722949982E0,3.386934172E1
2.326406523E0,-3.780000210E-1,3.072300148E1,-9.106050491E0,3.204630805E1
2.328370807E0,8.100000024E-2,2.896005058E1,-9.298050880E0,3.041619373E1
2.330334908E0,6.550500393E-1,2.738895035E1,-9.412950516E0,2.896873020E1
2.332298351E0,1.039050102E0,2.604705048E1,-9.643050194E0,2.779418789E1
2.334261987E0,1.345050097E0,2.489700127E1,-9.681000710E0,2.674680554E1
2.336225328E0,1.575000048E0,2.386305046E1,-9.873000145E0,2.587280299E1
2.338188756E0,1.920000076E0,2.282805061E1,-1.033305073E1,2.513122027E1
2.340152628E0,1.996950150E0,2.183100128E1,-1.113705063E1,2.458890651E1
2.342116370E0,1.767000079E0,2.106495094E1,-1.171200085E1,2.416661771E1
2.344080040E0,1.498950124E0,2.049000168E1,-1.224900055E1,2.391913533E1
2.346043741E0,1.269000053E0,1.987695122E1,-1.247895050E1,2.350378175E1
2.348007072E0,1.039050102E0,1.926300049E1,-1.240200043E1,2.293365273E1
2.349970511E0,7.320000529E-1,1.849695015E1,-1.213395023E1,2.213381434E1
2.351933030E0,5.790000558E-1,1.780695152E1,-1.178895092E1,2.136357010E1
2.353895818E0,3.109500110E-1,1.715505028E1,-1.152105045E1,2.066705212E1
2.355859245E0,-3.299999982E-2,1.654200172E1,-1.121400070E1,1.998481228E1
2.357822495E0,-4.549500346E-1,1.596705055E1,-1.056300068E1,1.915021322E1
2.359785903E0,-7.999500632E-1,1.508595085E1,-9.910950661E0,1.806800421E1
2.361749264E0,-8.380500674E-1,1.439595032E1,-9.489000320E0,1.726229534E1
2.363712518E0,-1.183050036E0,1.370595074E1,-9.067950249E0,1.647666273E1
2.365675804E0,-1.567050099E0,1.297800064E1,-8.377950668E0,1.552656446E1
2.367638980E0,-1.873050094E0,1.232595062E1,-7.765050411E0,1.468786517E1
2.369602189E0,-2.065050125E0,1.178895092E1,-7.113000393E0,1.392259209E1
2.371565603E0,-2.103000164E0,1.102305031E1,-6.232050419E0,1.283622609E1
2.373528956E0,-2.065050125E0,1.025595093E1,-5.427000046E0,1.178563918E1
2.375492212E0,-2.065050125E0,9.565950394E0,-4.774950027E0,1.088907649E1
2.377455497E0,-1.873050094E0,8.953050613E0,-4.698000431E0,1.028283229E1
2.379419087E0,-1.528050065E0,8.493000031E0,-4.237950325E0,9.613855079E0
2.381382581E0,-1.297950029E0,7.957050323E0,-3.357000113E0,8.733199522E0
2.383346307E0,-1.030050039E0,7.381950378E0,-2.667000055E0,7.916254403E0
2.385309965E0,-9.919500351E-1,6.807000160E0,-2.206950188E0,7.224253953E0
2.387273439E0,-9.529500604E-1,6.309000492E0,-1.555950046E0,6.567539994E0
2.389236967E0,-1.030050039E0,5.809950352E0,-1.057050109E0,5.994487560E0
2.391200683E0,-9.529500604E-1,5.197050095E0,-6.739500165E-1,5.326504682E0
2.393164346E0,-9.919500351E-1,4.699050426E0,-6.360000372E-1,4.844536699E0
2.395127864E0,-9.919500351E-1,4.123950005E0,-3.670500219E-1,4.257423426E0
2.397091425E0,-9.150000215E-1,3.664050102E0,-4.060500264E-1,3.798337112E0
2.399054419E0,-8.770500422E-1,3.088950157E0,-2.520000041E-1,3.220921274E0
2.401017579E0,-1.106999993E0,2.514000177E0,5.295000225E-2,2.747444190E0
2.402980486E0,-1.030050039E0,1.900950074E0,8.580000401E-1,2.326107980E0
2.404943482E0,-7.999500632E-1,1.288050056E0,1.510050058E0,2.139916874E0
2.406907067E0,-6.850500107E-1,8.280000687E-1,2.008050203E0,2.277530077E0
2.408870480E0,-6.469500065E-1,2.910000086E-1,2.698050022E0,2.789748956E0
2.410834941E0,-2.629500031E-1,-1.680000126E-1,2.889000177E0,2.905802597E0
2.412799095E0,8.100000024E-2,-5.509500504E-1,3.004050255E0,3.055229106E0
2.414762963E0,3.109500110E-1,-1.087950110E0,2.812950134E0,3.031998320E0
2.416726895E0,6.169500351E-1,-1.318050027E0,2.506050110E0,2.897959691E0
2.418690321E0,1.077000022E0,-1.585950017E0,2.238000154E0,2.946830704E0
2.420653895E0,1.422000051E0,-1.816050053E0,2.046000004E0,3.083218765E0
2.422617427E0,1.959000111E0,-2.122950077E0,1.740000129E0,3.372269104E0
2.424580972E0,2.494950056E0,-2.314050198E0,1.471050024E0,3.707235125E0
2.426544334E0,3.031950235E0,-2.581950188E0,1.395000100E0,4.219622528E0
2.428507746E0,3.607050180E0,-2.889000177E0,1.279950023E0,4.795352447E0
2.430471486E0,4.027950287E0,-3.157050133E0,1.165050030E0,5.248684657E0
2.432435129E0,4.219950199E0,-3.426000118E0,1.087950110E0,5.543382716E0
2.434398696E0,4.258049965E0,-3.694050074E0,1.087950110E0,5.741134983E0
2.436362285E0,4.297049999E0,-4.077000141E0,9.730500579E-1,6.002782293E0
2.438325800E0,4.258049965E0,-4.498950005E0,7.050000429E-1,6.234465952E0
2.440289347E0,4.182000160E0,-4.882050037E0,6.280500293E-1,6.458946102E0
2.442253919E0,4.027950287E0,-5.341950417E0,4.360500276E-1,6.704547516E0
2.444218191E0,3.990000248E0,-5.839950085E0,2.070000172E-1,7.075872241E0
2.446181424E0,3.837000132E0,-6.223950386E0,9.195000678E-2,7.312221497E0
2.448144962E0,3.568050146E0,-6.645000458E0,1.500000060E-2,7.542362888E0
2.450108152E0,3.337950230E0,-6.952050209E0,-6.105000153E-2,7.712110019E0
2.452071468E0,2.992950201E0,-7.219950199E0,-9.900000691E-2,7.816343953E0
2.454034998E0,2.572050095E0,-7.450050354E0,-1.369500011E-1,7.882730952E0
2.455998466E0,2.111999989E0,-7.564950466E0,-2.140500098E-1,7.857151959E0
2.457961702E0,1.614000082E0,-7.717950344E0,-2.910000086E-1,7.890274696E0
2.459925006E0,1.269000053E0,-7.756950378E0,-1.759500057E-1,7.862035278E0
2.461888558E0,9.619500637E-1,-7.642050266E0,-9.900000691E-2,7.702991704E0
2.463852023E0,8.089500666E-1,-7.642050266E0,5.295000225E-2,7.684929159E0
2.465813818E0,5.410500169E-1,-7.603050232E0,3.979500234E-1,7.632658264E0
2.467776102E0,3.870000243E-1,-7.450050354E0,8.959500194E-1,7.513703862E0
2.469739810E0,1.570500135E-1,-7.143000126E0,1.356000066E0,7.272265925E0
2.471703100E0,-1.099500060E-1,-6.645000458E0,1.816050053E0,6.889568773E0
2.473666695E0,-3.019500077E-1,-6.339000225E0,2.698050022E0,6.895909772E0
2.475630191E0,-2.629500031E-1,-6.262050152E0,2.851050138E0,6.885557472E0
2.477593782E0,-4.930500090E-1,-5.994000435E0,2.773950100E0,6.623136620E0
2.479557345E0,-7.999500632E-1,-5.686950207E0,2.928000212E0,6.446278616E0
2.481521060E0,-9.529500604E-1,-5.265000343E0,3.234000206E0,6.251967671E0
2.483484730E0,-1.106999993E0,-4.882050037E0,3.733050108E0,6.244639674E0
2.485448247E0,-1.222050071E0,-4.461000443E0,4.000950336E0,6.115679432E0
2.487411809E0,-1.375050068E0,-4.039050102E0,4.078050137E0,5.902133626E0
2.489375522E0,-1.375050068E0,-3.426000118E0,4.153950214E0,5.557296275E0
2.491339191E0,-1.375050068E0,-2.851050138E0,4.269000053E0,5.314471849E0
2.493302708E0,-1.183050036E0,-2.428950071E0,4.384050369E0,5.149689649E0
2.495266270E0,-1.030050039E0,-1.969050050E0,4.345950127E0,4.881131394E0
2.497230363E0,-9.919500351E-1,-1.471050024E0,4.231050014E0,4.587999267E0
2.499194287E0,-9.150000215E-1,-1.011000037E0,4.153950214E0,4.372030249E0
2.501158121E0,-7.230000496E-1,-5.509500504E-1,4.078050137E0,4.178129719E0
2.503121981E0,-6.469500065E-1,-1.680000126E-1,3.886050224E0,3.943114842E0
2.505084878E0,-5.320500135E-1,1.380000114E-1,3.655950069E0,3.697038292E0
2.507048058E0,-3.400500119E-1,5.590500236E-1,3.579000235E0,3.638325661E0
2.509011842E0,-3.019500077E-1,1.018950105E0,3.310950041E0,3.477329909E0
2.510975446E0,-1.870500147E-1,1.363950014E0,3.043050051E0,3.339985174E0
2.512939334E0,-3.299999982E-2,1.708950043E0,2.851050138E0,3.324166984E0
2.514903138E0,-7.200000435E-2,2.053950071E0,2.583000183E0,3.300876375E0
2.516866677E0,4.200000316E-2,2.437050104E0,2.200050116E0,3.283473423E0
2.518830294E0,3.490500152E-1,2.743950129E0,2.085000038E0,3.463859607E0
2.520794859E0,5.020500422E-1,3.051000118E0,1.701000094E0,3.529030644E0
2.522759143E0,6.550500393E-1,3.357000113E0,1.356000066E0,3.679303805E0
2.524722916E0,8.850000501E-1,3.702000141E0,1.011000037E0,3.938292931E0
2.526686838E0,1.153950095E0,3.970950127E0,4.750500321E-1,4.162417358E0
2.528651030E0,1.306950092E0,4.315950394E0,5.295000225E-2,4.509805988E0
2.530615143E0,1.345050097E0,4.584000111E0,-4.440000355E-1,4.797848769E0
2.532578468E0,1.498950124E0,4.929000378E0,-7.120500207E-1,5.200856798E0
2.534542010E0,1.690050125E0,5.235000134E0,-1.057050109E0,5.601682850E0
2.536505548E0,1.920000076E0,5.542050362E0,-1.402050018E0,6.030461571E0
2.538469087E0,1.996950150E0,5.809950352E0,-1.479000092E0,6.319080175E0
2.540432760E0,2.188950062E0,6.040050507E0,-1.671000123E0,6.638219182E0
2.542396393E0,2.380050182E0,6.270000458E0,-1.708950043E0,6.920842063E0
2.544359937E0,2.533950090E0,6.309000492E0,-1.747050047E0,7.019727497E0
2.546323525E0,2.725050211E0,6.346950531E0,-1.786050081E0,7.134399385E0
2.548287414E0,2.878050089E0,6.385050297E0,-1.708950043E0,7.209198975E0
2.550251215E0,2.992950201E0,6.309000492E0,-1.671000123E0,7.180075176E0
2.552215069E0,3.031950235E0,6.193950176E0,-1.632000089E0,7.086689305E0
2.554178908E0,2.917050123E0,6.117000103E0,-1.671000123E0,6.979907814E0
2.556142576E0,2.802000046E0,6.001950264E0,-1.708950043E0,6.840695979E0
2.558106294E0,2.494950056E0,5.887050152E0,-1.861950040E0,6.659503977E0
2.560069802E0,2.035050154E0,5.734050274E0,-2.092050076E0,6.434083866E0
2.562033371E0,1.575000048E0,5.542050362E0,-2.284050226E0,6.197728035E0
2.563997399E0,1.192050099E0,5.350050449E0,-2.551950216E0,6.046194932E0
2.565961292E0,8.089500666E-1,5.158950329E0,-2.820000172E0,5.934776295E0
2.567923915E0,3.870000243E-1,4.890000343E0,-2.974050045E0,5.736448906E0
2.569886910E0,8.100000024E-2,4.621950150E0,-3.088950157E0,5.559729963E0
2.571850675E0,-1.480500102E-1,4.315950394E0,-3.204000235E0,5.377263627E0
2.573814215E0,-3.400500119E-1,3.931950092E0,-3.280050039E0,5.131724252E0
2.575777798E0,-4.930500090E-1,3.549000263E0,-3.319050074E0,4.884116560E0
2.577741369E0,-6.079500318E-1,3.166050196E0,-3.394950151E0,4.681790642E0
2.579705068E0,-6.469500065E-1,2.743950129E0,-3.319050074E0,4.354756022E0
2.581668740E0,-6.469500065E-1,2.361000061E0,-2.896950245E0,3.792780816E0
2.583632436E0,-5.320500135E-1,1.900950074E0,-2.169000149E0,2.932788783E0
2.585596124E0,-3.780000210E-1,1.555950046E0,-1.171950102E0,1.984271050E0
2.587559052E0,-1.870500147E-1,1.249050021E0,2.830500007E-1,1.294307138E0
2.589522203E0,4.200000316E-2,1.057950020E0,1.701000094E0,2.003602647E0
2.591485856E0,3.109500110E-1,8.280000687E-1,3.310950041E0,3.427048905E0
2.593449359E0,5.020500422E-1,7.510500550E-1,4.806000233E0,4.890170617E0
2.595413399E0,7.699500322E-1,6.739500165E-1,6.186000347E0,6.270058371E0
2.597377282E0,1.000050068E0,8.280000687E-1,7.680000305E0,7.788972265E0
2.599340402E0,1.306950092E0,9.810000658E-1,9.442950249E0,9.583307836E0
2.601303746E0,1.537050128E0,1.288050056E0,1.155105019E1,1.172383710E1
2.603267156E0,1.804950118E0,1.747950077E0,1.400400066E1,1.422762134E1
2.605230533E0,1.996950150E0,2.284050226E0,1.661100006E1,1.688579339E1
2.607194144E0,1.996950150E0,2.896950245E0,1.891005135E1,1.923460872E1
2.609157687E0,2.111999989E0,3.433950186E0,2.082705116E1,2.121364226E1
2.611121360E0,2.074050188E0,4.123950005E0,2.193795013E1,2.241834748E1
2.613084995E0,2.074050188E0,4.813950062E0,2.236005020E1,2.296622834E1
2.615048313E0,1.575000048E0,5.964000225E0,2.197695160E1,2.282622013E1
2.617011741E0,1.039050102E0,7.612050533E0,2.090295029E1,2.227007564E1
2.618974397E0,4.260000288E-1,9.490050316E0,1.936995125E1,2.157400154E1
2.620937279E0,1.189500093E-1,1.182795048E1,1.772205162E1,2.130693960E1
2.622900614E0,-1.870500147E-1,1.508595085E1,1.618905067E1,2.212930777E1
2.624863816E0,-3.019500077E-1,1.930200005E1,1.515405083E1,2.454187515E1
2.626827217E0,-2.250000089E-1,2.382405090E1,1.408095074E1,2.767506459E1
2.628790538E0,-7.200000435E-2,2.842395210E1,1.312305069E1,3.130719880E1
2.630754474E0,6.169500351E-1,3.279300308E1,1.135995007E1,3.471037516E1
2.632718230E0,1.959000111E0,3.716205215E1,7.411950588E0,3.794460190E1
2.634682137E0,4.527000427E0,4.072695160E1,1.663050056E0,4.101151125E1
2.636646000E0,8.014050484E0,4.413795090E1,-5.542050362E0,4.520064200E1
2.638608884E0,1.272900105E1,4.647600174E1,-1.282395077E1,4.986481644E1
2.640572065E0,1.744305038E1,4.743405151E1,-1.673295021E1,5.323758891E1
2.642535483E0,2.173605156E1,4.693605042E1,-1.815105057E1,5.481705394E1
2.644498832E0,2.503200150E1,4.505805206E1,-1.884105110E1,5.487999965E1
2.646462043E0,2.526195145E1,4.287300110E1,-1.845795059E1,5.307500687E1
2.648425295E0,2.020305061E1,4.126305008E1,-1.788300133E1,4.930115914E1
2.650388697E0,1.322700024E1,3.900195312E1,-1.773000145E1,4.483814040E1
2.652352058E0,7.363050461E0,3.578205109E1,-1.704000092E1,4.031043690E1
2.654314366E0,2.725050211E0,3.187305069E1,-1.581300068E1,3.568428575E1
2.656276983E0,-5.700000525E-1,2.781000137E1,-1.381995106E1,3.105981525E1
2.658240183E0,-2.830950022E0,2.393895149E1,-1.247895050E1,2.714427900E1
2.660203212E0,-4.363950253E0,2.045100021E1,-1.190400028E1,2.406226702E1
2.662166653E0,-5.323050022E0,1.773000145E1,-1.221105099E1,2.217650963E1
2.664129976E0,-5.668050289E0,1.577505112E1,-1.297695065E1,2.119859146E1
2.666093326E0,-5.092950344E0,1.443405056E1,-1.370505047E1,2.054527603E1
2.668056668E0,-3.981000185E0,1.339905071E1,-1.454895115E1,2.017560165E1
2.670020060E0,-3.367950201E0,1.267095089E1,-1.504695034E1,1.995762510E1
2.671983437E0,-3.253050089E0,1.240305042E1,-1.485495090E1,1.962364801E1
2.673946813E0,-3.751050234E0,1.236405087E1,-1.355205059E1,1.872426786E1
2.675910197E0,-4.594050407E0,1.270905018E1,-1.175100040E1,1.790841328E1
2.677873447E0,-5.668050289E0,1.316895103E1,-9.604050636E0,1.725647282E1
2.679836737E0,-6.856050491E0,1.374405098E1,-8.263050079E0,1.744082459E1
2.681800272E0,-8.005949974E0,1.439595032E1,-8.032950401E0,1.832667217E1
2.683763735E0,-8.925000191E0,1.500900078E1,-8.683950424E0,1.950222366E1
2.685726982E0,-9.538950920E0,1.539195061E1,-9.643050194E0,2.051565610E1
2.687690286E0,-1.003695011E1,1.569900036E1,-1.029405022E1,2.128770654E1
2.689653459E0,-1.022895050E1,1.585200119E1,-1.033305073E1,2.151021403E1
2.691616670E0,-1.026705074E1,1.604400063E1,-9.718950272E0,2.138411283E1
2.693579948E0,-1.007505035E1,1.604400063E1,-8.416049957E0,2.073032785E1
2.695543207E0,-9.922050476E0,1.608195114E1,-6.844950199E0,2.009799944E1
2.697506973E0,-9.922050476E0,1.612005043E1,-5.695050240E0,1.976706121E1
2.699470591E0,-9.960000038E0,1.612005043E1,-4.774950027E0,1.954118150E1
2.701434251E0,-1.011405087E1,1.600500107E1,-4.047000408E0,1.936058616E1
2.703397899E0,-1.015200043E1,1.573695087E1,-3.549000263E0,1.906069617E1
2.705361465E0,-9.999000549E0,1.535400105E1,-3.012000084E0,1.856872383E1
2.707325055E0,-9.730050087E0,1.504695034E1,-2.551950216E0,1.809964196E1
2.709288525E0,-9.346950531E0,1.470195103E1,-2.130000114E0,1.755134607E1
2.711252041E0,-8.848950386E0,1.435695076E1,-1.939050078E0,1.697603821E1
2.713215403E0,-8.311950684E0,1.408905029E1,-1.861950040E0,1.646380030E1
2.715178810E0,-7.813950539E0,1.389705086E1,-1.632000089E0,1.602651771E1
2.717142056E0,-7.276950359E0,1.382100105E1,-1.555950046E0,1.569697605E1
2.719105349E0,-6.549000263E0,1.382100105E1,-1.594050050E0,1.537694606E1
2.721068762E0,-6.013050079E0,1.397400093E1,-1.671000123E0,1.530430380E1
2.723032130E0,-5.323050022E0,1.428105068E1,-1.479000092E0,1.531243649E1
2.724995517E0,-4.594050407E0,1.447200108E1,-1.326000094E0,1.524146943E1
2.726958899E0,-4.134000301E0,1.477905083E1,-9.040500522E-1,1.537295054E1
2.728922240E0,-3.904950142E0,1.512405109E1,-4.440000355E-1,1.562634612E1
2.730885593E0,-3.636000156E0,1.550700092E1,-2.520000041E-1,1.592956618E1
2.732848286E0,-3.598050117E0,1.596705055E1,5.295000225E-2,1.636751269E1
2.734811156E0,-3.751050234E0,1.661894989E1,4.750500321E-1,1.704363652E1
2.736774673E0,-3.904950142E0,1.719405174E1,7.050000429E-1,1.764599320E1
2.738738000E0,-4.057950020E0,1.765395164E1,1.165050030E0,1.815175773E1
2.740701530E0,-4.173000336E0,1.819005013E1,1.471050024E0,1.872046590E1
2.742665000E0,-4.249050140E0,1.884195137E1,1.740000129E0,1.939332769E1
2.744628776E0,-4.210950375E0,1.933995056E1,2.122950077E0,1.990659960E1
2.746592462E0,-4.134000301E0,1.991505051E1,2.506050110E0,2.049340095E1
2.748556111E0,-3.904950142E0,2.033595085E1,2.545050144E0,2.086328864E1
2.750519771E0,-3.559950113E0,2.075805092E1,2.506050110E0,2.120967256E1
2.752482748E0,-3.291000128E0,2.110305023E1,2.200050116E0,2.147113484E1
2.754445925E0,-2.716050148E0,2.133300018E1,1.930950046E0,2.159172048E1
2.756409204E0,-2.026050091E0,2.152500153E1,1.663050056E0,2.168401036E1
2.758372457E0,-1.297950029E0,2.148600197E1,1.395000100E0,2.157032638E1
2.760335999E0,-4.549500346E-1,2.140995026E1,1.165050030E0,2.144645171E1
2.762299457E0,1.189500093E-1,2.140995026E1,3.979500234E-1,2.141397869E1
2.764264496E0,8.089500666E-1,2.125605011E1,-3.670500219E-1,2.127460440E1
2.766229072E0,1.306950092E0,2.098800087E1,-1.171950102E0,2.106128596E1
2.768192253E0,1.651950121E0,2.064300156E1,-1.594050050E0,2.077025392E1
2.770155843E0,1.959000111E0,2.022105026E1,-1.939050078E0,2.040804916E1
2.772119327E0,2.227050066E0,1.964700127E1,-2.245050192E0,1.989986586E1
2.774082843E0,2.494950056E0,1.899495125E1,-2.514000177E0,1.932234835E1
2.776046250E0,2.649000168E0,1.822800064E1,-2.704950094E0,1.861703425E1
2.778009689E0,2.649000168E0,1.776900101E1,-2.590050220E0,1.815111453E1
2.779973034E0,2.649000168E0,1.707900047E1,-2.206950188E0,1.742354982E1
2.781936396E0,2.686950207E0,1.635000038E1,-2.014950037E0,1.669138213E1
2.783899604E0,2.725050211E0,1.558395100E1,-1.402050018E0,1.588241706E1
2.785862857E0,2.764050245E0,1.485600090E1,-7.120500207E-1,1.512771469E1
2.787825228E0,2.725050211E0,1.420395088E1,-9.900000691E-2,1.446333019E1
2.789787857E0,2.686950207E0,1.355205059E1,5.899500251E-1,1.382844234E1
2.791751522E0,3.070050240E0,1.274805069E1,1.395000100E0,1.318650940E1
2.793714904E0,2.955000162E0,1.198095036E1,1.548000097E0,1.243669979E1
2.795678424E0,2.992950201E0,1.125300026E1,1.471050024E0,1.173676931E1
2.797641904E0,3.147000074E0,1.041000080E1,1.740000129E0,1.101359735E1
2.799605273E0,3.262050152E0,9.720000267E0,2.122950077E0,1.047025756E1
2.801568675E0,3.415050268E0,9.067950249E0,2.506050110E0,1.000852523E1
2.803532071E0,3.492000103E0,8.377950668E0,3.196050167E0,9.622830082E0
2.805495459E0,3.874950171E0,7.687950134E0,4.576050282E0,9.749874475E0
2.807458887E0,4.143000126E0,7.075050354E0,5.764050484E0,1.002222857E1
2.809422303E0,4.488000393E0,6.385050297E0,6.492000103E0,1.015170331E1
2.811386178E0,4.795050144E0,5.695050240E0,7.066950321E0,1.026488626E1
2.813349918E0,5.254950047E0,5.044050217E0,7.564950466E0,1.050168644E1
2.815313307E0,5.638050079E0,4.276950359E0,7.948950291E0,1.064263707E1
2.817276785E0,5.791050434E0,3.625950098E0,8.179050446E0,1.065742208E1
2.819240468E0,6.021000385E0,3.127050161E0,8.140049934E0,1.059675900E1
2.821204091E0,6.021000385E0,2.514000177E0,7.795050144E0,1.016540453E1
2.823167481E0,5.983050346E0,1.939050078E0,7.335000515E0,9.662248145E0
2.825130939E0,6.060000420E0,1.210950017E0,6.721950531E0,9.130970593E0
2.827095200E0,6.097950459E0,5.209500194E-1,6.186000347E0,8.701895714E0
2.829059202E0,5.905950069E0,-5.295000225E-2,5.572050095E0,8.119777841E0
2.831022527E0,5.715000153E0,-5.890500546E-1,5.112000465E0,7.690302690E0
2.832986050E0,5.599950314E0,-1.279050112E0,4.653000355E0,7.392281448E0
2.834949231E0,5.485050201E0,-1.930950046E0,4.498950005E0,7.352203407E0
2.836912512E0,5.293050289E0,-2.428950071E0,4.269000053E0,7.220840759E0
2.838875877E0,4.987050056E0,-3.081000090E0,4.078050137E0,7.140988919E0
2.840839211E0,4.717950344E0,-3.579000235E0,4.000950336E0,7.146740636E0
2.842802110E0,4.450050354E0,-4.039050102E0,3.886050224E0,7.156693386E0
2.844765136E0,4.182000160E0,-4.575000286E0,3.886050224E0,7.315814329E0
2.846728401E0,3.952050209E0,-5.149950027E0,3.886050224E0,7.565849092E0
2.848691596E0,3.721950293E0,-5.610000134E0,3.808950186E0,7.735186940E0
2.850654978E0,3.529950142E0,-6.070050240E0,3.808950186E0,7.988376520E0
2.852618298E0,3.376950264E0,-6.529950142E0,3.808950186E0,8.279622181E0
2.854581515E0,3.147000074E0,-6.874950409E0,3.771000147E0,8.449200832E0
2.856544762E0,2.992950201E0,-7.219950199E0,3.541050196E0,8.580470166E0
2.858507854E0,2.649000168E0,-7.450050354E0,3.273000240E0,8.557627168E0
2.860470992E0,2.341950178E0,-7.642050266E0,2.889000177E0,8.498940224E0
2.862434402E0,2.265000105E0,-7.795050144E0,2.620950222E0,8.530088645E0
2.864397712E0,2.035050154E0,-7.909950256E0,2.391000032E0,8.510324514E0
2.866360975E0,1.843950033E0,-7.987050533E0,2.238000154E0,8.497162623E0
2.868324252E0,1.767000079E0,-8.062950134E0,2.085000038E0,8.513558557E0
2.870287654E0,1.614000082E0,-8.217000008E0,1.816050053E0,8.568671028E0
2.872251019E0,1.384050012E0,-8.217000008E0,1.624950051E0,8.489708253E0
2.874214140E0,1.230000019E0,-8.332050323E0,1.471050024E0,8.549850923E0
2.876177363E0,1.114950061E0,-8.254950523E0,1.279950023E0,8.427668351E0
2.878140234E0,8.850000501E-1,-8.178000450E0,1.011000037E0,8.287643665E0
2.880103209E0,7.699500322E-1,-8.062950134E0,8.959500194E-1,8.149031498E0
2.882065627E0,6.550500393E-1,-7.833000183E0,6.660000086E-1,7.888506730E0
2.884028209E0,4.260000288E-1,-7.564950466E0,4.750500321E-1,7.591812966E0
2.885992401E0,2.719500065E-1,-7.143000126E0,2.070000172E-1,7.151171695E0
2.887956125E0,1.189500093E-1,-6.684000492E0,1.500000060E-2,6.685075668E0
2.889919092E0,-1.480500102E-1,-5.917050362E0,-6.105000153E-2,5.919217084E0
2.891882281E0,-2.250000089E-1,-5.149950027E0,-2.140500098E-1,5.159304963E0
2.893845339E0,-3.019500077E-1,-4.461000443E0,-1.369500011E-1,4.473304602E0
2.895808435E0,-1.870500147E-1,-3.886050224E0,-1.759500057E-1,3.894525961E0
2.897771538E0,-1.480500102E-1,-3.349050045E0,-3.670500219E-1,3.372355368E0
2.899734618E0,-1.099500060E-1,-2.697000027E0,-4.440000355E-1,2.735513513E0
2.901697918E0,-1.099500060E-1,-2.008050203E0,-6.360000372E-1,2.109229876E0
2.903661154E0,-3.299999982E-2,-1.471050024E0,-9.040500522E-1,1.726957924E0
2.905624340E0,1.189500093E-1,-9.730500579E-1,-1.096050024E0,1.470476513E0
2.907587541E0,2.719500065E-1,-6.660000086E-1,-1.171950102E0,1.375129033E0
2.909551828E0,5.020500422E-1,-3.979500234E-1,-1.096050024E0,1.269544848E0
2.911515818E0,6.940500140E-1,-2.059500068E-1,-9.810000658E-1,1.219213663E0
2.913478739E0,1.000050068E0,-1.680000126E-1,-5.209500194E-1,1.140049589E0
2.915441973E0,1.306950092E0,-1.290000081E-1,-2.205000073E-2,1.313486105E0
2.917404347E0,1.537050128E0,-9.105000645E-2,5.130000114E-1,1.622954778E0
2.919366973E0,1.804950118E0,-9.105000645E-2,1.126049995E0,2.129348169E0
2.921329730E0,2.111999989E0,-1.500000060E-2,1.510050058E0,2.596347459E0
2.923292442E0,2.304000139E0,9.900000691E-2,1.855050087E0,2.959633164E0
2.925255987E0,2.494950056E0,1.380000114E-1,2.238000154E0,3.354469329E0
2.927219288E0,2.686950207E0,2.910000086E-1,2.467950106E0,3.659939910E0
2.929182687E0,2.839950085E0,4.060500264E-1,2.736000061E0,3.964327111E0
2.931146057E0,3.108000040E0,5.209500194E-1,2.773950100E0,4.198315416E0
2.933109396E0,3.262050152E0,7.129500508E-1,2.698050022E0,4.292871171E0
2.935072747E0,3.453000069E0,8.659500480E-1,2.506050110E0,4.353546383E0
2.937036002E0,3.568050146E0,9.810000658E-1,2.275950193E0,4.344340256E0
2.938999285E0,3.721950293E0,1.096050024E0,2.046000004E0,4.386382980E0
2.940962686E0,3.798000097E0,1.288050056E0,1.701000094E0,4.356291887E0
2.942926052E0,3.990000248E0,1.479000092E0,1.510050058E0,4.515284535E0
2.944889396E0,4.182000160E0,1.633050084E0,1.279950023E0,4.668431212E0
2.946852747E0,4.335000038E0,1.747950077E0,8.959500194E-1,4.759231161E0
2.948816722E0,4.603050232E0,1.900950074E0,5.130000114E-1,5.006480963E0
2.950780514E0,4.909950256E0,1.939050078E0,9.195000678E-2,5.279770973E0
2.952743650E0,5.254950047E0,1.978050113E0,-2.910000086E-1,5.622442818E0
2.954706978E0,5.638050079E0,2.092950106E0,-9.040500522E-1,6.081558627E0
2.956670760E0,6.097950459E0,2.092950106E0,-1.516950130E0,6.623184856E0
2.958634389E0,6.442950249E0,2.131050110E0,-2.053950071E0,7.090253407E0
2.960597688E0,6.940950394E0,2.208000183E0,-2.437050104E0,7.680577477E0
2.962561084E0,7.324050426E0,2.361000061E0,-2.475000143E0,8.083418933E0
2.964524511E0,7.630950451E0,2.629050016E0,-1.977000117E0,8.309743572E0
2.966487928E0,7.746000290E0,2.974050045E0,-8.269500136E-1,8.338425540E0
2.968450722E0,7.669050217E0,3.472050190E0,9.349500537E-1,8.470159110E0
2.970413699E0,7.248000145E0,4.123950005E0,3.388050079E0,9.001075107E0
2.972377513E0,6.750000477E0,4.774950027E0,6.376950264E0,1.044165451E1
2.974341082E0,6.060000420E0,5.350050449E0,9.328050613E0,1.234338581E1
2.976304301E0,5.407950401E0,6.079050064E0,1.193505096E1,1.444459133E1
2.978267622E0,4.948050022E0,6.807000160E0,1.396605110E1,1.630549090E1
2.980230807E0,4.527000427E0,7.726950169E0,1.546095085E1,1.786730234E1
2.982194022E0,4.258049965E0,8.647050858E0,1.607400131E1,1.874235834E1
2.984157434E0,3.990000248E0,9.873000145E0,1.595895100E1,1.918552451E1
2.986120789E0,3.874950171E0,1.106100082E1,1.461795044E1,1.873620701E1
2.988084179E0,4.027950287E0,1.201905060E1,1.251000023E1,1.780960602E1
2.990047558E0,4.411950111E0,1.305405045E1,9.597000122E0,1.679213948E1
2.992011178E0,5.062950134E0,1.412700081E1,6.223950386E0,1.624632803E1
2.993974721E0,5.178000450E0,1.520100117E1,1.510050058E0,1.612954979E1
2.995938980E0,4.680000305E0,1.665705109E1,-3.778950214E0,1.770989041E1
2.997903029E0,3.607050180E0,1.868805122E1,-8.455050468E0,2.082647229E1
2.999865715E0,1.920000076E0,2.148600197E1,-1.259400082E1,2.497886181E1
3.001828800E0,-3.299999982E-2,2.459100151E1,-1.493205070E1,2.876950786E1
3.003792085E0,-2.103000164E0,2.830905151E1,-1.539195061E1,3.229144083E1
3.005755322E0,-4.173000336E0,3.271605301E1,-1.374405098E1,3.573028119E1
3.007718912E0,-6.664050102E0,3.796695328E1,-1.182705021E1,4.032094024E1
3.009682399E0,-8.121000290E0,4.291095352E1,-9.028950691E0,4.459621653E1
3.011646082E0,-9.462000847E0,4.793205261E1,-6.538050175E0,4.929256767E1
3.013609707E0,-1.045905018E1,5.195700073E1,-5.580000401E0,5.329219512E1
3.015573232E0,-1.137795067E1,5.536800385E1,-5.772000313E0,5.681891937E1
3.017536786E0,-1.187700081E1,5.789805222E1,-6.270000458E0,5.943534726E1
3.019500366E0,-1.199205017E1,5.981400299E1,-6.232050419E0,6.132179607E1
3.021463938E0,-1.141695023E1,6.046500397E1,-6.691050529E0,6.189615185E1
3.023427111E0,-1.026705074E1,5.981400299E1,-7.113000393E0,6.110419019E1
3.025390401E0,-8.695050240E0,5.789805222E1,-7.918050289E0,5.908031711E1
3.027353926E0,-7.086000443E0,5.490795135E1,-8.301000595E0,5.598215015E1
3.029317389E0,-5.169000149E0,5.115195084E1,-8.148000717E0,5.205411177E1
3.031280941E0,-3.253050089E0,4.685895157E1,-7.726050377E0,4.760289415E1
3.033244466E0,-1.336950064E0,4.252800369E1,-7.189950466E0,4.315221803E1
3.035208954E0,1.570500135E-1,3.861900330E1,-6.730050087E0,3.920134761E1
3.037173159E0,8.470500112E-1,3.528404999E1,-6.499950409E0,3.588775603E1
3.039136570E0,1.345050097E0,3.256305313E1,-6.270000458E0,3.318846930E1
3.041100224E0,1.651950121E0,3.022500229E1,-6.154950142E0,3.088953081E1
3.043063697E0,1.996950150E0,2.811705208E1,-6.460950375E0,2.891885729E1
3.045027224E0,2.419050217E0,2.620095062E1,-6.883050442E0,2.719775728E1
3.046990584E0,2.878050089E0,2.451405144E1,-7.305000305E0,2.574072492E1
3.048953993E0,3.223050117E0,2.301900101E1,-7.840950489E0,2.453044973E1
3.050917238E0,3.645000219E0,2.171595192E1,-8.263050079E0,2.351906867E1
3.052880531E0,3.913050175E0,2.045100021E1,-8.875950813E0,2.263488180E1
3.054844065E0,4.027950287E0,1.937805176E1,-9.604050636E0,2.199934231E1
3.056807529E0,3.874950171E0,1.842000008E1,-1.052400017E1,2.156539406E1
3.058770766E0,3.913050175E0,1.750005150E1,-1.136700058E1,2.123140283E1
3.060734070E0,3.721950293E0,1.661894989E1,-1.213395023E1,2.091112521E1
3.062697855E0,3.568050146E0,1.585200119E1,-1.232595062E1,2.039475379E1
3.064661480E0,3.376950264E0,1.531605053E1,-1.274700069E1,2.021067103E1
3.066624644E0,2.992950201E0,1.481700039E1,-1.267095089E1,1.972445811E1
3.068587944E0,2.610000134E0,1.435695076E1,-1.221105099E1,1.902745128E1
3.070550938E0,2.341950178E0,1.382100105E1,-1.198095036E1,1.844038970E1
3.072514021E0,2.149950027E0,1.339905071E1,-1.171200085E1,1.792561879E1
3.074476934E0,1.920000076E0,1.309305096E1,-1.132905006E1,1.742015382E1
3.076439916E0,1.651950121E0,1.278600025E1,-1.037100029E1,1.654594780E1
3.078403008E0,1.345050097E0,1.247895050E1,-9.373950005E0,1.566538554E1
3.080366068E0,1.384050012E0,1.205805016E1,-8.493000031E0,1.481361595E1
3.082329508E0,1.422000051E0,1.163595009E1,-7.879950523E0,1.412483766E1
3.084292837E0,1.384050012E0,1.117605019E1,-6.652950287E0,1.307981039E1
3.086256572E0,1.345050097E0,1.063995075E1,-5.311950207E0,1.196806278E1
3.088220202E0,1.459950089E0,1.002600002E1,-4.582950115E0,1.112005227E1
3.090183860E0,1.575000048E0,9.451050758E0,-3.625050068E0,1.024421659E1
3.092147509E0,1.537050128E0,8.761950493E0,-3.549000263E0,9.577562446E0
3.094110714E0,1.537050128E0,8.148000717E0,-2.859000206E0,8.770765130E0
3.096074050E0,1.384050012E0,7.573050499E0,-2.245050192E0,8.019160720E0
3.098037572E0,1.153950095E0,7.075050354E0,-1.824000120E0,7.396953074E0
3.100001043E0,7.320000529E-1,6.499950409E0,-1.441050053E0,6.697895539E0
3.101963513E0,5.020500422E-1,5.887050152E0,-1.018950105E0,5.995637835E0
3.103926276E0,2.719500065E-1,5.311950207E0,-7.890000343E-1,5.377108225E0
3.105889631E0,4.200000316E-2,4.736999989E0,-7.120500207E-1,4.790401666E0
3.107852812E0,-2.250000089E-1,4.009050369E0,-4.440000355E-1,4.039832410E0
3.109815532E0,-5.700000525E-1,3.396000147E0,9.195000678E-2,3.444731029E0
3.111778373E0,-7.999500632E-1,2.743950129E0,9.349500537E-1,3.007210338E0
3.113741805E0,-1.068000078E0,2.361000061E0,1.395000100E0,2.942952724E0
3.115705063E0,-1.068000078E0,1.786050081E0,1.510050058E0,2.571157373E0
3.117668334E0,-1.222050071E0,1.288050056E0,1.585950017E0,2.380696700E0
3.119631601E0,-1.452000022E0,8.659500480E-1,1.548000097E0,2.292264786E0
3.121594965E0,-1.681950092E0,4.440000355E-1,1.318050027E0,2.182509569E0
3.123558298E0,-1.911000133E0,2.140500098E-1,8.200500607E-1,2.090507358E0
3.125523494E0,-2.065050125E0,-1.500000060E-2,2.070000172E-1,2.075453210E0
3.127488144E0,-2.140950203E0,-1.290000081E-1,-2.140500098E-1,2.155487458E0
3.129451493E0,-2.065050125E0,-1.680000126E-1,-4.819500148E-1,2.127188718E0
3.131415223E0,-2.026050091E0,-3.210000098E-1,-7.510500550E-1,2.184489909E0
3.133378798E0,-1.681950092E0,-5.890500546E-1,-8.269500136E-1,1.964632893E0
3.135342401E0,-1.375050068E0,-8.190000653E-1,-9.420000315E-1,1.857118159E0
3.137305883E0,-1.144950032E0,-1.011000037E0,-7.890000343E-1,1.719172099E0
3.139269401E0,-9.529500604E-1,-1.318050027E0,-6.360000372E-1,1.746386480E0
3.141232808E0,-7.620000243E-1,-1.548000097E0,-4.819500148E-1,1.791430756E0
3.143196247E0,-5.700000525E-1,-1.816050053E0,-3.289500177E-1,1.931617449E0
3.145159948E0,-4.930500090E-1,-2.122950077E0,-9.900000691E-2,2.181700333E0
3.147123596E0,-4.170000255E-1,-2.391000032E0,2.070000172E-1,2.435902129E0
3.149086216E0,-3.780000210E-1,-2.620950222E0,3.979500234E-1,2.677802887E0
3.151049137E0,-2.629500031E-1,-2.851050138E0,6.660000086E-1,2.939589360E0
3.153012600E0,-1.480500102E-1,-3.118950129E0,7.810500264E-1,3.218665539E0
3.154975904E0,-1.480500102E-1,-3.310950041E0,8.200500607E-1,3.414204311E0
3.156939808E0,-1.870500147E-1,-3.502050161E0,8.580000401E-1,3.610471868E0
3.158903529E0,-2.629500031E-1,-3.579000235E0,8.580000401E-1,3.689789893E0
3.160867082E0,-2.629500031E-1,-3.771000147E0,8.580000401E-1,3.876306087E0
3.162830684E0,-4.170000255E-1,-3.886050224E0,8.200500607E-1,3.993464344E0
3.164794212E0,-4.170000255E-1,-4.077000141E0,5.899500251E-1,4.140514485E0
3.166757761E0,-4.930500090E-1,-4.192049980E0,5.130000114E-1,4.252005451E0
3.168721418E0,-4.930500090E-1,-4.345950127E0,5.509500504E-1,4.408392765E0
3.170685053E0,-4.930500090E-1,-4.498950005E0,6.660000086E-1,4.574626265E0
3.172648441E0,-4.549500346E-1,-4.575000286E0,7.810500264E-1,4.663437176E0
3.174611901E0,-3.400500119E-1,-4.614000320E0,1.087950110E0,4.752711690E0
3.176575272E0,-1.870500147E-1,-4.614000320E0,1.356000066E0,4.812766652E0
3.178538670E0,4.200000316E-2,-4.690050125E0,1.624950051E0,4.963748266E0
3.180502213E0,2.340000123E-1,-4.729050159E0,2.238000154E0,5.237109518E0
3.182465726E0,5.410500169E-1,-4.690050125E0,2.812950134E0,5.495634063E0
3.184429765E0,6.940500140E-1,-4.537050247E0,3.426000118E0,5.727478256E0
3.186393649E0,8.850000501E-1,-4.384050369E0,4.269000053E0,6.182837875E0
3.188357174E0,1.077000022E0,-4.192049980E0,5.074050426E0,6.669272810E0
3.190320805E0,1.230000019E0,-4.000950336E0,5.956050396E0,7.279769224E0
3.192284457E0,1.306950092E0,-3.732000113E0,6.799050331E0,7.865305384E0
3.194248106E0,1.306950092E0,-3.502050161E0,7.374000549E0,8.267306573E0
3.196211672E0,1.306950092E0,-3.310950041E0,7.719000340E0,8.500204407E0
3.198175262E0,1.306950092E0,-3.118950129E0,7.719000340E0,8.427273265E0
3.200138746E0,1.345050097E0,-2.889000177E0,7.564950466E0,8.208773194E0
3.202102262E0,1.384050012E0,-2.659050226E0,7.450050354E0,8.030528801E0
3.204065848E0,1.614000082E0,-2.544000149E0,7.374000549E0,7.965727658E0
3.206029414E0,1.767000079E0,-2.351999998E0,7.066950321E0,7.654801115E0
3.207992768E0,2.074050188E0,-2.199000120E0,6.837000370E0,7.475417030E0
3.209956185E0,2.188950062E0,-2.008050203E0,6.837000370E0,7.454417620E0
3.211919698E0,2.419050217E0,-1.816050053E0,6.684000492E0,7.336600325E0
3.213883183E0,2.649000168E0,-1.701000094E0,6.568950176E0,7.284346891E0
3.215846191E0,2.802000046E0,-1.548000097E0,6.301050186E0,7.067583887E0
3.217809339E0,2.955000162E0,-1.356000066E0,5.994000435E0,6.819003105E0
3.219772583E0,3.031950235E0,-1.164000034E0,5.533950329E0,6.416558622E0
3.221735798E0,3.108000040E0,-9.730500579E-1,4.996950150E0,5.964562135E0
3.223699257E0,2.955000162E0,-7.039500475E-1,4.461000443E0,5.397045171E0
3.225662645E0,2.917050123E0,-5.130000114E-1,3.771000147E0,4.795080035E0
3.227626173E0,2.917050123E0,-3.979500234E-1,3.118950129E0,4.288985375E0
3.229589654E0,2.917050123E0,-1.290000081E-1,2.506050110E0,3.847870785E0
3.231551942E0,2.917050123E0,-1.290000081E-1,1.624950051E0,3.341599182E0
3.233514579E0,2.955000162E0,9.900000691E-2,9.730500579E-1,3.112660177E0
3.235478676E0,2.917050123E0,2.910000086E-1,-2.205000073E-2,2.931611951E0
3.237442346E0,2.839950085E0,6.360000372E-1,-7.510500550E-1,3.005642812E0
3.239405453E0,2.878050089E0,9.430500269E-1,-1.402050018E0,3.337403170E0
3.241368728E0,2.955000162E0,1.249050021E0,-2.053950071E0,3.809312643E0
3.243332311E0,3.070050240E0,1.594050050E0,-2.590050220E0,4.321407662E0
3.245295803E0,3.184950113E0,2.016000032E0,-3.127050161E0,4.897612282E0
3.247258855E0,3.223050117E0,2.476050138E0,-3.433950186E0,5.320797894E0
3.249222036E0,3.337950230E0,2.859000206E0,-3.778950214E0,5.796227966E0
3.251185575E0,3.492000103E0,3.204000235E0,-4.123950005E0,6.282248472E0
3.253149019E0,3.568050146E0,3.511050224E0,-4.353000164E0,6.633782175E0
3.255112079E0,3.682950258E0,3.741000175E0,-4.353000164E0,6.819663873E0
3.257075252E0,3.721950293E0,3.931950092E0,-4.276950359E0,6.899670274E0
3.259038447E0,3.453000069E0,4.123950005E0,-4.200000286E0,6.824234427E0
3.261001635E0,2.917050123E0,4.354050159E0,-4.084949970E0,6.644828852E0
3.262964754E0,2.419050217E0,4.468950272E0,-3.894000292E0,6.402074566E0
3.264927882E0,1.804950118E0,4.584000111E0,-3.664050102E0,6.139720278E0
3.266890950E0,1.269000053E0,4.621950150E0,-3.433950186E0,5.896168095E0
3.268854036E0,8.850000501E-1,4.621950150E0,-3.012000084E0,5.587288500E0
3.270816210E0,4.639500082E-1,4.545000076E0,-2.437050104E0,5.177981123E0
3.272778652E0,4.050000105E-3,4.507050037E0,-1.824000120E0,4.862148998E0
3.274742317E0,-4.170000255E-1,4.431000233E0,-1.171950102E0,4.602294985E0
3.276705635E0,-6.079500318E-1,4.276950359E0,-4.060500264E-1,4.338984241E0
3.278667770E0,-7.230000496E-1,4.201050282E0,3.600000143E-1,4.277984636E0
3.280630252E0,-7.230000496E-1,4.085999966E0,1.203000069E0,4.320339565E0
3.282593656E0,-7.620000243E-1,4.009050369E0,1.969950080E0,4.531427172E0
3.284556789E0,-6.469500065E-1,4.123950005E0,3.043050051E0,5.165816640E0
3.286520371E0,-6.079500318E-1,4.239000320E0,4.461000443E0,6.183789445E0
3.288483808E0,-4.549500346E-1,4.431000233E0,6.301050186E0,7.716474327E0
3.290447363E0,-1.870500147E-1,4.699050426E0,8.869050026E0,1.003873055E1
3.292410884E0,1.189500093E-1,5.197050095E0,1.151295090E1,1.263216201E1
3.294374292E0,2.719500065E-1,5.809950352E0,1.366005039E1,1.484676586E1
3.296337733E0,-3.400500119E-1,6.730050087E0,1.496295071E1,1.641033522E1
3.298300898E0,-1.099500060E-1,7.534950256E0,1.519305038E1,1.695925542E1
3.300264165E0,2.340000123E-1,8.416950226E0,1.431105042E1,1.660439614E1
3.302228290E0,6.940500140E-1,9.565950394E0,1.273995018E1,1.594664363E1
