"Time (s)","Acceleration x (m/s^2)","Acceleration y (m/s^2)","Acceleration z (m/s^2)","Absolute acceleration (m/s^2)"
3.291957000E-2,-7.621950150E0,-1.960005188E1,-1.546800041E1,2.610584598E1
3.488164100E-2,-7.201050282E0,-1.891005135E1,-1.566000080E1,2.558673078E1
3.684626300E-2,-6.241950512E0,-1.829700089E1,-1.635000038E1,2.531925552E1
3.880948000E-2,-5.323050022E0,-1.779900169E1,-1.684800148E1,2.507976229E1
4.077310900E-2,-3.943050146E0,-1.726200104E1,-1.742295074E1,2.484116617E1
4.273656800E-2,-2.677950144E0,-1.672500038E1,-1.773000145E1,2.452039980E1
4.470009000E-2,-1.489950061E0,-1.599705029E1,-1.788300133E1,2.404011867E1
4.666439600E-2,-2.250000089E-1,-1.526895046E1,-1.795995140E1,2.357437862E1
4.862847200E-2,9.619500637E-1,-1.465605068E1,-1.757595062E1,2.290500403E1
5.059223500E-2,1.843950033E0,-1.396605110E1,-1.707795143E1,2.213836399E1
5.255609000E-2,2.802000046E0,-1.319895077E1,-1.650300026E1,2.131695389E1
5.451928200E-2,3.837000132E0,-1.262400055E1,-1.508505058E1,2.004112549E1
5.648265200E-2,4.680000305E0,-1.201095104E1,-1.374405098E1,1.884314955E1
5.844621800E-2,5.101050377E0,-1.128300095E1,-1.240200043E1,1.752530855E1
6.040972700E-2,5.446050167E0,-1.063095093E1,-1.098405075E1,1.622732113E1
6.237322700E-2,5.560950279E0,-9.979950905E0,-9.604050636E0,1.492519269E1
6.433672900E-2,5.638050079E0,-9.250950813E0,-8.340000153E0,1.367198969E1
6.630031800E-2,5.830050468E0,-8.638050079E0,-7.305000305E0,1.272668170E1
6.826388100E-2,5.905950069E0,-7.987050533E0,-6.307950497E0,1.176704984E1
7.022759600E-2,6.021000385E0,-7.335000515E0,-5.656950474E0,1.104788518E1
7.219126600E-2,6.136050224E0,-6.837000370E0,-4.966950417E0,1.044348040E1
7.415491800E-2,6.136050224E0,-6.339000225E0,-4.582950115E0,9.941703474E0
7.611857500E-2,6.405000210E0,-5.955000401E0,-4.123950005E0,9.669178926E0
7.808225800E-2,6.750000477E0,-5.572050095E0,-3.931950092E0,9.595336379E0
8.004594300E-2,7.095000267E0,-5.304000378E0,-4.047000408E0,9.739079068E0
8.200981700E-2,7.401000500E0,-5.188950062E0,-3.931950092E0,9.856989534E0
8.397363500E-2,7.861050606E0,-4.959000111E0,-4.047000408E0,1.013735720E1
8.593717200E-2,8.244000435E0,-4.729050159E0,-3.778950214E0,1.022780149E1
8.790079100E-2,8.628000259E0,-4.461000443E0,-3.817050219E0,1.043612887E1
8.986441600E-2,9.010950089E0,-4.153950214E0,-4.123950005E0,1.074520765E1
9.182806300E-2,9.433050156E0,-3.732000113E0,-4.276950359E0,1.100920362E1
9.379158400E-2,9.816000938E0,-3.541050196E0,-4.545000076E0,1.138200055E1
9.575514200E-2,9.892050743E0,-3.271950245E0,-4.774950027E0,1.146117246E1
9.771849700E-2,1.019895077E1,-3.004050255E0,-5.197050095E0,1.183436709E1
9.968191100E-2,1.023705006E1,-2.736000061E0,-5.388000488E0,1.188753294E1
1.016452760E-1,1.042905045E1,-2.544000149E0,-5.772000313E0,1.218823275E1
1.036086660E-1,1.042905045E1,-2.467050076E0,-5.733000278E0,1.215395909E1
1.055720500E-1,1.046700096E1,-2.428950071E0,-5.809950352E0,1.221529495E1
1.075354360E-1,1.062105083E1,-2.314050198E0,-6.078000069E0,1.245406094E1
1.094991790E-1,1.081200027E1,-2.428950071E0,-6.460950375E0,1.282743264E1
1.114628180E-1,1.081200027E1,-2.467050076E0,-6.615000248E0,1.291293593E1
1.134265740E-1,1.081200027E1,-2.506050110E0,-6.538050175E0,1.288121645E1
1.153902890E-1,1.077405071E1,-2.351999998E0,-6.538050175E0,1.282022515E1
1.173541580E-1,1.062105083E1,-2.275950193E0,-6.307950497E0,1.256092790E1
1.193179810E-1,1.046700096E1,-2.238000154E0,-5.962950230E0,1.225249074E1
1.212816520E-1,1.031400013E1,-2.046000004E0,-5.503050327E0,1.186795170E1
1.232453680E-1,1.016100025E1,-1.893000126E0,-4.966950417E0,1.146734372E1
1.252088760E-1,9.777000427E0,-1.624050021E0,-4.468050003E0,1.087155677E1
1.271724450E-1,9.202950478E0,-1.240950108E0,-4.276950359E0,1.022382311E1
1.291361570E-1,8.359050751E0,-8.190000653E-1,-3.931950092E0,9.273873090E0
1.310998270E-1,7.593000412E0,-4.360500276E-1,-3.664050102E0,8.442100333E0
1.330623980E-1,6.673050404E0,-1.290000081E-1,-3.049950123E0,7.338149524E0
1.350252910E-1,5.485050201E0,1.380000114E-1,-2.206950188E0,5.914004468E0
1.369889890E-1,4.182000160E0,4.060500264E-1,-1.363950014E0,4.417506265E0
1.389524480E-1,2.572050095E0,4.060500264E-1,-4.060500264E-1,2.635373776E0
1.409145590E-1,1.230000019E0,3.289500177E-1,5.130000114E-1,1.372689758E0
1.428770650E-1,4.050000105E-3,2.530499995E-1,1.279950023E0,1.304730917E0
1.448410950E-1,-1.106999993E0,1.380000114E-1,1.585950017E0,1.939002435E0
1.468046780E-1,-2.065050125E0,1.380000114E-1,1.893000126E0,2.804804004E0
1.487692950E-1,-2.793000221E0,2.295000106E-2,1.893000126E0,3.374140841E0
1.507336060E-1,-3.291000128E0,-1.290000081E-1,1.585950017E0,3.655483593E0
1.526975540E-1,-3.751050234E0,-2.830500007E-1,9.349500537E-1,3.876161344E0
1.546616090E-1,-4.018949986E0,-6.280500293E-1,-9.900000691E-2,4.068931902E0
1.566250580E-1,-4.057950020E0,-1.164000034E0,-8.659500480E-1,4.309492305E0
1.585886850E-1,-4.057950020E0,-1.548000097E0,-1.632000089E0,4.639686084E0
1.605522670E-1,-4.134000301E0,-2.083950043E0,-2.437050104E0,5.231827547E0
1.625158530E-1,-4.363950253E0,-2.391000032E0,-2.935050249E0,5.777150070E0
1.644792030E-1,-4.555950165E0,-2.851050138E0,-3.510000229E0,6.419133150E0
1.664426230E-1,-4.671000004E0,-3.502050161E0,-4.009050369E0,7.082025221E0
1.684060010E-1,-4.708950043E0,-4.192049980E0,-4.276950359E0,7.618385519E0
1.703693920E-1,-4.633050442E0,-4.920000076E0,-4.392000198E0,8.059852535E0
1.723327800E-1,-4.594050407E0,-5.686950207E0,-4.621950150E0,8.649226843E0
1.742961660E-1,-4.363950253E0,-6.568950176E0,-4.545000076E0,9.102318052E0
1.762591900E-1,-4.134000301E0,-7.756950378E0,-4.392000198E0,9.825981040E0
1.782223200E-1,-3.828000069E0,-8.830050468E0,-3.931950092E0,1.039632663E1
1.801861070E-1,-3.330000162E0,-1.013295078E1,-3.127050161E0,1.111503645E1
1.821497020E-1,-2.601000071E0,-1.151295090E1,-1.861950040E0,1.194906263E1
1.841131910E-1,-1.681950092E0,-1.312305069E1,-7.890000343E-1,1.325390269E1
1.860767080E-1,-9.150000215E-1,-1.465605068E1,3.220500052E-1,1.468811638E1
1.880404300E-1,4.050000105E-3,-1.611194992E1,1.740000129E0,1.620563319E1
1.900040910E-1,7.699500322E-1,-1.787505150E1,2.620950222E0,1.808257916E1
1.919674740E-1,1.384050012E0,-1.979205132E1,2.889000177E0,2.004961874E1
1.939309390E-1,1.920000076E0,-2.151600075E1,3.808950186E0,2.193473934E1
1.958944560E-1,2.380050182E0,-2.316405106E1,4.806000233E0,2.377678570E1
1.978579810E-1,2.686950207E0,-2.481195068E1,5.035950184E0,2.546003520E1
1.998217020E-1,2.686950207E0,-2.619195175E1,5.496000290E0,2.689691538E1
2.017853660E-1,2.610000134E0,-2.737995148E1,5.686950207E0,2.808585491E1
2.037490630E-1,2.572050095E0,-2.830005074E1,5.917050362E0,2.902619159E1
2.057127500E-1,2.265000105E0,-2.906700134E1,5.994000435E0,2.976489264E1
2.076765790E-1,1.498950124E0,-2.948805046E1,5.649000168E0,3.006165621E1
2.096403660E-1,1.192050099E0,-2.991000175E1,4.921050072E0,3.033555541E1
2.116031870E-1,8.089500666E-1,-3.056205177E1,3.655950069E0,3.079057290E1
2.135662910E-1,5.410500169E-1,-3.109800148E1,2.122950077E0,3.117507575E1
2.155316600E-1,7.699500322E-1,-3.190305138E1,6.280500293E-1,3.191852060E1
2.174963660E-1,1.077000022E0,-3.247800064E1,-1.363950014E0,3.252446486E1
2.194591790E-1,1.077000022E0,-3.297600174E1,-1.939050078E0,3.305051490E1
2.214225360E-1,3.490500152E-1,-3.316800308E1,-1.594050050E0,3.320812039E1
2.233864650E-1,-7.620000243E-1,-3.289995193E1,-1.018950105E0,3.292454617E1
2.253502260E-1,-1.642950058E0,-3.240105057E1,-2.014950037E0,3.250519015E1
2.273140870E-1,-3.022950172E0,-3.190305138E1,-2.245050192E0,3.212449479E1
2.292779180E-1,-2.601000071E0,-3.232500076E1,-1.134000063E0,3.244929632E1
2.312416070E-1,-1.528050065E0,-3.259305191E1,-1.479000092E0,3.266235465E1
2.332053240E-1,-9.150000215E-1,-3.263100052E1,-9.810000658E-1,3.265856367E1
2.351690120E-1,-8.770500422E-1,-3.286095047E1,-1.759500057E-1,3.287312338E1
2.371327090E-1,-1.144950032E0,-3.297600174E1,-6.105000153E-2,3.299592897E1
2.390964440E-1,-1.642950058E0,-3.282300186E1,-1.759500057E-1,3.286456594E1
2.410601680E-1,-1.720050097E0,-3.259305191E1,-3.289500177E-1,3.264006454E1
2.430239710E-1,-1.987950087E0,-3.213300323E1,-9.420000315E-1,3.220821644E1
2.449877650E-1,-2.524950027E0,-3.140505219E1,-1.939050078E0,3.156600372E1
2.469514860E-1,-2.755050182E0,-3.094500160E1,-2.359950066E0,3.115690598E1
2.489152280E-1,-3.445050240E0,-3.075300217E1,-1.171950102E0,3.096754721E1
2.508781910E-1,-3.828000069E0,-3.094500160E1,1.300500035E-1,3.118114208E1
2.528413820E-1,-3.828000069E0,-3.106005096E1,1.240950108E0,3.131964731E1
2.548055050E-1,-3.483000278E0,-3.071505165E1,1.087950110E0,3.093104144E1
2.567693650E-1,-2.640000105E0,-3.094500160E1,2.161050081E0,3.113250491E1
2.587329850E-1,-1.489950061E0,-3.125100136E1,3.388050079E0,3.146941246E1
2.606966750E-1,-4.930500090E-1,-3.117495155E1,2.161050081E0,3.125365323E1
2.626623490E-1,7.320000529E-1,-3.125100136E1,1.500000060E-2,3.125957669E1
2.646274420E-1,1.498950124E0,-3.151995087E1,-1.824000120E0,3.160824466E1
2.665912280E-1,2.304000139E0,-3.209505081E1,-4.353000164E0,3.247074551E1
2.685554160E-1,3.223050117E0,-3.270795059E1,-6.346950531E0,3.347359952E1
2.705190230E-1,4.105050087E0,-3.320595169E1,-7.765050411E0,3.434796459E1
2.724828010E-1,4.717950344E0,-3.336000061E1,-7.189950466E0,3.445060353E1
2.744464780E-1,6.366000175E0,-3.362805176E1,-5.542050362E0,3.467111399E1
2.764101850E-1,8.206049919E0,-3.458595276E1,-5.311950207E0,3.594084304E1
2.783739760E-1,8.512949944E0,-3.481605148E1,-5.082000256E0,3.620020006E1
2.803377020E-1,8.857950211E0,-3.493095016E1,-4.582950115E0,3.632682195E1
2.823013440E-1,9.202950478E0,-3.481605148E1,-3.702000141E0,3.620160968E1
2.842650110E-1,9.202950478E0,-3.439395142E1,-2.782050133E0,3.571243473E1
2.862285270E-1,9.126000404E0,-3.370395279E1,-1.747050047E0,3.496130005E1
2.881920880E-1,9.088050842E0,-3.293805313E1,-7.890000343E-1,3.417792465E1
2.901554880E-1,8.282999992E0,-3.178800201E1,-4.440000355E-1,3.285243213E1
2.921189350E-1,7.056000233E0,-3.033195114E1,-1.369500011E-1,3.114214435E1
2.940814070E-1,5.868000507E0,-2.887500191E1,6.660000086E-1,2.947274539E1
2.960441650E-1,4.642050266E0,-2.730405045E1,1.930950046E0,2.776307565E1
2.980077910E-1,3.760050297E0,-2.592405128E1,2.851050138E0,2.635000759E1
2.999711630E-1,2.878050089E0,-2.450595093E1,3.388050079E0,2.490589662E1
3.019347210E-1,2.380050182E0,-2.312595177E1,3.273000240E0,2.347736814E1
3.038982310E-1,1.575000048E0,-2.186100197E1,3.043050051E0,2.212790514E1
3.058614150E-1,1.153950095E0,-2.063505173E1,3.081000090E0,2.089568190E1
3.078246950E-1,8.089500666E-1,-1.956195068E1,3.081000090E0,1.981960838E1
3.097875570E-1,6.550500393E-1,-1.860300064E1,3.004050255E0,1.885537168E1
3.117505410E-1,5.410500169E-1,-1.764495087E1,2.889000177E0,1.788807838E1
3.137149350E-1,7.320000529E-1,-1.676399994E1,2.698050022E0,1.699549917E1
3.156789190E-1,8.470500112E-1,-1.607400131E1,2.773950100E0,1.633357925E1
3.176423370E-1,1.114950061E0,-1.549905109E1,2.698050022E0,1.577159384E1
3.196059210E-1,1.153950095E0,-1.492395115E1,2.773950100E0,1.522336093E1
3.215694520E-1,8.470500112E-1,-1.408095074E1,2.812950134E0,1.438413556E1
3.235329980E-1,6.550500393E-1,-1.323795033E1,2.889000177E0,1.356535077E1
3.254960240E-1,3.109500110E-1,-1.254795074E1,3.004050255E0,1.290628048E1
3.274592130E-1,8.100000024E-2,-1.178100014E1,3.081000090E0,1.217748278E1
3.294231260E-1,-1.870500147E-1,-1.101495075E1,3.196050167E0,1.147078308E1
3.313868270E-1,-6.469500065E-1,-1.024800014E1,3.273000240E0,1.077741072E1
3.333503390E-1,-9.529500604E-1,-9.405000687E0,3.502950191E0,1.008131002E1
3.353139060E-1,-1.336950064E0,-8.523000717E0,3.808950186E0,9.430645695E0
3.372776730E-1,-1.873050094E0,-7.603050232E0,4.153950214E0,8.863971563E0
3.392413750E-1,-2.332950115E0,-6.568950176E0,4.423050404E0,8.255733616E0
3.412050220E-1,-2.640000105E0,-5.725050449E0,4.614000320E0,7.812477338E0
3.431686850E-1,-3.022950172E0,-4.843950272E0,4.806000233E0,7.463224519E0
3.451320670E-1,-3.214950085E0,-4.077000141E0,4.959000111E0,7.179799182E0
3.470955310E-1,-3.291000128E0,-3.426000118E0,5.188950062E0,7.035151839E0
3.490594410E-1,-3.291000128E0,-2.812050104E0,5.304000378E0,6.846219952E0
3.510232210E-1,-3.367950201E0,-2.008050203E0,5.496000290E0,6.751397882E0
3.529869000E-1,-3.291000128E0,-1.318050027E0,5.686950207E0,6.701443156E0
3.549506080E-1,-3.100050211E0,-5.130000114E-1,5.994000435E0,6.767682139E0
3.569133960E-1,-2.908050060E0,9.900000691E-2,6.109050274E0,6.766612993E0
3.588764540E-1,-2.869950056E0,7.890000343E-1,5.917050362E0,6.623489968E0
3.608400290E-1,-2.716050148E0,1.326000094E0,5.764050484E0,6.508416292E0
3.628034520E-1,-2.563050032E0,1.939050078E0,5.686950207E0,6.532269386E0
3.647673710E-1,-2.295000076E0,2.398950100E0,5.304000378E0,6.257348235E0
3.667311440E-1,-2.140950203E0,2.821050167E0,4.996950150E0,6.124663469E0
3.686952280E-1,-2.140950203E0,3.319050074E0,4.729050159E0,6.161467080E0
3.706592210E-1,-2.332950115E0,3.894000292E0,4.461000443E0,6.364465371E0
3.726230430E-1,-2.485950232E0,4.239000320E0,4.384050369E0,6.585512122E0
3.745869160E-1,-2.524950027E0,4.621950150E0,4.153950214E0,6.707689484E0
3.765507120E-1,-2.985000134E0,5.274000168E0,3.847950220E0,7.178580951E0
3.785145310E-1,-3.214950085E0,5.809950352E0,3.655950069E0,7.580065834E0
3.804782020E-1,-3.483000278E0,6.193950176E0,3.388050079E0,7.872432475E0
3.824419160E-1,-3.483000278E0,6.385050297E0,3.426000118E0,8.039753419E0
3.844054570E-1,-3.828000069E0,6.730050087E0,3.004050255E0,8.304906780E0
3.863690260E-1,-4.363950253E0,7.189950466E0,2.889000177E0,8.893018134E0
3.883325590E-1,-4.555950165E0,7.420050144E0,2.889000177E0,9.173884023E0
3.902961030E-1,-4.824000359E0,7.534950256E0,2.889000177E0,9.401743288E0
3.922596840E-1,-5.053950310E0,7.534950256E0,3.081000090E0,9.581777009E0
3.942232540E-1,-5.169000149E0,7.381950378E0,3.196050167E0,9.561720065E0
3.961872880E-1,-5.398950100E0,7.342950344E0,3.157950163E0,9.645736424E0
3.981511830E-1,-5.629050255E0,6.997950554E0,3.196050167E0,9.532694026E0
4.001148860E-1,-5.821050167E0,6.844950199E0,2.928000212E0,9.450457847E0
4.020786460E-1,-6.013050079E0,6.577050209E0,2.851050138E0,9.356433487E0
4.040424610E-1,-5.974050522E0,6.232050419E0,2.736000061E0,9.056126567E0
4.060062590E-1,-5.782950401E0,5.656950474E0,2.736000061E0,8.539865358E0
4.079697590E-1,-5.437950134E0,5.044050217E0,2.698050022E0,7.892605284E0
4.099333430E-1,-5.208000183E0,4.621950150E0,2.698050022E0,7.467607583E0
4.118968740E-1,-4.978050232E0,4.123950005E0,2.698050022E0,7.004814178E0
4.138604200E-1,-4.555950165E0,3.433950186E0,2.736000061E0,6.327273672E0
4.158243170E-1,-4.363950253E0,2.974050045E0,2.545050144E0,5.862279055E0
4.177881110E-1,-4.057950020E0,2.514000177E0,2.698050022E0,5.483304585E0
4.197517870E-1,-4.173000336E0,2.284050226E0,2.467950106E0,5.359253209E0
4.217154970E-1,-4.249050140E0,2.245950222E0,2.200050116E0,5.285729846E0
4.236790060E-1,-4.249050140E0,1.939050078E0,2.200050116E0,5.162805711E0
4.256425740E-1,-4.173000336E0,1.708950043E0,2.238000154E0,5.034191766E0
4.276061510E-1,-4.096050262E0,1.441050053E0,2.467950106E0,4.994500048E0
4.295697260E-1,-4.173000336E0,1.441050053E0,2.506050110E0,5.076499208E0
4.315332290E-1,-4.555950165E0,1.518000126E0,2.545050144E0,5.434913663E0
4.334967430E-1,-4.555950165E0,1.326000094E0,2.698050022E0,5.458427619E0
4.354605100E-1,-4.747950077E0,1.210950017E0,3.004050255E0,5.747499266E0
4.374242030E-1,-4.978050232E0,1.134000063E0,3.118950129E0,5.982874740E0
4.393877160E-1,-5.284050465E0,1.326000094E0,2.698050022E0,6.079386440E0
4.413512820E-1,-5.245950222E0,1.018950105E0,2.928000212E0,6.093557113E0
4.433148150E-1,-5.245950222E0,9.430500269E-1,3.081000090E0,6.156451790E0
4.452783580E-1,-5.284050465E0,7.510500550E-1,3.081000090E0,6.162615277E0
4.472422550E-1,-5.208000183E0,6.739500165E-1,3.502950191E0,6.312537887E0
4.492060480E-1,-5.208000183E0,6.360000372E-1,4.192950249E0,6.716293155E0
4.511697240E-1,-5.245950222E0,8.280000687E-1,4.882050037E0,7.213874854E0
4.531334340E-1,-5.323050022E0,1.096050024E0,4.996950150E0,7.382797437E0
4.550971310E-1,-5.398950100E0,1.210950017E0,5.649000168E0,7.907355122E0
4.570607950E-1,-5.398950100E0,1.363950014E0,6.262050152E0,8.379874338E0
4.590246710E-1,-5.398950100E0,1.479000092E0,6.568950176E0,8.630597307E0
4.609884850E-1,-5.668050289E0,1.747950077E0,6.415950298E0,8.737650816E0
4.629518430E-1,-5.782950401E0,1.786050081E0,6.991050243E0,9.247014315E0
4.649153340E-1,-5.974050522E0,1.939050078E0,7.066950321E0,9.454680412E0
4.668790050E-1,-6.204000473E0,1.939050078E0,7.029000282E0,9.573733966E0
4.688426300E-1,-6.204000473E0,1.786050081E0,6.799050331E0,9.375856343E0
4.708062000E-1,-6.396000385E0,1.863000035E0,6.837000370E0,9.545897764E0
4.727697860E-1,-6.702000141E0,1.824000120E0,6.568950176E0,9.560067403E0
4.747334510E-1,-6.894000530E0,1.747950077E0,6.186000347E0,9.425983932E0
4.766970920E-1,-7.315950394E0,1.824000120E0,5.841000080E0,9.537682556E0
4.786608070E-1,-7.354050159E0,1.786050081E0,5.341950417E0,9.263285750E0
4.806244910E-1,-7.276950359E0,1.555950046E0,5.341950417E0,9.160317753E0
4.825878700E-1,-7.239000320E0,1.326000094E0,4.690950394E0,8.727337365E0
4.845513390E-1,-7.047000408E0,1.173000097E0,4.192950249E0,8.283536429E0
4.865144830E-1,-6.778950214E0,9.430500269E-1,3.771000147E0,7.814342677E0
4.884777230E-1,-6.472050190E0,4.830000103E-1,3.579000235E0,7.411475248E0
4.904413950E-1,-6.280950069E0,2.530499995E-1,3.234000206E0,7.069167236E0
4.924049130E-1,-5.935950279E0,-1.500000060E-2,3.081000090E0,6.687921371E0
4.943691760E-1,-5.629050255E0,-2.059500068E-1,2.889000177E0,6.330477407E0
4.963332210E-1,-5.476050377E0,-3.979500234E-1,2.773950100E0,6.151446262E0
4.982966290E-1,-5.208000183E0,-6.660000086E-1,2.583000183E0,5.851385465E0
5.002602230E-1,-4.900950432E0,-9.340500236E-1,2.200050116E0,5.452704383E0
5.022236080E-1,-4.441050053E0,-1.393950105E0,1.969950080E0,5.054376894E0
5.041870600E-1,-3.865950108E0,-1.777950048E0,1.740000129E0,4.597203178E0
5.061505670E-1,-3.483000278E0,-2.083950043E0,1.432950020E0,4.304356454E0
5.081140580E-1,-3.138000250E0,-2.275950193E0,1.126049995E0,4.036704528E0
5.100781910E-1,-2.946000099E0,-2.467050076E0,4.360500276E-1,3.867220227E0
5.120421350E-1,-2.755050182E0,-2.697000027E0,-2.520000041E-1,3.863627137E0
5.140054390E-1,-2.601000071E0,-2.965950251E0,-7.510500550E-1,4.015736351E0
5.159689200E-1,-2.448000193E0,-3.196050167E0,-1.326000094E0,4.238598573E0
5.179324220E-1,-2.410050154E0,-3.426000118E0,-1.939050078E0,4.615813445E0
5.198959180E-1,-2.256000042E0,-3.732000113E0,-2.590050220E0,5.072052955E0
5.218592840E-1,-2.179949999E0,-3.961950302E0,-3.280050039E0,5.586408547E0
5.238226890E-1,-1.950000048E0,-4.384050369E0,-4.009050369E0,6.252590078E0
5.257862940E-1,-1.605000019E0,-4.767000198E0,-4.736999989E0,6.909376589E0
5.277498410E-1,-1.222050071E0,-5.227050304E0,-5.311950207E0,7.551971680E0
5.297135590E-1,-5.700000525E-1,-5.839950085E0,-6.078000069E0,8.448195185E0
5.316772260E-1,8.100000024E-2,-6.454050541E0,-6.921000481E0,9.463697852E0
5.336414190E-1,7.320000529E-1,-7.105050564E0,-7.879950523E0,1.063537436E1
5.356054570E-1,1.384050012E0,-7.833000183E0,-9.067950249E0,1.206230525E1
5.375689560E-1,1.959000111E0,-8.562000275E0,-1.021800041E1,1.347416278E1
5.395326130E-1,2.764050245E0,-9.366000175E0,-1.125195026E1,1.489860120E1
5.414961310E-1,3.607050180E0,-1.009500027E1,-1.221105099E1,1.624898789E1
5.434596900E-1,4.372950077E0,-1.070805073E1,-1.293900108E1,1.735519495E1
5.454234040E-1,5.254950047E0,-1.120605087E1,-1.324500084E1,1.812788248E1
5.473870720E-1,6.021000385E0,-1.158900070E1,-1.312995052E1,1.851898981E1
5.493505440E-1,6.711000443E0,-1.185795021E1,-1.251705074E1,1.850202879E1
5.513140740E-1,7.132950306E0,-1.201095104E1,-1.159695053E1,1.815574803E1
5.532772990E-1,7.324050426E0,-1.193400097E1,-1.052400017E1,1.751618318E1
5.552406130E-1,7.477950573E0,-1.185795021E1,-9.681000710E0,1.703679849E1
5.572043240E-1,7.248000145E0,-1.124400043E1,-8.416049957E0,1.580477614E1
5.591679180E-1,6.940950394E0,-1.055505085E1,-7.305000305E0,1.459276945E1
5.611312820E-1,6.634950161E0,-9.979950905E0,-6.270000458E0,1.352534249E1
5.630947040E-1,6.175050259E0,-9.328050613E0,-4.852050304E0,1.219369370E1
5.650581260E-1,5.523000240E0,-8.791950226E0,-3.510000229E0,1.096001925E1
5.670215480E-1,4.872000217E0,-8.101950645E0,-1.786050081E0,9.621224728E0
5.689841610E-1,4.372950077E0,-7.450050354E0,7.810500264E-1,8.673867753E0
5.709470110E-1,3.798000097E0,-6.684000492E0,3.043050051E0,8.268060288E0
5.729106740E-1,3.184950113E0,-5.955000401E0,5.074050426E0,8.447006850E0
5.748741250E-1,2.572050095E0,-5.572050095E0,6.339000225E0,8.823044135E0
5.768379940E-1,2.149950027E0,-5.533950329E0,6.684000492E0,8.939952681E0
5.788017410E-1,1.767000079E0,-5.917050362E0,6.070950508E0,8.659689044E0
5.807652890E-1,1.422000051E0,-6.492000103E0,4.653000355E0,8.112863969E0
5.827288960E-1,1.192050099E0,-7.335000515E0,2.928000212E0,7.987264941E0
5.846922280E-1,6.550500393E-1,-8.407950401E0,1.279950023E0,8.530005426E0
5.866556510E-1,-3.299999982E-2,-9.787950516E0,9.195000678E-2,9.788438032E0
5.886183080E-1,-9.529500604E-1,-1.113000011E1,5.295000225E-2,1.117084688E1
5.905811890E-1,-2.103000164E0,-1.277805042E1,1.087950110E0,1.299556916E1
5.925448390E-1,-3.445050240E0,-1.457895088E1,3.924000263E0,1.548586317E1
5.945082640E-1,-4.863000393E0,-1.664895058E1,6.684000492E0,1.858795822E1
5.964719520E-1,-6.357000351E0,-1.925505066E1,7.182000160E0,2.151161444E1
5.984355670E-1,-7.891050339E0,-2.255100060E1,5.112000465E0,2.443253675E1
6.003998580E-1,-9.385050774E0,-2.569395065E1,-1.555950046E0,2.739852658E1
6.023639510E-1,-1.022895050E1,-2.784000206E1,-9.144000053E0,3.103723377E1
6.043275760E-1,-1.053495026E1,-2.906700134E1,-1.075395012E1,3.273412878E1
6.062913380E-1,-1.072695065E1,-3.010200119E1,-8.493000031E0,3.306552578E1
6.082541170E-1,-1.103295040E1,-3.144300079E1,-3.433950186E0,3.349895979E1
6.102171840E-1,-1.091805077E1,-3.255495071E1,2.238000154E0,3.440984297E1
6.121809830E-1,-1.053495026E1,-3.282300186E1,7.411950588E0,3.526005728E1
6.141445670E-1,-9.730050087E0,-3.224805069E1,1.009500027E1,3.516418175E1
6.161084130E-1,-7.891050339E0,-3.086805153E1,1.040205002E1,3.351578621E1
6.180721820E-1,-5.092950344E0,-2.837700081E1,8.791950226E0,3.014117959E1
6.200358620E-1,-2.716050148E0,-2.488905144E1,6.607050419E0,2.589391676E1
6.219995690E-1,-1.030050039E0,-2.109495163E1,3.847950220E0,2.146775974E1
6.239650600E-1,1.960500032E-1,-1.722405052E1,1.432950020E0,1.728466655E1
6.259300280E-1,1.230000019E0,-1.385100079E1,-3.289500177E-1,1.390939722E1
6.278931870E-1,1.729050040E0,-1.109100056E1,-1.594050050E0,1.133758806E1
6.298568760E-1,1.192050099E0,-8.944950104E0,-2.896950245E0,9.477628212E0
6.318193210E-1,-1.099500060E-1,-7.335000515E0,-4.084949970E0,8.396495568E0
6.337821210E-1,-9.919500351E-1,-6.339000225E0,-5.272950172E0,8.304871597E0
6.357455600E-1,-1.605000019E0,-5.494950294E0,-6.040050507E0,8.321821551E0
6.377088120E-1,-1.950000048E0,-5.035050392E0,-6.346950531E0,8.332947479E0
6.396722190E-1,-2.218050003E0,-4.729050159E0,-6.117000103E0,8.043715030E0
6.416355810E-1,-2.295000076E0,-4.690050125E0,-5.350050449E0,7.475736441E0
6.435993010E-1,-2.601000071E0,-4.575000286E0,-3.970050097E0,6.592201965E0
6.455629360E-1,-3.061050177E0,-4.306950092E0,-2.322000027E0,5.771614281E0
6.475256030E-1,-3.559950113E0,-4.153950214E0,-7.120500207E-1,5.516843520E0
6.494885540E-1,-4.210950375E0,-3.847050190E0,9.349500537E-1,5.779794964E0
6.514521920E-1,-4.824000359E0,-3.655950069E0,2.698050022E0,6.626946830E0
6.534156290E-1,-5.476050377E0,-3.771000147E0,4.345950127E0,7.943226822E0
6.553791310E-1,-6.204000473E0,-4.000950336E0,6.031950474E0,9.533186874E0
6.573426200E-1,-6.664050102E0,-4.498950005E0,7.335000515E0,1.088358155E1
6.593063470E-1,-6.856050491E0,-5.035050392E0,8.254950523E0,1.185332734E1
6.612700040E-1,-6.741000175E0,-5.686950207E0,8.869050026E0,1.250769900E1
6.632339280E-1,-6.586950302E0,-6.109050274E0,9.481950760E0,1.306199831E1
6.651977740E-1,-6.472050190E0,-6.492000103E0,1.009500027E1,1.363607456E1
6.671615710E-1,-6.433950424E0,-6.874950409E0,1.074705029E1,1.428844817E1
6.691253860E-1,-6.204000473E0,-7.488000393E0,1.120695019E1,1.483763810E1
6.710892360E-1,-6.051000118E0,-8.062950134E0,1.135995007E1,1.518796342E1
6.730530760E-1,-6.051000118E0,-8.715000153E0,1.128300095E1,1.548779973E1
6.750167440E-1,-5.668050289E0,-9.289950371E0,1.113000011E1,1.556620938E1
6.769804630E-1,-5.514000416E0,-1.017105007E1,1.090005016E1,1.589545701E1
6.789440010E-1,-5.514000416E0,-1.086105061E1,1.070805073E1,1.621816794E1
6.809076020E-1,-5.553000450E0,-1.166595078E1,1.059300041E1,1.670753959E1
6.828711300E-1,-5.706000328E0,-1.243305016E1,1.055505085E1,1.727854954E1
6.848346790E-1,-6.013050079E0,-1.308405018E1,1.059300041E1,1.787626354E1
6.867985750E-1,-6.280950069E0,-1.408095074E1,1.059300041E1,1.870655407E1
6.887623690E-1,-6.357000351E0,-1.515405083E1,1.051695061E1,1.951058584E1
6.907260150E-1,-6.396000385E0,-1.611194992E1,1.066995049E1,2.035562808E1
6.926896940E-1,-6.204000473E0,-1.726200104E1,1.086195087E1,2.131779253E1
6.946533870E-1,-5.590950489E0,-1.867995071E1,1.139805031E1,2.258572197E1
6.966170760E-1,-4.786050320E0,-2.029005051E1,1.258605099E1,2.435161405E1
6.985807690E-1,-4.134000301E0,-2.151600075E1,1.373595047E1,2.585932292E1
7.005444610E-1,-3.483000278E0,-2.274300194E1,1.503900051E1,2.748721456E1
7.025080190E-1,-2.677950144E0,-2.416095161E1,1.672605133E1,2.950735151E1
7.044716170E-1,-1.873050094E0,-2.557905197E1,1.952400017E1,3.223325610E1
7.064358650E-1,-5.320500135E-1,-2.737995148E1,2.136300087E1,3.473215551E1
7.083999230E-1,1.039050102E0,-2.941200066E1,2.155500031E1,3.647963056E1
7.103635530E-1,2.572050095E0,-3.125100136E1,2.105700111E1,3.777085945E1
7.123273090E-1,3.568050146E0,-3.267000198E1,1.986900139E1,3.840360957E1
7.142906290E-1,4.219950199E0,-3.366600037E1,1.818195152E1,3.849403748E1
7.162540770E-1,5.485050201E0,-3.424095154E1,1.722405052E1,3.871945834E1
7.182177650E-1,6.940950394E0,-3.470100021E1,1.664895058E1,3.910912635E1
7.201813830E-1,8.091000557E0,-3.477795029E1,1.584405041E1,3.906410180E1
7.221450880E-1,8.973000526E0,-3.450900269E1,1.469400024E1,3.856552409E1
7.241087680E-1,9.739050865E0,-3.412605286E1,1.300800037E1,3.779741617E1
7.260723190E-1,1.050600052E1,-3.362805176E1,1.032495022E1,3.671275676E1
7.280359150E-1,1.142595100E1,-3.309105301E1,6.837000370E0,3.566952088E1
7.300004790E-1,1.253700066E1,-3.263100052E1,2.965950251E0,3.508212424E1
7.319647590E-1,1.376400089E1,-3.217095184E1,-1.824000120E0,3.503919005E1
7.339283510E-1,1.506705093E1,-3.163500214E1,-7.113000393E0,3.575449844E1
7.358921450E-1,1.614000130E1,-3.082995224E1,-1.240200043E1,3.694313484E1
7.378554260E-1,1.694505119E1,-2.960295105E1,-1.738500023E1,3.828456221E1
7.398188810E-1,1.736595154E1,-2.837700081E1,-2.275095177E1,4.030429573E1
7.417822530E-1,1.713600159E1,-2.703495216E1,-2.673705101E1,4.170612767E1
7.437456500E-1,1.671495056E1,-2.584695053E1,-2.800200081E1,4.161209528E1
7.457090320E-1,1.660004997E1,-2.488905144E1,-2.865300179E1,4.142488445E1
7.476724190E-1,1.625505066E1,-2.408400154E1,-2.773305130E1,4.016700059E1
7.496361150E-1,1.567995071E1,-2.343300056E1,-2.608500099E1,3.841085324E1
7.515997540E-1,1.464495087E1,-2.258895111E1,-2.409195137E1,3.612696249E1
7.535631410E-1,1.334205055E1,-2.182305145E1,-2.140905190E1,3.335571002E1
7.555266020E-1,1.226895046E1,-2.101800156E1,-1.834305000E1,3.047541662E1
7.574899280E-1,1.131105042E1,-2.025105095E1,-1.562205029E1,2.796593251E1
7.594532940E-1,1.065900040E1,-1.979205132E1,-1.278600025E1,2.586158130E1
7.614167500E-1,1.008405018E1,-1.933200073E1,-1.044795036E1,2.417796491E1
7.633801620E-1,8.934000015E0,-1.864200020E1,-8.799000740E0,2.246692996E1
7.653435430E-1,7.095000267E0,-1.772205162E1,-7.342950344E0,2.045309420E1
7.673069340E-1,4.872000217E0,-1.664895058E1,-6.615000248E0,1.856561795E1
7.692699120E-1,2.533950090E0,-1.584405041E1,-6.232050419E0,1.721317196E1
7.712330110E-1,4.260000288E-1,-1.507695103E1,-6.040050507E0,1.624740405E1
7.731965040E-1,-1.567050099E0,-1.438695049E1,-6.385050297E0,1.581799159E1
7.751598700E-1,-2.985000134E0,-1.396605110E1,-6.499950409E0,1.569108551E1
7.771233930E-1,-4.288050175E0,-1.358205032E1,-6.997950554E0,1.586917696E1
7.790868700E-1,-5.514000416E0,-1.342905045E1,-7.726050377E0,1.644492174E1
7.810508250E-1,-6.472050190E0,-1.339095020E1,-8.761050224E0,1.726154634E1
7.830146390E-1,-7.047000408E0,-1.323795033E1,-9.565950394E0,1.778794396E1
7.849779610E-1,-7.546050549E0,-1.293105030E1,-1.014105034E1,1.808302637E1
7.869414200E-1,-7.966950417E0,-1.277805042E1,-1.098405075E1,1.863867598E1
7.889047470E-1,-8.044050217E0,-1.273905087E1,-1.155900097E1,1.898948826E1
7.908681130E-1,-8.044050217E0,-1.258605099E1,-1.190400028E1,1.910027869E1
7.928311850E-1,-8.464950562E0,-1.227900028E1,-1.232595062E1,1.934834088E1
7.947943430E-1,-8.619000435E0,-1.193400097E1,-1.209600067E1,1.905310421E1
7.967576140E-1,-8.734050751E0,-1.151295090E1,-1.228695011E1,1.896841648E1
7.987208320E-1,-8.503950119E0,-1.109100056E1,-1.263195038E1,1.883862074E1
8.006844260E-1,-8.542050362E0,-1.066995049E1,-1.312995052E1,1.895283801E1
8.026479090E-1,-8.197050095E0,-1.055505085E1,-1.381995106E1,1.922476985E1
8.046115920E-1,-8.005949974E0,-1.036305046E1,-1.477905083E1,1.974609818E1
8.065752170E-1,-7.699050426E0,-1.009500027E1,-1.554495049E1,2.007062265E1
8.085389800E-1,-7.354050159E0,-9.558000565E0,-1.573695087E1,1.982647350E1
8.105026920E-1,-6.396000385E0,-9.213000298E0,-1.493205070E1,1.867496543E1
8.124660210E-1,-4.824000359E0,-9.328050613E0,-1.393500042E1,1.744900411E1
8.144294630E-1,-2.640000105E0,-9.711000443E0,-1.355205059E1,1.687990537E1
8.163940530E-1,-5.700000525E-1,-9.903000832E0,-1.328400040E1,1.657887186E1
8.183583070E-1,1.153950095E0,-9.979950905E0,-1.309200096E1,1.650246982E1
8.203216040E-1,2.649000168E0,-1.001805019E1,-1.293900108E1,1.657698044E1
8.222851710E-1,3.874950171E0,-9.826050758E0,-1.301595020E1,1.676250196E1
8.242486590E-1,4.948050022E0,-9.481050491E0,-1.305405045E1,1.687547779E1
8.262121710E-1,6.021000385E0,-9.097949982E0,-1.297695065E1,1.695365411E1
8.281757130E-1,7.018050194E0,-8.715000153E0,-1.297695065E1,1.713492061E1
8.301392460E-1,7.938000202E0,-8.370000839E0,-1.316895103E1,1.750685673E1
8.321028340E-1,8.743050575E0,-8.101950645E0,-1.343700027E1,1.796205762E1
8.340664030E-1,9.508950233E0,-7.909950256E0,-1.374405098E1,1.849016995E1
8.360299370E-1,1.031400013E1,-7.795050144E0,-1.378200054E1,1.889669136E1
8.379934820E-1,1.119600010E1,-7.717950344E0,-1.366695023E1,1.927959295E1
8.399571990E-1,1.207695103E1,-7.680000305E0,-1.332195091E1,1.955273707E1
8.419208650E-1,1.272900105E1,-7.756950378E0,-1.297695065E1,1.976357748E1
8.438843980E-1,1.334205055E1,-7.603050232E0,-1.263195038E1,1.988423637E1
8.458479590E-1,1.372500038E1,-7.488000393E0,-1.198095036E1,1.969743528E1
8.478114940E-1,1.399305058E1,-7.488000393E0,-1.086900043E1,1.923566440E1
8.497750360E-1,1.426200104E1,-7.450050354E0,-9.604050636E0,1.873888237E1
8.517387080E-1,1.441500092E1,-7.717950344E0,-8.071050644E0,1.823460631E1
8.537023420E-1,1.449195099E1,-7.717950344E0,-6.730050087E0,1.774477318E1
8.556656990E-1,1.426200104E1,-7.717950344E0,-5.043000221E0,1.698244041E1
8.576291270E-1,1.395495033E1,-7.450050354E0,-3.357000113E0,1.617137405E1
8.595925040E-1,1.380195045E1,-7.219950199E0,-1.824000120E0,1.568274509E1
8.615558960E-1,1.345695019E1,-6.990000248E0,-6.105000153E-2,1.516421244E1
8.635184230E-1,1.311195087E1,-6.798000336E0,1.624950051E0,1.485855063E1
8.654812040E-1,1.291995049E1,-6.568950176E0,2.773950100E0,1.475706699E1
8.674448260E-1,1.269000053E1,-6.300000191E0,4.269000053E0,1.479697528E1
8.694082020E-1,1.249905014E1,-5.686950207E0,5.994000435E0,1.498318051E1
8.713716330E-1,1.222995090E1,-4.996950150E0,7.680000305E0,1.528147946E1
8.733350480E-1,1.222995090E1,-4.306950092E0,8.485050201E0,1.549572829E1
8.752989230E-1,1.219200039E1,-3.924000263E0,8.983950615E0,1.564461633E1
8.772626630E-1,1.173195076E1,-3.387000084E0,9.214050293E0,1.529735797E1
8.792261490E-1,1.096605015E1,-2.697000027E0,9.442950249E0,1.472064450E1
8.811897230E-1,1.058205032E1,-2.314050198E0,9.865050316E0,1.465106942E1
8.831532990E-1,1.062105083E1,-2.046000004E0,9.098999977E0,1.413451936E1
8.851168750E-1,1.081200027E1,-1.816050053E0,7.642050266E0,1.336406824E1
8.870805880E-1,1.092705059E1,-1.624050021E0,5.878950119E0,1.251399327E1
8.890442600E-1,1.111905098E1,-1.432950020E0,3.886050224E0,1.186541305E1
8.910086630E-1,1.108095074E1,-1.126049995E0,1.701000094E0,1.126715843E1
8.929728610E-1,1.073595047E1,-6.660000086E-1,-2.205000073E-2,1.075661074E1
8.949361070E-1,1.046700096E1,-3.589500189E-1,-1.516950130E0,1.058244263E1
8.968996320E-1,1.016100025E1,-1.680000126E-1,-2.475000143E0,1.045943478E1
8.988624070E-1,9.661950111E0,2.140500098E-1,-3.204000235E0,1.018158705E1
9.008254020E-1,9.394050598E0,6.360000372E-1,-4.009050369E0,1.023353153E1
9.027892130E-1,9.049050331E0,1.134000063E0,-4.890000343E0,1.034810956E1
9.047527840E-1,8.628000259E0,1.363950014E0,-5.580000401E0,1.036528594E1
9.067163620E-1,8.320950508E0,1.594050050E0,-6.232050419E0,1.051749330E1
9.086799380E-1,7.861050606E0,1.786050081E0,-6.768000126E0,1.052577395E1
9.106434710E-1,6.865050316E0,1.939050078E0,-7.113000393E0,1.007390717E1
9.126070170E-1,5.446050167E0,1.786050081E0,-7.495950222E0,9.436032378E0
9.145707240E-1,4.105050087E0,1.210950017E0,-7.458000183E0,8.598814040E0
9.165343900E-1,2.992950201E0,3.679500222E-1,-7.266000271E0,7.866886173E0
9.184987630E-1,2.265000105E0,-4.360500276E-1,-6.768000126E0,7.150258094E0
9.204629280E-1,1.690050125E0,-1.393950105E0,-5.962950230E0,6.352648405E0
9.224265860E-1,1.384050012E0,-2.391000032E0,-5.119950294E0,5.817763024E0
9.243903920E-1,1.153950095E0,-3.271950245E0,-4.315050125E0,5.536868863E0
9.263537330E-1,9.240000248E-1,-3.961950302E0,-3.625050068E0,5.449019567E0
9.283171900E-1,6.550500393E-1,-4.614000320E0,-2.896950245E0,5.487295348E0
9.302799760E-1,4.260000288E-1,-5.227050304E0,-2.169000149E0,5.675217402E0
9.322429590E-1,3.109500110E-1,-5.994000435E0,-1.671000123E0,6.230326840E0
9.342071320E-1,3.109500110E-1,-6.874950409E0,-1.096050024E0,6.968712843E0
9.361709570E-1,5.020500422E-1,-7.717950344E0,-3.670500219E-1,7.742966969E0
9.381341700E-1,6.940500140E-1,-8.562000275E0,3.979500234E-1,8.599297550E0
9.400975360E-1,9.619500637E-1,-9.442950249E0,1.087950110E0,9.553967384E0
9.420607430E-1,1.153950095E0,-1.036305046E1,1.356000066E0,1.051490142E1
9.440239970E-1,1.269000053E0,-1.132095051E1,1.395000100E0,1.147694676E1
9.459874030E-1,1.345050097E0,-1.231800079E1,1.240950108E0,1.245320282E1
9.479507640E-1,1.498950124E0,-1.319895077E1,1.203000069E0,1.333815437E1
9.499144820E-1,1.651950121E0,-1.404195023E1,1.471050024E0,1.421510793E1
9.518780860E-1,1.767000079E0,-1.484700108E1,1.930950046E0,1.507595099E1
9.538414340E-1,1.996950150E0,-1.569000053E1,2.698050022E0,1.604504287E1
9.558048570E-1,2.572050095E0,-1.657200050E1,3.502950191E0,1.713234667E1
9.577685950E-1,2.955000162E0,-1.749195099E1,4.269000053E0,1.824622528E1
9.597322400E-1,3.184950113E0,-1.841205025E1,4.806000233E0,1.929365543E1
9.616957560E-1,3.300000191E0,-1.917795181E1,5.151000023E0,2.012999350E1
9.636593140E-1,3.031950235E0,-2.005995178E1,4.768050194E0,2.084055398E1
9.656226690E-1,2.955000162E0,-2.101800156E1,4.345950127E0,2.166508015E1
9.675860830E-1,2.686950207E0,-2.201505089E1,3.081000090E0,2.239139854E1
9.695493280E-1,2.341950178E0,-2.258895111E1,1.624950051E0,2.276808963E1
9.715126220E-1,2.149950027E0,-2.347095108E1,8.580000401E-1,2.358482550E1
9.734770140E-1,1.996950150E0,-2.458200073E1,1.300500035E-1,2.466332263E1
9.754411150E-1,1.651950121E0,-2.557905197E1,-4.060500264E-1,2.563555569E1
9.774046030E-1,1.269000053E0,-2.646105194E1,-6.739500165E-1,2.650003471E1
9.793682710E-1,8.850000501E-1,-2.737995148E1,-1.249050021E0,2.742271128E1
9.813310210E-1,5.020500422E-1,-2.818500137E1,-1.363950014E0,2.822245057E1
9.832940400E-1,-1.870500147E-1,-2.910495186E1,-2.014950037E0,2.917521609E1
9.852574690E-1,-1.336950064E0,-2.964195061E1,-2.704950094E0,2.979512420E1
9.872208220E-1,-2.140950203E0,-3.013995171E1,-3.012000084E0,3.036564673E1
9.891838530E-1,-2.830950022E0,-3.040800095E1,-2.514000177E0,3.064279681E1
9.911469780E-1,-4.326000214E0,-3.129000092E1,4.750500321E-1,3.159120301E1
9.931101810E-1,-4.173000336E0,-3.270795059E1,3.771000147E0,3.318801600E1
9.950733610E-1,-4.288050175E0,-3.328305054E1,5.304000378E0,3.397471482E1
9.970369420E-1,-5.092950344E0,-3.374295044E1,6.031950474E0,3.465413791E1
9.990004190E-1,-5.821050167E0,-3.431805038E1,6.415950298E0,3.539459882E1
1.000963968E0,-6.433950424E0,-3.481605148E1,6.262050152E0,3.595506127E1
1.002927496E0,-7.392000198E0,-3.462405014E1,5.304000378E0,3.579942646E1
1.004890722E0,-8.044050217E0,-3.473895264E1,5.380950451E0,3.606183858E1
1.006854036E0,-7.621950150E0,-3.508395004E1,7.489050388E0,3.667510805E1
1.008817708E0,-7.276950359E0,-3.535305023E1,7.374000549E0,3.683976183E1
1.010781303E0,-7.201050282E0,-3.585105133E1,5.725950241E0,3.701269394E1
1.012744833E0,-6.357000351E0,-3.654104996E1,4.498950005E0,3.736174965E1
1.014708382E0,-5.131050110E0,-3.723105240E1,1.969950080E0,3.763455382E1
1.016672638E0,-3.751050234E0,-3.803505325E1,-1.249050021E0,3.823997620E1
1.018636687E0,-2.524950027E0,-3.880200195E1,-4.507050037E0,3.914440226E1
1.020601095E0,-1.106999993E0,-3.979905319E1,-7.765050411E0,4.056459160E1
1.022565390E0,5.790000558E-1,-4.071795273E1,-1.037100029E1,4.202195334E1
1.024529115E0,1.882050037E0,-4.167705154E1,-1.201905060E1,4.341631393E1
1.026493007E0,1.959000111E0,-4.228995132E1,-1.259400082E1,4.416884106E1
1.028456846E0,1.804950118E0,-4.263495255E1,-1.293900108E1,4.459164465E1
1.030420700E0,1.498950124E0,-4.259595108E1,-1.247895050E1,4.441155374E1
1.032383643E0,1.192050099E0,-4.221300125E1,-1.148205090E1,4.376295181E1
1.034346853E0,5.020500422E-1,-4.167705154E1,-1.002600002E1,4.286897895E1
1.036310672E0,-6.469500065E-1,-4.045005035E1,-8.377950668E0,4.131361973E1
1.038274313E0,-1.605000019E0,-3.880200195E1,-5.887050152E0,3.927885869E1
1.040237969E0,-2.332950115E0,-3.700094986E1,-4.009050369E0,3.729055419E1
1.042201621E0,-3.022950172E0,-3.500805283E1,-2.514000177E0,3.522814482E1
1.044165365E0,-3.790050268E0,-3.278505325E1,-1.363950014E0,3.303156910E1
1.046129082E0,-4.363950253E0,-3.071505165E1,-4.440000355E-1,3.102669167E1
1.048091870E0,-4.479000092E0,-2.875995064E1,3.600000143E-1,2.910886124E1
1.050054930E0,-4.326000214E0,-2.661405182E1,1.203000069E0,2.699016934E1
1.052018730E0,-3.943050146E0,-2.465895081E1,1.777950048E0,2.503542701E1
1.053982313E0,-3.445050240E0,-2.278095055E1,2.353049994E0,2.315981268E1
1.055946004E0,-2.793000221E0,-2.105595016E1,2.430000067E0,2.137893327E1
1.057909678E0,-1.758000135E0,-1.967700005E1,3.004050255E0,1.998247265E1
1.059873508E0,-3.400500119E-1,-1.875705147E1,2.928000212E0,1.898725359E1
1.061837293E0,4.639500082E-1,-1.772205162E1,2.698050022E0,1.793225689E1
1.063801510E0,1.422000051E0,-1.676399994E1,2.889000177E0,1.707044522E1
1.065765601E0,2.725050211E0,-1.591995049E1,3.426000118E0,1.651085094E1
1.067729406E0,3.721950293E0,-1.511595058E1,3.924000263E0,1.605436558E1
1.069693295E0,4.182000160E0,-1.419600105E1,4.116000175E0,1.536089283E1
1.071656818E0,4.105050087E0,-1.342905045E1,4.039050102E0,1.461180200E1
1.073620449E0,4.143000126E0,-1.250895023E1,4.153950214E0,1.381642459E1
1.075583791E0,4.219950199E0,-1.162800026E1,4.537950039E0,1.317616637E1
1.077547218E0,4.335000038E0,-1.090005016E1,4.996950150E0,1.275040508E1
1.079510955E0,4.756950378E0,-1.028595066E1,5.151000023E0,1.244837978E1
1.081474601E0,5.025000095E0,-9.750000000E0,5.725950241E0,1.237334361E1
1.083438077E0,5.293050289E0,-9.213000298E0,5.611050129E0,1.201580790E1
1.085401603E0,5.331000328E0,-8.677050591E0,5.533950329E0,1.159031396E1
1.087364963E0,5.101050377E0,-8.062950134E0,5.304000378E0,1.091624019E1
1.089328372E0,4.680000305E0,-7.297050476E0,4.882050037E0,9.949058301E0
1.091291733E0,4.564949989E0,-6.492000103E0,4.843950272E0,9.297778658E0
1.093255122E0,4.833000183E0,-5.839950085E0,5.074050426E0,9.121891004E0
1.095218550E0,5.025000095E0,-5.494950294E0,5.304000378E0,9.142074420E0
1.097181966E0,4.872000217E0,-4.767000198E0,5.457000256E0,8.731524998E0
1.099145480E0,4.527000427E0,-4.077000141E0,5.572050095E0,8.256113206E0
1.101108966E0,4.143000126E0,-3.310950041E0,5.725950241E0,7.804700275E0
1.103072578E0,3.645000219E0,-2.391000032E0,5.802000046E0,7.257142157E0
1.105036139E0,3.223050117E0,-1.624050021E0,6.031950474E0,7.029225921E0
1.106999089E0,2.725050211E0,-6.280500293E-1,6.109050274E0,6.718693380E0
1.108962218E0,1.882050037E0,3.289500177E-1,6.186000347E0,6.474327822E0
1.110925151E0,1.153950095E0,1.441050053E0,6.070950508E0,6.345444519E0
1.112888141E0,5.020500422E-1,2.398950100E0,6.301050186E0,6.760935533E0
1.114851583E0,4.050000105E-3,3.241950035E0,6.568950176E0,7.325391652E0
1.116814899E0,-5.700000525E-1,4.162050247E0,6.991050243E0,8.156123211E0
1.118778296E0,-1.222050071E0,5.082000256E0,7.182000160E0,8.882638081E0
1.120741669E0,-1.834950089E0,5.772000313E0,7.258950233E0,9.453855718E0
1.122704876E0,-2.485950232E0,6.424050331E0,7.450050354E0,1.014650785E1
1.124668132E0,-3.367950201E0,7.189950466E0,7.374000549E0,1.083579071E1
1.126631878E0,-4.288050175E0,7.765050411E0,7.144050121E0,1.138950545E1
1.128595495E0,-4.939050198E0,8.187000275E0,6.991050243E0,1.184466014E1
1.130559201E0,-5.361000061E0,8.377950668E0,7.029000282E0,1.217937700E1
1.132522880E0,-6.013050079E0,8.647050858E0,7.144050121E0,1.272657503E1
1.134486530E0,-6.586950302E0,8.761950493E0,7.144050121E0,1.308423260E1
1.136450189E0,-7.162050247E0,8.953050613E0,7.066950321E0,1.346825400E1
1.138413931E0,-8.005949974E0,9.220950127E0,6.721950531E0,1.393936064E1
1.140377649E0,-8.503950119E0,9.220950127E0,6.799050331E0,1.426780201E1
1.142341293E0,-8.772000313E0,9.145050049E0,7.029000282E0,1.449092043E1
1.144304958E0,-9.232050896E0,9.298050880E0,7.029000282E0,1.486914116E1
1.146268340E0,-9.346950531E0,9.220950127E0,7.144050121E0,1.494753684E1
1.148231805E0,-9.691950798E0,9.490050316E0,6.684000492E0,1.512186589E1
1.150195360E0,-9.844950676E0,9.490050316E0,7.029000282E0,1.537501069E1
1.152158885E0,-9.999000549E0,9.643050194E0,6.760950089E0,1.544923542E1
1.154122426E0,-1.007505035E1,9.720000267E0,7.297050476E0,1.578708303E1
1.156085962E0,-9.999000549E0,9.528000832E0,7.564950466E0,1.574773912E1
1.158049457E0,-9.654000282E0,9.106050491E0,8.485050201E0,1.575169686E1
1.160012964E0,-9.346950531E0,8.608050346E0,1.028700066E1,1.634889591E1
1.161976540E0,-8.887050629E0,8.187000275E0,1.151295090E1,1.668995748E1
1.163940072E0,-8.274000168E0,7.381950378E0,1.304595089E1,1.712159761E1
1.165903612E0,-7.660950184E0,6.424050331E0,1.438800049E1,1.752064892E1
1.167867149E0,-7.699050426E0,6.040050507E0,1.484805107E1,1.778263783E1
1.169830554E0,-7.546050549E0,5.542050362E0,1.507800102E1,1.774833276E1
1.171793998E0,-7.354050159E0,5.119950294E0,1.519305038E1,1.763872798E1
1.173757584E0,-7.468950272E0,4.929000378E0,1.477095032E1,1.727024135E1
1.175721105E0,-7.584000587E0,4.736999989E0,1.362105083E1,1.629384116E1
1.177684827E0,-7.431000233E0,4.507050037E0,1.304595089E1,1.567578065E1
1.179648490E0,-7.468950272E0,4.354050159E0,1.201095104E1,1.479884846E1
1.181612503E0,-7.431000233E0,4.085999966E0,1.063200092E1,1.359980161E1
1.183576413E0,-6.970950127E0,3.511050224E0,9.558000565E0,1.234005649E1
1.185539769E0,-6.894000530E0,3.586950064E0,7.948950291E0,1.111662111E1
1.187503276E0,-6.931950092E0,3.625950098E0,6.376950264E0,1.009281630E1
1.189466775E0,-6.894000530E0,3.664050102E0,5.380950451E0,9.481937261E0
1.191430276E0,-6.702000141E0,3.586950064E0,4.384050369E0,8.775130443E0
1.193393686E0,-6.741000175E0,3.586950064E0,3.196050167E0,8.277803501E0
1.195357123E0,-6.741000175E0,3.511050224E0,2.046000004E0,7.871129084E0
1.197320701E0,-6.778950214E0,3.549000263E0,1.395000100E0,7.777891370E0
1.199284221E0,-6.702000141E0,3.511050224E0,1.279950023E0,7.673496702E0
1.201247763E0,-6.472050190E0,3.088950157E0,9.730500579E-1,7.237117738E0
1.203211298E0,-6.396000385E0,2.821050167E0,6.660000086E-1,7.022157858E0
1.205176099E0,-6.396000385E0,2.476050138E0,1.300500035E-1,6.859778292E0
1.207140529E0,-6.357000351E0,1.900950074E0,-4.440000355E-1,6.649977495E0
1.209104036E0,-6.241950512E0,1.326000094E0,-9.810000658E-1,6.456205044E0
1.211067824E0,-6.013050079E0,7.129500508E-1,-1.441050053E0,6.224282632E0
1.213032220E0,-5.859000206E0,1.759500057E-1,-1.516950130E0,6.054748510E0
1.214996437E0,-5.821050167E0,-2.440500110E-1,-1.516950130E0,6.020408886E0
1.216960041E0,-5.706000328E0,-7.429500222E-1,-1.441050053E0,5.931866463E0
1.218923824E0,-5.590950489E0,-1.318050027E0,-1.632000089E0,5.971549844E0
1.220887361E0,-5.514000416E0,-1.738950133E0,-2.014950037E0,6.122758513E0
1.222850973E0,-5.398950100E0,-2.275950193E0,-2.092050076E0,6.221357166E0
1.224814633E0,-5.398950100E0,-2.659050226E0,-2.284050226E0,6.437087519E0
1.226778278E0,-5.245950222E0,-2.965950251E0,-2.514000177E0,6.529705316E0
1.228741665E0,-5.016000271E0,-3.234000206E0,-2.629050016E0,6.521573433E0
1.230705127E0,-4.747950077E0,-3.426000118E0,-2.590050220E0,6.402254829E0
1.232668285E0,-4.479000092E0,-3.579000235E0,-3.049950123E0,6.494065002E0
1.234631555E0,-4.249050140E0,-3.771000147E0,-3.778950214E0,6.823146922E0
1.236595138E0,-3.943050146E0,-4.039050102E0,-4.774950027E0,7.393356338E0
1.238558630E0,-3.790050268E0,-4.422000408E0,-5.887050152E0,8.281058395E0
1.240522177E0,-3.828000069E0,-5.074050426E0,-7.189950466E0,9.596611900E0
1.242485707E0,-3.943050146E0,-6.031950474E0,-8.799000740E0,1.137341132E1
1.244449261E0,-3.828000069E0,-7.297050476E0,-1.102200031E1,1.376172304E1
1.246412798E0,-3.520950079E0,-8.562000275E0,-1.359000111E1,1.644363306E1
1.248376293E0,-3.138000250E0,-9.673050880E0,-1.592805099E1,1.889755983E1
1.250339800E0,-2.677950144E0,-1.059300041E1,-1.761495018E1,2.072847183E1
1.252303163E0,-2.065050125E0,-1.139805031E1,-1.861095047E1,2.192139275E1
1.254266569E0,-1.375050068E0,-1.208805084E1,-1.880295181E1,2.239559628E1
1.256230115E0,-7.620000243E-1,-1.250895023E1,-1.864995003E1,2.246942625E1
1.258193630E0,8.100000024E-2,-1.281600094E1,-1.838100052E1,2.240798119E1
1.260158119E0,1.114950061E0,-1.316100025E1,-1.807500076E1,2.238661863E1
1.262122322E0,1.843950033E0,-1.335300064E1,-1.746195030E1,2.205952144E1
1.264086063E0,2.725050211E0,-1.342905045E1,-1.692495155E1,2.177657640E1
1.266049940E0,3.262050152E0,-1.319895077E1,-1.585200119E1,2.088394633E1
1.268013419E0,4.027950287E0,-1.308405018E1,-1.497000027E1,2.028589807E1
1.269977016E0,4.564949989E0,-1.262400055E1,-1.370505047E1,1.918417490E1
1.271940229E0,4.909950256E0,-1.212600040E1,-1.213395023E1,1.784321287E1
1.273903554E0,5.215950012E0,-1.162800026E1,-1.060095024E1,1.657699221E1
1.275866948E0,5.485050201E0,-1.097595024E1,-9.106050491E0,1.527996777E1
1.277830321E0,5.791050434E0,-1.036305046E1,-7.650000572E0,1.412273305E1
1.279793713E0,6.060000420E0,-9.558000565E0,-5.848050117E0,1.273886455E1
1.281757096E0,5.830050468E0,-8.599950790E0,-3.817050219E0,1.106880818E1
1.283720256E0,5.293050289E0,-7.564950466E0,-2.053950071E0,9.458518267E0
1.285683482E0,4.488000393E0,-6.492000103E0,-4.819500148E-1,7.906989862E0
1.287646218E0,3.682950258E0,-5.533950329E0,1.585950017E0,6.834030019E0
1.289609098E0,3.108000040E0,-4.461000443E0,3.694050074E0,6.573141954E0
1.291572729E0,2.764050245E0,-3.463950157E0,6.301050186E0,7.703386132E0
1.293536154E0,2.572050095E0,-2.428950071E0,9.022050858E0,9.690853513E0
1.295499488E0,2.111999989E0,-1.279050112E0,1.170495033E1,1.196254051E1
1.297462848E0,1.575000048E0,-2.059500068E-1,1.362105083E1,1.371335358E1
1.299425516E0,1.269000053E0,4.060500264E-1,1.461795044E1,1.467854600E1
1.301388386E0,8.470500112E-1,1.057950020E0,1.496295071E1,1.502420200E1
1.303350822E0,4.639500082E-1,1.479000092E0,1.473300076E1,1.481431747E1
1.305313386E0,4.200000316E-2,1.708950043E0,1.427295113E1,1.437495767E1
1.307277091E0,-1.480500102E-1,1.824000120E0,1.350600052E1,1.362941471E1
1.309240461E0,-3.400500119E-1,1.708950043E0,1.251000023E1,1.263076601E1
1.311203849E0,-5.700000525E-1,1.363950014E0,1.132200050E1,1.141809770E1
1.313167231E0,-7.620000243E-1,7.890000343E-1,9.942000389E0,1.000232657E1
1.315131472E0,-7.620000243E-1,6.105000153E-2,8.754000664E0,8.787314650E0
1.317095461E0,-8.380500674E-1,-7.429500222E-1,7.795050144E0,7.875094247E0
1.319058608E0,-8.380500674E-1,-2.122950077E0,7.182000160E0,7.535938644E0
1.321022002E0,-8.380500674E-1,-3.771000147E0,6.991050243E0,7.987337074E0
1.322985160E0,-1.413000107E0,-5.764050484E0,7.527000427E0,9.585227317E0
1.324948387E0,-2.140950203E0,-7.987050533E0,9.175050735E0,1.235144526E1
1.326911824E0,-2.985000134E0,-1.017105007E1,1.132200050E1,1.550961575E1
1.328875212E0,-4.518000126E0,-1.262400055E1,1.327605057E1,1.886878994E1
1.330838597E0,-7.468950272E0,-1.599705029E1,1.894905090E1,2.589898388E1
1.332801983E0,-9.538950920E0,-1.841205025E1,1.768395042E1,2.725283988E1
1.334765547E0,-1.053495026E1,-1.917795181E1,9.942000389E0,2.403377591E1
1.336729058E0,-1.180005074E1,-1.975305176E1,4.192950249E0,2.338813979E1
1.338693306E0,-1.325595093E1,-2.063505173E1,8.580000401E-1,2.454102196E1
1.340657350E0,-1.517295074E1,-2.197605133E1,-5.970000029E-1,2.671182651E1
1.342620262E0,-1.777905083E1,-2.343300056E1,-2.590050220E0,2.952809719E1
1.344583505E0,-1.984905052E1,-2.458200073E1,-1.939050078E0,3.165469131E1
1.346545833E0,-2.157405090E1,-2.500395203E1,-3.670500219E-1,3.302683780E1
1.348508429E0,-2.249295044E1,-2.515695190E1,1.011000037E0,3.376132654E1
1.350471948E0,-2.276205063E1,-2.465895081E1,1.969950080E0,3.361629823E1
1.352435196E0,-2.233995056E1,-2.339400101E1,2.583000183E0,3.245033997E1
1.354398604E0,-2.007900047E1,-2.167005157E1,3.273000240E0,2.972322200E1
1.356361965E0,-1.662900162E1,-2.017500114E1,4.269000053E0,2.649110657E1
1.358325534E0,-1.363995075E1,-1.883295059E1,4.461000443E0,2.367760143E1
1.360289042E0,-1.118700027E1,-1.764495087E1,3.196050167E0,2.113546789E1
1.362253409E0,-8.925000191E0,-1.684005165E1,1.395000100E0,1.910991871E1
1.364217547E0,-6.931950092E0,-1.622700119E1,-4.819500148E-1,1.765218897E1
1.366180984E0,-5.553000450E0,-1.569000053E1,-1.900950074E0,1.675188174E1
1.368144626E0,-4.173000336E0,-1.546095085E1,-2.935050249E0,1.628095369E1
1.370107832E0,-3.100050211E0,-1.549905109E1,-3.625050068E0,1.621640787E1
1.372071165E0,-2.640000105E0,-1.546095085E1,-4.237950325E0,1.624717898E1
1.374034484E0,-2.793000221E0,-1.538400078E1,-4.621950150E0,1.630431702E1
1.375997827E0,-3.100050211E0,-1.557600117E1,-4.621950150E0,1.654039138E1
1.377961399E0,-3.445050240E0,-1.565205097E1,-4.162050247E0,1.655831311E1
1.379924904E0,-3.675000191E0,-1.572900105E1,-3.127050161E0,1.645252391E1
1.381887593E0,-3.943050146E0,-1.572900105E1,-1.402050018E0,1.627620541E1
1.383850521E0,-3.943050146E0,-1.576695061E1,4.750500321E-1,1.625946028E1
1.385813602E0,-3.712950230E0,-1.588200092E1,2.353049994E0,1.647910183E1
1.387776653E0,-3.175950050E0,-1.607400131E1,4.231050014E0,1.692223275E1
1.389740456E0,-2.524950027E0,-1.618905067E1,5.533950329E0,1.729408398E1
1.391704038E0,-1.681950092E0,-1.645695114E1,6.531000137E0,1.778522307E1
1.393667570E0,-7.999500632E-1,-1.653404999E1,6.684000492E0,1.785190723E1
1.395631117E0,1.570500135E-1,-1.649505043E1,6.301050186E0,1.765827248E1
1.397595524E0,1.039050102E0,-1.622700119E1,5.841000080E0,1.727751356E1
1.399559668E0,1.690050125E0,-1.591995049E1,5.266050339E0,1.685326019E1
1.401522608E0,2.533950090E0,-1.561395073E1,4.921050072E0,1.656602228E1
1.403485901E0,3.184950113E0,-1.526895046E1,4.768050194E0,1.631009068E1
1.405449435E0,3.721950293E0,-1.500105095E1,4.690950394E0,1.615207291E1
1.407412899E0,4.219950199E0,-1.469400024E1,4.921050072E0,1.606045942E1
1.409376297E0,4.603050232E0,-1.465605068E1,5.533950329E0,1.632827300E1
1.411339728E0,4.987050056E0,-1.469400024E1,6.721950531E0,1.691061591E1
1.413303105E0,5.523000240E0,-1.500105095E1,8.409000397E0,1.806229080E1
1.415266498E0,6.213000298E0,-1.569000053E1,1.044000053E1,1.984366651E1
1.417230240E0,7.285950184E0,-1.657200050E1,1.342995071E1,2.254062659E1
1.419193880E0,8.551050186E0,-1.798995018E1,1.783695030E1,2.673790498E1
1.421157366E0,9.816000938E0,-1.994505119E1,2.201505089E1,3.128612164E1
1.423120891E0,1.046700096E1,-2.209095192E1,2.324100113E1,3.372999258E1
1.425084611E0,9.816000938E0,-2.350905037E1,2.266605186E1,3.409954884E1
1.427048274E0,8.934000015E0,-2.431395149E1,2.167005157E1,3.377241076E1
1.429012151E0,8.628000259E0,-2.488905144E1,2.098005104E1,3.367595302E1
1.430975966E0,8.781000137E0,-2.561700058E1,2.086500168E1,3.418603483E1
1.432939684E0,9.355950356E0,-2.703495216E1,2.113305092E1,3.556723614E1
1.434903430E0,1.016100025E1,-2.860695076E1,2.117205048E1,3.701161006E1
1.436867068E0,1.077405071E1,-2.975700188E1,2.029005051E1,3.759315734E1
1.438830737E0,1.123395061E1,-3.071505165E1,1.829700089E1,3.747527566E1
1.440794253E0,1.146405029E1,-3.125100136E1,1.634205055E1,3.708250465E1
1.442757814E0,1.161705017E1,-3.132795143E1,1.450305080E1,3.642437204E1
1.444721368E0,1.157895088E1,-3.106005096E1,1.258605099E1,3.545712268E1
1.446684910E0,1.138695049E1,-3.048495102E1,1.074705029E1,3.427089100E1
1.448648312E0,1.146405029E1,-2.941200066E1,9.098999977E0,3.285242810E1
1.450611756E0,1.177005100E1,-2.833905220E1,7.105050564E0,3.149790031E1
1.452575490E0,1.242195034E1,-2.734200096E1,4.921050072E0,3.043199962E1
1.454539139E0,1.288200092E1,-2.630700111E1,2.353049994E0,2.938606982E1
1.456503889E0,1.315005016E1,-2.546400070E1,-1.057050109E0,2.867850251E1
1.458468307E0,1.307400036E1,-2.458200073E1,-4.736999989E0,2.824258158E1
1.460431876E0,1.226895046E1,-2.343300056E1,-8.148000717E0,2.767711287E1
1.462395693E0,1.196205044E1,-2.262795067E1,-1.213395023E1,2.832574007E1
1.464359184E0,1.157895088E1,-2.190000153E1,-1.638795090E1,2.970264475E1
1.466322770E0,1.096605015E1,-2.109495163E1,-2.041305161E1,3.133598436E1
1.468285985E0,1.039095020E1,-2.032800102E1,-2.328705025E1,3.261113584E1
1.470249309E0,9.700950623E0,-1.967700005E1,-2.554905128E1,3.367561128E1
1.472212883E0,8.704050064E0,-1.902495003E1,-2.623905182E1,3.355885951E1
1.474176384E0,7.630950451E0,-1.856505013E1,-2.531895065E1,3.231008748E1
1.476140244E0,5.983050346E0,-1.818195152E1,-2.393895149E1,3.065050817E1
1.478103999E0,3.952050209E0,-1.795200157E1,-2.156295013E1,2.833467628E1
1.480066665E0,1.575000048E0,-1.745400047E1,-1.922504997E1,2.601394442E1
1.482029636E0,-1.222050071E0,-1.718505096E1,-1.746195030E1,2.453037080E1
1.483993586E0,-4.173000336E0,-1.707000160E1,-1.588995075E1,2.369154747E1
1.485957249E0,-6.625950336E0,-1.695495033E1,-1.477905083E1,2.344768436E1
1.487920587E0,-8.809950829E0,-1.684005165E1,-1.405005074E1,2.363485771E1
1.489884020E0,-1.061205006E1,-1.676399994E1,-1.328400040E1,2.387701755E1
1.491847600E0,-1.233705044E1,-1.664895058E1,-1.301595020E1,2.447049915E1
1.493811119E0,-1.371600056E1,-1.668704987E1,-1.286205101E1,2.513998132E1
1.495774527E0,-1.471305084E1,-1.672500038E1,-1.251705074E1,2.555143953E1
1.497737967E0,-1.563300037E1,-1.676399994E1,-1.267095089E1,2.619113192E1
1.499701476E0,-1.651395035E1,-1.699394989E1,-1.320705032E1,2.712804945E1
1.501664965E0,-1.751100159E1,-1.749195099E1,-1.385895061E1,2.836677701E1
1.503628167E0,-1.781700134E1,-1.776000023E1,-1.470195103E1,2.913778490E1
1.505591443E0,-1.766400146E1,-1.776000023E1,-1.588995075E1,2.966353133E1
1.507554711E0,-1.747200012E1,-1.760700035E1,-1.723200035E1,3.020296485E1
1.509517981E0,-1.682100105E1,-1.745400047E1,-1.822800064E1,3.032899959E1
1.511481025E0,-1.563300037E1,-1.726200104E1,-1.914795113E1,3.014981613E1
1.513444135E0,-1.379295063E1,-1.722405052E1,-1.933995056E1,2.934189992E1
1.515407716E0,-1.180005074E1,-1.703205109E1,-1.880295181E1,2.798004572E1
1.517371148E0,-8.809950829E0,-1.707000160E1,-1.753800011E1,2.601118290E1
1.519334885E0,-5.323050022E0,-1.714695168E1,-1.581300068E1,2.392496194E1
1.521298533E0,-2.065050125E0,-1.726200104E1,-1.447200108E1,2.262034321E1
1.523262774E0,8.470500112E-1,-1.726200104E1,-1.347495079E1,2.191502846E1
1.525226841E0,3.223050117E0,-1.710900116E1,-1.270905018E1,2.155518335E1
1.527190136E0,5.254950047E0,-1.691700172E1,-1.213395023E1,2.147166029E1
1.529153670E0,6.940950394E0,-1.641900063E1,-1.175100040E1,2.135055935E1
1.531117208E0,8.206049919E0,-1.557600117E1,-1.209600067E1,2.136034410E1
1.533080745E0,9.202950478E0,-1.469400024E1,-1.217205048E1,2.118411559E1
1.535043924E0,1.004595089E1,-1.369695091E1,-1.263195038E1,2.116822534E1
1.537007208E0,1.088895035E1,-1.277805042E1,-1.286205101E1,2.114899923E1
1.538970396E0,1.169400024E1,-1.204905033E1,-1.309200096E1,2.129154162E1
1.540933636E0,1.242195034E1,-1.116795063E1,-1.316895103E1,2.127085431E1
1.542897225E0,1.326495075E1,-1.047795010E1,-1.297695065E1,2.131073919E1
1.544860711E0,1.387905025E1,-9.826050758E0,-1.244100094E1,2.107030645E1
1.546824034E0,1.472205067E1,-9.250950813E0,-1.175100040E1,2.098582563E1
1.548787405E0,1.545000076E1,-8.715000153E0,-1.102200031E1,2.088392305E1
1.550751005E0,1.621605110E1,-8.370000839E0,-1.002600002E1,2.082157304E1
1.552714514E0,1.690605164E1,-8.062950134E0,-8.722949982E0,2.066193609E1
1.554678058E0,1.729005051E1,-7.603050232E0,-7.458000183E0,2.030699353E1
1.556641591E0,1.759605026E1,-7.411950588E0,-6.001950264E0,2.001452981E1
1.558605176E0,1.763505173E1,-6.952050209E0,-4.545000076E0,1.949315462E1
1.560568745E0,1.759605026E1,-6.645000458E0,-3.049950123E0,1.905463754E1
1.562532427E0,1.732800102E1,-6.223950386E0,-2.014950037E0,1.852180341E1
1.564496066E0,1.702095032E1,-6.031950474E0,-9.420000315E-1,1.808271385E1
1.566458868E0,1.648500061E1,-5.764050484E0,5.295000225E-2,1.746374321E1
1.568421915E0,1.598700047E1,-5.457000256E0,9.730500579E-1,1.692069331E1
1.570385536E0,1.552695084E1,-4.882050037E0,1.624950051E0,1.635729432E1
1.572348989E0,1.502805042E1,-4.461000443E0,2.583000183E0,1.588756477E1
1.574312428E0,1.460700035E1,-4.039050102E0,3.733050108E0,1.560814044E1
1.576275857E0,1.426200104E1,-3.808950186E0,4.729050159E0,1.550086096E1
1.578239053E0,1.384005070E1,-3.387000084E0,5.419050217E0,1.524417522E1
1.580202318E0,1.353405094E1,-2.926950216E0,5.380950451E0,1.485571271E1
1.582165543E0,1.318905067E1,-2.506050110E0,5.649000168E0,1.456511407E1
1.584128780E0,1.284405041E1,-1.777950048E0,5.764050484E0,1.418996178E1
1.586091969E0,1.284405041E1,-1.240950108E0,5.725950241E0,1.411722686E1
1.588055169E0,1.272900105E1,-6.280500293E-1,6.186000347E0,1.416645738E1
1.590017549E0,1.265205097E1,-1.290000081E-1,6.913950443E0,1.441852092E1
1.591980169E0,1.253700066E1,2.910000086E-1,7.297050476E0,1.450889424E1
1.593943864E0,1.253700066E1,6.360000372E-1,7.219950199E0,1.448131770E1
1.595907244E0,1.242195034E1,1.018950105E0,6.876000404E0,1.423455272E1
1.597870640E0,1.215405083E1,1.363950014E0,6.262050152E0,1.374025412E1
1.599834024E0,1.192395020E1,1.633050084E0,5.649000168E0,1.329506088E1
1.601797365E0,1.180905056E1,1.863000035E0,4.690950394E0,1.284248651E1
1.603760718E0,1.177005100E1,2.016000032E0,2.545050144E0,1.220965343E1
1.605724873E0,1.173195076E1,1.939050078E0,9.195000678E-2,1.189146915E1
1.607688793E0,1.157895088E1,2.053950071E0,-1.824000120E0,1.190032734E1
1.609652231E0,1.134900093E1,2.284050226E0,-3.241950035E0,1.202193610E1
1.611615804E0,1.119600010E1,2.437050104E0,-4.162050247E0,1.219066420E1
1.613578976E0,1.111905098E1,2.590950012E0,-4.582950115E0,1.230242856E1
1.615542265E0,1.092705059E1,2.743950129E0,-4.966950417E0,1.231260709E1
1.617505710E0,1.062105083E1,2.821050167E0,-5.503050327E0,1.229018339E1
1.619469110E0,1.019895077E1,2.896950245E0,-6.193050385E0,1.227863146E1
1.621432313E0,9.547050476E0,2.743950129E0,-6.730050087E0,1.199870865E1
1.623395573E0,8.320950508E0,2.208000183E0,-6.768000126E0,1.095076746E1
1.625359158E0,6.711000443E0,1.518000126E0,-6.538050175E0,9.491467295E0
1.627322648E0,4.872000217E0,7.129500508E-1,-6.460950375E0,8.123334515E0
1.629286690E0,3.147000074E0,-1.680000126E-1,-6.385050297E0,7.120442456E0
1.631250571E0,2.035050154E0,-1.126049995E0,-5.962950230E0,6.400483822E0
1.633214047E0,1.306950092E0,-2.046000004E0,-5.388000488E0,5.909719437E0
1.635177645E0,8.850000501E-1,-2.659050226E0,-4.890000343E0,5.636122475E0
1.637139957E0,3.109500110E-1,-3.081000090E0,-4.353000164E0,5.342084040E0
1.639102645E0,4.200000316E-2,-3.579000235E0,-3.855000257E0,5.260421434E0
1.641066148E0,-1.099500060E-1,-3.961950302E0,-3.319050074E0,5.169645306E0
1.643029412E0,-5.320500135E-1,-4.306950092E0,-2.782050133E0,5.154871410E0
1.644992920E0,-8.380500674E-1,-4.729050159E0,-2.284050226E0,5.318188485E0
1.646956379E0,-9.529500604E-1,-5.304000378E0,-1.249050021E0,5.531786310E0
1.648919931E0,-1.144950032E0,-5.917050362E0,-5.970000029E-1,6.056302879E0
1.650883456E0,-1.336950064E0,-6.529950142E0,-1.369500011E-1,6.666816304E0
1.652845556E0,-1.336950064E0,-7.258050442E0,5.509500504E-1,7.400694403E0
1.654808074E0,-1.375050068E0,-7.909950256E0,1.203000069E0,8.118207001E0
1.656771615E0,-1.375050068E0,-8.677050591E0,1.585950017E0,8.927329225E0
1.658734850E0,-1.106999993E0,-9.481050491E0,2.046000004E0,9.762268354E0
1.660698125E0,-1.030050039E0,-1.024800014E1,2.391000032E0,1.057352312E1
1.662661388E0,-7.620000243E-1,-1.109100056E1,2.583000183E0,1.141327417E1
1.664624929E0,-3.019500077E-1,-1.204905033E1,2.965950251E0,1.241239899E1
1.666588388E0,2.340000123E-1,-1.319895077E1,3.388050079E0,1.362886425E1
1.668552327E0,1.000050068E0,-1.438695049E1,4.576050282E0,1.513025713E1
1.670516139E0,1.729050040E0,-1.557600117E1,5.304000378E0,1.654490394E1
1.672479226E0,2.572050095E0,-1.672500038E1,5.802000046E0,1.788866356E1
1.674442525E0,2.917050123E0,-1.776000023E1,5.841000080E0,1.892205252E1
1.676405789E0,3.070050240E0,-1.845000076E1,5.649000168E0,1.953814064E1
1.678369064E0,2.878050089E0,-1.917795181E1,4.537950039E0,1.991657598E1
1.680332767E0,2.955000162E0,-2.002200127E1,3.618000269E0,2.055972973E1
1.682296355E0,2.992950201E0,-2.117100143E1,2.736000061E0,2.155585185E1
1.684260111E0,2.992950201E0,-2.243595123E1,1.663050056E0,2.269571312E1
1.686223817E0,3.300000191E0,-2.343300056E1,6.660000086E-1,2.367359442E1
1.688188048E0,3.184950113E0,-2.485095024E1,-6.360000372E-1,2.506228503E1
1.690152125E0,2.917050123E0,-2.634600067E1,-1.326000094E0,2.654014335E1
1.692115728E0,2.341950178E0,-2.784000206E1,-1.516950130E0,2.797948504E1
1.694079487E0,1.498950124E0,-2.933505058E1,-1.747050047E0,2.942523115E1
1.696042942E0,1.230000019E0,-3.094500160E1,-2.284050226E0,3.105354907E1
1.698006487E0,8.850000501E-1,-3.240105057E1,-2.782050133E0,3.253230865E1
1.699968943E0,5.020500422E-1,-3.385800171E1,-2.743950129E0,3.397271841E1
1.701931718E0,1.189500093E-1,-3.519900131E1,-2.590050220E0,3.529436503E1
1.703895586E0,-4.549500346E-1,-3.608100128E1,-3.394950151E0,3.624322446E1
1.705859120E0,-1.297950029E0,-3.638700104E1,-4.162050247E0,3.664725339E1
1.707822659E0,-2.448000193E0,-3.634905243E1,-4.660050392E0,3.672822330E1
1.709786197E0,-4.018949986E0,-3.558300018E1,-4.468050003E0,3.608691358E1
1.711749601E0,-5.169000149E0,-3.496905136E1,-4.621950150E0,3.564990237E1
1.713713045E0,-6.549000263E0,-3.370395279E1,-4.429950237E0,3.461892975E1
1.715676618E0,-7.584000587E0,-3.267000198E1,-4.237950325E0,3.380541846E1
1.717640139E0,-8.580000877E0,-3.186495209E1,-4.084949970E0,3.325174285E1
1.719603636E0,-9.462000847E0,-3.136605072E1,-3.586950064E0,3.295792482E1
1.721567141E0,-1.034400082E1,-3.106005096E1,-2.935050249E0,3.286852048E1
1.723530505E0,-1.134000015E1,-3.094500160E1,-2.092050076E0,3.302370968E1
1.725493910E0,-1.191495037E1,-3.117495155E1,-9.810000658E-1,3.338871078E1
1.727456608E0,-1.225995064E1,-3.171105194E1,1.432950020E0,3.402867248E1
1.729419486E0,-1.206795025E1,-3.270795059E1,5.956050396E0,3.536834731E1
1.731383137E0,-1.030500031E1,-3.358905029E1,7.795050144E0,3.598861122E1
1.733346561E0,-9.079050064E0,-3.481605148E1,9.942000389E0,3.732867480E1
1.735309940E0,-8.311950684E0,-3.638700104E1,1.147500038E1,3.904840589E1
1.737273333E0,-7.239000320E0,-3.734595108E1,1.005705070E1,3.934802989E1
1.739236581E0,-6.741000175E0,-3.799695206E1,7.795050144E0,3.936968702E1
1.741199871E0,-6.396000385E0,-3.849495316E1,4.690950394E0,3.930362903E1
1.743163811E0,-6.357000351E0,-3.857205200E1,1.585950017E0,3.912454328E1
1.745127561E0,-5.476050377E0,-3.838005066E1,-1.363950014E0,3.879272839E1
1.747090704E0,-3.598050117E0,-3.899400330E1,-5.082000256E0,3.948803596E1
1.749054025E0,-2.140950203E0,-3.964500046E1,-8.761050224E0,4.065791104E1
1.751018262E0,-6.850500107E-1,-3.972195053E1,-1.102200031E1,4.122847485E1
1.752982240E0,5.790000558E-1,-3.945405197E1,-1.178895092E1,4.118175351E1
1.754945569E0,1.804950118E0,-3.907005310E1,-1.178895092E1,4.084980120E1
1.756909088E0,3.529950142E0,-3.883995056E1,-1.075395012E1,4.045552806E1
1.758872629E0,4.833000183E0,-3.876405334E1,-9.528000832E0,4.020935864E1
1.760836163E0,5.446050167E0,-3.838005066E1,-8.493000031E0,3.968398670E1
1.762799487E0,5.331000328E0,-3.742200089E1,-7.458000183E0,3.852852815E1
1.764762866E0,4.987050056E0,-3.638700104E1,-6.232050419E0,3.725215383E1
1.766726431E0,4.527000427E0,-3.523800278E1,-5.272950172E0,3.591677291E1
1.768689941E0,4.219950199E0,-3.389595032E1,-3.778950214E0,3.436602817E1
1.770653665E0,3.300000191E0,-3.205605316E1,-2.206950188E0,3.230094696E1
1.772617326E0,1.959000111E0,-3.013995171E1,-8.659500480E-1,3.021596002E1
1.774579023E0,2.719500065E-1,-2.806995201E1,3.220500052E-1,2.807311666E1
1.776541309E0,-1.183050036E0,-2.580900192E1,1.432950020E0,2.587580981E1
1.778505061E0,-2.448000193E0,-2.362395096E1,2.161050081E0,2.384856183E1
1.780468384E0,-3.636000156E0,-2.136300087E1,2.391000032E0,2.180172435E1
1.782431960E0,-3.598050117E0,-1.960005188E1,3.733050108E0,2.027421173E1
1.784395461E0,-2.524950027E0,-1.845000076E1,4.461000443E0,1.914884920E1
1.786359000E0,-1.528050065E0,-1.718505096E1,4.461000443E0,1.782025361E1
1.788322532E0,-6.469500065E-1,-1.576695061E1,4.384050369E0,1.637788672E1
1.790287018E0,4.639500082E-1,-1.469400024E1,4.882050037E0,1.549074902E1
1.792251225E0,2.227050066E0,-1.385100079E1,4.921050072E0,1.486696703E1
1.794214650E0,3.645000219E0,-1.323795033E1,5.112000465E0,1.465134479E1
1.796178304E0,4.795050144E0,-1.273905087E1,5.035950184E0,1.451332895E1
1.798141962E0,5.215950012E0,-1.227900028E1,5.035950184E0,1.425976075E1
1.800105616E0,4.909950256E0,-1.166595078E1,5.227050304E0,1.369394296E1
1.802069135E0,4.335000038E0,-1.082295036E1,4.843950272E0,1.262506769E1
1.804032693E0,3.492000103E0,-1.005600071E1,5.151000023E0,1.182581990E1
1.805996588E0,3.223050117E0,-9.520050049E0,5.686950207E0,1.154819500E1
1.807960384E0,3.223050117E0,-9.250950813E0,6.070950508E0,1.152495480E1
1.809924090E0,3.376950264E0,-9.060000420E0,6.492000103E0,1.164617817E1
1.811887833E0,3.376950264E0,-8.868000031E0,6.376950264E0,1.143287857E1
1.813851472E0,3.300000191E0,-8.638050079E0,6.492000103E0,1.129831739E1
1.815815141E0,3.223050117E0,-8.370000839E0,6.684000492E0,1.118574221E1
1.817779016E0,2.955000162E0,-7.872000217E0,6.531000137E0,1.064680122E1
1.819742831E0,2.839950085E0,-7.411950588E0,6.646050453E0,1.035240622E1
1.821706508E0,2.839950085E0,-6.952050209E0,6.646050453E0,1.002827529E1
1.823670222E0,2.649000168E0,-6.339000225E0,6.607050419E0,9.531696647E0
1.825633775E0,2.188950062E0,-5.649000168E0,6.376950264E0,8.795919505E0
1.827597376E0,1.614000082E0,-4.804950237E0,6.454050541E0,8.206540771E0
1.829560904E0,1.269000053E0,-3.886050224E0,6.760950089E0,7.900771708E0
1.831524453E0,1.000050068E0,-2.851050138E0,6.913950443E0,7.545283147E0
1.833487303E0,5.020500422E-1,-1.738950133E0,7.219950199E0,7.443365011E0
1.835450333E0,-3.299999982E-2,-3.979500234E-1,7.182000160E0,7.193092487E0
1.837413597E0,-7.230000496E-1,7.890000343E-1,7.411950588E0,7.488809094E0
1.839376792E0,-1.413000107E0,2.131050110E0,7.603950500E0,8.022344239E0
1.841340930E0,-2.218050003E0,3.357000113E0,7.756950378E0,8.738390856E0
1.843304792E0,-2.869950056E0,4.468950272E0,7.987050533E0,9.591720705E0
1.845268281E0,-3.406050205E0,5.619000435E0,8.064000130E0,1.040204028E1
1.847231876E0,-3.943050146E0,6.577050209E0,8.140049934E0,1.118327532E1
1.849195539E0,-4.249050140E0,7.381950378E0,8.101950645E0,1.175539122E1
1.851159182E0,-4.441050053E0,7.995000362E0,8.101950645E0,1.221820611E1
1.853122928E0,-4.900950432E0,8.532000542E0,7.795050144E0,1.255297396E1
1.855086644E0,-5.361000061E0,8.914950371E0,7.719000340E0,1.295374957E1
1.857050486E0,-5.629050255E0,9.183000565E0,7.603950500E0,1.318460350E1
1.859014278E0,-6.127950191E0,9.375000000E0,7.374000549E0,1.340963395E1
1.860977955E0,-6.396000385E0,9.490050316E0,7.374000549E0,1.361417497E1
1.862941665E0,-6.549000263E0,9.528000832E0,7.564950466E0,1.381668122E1
1.864905219E0,-7.047000408E0,9.643050194E0,7.450050354E0,1.407664314E1
1.866868818E0,-7.392000198E0,9.757950783E0,7.564950466E0,1.439054363E1
1.868832291E0,-7.621950150E0,9.796050072E0,7.642050266E0,1.457592719E1
1.870795808E0,-7.891050339E0,9.910950661E0,7.795050144E0,1.487475799E1
1.872759394E0,-8.236050606E0,1.010295010E1,7.719000340E0,1.514876551E1
1.874722960E0,-8.464950562E0,1.037100029E1,7.680000305E0,1.543358156E1
1.876686315E0,-8.503950119E0,1.033305073E1,7.834050179E0,1.550681938E1
1.878649732E0,-8.734050751E0,1.029495049E1,7.527000427E0,1.545721137E1
1.880613245E0,-8.809950829E0,1.014105034E1,7.680000305E0,1.547380174E1
1.882576730E0,-8.772000313E0,1.021800041E1,7.909950256E0,1.561802916E1
1.884540143E0,-8.925000191E0,1.021800041E1,8.140049934E0,1.582161729E1
1.886503578E0,-8.925000191E0,9.949950218E0,9.060000420E0,1.614746870E1
1.888467268E0,-8.964000702E0,9.490050316E0,1.028700066E1,1.662037142E1
1.890430883E0,-8.772000313E0,9.106050491E0,1.182000065E1,1.730839566E1
1.892394441E0,-8.503950119E0,8.608050346E0,1.323795033E1,1.793485509E1
1.894358025E0,-8.350950241E0,8.224950790E0,1.427295113E1,1.846903677E1
1.896321870E0,-8.005949974E0,7.650000572E0,1.576800060E1,1.926778624E1
1.898285639E0,-7.660950184E0,7.113000393E0,1.668704987E1,1.969117989E1
1.900249364E0,-7.392000198E0,6.577050209E0,1.680195045E1,1.949884087E1
1.902213102E0,-7.239000320E0,6.232050419E0,1.653404999E1,1.909493093E1
1.904176936E0,-7.123950481E0,5.964000225E0,1.584405041E1,1.836719637E1
1.906140731E0,-7.123950481E0,5.772000313E0,1.434900093E1,1.702822615E1
1.908104811E0,-7.162050247E0,5.772000313E0,1.304595089E1,1.596269983E1
1.910068808E0,-6.817050457E0,5.427000046E0,1.197300053E1,1.480801297E1
1.912032268E0,-6.433950424E0,5.197050095E0,1.044000053E1,1.331910879E1
1.913995886E0,-6.127950191E0,4.929000378E0,9.136950493E0,1.205531761E1
1.915959585E0,-5.935950279E0,4.774950027E0,7.642050266E0,1.079057856E1
1.917923264E0,-5.898000240E0,4.774950027E0,6.415950298E0,9.937352405E0
1.919886915E0,-6.051000118E0,4.699050426E0,5.151000023E0,9.231927132E0
1.921850574E0,-6.280950069E0,4.774950027E0,4.308000088E0,8.989401888E0
1.923814316E0,-6.472050190E0,4.699050426E0,3.426000118E0,8.700918652E0
1.925778033E0,-6.931950092E0,4.431000233E0,2.506050110E0,8.600347801E0
1.927741538E0,-7.276950359E0,4.085999966E0,1.777950048E0,8.532907396E0
1.929705108E0,-7.392000198E0,3.625950098E0,1.548000097E0,8.377677802E0
1.931668775E0,-7.392000198E0,3.127050161E0,1.240950108E0,8.121580315E0
1.933632414E0,-7.431000233E0,2.667000055E0,7.050000429E-1,7.926517446E0
1.935596836E0,-7.239000320E0,2.053950071E0,2.449500114E-1,7.528734093E0
1.937561029E0,-7.009050369E0,1.402950048E0,-1.369500011E-1,7.149392367E0
1.939524341E0,-6.664050102E0,6.739500165E-1,-4.440000355E-1,6.712742243E0
1.941487897E0,-6.357000351E0,6.105000153E-2,-9.420000315E-1,6.426705581E0
1.943451792E0,-6.051000118E0,-3.589500189E-1,-1.441050053E0,6.230575640E0
1.945415587E0,-5.782950401E0,-1.087950110E0,-1.824000120E0,6.160610946E0
1.947379218E0,-5.514000416E0,-1.624050021E0,-1.939050078E0,6.066436702E0
1.949342897E0,-5.208000183E0,-2.199000120E0,-2.169000149E0,6.055033367E0
1.951306401E0,-4.747950077E0,-2.544000149E0,-2.859000206E0,6.098266054E0
1.953269963E0,-4.326000214E0,-2.889000177E0,-3.357000113E0,6.191126685E0
1.955233677E0,-3.904950142E0,-3.118950129E0,-3.931950092E0,6.358987108E0
1.957197346E0,-3.559950113E0,-3.579000235E0,-4.698000431E0,6.895918760E0
1.959160863E0,-3.253050089E0,-3.808950186E0,-5.656950474E0,7.555893399E0
1.961124425E0,-2.985000134E0,-4.077000141E0,-6.615000248E0,8.324084588E0
1.963087978E0,-2.793000221E0,-4.537050247E0,-7.918050289E0,9.543646869E0
1.965051521E0,-2.601000071E0,-5.035050392E0,-9.298050880E0,1.088901667E1
1.967014563E0,-2.371050119E0,-5.725050449E0,-1.098405075E1,1.261140168E1
1.968977752E0,-2.103000164E0,-6.492000103E0,-1.278600025E1,1.449311828E1
1.970941529E0,-1.873050094E0,-7.411950588E0,-1.462500095E1,1.650260528E1
1.972905134E0,-1.605000019E0,-8.677050591E0,-1.650300026E1,1.871406555E1
1.974868857E0,-1.222050071E0,-1.009500027E1,-1.776795006E1,2.047199272E1
1.976832534E0,-8.770500422E-1,-1.147395039E1,-1.853505135E1,2.181671109E1
1.978796544E0,-4.930500090E-1,-1.247100067E1,-1.849605179E1,2.231306541E1
1.980760457E0,2.340000123E-1,-1.342905045E1,-1.834305000E1,2.273459116E1
1.982724698E0,1.230000019E0,-1.411905098E1,-1.811295128E1,2.299868485E1
1.984688842E0,1.882050037E0,-1.465605068E1,-1.792094994E1,2.322719054E1
1.986652097E0,2.533950090E0,-1.488600063E1,-1.765305138E1,2.323024194E1
1.988615613E0,3.337950230E0,-1.488600063E1,-1.700205040E1,2.284304368E1
1.990579469E0,3.952050209E0,-1.488600063E1,-1.604295158E1,2.223933477E1
1.992543226E0,4.297049999E0,-1.454100037E1,-1.508505058E1,2.138840998E1
1.994506773E0,4.488000393E0,-1.400400066E1,-1.458705044E1,2.071318958E1
1.996470382E0,4.372950077E0,-1.339095020E1,-1.351395035E1,1.952093988E1
1.998434422E0,4.258049965E0,-1.273905087E1,-1.259400082E1,1.841258437E1
2.000398322E0,4.219950199E0,-1.193400097E1,-1.159695053E1,1.716734168E1
2.002362160E0,4.027950287E0,-1.109100056E1,-1.048605061E1,1.578581433E1
2.004326017E0,3.607050180E0,-1.013295078E1,-9.373950005E0,1.426739084E1
2.006289545E0,3.070050240E0,-9.060000420E0,-7.726050377E0,1.229636818E1
2.008253170E0,2.572050095E0,-8.101950645E0,-5.772000313E0,1.027487390E1
2.010216648E0,2.035050154E0,-7.027950287E0,-3.625050068E0,8.165445631E0
2.012180170E0,1.498950124E0,-5.917050362E0,-9.810000658E-1,6.182289025E0
2.014142675E0,1.269000053E0,-4.959000111E0,1.893000126E0,5.457608699E0
2.016105478E0,1.230000019E0,-4.000950336E0,4.921050072E0,6.460436320E0
2.018069457E0,1.114950061E0,-2.926950216E0,7.987050533E0,8.579226505E0
2.020033092E0,8.470500112E-1,-1.777950048E0,1.066995049E1,1.085018172E1
2.021994617E0,2.719500065E-1,-6.660000086E-1,1.266300106E1,1.268341865E1
2.023956771E0,-2.250000089E-1,9.900000691E-2,1.377405071E1,1.377624401E1
2.025920050E0,-4.930500090E-1,6.739500165E-1,1.408095074E1,1.410568965E1
2.027883000E0,-6.469500065E-1,9.040500522E-1,1.388895035E1,1.393336975E1
2.029846414E0,-6.469500065E-1,5.590500236E-1,1.289295101E1,1.292127188E1
2.031809692E0,-8.380500674E-1,1.380000114E-1,1.155105019E1,1.158223348E1
2.033774041E0,-8.380500674E-1,-5.509500504E-1,1.001805019E1,1.006812811E1
2.035738077E0,-7.620000243E-1,-1.663050056E0,8.446949959E0,8.642762471E0
2.037701486E0,-7.230000496E-1,-3.081000090E0,7.144050121E0,7.813625456E0
2.039665079E0,-7.999500632E-1,-4.882050037E0,6.223950386E0,7.950590612E0
2.041628787E0,-1.489950061E0,-6.684000492E0,6.376950264E0,9.357419967E0
2.043592461E0,-2.140950203E0,-8.677050591E0,8.293950081E0,1.219280454E1
2.045555982E0,-2.869950056E0,-1.090005016E1,1.139805031E1,1.603007354E1
2.047519545E0,-3.828000069E0,-1.342905045E1,1.423395061E1,1.993986787E1
2.049482944E0,-5.706000328E0,-1.580505085E1,1.526895046E1,2.270460130E1
2.051446391E0,-8.464950562E0,-1.860300064E1,1.668704987E1,2.638531133E1
2.053410305E0,-1.087995052E1,-2.090295029E1,1.634205055E1,2.867698154E1
2.055374082E0,-1.252800083E1,-2.143995094E1,1.097700024E1,2.714989568E1
2.057337955E0,-1.471305084E1,-2.205300140E1,6.799050331E0,2.736851880E1
2.059301789E0,-1.678305054E1,-2.393100166E1,4.806000233E0,2.962197266E1
2.061265772E0,-1.908195114E1,-2.577105141E1,4.078050137E0,3.232488891E1
2.063229712E0,-2.134395027E1,-2.730405045E1,3.426000118E0,3.482546282E1
2.065194128E0,-2.368200111E1,-2.833905220E1,1.500000060E-2,3.693154859E1
2.067158404E0,-2.490795135E1,-2.864505196E1,-2.359950066E0,3.803306991E1
2.069121990E0,-2.464005089E1,-2.795505142E1,-1.861950040E0,3.731064011E1
2.071085752E0,-2.211000061E1,-2.550195122E1,-9.420000315E-1,3.376520409E1
2.073048396E0,-1.808595085E1,-2.216805077E1,2.830500007E-1,2.861126020E1
2.075011367E0,-1.413795090E1,-1.898700142E1,1.740000129E0,2.373637459E1
2.076975182E0,-1.065000057E1,-1.622700119E1,3.157950163E0,1.966496196E1
2.078938750E0,-8.005949974E0,-1.392705059E1,3.579000235E0,1.645804411E1
2.080902618E0,-6.204000473E0,-1.193400097E1,3.004050255E0,1.378166604E1
2.082866384E0,-4.863000393E0,-1.047795010E1,1.624950051E0,1.166519068E1
2.084830605E0,-3.751050234E0,-9.328050613E0,3.979500234E-1,1.006187211E1
2.086794692E0,-2.677950144E0,-8.677050591E0,-7.510500550E-1,9.111898820E0
2.088757822E0,-1.873050094E0,-8.140049934E0,-1.134000063E0,8.429394150E0
2.090721233E0,-1.528050065E0,-7.717950344E0,-1.287000060E0,7.972331131E0
2.092684747E0,-1.183050036E0,-7.564950466E0,-1.516950130E0,7.805717177E0
2.094648231E0,-9.529500604E-1,-7.680000305E0,-1.555950046E0,7.893763301E0
2.096611959E0,-1.106999993E0,-7.909950256E0,-1.210950017E0,8.078314304E0
2.098575615E0,-1.375050068E0,-8.178000450E0,-8.659500480E-1,8.337884836E0
2.100539180E0,-1.911000133E0,-8.485050201E0,-7.120500207E-1,8.726684001E0
2.102502771E0,-2.448000193E0,-8.907000542E0,-4.440000355E-1,9.247945698E0
2.104466241E0,-2.946000099E0,-9.442950249E0,-2.520000041E-1,9.895035623E0
2.106429757E0,-3.253050089E0,-1.001805019E1,2.830500007E-1,1.053678233E1
2.108392804E0,-3.406050205E0,-1.070805073E1,1.279950023E0,1.130936782E1
2.110355988E0,-3.406050205E0,-1.162800026E1,2.506050110E0,1.237302935E1
2.112319586E0,-3.253050089E0,-1.270095062E1,4.153950214E0,1.375324631E1
2.114283063E0,-3.061050177E0,-1.365900040E1,5.764050484E0,1.513811739E1
2.116246747E0,-2.716050148E0,-1.461705112E1,7.411950588E0,1.661240872E1
2.118210371E0,-2.256000042E0,-1.542195034E1,8.638950348E0,1.782014454E1
2.120173535E0,-1.642950058E0,-1.618905067E1,9.328050613E0,1.875625695E1
2.122136834E0,-1.030050039E0,-1.676399994E1,9.214050293E0,1.915702012E1
2.124100773E0,-4.549500346E-1,-1.718505096E1,8.754000664E0,1.929159101E1
2.126064524E0,2.719500065E-1,-1.753005028E1,8.025000572E0,1.928152623E1
2.128028792E0,1.077000022E0,-1.779900169E1,7.603950500E0,1.938516065E1
2.129992909E0,1.690050125E0,-1.810500145E1,7.450050354E0,1.965071493E1
2.131956485E0,2.149950027E0,-1.833495140E1,7.489050388E0,1.992181226E1
2.133920219E0,2.649000168E0,-1.860300064E1,8.101950645E0,2.046290397E1
2.135883724E0,3.262050152E0,-1.894799995E1,8.983950615E0,2.122213566E1
2.137847296E0,3.645000219E0,-1.936995125E1,9.558000565E0,2.190516863E1
2.139810829E0,3.837000132E0,-1.967700005E1,1.093800068E1,2.283739827E1
2.141774373E0,4.642050266E0,-2.025105095E1,1.228005028E1,2.413406990E1
2.143737910E0,6.213000298E0,-2.132505035E1,1.431105042E1,2.642281797E1
2.145701450E0,8.053050041E0,-2.285805130E1,1.699394989E1,2.959960231E1
2.147664808E0,9.279000282E0,-2.442900085E1,1.952400017E1,3.261997105E1
2.149628219E0,9.700950623E0,-2.554095078E1,2.143995094E1,3.472923993E1
2.151592138E0,9.355950356E0,-2.634600067E1,2.239800072E1,3.582340010E1
2.153555908E0,8.244000435E0,-2.692005157E1,2.205300140E1,3.576293599E1
2.155519408E0,7.554000378E0,-2.780205154E1,2.136300087E1,3.586634631E1
2.157482987E0,7.783950329E0,-2.891400146E1,2.113305092E1,3.664990047E1
2.159446518E0,8.589000702E0,-2.979495049E1,2.121000099E1,3.756825987E1
2.161410064E0,9.394050598E0,-3.044700050E1,2.074995041E1,3.802405118E1
2.163373786E0,1.012200069E1,-3.086805153E1,1.979205132E1,3.803967401E1
2.165337452E0,1.054395008E1,-3.117495155E1,1.848900032E1,3.774778961E1
2.167301374E0,1.062105083E1,-3.117495155E1,1.737705040E1,3.723769872E1
2.169265221E0,1.096605015E1,-3.113700104E1,1.657200050E1,3.693776239E1
2.171228708E0,1.142595100E1,-3.102195168E1,1.569105053E1,3.659402832E1
2.173192300E0,1.188495064E1,-3.060000229E1,1.427295113E1,3.579566071E1
2.175156157E0,1.238400078E1,-3.002505112E1,1.266300106E1,3.485998803E1
2.177119927E0,1.326495075E1,-2.937300110E1,1.032495022E1,3.384282360E1
2.179083652E0,1.360995102E1,-2.883705139E1,6.646050453E0,3.257263094E1
2.181047391E0,1.360995102E1,-2.830005074E1,2.046000004E0,3.146918738E1
2.183011750E0,1.376400089E1,-2.768700218E1,-2.704950094E0,3.103763144E1
2.184975927E0,1.364895058E1,-2.711205101E1,-7.918050289E0,3.136961400E1
2.186939411E0,1.338000107E1,-2.638395119E1,-1.362900066E1,3.257125985E1
2.188903092E0,1.322700024E1,-2.554095078E1,-2.029800034E1,3.520372877E1
2.190866920E0,1.315005016E1,-2.473605156E1,-2.635395050E1,3.846201728E1
2.192830705E0,1.272900105E1,-2.393100166E1,-3.148905182E1,4.154853418E1
2.194794562E0,1.173195076E1,-2.281905174E1,-3.463199997E1,4.310131336E1
2.196758398E0,1.027605057E1,-2.178495026E1,-3.516900253E1,4.262675231E1
2.198721942E0,8.896050453E0,-2.094105148E1,-3.313695145E1,4.019608068E1
2.200685564E0,7.708050251E0,-2.017500114E1,-3.018600082E1,3.711656444E1
2.202649222E0,6.136050224E0,-1.940805054E1,-2.734995079E1,3.409315688E1
2.204612869E0,4.450050354E0,-1.852695084E1,-2.397705078E1,3.062596643E1
2.206576255E0,3.108000040E0,-1.764495087E1,-1.949295044E1,2.647600937E1
2.208539717E0,1.230000019E0,-1.695495033E1,-1.566000080E1,2.311317516E1
2.210502363E0,-1.222050071E0,-1.618905067E1,-1.290105057E1,2.073682410E1
2.212465251E0,-3.598050117E0,-1.557600117E1,-1.186605072E1,1.990881555E1
2.214428900E0,-5.476050377E0,-1.507695103E1,-1.113705063E1,1.952781290E1
2.216392326E0,-6.894000530E0,-1.484700108E1,-1.037100029E1,1.937829537E1
2.218356064E0,-8.121000290E0,-1.465605068E1,-1.006395054E1,1.954567900E1
2.220319711E0,-9.117000580E0,-1.450200081E1,-9.873000145E0,1.977128875E1
2.222283532E0,-9.654000282E0,-1.454100037E1,-9.834000587E0,2.003367117E1
2.224247312E0,-9.807000160E0,-1.488600063E1,-9.949050903E0,2.041455071E1
2.226210991E0,-1.018995094E1,-1.530705070E1,-1.021800041E1,2.103683517E1
2.228174699E0,-1.087995052E1,-1.538400078E1,-1.121400070E1,2.192702933E1
2.230138432E0,-1.180005074E1,-1.530705070E1,-1.221105099E1,2.286168771E1
2.232102158E0,-1.214505100E1,-1.500105095E1,-1.286205101E1,2.319409730E1
2.234066210E0,-1.294995022E1,-1.457895088E1,-1.412700081E1,2.407943461E1
2.236030163E0,-1.318005085E1,-1.431105042E1,-1.531500053E1,2.476023315E1
2.237994306E0,-1.306500053E1,-1.404195023E1,-1.592805099E1,2.493137408E1
2.239958394E0,-1.275795078E1,-1.354395103E1,-1.646505165E1,2.484555984E1
2.241922380E0,-1.233705044E1,-1.319895077E1,-1.654200172E1,2.449597795E1
2.243886396E0,-1.130205059E1,-1.285395050E1,-1.654200172E1,2.380332355E1
2.245850077E0,-9.730050087E0,-1.254795074E1,-1.619700050E1,2.268188193E1
2.247813857E0,-6.856050491E0,-1.289295101E1,-1.569795036E1,2.143966557E1
2.249777669E0,-3.636000156E0,-1.331400108E1,-1.527705097E1,2.058813756E1
2.251741471E0,-7.230000496E-1,-1.358205032E1,-1.512405109E1,2.034039679E1
2.253706091E0,1.729050040E0,-1.365900040E1,-1.519995117E1,2.050844756E1
2.255670471E0,3.874950171E0,-1.358205032E1,-1.516200066E1,2.072133185E1
2.257634027E0,5.752950191E0,-1.331400108E1,-1.516200066E1,2.098202385E1
2.259597838E0,7.132950306E0,-1.293105030E1,-1.508505058E1,2.111041906E1
2.261561330E0,8.473950386E0,-1.243305016E1,-1.493205070E1,2.119798834E1
2.263524915E0,9.624000549E0,-1.189605045E1,-1.477905083E1,2.127340467E1
2.265488266E0,1.065900040E1,-1.143600082E1,-1.458705044E1,2.138173157E1
2.267451685E0,1.165605068E1,-1.078500080E1,-1.443405056E1,2.145976643E1
2.269415034E0,1.257495022E1,-1.032495022E1,-1.439505100E1,2.172444391E1
2.271378425E0,1.330395031E1,-9.787950516E0,-1.412700081E1,2.173410272E1
2.273341988E0,1.399305058E1,-9.289950371E0,-1.397400093E1,2.184905820E1
2.275305500E0,1.456800079E1,-9.021000862E0,-1.347495079E1,2.179861010E1
2.277269358E0,1.498995113E1,-8.677050591E0,-1.274700069E1,2.150525212E1
2.279233115E0,1.552695084E1,-8.370000839E0,-1.186605072E1,2.125902811E1
2.281196417E0,1.583295059E1,-8.407950401E0,-1.044795036E1,2.074935231E1
2.283159866E0,1.621605110E1,-8.217000008E0,-8.991000175E0,2.028096365E1
2.285123464E0,1.652295113E1,-8.217000008E0,-7.381050587E0,1.987478077E1
2.287087018E0,1.682999992E1,-8.178000450E0,-5.695050240E0,1.955919697E1
2.289050555E0,1.686795044E1,-7.948050499E0,-3.894000292E0,1.904895002E1
2.291014097E0,1.667595100E1,-7.795050144E0,-1.900950074E0,1.850577639E1
2.292977239E0,1.656105042E1,-7.372950554E0,-3.289500177E-1,1.813110584E1
2.294940492E0,1.614000130E1,-7.182000160E0,1.510050058E0,1.773022897E1
2.296904258E0,1.567995071E1,-6.952050209E0,2.583000183E0,1.734542437E1
2.298867874E0,1.537305069E1,-6.645000458E0,3.426000118E0,1.709456625E1
2.300831400E0,1.498995113E1,-6.262050152E0,3.924000263E0,1.671256070E1
2.302794953E0,1.456800079E1,-5.955000401E0,4.231050014E0,1.629694637E1
2.304758493E0,1.395495033E1,-5.457000256E0,4.690950394E0,1.570109888E1
2.306722034E0,1.345695019E1,-4.920000076E0,4.768050194E0,1.510066925E1
2.308685932E0,1.291995049E1,-4.422000408E0,4.768050194E0,1.446421484E1
2.310649725E0,1.234500027E1,-3.886050224E0,4.461000443E0,1.368944641E1
2.312613401E0,1.203900051E1,-3.349050045E0,4.192950249E0,1.318083841E1
2.314577111E0,1.184700012E1,-2.851050138E0,3.771000147E0,1.275540438E1
2.316540805E0,1.157895088E1,-2.428950071E0,3.618000269E0,1.237181587E1
2.318504501E0,1.142595100E1,-1.854000092E0,3.349050045E0,1.205013730E1
2.320468236E0,1.157895088E1,-1.509000063E0,3.463950157E0,1.217982493E1
2.322431960E0,1.165605068E1,-1.240950108E0,3.463950157E0,1.222302849E1
2.324395468E0,1.134900093E1,-7.039500475E-1,3.349050045E0,1.185375485E1
2.326359039E0,1.108095074E1,-3.210000098E-1,2.698050022E0,1.140920611E1
2.328321811E0,1.085100079E1,-1.290000081E-1,2.085000038E0,1.105025268E1
2.330284814E0,1.050600052E1,6.105000153E-2,1.969950080E0,1.068926926E1
2.332248308E0,1.039095020E1,3.679500222E-1,1.585950017E0,1.051772175E1
2.334211658E0,1.031400013E1,7.890000343E-1,8.200500607E-1,1.037658912E1
2.336175949E0,1.023705006E1,9.040500522E-1,-4.440000355E-1,1.028647833E1
2.338139965E0,1.027605057E1,1.018950105E0,-1.555950046E0,1.044300987E1
2.340103164E0,1.012200069E1,1.173000097E0,-2.245050192E0,1.043413042E1
2.342066626E0,1.004595089E1,1.326000094E0,-2.743950129E0,1.049803162E1
2.344030222E0,9.892050743E0,1.594050050E0,-2.782050133E0,1.039872427E1
2.345993778E0,9.661950111E0,1.900950074E0,-2.859000206E0,1.025381750E1
2.347957315E0,9.163949966E0,2.131050110E0,-3.319050074E0,9.976745308E0
2.349920857E0,8.320950508E0,2.208000183E0,-3.778950214E0,9.401805512E0
2.351884574E0,7.056000233E0,1.978050113E0,-4.162050247E0,8.427483835E0
2.353848239E0,5.599950314E0,1.441050053E0,-4.468050003E0,7.307498861E0
2.355812612E0,4.564949989E0,6.739500165E-1,-4.736999989E0,6.613028498E0
2.357776778E0,3.415050268E0,-1.680000126E-1,-4.966950417E0,6.030040529E0
2.359740570E0,2.341950178E0,-8.190000653E-1,-5.197050095E0,5.758890642E0
2.361704472E0,1.269000053E0,-1.585950017E0,-5.388000488E0,5.758137533E0
2.363667258E0,7.320000529E-1,-2.351999998E0,-5.350050449E0,5.889886916E0
2.365630381E0,4.639500082E-1,-3.081000090E0,-5.082000256E0,5.961085284E0
2.367593990E0,4.260000288E-1,-3.732000113E0,-4.890000343E0,6.166149870E0
2.369557456E0,1.960500032E-1,-4.498950005E0,-4.813050270E0,6.591239614E0
2.371521142E0,-1.480500102E-1,-5.112000465E0,-4.736999989E0,6.970913603E0
2.373484764E0,-5.320500135E-1,-5.802000046E0,-4.468050003E0,7.342326101E0
2.375448469E0,-7.620000243E-1,-6.492000103E0,-3.817050219E0,7.569450558E0
2.377412181E0,-8.770500422E-1,-7.219950199E0,-3.204000235E0,7.947484832E0
2.379375691E0,-7.230000496E-1,-8.025000572E0,-2.359950066E0,8.395994734E0
2.381339260E0,-5.320500135E-1,-8.752950668E0,-1.479000092E0,8.892955858E0
2.383301892E0,-1.099500060E-1,-9.595950127E0,-4.819500148E-1,9.608674396E0
2.385264799E0,1.570500135E-1,-1.040100002E1,5.899500251E-1,1.041890144E1
2.387229481E0,5.020500422E-1,-1.116795063E1,1.432950020E0,1.127069303E1
2.389193643E0,7.699500322E-1,-1.197300053E1,1.930950046E0,1.215212462E1
2.391157255E0,1.114950061E0,-1.277805042E1,2.391000032E0,1.304755025E1
2.393121029E0,1.345050097E0,-1.369695091E1,2.659050226E0,1.401735254E1
2.395084527E0,1.651950121E0,-1.480905056E1,3.273000240E0,1.525612822E1
2.397048106E0,2.227050066E0,-1.607400131E1,3.963000298E0,1.670444975E1
2.399012017E0,2.802000046E0,-1.729995155E1,4.768050194E0,1.816242910E1
2.400975817E0,3.337950230E0,-1.864200020E1,5.457000256E0,1.970900644E1
2.402939312E0,3.721950293E0,-2.005995178E1,5.994000435E0,2.126458607E1
2.404902896E0,3.952050209E0,-2.151600075E1,6.376950264E0,2.278645395E1
2.406866651E0,4.027950287E0,-2.281905174E1,6.837000370E0,2.415943046E1
2.408830355E0,4.027950287E0,-2.416095161E1,6.684000492E0,2.538999466E1
2.410794016E0,4.182000160E0,-2.542605209E1,6.147000313E0,2.649073165E1
2.412757679E0,4.411950111E0,-2.680500221E1,5.611050129E0,2.773909391E1
2.414721241E0,4.603050232E0,-2.849205208E1,4.768050194E0,2.925268203E1
2.416684833E0,5.293050289E0,-3.021705055E1,3.463950157E0,3.087208247E1
2.418648317E0,5.293050289E0,-3.194100189E1,1.893000126E0,3.243188913E1
2.420611833E0,5.101050377E0,-3.374295044E1,9.730500579E-1,3.414021449E1
2.422576446E0,3.952050209E0,-3.573600006E1,2.449500114E-1,3.595469930E1
2.424540744E0,1.575000048E0,-3.703905106E1,-9.810000658E-1,3.708549972E1
2.426503252E0,-2.250000089E-1,-3.845700073E1,-2.014950037E0,3.851040839E1
2.428466284E0,-1.413000107E0,-3.972195053E1,-2.704950094E0,3.983900950E1
2.430429908E0,-2.371050119E0,-4.094805145E1,-2.475000143E0,4.109124508E1
2.432393359E0,-3.483000278E0,-4.190700150E1,-1.479000092E0,4.207749406E1
2.434356778E0,-4.210950375E0,-4.267305374E1,-9.810000658E-1,4.289153739E1
2.436320207E0,-5.245950222E0,-4.282605362E1,-9.420000315E-1,4.315643899E1
2.438283944E0,-6.741000175E0,-4.217505264E1,-7.510500550E-1,4.271697818E1
2.440247590E0,-8.044050217E0,-4.094805145E1,-1.441050053E0,4.175555396E1
2.442211606E0,-9.462000847E0,-3.952995300E1,-1.594050050E0,4.067785196E1
2.444175513E0,-1.015200043E1,-3.861000061E1,-1.057050109E0,3.993635705E1
2.446137913E0,-1.045905018E1,-3.780600357E1,2.830500007E-1,3.922710484E1
2.448100751E0,-1.026705074E1,-3.730695343E1,2.314950228E0,3.876312810E1
2.450064589E0,-9.117000580E0,-3.711600113E1,4.882050037E0,3.852987999E1
2.452028134E0,-7.276950359E0,-3.753705215E1,6.760950089E0,3.882904502E1
2.453991716E0,-5.668050289E0,-3.807405090E1,7.909950256E0,3.929793200E1
2.455955287E0,-3.675000191E0,-3.864900208E1,9.903000832E0,4.006644997E1
2.457919172E0,-1.297950029E0,-3.952995300E1,9.060000420E0,4.057567580E1
2.459882971E0,-2.250000089E-1,-4.037295151E1,4.345950127E0,4.060681126E1
2.461847546E0,-3.780000210E-1,-4.114005280E1,-1.287000060E0,4.116191440E1
2.463811894E0,-9.150000215E-1,-4.183005142E1,-6.232050419E0,4.230164157E1
2.465775790E0,-6.079500318E-1,-4.267305374E1,-1.086900043E1,4.403968993E1
2.467739819E0,-3.780000210E-1,-4.321005249E1,-1.232595062E1,4.493529324E1
2.469703318E0,-9.529500604E-1,-4.305600357E1,-1.194195080E1,4.469158474E1
2.471666973E0,-2.179949999E0,-4.217505264E1,-1.152105045E1,4.377467134E1
2.473630670E0,-3.214950085E0,-4.114005280E1,-1.121400070E1,4.276205865E1
2.475594355E0,-4.134000301E0,-3.972195053E1,-9.336000443E0,4.101322002E1
2.477558184E0,-4.978050232E0,-3.826500320E1,-7.150950432E0,3.924445880E1
2.479521971E0,-5.706000328E0,-3.657900238E1,-4.698000431E0,3.731826715E1
2.481485812E0,-6.127950191E0,-3.493095016E1,-2.284050226E0,3.553786626E1
2.483449648E0,-6.702000141E0,-3.282300186E1,-4.440000355E-1,3.350318482E1
2.485412461E0,-6.894000530E0,-3.079200172E1,1.203000069E0,3.157723583E1
2.487375573E0,-7.201050282E0,-2.864505196E1,2.238000154E0,2.962098532E1
2.489339544E0,-7.315950394E0,-2.619195175E1,3.157950163E0,2.737725545E1
2.491303263E0,-7.315950394E0,-2.396895027E1,3.655950069E0,2.532586974E1
2.493267086E0,-6.970950127E0,-2.201505089E1,3.426000118E0,2.334510844E1
2.495230879E0,-5.782950401E0,-2.017500114E1,3.618000269E0,2.129702121E1
2.497194420E0,-4.326000214E0,-1.860300064E1,4.231050014E0,1.956240514E1
2.499158035E0,-3.138000250E0,-1.745400047E1,4.498950005E0,1.829562049E1
2.501121694E0,-2.563050032E0,-1.595895100E1,4.308000088E0,1.672770777E1
2.503085340E0,-2.140950203E0,-1.404195023E1,4.269000053E0,1.483187093E1
2.505048896E0,-1.336950064E0,-1.273905087E1,4.768050194E0,1.366766824E1
2.507012486E0,-1.870500147E-1,-1.193400097E1,4.498950005E0,1.275523100E1
2.508977096E0,8.089500666E-1,-1.128300095E1,4.345950127E0,1.211807712E1
2.510941407E0,1.690050125E0,-1.063095093E1,4.192950249E0,1.155223869E1
2.512904769E0,2.572050095E0,-1.001805019E1,4.269000053E0,1.118933121E1
2.514868409E0,2.955000162E0,-9.405000687E0,4.192950249E0,1.071293124E1
2.516831921E0,3.184950113E0,-8.830050468E0,4.345950127E0,1.034412785E1
2.518795477E0,3.223050117E0,-8.332050323E0,4.345950127E0,9.934706697E0
2.520759192E0,3.147000074E0,-7.833000183E0,4.576050282E0,9.602069439E0
2.522722860E0,2.992950201E0,-7.564950466E0,5.227050304E0,9.669968012E0
2.524686422E0,2.878050089E0,-7.335000515E0,5.341950417E0,9.519550363E0
2.526650016E0,2.610000134E0,-6.952050209E0,5.457000256E0,9.215310879E0
2.528613519E0,2.494950056E0,-6.529950142E0,5.304000378E0,8.774818781E0
2.530577035E0,2.686950207E0,-6.147000313E0,5.341950417E0,8.575648577E0
2.532540621E0,2.917050123E0,-5.839950085E0,5.649000168E0,8.632809584E0
2.534504187E0,3.184950113E0,-5.572050095E0,5.841000080E0,8.678071872E0
2.536467541E0,2.878050089E0,-5.035050392E0,5.917050362E0,8.285311687E0
2.538430958E0,2.649000168E0,-4.537050247E0,5.878950119E0,7.884420165E0
2.540394831E0,2.380050182E0,-3.886050224E0,5.266050339E0,6.964001105E0
2.542358571E0,2.149950027E0,-3.234000206E0,4.921050072E0,6.268793844E0
2.544322436E0,2.111999989E0,-2.659050226E0,4.768050194E0,5.853665066E0
2.546286264E0,2.035050154E0,-2.046000004E0,4.882050037E0,5.671151357E0
2.548249934E0,1.882050037E0,-1.279050112E0,4.729050159E0,5.248046965E0
2.550213650E0,1.614000082E0,-3.210000098E-1,4.768050194E0,5.044040040E0
2.552176617E0,1.230000019E0,7.129500508E-1,4.843950272E0,5.048272185E0
2.554139804E0,7.699500322E-1,1.939050078E0,4.806000233E0,5.239310689E0
2.556103087E0,8.100000024E-2,3.204000235E0,4.959000111E0,5.904562693E0
2.558066341E0,-6.850500107E-1,4.431000233E0,5.266050339E0,6.916237615E0
2.560030244E0,-1.297950029E0,5.772000313E0,5.496000290E0,8.075065391E0
2.561993956E0,-2.140950203E0,6.844950199E0,5.725950241E0,9.177337150E0
2.563958024E0,-2.908050060E0,7.687950134E0,5.764050484E0,1.003920367E1
2.565921975E0,-3.751050234E0,8.455050468E0,5.572050095E0,1.079842574E1
2.567886029E0,-4.479000092E0,9.030000687E0,5.841000080E0,1.164987709E1
2.569850052E0,-5.245950222E0,9.604950905E0,5.686950207E0,1.233355092E1
2.571814004E0,-5.821050167E0,9.835050583E0,5.878950119E0,1.285203873E1
2.573777977E0,-6.166050434E0,9.949950218E0,5.994000435E0,1.315103526E1
2.575741671E0,-6.702000141E0,1.010295010E1,6.147000313E0,1.359308719E1
2.577705444E0,-7.047000408E0,1.010295010E1,6.339000225E0,1.385325735E1
2.579669301E0,-7.468950272E0,1.014105034E1,6.339000225E0,1.409996610E1
2.581633134E0,-7.813950539E0,1.018005085E1,6.301050186E0,1.429666016E1
2.583597298E0,-8.121000290E0,1.010295010E1,6.492000103E0,1.449711391E1
2.585561365E0,-8.274000168E0,1.021800041E1,6.837000370E0,1.481928424E1
2.587525405E0,-8.350950241E0,1.021800041E1,7.144050121E0,1.500611057E1
2.589489449E0,-8.274000168E0,1.014105034E1,7.219950199E0,1.494749683E1
2.591453396E0,-8.236050606E0,1.014105034E1,7.564950466E0,1.509642034E1
2.593417372E0,-8.427000046E0,1.029495049E1,7.374000549E0,1.521105583E1
2.595381555E0,-7.966950417E0,9.949950218E0,7.527000427E0,1.480302482E1
2.597345677E0,-7.699050426E0,9.796050072E0,7.411950588E0,1.449741308E1
2.599309522E0,-7.392000198E0,9.565950394E0,7.066950321E0,1.400324465E1
2.601273449E0,-6.664050102E0,8.991000175E0,7.756950378E0,1.361682515E1
2.603237460E0,-6.127950191E0,8.608050346E0,8.254950523E0,1.340874761E1
2.605201447E0,-5.935950279E0,8.340000153E0,8.677050591E0,1.341947522E1
2.607165945E0,-5.553000450E0,7.650000572E0,9.597000122E0,1.347073621E1
2.609130293E0,-5.476050377E0,6.922050476E0,1.055505085E1,1.375903372E1
2.611094599E0,-5.898000240E0,6.538950443E0,1.116795063E1,1.422207443E1
2.613058914E0,-5.935950279E0,5.848950386E0,1.197300053E1,1.458761351E1
2.615023040E0,-5.935950279E0,5.350050449E0,1.162800026E1,1.410917912E1
2.616987222E0,-5.821050167E0,4.813950062E0,1.178100014E1,1.399466700E1
2.618951191E0,-5.553000450E0,4.239000320E0,1.139805031E1,1.336863825E1
2.620915222E0,-5.629050255E0,3.894000292E0,1.047795010E1,1.251546576E1
2.622878871E0,-5.668050289E0,3.702000141E0,9.405000687E0,1.158816798E1
2.624842621E0,-5.476050377E0,3.204000235E0,8.983950615E0,1.099836869E1
2.626806483E0,-5.361000061E0,2.974050045E0,8.485050201E0,1.046811216E1
2.628770312E0,-5.437950134E0,3.012000084E0,7.795050144E0,9.970268448E0
2.630734027E0,-5.361000061E0,2.782050133E0,7.374000549E0,9.531841831E0
2.632697775E0,-5.553000450E0,2.896950245E0,6.684000492E0,9.159912516E0
2.634661952E0,-5.821050167E0,2.974050045E0,5.841000080E0,8.766235261E0
2.636626004E0,-5.821050167E0,2.859000206E0,4.882050037E0,8.117445398E0
2.638589681E0,-5.974050522E0,2.859000206E0,4.384050369E0,7.942484464E0
2.640553468E0,-6.166050434E0,2.706000090E0,3.618000269E0,7.644118025E0
2.642517144E0,-6.396000385E0,2.514000177E0,3.043050051E0,7.515927849E0
2.644480852E0,-6.549000263E0,2.245950222E0,2.773950100E0,7.458451314E0
2.646444939E0,-6.664050102E0,1.978050113E0,2.314950228E0,7.326748294E0
2.648408888E0,-6.778950214E0,1.518000126E0,1.893000126E0,7.200134712E0
2.650372852E0,-6.741000175E0,1.173000097E0,1.663050056E0,7.041501834E0
2.652336811E0,-6.702000141E0,7.510500550E-1,1.548000097E0,6.919334244E0
2.654301359E0,-6.433950424E0,-1.500000060E-2,1.510050058E0,6.608796732E0
2.656265734E0,-6.396000385E0,-3.210000098E-1,1.240950108E0,6.523175538E0
2.658229381E0,-6.433950424E0,-7.429500222E-1,9.349500537E-1,6.543838659E0
2.660193223E0,-6.511050224E0,-1.126049995E0,5.899500251E-1,6.633988593E0
2.662158150E0,-6.586950302E0,-1.624050021E0,3.220500052E-1,6.791845770E0
2.664122759E0,-6.625950336E0,-2.046000004E0,-9.900000691E-2,6.935353984E0
2.666086791E0,-6.472050190E0,-2.351999998E0,-2.910000086E-1,6.892315914E0
2.668050992E0,-6.088950157E0,-2.812050104E0,-5.970000029E-1,6.733449993E0
2.670014636E0,-5.935950279E0,-3.387000084E0,-9.040500522E-1,6.893807495E0
2.671978416E0,-5.821050167E0,-3.694050074E0,-1.326000094E0,7.020605903E0
2.673942453E0,-5.935950279E0,-3.886050224E0,-2.206950188E0,7.430176391E0
2.675906414E0,-5.935950279E0,-4.000950336E0,-2.743950129E0,7.666314083E0
2.677870421E0,-5.898000240E0,-4.153950214E0,-3.319050074E0,7.940894321E0
2.679834414E0,-5.859000206E0,-4.345950127E0,-3.817050219E0,8.233166966E0
2.681797861E0,-6.013050079E0,-4.422000408E0,-4.545000076E0,8.738872042E0
2.683761478E0,-5.974050522E0,-4.729050159E0,-5.311950207E0,9.288165053E0
2.685725362E0,-5.821050167E0,-5.304000378E0,-6.423000336E0,1.016228214E1
2.687689168E0,-5.476050377E0,-5.955000401E0,-7.342950344E0,1.092556988E1
2.689652842E0,-5.131050110E0,-6.798000336E0,-8.761050224E0,1.221869407E1
2.691616555E0,-4.671000004E0,-7.717950344E0,-1.040895081E1,1.377429691E1
2.693580443E0,-4.096050262E0,-8.868000031E0,-1.175100040E1,1.528087245E1
2.695544265E0,-3.406050205E0,-9.787950516E0,-1.297695065E1,1.660742007E1
2.697507981E0,-2.601000071E0,-1.055505085E1,-1.378200054E1,1.755328570E1
2.699471729E0,-1.758000135E0,-1.105305099E1,-1.431900024E1,1.817399980E1
2.701435591E0,-1.106999993E0,-1.158900070E1,-1.535295105E1,1.926767999E1
2.703399419E0,-4.930500090E-1,-1.197300053E1,-1.604295158E1,2.002428864E1
2.705364169E0,8.100000024E-2,-1.216395092E1,-1.631204987E1,2.034824891E1
2.707328649E0,1.039050102E0,-1.224105072E1,-1.638795090E1,2.048140333E1
2.709292703E0,1.729050040E0,-1.224105072E1,-1.681005096E1,2.086649827E1
2.711256882E0,2.188950062E0,-1.204905033E1,-1.677195168E1,2.076702866E1
2.713220535E0,2.610000134E0,-1.158900070E1,-1.588995075E1,1.983954568E1
2.715184343E0,3.070050240E0,-1.109100056E1,-1.531500053E1,1.915684586E1
2.717148345E0,3.453000069E0,-1.063095093E1,-1.477905083E1,1.852999381E1
2.719112279E0,3.568050146E0,-1.013295078E1,-1.366695023E1,1.738370507E1
2.721075976E0,3.874950171E0,-9.595950127E0,-1.244100094E1,1.618258329E1
2.723039743E0,4.297049999E0,-9.021000862E0,-1.140600014E1,1.516377045E1
2.725003422E0,4.335000038E0,-8.407950401E0,-9.949050903E0,1.372841831E1
2.726967127E0,4.297049999E0,-7.948050499E0,-8.530950546E0,1.242631332E1
2.728931191E0,4.258049965E0,-7.297050476E0,-6.921000481E0,1.092145516E1
2.730895139E0,3.990000248E0,-6.645000458E0,-4.621950150E0,9.024331346E0
2.732858203E0,3.721950293E0,-5.955000401E0,-2.130000114E0,7.338381582E0
2.734821526E0,3.376950264E0,-5.188950062E0,4.750500321E-1,6.209240562E0
2.736785145E0,3.184950113E0,-4.269000053E0,3.234000206E0,6.231133606E0
2.738748678E0,3.031950235E0,-3.541050196E0,6.301050186E0,7.838047727E0
2.740712538E0,2.610000134E0,-2.659050226E0,9.098999977E0,9.832316583E0
2.742676298E0,2.188950062E0,-2.046000004E0,1.116795063E1,1.156290360E1
2.744639980E0,2.149950027E0,-1.816050053E0,1.166595078E1,1.200061375E1
2.746603685E0,1.882050037E0,-1.701000094E0,1.147500038E1,1.175206992E1
2.748567554E0,1.192050099E0,-1.816050053E0,1.074705029E1,1.096440199E1
2.750531375E0,7.320000529E-1,-2.161050081E0,9.787950516E0,1.005036998E1
2.752494334E0,4.260000288E-1,-2.697000027E0,8.677050591E0,9.096509887E0
2.754457540E0,1.960500032E-1,-3.579000235E0,7.527000427E0,8.336870739E0
2.756421540E0,-1.099500060E-1,-4.690050125E0,6.301050186E0,7.855691735E0
2.758385307E0,-4.549500346E-1,-6.262050152E0,5.151000023E0,8.121148495E0
2.760349347E0,-8.770500422E-1,-7.833000183E0,4.461000443E0,9.056800406E0
2.762313307E0,-1.336950064E0,-9.442950249E0,4.729050159E0,1.064521772E1
2.764277494E0,-1.987950087E0,-1.135905075E1,5.878950119E0,1.294380292E1
2.766241615E0,-3.138000250E0,-1.392705059E1,8.983950615E0,1.686775481E1
2.768205595E0,-4.747950077E0,-1.699394989E1,1.239495087E1,2.156321335E1
2.770169617E0,-7.009050369E0,-1.994505119E1,1.538400078E1,2.614573262E1
2.772133613E0,-9.844950676E0,-2.293395042E1,1.691700172E1,3.015085543E1
2.774097617E0,-1.275795078E1,-2.442900085E1,1.503900051E1,3.139606547E1
2.776061787E0,-1.555605030E1,-2.481195068E1,1.036305046E1,3.106471330E1
2.778025914E0,-1.804695129E1,-2.531100082E1,8.101950645E0,3.212445825E1
2.779990207E0,-2.019405174E1,-2.554095078E1,7.719000340E0,3.346226021E1
2.781954452E0,-2.195700073E1,-2.577105141E1,7.374000549E0,3.465014944E1
2.783918996E0,-2.341305161E1,-2.588595200E1,5.533950329E0,3.533946947E1
2.785883452E0,-2.444805145E1,-2.573205185E1,9.195000678E-2,3.549442445E1
2.787847356E0,-2.295300102E1,-2.373900032E1,-1.369500011E-1,3.302119240E1
2.789811435E0,-1.927395058E1,-2.059605026E1,2.070000172E-1,2.820860341E1
2.791775556E0,-1.555605030E1,-1.749195099E1,-6.105000153E-2,2.340860477E1
2.793739664E0,-1.241295052E1,-1.473195076E1,-4.060500264E-1,1.926853887E1
2.795703511E0,-9.999000549E0,-1.247100067E1,-1.096050024E0,1.602208461E1
2.797667435E0,-8.158950806E0,-1.082295036E1,-2.169000149E0,1.372622652E1
2.799631402E0,-6.741000175E0,-9.673050880E0,-3.127050161E0,1.219784569E1
2.801595356E0,-5.706000328E0,-8.944950104E0,-4.162050247E0,1.139707131E1
2.803559364E0,-5.092950344E0,-8.599950790E0,-5.197050095E0,1.126528413E1
2.805523356E0,-4.786050320E0,-8.562000275E0,-5.925000191E0,1.145948313E1
2.807487403E0,-4.671000004E0,-8.752950668E0,-6.154950142E0,1.167543565E1
2.809451433E0,-4.633050442E0,-9.289950371E0,-5.695050240E0,1.184068966E1
2.811415369E0,-4.786050320E0,-1.005600071E1,-4.852050304E0,1.214791423E1
2.813379343E0,-4.863000393E0,-1.101495075E1,-3.049950123E0,1.242095442E1
2.815342086E0,-5.053950310E0,-1.197300053E1,-7.120500207E-1,1.301545891E1
2.817305189E0,-5.245950222E0,-1.296900082E1,1.510050058E0,1.407107768E1
2.819269342E0,-5.361000061E0,-1.388895035E1,3.463950157E0,1.528535947E1
2.821233187E0,-5.361000061E0,-1.477095032E1,5.649000168E0,1.669827829E1
2.823196919E0,-5.245950222E0,-1.572900105E1,7.834050179E0,1.833831535E1
2.825160670E0,-4.594050407E0,-1.664895058E1,9.712050438E0,1.981455975E1
2.827124486E0,-4.134000301E0,-1.756905174E1,1.166595078E1,2.149083398E1
2.829088283E0,-3.445050240E0,-1.845000076E1,1.362105083E1,2.319059993E1
2.831051823E0,-2.677950144E0,-1.925505066E1,1.500105095E1,2.455524226E1
2.833015439E0,-1.758000135E0,-2.002200127E1,1.561395073E1,2.545125845E1
2.834979260E0,-9.919500351E-1,-2.074995041E1,1.561395073E1,2.598730198E1
2.836943034E0,4.050000105E-3,-2.132505035E1,1.538400078E1,2.629496661E1
2.838907659E0,1.306950092E0,-2.186100197E1,1.534605026E1,2.674159278E1
2.840872034E0,2.610000134E0,-2.232105064E1,1.546095085E1,2.727787389E1
2.842835745E0,3.798000097E0,-2.293395042E1,1.546095085E1,2.791830740E1
2.844799651E0,4.909950256E0,-2.343300056E1,1.572900105E1,2.864637151E1
2.846763317E0,5.905950069E0,-2.381595039E1,1.618905067E1,2.939668521E1
2.848727046E0,6.903000355E0,-2.419905090E1,1.676399994E1,3.023701659E1
2.850690732E0,7.938000202E0,-2.462100029E1,1.760700035E1,3.129236271E1
2.852654430E0,8.857950211E0,-2.492700195E1,1.867995071E1,3.238455291E1
2.854617806E0,9.547050476E0,-2.519595146E1,2.005995178E1,3.359142463E1
2.856581276E0,1.027605057E1,-2.550195122E1,2.128695107E1,3.477184230E1
2.858544967E0,1.062105083E1,-2.580900192E1,2.220705032E1,3.566601162E1
2.860508620E0,1.058205032E1,-2.603895187E1,2.197695160E1,3.567903033E1
2.862472499E0,1.027605057E1,-2.619195175E1,2.055795097E1,3.484601699E1
2.864436312E0,9.892050743E0,-2.603895187E1,1.883400154E1,3.362438545E1
2.866400164E0,9.508950233E0,-2.573205185E1,1.726200104E1,3.241196240E1
2.868364005E0,9.279000282E0,-2.573205185E1,1.549905109E1,3.143976659E1
2.870327852E0,9.202950478E0,-2.638395119E1,1.339095020E1,3.098587945E1
2.872291697E0,9.433050156E0,-2.715000153E1,1.135995007E1,3.090555749E1
2.874255499E0,9.777000427E0,-2.764905167E1,1.047795010E1,3.114237039E1
2.876219314E0,1.016100025E1,-2.795505142E1,9.442950249E0,3.120737310E1
2.878182850E0,1.062105083E1,-2.787900162E1,8.409000397E0,3.099607620E1
2.880146468E0,1.108095074E1,-2.737995148E1,7.450050354E0,3.046231216E1
2.882110158E0,1.142595100E1,-2.657595062E1,6.454050541E0,2.963930290E1
2.884073837E0,1.161705017E1,-2.565600204E1,5.227050304E0,2.864451694E1
2.886037712E0,1.173195076E1,-2.477400208E1,3.808950186E0,2.767486132E1
2.888001529E0,1.169400024E1,-2.404605103E1,1.777950048E0,2.679782301E1
2.889966056E0,1.203900051E1,-2.343300056E1,1.300500035E-1,2.634501778E1
2.891930375E0,1.230705070E1,-2.293395042E1,-2.053950071E0,2.610839501E1
2.893894166E0,1.238400078E1,-2.239800072E1,-4.698000431E0,2.602124362E1
2.895858094E0,1.230705070E1,-2.201505089E1,-7.458000183E0,2.630109749E1
2.897821791E0,1.215405083E1,-2.163105011E1,-1.102200031E1,2.714972875E1
2.899785555E0,1.173195076E1,-2.124795151E1,-1.474005032E1,2.839688707E1
2.901749010E0,1.081200027E1,-2.113305092E1,-1.795995140E1,2.976684473E1
2.903712555E0,9.739050865E0,-2.124795151E1,-2.022105026E1,3.090655964E1
2.905676092E0,8.551050186E0,-2.117100143E1,-2.167800140E1,3.148440099E1
2.907639632E0,7.171050549E0,-2.101800156E1,-2.225205040E1,3.143778145E1
2.909603575E0,5.638050079E0,-2.071095085E1,-2.221395111E1,3.088997763E1
2.911567399E0,4.258049965E0,-2.021295166E1,-2.152395058E1,2.983244631E1
2.913531025E0,2.839950085E0,-1.960005188E1,-2.022105026E1,2.830403194E1
2.915494709E0,1.077000022E0,-1.879500008E1,-1.826595116E1,2.623083927E1
2.917457648E0,-1.375050068E0,-1.791300011E1,-1.646505165E1,2.436933034E1
2.919420829E0,-4.057950020E0,-1.722405052E1,-1.516200066E1,2.330281396E1
2.921384292E0,-6.396000385E0,-1.634205055E1,-1.405005074E1,2.248055522E1
2.923347673E0,-8.427000046E0,-1.569000053E1,-1.366695023E1,2.244940924E1
2.925311599E0,-1.011405087E1,-1.526895046E1,-1.312995052E1,2.253509427E1
2.927275365E0,-1.145505047E1,-1.480905056E1,-1.228695011E1,2.239409080E1
2.929238996E0,-1.249005032E1,-1.465605068E1,-1.075395012E1,2.205558028E1
2.931202670E0,-1.363995075E1,-1.442595100E1,-1.048605061E1,2.245247372E1
2.933166050E0,-1.429095078E1,-1.457895088E1,-1.079295063E1,2.309252836E1
2.935129516E0,-1.463595104E1,-1.496205044E1,-1.167405033E1,2.396575614E1
2.937093066E0,-1.524900055E1,-1.492395115E1,-1.194195080E1,2.445130926E1
2.939056591E0,-1.524900055E1,-1.469400024E1,-1.228695011E1,2.448294925E1
2.941020627E0,-1.494300079E1,-1.450200081E1,-1.309200096E1,2.459678413E1
2.942984514E0,-1.440600109E1,-1.446405029E1,-1.424205112E1,2.489131653E1
2.944948039E0,-1.337100029E1,-1.465605068E1,-1.477905083E1,2.473871083E1
2.946911670E0,-1.229805088E1,-1.465605068E1,-1.535295105E1,2.453069471E1
2.948875327E0,-1.137795067E1,-1.469400024E1,-1.566000080E1,2.430240790E1
2.950838976E0,-1.015200043E1,-1.484700108E1,-1.566000080E1,2.384810640E1
2.952802662E0,-8.925000191E0,-1.492395115E1,-1.573695087E1,2.345275185E1
2.954766347E0,-7.315950394E0,-1.515405083E1,-1.588995075E1,2.314430646E1
2.956729726E0,-5.169000149E0,-1.546095085E1,-1.577505112E1,2.268505679E1
2.958693195E0,-2.755050182E0,-1.580505085E1,-1.558305073E1,2.236562997E1
2.960658006E0,-3.400500119E-1,-1.622700119E1,-1.527705097E1,2.228944791E1
2.962622424E0,1.767000079E0,-1.649505043E1,-1.504695034E1,2.239686792E1
2.964585783E0,3.837000132E0,-1.657200050E1,-1.493205070E1,2.263448495E1
2.966549473E0,5.638050079E0,-1.649505043E1,-1.477905083E1,2.285376645E1
2.968513300E0,7.210050106E0,-1.634205055E1,-1.470195103E1,2.313427766E1
2.970477087E0,8.665950775E0,-1.611194992E1,-1.481700039E1,2.354224147E1
2.972440988E0,9.931050301E0,-1.576695061E1,-1.523895073E1,2.407172846E1
2.974404856E0,1.085100079E1,-1.519200039E1,-1.577505112E1,2.444163112E1
2.976368178E0,1.173195076E1,-1.442595100E1,-1.627305031E1,2.470949003E1
2.978331646E0,1.249905014E1,-1.373595047E1,-1.650300026E1,2.484454884E1
2.980295511E0,1.311195087E1,-1.293105030E1,-1.665705109E1,2.483128407E1
2.982259260E0,1.384005070E1,-1.231800079E1,-1.661805153E1,2.488854724E1
2.984223168E0,1.460700035E1,-1.185795021E1,-1.642695045E1,2.497639173E1
2.986187029E0,1.537305069E1,-1.143600082E1,-1.615800095E1,2.506379454E1
2.988150869E0,1.617794991E1,-1.113000011E1,-1.558305073E1,2.506859461E1
2.990114718E0,1.698300171E1,-1.093800068E1,-1.481700039E1,2.505205992E1
2.992078384E0,1.774995041E1,-1.082295036E1,-1.381995106E1,2.496373452E1
2.994042103E0,1.836300087E1,-1.070805073E1,-1.255605030E1,2.468838898E1
2.996005791E0,1.886100006E1,-1.051605034E1,-1.148205090E1,2.445735331E1
2.997969488E0,1.932105064E1,-1.044000053E1,-1.006395054E1,2.415739451E1
2.999933160E0,1.966605186E1,-1.028595066E1,-8.340000153E0,2.370885867E1
3.001896853E0,1.966605186E1,-1.005600071E1,-6.040050507E0,2.289888548E1
3.003860545E0,1.947405052E1,-9.787950516E0,-3.510000229E0,2.207629318E1
3.005824238E0,1.901400185E1,-9.558000565E0,-1.287000060E0,2.132003776E1
3.007787344E0,1.863105011E1,-9.366000175E0,7.050000429E-1,2.086468338E1
3.009750622E0,1.821000099E1,-9.175050735E0,2.238000154E0,2.051327221E1
3.011714225E0,1.782600021E1,-8.752950668E0,3.043050051E0,2.009080841E1
3.013677750E0,1.698300171E1,-8.446949959E0,4.498950005E0,1.949394423E1
3.015641832E0,1.610205078E1,-7.756950378E0,5.802000046E0,1.879120866E1
3.017605750E0,1.537305069E1,-7.027950287E0,7.029000282E0,1.830654576E1
3.019569540E0,1.472205067E1,-6.184950352E0,8.140049934E0,1.792352643E1
3.021533368E0,1.403205109E1,-5.265000343E0,9.060000420E0,1.751291792E1
3.023496657E0,1.345695019E1,-4.422000408E0,9.481950760E0,1.704555620E1
3.025460118E0,1.280505085E1,-3.502050161E0,9.750000000E0,1.647107108E1
3.027423714E0,1.211505032E1,-2.659050226E0,1.005705070E1,1.596838317E1
3.029387270E0,1.165605068E1,-1.816050053E0,1.005705070E1,1.550180068E1
3.031350626E0,1.138695049E1,-1.126049995E0,9.942000389E0,1.515829812E1
3.033314041E0,1.131105042E1,-5.509500504E-1,9.787950516E0,1.496821241E1
3.035276650E0,1.100400066E1,-1.290000081E-1,9.405000687E0,1.447614277E1
3.037239530E0,1.065900040E1,1.759500057E-1,8.599950790E0,1.369687561E1
3.039202775E0,1.031400013E1,5.209500194E-1,7.872000217E0,1.298531382E1
3.041165913E0,9.816000938E0,9.810000658E-1,7.297050476E0,1.227041895E1
3.043129520E0,9.586050034E0,1.326000094E0,5.878950119E0,1.132310408E1
3.045092990E0,9.318000793E0,1.747950077E0,3.426000118E0,1.008057266E1
3.047057622E0,9.163949966E0,2.053950071E0,2.830500007E-1,9.395573808E0
3.049021913E0,9.049050331E0,2.361000061E0,-2.359950066E0,9.645154094E0
3.050985323E0,8.896050453E0,2.437050104E0,-4.276950359E0,1.016716437E1
3.052948992E0,8.973000526E0,2.629050016E0,-5.235000134E0,1.071596327E1
3.054912553E0,9.202950478E0,2.667000055E0,-5.962950230E0,1.128556433E1
3.056876146E0,9.318000793E0,2.821050167E0,-5.772000313E0,1.131810278E1
3.058839854E0,9.318000793E0,3.012000084E0,-5.158050060E0,1.106809666E1
3.060803529E0,9.163949966E0,3.241950035E0,-4.353000164E0,1.065067272E1
3.062767224E0,8.896050453E0,3.396000147E0,-3.433950186E0,1.012247719E1
3.064730913E0,8.244000435E0,3.778950214E0,-2.782050133E0,9.485979698E0
3.066694606E0,7.324050426E0,4.123950005E0,-2.475000143E0,8.762094727E0
3.068658298E0,5.868000507E0,4.354050159E0,-2.322000027E0,7.666998557E0
3.070621761E0,4.182000160E0,4.239000320E0,-2.284050226E0,6.377706053E0
3.072585295E0,2.725050211E0,3.778950214E0,-2.475000143E0,5.275603196E0
3.074548158E0,1.422000051E0,3.204000235E0,-2.704950094E0,4.427692024E0
3.076511218E0,3.870000243E-1,2.437050104E0,-3.127050161E0,3.983393646E0
3.078475017E0,-4.930500090E-1,1.555950046E0,-3.664050102E0,4.011152204E0
3.080438600E0,-1.068000078E0,5.980500579E-1,-4.123950005E0,4.301773085E0
3.082403343E0,-1.336950064E0,-3.979500234E-1,-4.736999989E0,4.938113869E0
3.084367749E0,-1.413000107E0,-1.318050027E0,-5.350050449E0,5.688309502E0
3.086331320E0,-1.605000019E0,-2.083950043E0,-5.772000313E0,6.343095495E0
3.088295136E0,-1.720050097E0,-2.812050104E0,-6.270000458E0,7.083721046E0
3.090258986E0,-1.795950055E0,-3.655950069E0,-6.730050087E0,7.866700813E0
3.092222826E0,-1.911000133E0,-4.575000286E0,-7.113000393E0,8.670485783E0
3.094186359E0,-1.950000048E0,-5.341950417E0,-6.960000515E0,8.987799598E0
3.096149982E0,-2.103000164E0,-6.031950474E0,-6.652950287E0,9.223274024E0
3.098113640E0,-2.103000164E0,-6.798000336E0,-5.848050117E0,9.210597615E0
3.100077288E0,-2.065050125E0,-7.564950466E0,-5.005050182E0,9.302872401E0
3.102041033E0,-1.950000048E0,-8.332050323E0,-3.970050097E0,9.433284717E0
3.104004749E0,-1.489950061E0,-9.060000420E0,-2.629050016E0,9.550678655E0
3.105968272E0,-1.106999993E0,-9.865050316E0,-1.671000123E0,1.006662347E1
3.107931842E0,-9.919500351E-1,-1.074600029E1,-8.659500480E-1,1.082637320E1
3.109894970E0,-7.620000243E-1,-1.162800026E1,9.195000678E-2,1.165330378E1
3.111858227E0,-6.850500107E-1,-1.258605099E1,9.349500537E-1,1.263930792E1
3.113821993E0,-5.320500135E-1,-1.354395103E1,1.510050058E0,1.363825275E1
3.115785610E0,-7.200000435E-2,-1.469400024E1,1.855050087E0,1.481080815E1
3.117749868E0,5.410500169E-1,-1.572900105E1,2.851050138E0,1.599445829E1
3.119713961E0,1.039050102E0,-1.687905121E1,3.388050079E0,1.724705419E1
3.121677766E0,1.345050097E0,-1.810500145E1,2.812950134E0,1.837152486E1
3.123641656E0,1.651950121E0,-1.929300117E1,2.467950106E0,1.952023594E1
3.125605674E0,2.035050154E0,-2.055795097E1,1.701000094E0,2.072834240E1
3.127569654E0,2.419050217E0,-2.190000153E1,7.429500222E-1,2.204572171E1
3.129534138E0,2.649000168E0,-2.335605049E1,-2.520000041E-1,2.350714360E1
3.131498485E0,2.802000046E0,-2.508105087E1,-7.890000343E-1,2.524941263E1
3.133462246E0,2.917050123E0,-2.715000153E1,-1.249050021E0,2.733481096E1
3.135426179E0,2.878050089E0,-2.933505058E1,-1.708950043E0,2.952539374E1
3.137390055E0,2.610000134E0,-3.163500214E1,-1.786050081E0,3.179269469E1
3.139353948E0,2.265000105E0,-3.416400146E1,-1.287000060E0,3.426318127E1
3.141317741E0,1.729050040E0,-3.665595245E1,-7.890000343E-1,3.670519017E1
3.143281564E0,1.114950061E0,-3.914700317E1,-4.440000355E-1,3.916539426E1
3.145243431E0,1.960500032E-1,-4.175295258E1,-6.105000153E-2,4.175345748E1
3.147205871E0,-5.700000525E-1,-4.416795349E1,1.050000072E0,4.418410931E1
3.149169597E0,-9.919500351E-1,-4.646805191E1,2.085000038E0,4.652538058E1
3.151132946E0,-1.911000133E0,-4.803900146E1,3.771000147E0,4.822466200E1
3.153096401E0,-3.253050089E0,-4.892100143E1,5.151000023E0,4.929887947E1
3.155059811E0,-4.518000126E0,-4.911195374E1,6.262050152E0,4.971528535E1
3.157023507E0,-5.935950279E0,-4.869105148E1,6.376950264E0,4.946432548E1
3.158987119E0,-6.817050457E0,-4.754100037E1,5.496000290E0,4.834071692E1
3.160950871E0,-8.809950829E0,-4.639095306E1,5.074050426E0,4.749191244E1
3.162914581E0,-9.577050209E0,-4.570095062E1,6.568950176E0,4.715345040E1
3.164878207E0,-8.158950806E0,-4.470405197E1,8.140049934E0,4.616580070E1
3.166841871E0,-5.898000240E0,-4.416795349E1,9.673050880E0,4.559783367E1
3.168805612E0,-3.100050211E0,-4.386105347E1,8.332050323E0,4.475293717E1
3.170769331E0,-3.299999982E-2,-4.347795105E1,5.227050304E0,4.379104214E1
3.172734416E0,1.996950150E0,-4.340100098E1,1.356000066E0,4.346807371E1
3.174699100E0,3.529950142E0,-4.332495117E1,-2.514000177E0,4.354115454E1
3.176662294E0,4.642050266E0,-4.297995377E1,-6.615000248E0,4.373309141E1
3.178625934E0,4.756950378E0,-4.255800247E1,-1.071600056E1,4.414345726E1
3.180589815E0,4.372950077E0,-4.221300125E1,-1.385895061E1,4.464449215E1
3.182553625E0,2.802000046E0,-4.159995270E1,-1.370505047E1,4.388890152E1
3.184516352E0,1.269000053E0,-4.083300018E1,-1.282395077E1,4.281819681E1
3.186479396E0,5.410500169E-1,-4.014300156E1,-1.163595009E1,4.179890721E1
3.188443032E0,4.200000316E-2,-3.930000305E1,-1.056300068E1,4.069482752E1
3.190406485E0,-1.260000110E0,-3.780600357E1,-8.455050468E0,3.876041002E1
3.192370083E0,-2.677950144E0,-3.646395111E1,-6.423000336E0,3.712204306E1
3.194333639E0,-3.636000156E0,-3.508395004E1,-4.813050270E0,3.559872892E1
3.196297309E0,-3.865950108E0,-3.358905029E1,-2.935050249E0,3.393794911E1
3.198260946E0,-4.134000301E0,-3.201795197E1,-1.479000092E0,3.231759038E1
3.200223594E0,-3.675000191E0,-3.060000229E1,5.295000225E-2,3.081993787E1
3.202186545E0,-3.061050177E0,-2.906700134E1,1.510050058E0,2.926671909E1
3.204150183E0,-2.908050060E0,-2.737995148E1,2.314950228E0,2.763109648E1
3.206113620E0,-2.793000221E0,-2.584695053E1,2.773950100E0,2.614498998E1
3.208077356E0,-3.330000162E0,-2.396895027E1,2.085000038E0,2.428881848E1
3.210041004E0,-4.134000301E0,-2.193795013E1,1.893000126E0,2.240417515E1
3.212004480E0,-4.441050053E0,-1.998300171E1,1.969950080E0,2.056511576E1
3.213968006E0,-3.790050268E0,-1.829700089E1,2.314950228E0,1.882826909E1
3.215931546E0,-2.295000076E0,-1.703205109E1,3.655950069E0,1.757053672E1
3.217895081E0,-3.780000210E-1,-1.645695114E1,5.035950184E0,1.721438117E1
3.219859522E0,1.345050097E0,-1.626495171E1,5.725950241E0,1.729578908E1
3.221823697E0,2.494950056E0,-1.557600117E1,6.262050152E0,1.697203171E1
3.223787321E0,3.031950235E0,-1.427205086E1,6.837000370E0,1.611299885E1
3.225751097E0,3.300000191E0,-1.281600094E1,6.913950443E0,1.493126224E1
3.227714640E0,3.568050146E0,-1.158900070E1,7.029000282E0,1.401580408E1
3.229678251E0,3.874950171E0,-1.074600029E1,7.258950233E0,1.353455280E1
3.231642272E0,4.182000160E0,-9.903000832E0,7.527000427E0,1.312304409E1
3.233606172E0,4.450050354E0,-8.983050346E0,7.374000549E0,1.244483932E1
3.235569880E0,4.488000393E0,-7.987050533E0,7.029000282E0,1.154737930E1
3.237533641E0,4.680000305E0,-7.182000160E0,6.684000492E0,1.087011461E1
3.239497636E0,4.795050144E0,-6.262050152E0,6.109050274E0,9.976285543E0
3.241461562E0,4.872000217E0,-5.380050182E0,6.109050274E0,9.486928973E0
3.243425080E0,5.101050377E0,-4.575000286E0,6.454050541E0,9.413081905E0
3.245388718E0,4.872000217E0,-3.655950069E0,6.339000225E0,8.791204746E0
3.247352442E0,5.025000095E0,-2.965950251E0,6.454050541E0,8.700704295E0
3.249316124E0,5.062950134E0,-2.391000032E0,6.799050331E0,8.807805097E0
3.251279818E0,5.062950134E0,-1.701000094E0,7.144050121E0,8.919883268E0
3.253243509E0,5.140050411E0,-1.164000034E0,7.029000282E0,8.785320670E0
3.255207517E0,5.025000095E0,-6.660000086E-1,7.029000282E0,8.666084868E0
3.257171432E0,4.872000217E0,-1.290000081E-1,7.297050476E0,8.774962836E0
3.259134245E0,4.564949989E0,3.289500177E-1,7.219950199E0,8.548371623E0
3.261097371E0,4.143000126E0,1.096050024E0,7.182000160E0,8.363426451E0
3.263061520E0,3.223050117E0,2.092950106E0,7.105050564E0,8.077761801E0
3.265025369E0,2.457000017E0,3.204000235E0,7.105050564E0,8.172160675E0
3.266988630E0,1.422000051E0,4.276950359E0,7.144050121E0,8.447001874E0
3.268952063E0,2.719500065E-1,5.158950329E0,7.374000549E0,9.003588696E0
3.270915780E0,-1.030050039E0,6.040050507E0,7.642050266E0,9.795108242E0
3.272879427E0,-2.179949999E0,6.807000160E0,8.025000572E0,1.074653746E1
3.274843488E0,-3.406050205E0,7.650000572E0,8.101950645E0,1.165183638E1
3.276807427E0,-4.479000092E0,8.263050079E0,8.677050591E0,1.279181947E1
3.278771438E0,-5.514000416E0,8.761950493E0,9.136950493E0,1.380796297E1
3.280735427E0,-6.817050457E0,9.298050880E0,9.289950371E0,1.480638730E1
3.282699096E0,-7.966950417E0,9.643050194E0,9.634950638E0,1.578901484E1
3.284662872E0,-8.925000191E0,9.910950661E0,9.903000832E0,1.661180294E1
3.286626909E0,-1.003695011E1,1.025595093E1,9.597000122E0,1.726346745E1
