"Time (s)","Acceleration x (m/s^2)","Acceleration y (m/s^2)","Acceleration z (m/s^2)","Absolute acceleration (m/s^2)"
3.378807500E-2,1.100400066E1,-6.280500293E-1,-3.702000141E0,1.162700660E1
3.575031200E-2,1.081200027E1,-4.360500276E-1,-3.739950180E0,1.144887405E1
3.771515200E-2,1.027605057E1,-2.059500068E-1,-2.206950188E0,1.051238602E1
3.967743100E-2,9.508950233E0,2.140500098E-1,-7.510500550E-1,9.540965786E0
4.164046000E-2,9.318000793E0,7.129500508E-1,1.300500035E-1,9.346140892E0
4.360438500E-2,9.355950356E0,9.810000658E-1,-5.970000029E-1,9.426164500E0
4.556805800E-2,9.279000282E0,1.018950105E0,-1.018950105E0,9.390227094E0
4.753179900E-2,9.049050331E0,1.057950020E0,-9.040500522E-1,9.155428807E0
4.949552000E-2,7.899000168E0,8.659500480E-1,-7.510500550E-1,7.981738490E0
5.145848700E-2,6.634950161E0,5.209500194E-1,-7.510500550E-1,6.697613661E0
5.342167500E-2,5.254950047E0,2.140500098E-1,4.750500321E-1,5.280718695E0
5.538615000E-2,4.488000393E0,-2.059500068E-1,6.280500293E-1,4.536409348E0
5.735026500E-2,3.682950258E0,-6.660000086E-1,6.280500293E-1,3.795013235E0
5.931402100E-2,2.917050123E0,-1.164000034E0,6.660000086E-1,3.210550344E0
6.127788200E-2,2.227050066E0,-1.548000097E0,4.360500276E-1,2.747034023E0
6.324195000E-2,1.459950089E0,-2.008050203E0,-1.369500011E-1,2.486458362E0
6.520595700E-2,8.089500666E-1,-2.467050076E0,-1.018950105E0,2.789085083E0
6.716844100E-2,3.490500152E-1,-3.042000055E0,-1.900950074E0,3.604054860E0
6.913139200E-2,4.200000316E-2,-3.771000147E0,-2.704950094E0,4.641008632E0
7.109525500E-2,-4.549500346E-1,-4.000950336E0,-4.047000408E0,5.709010022E0
7.305885100E-2,-1.260000110E0,-4.384050369E0,-4.660050392E0,6.521009705E0
7.502238100E-2,-1.642950058E0,-4.996950150E0,-4.927950382E0,7.207876987E0
7.698593000E-2,-1.758000135E0,-5.380050182E0,-4.698000431E0,7.355726510E0
7.894944100E-2,-1.795950055E0,-6.109050274E0,-3.970050097E0,7.503814338E0
8.091294900E-2,-1.681950092E0,-6.990000248E0,-3.088950157E0,7.825003045E0
8.287671700E-2,-1.413000107E0,-7.948050499E0,-2.014950037E0,8.320342522E0
8.484040900E-2,-9.529500604E-1,-8.907000542E0,-9.420000315E-1,9.007226905E0
8.680320100E-2,-6.469500065E-1,-1.001805019E1,-2.205000073E-2,1.003894219E1
8.876625700E-2,-4.549500346E-1,-1.101495075E1,7.810500264E-1,1.105197533E1
9.072965300E-2,-3.400500119E-1,-1.204905033E1,1.240950108E0,1.211755772E1
9.269298000E-2,-2.250000089E-1,-1.327605057E1,1.318050027E0,1.334321549E1
9.465745600E-2,1.570500135E-1,-1.484700108E1,2.275950193E0,1.502125344E1
9.662159600E-2,7.320000529E-1,-1.611194992E1,3.924000263E0,1.659905215E1
9.858485200E-2,1.114950061E0,-1.726200104E1,5.611050129E0,1.818525988E1
1.005483670E-1,1.306950092E0,-1.822005081E1,7.335000515E0,1.968452699E1
1.025118740E-1,1.537050128E0,-1.940805054E1,9.405000687E0,2.162149363E1
1.044754080E-1,2.725050211E0,-2.105595016E1,1.051695061E1,2.369356845E1
1.064387230E-1,3.913050175E0,-2.281905174E1,1.231800079E1,2.622506869E1
1.084021020E-1,5.215950012E0,-2.496600151E1,1.258605099E1,2.844144943E1
1.103655310E-1,6.634950161E0,-2.715000153E1,1.036305046E1,2.980835389E1
1.123289460E-1,7.899000168E0,-2.918205070E1,7.411950588E0,3.112753280E1
1.142928530E-1,9.202950478E0,-3.113700104E1,3.349050045E0,3.264082210E1
1.162566250E-1,1.077405071E1,-3.332100296E1,-5.590500236E-1,3.502401953E1
1.182200790E-1,1.288200092E1,-3.573600006E1,-5.158050060E0,3.833553350E1
1.201836270E-1,1.433805084E1,-3.795900345E1,-9.681000710E0,4.171555369E1
1.221468480E-1,1.429995060E1,-4.002900314E1,-1.381995106E1,4.469676417E1
1.241101650E-1,1.364895058E1,-4.232805252E1,-1.623495102E1,4.734481510E1
1.260735550E-1,1.295895100E1,-4.462800217E1,-1.872600174E1,5.010245632E1
1.280369270E-1,1.230705070E1,-4.681305313E1,-1.983795166E1,5.231127762E1
1.300003140E-1,1.161705017E1,-4.888200378E1,-2.183100128E1,5.478137243E1
1.319636960E-1,1.111905098E1,-5.033895111E1,-2.386200142E1,5.680702778E1
1.339270820E-1,1.023705006E1,-5.160300064E1,-2.620005035E1,5.877167266E1
1.358904660E-1,8.320950508E0,-5.260005188E1,-2.777205086E1,6.006072331E1
1.378538130E-1,5.752950191E0,-5.298300171E1,-2.957295227E1,6.094960551E1
1.398171970E-1,3.184950113E0,-5.390295410E1,-3.083805084E1,6.218245531E1
1.417798160E-1,1.230000019E0,-5.436300278E1,-3.141300201E1,6.279829350E1
1.437426600E-1,-8.770500422E-1,-5.486100388E1,-3.106800079E1,6.305330789E1
1.457063170E-1,-1.834950089E0,-5.616405106E1,-3.003300095E1,6.371615822E1
1.476697350E-1,-3.406050205E0,-5.704605103E1,-2.815500069E1,6.370680638E1
1.496332890E-1,-4.134000301E0,-5.785095215E1,-2.489700127E1,6.311642651E1
1.515968070E-1,-3.904950142E0,-5.915400314E1,-2.068095016E1,6.278651466E1
1.535603490E-1,-3.061050177E0,-6.003600311E1,-1.462500095E1,6.186745793E1
1.555238840E-1,-2.448000193E0,-6.034200287E1,-8.799000740E0,6.102927518E1
1.574865680E-1,-2.524950027E0,-6.064905167E1,-2.704950094E0,6.076182680E1
1.594495020E-1,-2.332950115E0,-6.045705414E1,2.200050116E0,6.054203723E1
1.614133270E-1,-1.489950061E0,-6.041895294E1,5.994000435E0,6.073382803E1
1.633768880E-1,-7.620000243E-1,-5.976705170E1,8.715000153E0,6.040390997E1
1.653404240E-1,-2.250000089E-1,-5.838705444E1,9.826950073E0,5.920867926E1
1.673039670E-1,-1.099500060E-1,-5.639400101E1,9.558000565E0,5.719834625E1
1.692675050E-1,-4.549500346E-1,-5.394105148E1,8.140049934E0,5.455368390E1
1.712310440E-1,-9.919500351E-1,-5.125905228E1,6.376950264E0,5.166371938E1
1.731942030E-1,-1.413000107E0,-4.761705399E1,4.384050369E0,4.783931748E1
1.751574870E-1,-2.256000042E0,-4.278795242E1,3.004050255E0,4.295256368E1
1.771207080E-1,-3.214950085E0,-3.761400223E1,2.275950193E0,3.781969086E1
1.790839480E-1,-2.985000134E0,-3.328305054E1,2.122950077E0,3.348400508E1
1.810478970E-1,-3.675000191E0,-3.086805153E1,2.430000067E0,3.118087766E1
1.830116390E-1,-4.057950020E0,-2.937300110E1,3.081000090E0,2.981162044E1
1.849756240E-1,-4.096050262E0,-2.764905167E1,3.733050108E0,2.819899553E1
1.869395480E-1,-4.018949986E0,-2.588595200E1,4.882050037E0,2.664711771E1
1.889033820E-1,-3.943050146E0,-2.389305115E1,5.994000435E0,2.494701543E1
1.908672420E-1,-3.100050211E0,-2.212995148E1,7.335000515E0,2.351908366E1
1.928307250E-1,-1.911000133E0,-2.094105148E1,8.638950348E0,2.273347800E1
1.947943190E-1,-7.230000496E-1,-1.998300171E1,9.750000000E0,2.224647357E1
1.967587970E-1,8.100000024E-2,-1.910205078E1,1.051695061E1,2.180598897E1
1.987230130E-1,7.320000529E-1,-1.837305069E1,1.078500080E1,2.131715408E1
2.006866170E-1,1.192050099E0,-1.776000023E1,1.105305099E1,2.095253035E1
2.026504000E-1,1.384050012E0,-1.714695168E1,1.116795063E1,2.050991632E1
2.046142110E-1,1.384050012E0,-1.645695114E1,1.147500038E1,2.011025781E1
2.065780130E-1,9.240000248E-1,-1.561395073E1,1.155105019E1,1.944417635E1
2.085409350E-1,3.870000243E-1,-1.457895088E1,1.174305058E1,1.872417728E1
2.105041370E-1,-2.250000089E-1,-1.362105083E1,1.197300053E1,1.813660366E1
2.124679580E-1,-9.919500351E-1,-1.247100067E1,1.212600040E1,1.742267799E1
2.144315970E-1,-1.642950058E0,-1.143600082E1,1.228005028E1,1.686063565E1
2.163956590E-1,-2.218050003E0,-1.044000053E1,1.243305016E1,1.638578937E1
2.183595970E-1,-2.830950022E0,-9.558000565E0,1.251000023E1,1.599592944E1
2.203231830E-1,-3.291000128E0,-8.638050079E0,1.251000023E1,1.555463586E1
2.222868860E-1,-3.751050234E0,-7.833000183E0,1.220295048E1,1.497792609E1
2.242508010E-1,-4.134000301E0,-7.066950321E0,1.201095104E1,1.453597916E1
2.262146540E-1,-4.288050175E0,-6.184950352E0,1.182000065E1,1.401261576E1
2.281786340E-1,-4.363950253E0,-5.265000343E0,1.135995007E1,1.325944026E1
2.301425770E-1,-4.326000214E0,-4.077000141E0,1.063200092E1,1.218095446E1
2.321064530E-1,-4.018949986E0,-2.544000149E0,9.903000832E0,1.098605121E1
2.340703480E-1,-3.636000156E0,-7.039500475E-1,9.826950073E0,1.050166608E1
2.360331040E-1,-3.100050211E0,6.360000372E-1,9.634950638E0,1.014135500E1
2.379961940E-1,-2.830950022E0,2.016000032E0,9.520050049E0,1.013458865E1
2.399601690E-1,-2.755050182E0,3.664050102E0,9.060000420E0,1.015377626E1
2.419238840E-1,-2.524950027E0,5.274000168E0,9.098999977E0,1.081583335E1
2.438875490E-1,-2.524950027E0,6.997950554E0,9.597000122E0,1.214286193E1
2.458512140E-1,-2.524950027E0,8.532000542E0,9.787950516E0,1.322778822E1
2.478149100E-1,-2.640000105E0,1.048605061E1,1.032495022E1,1.495096836E1
2.497785970E-1,-3.175950050E0,1.247895050E1,1.021005058E1,1.643338058E1
2.517421110E-1,-3.712950230E0,1.435695076E1,1.063200092E1,1.824684844E1
2.537056760E-1,-4.402950287E0,1.581405067E1,1.151295090E1,2.005039172E1
2.556692770E-1,-5.553000450E0,1.753905106E1,1.147500038E1,2.168247587E1
2.576328510E-1,-6.702000141E0,1.895700073E1,1.113000011E1,2.298176636E1
2.595965180E-1,-7.584000587E0,2.006805038E1,1.155105019E1,2.436535392E1
2.615601580E-1,-8.734050751E0,2.079600143E1,1.143705082E1,2.528959173E1
2.635244000E-1,-9.691950798E0,2.152500153E1,1.066995049E1,2.590574153E1
2.654884660E-1,-1.026705074E1,2.244405174E1,1.059300041E1,2.685813559E1
2.674520910E-1,-1.091805077E1,2.259795189E1,1.074705029E1,2.730147161E1
2.694158480E-1,-1.191495037E1,2.221500015E1,1.055505085E1,2.732913048E1
2.713795740E-1,-1.283505058E1,2.152500153E1,1.113000011E1,2.742154475E1
2.733433090E-1,-1.363995075E1,2.075805092E1,1.105305099E1,2.718666715E1
2.753071280E-1,-1.448295116E1,1.968495178E1,1.120695019E1,2.688585006E1
2.772709230E-1,-1.501995087E1,1.849695015E1,1.124505043E1,2.634743342E1
2.792349820E-1,-1.528800106E1,1.696395111E1,1.170495033E1,2.566134205E1
2.811989470E-1,-1.559400082E1,1.546905041E1,1.201095104E1,2.503452270E1
2.831625930E-1,-1.570905113E1,1.401195049E1,1.189605045E1,2.417902108E1
2.851263330E-1,-1.555605030E1,1.263300037E1,1.185795021E1,2.328506780E1
2.870900170E-1,-1.501995087E1,1.113795090E1,1.182000065E1,2.212160233E1
2.890537180E-1,-1.463595104E1,9.910950661E0,1.162800026E1,2.115770299E1
2.910172100E-1,-1.429095078E1,8.877000809E0,1.174305058E1,2.051661898E1
2.929807760E-1,-1.383105087E1,7.957050323E0,1.178100014E1,1.983442922E1
2.949441740E-1,-1.329495049E1,7.152000427E0,1.162800026E1,1.905563456E1
2.969076220E-1,-1.256700039E1,6.270000458E0,1.159005070E1,1.820910980E1
2.988715350E-1,-1.183800030E1,5.389050484E0,1.212600040E1,1.778257580E1
3.008353120E-1,-1.114800072E1,4.852050304E0,1.208805084E1,1.714471596E1
3.027989860E-1,-1.061205006E1,4.468950272E0,1.239495087E1,1.691809475E1
3.047626940E-1,-9.960000038E0,3.931950092E0,1.273995018E1,1.664236050E1
3.067265170E-1,-9.654000282E0,3.511050224E0,1.323795033E1,1.675620852E1
3.086903070E-1,-9.346950531E0,3.127050161E0,1.354500103E1,1.675144710E1
3.106540290E-1,-8.772000313E0,2.514000177E0,1.431105042E1,1.697275318E1
3.126177710E-1,-8.389050484E0,1.939050078E0,1.503900051E1,1.732938601E1
3.145817550E-1,-8.350950241E0,1.747950077E0,1.561395073E1,1.779295245E1
3.165456780E-1,-8.464950562E0,1.555950046E0,1.611194992E1,1.826667180E1
3.185091970E-1,-8.350950241E0,1.249050021E0,1.661100006E1,1.863394266E1
3.204728340E-1,-8.350950241E0,9.430500269E-1,1.695600128E1,1.892442054E1
3.224367150E-1,-8.427000046E0,7.129500508E-1,1.684095001E1,1.884516450E1
3.244005240E-1,-8.619000435E0,7.129500508E-1,1.645695114E1,1.859103836E1
3.263641660E-1,-8.619000435E0,5.209500194E-1,1.641900063E1,1.855106840E1
3.283278480E-1,-8.580000877E0,3.679500222E-1,1.553805065E1,1.775338898E1
3.302915860E-1,-8.542050362E0,2.530499995E-1,1.477095032E1,1.706492402E1
3.322553070E-1,-8.350950241E0,1.380000114E-1,1.377405071E1,1.610844148E1
3.342189960E-1,-8.350950241E0,1.759500057E-1,1.220295048E1,1.478787776E1
3.361826940E-1,-8.158950806E0,2.140500098E-1,1.105305099E1,1.373987744E1
3.381463300E-1,-7.929000378E0,2.910000086E-1,9.673050880E0,1.251086093E1
3.401099920E-1,-7.737000465E0,2.140500098E-1,8.179050446E0,1.126072199E1
3.420737330E-1,-7.584000587E0,3.679500222E-1,6.415950298E0,9.940667501E0
3.440374510E-1,-7.239000320E0,3.679500222E-1,4.806000233E0,8.696904685E0
3.460011400E-1,-6.856050491E0,4.830000103E-1,3.349050045E0,7.645577385E0
3.479648380E-1,-6.549000263E0,4.060500264E-1,2.085000038E0,6.884875179E0
3.499295550E-1,-6.204000473E0,4.060500264E-1,1.203000069E0,6.332590912E0
3.518939800E-1,-5.706000328E0,3.289500177E-1,-3.289500177E-1,5.724932836E0
3.538579080E-1,-5.437950134E0,1.759500057E-1,-1.210950017E0,5.573926804E0
3.558219820E-1,-5.284050465E0,2.910000086E-1,-2.398950100E0,5.810407206E0
3.577857890E-1,-5.131050110E0,4.060500264E-1,-3.394950151E0,6.165893154E0
3.597496740E-1,-5.476050377E0,1.057950020E0,-3.586950064E0,6.631183660E0
3.617133430E-1,-5.245950222E0,1.057950020E0,-4.009050369E0,6.686683546E0
3.636770690E-1,-4.939050198E0,6.739500165E-1,-4.545000076E0,6.745772837E0
3.656406200E-1,-4.633050442E0,4.830000103E-1,-4.813050270E0,6.698051829E0
3.676042220E-1,-4.402950287E0,2.910000086E-1,-4.774950027E0,6.501599803E0
3.695689650E-1,-4.210950375E0,-1.500000060E-2,-4.084949970E0,5.866783132E0
3.715333740E-1,-9.150000215E-1,-4.077000141E0,-8.914050102E0,9.844767362E0
3.734969500E-1,-4.288050175E0,1.096050024E0,2.698050022E0,5.183451927E0
3.754607660E-1,-3.636000156E0,-1.290000081E-1,-8.110050201E0,8.888759892E0
3.774246160E-1,-3.559950113E0,-2.059500068E-1,-4.123950005E0,5.451845913E0
3.793884560E-1,-3.520950079E0,-8.190000653E-1,-3.855000257E0,5.284777909E0
3.813523480E-1,-3.175950050E0,-8.959500194E-1,-5.388000488E0,6.318222410E0
3.833162250E-1,-3.253050089E0,-1.509000063E0,-3.894000292E0,5.293642824E0
3.852798820E-1,-2.869950056E0,-1.777950048E0,-4.507050037E0,5.631271592E0
3.872436070E-1,-2.946000099E0,-2.238000154E0,-4.237950325E0,5.625636340E0
3.892074280E-1,-3.061050177E0,-2.467050076E0,-4.200000286E0,5.752944173E0
3.911712200E-1,-3.214950085E0,-2.620950222E0,-4.353000164E0,6.012810869E0
3.931350760E-1,-3.406050205E0,-2.965950251E0,-4.582950115E0,6.434397458E0
3.950989130E-1,-3.445050240E0,-3.579000235E0,-4.736999989E0,6.864166572E0
3.970627900E-1,-3.367950201E0,-4.537050247E0,-5.580000401E0,7.941304551E0
3.990266340E-1,-3.253050089E0,-5.572050095E0,-7.687950134E0,1.003666550E1
4.009901210E-1,-3.138000250E0,-6.837000370E0,-1.090695095E1,1.324964900E1
4.029537130E-1,-2.908050060E0,-8.446949959E0,-1.497000027E1,1.743297527E1
4.049174670E-1,-2.026050091E0,-1.032495022E1,-1.822800064E1,2.104684022E1
4.068811730E-1,-2.250000089E-1,-1.289295101E1,-2.052795029E1,2.424202041E1
4.088455720E-1,1.498950124E0,-1.496205044E1,-2.091105080E1,2.575620023E1
4.108097440E-1,2.725050211E0,-1.668704987E1,-2.037405014E1,2.647612983E1
4.127731750E-1,4.105050087E0,-1.741500092E1,-1.857299995E1,2.578933928E1
4.147368230E-1,5.407950401E0,-1.749195099E1,-1.554495049E1,2.401790504E1
4.167007020E-1,6.442950249E0,-1.718505096E1,-1.247895050E1,2.219373313E1
4.186645130E-1,8.091000557E0,-1.718505096E1,-9.718950272E0,2.133654754E1
4.206280510E-1,9.394050598E0,-1.714695168E1,-6.117000103E0,2.048618629E1
4.225916690E-1,1.027605057E1,-1.737705040E1,-3.664050102E0,2.051790338E1
4.245549680E-1,1.016100025E1,-1.714695168E1,9.195000678E-2,1.993169167E1
4.265183610E-1,1.027605057E1,-1.764495087E1,2.430000067E0,2.056322948E1
4.284821490E-1,1.004595089E1,-1.845000076E1,6.454050541E0,2.197677014E1
4.304458210E-1,9.777000427E0,-1.856505013E1,9.252000809E0,2.293142696E1
4.324097990E-1,9.241050720E0,-1.806705093E1,1.228005028E1,2.371950638E1
4.343737110E-1,8.398050308E0,-1.753005028E1,1.431105042E1,2.413785566E1
4.363375920E-1,7.324050426E0,-1.684005165E1,1.542300034E1,2.398120084E1
4.383014820E-1,6.213000298E0,-1.611194992E1,1.588305092E1,2.346204615E1
4.402653210E-1,4.987050056E0,-1.557600117E1,1.595895100E1,2.285105244E1
4.422291750E-1,3.874950171E0,-1.519200039E1,1.530795097E1,2.191222211E1
4.441926300E-1,2.686950207E0,-1.469400024E1,1.354500103E1,2.016433479E1
4.461562230E-1,1.498950124E0,-1.427205086E1,1.135995007E1,1.830264332E1
4.481192110E-1,6.550500393E-1,-1.404195023E1,9.098999977E0,1.674506666E1
4.500823760E-1,-4.549500346E-1,-1.408095074E1,7.144050121E0,1.579612628E1
4.520461130E-1,-1.452000022E0,-1.423395061E1,5.266050339E0,1.524614510E1
4.540096820E-1,-2.218050003E0,-1.461705112E1,4.116000175E0,1.534664090E1
4.559732060E-1,-2.830950022E0,-1.584405041E1,3.847950220E0,1.654856284E1
4.579367510E-1,-3.790050268E0,-1.695495033E1,4.461000443E0,1.793698265E1
4.599004680E-1,-4.555950165E0,-1.940805054E1,6.262050152E0,2.089598956E1
4.618641340E-1,-5.782950401E0,-2.362395096E1,1.090005016E1,2.665229198E1
4.638278760E-1,-8.503950119E0,-2.964195061E1,1.607400131E1,3.477550750E1
4.657915950E-1,-1.034400082E1,-2.994795227E1,1.063200092E1,3.342031780E1
4.677554230E-1,-9.040050507E0,-2.899005127E1,1.147500038E1,3.246261264E1
4.697192160E-1,-7.239000320E0,-2.906700134E1,6.876000404E0,3.073390757E1
4.716827120E-1,-7.354050159E0,-2.879895210E1,6.339000225E0,3.039152217E1
4.736462950E-1,-7.392000198E0,-2.906700134E1,5.878950119E0,3.056295615E1
4.756100500E-1,-8.044050217E0,-2.929695129E1,4.423050404E0,3.070148977E1
4.775737540E-1,-9.001950264E0,-2.879895210E1,4.461000443E0,3.050107007E1
4.795377740E-1,-1.003695011E1,-2.787900162E1,3.426000118E0,2.982811720E1
4.815016910E-1,-1.099500084E1,-2.672895050E1,2.659050226E0,2.902408287E1
4.834662460E-1,-1.164705086E1,-2.523405075E1,2.008050203E0,2.786473356E1
4.854306140E-1,-1.107195091E1,-2.343300056E1,2.830500007E-1,2.591859814E1
4.873945520E-1,-9.654000282E0,-2.255100060E1,-1.939050078E0,2.460705721E1
4.893586160E-1,-7.852050304E0,-2.178495026E1,-5.005050182E0,2.369154446E1
4.913224060E-1,-5.782950401E0,-2.174595070E1,-1.071600056E1,2.492311287E1
4.932862900E-1,-3.981000185E0,-2.086500168E1,-1.397400093E1,2.542576173E1
4.952499940E-1,-2.755050182E0,-2.040495110E1,-1.638795090E1,2.631572278E1
4.972137510E-1,-2.640000105E0,-1.998300171E1,-1.554495049E1,2.545457608E1
4.991777920E-1,-2.869950056E0,-1.929300117E1,-1.385895061E1,2.392753685E1
5.011417490E-1,-3.214950085E0,-1.864200020E1,-1.025595093E1,2.151847125E1
5.031053970E-1,-3.367950201E0,-1.802805138E1,-6.652950287E0,1.950936884E1
5.050691360E-1,-3.367950201E0,-1.737705040E1,-2.974050045E0,1.794853595E1
5.070324140E-1,-2.908050060E0,-1.684005165E1,9.195000678E-2,1.708954504E1
5.089958280E-1,-2.295000076E0,-1.645695114E1,2.314950228E0,1.677668802E1
5.109592510E-1,-1.605000019E0,-1.603499985E1,4.345950127E0,1.669085162E1
5.129226720E-1,-7.620000243E-1,-1.549905109E1,5.572050095E0,1.648784313E1
5.148873310E-1,8.100000024E-2,-1.515405083E1,7.564950466E0,1.693754094E1
5.168516140E-1,8.850000501E-1,-1.484700108E1,9.367050171E0,1.757720953E1
5.188151610E-1,1.614000082E0,-1.477095032E1,1.124505043E1,1.863429979E1
5.207789240E-1,2.149950027E0,-1.477095032E1,1.300800037E1,1.979927605E1
5.227426040E-1,2.649000168E0,-1.492395115E1,1.450305080E1,2.097808386E1
5.247063090E-1,3.070050240E0,-1.523100090E1,1.561395073E1,2.202734787E1
5.266700430E-1,3.529950142E0,-1.542195034E1,1.630395126E1,2.271818494E1
5.286337680E-1,4.027950287E0,-1.569000053E1,1.657200050E1,2.317394444E1
5.305974110E-1,4.564949989E0,-1.626495171E1,1.749195099E1,2.431780771E1
5.325610780E-1,4.564949989E0,-1.638000107E1,1.768395042E1,2.453294328E1
5.345249540E-1,4.872000217E0,-1.703205109E1,1.837395096E1,2.552311157E1
5.364887680E-1,5.101050377E0,-1.737705040E1,1.914000130E1,2.634999516E1
5.384526510E-1,5.446050167E0,-1.837305069E1,1.906395149E1,2.703077321E1
5.404165240E-1,6.097950459E0,-1.944705009E1,1.971495056E1,2.835581127E1
5.423800060E-1,6.711000443E0,-2.071095085E1,1.967700005E1,2.934561880E1
5.443436020E-1,7.171050549E0,-2.190000153E1,1.783695030E1,2.914087900E1
5.463076260E-1,7.593000412E0,-2.289600182E1,1.626600075E1,2.909404294E1
5.482715240E-1,8.244000435E0,-2.389305115E1,1.634205055E1,3.009824002E1
5.502354120E-1,9.049050331E0,-2.458200073E1,1.580595112E1,3.059392362E1
5.521993000E-1,9.969000816E0,-2.496600151E1,1.415805054E1,3.038309734E1
5.541627330E-1,1.073595047E1,-2.488905144E1,1.193505096E1,2.961707203E1
5.561263000E-1,1.138695049E1,-2.442900085E1,8.409000397E0,2.823384515E1
5.580905980E-1,1.180905056E1,-2.366295052E1,3.924000263E0,2.673549476E1
5.600546820E-1,1.173195076E1,-2.316405106E1,-2.910000086E-1,2.596722186E1
5.620182840E-1,1.119600010E1,-2.324100113E1,-3.664050102E0,2.605608978E1
5.639820450E-1,1.073595047E1,-2.389305115E1,-4.927950382E0,2.665376560E1
5.659458590E-1,1.042905045E1,-2.488905144E1,-4.429950237E0,2.734692732E1
5.679096580E-1,9.853950500E0,-2.569395065E1,-4.276950359E0,2.784908876E1
5.698731980E-1,9.202950478E0,-2.626905060E1,-4.200000286E0,2.814955274E1
5.718368140E-1,8.589000702E0,-2.665200043E1,-3.165000200E0,2.818008669E1
5.738005040E-1,7.593000412E0,-2.653695107E1,-2.782050133E0,2.774172363E1
5.757641820E-1,6.558000088E0,-2.626905060E1,-2.130000114E0,2.715892643E1
5.777276980E-1,5.523000240E0,-2.573205185E1,-2.514000177E0,2.643789366E1
5.796912610E-1,4.680000305E0,-2.504205132E1,-3.049950123E0,2.565753170E1
5.816549300E-1,3.798000097E0,-2.423805046E1,-3.510000229E0,2.478362355E1
5.836185670E-1,2.917050123E0,-2.347095108E1,-4.200000286E0,2.402154717E1
5.855812380E-1,1.459950089E0,-2.266605186E1,-5.272950172E0,2.331706167E1
5.875441890E-1,-2.250000089E-1,-2.178495026E1,-6.270000458E0,2.267041218E1
5.895079630E-1,-1.452000022E0,-2.113305092E1,-6.960000515E0,2.229698976E1
5.914714950E-1,-2.295000076E0,-2.074995041E1,-6.997950554E0,2.201814659E1
5.934352150E-1,-3.138000250E0,-2.025105095E1,-7.228050232E0,2.173009020E1
5.953988790E-1,-3.943050146E0,-1.971495056E1,-7.611000538E0,2.149777312E1
5.973625760E-1,-4.594050407E0,-1.944705009E1,-8.263050079E0,2.162339134E1
5.993262640E-1,-4.863000393E0,-1.948500061E1,-8.799000740E0,2.192570263E1
6.012897780E-1,-5.053950310E0,-1.914000130E1,-9.412950516E0,2.191998405E1
6.032533430E-1,-4.900950432E0,-1.910205078E1,-1.006395054E1,2.214025202E1
6.052169210E-1,-4.441050053E0,-1.898700142E1,-1.071600056E1,2.224998464E1
6.071804950E-1,-4.173000336E0,-1.864200020E1,-1.109895039E1,2.209354663E1
6.091440090E-1,-3.828000069E0,-1.837305069E1,-1.109895039E1,2.180388213E1
6.111075550E-1,-3.828000069E0,-1.825800133E1,-1.144395065E1,2.188543359E1
6.130710920E-1,-3.751050234E0,-1.806705093E1,-1.194195080E1,2.197951083E1
6.150346320E-1,-3.751050234E0,-1.756905174E1,-1.259400082E1,2.193970860E1
6.169986650E-1,-3.675000191E0,-1.707000160E1,-1.286205101E1,2.168693010E1
6.189625530E-1,-3.367950201E0,-1.676399994E1,-1.263195038E1,2.125890291E1
6.209260960E-1,-3.022950172E0,-1.653404999E1,-1.278600025E1,2.111858990E1
6.228897270E-1,-2.677950144E0,-1.622700119E1,-1.255605030E1,2.069157760E1
6.248536090E-1,-2.295000076E0,-1.591995049E1,-1.251705074E1,2.038107966E1
6.268174180E-1,-1.911000133E0,-1.561395073E1,-1.247895050E1,2.007913306E1
6.287810460E-1,-1.375050068E0,-1.538400078E1,-1.293900108E1,2.014884591E1
6.307447280E-1,-8.770500422E-1,-1.507695103E1,-1.336005020E1,2.016369536E1
6.327084260E-1,-3.019500077E-1,-1.465605068E1,-1.378200054E1,2.012050035E1
6.346721150E-1,4.639500082E-1,-1.457895088E1,-1.420395088E1,2.035959919E1
6.366363940E-1,1.575000048E0,-1.442595100E1,-1.474005032E1,2.068472313E1
6.386005000E-1,2.725050211E0,-1.438695049E1,-1.512405109E1,2.105106089E1
6.405639420E-1,3.952050209E0,-1.438695049E1,-1.546800041E1,2.149097676E1
6.425275790E-1,5.215950012E0,-1.431105042E1,-1.569795036E1,2.187322436E1
6.444909050E-1,6.366000175E0,-1.431105042E1,-1.588995075E1,2.231193979E1
6.464543330E-1,7.324050426E0,-1.396605110E1,-1.650300026E1,2.282632944E1
6.484178890E-1,8.167950630E0,-1.350600052E1,-1.753800011E1,2.359467981E1
6.503814080E-1,8.973000526E0,-1.308405018E1,-1.849605179E1,2.436823833E1
6.523449060E-1,9.700950623E0,-1.277805042E1,-1.880295181E1,2.471716028E1
6.543084100E-1,1.050600052E1,-1.243305016E1,-1.864995003E1,2.475434142E1
6.562718340E-1,1.123395061E1,-1.220295048E1,-1.803600121E1,2.450328521E1
6.582352710E-1,1.215405083E1,-1.189605045E1,-1.734705162E1,2.429315064E1
6.601987810E-1,1.299705029E1,-1.155105019E1,-1.657995033E1,2.402591995E1
6.621622690E-1,1.372500038E1,-1.101495075E1,-1.600500107E1,2.378791363E1
6.641254570E-1,1.437705040E1,-1.066995049E1,-1.508505058E1,2.341166745E1
6.660887330E-1,1.498995113E1,-1.032495022E1,-1.416495037E1,2.306402070E1
6.680524950E-1,1.552695084E1,-9.595950127E0,-1.336005020E1,2.261988953E1
6.700161150E-1,1.591005039E1,-9.405000687E0,-1.213395023E1,2.210919469E1
6.719795050E-1,1.636995125E1,-8.868000031E0,-1.086900043E1,2.155810518E1
6.739429630E-1,1.667595100E1,-8.370000839E0,-9.489000320E0,2.093287804E1
6.759061550E-1,1.698300171E1,-8.025000572E0,-8.071050644E0,2.044418841E1
6.778694250E-1,1.717500114E1,-7.680000305E0,-6.346950531E0,1.985565033E1
6.798329820E-1,1.744305038E1,-7.488000393E0,-4.813050270E0,1.958304393E1
6.817964420E-1,1.771095085E1,-7.450050354E0,-3.165000200E0,1.947301355E1
6.837592740E-1,1.771095085E1,-7.411950588E0,-1.249050021E0,1.923993029E1
6.857222900E-1,1.774995041E1,-7.450050354E0,8.580000401E-1,1.926915032E1
6.876861430E-1,1.763505173E1,-7.219950199E0,2.391000032E0,1.920519751E1
6.896497500E-1,1.748100090E1,-7.066950321E0,3.963000298E0,1.926739605E1
6.916135720E-1,1.713600159E1,-6.874950409E0,5.341950417E0,1.922092422E1
6.935773450E-1,1.656105042E1,-6.339000225E0,6.339000225E0,1.883173488E1
6.955406640E-1,1.594800091E1,-5.839950085E0,7.182000160E0,1.843976345E1
6.975041160E-1,1.552695084E1,-5.227050304E0,7.795050144E0,1.814307206E1
6.994673090E-1,1.525800037E1,-4.537050247E0,8.179050446E0,1.789659930E1
7.014305780E-1,1.510500050E1,-4.116000175E0,8.869050026E0,1.799340284E1
7.033939530E-1,1.487505054E1,-3.771000147E0,8.638950348E0,1.761019687E1
7.053573170E-1,1.453005028E1,-3.349050045E0,8.524050713E0,1.717550401E1
7.073207500E-1,1.410795021E1,-2.889000177E0,7.834050179E0,1.639368547E1
7.092841630E-1,1.368705082E1,-2.544000149E0,6.837000370E0,1.550973472E1
7.112477230E-1,1.341900063E1,-2.199000120E0,5.686950207E0,1.473928702E1
7.132112400E-1,1.315005016E1,-1.816050053E0,4.039050102E0,1.387572639E1
7.151751430E-1,1.295895100E1,-1.432950020E0,2.161050081E0,1.321581984E1
7.171389320E-1,1.291995049E1,-1.203000069E0,6.660000086E-1,1.299291675E1
7.191031040E-1,1.291995049E1,-9.340500236E-1,-8.269500136E-1,1.298003915E1
7.210671630E-1,1.295895100E1,-5.130000114E-1,-2.859000206E0,1.328049179E1
7.230306130E-1,1.315005016E1,-3.210000098E-1,-4.852050304E0,1.402031570E1
7.249942420E-1,1.334205055E1,-2.440500110E-1,-6.805950165E0,1.497968060E1
7.269575880E-1,1.372500038E1,-2.059500068E-1,-8.838000298E0,1.632569448E1
7.289210150E-1,1.399305058E1,-2.059500068E-1,-1.048605061E1,1.748728501E1
7.308843930E-1,1.426200104E1,-1.680000126E-1,-1.198095036E1,1.862729366E1
7.328477850E-1,1.437705040E1,-3.210000098E-1,-1.305405045E1,1.942191680E1
7.348111680E-1,1.449195099E1,-4.740000367E-1,-1.343700027E1,1.976851780E1
7.367745540E-1,1.441500092E1,-6.280500293E-1,-1.316895103E1,1.953478870E1
7.387381180E-1,1.380195045E1,-7.039500475E-1,-1.209600067E1,1.836580013E1
7.407016290E-1,1.276695061E1,-7.810500264E-1,-1.040895081E1,1.649094672E1
7.426651720E-1,1.131105042E1,-1.087950110E0,-9.028950691E0,1.451362972E1
7.446287060E-1,9.853950500E0,-1.509000063E0,-7.765050411E0,1.263619522E1
7.465918860E-1,8.551050186E0,-1.777950048E0,-5.962950230E0,1.057536482E1
7.485551690E-1,7.248000145E0,-1.969050050E0,-4.545000076E0,8.778820530E0
7.505189950E-1,5.983050346E0,-2.122950077E0,-2.974050045E0,7.010619241E0
7.524826480E-1,5.025000095E0,-2.314050198E0,-1.479000092E0,5.726508146E0
7.544456270E-1,4.258049965E0,-2.391000032E0,1.300500035E-1,4.885159533E0
7.564088040E-1,3.453000069E0,-2.467050076E0,1.279950023E0,4.432585883E0
7.583724030E-1,2.764050245E0,-2.620950222E0,2.391000032E0,4.497358667E0
7.603358790E-1,2.074050188E0,-2.581950188E0,3.388050079E0,4.737830125E0
7.622994330E-1,1.422000051E0,-2.581950188E0,4.078050137E0,5.031803239E0
7.642629610E-1,1.000050068E0,-2.581950188E0,4.576050282E0,5.348532798E0
7.662257810E-1,3.490500152E-1,-2.544000149E0,4.768050194E0,5.415540169E0
7.681888090E-1,-1.099500060E-1,-2.428950071E0,4.653000355E0,5.249980929E0
7.701526140E-1,-1.480500102E-1,-2.773950100E0,4.537950039E0,5.320686846E0
7.721161910E-1,-5.700000525E-1,-2.697000027E0,3.924000263E0,4.795465282E0
7.740798440E-1,-1.336950064E0,-2.314050198E0,3.733050108E0,4.591070343E0
7.760434850E-1,-2.026050091E0,-1.854000092E0,3.004050255E0,4.070198182E0
7.780068720E-1,-2.601000071E0,-1.738950133E0,2.122950077E0,3.781013880E0
7.799703330E-1,-3.061050177E0,-1.509000063E0,1.356000066E0,3.672307933E0
7.819347400E-1,-3.712950230E0,-1.356000066E0,3.979500234E-1,3.972794962E0
7.838988700E-1,-4.173000336E0,-1.318050027E0,-4.440000355E-1,4.398672948E0
7.858624830E-1,-4.633050442E0,-1.432950020E0,-1.210950017E0,4.998489982E0
7.878262510E-1,-4.978050232E0,-1.624050021E0,-1.824000120E0,5.544862399E0
7.897897950E-1,-4.863000393E0,-2.314050198E0,-2.245050192E0,5.834710919E0
7.917534050E-1,-4.633050442E0,-3.081000090E0,-2.551950216E0,6.121288088E0
7.937171110E-1,-4.210950375E0,-4.039050102E0,-2.322000027E0,6.279945295E0
7.956807880E-1,-3.598050117E0,-5.074050426E0,-1.786050081E0,6.471624778E0
7.976442640E-1,-3.100050211E0,-6.184950352E0,-1.096050024E0,7.004659008E0
7.996077950E-1,-2.371050119E0,-7.297050476E0,-2.520000041E-1,7.676739433E0
8.015706590E-1,-1.758000135E0,-8.140049934E0,2.449500114E-1,8.331325100E0
8.035337180E-1,-1.183050036E0,-9.060000420E0,4.360500276E-1,9.147314066E0
8.054978330E-1,-7.230000496E-1,-9.940950394E0,1.300500035E-1,9.968055819E0
8.074616390E-1,-4.170000255E-1,-1.082295036E1,-2.910000086E-1,1.083488923E1
8.094242260E-1,-7.200000435E-2,-1.208805084E1,-2.910000086E-1,1.209176737E1
8.113871740E-1,2.719500065E-1,-1.354395103E1,7.810500264E-1,1.356917852E1
8.133513990E-1,8.470500112E-1,-1.515405083E1,1.585950017E0,1.526034035E1
8.153152490E-1,1.575000048E0,-1.687905121E1,3.733050108E0,1.735853271E1
8.172783750E-1,2.649000168E0,-1.871805000E1,5.572050095E0,1.970863618E1
8.192417130E-1,3.913050175E0,-2.052000046E1,6.913950443E0,2.200420622E1
8.212049040E-1,5.446050167E0,-2.293395042E1,7.258950233E0,2.466410150E1
8.231681220E-1,6.940950394E0,-2.531100082E1,6.223950386E0,2.697334079E1
8.251317590E-1,8.818950653E0,-2.780205154E1,5.112000465E0,2.961183057E1
8.270952730E-1,1.058205032E1,-3.052305222E1,3.118950129E0,3.245557511E1
8.290595370E-1,1.238400078E1,-3.366600037E1,-7.120500207E-1,3.587854611E1
8.310235810E-1,1.403205109E1,-3.696195221E1,-3.739950180E0,3.971236075E1
8.329870030E-1,1.533495045E1,-3.991395187E1,-7.687950134E0,4.344408863E1
8.349505970E-1,1.675304985E1,-4.217505264E1,-1.098405075E1,4.669099609E1
8.369143050E-1,1.702095032E1,-4.447500229E1,-1.519995117E1,4.998776944E1
8.388779800E-1,1.725105095E1,-4.742595291E1,-1.642695045E1,5.307225706E1
8.408413160E-1,1.771095085E1,-5.037705231E1,-1.884105110E1,5.662605748E1
8.428047510E-1,1.836300087E1,-5.294505310E1,-2.106405067E1,5.986712520E1
8.447681630E-1,1.843905067E1,-5.528295135E1,-2.125605011E1,6.203243479E1
8.467315880E-1,1.828605080E1,-5.693100357E1,-2.129400063E1,6.347403630E1
8.486952800E-1,1.843905067E1,-5.857905197E1,-2.229105186E1,6.533295426E1
8.506588940E-1,1.755795097E1,-5.965200424E1,-2.290395164E1,6.626638856E1
8.526224210E-1,1.598700047E1,-6.034200287E1,-2.516505051E1,6.730543263E1
8.545859730E-1,1.468305111E1,-6.095505142E1,-2.819295120E1,6.874556554E1
8.565499130E-1,1.364895058E1,-6.145395279E1,-2.965005112E1,6.958453633E1
8.585137400E-1,1.276695061E1,-6.229695129E1,-3.049305153E1,7.052468617E1
8.604773650E-1,1.161705017E1,-6.352305222E1,-2.876805115E1,7.069465881E1
8.624410500E-1,1.238400078E1,-6.578504944E1,-2.646795082E1,7.198325240E1
8.644049230E-1,1.131105042E1,-6.781605530E1,-2.240595055E1,7.231171300E1
8.663687400E-1,8.704050064E0,-6.888899994E1,-1.638795090E1,7.134437423E1
8.683315560E-1,4.642050266E0,-6.877395630E1,-1.044795036E1,6.971775500E1
8.702946650E-1,5.410500169E-1,-6.796905518E1,-6.001950264E0,6.823568424E1
8.722573310E-1,-4.173000336E0,-6.628305054E1,-1.747050047E0,6.643725539E1
8.742201270E-1,-8.619000435E0,-6.429000092E1,1.585950017E0,6.488456383E1
8.761836560E-1,-1.279695034E1,-6.175995255E1,2.965950251E0,6.314151200E1
8.781469710E-1,-1.555605030E1,-5.919195175E1,3.618000269E0,6.130879039E1
8.801105480E-1,-1.731900024E1,-5.616405106E1,2.773950100E0,5.883912983E1
8.820740480E-1,-1.862205124E1,-5.332800293E1,2.085000038E0,5.652436567E1
8.840375480E-1,-1.843095016E1,-5.003205109E1,1.087950110E0,5.333000746E1
8.860010480E-1,-1.605405045E1,-4.596900177E1,7.810500264E-1,4.869796401E1
8.879642780E-1,-1.321800041E1,-4.202205276E1,1.930950046E0,4.409418353E1
8.899275880E-1,-1.061205006E1,-3.822705078E1,3.234000206E0,3.980429343E1
8.918911490E-1,-8.427000046E0,-3.516105270E1,4.384050369E0,3.642161247E1
8.938546150E-1,-7.584000587E0,-3.213300323E1,5.841000080E0,3.352855863E1
8.958178520E-1,-7.201050282E0,-2.891400146E1,7.527000427E0,3.073321235E1
8.977811560E-1,-6.970950127E0,-2.603895187E1,8.101950645E0,2.814716264E1
8.997446890E-1,-7.009050369E0,-2.370105171E1,8.485050201E0,2.613164205E1
9.017081540E-1,-6.817050457E0,-2.193795013E1,8.791950226E0,2.459764667E1
9.036713990E-1,-6.396000385E0,-2.013600159E1,8.944950104E0,2.294296217E1
9.056347030E-1,-5.668050289E0,-1.845000076E1,9.252000809E0,2.140394452E1
9.075982810E-1,-4.900950432E0,-1.722405052E1,9.979950905E0,2.050089392E1
9.095617780E-1,-3.865950108E0,-1.634205055E1,1.097700024E1,2.006247045E1
9.115253240E-1,-2.677950144E0,-1.572900105E1,1.166595078E1,1.976530542E1
9.134888550E-1,-9.919500351E-1,-1.557600117E1,1.231800079E1,1.988288009E1
9.154534310E-1,6.940500140E-1,-1.538400078E1,1.262505054E1,1.991333941E1
9.174177010E-1,1.843950033E0,-1.523100090E1,1.262505054E1,1.986895673E1
9.193811150E-1,2.802000046E0,-1.519200039E1,1.251000023E1,1.987833458E1
9.213447800E-1,3.376950264E0,-1.507695103E1,1.235595036E1,1.978352230E1
9.233083420E-1,3.529950142E0,-1.465605068E1,1.204995060E1,1.929926628E1
9.252719340E-1,3.337950230E0,-1.408095074E1,1.162800026E1,1.856409102E1
9.272354130E-1,2.725050211E0,-1.335300064E1,1.124505043E1,1.766860730E1
9.291989290E-1,1.920000076E0,-1.239405060E1,1.097700024E1,1.666713607E1
9.311614350E-1,8.470500112E-1,-1.120605087E1,1.040205002E1,1.531325290E1
9.331242370E-1,-2.629500031E-1,-1.017105007E1,1.005705070E1,1.430607113E1
9.350877200E-1,-1.222050071E0,-9.328050613E0,9.865050316E0,1.363176996E1
9.370510040E-1,-2.026050091E0,-8.638050079E0,9.979950905E0,1.335365898E1
9.390148970E-1,-2.755050182E0,-7.909950256E0,1.001805019E1,1.305829025E1
9.409786150E-1,-3.559950113E0,-7.219950199E0,1.001805019E1,1.285154681E1
9.429421240E-1,-4.210950375E0,-6.300000191E0,1.005705070E1,1.259231410E1
9.449056940E-1,-4.786050320E0,-5.304000378E0,9.903000832E0,1.221098371E1
9.468690920E-1,-5.169000149E0,-4.384050369E0,9.558000565E0,1.171724520E1
9.488325400E-1,-5.629050255E0,-2.926950216E0,1.028700066E1,1.208617503E1
9.507959090E-1,-5.706000328E0,-1.777950048E0,9.826950073E0,1.150167352E1
9.527593050E-1,-5.590950489E0,-5.509500504E-1,9.787950516E0,1.128566563E1
9.547217410E-1,-5.514000416E0,5.980500579E-1,9.597000122E0,1.108441590E1
9.566844590E-1,-5.245950222E0,1.824000120E0,9.405000687E0,1.092250008E1
9.586480020E-1,-4.824000359E0,2.935950041E0,9.098999977E0,1.070899541E1
9.606113030E-1,-4.555950165E0,4.009050369E0,9.136950493E0,1.096872969E1
9.625746710E-1,-4.326000214E0,5.082000256E0,9.289950371E0,1.143871419E1
9.645380090E-1,-4.441050053E0,6.807000160E0,9.022050858E0,1.214312886E1
9.665012230E-1,-4.441050053E0,8.455050468E0,8.101950645E0,1.252407315E1
9.684644730E-1,-4.786050320E0,9.565950394E0,7.834050179E0,1.325843229E1
9.704280600E-1,-5.629050255E0,1.094595051E1,8.446949959E0,1.492819490E1
9.723915480E-1,-5.935950279E0,1.236405087E1,8.754000664E0,1.627076480E1
9.743547760E-1,-6.396000385E0,1.374405098E1,9.367050171E0,1.781991546E1
9.763180830E-1,-7.431000233E0,1.516200066E1,9.367050171E0,1.930926351E1
9.782814350E-1,-8.274000168E0,1.612005043E1,9.634950638E0,2.052187561E1
9.802447730E-1,-9.154950142E0,1.734705162E1,9.712050438E0,2.188737617E1
9.822083910E-1,-9.769050598E0,1.803705025E1,9.597000122E0,2.264667619E1
9.841719270E-1,-1.038195038E1,1.811295128E1,9.750000000E0,2.304184015E1
9.861356110E-1,-1.126305008E1,1.815195084E1,9.750000000E0,2.348216592E1
9.880992450E-1,-1.218300056E1,1.795995140E1,9.712050438E0,2.377623353E1
9.900627680E-1,-1.302600098E1,1.765395164E1,1.005705070E1,2.413468415E1
9.920263240E-1,-1.356300068E1,1.711695099E1,9.865050316E0,2.396381055E1
9.939896790E-1,-1.425300026E1,1.635000038E1,1.017195034E1,2.395702616E1
9.959530930E-1,-1.463595104E1,1.543095112E1,9.712050438E0,2.338053120E1
9.979166830E-1,-1.490505028E1,1.466400051E1,9.826950073E0,2.310329809E1
9.998802310E-1,-1.467495060E1,1.359105110E1,9.289950371E0,2.205388907E1
1.001843903E0,-1.425300026E1,1.259400082E1,9.328050613E0,2.118417809E1
1.003807539E0,-1.387005043E1,1.171305084E1,9.098999977E0,2.030678851E1
1.005771106E0,-1.321800041E1,1.067805004E1,8.677050591E0,1.907950457E1
1.007734694E0,-1.256700039E1,9.873000145E0,8.791950226E0,1.824017597E1
1.009698310E0,-1.187700081E1,9.183000565E0,8.562000275E0,1.728289606E1
1.011661952E0,-1.114800072E1,8.493000031E0,8.715000153E0,1.650333897E1
1.013625653E0,-1.042005062E1,7.879950523E0,8.677050591E0,1.568318469E1
1.015589337E0,-9.654000282E0,7.420050144E0,8.791950226E0,1.501849707E1
1.017552671E0,-8.848950386E0,6.844950199E0,8.791950226E0,1.422869126E1
1.019516108E0,-7.966950417E0,6.232050419E0,8.944950104E0,1.350269913E1
1.021479644E0,-6.931950092E0,5.619000435E0,9.634950638E0,1.313230261E1
1.023443164E0,-6.127950191E0,5.311950207E0,1.001805019E1,1.288913955E1
1.025406706E0,-5.706000328E0,5.082000256E0,1.059300041E1,1.306127192E1
1.027370241E0,-5.437950134E0,4.852050304E0,1.105305099E1,1.323947243E1
1.029333825E0,-5.016000271E0,4.239000320E0,1.220295048E1,1.385789965E1
1.031297395E0,-4.633050442E0,3.664050102E0,1.335300064E1,1.460113166E1
1.033260929E0,-4.402950287E0,2.974050045E0,1.469400024E1,1.562512682E1
1.035224474E0,-4.363950253E0,2.590950012E0,1.549905109E1,1.630882180E1
1.037187966E0,-4.402950287E0,2.361000061E0,1.595895100E1,1.672269145E1
1.039151474E0,-4.518000126E0,2.016000032E0,1.645695114E1,1.718452275E1
1.041114837E0,-4.441050053E0,1.708950043E0,1.599705029E1,1.668978890E1
1.043078243E0,-4.594050407E0,1.441050053E0,1.572900105E1,1.644941939E1
1.045041793E0,-4.479000092E0,1.249050021E0,1.457895088E1,1.530252844E1
1.047005308E0,-4.747950077E0,1.249050021E0,1.396605110E1,1.480384204E1
1.048969076E0,-5.016000271E0,1.210950017E0,1.247100067E1,1.349638901E1
1.050932769E0,-5.092950344E0,1.134000063E0,1.132200050E1,1.246642670E1
1.052896462E0,-5.398950100E0,1.173000097E0,9.750000000E0,1.120656466E1
1.054860155E0,-5.553000450E0,1.057950020E0,8.140049934E0,9.910372605E0
1.056823473E0,-5.590950489E0,9.810000658E-1,6.799050331E0,8.857097375E0
1.058786911E0,-5.668050289E0,9.810000658E-1,5.341950417E0,7.850196779E0
1.060750421E0,-5.668050289E0,9.430500269E-1,3.694050074E0,6.830969432E0
1.062713909E0,-5.743950367E0,9.430500269E-1,2.314950228E0,6.264287967E0
1.064678042E0,-5.782950401E0,9.810000658E-1,1.050000072E0,5.958806644E0
1.066641986E0,-5.514000416E0,7.510500550E-1,1.300500035E-1,5.566434206E0
1.068605475E0,-5.590950489E0,7.890000343E-1,-9.420000315E-1,5.724387520E0
1.070569084E0,-5.706000328E0,9.040500522E-1,-1.939050078E0,6.093903630E0
1.072532610E0,-5.629050255E0,8.659500480E-1,-2.782050133E0,6.338444541E0
1.074496161E0,-5.706000328E0,8.280000687E-1,-3.664050102E0,6.831492297E0
1.076459832E0,-5.782950401E0,9.430500269E-1,-4.353000164E0,7.299347171E0
1.078423467E0,-5.629050255E0,9.040500522E-1,-4.429950237E0,7.219970386E0
1.080386956E0,-5.743950367E0,9.810000658E-1,-5.043000221E0,7.706307688E0
1.082350512E0,-5.859000206E0,1.018950105E0,-4.813050270E0,7.650594463E0
1.084314226E0,-6.319050312E0,1.210950017E0,-4.660050392E0,7.944360670E0
1.086277894E0,-6.396000385E0,1.210950017E0,-4.047000408E0,7.665078811E0
1.088241636E0,-6.702000141E0,1.210950017E0,-3.931950092E0,7.864059853E0
1.090205356E0,-7.009050369E0,1.288050056E0,-3.625050068E0,7.995426694E0
1.092168819E0,-7.201050282E0,1.210950017E0,-3.586950064E0,8.135584543E0
1.094132358E0,-7.431000233E0,1.096050024E0,-3.510000229E0,8.291030800E0
1.096096301E0,-7.546050549E0,7.129500508E-1,-3.049950123E0,8.170273705E0
1.098060125E0,-7.660950184E0,3.679500222E-1,-2.859000206E0,8.185317777E0
1.100024516E0,-7.737000465E0,-1.290000081E-1,-2.859000206E0,8.249345391E0
1.101988741E0,-7.852050304E0,-5.509500504E-1,-3.088950157E0,8.455758571E0
1.103951992E0,-7.776000500E0,-1.240950108E0,-3.433950186E0,8.590585243E0
1.105915522E0,-7.852050304E0,-1.893000126E0,-3.817050219E0,8.933533222E0
1.107879376E0,-7.660950184E0,-2.620950222E0,-4.162050247E0,9.103966171E0
1.109843135E0,-7.891050339E0,-3.310950041E0,-5.119950294E0,9.972209216E0
1.111806637E0,-7.813950539E0,-4.192049980E0,-6.193050385E0,1.081595946E1
1.113770214E0,-7.660950184E0,-5.304000378E0,-7.918050289E0,1.222775932E1
1.115733974E0,-7.431000233E0,-6.568950176E0,-1.025595093E1,1.426728427E1
1.117697678E0,-6.664050102E0,-8.062950134E0,-1.198095036E1,1.590483889E1
1.119660828E0,-5.476050377E0,-9.750000000E0,-1.351395035E1,1.754070927E1
1.121624141E0,-3.981000185E0,-1.162800026E1,-1.470195103E1,1.916262290E1
1.123587358E0,-2.371050119E0,-1.327605057E1,-1.566000080E1,2.066666452E1
1.125550603E0,-5.320500135E-1,-1.488600063E1,-1.654200172E1,2.226014180E1
1.127515232E0,1.575000048E0,-1.668704987E1,-1.669500160E1,2.365716249E1
1.129479452E0,3.682950258E0,-1.779900169E1,-1.592805099E1,2.416756902E1
1.131443055E0,6.021000385E0,-1.833495140E1,-1.558305073E1,2.480432137E1
1.133406839E0,8.359050751E0,-1.814295006E1,-1.359000111E1,2.416047384E1
1.135370380E0,1.008405018E1,-1.806705093E1,-1.186605072E1,2.385182503E1
1.137333992E0,1.146405029E1,-1.822005081E1,-1.021800041E1,2.382860116E1
1.139297686E0,1.261395073E1,-1.818195152E1,-6.921000481E0,2.318610277E1
1.141261332E0,1.303500080E1,-1.856505013E1,-4.545000076E0,2.313502448E1
1.143223997E0,1.307400036E1,-1.921695137E1,-1.594050050E0,2.329724664E1
1.145186950E0,1.288200092E1,-1.940805054E1,1.432950020E0,2.333820300E1
1.147150587E0,1.226895046E1,-1.867995071E1,4.461000443E0,2.278965180E1
1.149114024E0,1.119600010E1,-1.776000023E1,7.795050144E0,2.239488408E1
1.151077382E0,1.035195065E1,-1.672500038E1,1.124505043E1,2.265700066E1
1.153040777E0,9.394050598E0,-1.572900105E1,1.434900093E1,2.327108696E1
1.155003934E0,8.053050041E0,-1.461705112E1,1.657200050E1,2.351894979E1
1.156967161E0,6.558000088E0,-1.335300064E1,1.756905174E1,2.302132860E1
1.158930212E0,4.564949989E0,-1.197300053E1,1.703205109E1,2.131389862E1
1.160893315E0,2.802000046E0,-1.074600029E1,1.538400078E1,1.897353964E1
1.162855696E0,1.422000051E0,-9.979950905E0,1.369800091E1,1.700754930E1
1.164818300E0,-3.299999982E-2,-9.175050735E0,1.239495087E1,1.542133107E1
1.166781817E0,-1.183050036E0,-8.370000839E0,1.082295036E1,1.373290850E1
1.168745067E0,-2.103000164E0,-8.101950645E0,8.830050468E0,1.216692259E1
1.170708296E0,-2.869950056E0,-7.872000217E0,7.374000549E0,1.116158075E1
1.172671531E0,-3.367950201E0,-8.101950645E0,5.533950329E0,1.037349021E1
1.174635247E0,-3.865950108E0,-8.752950668E0,3.618000269E0,1.022984074E1
1.176598828E0,-4.018949986E0,-9.711000443E0,2.046000004E0,1.070708198E1
1.178562360E0,-4.173000336E0,-1.082295036E1,1.432950020E0,1.168775137E1
1.180525907E0,-4.479000092E0,-1.185795021E1,7.810500264E-1,1.269970331E1
1.182489487E0,-4.594050407E0,-1.312305069E1,5.899500251E-1,1.391645787E1
1.184453058E0,-4.594050407E0,-1.492395115E1,2.046000004E0,1.574851527E1
1.186416625E0,-5.169000149E0,-1.837305069E1,9.405000687E0,2.127772526E1
1.188380170E0,-6.625950336E0,-2.205300140E1,1.511595058E1,2.754505493E1
1.190343887E0,-8.274000168E0,-2.442900085E1,2.163195038E1,3.366268615E1
1.192307553E0,-8.734050751E0,-2.412300110E1,1.431105042E1,2.937701463E1
1.194271206E0,-8.734050751E0,-2.462100029E1,1.082295036E1,2.827743893E1
1.196234863E0,-8.887050629E0,-2.588595200E1,8.370000839E0,2.862025670E1
1.198198410E0,-1.018995094E1,-2.630700111E1,1.040205002E1,3.006819004E1
1.200161969E0,-1.172295094E1,-2.684400177E1,1.028700066E1,3.104594003E1
1.202125504E0,-1.337100029E1,-2.646105194E1,1.086195087E1,3.157456089E1
1.204089046E0,-1.521105099E1,-2.527200127E1,1.040205002E1,3.127703254E1
1.206052448E0,-1.620795059E1,-2.324100113E1,1.066995049E1,3.027688292E1
1.208015892E0,-1.620795059E1,-2.082600021E1,9.865050316E0,2.817337688E1
1.209979599E0,-1.528800106E1,-1.921695137E1,7.756950378E0,2.575236835E1
1.211943216E0,-1.356300068E1,-1.845000076E1,4.423050404E0,2.332211162E1
1.213907462E0,-1.137795067E1,-1.867995071E1,-4.819500148E-1,2.187762775E1
1.215871524E0,-8.772000313E0,-1.936995125E1,-6.652950287E0,2.228014247E1
1.217834838E0,-6.013050079E0,-2.009805107E1,-1.359000111E1,2.499553076E1
1.219798372E0,-3.445050240E0,-2.071095085E1,-1.918605042E1,2.844145543E1
1.221762077E0,-1.489950061E0,-2.128605080E1,-2.340195084E1,3.166965760E1
1.223725741E0,-4.170000255E-1,-2.143995094E1,-2.447505188E1,3.254033728E1
1.225689573E0,-3.299999982E-2,-2.132505035E1,-2.336400032E1,3.163282113E1
1.227653356E0,-4.930500090E-1,-2.067300034E1,-1.933995056E1,2.831341959E1
1.229616854E0,-1.222050071E0,-1.990695000E1,-1.462500095E1,2.473197763E1
1.231580435E0,-1.642950058E0,-1.914000130E1,-8.914050102E0,2.117780026E1
1.233543845E0,-1.413000107E0,-1.864200020E1,-4.545000076E0,1.924000432E1
1.235507295E0,-7.999500632E-1,-1.833495140E1,-9.810000658E-1,1.837859418E1
1.237470263E0,-7.200000435E-2,-1.798995018E1,3.847950220E0,1.839701640E1
1.239433372E0,5.020500422E-1,-1.764495087E1,9.098999977E0,1.985920809E1
1.241397524E0,1.153950095E0,-1.741500092E1,1.415805054E1,2.247363461E1
1.243361370E0,1.575000048E0,-1.756905174E1,1.764599991E1,2.495062158E1
1.245324511E0,2.074050188E0,-1.768395042E1,1.940895081E1,2.633877670E1
1.247287848E0,2.533950090E0,-1.760700035E1,1.906395149E1,2.607415600E1
1.249251285E0,2.917050123E0,-1.749195099E1,1.883400154E1,2.586884506E1
1.251214692E0,3.376950264E0,-1.737705040E1,1.875705147E1,2.579132904E1
1.253177849E0,3.913050175E0,-1.753005028E1,1.879500008E1,2.599743549E1
1.255141079E0,4.297049999E0,-1.776000023E1,1.776105118E1,2.548209540E1
1.257104489E0,4.564949989E0,-1.818195152E1,1.569105053E1,2.444649661E1
1.259067846E0,5.140050411E0,-1.852695084E1,1.408095074E1,2.383151693E1
1.261031101E0,5.944950104E0,-1.894799995E1,1.366005039E1,2.410323859E1
1.262994386E0,6.750000477E0,-1.925505066E1,1.281600094E1,2.409500700E1
1.264957608E0,7.669050217E0,-1.940805054E1,1.197300053E1,2.405908349E1
1.266920848E0,8.704050064E0,-1.960005188E1,1.116795063E1,2.417944670E1
1.268884091E0,9.700950623E0,-1.952295113E1,1.013295078E1,2.404019042E1
1.270847323E0,1.062105083E1,-1.914000130E1,8.101950645E0,2.334069354E1
1.272810688E0,1.154100037E1,-1.867995071E1,5.572050095E0,2.265354256E1
1.274774014E0,1.234500027E1,-1.806705093E1,1.087950110E0,2.190892504E1
1.276738130E0,1.272900105E1,-1.753005028E1,-3.165000200E0,2.189400275E1
1.278702014E0,1.276695061E1,-1.787505150E1,-5.925000191E0,2.275122241E1
1.280665189E0,1.253700066E1,-1.948500061E1,-6.117000103E0,2.396370849E1
1.282628564E0,1.238400078E1,-2.224500084E1,-4.200000286E0,2.580394427E1
1.284591004E0,1.196205044E1,-2.511900139E1,-1.249050021E0,2.784986548E1
1.286553718E0,1.150200081E1,-2.741895103E1,1.855050087E0,2.979154426E1
1.288517082E0,1.142595100E1,-2.902800179E1,4.690950394E0,3.154650947E1
1.290480255E0,1.138695049E1,-3.002505112E1,6.646050453E0,3.279232109E1
1.292443622E0,1.115700054E1,-3.067695236E1,7.909950256E0,3.358751822E1
1.294406938E0,1.088895035E1,-3.071505165E1,8.254950523E0,3.361737416E1
1.296370695E0,1.115700054E1,-3.060000229E1,8.409000397E0,3.363852091E1
1.298334323E0,1.131105042E1,-2.994795227E1,7.642050266E0,3.291231744E1
1.300297531E0,1.134900093E1,-2.906700134E1,6.837000370E0,3.194424773E1
1.302260863E0,1.134900093E1,-2.810895157E1,5.419050217E0,3.079414044E1
1.304224077E0,1.096605015E1,-2.711205101E1,4.039050102E0,2.952340583E1
1.306187325E0,1.004595089E1,-2.603895187E1,2.545050144E0,2.802544244E1
1.308151273E0,9.010950089E0,-2.504205132E1,1.240950108E0,2.664285106E1
1.310115015E0,8.091000557E0,-2.408400154E1,-1.759500057E-1,2.540736859E1
1.312078114E0,7.056000233E0,-2.324100113E1,-1.939050078E0,2.436577903E1
1.314041402E0,5.791050434E0,-2.262795067E1,-4.047000408E0,2.370524475E1
1.316004797E0,4.335000038E0,-2.205300140E1,-5.962950230E0,2.325261000E1
1.317968164E0,2.839950085E0,-2.124795151E1,-7.687950134E0,2.277378618E1
1.319930516E0,1.306950092E0,-2.048100090E1,-9.298050880E0,2.253071829E1
1.321893166E0,4.200000316E-2,-1.983000183E1,-1.067805004E1,2.252224432E1
1.323856856E0,-1.106999993E0,-1.933200073E1,-1.190400028E1,2.273008852E1
1.325820241E0,-2.256000042E0,-1.825800133E1,-1.301595020E1,2.253572959E1
1.327783358E0,-3.214950085E0,-1.726200104E1,-1.401195049E1,2.246435711E1
1.329746584E0,-4.210950375E0,-1.641900063E1,-1.447200108E1,2.228799003E1
1.331709860E0,-4.747950077E0,-1.569000053E1,-1.470195103E1,2.201968462E1
1.333673121E0,-5.553000450E0,-1.515405083E1,-1.508505058E1,2.209162333E1
1.335636482E0,-6.396000385E0,-1.461705112E1,-1.489395046E1,2.182651518E1
1.337599813E0,-6.894000530E0,-1.438695049E1,-1.454895115E1,2.159128452E1
1.339563042E0,-7.123950481E0,-1.457895088E1,-1.416495037E1,2.153931982E1
1.341526291E0,-7.354050159E0,-1.450200081E1,-1.428000069E1,2.164043671E1
1.343489562E0,-7.468950272E0,-1.469400024E1,-1.443405056E1,2.190983060E1
1.345452827E0,-6.970950127E0,-1.503900051E1,-1.497000027E1,2.233532158E1
1.347416413E0,-6.586950302E0,-1.523100090E1,-1.612005043E1,2.313498063E1
1.349379904E0,-5.743950367E0,-1.546095085E1,-1.730805016E1,2.390821129E1
1.351343240E0,-4.555950165E0,-1.591995049E1,-1.838100052E1,2.473990068E1
1.353306612E0,-2.830950022E0,-1.657200050E1,-1.945500183E1,2.571269288E1
1.355271080E0,-9.919500351E-1,-1.737705040E1,-2.025900078E1,2.670904263E1
1.357235226E0,8.850000501E-1,-1.818195152E1,-2.087295151E1,2.769560779E1
1.359198661E0,2.419050217E0,-1.867995071E1,-2.121795082E1,2.837241265E1
1.361162305E0,3.874950171E0,-1.891005135E1,-2.140905190E1,2.882625164E1
1.363125719E0,5.062950134E0,-1.898700142E1,-2.156295013E1,2.917362688E1
1.365089180E0,5.944950104E0,-1.883295059E1,-2.140905190E1,2.912679115E1
1.367052731E0,6.595950127E0,-1.845000076E1,-2.129400063E1,2.893688907E1
1.369016255E0,7.095000267E0,-1.795200157E1,-2.106405067E1,2.857109763E1
1.370979796E0,7.554000378E0,-1.733895111E1,-2.064300156E1,2.799706521E1
1.372943332E0,7.899000168E0,-1.668704987E1,-2.002905083E1,2.723994702E1
1.374906837E0,8.282999992E0,-1.607400131E1,-1.930095100E1,2.644821954E1
1.376870375E0,8.781000137E0,-1.538400078E1,-1.853505135E1,2.563828332E1
1.378833734E0,9.471000671E0,-1.484700108E1,-1.757595062E1,2.488066187E1
1.380797146E0,1.012200069E1,-1.438695049E1,-1.650300026E1,2.412028731E1
1.382760840E0,1.088895035E1,-1.377405071E1,-1.550700092E1,2.342564386E1
1.384724452E0,1.161705017E1,-1.323795033E1,-1.424205112E1,2.265028043E1
1.386687941E0,1.238400078E1,-1.285395050E1,-1.305405045E1,2.211324833E1
1.388651493E0,1.295895100E1,-1.254795074E1,-1.163595009E1,2.146580568E1
1.390615208E0,1.372500038E1,-1.201095104E1,-1.052400017E1,2.105690290E1
1.392578875E0,1.441500092E1,-1.166595078E1,-8.914050102E0,2.057539667E1
1.394542393E0,1.514295101E1,-1.124400043E1,-7.420050144E0,2.026804518E1
1.396505954E0,1.567995071E1,-1.101495075E1,-5.733000278E0,2.000143212E1
1.398469353E0,1.614000130E1,-1.082295036E1,-3.931950092E0,1.982665196E1
1.400432800E0,1.660004997E1,-1.070805073E1,-1.900950074E0,1.984534254E1
1.402395588E0,1.686795044E1,-1.040100002E1,3.220500052E-1,1.981949217E1
1.404358570E0,1.744305038E1,-1.013295078E1,2.200050116E0,2.029228718E1
1.406321887E0,1.767300034E1,-9.673050880E0,3.924000263E0,2.052560918E1
1.408285106E0,1.782600021E1,-9.250950813E0,6.186000347E0,2.101458957E1
1.410248673E0,1.805595016E1,-8.523000717E0,7.527000427E0,2.133810238E1
1.412212125E0,1.817100143E1,-7.795050144E0,8.869050026E0,2.167044412E1
1.414175499E0,1.817100143E1,-7.143000126E0,9.289950371E0,2.162200087E1
1.416138896E0,1.821000099E1,-6.607050419E0,9.481950760E0,2.156767585E1
1.418101963E0,1.817100143E1,-5.955000401E0,9.252000809E0,2.124257145E1
1.420065127E0,1.809495163E1,-5.304000378E0,8.715000153E0,2.077284097E1
1.422028503E0,1.805595016E1,-4.614000320E0,7.335000515E0,2.002769502E1
1.423991817E0,1.767300034E1,-3.886050224E0,6.147000313E0,1.911078073E1
1.425954854E0,1.759605026E1,-3.271950245E0,4.231050014E0,1.839098767E1
1.427917973E0,1.732800102E1,-2.736000061E0,2.736000061E0,1.775474619E1
1.429882123E0,1.705994987E1,-2.314050198E0,4.360500276E-1,1.722169729E1
1.431845971E0,1.663800049E1,-1.816050053E0,-9.420000315E-1,1.676330702E1
1.433809313E0,1.633095169E1,-1.356000066E0,-3.433950186E0,1.674308016E1
1.435772810E0,1.594800091E1,-1.087950110E0,-5.119950294E0,1.678500103E1
1.437736176E0,1.541205120E1,-6.280500293E-1,-6.538050175E0,1.675326443E1
1.439699580E0,1.487505054E1,-4.360500276E-1,-7.381050587E0,1.661135684E1
1.441662916E0,1.453005028E1,-2.440500110E-1,-7.956000328E0,1.656743380E1
1.443626272E0,1.453005028E1,-1.290000081E-1,-8.148000717E0,1.665919919E1
1.445588625E0,1.410795021E1,6.105000153E-2,-8.185950279E0,1.631097079E1
1.447551272E0,1.353405094E1,4.440000355E-1,-8.340000153E0,1.590356166E1
1.449514557E0,1.295895100E1,7.129500508E-1,-8.071050644E0,1.528347366E1
1.451477655E0,1.230705070E1,8.280000687E-1,-7.420050144E0,1.439465961E1
1.453440908E0,1.177005100E1,8.659500480E-1,-6.307950497E0,1.338186121E1
1.455404116E0,1.134900093E1,1.018950105E0,-5.503050327E0,1.265391814E1
1.457367711E0,1.035195065E1,1.173000097E0,-3.280050039E0,1.092234131E1
1.459331193E0,1.004595089E1,1.210950017E0,-1.900950074E0,1.029568552E1
1.461294562E0,9.739050865E0,1.134000063E0,-2.092050076E0,1.002555442E1
1.463257964E0,8.628000259E0,8.280000687E-1,-1.171950102E0,8.746510140E0
1.465220490E0,7.324050426E0,5.209500194E-1,-9.900000691E-2,7.343221675E0
1.467183272E0,6.136050224E0,-1.500000060E-2,3.600000143E-1,6.146619995E0
1.469147405E0,5.178000450E0,-2.440500110E-1,1.279950023E0,5.339430787E0
1.471111163E0,4.105050087E0,-4.740000367E-1,1.740000129E0,4.483716394E0
1.473074305E0,3.376950264E0,-8.959500194E-1,2.506050110E0,4.299628667E0
1.475037627E0,2.457000017E0,-9.730500579E-1,3.157950163E0,4.117805815E0
1.477000706E0,1.459950089E0,-8.959500194E-1,3.081000090E0,3.525158472E0
1.478963857E0,1.039050102E0,-9.340500236E-1,2.620950222E0,2.970093370E0
1.480926015E0,3.109500110E-1,-8.959500194E-1,2.161050081E0,2.359990212E0
1.482888468E0,-1.480500102E-1,-9.340500236E-1,1.510050058E0,1.781746175E0
1.484852552E0,-6.850500107E-1,-9.340500236E-1,8.959500194E-1,1.464400697E0
1.486816158E0,-1.375050068E0,-9.730500579E-1,1.680000126E-1,1.692871262E0
1.488779820E0,-1.911000133E0,-1.087950110E0,-4.060500264E-1,2.236164925E0
1.490743466E0,-2.563050032E0,-1.087950110E0,-8.659500480E-1,2.915944168E0
1.492706666E0,-3.138000250E0,-1.203000069E0,-1.671000123E0,3.753198122E0
1.494670001E0,-3.636000156E0,-1.279050112E0,-2.514000177E0,4.601810863E0
1.496633573E0,-4.210950375E0,-1.393950105E0,-3.433950186E0,5.609564496E0
1.498597076E0,-4.594050407E0,-1.624050021E0,-4.353000164E0,6.533869301E0
1.500560441E0,-4.978050232E0,-1.893000126E0,-5.197050095E0,7.441354935E0
1.502523847E0,-5.437950134E0,-2.275950193E0,-5.580000401E0,8.117121129E0
1.504487547E0,-5.361000061E0,-2.889000177E0,-5.388000488E0,8.131247933E0
1.506451158E0,-5.131050110E0,-3.694050074E0,-4.852050304E0,7.969697192E0
1.508414685E0,-4.747950077E0,-4.537050247E0,-3.739950180E0,7.557452099E0
1.510378237E0,-4.249050140E0,-5.572050095E0,-2.206950188E0,7.346618166E0
1.512341052E0,-3.751050234E0,-6.607050419E0,-6.360000372E-1,7.624171374E0
1.514304083E0,-3.253050089E0,-7.603050232E0,7.050000429E-1,8.299742934E0
1.516267601E0,-2.677950144E0,-8.638050079E0,1.585950017E0,9.181642751E0
1.518230956E0,-2.103000164E0,-9.520050049E0,1.663050056E0,9.890384123E0
1.520194346E0,-1.795950055E0,-1.044000053E1,1.510050058E0,1.070043452E1
1.522157726E0,-1.375050068E0,-1.139805031E1,1.471050024E0,1.157455406E1
1.524121247E0,-7.230000496E-1,-1.262400055E1,1.855050087E0,1.278003638E1
1.526084726E0,-1.099500060E-1,-1.385100079E1,2.200050116E0,1.402506800E1
1.528048625E0,1.345050097E0,-1.588200092E1,3.541050196E0,1.632746611E1
1.530012408E0,2.494950056E0,-1.791300011E1,2.773950100E0,1.829740823E1
1.531975410E0,2.686950207E0,-1.875705147E1,8.179050446E0,2.063839983E1
1.533938641E0,4.488000393E0,-2.147805023E1,4.690950394E0,2.243777629E1
1.535902006E0,5.293050289E0,-2.324100113E1,6.109050274E0,2.460652373E1
1.537865331E0,6.673050404E0,-2.580900192E1,2.659050226E0,2.679001176E1
1.539829478E0,7.899000168E0,-2.837700081E1,-1.402050018E0,2.948922045E1
1.541793394E0,9.547050476E0,-3.056205177E1,-5.235000134E0,3.244364973E1
1.543756509E0,1.100400066E1,-3.324495316E1,-8.799000740E0,3.610730335E1
1.545719858E0,1.238400078E1,-3.604199982E1,-1.224900055E1,4.003032901E1
1.547683023E0,1.341900063E1,-3.941505051E1,-1.588995075E1,4.456575276E1
1.549646242E0,1.407000065E1,-4.263495255E1,-1.987605095E1,4.909950609E1
1.551609454E0,1.295895100E1,-4.566300201E1,-2.175405121E1,5.221381913E1
1.553572682E0,1.200000095E1,-4.861395264E1,-2.390100098E1,5.548490120E1
1.555535734E0,1.054395008E1,-5.102895355E1,-2.405400085E1,5.739097439E1
1.557498838E0,9.739050865E0,-5.348205185E1,-2.501205063E1,5.983963284E1
1.559462449E0,8.282999992E0,-5.562795258E1,-2.436000061E1,6.129018540E1
1.561425912E0,7.210050106E0,-5.773605347E1,-2.263605118E1,6.243258368E1
1.563389354E0,6.595950127E0,-5.946105194E1,-2.332605171E1,6.421236598E1
1.565352785E0,5.944950104E0,-6.061005402E1,-2.321100044E1,6.517416375E1
1.567316296E0,5.025000095E0,-6.168405151E1,-2.424495125E1,6.646796595E1
1.569279783E0,3.837000132E0,-6.268005371E1,-2.447505188E1,6.739836695E1
1.571243196E0,2.725050211E0,-6.317805481E1,-2.501205063E1,6.800364097E1
1.573206631E0,2.380050182E0,-6.360000229E1,-2.432205200E1,6.813359776E1
1.575170001E0,2.457000017E0,-6.413700104E1,-2.305695152E1,6.819981499E1
1.577133362E0,3.147000074E0,-6.475005341E1,-1.983795166E1,6.779393300E1
1.579096795E0,3.453000069E0,-6.551595306E1,-1.470195103E1,6.723399943E1
1.581060206E0,3.760050297E0,-6.589995575E1,-1.010295010E1,6.677583206E1
1.583023766E0,3.376950264E0,-6.570795441E1,-5.388000488E0,6.601491964E1
1.584987283E0,2.341950178E0,-6.501795197E1,-7.890000343E-1,6.506490090E1
1.586948974E0,1.230000019E0,-6.379200363E1,2.736000061E0,6.386249544E1
1.588911203E0,1.570500135E-1,-6.229695129E1,5.496000290E0,6.253911436E1
1.590874830E0,-1.144950032E0,-6.026505280E1,6.492000103E0,6.062452939E1
1.592838047E0,-2.640000105E0,-5.716095352E1,6.186000347E0,5.755528480E1
1.594801641E0,-3.981000185E0,-5.336700439E1,5.496000290E0,5.379676142E1
1.596765124E0,-4.671000004E0,-4.834605408E1,4.768050194E0,4.880464618E1
1.598728797E0,-4.939050198E0,-4.297995377E1,4.345950127E0,4.348054651E1
1.600692422E0,-4.939050198E0,-3.864900208E1,3.426000118E0,3.911364283E1
1.602655811E0,-5.245950222E0,-3.477795029E1,2.583000183E0,3.526609859E1
1.604619270E0,-5.245950222E0,-3.132795143E1,2.238000154E0,3.184288271E1
1.606582597E0,-4.900950432E0,-2.837700081E1,2.430000067E0,2.889945312E1
1.608545963E0,-4.633050442E0,-2.577105141E1,2.659050226E0,2.631886766E1
1.610509556E0,-5.053950310E0,-2.343300056E1,2.773950100E0,2.413177839E1
1.612473095E0,-5.169000149E0,-2.159295082E1,3.463950157E0,2.247160516E1
1.614436769E0,-4.671000004E0,-2.032800102E1,4.614000320E0,2.136199582E1
1.616400403E0,-3.904950142E0,-1.936995125E1,5.686950207E0,2.056173751E1
1.618363971E0,-2.985000134E0,-1.825800133E1,7.182000160E0,1.984555277E1
1.620327559E0,-1.873050094E0,-1.737705040E1,8.638950348E0,1.949619605E1
1.622291263E0,-1.068000078E0,-1.657200050E1,9.442950249E0,1.910343253E1
1.624254937E0,-5.700000525E-1,-1.599705029E1,9.942000389E0,1.884340441E1
1.626218948E0,-2.629500031E-1,-1.565205097E1,1.036305046E1,1.877361599E1
1.628182860E0,4.050000105E-3,-1.534605026E1,1.090005016E1,1.882318699E1
1.630146560E0,1.960500032E-1,-1.496205044E1,1.132200050E1,1.876403699E1
1.632110323E0,1.189500093E-1,-1.431105042E1,1.174305058E1,1.851268619E1
1.634073823E0,-2.629500031E-1,-1.339095020E1,1.212600040E1,1.806727915E1
1.636037400E0,-7.999500632E-1,-1.239405060E1,1.239495087E1,1.754671529E1
1.638000932E0,-1.489950061E0,-1.120605087E1,1.258605099E1,1.691757095E1
1.639964477E0,-2.218050003E0,-9.940950394E0,1.281600094E1,1.637046489E1
1.641928149E0,-2.869950056E0,-8.868000031E0,1.289295101E1,1.590931248E1
1.643891783E0,-3.406050205E0,-7.680000305E0,1.300800037E1,1.548520766E1
1.645855365E0,-3.790050268E0,-6.760050297E0,1.258605099E1,1.478077943E1
1.647818953E0,-4.018949986E0,-6.376950264E0,1.185795021E1,1.405092299E1
1.649782797E0,-4.441050053E0,-5.227050304E0,1.239495087E1,1.416614935E1
1.651746566E0,-4.708950043E0,-4.575000286E0,1.197300053E1,1.365494708E1
1.653709886E0,-5.016000271E0,-3.961950302E0,1.105305099E1,1.276821229E1
1.655673337E0,-5.284050465E0,-3.118950129E0,1.051695061E1,1.217601287E1
1.657636956E0,-5.208000183E0,-2.275950193E0,9.673050880E0,1.121923030E1
1.659600510E0,-4.708950043E0,-1.393950105E0,9.442950249E0,1.064361860E1
1.661563146E0,-4.518000126E0,-3.979500234E-1,9.098999977E0,1.016673448E1
1.663526051E0,-3.943050146E0,4.830000103E-1,9.175050735E0,9.998124297E0
1.665489336E0,-3.214950085E0,1.824000120E0,9.673050880E0,1.035523026E1
1.667452510E0,-2.640000105E0,3.166050196E0,9.865050316E0,1.069171138E1
1.669415926E0,-2.332950115E0,4.468950272E0,9.558000565E0,1.080599591E1
1.671379274E0,-2.179949999E0,6.424050331E0,8.791950226E0,1.110490853E1
1.673342981E0,-1.911000133E0,7.803000450E0,9.405000687E0,1.236902484E1
1.675306582E0,-2.179949999E0,8.877000809E0,9.328050613E0,1.306008628E1
1.677270111E0,-2.908050060E0,1.048605061E1,9.597000122E0,1.450918412E1
1.679233661E0,-3.828000069E0,1.201905060E1,9.865050316E0,1.601344371E1
1.681197197E0,-4.518000126E0,1.328400040E1,1.009500027E1,1.728542803E1
1.683160738E0,-6.088950157E0,1.493205070E1,1.040205002E1,1.918968725E1
1.685124141E0,-7.276950359E0,1.592895031E1,1.055505085E1,2.044736078E1
1.687087584E0,-8.503950119E0,1.715505028E1,1.097700024E1,2.207051091E1
1.689051318E0,-9.538950920E0,1.795995140E1,1.101495075E1,2.312748536E1
1.691014967E0,-1.072695065E1,1.857299995E1,1.178100014E1,2.447071232E1
1.692978287E0,-1.183800030E1,1.876500130E1,1.147500038E1,2.497877416E1
1.694941718E0,-1.294995022E1,1.864995003E1,1.166595078E1,2.552677524E1
1.696905229E0,-1.394595051E1,1.811295128E1,1.182000065E1,2.573481989E1
1.698868716E0,-1.486605072E1,1.738500023E1,1.220295048E1,2.592584998E1
1.700831904E0,-1.563300037E1,1.646505165E1,1.208805084E1,2.572177287E1
1.702795180E0,-1.620795059E1,1.543095112E1,1.201095104E1,2.539832396E1
1.704758568E0,-1.655294991E1,1.439595032E1,1.189605045E1,2.495515082E1
1.706721933E0,-1.670595169E1,1.320795059E1,1.159005070E1,2.424599051E1
1.708685366E0,-1.670595169E1,1.201905060E1,1.120695019E1,2.343378185E1
1.710648779E0,-1.651395035E1,1.087005043E1,1.093800068E1,2.259443319E1
1.712612115E0,-1.616895103E1,9.643050194E0,1.055505085E1,2.158315299E1
1.714575473E0,-1.574805069E1,8.569950104E0,1.044000053E1,2.074701801E1
1.716539096E0,-1.536405087E1,7.687950134E0,1.001805019E1,1.988768378E1
1.718502635E0,-1.482795048E1,6.807000160E0,9.712050438E0,1.898755619E1
1.720465994E0,-1.425300026E1,6.079050064E0,9.520050049E0,1.818609961E1
1.722429406E0,-1.360095024E1,5.311950207E0,9.405000687E0,1.736826705E1
1.724392561E0,-1.283505058E1,4.699050426E0,9.252000809E0,1.650512397E1
1.726355791E0,-1.210695076E1,4.123950005E0,9.022050858E0,1.565192071E1
1.728319035E0,-1.153200054E1,3.664050102E0,9.060000420E0,1.511608108E1
1.730282265E0,-1.103295040E1,3.433950186E0,8.830050468E0,1.454262011E1
1.732245316E0,-1.026705074E1,3.051000118E0,8.944950104E0,1.395467897E1
1.734208420E0,-9.615000725E0,2.590950012E0,9.252000809E0,1.359267376E1
1.736172077E0,-8.964000702E0,2.208000183E0,9.787950516E0,1.345483366E1
1.738135572E0,-8.464950562E0,2.016000032E0,1.024800014E1,1.344400056E1
1.740099234E0,-8.158950806E0,1.939050078E0,1.116795063E1,1.396608445E1
1.742062861E0,-7.546050549E0,1.555950046E0,1.273995018E1,1.488859261E1
1.744026610E0,-7.239000320E0,1.363950014E0,1.404300022E1,1.585778485E1
1.745990323E0,-7.354050159E0,1.402950048E0,1.526895046E1,1.700562174E1
1.747954012E0,-7.201050282E0,1.518000126E0,1.584405041E1,1.746978485E1
1.749917709E0,-7.009050369E0,1.518000126E0,1.584405041E1,1.739152221E1
1.751881327E0,-7.123950481E0,1.479000092E0,1.553805065E1,1.715718887E1
1.753844988E0,-7.276950359E0,1.594050050E0,1.511595058E1,1.685191277E1
1.755808685E0,-7.239000320E0,1.633050084E0,1.434900093E1,1.615437420E1
1.757772371E0,-7.507050514E0,1.863000035E0,1.358295059E1,1.563083886E1
1.759735750E0,-7.813950539E0,2.169000149E0,1.254795074E1,1.494032973E1
1.761699219E0,-8.121000290E0,2.476050138E0,1.109205055E1,1.396835908E1
1.763662948E0,-8.082000732E0,2.551950216E0,9.979950905E0,1.309315110E1
1.765626601E0,-7.929000378E0,2.629050016E0,8.064000130E0,1.161072991E1
1.767590481E0,-7.776000500E0,2.667000055E0,6.339000225E0,1.038084760E1
1.769554294E0,-7.621950150E0,2.706000090E0,4.269000053E0,9.145541101E0
1.771517921E0,-7.507050514E0,2.706000090E0,2.506050110E0,8.364121655E0
1.773481603E0,-7.621950150E0,2.859000206E0,1.930950046E0,8.366395540E0
1.775445853E0,-7.354050159E0,2.935950041E0,8.200500607E-1,7.960800116E0
1.777409957E0,-6.856050491E0,2.974050045E0,-4.819500148E-1,7.488836881E0
1.779373354E0,-6.549000263E0,3.012000084E0,-1.632000089E0,7.390870939E0
1.781336959E0,-6.357000351E0,2.974050045E0,-2.551950216E0,7.467856255E0
1.783300531E0,-5.935950279E0,2.782050133E0,-3.625050068E0,7.491081140E0
1.785264113E0,-5.743950367E0,2.743950129E0,-4.009050369E0,7.522945765E0
1.787227658E0,-5.553000450E0,2.743950129E0,-4.698000431E0,7.774077717E0
1.789191204E0,-5.361000061E0,2.743950129E0,-5.158050060E0,7.929379824E0
1.791154875E0,-5.245950222E0,2.706000090E0,-5.542050362E0,8.096712446E0
1.793118509E0,-5.131050110E0,2.551950216E0,-5.503050327E0,7.945041727E0
1.795081717E0,-5.245950222E0,2.514000177E0,-6.078000069E0,8.413220279E0
1.797045050E0,-5.245950222E0,2.284050226E0,-5.809950352E0,8.154287354E0
1.799008462E0,-5.398950100E0,2.053950071E0,-5.272950172E0,7.821213243E0
1.800971837E0,-5.361000061E0,1.671000123E0,-4.890000343E0,7.446117540E0
1.802935539E0,-5.323050022E0,1.288050056E0,-4.392000198E0,7.020227933E0
1.804899145E0,-5.476050377E0,7.890000343E-1,-4.237950325E0,6.969208832E0
1.806863753E0,-5.514000416E0,2.530499995E-1,-3.510000229E0,6.541279423E0
1.808828068E0,-5.590950489E0,-9.105000645E-2,-3.204000235E0,6.444581831E0
1.810791660E0,-5.706000328E0,-3.210000098E-1,-2.782050133E0,6.356200413E0
1.812755460E0,-5.821050167E0,-8.580000401E-1,-2.169000149E0,6.270992805E0
1.814718953E0,-5.898000240E0,-1.509000063E0,-1.977000117E0,6.400938797E0
1.816682536E0,-5.974050522E0,-2.275950193E0,-2.322000027E0,6.801537550E0
1.818645932E0,-5.859000206E0,-3.349050045E0,-3.702000141E0,7.697325812E0
1.820609383E0,-6.013050079E0,-4.614000320E0,-6.768000126E0,1.016127925E1
1.822572765E0,-6.051000118E0,-6.147000313E0,-1.063905048E1,1.369633566E1
1.824536161E0,-5.323050022E0,-8.140049934E0,-1.397400093E1,1.702550958E1
1.826499723E0,-3.483000278E0,-1.021005058E1,-1.615800095E1,1.942826339E1
1.828463236E0,-9.919500351E-1,-1.212600040E1,-1.761495018E1,2.140818349E1
1.830427815E0,1.345050097E0,-1.427205086E1,-1.753800011E1,2.265131438E1
1.832392082E0,2.649000168E0,-1.526895046E1,-1.608195114E1,2.233354434E1
1.834355828E0,4.564949989E0,-1.660995102E1,-1.592805099E1,2.346128832E1
1.836319747E0,6.289950371E0,-1.768395042E1,-1.424205112E1,2.356101862E1
1.838283220E0,8.473950386E0,-1.841205025E1,-1.293900108E1,2.404639637E1
1.840246824E0,1.073595047E1,-1.867995071E1,-1.125195026E1,2.430653361E1
1.842209991E0,1.238400078E1,-1.864200020E1,-9.028950691E0,2.413316385E1
1.844173286E0,1.326495075E1,-1.871805000E1,-5.962950230E0,2.370403109E1
1.846135809E0,1.360995102E1,-1.875705147E1,-2.475000143E0,2.330629469E1
1.848098573E0,1.330395031E1,-1.902495003E1,1.087950110E0,2.324064226E1
1.850062018E0,1.326495075E1,-1.994505119E1,4.231050014E0,2.432418076E1
1.852025264E0,1.303500080E1,-1.998300171E1,7.603950500E0,2.504099971E1
1.853988672E0,1.276695061E1,-1.948500061E1,1.093800068E1,2.573519255E1
1.855952033E0,1.280505085E1,-1.883295059E1,1.385100079E1,2.665519796E1
1.857915486E0,1.215405083E1,-1.798995018E1,1.672605133E1,2.740656951E1
1.859878898E0,1.050600052E1,-1.676399994E1,1.871895027E1,2.723613115E1
1.861842279E0,8.512949944E0,-1.538400078E1,1.971495056E1,2.641622744E1
1.863805669E0,6.289950371E0,-1.377405071E1,1.921695137E1,2.446587764E1
1.865769367E0,4.105050087E0,-1.243305016E1,1.779900169E1,2.209607734E1
1.867732975E0,2.111999989E0,-1.109100056E1,1.626600075E1,1.980034388E1
1.869695621E0,7.699500322E-1,-1.005600071E1,1.411905098E1,1.735118365E1
1.871658535E0,-4.549500346E-1,-9.366000175E0,1.185795021E1,1.511753690E1
1.873622180E0,-1.452000022E0,-8.868000031E0,1.013295078E1,1.354350103E1
1.875585610E0,-2.026050091E0,-8.715000153E0,8.370000839E0,1.225206189E1
1.877549033E0,-2.524950027E0,-9.175050735E0,6.301050186E0,1.141315741E1
1.879512458E0,-2.830950022E0,-9.979950905E0,4.614000320E0,1.135353236E1
1.881476150E0,-3.253050089E0,-1.128300095E1,3.157950163E0,1.215981474E1
1.883439763E0,-3.598050117E0,-1.273905087E1,2.122950077E0,1.340657669E1
1.885403110E0,-3.712950230E0,-1.434900093E1,1.585950017E0,1.490620893E1
1.887366535E0,-3.751050234E0,-1.638000107E1,1.395000100E0,1.686181598E1
1.889329958E0,-3.865950108E0,-2.262795067E1,1.258605099E1,2.617973264E1
1.891293381E0,-9.385050774E0,-3.332100296E1,3.485505295E1,4.912477107E1
1.893257118E0,-1.528800106E1,-3.213300323E1,1.431105042E1,3.835438746E1
1.895220763E0,-1.245195103E1,-2.661405182E1,8.332050323E0,3.054147837E1
1.897185500E0,-8.809950829E0,-3.082995224E1,-5.970000029E-1,3.206957433E1
1.899149917E0,-9.462000847E0,-3.025500107E1,-6.921000481E0,3.244679949E1
1.901113486E0,-1.034400082E1,-2.979495049E1,-9.643050194E0,3.298068896E1
1.903077304E0,-8.925000191E0,-3.086805153E1,-1.148205090E1,3.412227610E1
1.905040785E0,-8.389050484E0,-3.037005234E1,-1.029405022E1,3.314639825E1
1.907004372E0,-8.925000191E0,-2.868405151E1,-9.144000053E0,3.140132444E1
1.908967722E0,-9.193950653E0,-2.642205048E1,-6.001950264E0,2.861253024E1
1.910931141E0,-9.154950142E0,-2.473605156E1,-3.204000235E0,2.656973798E1
1.912894744E0,-8.427000046E0,-2.442900085E1,-4.819500148E-1,2.584613488E1
1.914858293E0,-6.204000473E0,-2.542605209E1,9.195000678E-2,2.617216464E1
1.916822190E0,-3.865950108E0,-2.569395065E1,-2.704950094E0,2.612357987E1
1.918785985E0,-1.834950089E0,-2.561700058E1,-5.848050117E0,2.634003513E1
1.920750201E0,4.200000316E-2,-2.584695053E1,-8.991000175E0,2.736612322E1
1.922714293E0,1.384050012E0,-2.607705116E1,-1.152105045E1,2.854229835E1
1.924677693E0,2.074050188E0,-2.600100136E1,-1.152105045E1,2.851470427E1
1.926641295E0,2.494950056E0,-2.546400070E1,-1.010295010E1,2.750835706E1
1.928604896E0,2.074050188E0,-2.446800041E1,-6.768000126E0,2.547136734E1
1.930568477E0,1.422000051E0,-2.297295189E1,-4.162050247E0,2.339019591E1
1.932531061E0,1.039050102E0,-2.151600075E1,-9.810000658E-1,2.156340127E1
1.934493938E0,9.619500637E-1,-2.009805107E1,1.740000129E0,2.019615323E1
1.936457409E0,1.345050097E0,-1.929300117E1,3.579000235E0,1.966820523E1
1.938420706E0,1.996950150E0,-1.848795128E1,5.112000465E0,1.928534939E1
1.940384175E0,2.686950207E0,-1.783695030E1,6.876000404E0,1.930429691E1
1.942347576E0,3.376950264E0,-1.707000160E1,8.715000153E0,1.946124291E1
1.944311273E0,4.027950287E0,-1.630395126E1,1.051695061E1,1.981538444E1
1.946274883E0,4.603050232E0,-1.569000053E1,1.185795021E1,2.019839527E1
1.948238410E0,5.178000450E0,-1.542195034E1,1.281600094E1,2.070985565E1
1.950201962E0,5.868000507E0,-1.526895046E1,1.331505108E1,2.109181982E1
1.952165368E0,6.520050526E0,-1.515405083E1,1.350600052E1,2.132060893E1
1.954128814E0,6.750000477E0,-1.500105095E1,1.404300022E1,2.162868214E1
1.956092007E0,7.095000267E0,-1.503900051E1,1.477095032E1,2.224166222E1
1.958055275E0,7.861050606E0,-1.565205097E1,1.515405083E1,2.316091692E1
1.960019039E0,8.704050064E0,-1.638000107E1,1.511595058E1,2.392816091E1
1.961982658E0,9.318000793E0,-1.699394989E1,1.557600117E1,2.486425716E1
1.963946397E0,1.000695038E1,-1.741500092E1,1.599705029E1,2.567736222E1
1.965910076E0,1.065900040E1,-1.776000023E1,1.684095001E1,2.669549578E1
1.967873591E0,1.131105042E1,-1.802805138E1,1.810605049E1,2.794243301E1
1.969837155E0,1.146405029E1,-1.837305069E1,1.883400154E1,2.870040165E1
1.971801049E0,1.173195076E1,-1.867995071E1,1.695600128E1,2.782238679E1
1.973764846E0,1.238400078E1,-1.887195015E1,1.599705029E1,2.766621759E1
1.975728122E0,1.299705029E1,-1.894799995E1,1.569105053E1,2.782371444E1
1.977691578E0,1.307400036E1,-1.845000076E1,1.128300095E1,2.527129051E1
1.979654905E0,1.303500080E1,-1.776000023E1,5.956050396E0,2.282111720E1
1.981618270E0,1.311195087E1,-1.714695168E1,1.395000100E0,2.163070116E1
1.983582739E0,1.272900105E1,-1.680195045E1,-2.590050220E0,2.123773450E1
1.985546884E0,1.215405083E1,-1.726200104E1,-5.272950172E0,2.176009271E1
1.987510485E0,1.127205086E1,-1.891005135E1,-4.237950325E0,2.241895170E1
1.989474256E0,1.039095020E1,-2.117100143E1,-3.817050219E0,2.389043784E1
1.991438114E0,9.471000671E0,-2.335605049E1,-2.704950094E0,2.534801182E1
1.993401947E0,9.088050842E0,-2.561700058E1,-1.759500057E-1,2.718187531E1
1.995364760E0,8.091000557E0,-2.703495216E1,1.050000072E0,2.823925333E1
1.997327872E0,6.865050316E0,-2.787900162E1,3.349050045E0,2.890646611E1
1.999291671E0,5.446050167E0,-2.841495132E1,4.806000233E0,2.932859627E1
2.001255263E0,3.952050209E0,-2.872200203E1,5.380950451E0,2.948773862E1
2.003218793E0,2.533950090E0,-2.875995064E1,5.380950451E0,2.936852552E1
2.005182342E0,1.192050099E0,-2.841495132E1,5.686950207E0,2.900296269E1
2.007145473E0,-4.930500090E-1,-2.772495079E1,5.572050095E0,2.828363019E1
2.009108727E0,-2.256000042E0,-2.669100189E1,4.345950127E0,2.713644046E1
2.011073210E0,-3.943050146E0,-2.554095078E1,2.353049994E0,2.595042688E1
2.013037336E0,-5.706000328E0,-2.431395149E1,-6.105000153E-2,2.497459517E1
2.015001136E0,-6.702000141E0,-2.327895164E1,-2.514000177E0,2.435460105E1
2.016965031E0,-7.584000587E0,-2.232105064E1,-4.507050037E0,2.400124719E1
2.018928553E0,-8.274000168E0,-2.147805023E1,-6.805950165E0,2.400180573E1
2.020892184E0,-8.772000313E0,-2.071095085E1,-9.412950516E0,2.438227045E1
2.022855726E0,-9.193950653E0,-2.005995178E1,-1.171200085E1,2.498202069E1
2.024819280E0,-9.385050774E0,-1.948500061E1,-1.374405098E1,2.562505345E1
2.026783130E0,-9.577050209E0,-1.894799995E1,-1.608195114E1,2.663410869E1
2.028746894E0,-9.499950409E0,-1.848795128E1,-1.761495018E1,2.724591474E1
2.030710575E0,-9.346950531E0,-1.810500145E1,-1.876500130E1,2.769985262E1
2.032674280E0,-8.887050629E0,-1.783695030E1,-1.895595169E1,2.750390099E1
2.034638034E0,-8.389050484E0,-1.768395042E1,-1.899495125E1,2.727464837E1
2.036601760E0,-8.158950806E0,-1.733895111E1,-1.857299995E1,2.668640162E1
2.038565582E0,-7.737000465E0,-1.722405052E1,-1.803600121E1,2.611180637E1
2.040529375E0,-7.276950359E0,-1.714695168E1,-1.738500023E1,2.547960344E1
2.042492916E0,-7.239000320E0,-1.684005165E1,-1.635000038E1,2.456243021E1
2.044456531E0,-7.201050282E0,-1.660995102E1,-1.516200066E1,2.361423007E1
2.046420226E0,-6.894000530E0,-1.645695114E1,-1.401195049E1,2.268685172E1
2.048383904E0,-6.741000175E0,-1.622700119E1,-1.290105057E1,2.179893935E1
2.050347734E0,-6.396000385E0,-1.611194992E1,-1.175100040E1,2.094253475E1
2.052311519E0,-5.859000206E0,-1.595895100E1,-1.106100082E1,2.028205462E1
2.054275061E0,-5.361000061E0,-1.561395073E1,-1.052400017E1,1.957780270E1
2.056238675E0,-4.594050407E0,-1.534605026E1,-9.988050461E0,1.887770404E1
2.058201821E0,-3.751050234E0,-1.503900051E1,-9.873000145E0,1.837710658E1
2.060165118E0,-2.677950144E0,-1.473195076E1,-1.017900085E1,1.810563030E1
2.062128877E0,-1.297950029E0,-1.461705112E1,-1.044795036E1,1.801395361E1
2.064092500E0,2.340000123E-1,-1.442595100E1,-1.086900043E1,1.806372024E1
2.066056881E0,1.614000082E0,-1.392705059E1,-1.140600014E1,1.807386438E1
2.068021039E0,2.878050089E0,-1.365900040E1,-1.209600067E1,1.847064418E1
2.069984501E0,3.990000248E0,-1.319895077E1,-1.312995052E1,1.904016817E1
2.071948147E0,4.987050056E0,-1.270095062E1,-1.424205112E1,1.972361111E1
2.073911711E0,5.830050468E0,-1.212600040E1,-1.508505058E1,2.021356291E1
2.075875300E0,6.558000088E0,-1.147395039E1,-1.577505112E1,2.057938630E1
2.077838785E0,7.171050549E0,-1.074600029E1,-1.650300026E1,2.095828012E1
2.079802300E0,7.822950363E0,-1.009500027E1,-1.700205040E1,2.126446098E1
2.081765676E0,8.473950386E0,-9.558000565E0,-1.723200035E1,2.145005935E1
2.083729083E0,9.163949966E0,-9.097949982E0,-1.723200035E1,2.153352059E1
2.085692643E0,9.661950111E0,-8.446949959E0,-1.734705162E1,2.157833273E1
2.087656158E0,1.027605057E1,-7.833000183E0,-1.719300079E1,2.150703102E1
2.089619880E0,1.081200027E1,-7.335000515E0,-1.696305084E1,2.141136792E1
2.091583542E0,1.127205086E1,-6.837000370E0,-1.646505165E1,2.109269140E1
2.093546900E0,1.177005100E1,-6.147000313E0,-1.592805099E1,2.073698440E1
2.095510333E0,1.203900051E1,-5.878950119E0,-1.512405109E1,2.020486351E1
2.097473934E0,1.253700066E1,-5.686950207E0,-1.389705086E1,1.956133458E1
2.099437485E0,1.291995049E1,-5.380050182E0,-1.263195038E1,1.885301649E1
2.101401022E0,1.322700024E1,-5.112000465E0,-1.129095078E1,1.812654555E1
2.103364564E0,1.364895058E1,-4.882050037E0,-9.834000587E0,1.751673006E1
2.105328082E0,1.399305058E1,-4.843950272E0,-8.185950279E0,1.691978430E1
2.107291621E0,1.433805084E1,-4.920000076E0,-6.040050507E0,1.631773001E1
2.109254979E0,1.476000023E1,-5.035050392E0,-4.009050369E0,1.610223041E1
2.111218390E0,1.502805042E1,-5.035050392E0,-2.130000114E0,1.599158943E1
2.113180689E0,1.525800037E1,-5.074050426E0,-1.369500011E-1,1.608015294E1
2.115143314E0,1.556505108E1,-5.227050304E0,1.816050053E0,1.651941003E1
2.117107004E0,1.567995071E1,-5.074050426E0,3.388050079E0,1.682515157E1
2.119070384E0,1.575705051E1,-5.112000465E0,4.996950150E0,1.730279459E1
2.121033726E0,1.571805096E1,-4.959000111E0,6.109050274E0,1.757752267E1
2.122997079E0,1.564200115E1,-4.651950359E0,7.411950588E0,1.792344425E1
2.124960693E0,1.552695084E1,-4.422000408E0,8.446949959E0,1.822062714E1
2.126924231E0,1.541205120E1,-4.345950127E0,9.328050613E0,1.853189502E1
2.128888261E0,1.522005081E1,-4.116000175E0,9.787950516E0,1.855789265E1
2.130852150E0,1.506705093E1,-3.961950302E0,1.009500027E1,1.856400023E1
2.132815854E0,1.495200062E1,-3.694050074E0,9.673050880E0,1.818725493E1
2.134779613E0,1.472205067E1,-3.426000118E0,9.289950371E0,1.774202442E1
2.136743114E0,1.468305111E1,-3.081000090E0,8.446949959E0,1.721730278E1
2.138706690E0,1.453005028E1,-2.851050138E0,6.952050209E0,1.635792927E1
2.140670401E0,1.429995060E1,-2.659050226E0,5.496000290E0,1.554879913E1
2.142634073E0,1.395495033E1,-2.544000149E0,3.963000298E0,1.472813454E1
2.144597364E0,1.360995102E1,-2.391000032E0,2.506050110E0,1.404378635E1
2.146560767E0,1.338000107E1,-2.161050081E0,1.203000069E0,1.360668127E1
2.148524688E0,1.315005016E1,-2.046000004E0,3.979500234E-1,1.331421419E1
2.150488457E0,1.322700024E1,-1.893000126E0,-5.970000029E-1,1.337510350E1
2.152451642E0,1.311195087E1,-1.777950048E0,-1.824000120E0,1.335707073E1
2.154414998E0,1.322700024E1,-1.624050021E0,-2.551950216E0,1.356847536E1
2.156378162E0,1.288200092E1,-1.432950020E0,-4.084949970E0,1.358992678E1
2.158341383E0,1.246005058E1,-1.279050112E0,-5.005050182E0,1.348848980E1
2.160304794E0,1.219200039E1,-1.164000034E0,-5.656950474E0,1.349076937E1
2.162268150E0,1.226895046E1,-1.126049995E0,-6.691050529E0,1.402017444E1
2.164231598E0,1.230705070E1,-9.730500579E-1,-7.266000271E0,1.432498110E1
2.166195009E0,1.242195034E1,-9.340500236E-1,-7.726050377E0,1.465841581E1
2.168158524E0,1.242195034E1,-8.959500194E-1,-8.148000717E0,1.488279182E1
2.170122009E0,1.253700066E1,-1.048950076E0,-8.530950546E0,1.520045391E1
2.172085557E0,1.238400078E1,-1.318050027E0,-8.530950546E0,1.509562348E1
2.174049086E0,1.211505032E1,-1.663050056E0,-8.263050079E0,1.475866445E1
2.176012641E0,1.123395061E1,-1.969050050E0,-7.495950222E0,1.364800624E1
2.177976178E0,9.853950500E0,-2.314050198E0,-6.423000336E0,1.198791484E1
2.179939717E0,8.436000824E0,-2.506050110E0,-5.235000134E0,1.023970817E1
2.181903255E0,7.171050549E0,-2.620950222E0,-3.931950092E0,8.587990310E0
2.183866794E0,6.021000385E0,-2.697000027E0,-2.820000172E0,7.174862769E0
2.185830332E0,5.025000095E0,-2.812050104E0,-2.014950037E0,6.100678274E0
2.187793875E0,4.105050087E0,-2.926950216E0,-1.096050024E0,5.159437900E0
2.189757413E0,3.337950230E0,-3.004050255E0,-1.759500057E-1,4.494128177E0
2.191720096E0,2.610000134E0,-3.118950129E0,7.429500222E-1,4.134238181E0
2.193683030E0,1.920000076E0,-3.118950129E0,1.548000097E0,3.976248797E0
2.195646130E0,1.269000053E0,-3.081000090E0,1.930950046E0,3.851167455E0
2.197609182E0,6.169500351E-1,-3.004050255E0,2.353049994E0,3.865461105E0
2.199571880E0,-7.200000435E-2,-2.812050104E0,2.583000183E0,3.818991979E0
2.201534698E0,-7.620000243E-1,-2.697000027E0,2.467950106E0,3.734331387E0
2.203498494E0,-1.375050068E0,-2.544000149E0,2.122950077E0,3.587424769E0
2.205462004E0,-1.950000048E0,-2.467050076E0,1.930950046E0,3.690176736E0
2.207425547E0,-2.332950115E0,-2.428950071E0,1.585950017E0,3.722592127E0
2.209389081E0,-2.946000099E0,-2.428950071E0,1.165050030E0,3.991999074E0
2.211353402E0,-3.483000278E0,-2.391000032E0,3.979500234E-1,4.243410929E0
2.213317481E0,-3.981000185E0,-2.391000032E0,-3.289500177E-1,4.655475458E0
2.215280747E0,-4.402950287E0,-2.467050076E0,-1.171950102E0,5.181290799E0
2.217244252E0,-4.824000359E0,-2.428950071E0,-2.092050076E0,5.792016180E0
2.219207435E0,-5.208000183E0,-2.581950188E0,-3.127050161E0,6.600619319E0
2.221170713E0,-5.398950100E0,-2.773950100E0,-4.009050369E0,7.274334760E0
2.223133911E0,-5.323050022E0,-3.271950245E0,-4.813050270E0,7.887076318E0
2.225097118E0,-5.169000149E0,-3.847050190E0,-5.311950207E0,8.350758810E0
2.227060037E0,-4.786050320E0,-4.614000320E0,-5.350050449E0,8.533364895E0
2.229023041E0,-4.288050175E0,-5.457000256E0,-4.966950417E0,8.534449164E0
2.230986851E0,-3.636000156E0,-6.454050541E0,-3.931950092E0,8.386626083E0
2.232950424E0,-2.908050060E0,-7.450050354E0,-2.704950094E0,8.442556511E0
2.234913927E0,-2.218050003E0,-8.446949959E0,-1.249050021E0,8.822178607E0
2.236877440E0,-1.489950061E0,-9.520050049E0,-2.140500098E-1,9.638315284E0
2.238840802E0,-7.230000496E-1,-1.066995049E1,2.070000172E-1,1.069642096E1
2.240804209E0,2.340000123E-1,-1.197300053E1,1.680000126E-1,1.197646532E1
2.242768715E0,9.619500637E-1,-1.300800037E1,-2.205000073E-2,1.304353893E1
2.244732899E0,1.651950121E0,-1.408095074E1,5.295000225E-2,1.417762027E1
2.246695612E0,2.304000139E0,-1.507695103E1,1.011000037E0,1.528545027E1
2.248658752E0,3.108000040E0,-1.634205055E1,2.200050116E0,1.677982422E1
2.250622538E0,4.143000126E0,-1.806705093E1,3.081000090E0,1.879029912E1
2.252586135E0,5.025000095E0,-1.967700005E1,6.339000225E0,2.127481799E1
2.254549484E0,6.595950127E0,-2.266605186E1,6.415950298E0,2.446264261E1
2.256512906E0,7.516050339E0,-2.504205132E1,4.996950150E0,2.661888160E1
2.258476630E0,8.128950119E0,-2.580900192E1,8.217000008E0,2.827902932E1
2.260440275E0,1.023705006E1,-2.929695129E1,1.087950110E0,3.105305435E1
2.262404696E0,1.104195023E1,-3.075300217E1,2.506050110E0,3.277120831E1
2.264368890E0,1.257495022E1,-3.343605042E1,-9.420000315E-1,3.573494374E1
2.266332678E0,1.322700024E1,-3.577395248E1,-3.702000141E0,3.832015157E1
2.268296585E0,1.376400089E1,-3.826500320E1,-6.193050385E0,4.113407424E1
2.270260235E0,1.418505096E1,-4.064205170E1,-1.052400017E1,4.431418076E1
2.272223964E0,1.491300106E1,-4.347795105E1,-1.297695065E1,4.776118797E1
2.274187605E0,1.460700035E1,-4.673595047E1,-1.512405109E1,5.124793115E1
2.276151272E0,1.357200050E1,-5.026200104E1,-1.746195030E1,5.491254551E1
2.278114473E0,1.230705070E1,-5.267700195E1,-1.853505135E1,5.718284848E1
2.280077810E0,1.108095074E1,-5.443995285E1,-1.891800117E1,5.868889762E1
2.282041377E0,1.027605057E1,-5.635605240E1,-1.983795166E1,6.062298395E1
2.284004880E0,1.012200069E1,-5.831100464E1,-1.941600037E1,6.228650922E1
2.285968246E0,1.008405018E1,-5.953695297E1,-2.106405067E1,6.395335072E1
2.287931652E0,9.739050865E0,-5.965200424E1,-2.148600197E1,6.414716675E1
2.289895167E0,8.551050186E0,-5.976705170E1,-2.263605118E1,6.447954513E1
2.291858650E0,7.746000290E0,-6.007395172E1,-2.420700073E1,6.522928085E1
2.293821902E0,6.903000355E0,-6.018900299E1,-2.505000114E1,6.555814253E1
2.295785209E0,5.905950069E0,-6.095505142E1,-2.458995056E1,6.599291029E1
2.297748606E0,5.560950279E0,-6.126195145E1,-2.255895042E1,6.551989856E1
2.299711976E0,5.025000095E0,-6.118500137E1,-1.907100105E1,6.428497570E1
2.301675724E0,4.182000160E0,-6.110895157E1,-1.485495090E1,6.302747539E1
2.303639361E0,2.802000046E0,-6.106995392E1,-9.910950661E0,6.193236164E1
2.305603063E0,2.955000162E0,-6.110895157E1,-3.778950214E0,6.129695304E1
2.307566746E0,3.682950258E0,-6.084000397E1,-6.739500165E-1,6.095510162E1
2.309529675E0,2.917050123E0,-5.942205429E1,2.620950222E0,5.955131483E1
2.311492825E0,1.959000111E0,-5.735295105E1,5.533950329E0,5.765260863E1
2.313456294E0,1.767000079E0,-5.509095383E1,7.489050388E0,5.562572569E1
2.315419669E0,1.153950095E0,-5.286795425E1,8.179050446E0,5.350933614E1
2.317382179E0,-4.549500346E-1,-5.014695358E1,7.603950500E0,5.072222389E1
2.319344925E0,-2.026050091E0,-4.639095306E1,6.109050274E0,4.683530613E1
2.321308779E0,-3.406050205E0,-4.175295258E1,4.921050072E0,4.217969844E1
2.323272308E0,-4.173000336E0,-3.742200089E1,3.924000263E0,3.785786391E1
2.325235804E0,-4.288050175E0,-3.416400146E1,2.812950134E0,3.454676626E1
2.327199310E0,-3.981000185E0,-3.082995224E1,1.893000126E0,3.114350281E1
2.329162913E0,-3.981000185E0,-2.803200150E1,1.395000100E0,2.834761887E1
2.331126477E0,-4.018949986E0,-2.588595200E1,1.432950020E0,2.623523995E1
2.333090371E0,-3.828000069E0,-2.404605103E1,2.008050203E0,2.443150466E1
2.335054169E0,-3.406050205E0,-2.235900116E1,2.889000177E0,2.280071124E1
2.337017799E0,-3.214950085E0,-2.105595016E1,3.808950186E0,2.163786133E1
2.338981479E0,-3.022950172E0,-2.021295166E1,4.614000320E0,2.095210351E1
2.340945198E0,-2.716050148E0,-1.960005188E1,5.496000290E0,2.053643059E1
2.342908919E0,-1.950000048E0,-1.898700142E1,6.799050331E0,2.026168326E1
2.344872247E0,-1.030050039E0,-1.860300064E1,7.948950291E0,2.025631868E1
2.346835690E0,-2.629500031E-1,-1.814295006E1,8.754000664E0,2.014617351E1
2.348800280E0,3.490500152E-1,-1.776000023E1,9.367050171E0,2.008185930E1
2.350764534E0,7.699500322E-1,-1.722405052E1,9.826950073E0,1.984514266E1
2.352728001E0,9.619500637E-1,-1.684005165E1,1.009500027E1,1.965761221E1
2.354691695E0,6.940500140E-1,-1.653404999E1,1.047795010E1,1.958683110E1
2.356654666E0,3.109500110E-1,-1.595895100E1,1.101495075E1,1.939365739E1
2.358617849E0,-1.480500102E-1,-1.553700066E1,1.147500038E1,1.931569160E1
2.360581447E0,-6.850500107E-1,-1.500105095E1,1.201095104E1,1.922924252E1
2.362544924E0,-1.068000078E0,-1.446405029E1,1.239495087E1,1.907836948E1
2.364508608E0,-1.375050068E0,-1.392705059E1,1.273995018E1,1.892511113E1
2.366472231E0,-1.834950089E0,-1.319895077E1,1.300800037E1,1.862222911E1
2.368435936E0,-2.524950027E0,-1.231800079E1,1.342995071E1,1.839761105E1
2.370399616E0,-3.291000128E0,-1.143600082E1,1.346805096E1,1.797223395E1
2.372362951E0,-3.712950230E0,-1.078500080E1,1.362105083E1,1.776612697E1
2.374326387E0,-3.904950142E0,-1.024800014E1,1.362105083E1,1.748722872E1
2.376289808E0,-3.865950108E0,-9.826050758E0,1.342995071E1,1.708392285E1
2.378253233E0,-3.828000069E0,-9.442950249E0,1.335300064E1,1.679659251E1
2.380216611E0,-3.790050268E0,-8.791950226E0,1.277805042E1,1.596688581E1
2.382180003E0,-3.904950142E0,-7.833000183E0,1.327605057E1,1.590151081E1
2.384143565E0,-4.134000301E0,-7.143000126E0,1.323795033E1,1.559986340E1
2.386107077E0,-4.249050140E0,-6.109050274E0,1.335300064E1,1.528651525E1
2.388070221E0,-4.441050053E0,-5.227050304E0,1.339095020E1,1.504534904E1
2.390033469E0,-4.096050262E0,-4.422000408E0,1.358295059E1,1.486029146E1
2.391996517E0,-4.210950375E0,-3.157050133E0,1.320000076E1,1.421052739E1
2.393959623E0,-3.943050146E0,-2.275950193E0,1.415805054E1,1.487205395E1
2.395921839E0,-3.751050234E0,-8.580000401E-1,1.366005039E1,1.419167075E1
2.397884315E0,-4.173000336E0,7.510500550E-1,1.346805096E1,1.411971687E1
2.399847786E0,-4.441050053E0,2.590950012E0,1.342995071E1,1.438052585E1
2.401810982E0,-4.824000359E0,4.239000320E0,1.346805096E1,1.492074059E1
2.403774399E0,-5.398950100E0,5.887050152E0,1.350600052E1,1.569133747E1
2.405737751E0,-5.935950279E0,7.612050533E0,1.358295059E1,1.666359402E1
2.407701367E0,-6.817050457E0,9.183000565E0,1.346805096E1,1.766884470E1
2.409664905E0,-7.929000378E0,1.063995075E1,1.369800091E1,1.907125659E1
2.411628204E0,-9.309000015E0,1.221105099E1,1.381305027E1,2.065351315E1
2.413591584E0,-1.114800072E1,1.385895061E1,1.373595047E1,2.247275612E1
2.415554968E0,-1.341000080E1,1.546905041E1,1.316100025E1,2.433786288E1
2.417518351E0,-1.551795101E1,1.696395111E1,1.285500050E1,2.634071902E1
2.419481602E0,-1.728105164E1,1.795995140E1,1.273995018E1,2.799108663E1
2.421444892E0,-1.885200119E1,1.834305000E1,1.239495087E1,2.907748681E1
2.423408413E0,-2.019405174E1,1.880295181E1,1.220295048E1,3.017056054E1
2.425371876E0,-2.103705025E1,1.868805122E1,1.201095104E1,3.059515789E1
2.427335607E0,-2.211000061E1,1.853505135E1,1.166595078E1,3.112064689E1
2.429299260E0,-2.299200058E1,1.822800064E1,1.128300095E1,3.143562006E1
2.431262600E0,-2.329800034E1,1.776900101E1,1.128300095E1,3.139809432E1
2.433226032E0,-2.368200111E1,1.746195030E1,1.132200050E1,3.152688663E1
2.435189749E0,-2.368200111E1,1.707900047E1,1.032495022E1,3.096988910E1
2.437153395E0,-2.318295097E1,1.661894989E1,9.787950516E0,3.015696746E1
2.439116916E0,-2.253195190E1,1.608195114E1,9.367050171E0,2.922429876E1
2.441080474E0,-2.164995193E1,1.543095112E1,8.869050026E0,2.802667871E1
2.443044188E0,-2.038500023E1,1.462605095E1,8.485050201E0,2.648519733E1
2.445007857E0,-1.896705055E1,1.359105110E1,8.332050323E0,2.477677823E1
2.446971058E0,-1.751100159E1,1.267095089E1,7.909950256E0,2.301641775E1
2.448934397E0,-1.628400040E1,1.186605072E1,7.795050144E0,2.160404211E1
2.450897788E0,-1.521105099E1,1.117605019E1,7.834050179E0,2.043654844E1
2.452861164E0,-1.429095078E1,1.056300068E1,7.834050179E0,1.942113796E1
2.454824911E0,-1.337100029E1,9.949950218E0,7.795050144E0,1.839967295E1
2.456788549E0,-1.249005032E1,9.336000443E0,8.101950645E0,1.757281609E1
2.458752246E0,-1.180005074E1,8.800050735E0,8.485050201E0,1.699053169E1
2.460715929E0,-1.107195091E1,8.340000153E0,8.715000153E0,1.637360459E1
2.462679579E0,-1.034400082E1,7.726950169E0,9.442950249E0,1.599604392E1
2.464643238E0,-9.577050209E0,7.342950344E0,1.005705070E1,1.570933096E1
2.466606756E0,-8.887050629E0,6.844950199E0,1.070805073E1,1.550791290E1
2.468570315E0,-8.389050484E0,6.499950409E0,1.143705082E1,1.560229646E1
2.470533700E0,-8.082000732E0,6.193950176E0,1.185795021E1,1.562993083E1
2.472497147E0,-7.621950150E0,5.695050240E0,1.258605099E1,1.577771849E1
2.474460476E0,-7.239000320E0,5.350050449E0,1.316100025E1,1.594484535E1
2.476423839E0,-7.086000443E0,5.005050182E0,1.316100025E1,1.576305355E1
2.478387092E0,-7.123950481E0,4.736999989E0,1.312305069E1,1.566538537E1
2.480350377E0,-6.931950092E0,4.276950359E0,1.297005081E1,1.531556249E1
2.482313759E0,-6.931950092E0,4.085999966E0,1.251000023E1,1.487438851E1
2.484277126E0,-6.931950092E0,3.894000292E0,1.155105019E1,1.402290736E1
2.486240693E0,-6.741000175E0,3.433950186E0,1.116795063E1,1.348911482E1
2.488204202E0,-6.433950424E0,3.166050196E0,1.013295078E1,1.241355241E1
2.490167746E0,-6.204000473E0,2.974050045E0,8.754000664E0,1.113405241E1
2.492131279E0,-6.013050079E0,2.667000055E0,7.564950466E0,1.002487586E1
2.494094561E0,-5.668050289E0,2.590950012E0,6.262050152E0,8.834765880E0
2.496057940E0,-5.553000450E0,2.398950100E0,4.882050037E0,7.773364018E0
2.498021685E0,-5.323050022E0,2.169000149E0,3.655950069E0,6.812150475E0
2.499985322E0,-5.208000183E0,2.016000032E0,2.353049994E0,6.060063227E0
2.501949024E0,-5.131050110E0,1.824000120E0,1.356000066E0,5.611896992E0
2.503912707E0,-5.016000271E0,1.555950046E0,6.280500293E-1,5.289204676E0
2.505876949E0,-4.863000393E0,1.402950048E0,-4.060500264E-1,5.077589811E0
2.507841054E0,-4.518000126E0,1.134000063E0,-1.171950102E0,4.803305978E0
2.509804812E0,-4.326000214E0,9.810000658E-1,-1.747050047E0,4.767475521E0
2.511768671E0,-4.096050262E0,6.360000372E-1,-2.169000149E0,4.678320793E0
2.513732154E0,-4.018949986E0,5.590500236E-1,-2.704950094E0,4.876602396E0
2.515695748E0,-3.828000069E0,3.679500222E-1,-3.394950151E0,5.129781504E0
2.517659248E0,-3.712950230E0,2.530499995E-1,-3.855000257E0,5.358270308E0
2.519622796E0,-3.790050268E0,6.105000153E-2,-3.472050190E0,5.140363865E0
2.521587233E0,-3.559950113E0,-1.290000081E-1,-3.739950180E0,5.164989173E0
2.523551409E0,-3.445050240E0,-3.589500189E-1,-3.549000263E0,4.959094588E0
2.525515065E0,-3.520950079E0,-4.740000367E-1,-3.394950151E0,4.914005700E0
2.527478873E0,-3.367950201E0,-6.660000086E-1,-3.549000263E0,4.937818085E0
2.529442320E0,-2.985000134E0,-1.164000034E0,-2.475000143E0,4.048548825E0
2.531405873E0,-2.640000105E0,-1.471050024E0,-1.939050078E0,3.590752558E0
2.533369453E0,-2.563050032E0,-1.777950048E0,-1.210950017E0,3.346151787E0
2.535333025E0,-2.371050119E0,-2.046000004E0,-5.209500194E-1,3.174804499E0
2.537296378E0,-2.065050125E0,-2.467050076E0,-3.670500219E-1,3.238131222E0
2.539259796E0,-1.605000019E0,-2.965950251E0,-1.134000063E0,3.557926657E0
2.541223513E0,-1.452000022E0,-3.387000084E0,-2.245050192E0,4.315127344E0
2.543187126E0,-1.528050065E0,-3.579000235E0,-4.047000408E0,5.614480562E0
2.545150832E0,-1.681950092E0,-4.269000053E0,-6.193050385E0,7.707606025E0
2.547114510E0,-1.375050068E0,-5.419050217E0,-9.106050491E0,1.068536492E1
2.549078071E0,-1.068000078E0,-6.798000336E0,-1.301595020E1,1.472305649E1
2.551041666E0,-7.230000496E-1,-8.599950790E0,-1.677195168E1,1.886213789E1
2.553005865E0,1.960500032E-1,-1.066995049E1,-1.933995056E1,2.208891049E1
2.554969890E0,2.035050154E0,-1.300800037E1,-1.957005119E1,2.358678457E1
2.556933030E0,3.837000132E0,-1.503900051E1,-1.815105057E1,2.388210089E1
2.558896430E0,5.868000507E0,-1.687905121E1,-1.539195061E1,2.358490922E1
2.560859946E0,7.438950539E0,-1.860300064E1,-1.274700069E1,2.374648700E1
2.562823428E0,9.163949966E0,-2.002200127E1,-8.991000175E0,2.378437718E1
2.564786976E0,1.073595047E1,-2.170800018E1,-6.538050175E0,2.508473649E1
2.566750505E0,1.234500027E1,-2.297295189E1,-3.855000257E0,2.636316705E1
2.568712965E0,1.330395031E1,-2.366295052E1,-9.040500522E-1,2.716151004E1
2.570675738E0,1.395495033E1,-2.385405159E1,1.395000100E0,2.767132887E1
2.572639271E0,1.410795021E1,-2.370105171E1,2.889000177E0,2.773302063E1
2.574602582E0,1.380195045E1,-2.320305061E1,5.572050095E0,2.756670340E1
2.576566155E0,1.318905067E1,-2.247405052E1,6.913950443E0,2.695990941E1
2.578529654E0,1.219200039E1,-2.140095139E1,9.175050735E0,2.628359088E1
2.580493335E0,1.127205086E1,-2.013600159E1,1.078500080E1,2.547221884E1
2.582456962E0,9.969000816E0,-1.856505013E1,1.239495087E1,2.444743075E1
2.584420710E0,8.436000824E0,-1.710900116E1,1.366005039E1,2.346233167E1
2.586384423E0,6.940950394E0,-1.565205097E1,1.431105042E1,2.231523372E1
2.588347938E0,5.523000240E0,-1.438695049E1,1.396605110E1,2.079755898E1
2.590311507E0,4.143000126E0,-1.346700096E1,1.273995018E1,1.899554936E1
2.592274860E0,2.992950201E0,-1.304595089E1,1.120695019E1,1.745709936E1
2.594238277E0,2.304000139E0,-1.308405018E1,9.520050049E0,1.634417752E1
2.596201656E0,1.614000082E0,-1.339095020E1,7.527000427E0,1.544597938E1
2.598165046E0,1.039050102E0,-1.385100079E1,5.188950062E0,1.482750993E1
2.600128054E0,1.960500032E-1,-1.442595100E1,3.234000206E0,1.478530538E1
2.602091185E0,-4.170000255E-1,-1.515405083E1,1.816050053E0,1.526817551E1
2.604054792E0,-1.068000078E0,-1.645695114E1,1.165050030E0,1.653267089E1
2.606018260E0,-1.950000048E0,-1.871805000E1,1.318050027E0,1.886544863E1
2.607981945E0,-3.214950085E0,-2.431395149E1,4.614000320E0,2.495582377E1
2.609945567E0,-6.204000473E0,-3.447105026E1,4.384050369E0,3.529819862E1
2.611909677E0,-9.922050476E0,-3.631095123E1,-6.739500165E-1,3.764819350E1
2.613873644E0,-9.922050476E0,-3.531405258E1,-2.551950216E0,3.677012164E1
2.615837426E0,-8.427000046E0,-3.546795273E1,-8.953050613E0,3.753860834E1
2.617801262E0,-8.580000877E0,-3.523800278E1,-4.852050304E0,3.659064972E1
2.619764794E0,-9.309000015E0,-3.554400253E1,-4.966950417E0,3.707700357E1
2.621728415E0,-1.018995094E1,-3.615705109E1,-3.894000292E0,3.776679337E1
2.623692073E0,-1.068795013E1,-3.677099991E1,-2.245050192E0,3.835855788E1
2.625655720E0,-1.137795067E1,-3.696195221E1,-6.360000372E-1,3.867878189E1
2.627618160E0,-1.156995010E1,-3.588899994E1,8.959500194E-1,3.771852050E1
2.629580953E0,-1.107195091E1,-3.209505081E1,1.240950108E0,3.397381846E1
2.631545385E0,-1.007505035E1,-2.810895157E1,9.730500579E-1,2.987585353E1
2.633509336E0,-8.734050751E0,-2.534895134E1,-9.900000691E-2,2.681161647E1
2.635472760E0,-7.201050282E0,-2.373900032E1,-9.420000315E-1,2.482504029E1
2.637436338E0,-5.514000416E0,-2.182305145E1,-2.551950216E0,2.265308423E1
2.639399689E0,-3.943050146E0,-1.998300171E1,-4.927950382E0,2.095597043E1
2.641363107E0,-2.946000099E0,-1.810500145E1,-6.691050529E0,1.952537199E1
2.643326530E0,-2.524950027E0,-1.622700119E1,-7.228050232E0,1.794256532E1
2.645289951E0,-2.601000071E0,-1.454100037E1,-6.844950199E0,1.628063992E1
2.647253300E0,-2.946000099E0,-1.304595089E1,-5.809950352E0,1.458188171E1
2.649216660E0,-3.406050205E0,-1.181895065E1,-4.660050392E0,1.315313051E1
2.651180093E0,-3.904950142E0,-1.105305099E1,-2.667000055E0,1.202212382E1
2.653143504E0,-4.326000214E0,-1.001805019E1,-8.659500480E-1,1.094648240E1
2.655105804E0,-4.594050407E0,-9.595950127E0,2.830500007E-1,1.064272875E1
2.657068430E0,-4.288050175E0,-9.060000420E0,1.279950023E0,1.010491237E1
2.659031939E0,-3.751050234E0,-8.791950226E0,2.430000067E0,9.862741351E0
2.660995192E0,-3.253050089E0,-8.217000008E0,4.153950214E0,9.765076876E0
2.662958734E0,-2.448000193E0,-7.987050533E0,5.764050484E0,1.014938221E1
2.664922192E0,-1.795950055E0,-8.025000572E0,7.297050476E0,1.099422650E1
2.666885565E0,-1.222050071E0,-7.987050533E0,8.983950615E0,1.208295292E1
2.668848963E0,-9.150000215E-1,-8.025000572E0,1.055505085E1,1.329085993E1
2.670812350E0,-7.230000496E-1,-8.062950134E0,1.201095104E1,1.448436533E1
2.672775737E0,-4.549500346E-1,-8.254950523E0,1.312305069E1,1.551017882E1
2.674738941E0,-1.870500147E-1,-8.370000839E0,1.388895035E1,1.621711576E1
2.676702199E0,8.100000024E-2,-8.715000153E0,1.492395115E1,1.728242190E1
2.678666325E0,4.260000288E-1,-9.405000687E0,1.607400131E1,1.862817844E1
2.680630197E0,6.169500351E-1,-1.013295078E1,1.699394989E1,1.979524316E1
2.682593348E0,7.699500322E-1,-1.097595024E1,1.791405106E1,2.102326169E1
2.684556689E0,7.320000529E-1,-1.185795021E1,1.925505066E1,2.262529079E1
2.686519901E0,8.470500112E-1,-1.285395050E1,2.036700058E1,2.409888483E1
2.688483151E0,9.240000248E-1,-1.388895035E1,2.186205101E1,2.591729137E1
2.690446603E0,1.000050068E0,-1.492395115E1,2.404605103E1,2.831849198E1
2.692409995E0,1.114950061E0,-1.611194992E1,2.600100136E1,3.060866079E1
2.694373708E0,1.077000022E0,-1.737705040E1,2.565600204E1,3.100568094E1
2.696337317E0,1.192050099E0,-1.879500008E1,2.676795197E1,3.272913478E1
2.698300529E0,1.306950092E0,-2.005995178E1,2.607795143E1,3.292672676E1
2.700263857E0,1.269000053E0,-2.067300034E1,2.485095024E1,3.235047190E1
2.702227385E0,1.306950092E0,-2.113305092E1,2.416095161E1,3.212577692E1
2.704190855E0,1.575000048E0,-2.170800018E1,2.350995064E1,3.203803484E1
2.706154405E0,2.149950027E0,-2.247405052E1,2.251305199E1,3.188326743E1
2.708117932E0,2.839950085E0,-2.354805183E1,2.094195175E1,3.164081865E1
2.710081473E0,2.992950201E0,-2.523405075E1,1.837395096E1,3.135788803E1
2.712045009E0,3.108000040E0,-2.757195091E1,1.523100090E1,3.165210151E1
2.714008774E0,3.300000191E0,-2.956500053E1,1.270095062E1,3.234645892E1
2.715972471E0,3.453000069E0,-3.132795143E1,9.214050293E0,3.283690718E1
2.717935988E0,3.529950142E0,-3.274605179E1,6.684000492E0,3.360714683E1
2.719899555E0,3.721950293E0,-3.385800171E1,3.618000269E0,3.425357090E1
2.721864484E0,4.297049999E0,-3.412605286E1,-4.440000355E-1,3.439839034E1
2.723829014E0,4.872000217E0,-3.362805176E1,-5.235000134E0,3.438004476E1
2.725792248E0,5.715000153E0,-3.274605179E1,-1.163595009E1,3.521875167E1
2.727755862E0,6.787950516E0,-3.167295074E1,-1.842000008E1,3.726323233E1
2.729719193E0,7.669050217E0,-3.071505165E1,-2.275095177E1,3.898505528E1
2.731682617E0,7.669050217E0,-2.929695129E1,-2.558700180E1,3.964618957E1
2.733646309E0,6.979950428E0,-2.761005211E1,-2.696700096E1,3.922057912E1
2.735609922E0,5.560950279E0,-2.596200180E1,-2.700495148E1,3.787105900E1
2.737573449E0,3.952050209E0,-2.469705200E1,-2.639205170E1,3.636074080E1
2.739537001E0,2.572050095E0,-2.373900032E1,-2.524200058E1,3.474642674E1
2.741500357E0,1.537050128E0,-2.293395042E1,-2.367105103E1,3.299465505E1
2.743463770E0,6.940500140E-1,-2.228295135E1,-2.179305077E1,3.117609161E1
2.745426609E0,-1.099500060E-1,-2.174595070E1,-1.987605095E1,2.946109065E1
2.747389617E0,-8.770500422E-1,-2.117100143E1,-1.815105057E1,2.790055833E1
2.749353245E0,-1.144950032E0,-2.090295029E1,-1.623495102E1,2.649184546E1
2.751316692E0,-1.413000107E0,-2.055795097E1,-1.458705044E1,2.524693958E1
2.753280246E0,-1.642950058E0,-2.025105095E1,-1.332195091E1,2.429565240E1
2.755243768E0,-1.642950058E0,-2.005995178E1,-1.251705074E1,2.370184612E1
2.757207309E0,-1.642950058E0,-1.983000183E1,-1.186605072E1,2.316746463E1
2.759170845E0,-1.489950061E0,-1.986795044E1,-1.121400070E1,2.286283485E1
2.761134610E0,-1.260000110E0,-1.998300171E1,-1.037100029E1,2.254918191E1
2.763098307E0,-1.030050039E0,-1.994505119E1,-9.067950249E0,2.193385037E1
2.765061969E0,-8.380500674E-1,-1.994505119E1,-8.493000031E0,2.169420302E1
2.767025631E0,-7.230000496E-1,-1.979205132E1,-7.803000450E0,2.128696409E1
2.768988968E0,-6.850500107E-1,-1.944705009E1,-7.611000538E0,2.089460170E1
2.770952400E0,-4.930500090E-1,-1.910205078E1,-7.458000183E0,2.051226972E1
2.772915956E0,-2.629500031E-1,-1.860300064E1,-7.611000538E0,2.010144534E1
2.774879475E0,3.109500110E-1,-1.814295006E1,-7.956000328E0,1.981315896E1
2.776843530E0,1.077000022E0,-1.795200157E1,-8.683950424E0,1.997111125E1
2.778807447E0,1.843950033E0,-1.772205162E1,-9.528000832E0,2.020529795E1
2.780770786E0,3.108000040E0,-1.733895111E1,-1.052400017E1,2.051958746E1
2.782734295E0,4.372950077E0,-1.729995155E1,-1.132905006E1,2.113665989E1
2.784697973E0,5.676000118E0,-1.714695168E1,-1.240200043E1,2.190991884E1
2.786661601E0,6.826050282E0,-1.664895058E1,-1.339905071E1,2.243472928E1
2.788624995E0,7.822950363E0,-1.626495171E1,-1.431900024E1,2.303868430E1
2.790588454E0,8.551050186E0,-1.569000053E1,-1.554495049E1,2.368421545E1
2.792551960E0,9.163949966E0,-1.488600063E1,-1.681005096E1,2.425177947E1
2.794515452E0,9.816000938E0,-1.438695049E1,-1.780605125E1,2.490770323E1
2.796478684E0,1.042905045E1,-1.377405071E1,-1.842000008E1,2.525442474E1
2.798441992E0,1.096605015E1,-1.308405018E1,-1.868805122E1,2.531185263E1
2.800405533E0,1.161705017E1,-1.250895023E1,-1.842000008E1,2.511426076E1
2.802368999E0,1.211505032E1,-1.201095104E1,-1.792094994E1,2.474263195E1
2.804332550E0,1.257495022E1,-1.132095051E1,-1.719300079E1,2.412244950E1
2.806296076E0,1.303500080E1,-1.074600029E1,-1.631204987E1,2.348341412E1
2.808259842E0,1.345695019E1,-1.024800014E1,-1.535295105E1,2.284346999E1
2.810223538E0,1.384005070E1,-9.558000565E0,-1.443405056E1,2.216402927E1
2.812187056E0,1.418505096E1,-9.097949982E0,-1.332195091E1,2.148168385E1
2.814150622E0,1.437705040E1,-8.715000153E0,-1.201905060E1,2.066660067E1
2.816113930E0,1.460700035E1,-8.254950523E0,-1.063905048E1,1.986700940E1
2.818077314E0,1.483695030E1,-7.948050499E0,-9.220950127E0,1.919199110E1
2.820040519E0,1.498995113E1,-7.603050232E0,-7.803000450E0,1.853083441E1
2.822003776E0,1.525800037E1,-7.372950554E0,-6.232050419E0,1.805562039E1
2.823966872E0,1.552695084E1,-7.182000160E0,-4.774950027E0,1.776140412E1
2.825930011E0,1.579500103E1,-6.874950409E0,-3.510000229E0,1.758030438E1
2.827893572E0,1.594800091E1,-6.798000336E0,-1.939050078E0,1.744452512E1
2.829857009E0,1.606305122E1,-6.568950176E0,-2.910000086E-1,1.735676819E1
2.831819305E0,1.633095169E1,-6.492000103E0,1.318050027E0,1.762337381E1
2.833781935E0,1.656105042E1,-6.339000225E0,2.275950193E0,1.787823436E1
2.835745127E0,1.675304985E1,-6.376950264E0,3.694050074E0,1.830235449E1
2.837708158E0,1.694505119E1,-6.223950386E0,4.653000355E0,1.864196156E1
2.839671604E0,1.694505119E1,-5.955000401E0,5.649000168E0,1.882838263E1
2.841634928E0,1.690605164E1,-5.533950329E0,6.646050453E0,1.898971234E1
2.843598458E0,1.663800049E1,-5.149950027E0,7.564950466E0,1.898877355E1
2.845561928E0,1.660004997E1,-4.614000320E0,8.638950348E0,1.927387146E1
2.847525323E0,1.633095169E1,-4.422000408E0,8.332050323E0,1.885940437E1
2.849488723E0,1.560300064E1,-4.384050369E0,8.332050323E0,1.822351748E1
2.851452149E0,1.510500050E1,-4.192049980E0,8.524050713E0,1.784359167E1
2.853415567E0,1.479795074E1,-4.077000141E0,8.064000130E0,1.733866703E1
2.855378722E0,1.445295048E1,-3.616950274E0,7.527000427E0,1.669208921E1
2.857341954E0,1.426200104E1,-3.271950245E0,6.721950531E0,1.610263801E1
2.859305018E0,1.410795021E1,-2.965950251E0,5.572050095E0,1.545570646E1
2.861268121E0,1.407000065E1,-2.773950100E0,4.039050102E0,1.489877992E1
2.863231914E0,1.391700077E1,-2.581950188E0,1.701000094E0,1.425632416E1
2.865195504E0,1.380195045E1,-2.391000032E0,-7.120500207E-1,1.402560989E1
2.867158720E0,1.372500038E1,-2.122950077E0,-2.935050249E0,1.419496645E1
2.869122045E0,1.364895058E1,-1.893000126E0,-5.427000046E0,1.480978159E1
2.871085444E0,1.353405094E1,-1.663050056E0,-7.305000305E0,1.546930185E1
2.873048817E0,1.349505043E1,-1.471050024E0,-9.373950005E0,1.649700921E1
2.875012024E0,1.338000107E1,-1.279050112E0,-1.136700058E1,1.760309916E1
2.876975280E0,1.284405041E1,-1.126049995E0,-1.263195038E1,1.805003573E1
2.878938686E0,1.257495022E1,-1.048950076E0,-1.355205059E1,1.851722831E1
2.880902048E0,1.242195034E1,-1.087950110E0,-1.443405056E1,1.907433619E1
2.882865621E0,1.180905056E1,-1.203000069E0,-1.408905029E1,1.842287226E1
2.884829129E0,1.134900093E1,-1.393950105E0,-1.339905071E1,1.761469497E1
2.886792314E0,1.069695091E1,-1.738950133E0,-1.232595062E1,1.641273180E1
2.888755593E0,9.049050331E0,-2.008050203E0,-1.075395012E1,1.419735964E1
2.890719175E0,6.903000355E0,-2.199000120E0,-9.220950127E0,1.172659101E1
2.892682668E0,5.140050411E0,-2.351999998E0,-7.803000450E0,9.635291290E0
2.894645999E0,3.607050180E0,-2.428950071E0,-6.307950497E0,7.661647925E0
2.896609371E0,2.227050066E0,-2.314050198E0,-4.621950150E0,5.628232715E0
2.898571902E0,1.269000053E0,-2.391000032E0,-2.974050045E0,4.021469378E0
2.900534679E0,3.870000243E-1,-2.391000032E0,-1.479000092E0,2.837973123E0
2.902497041E0,-5.320500135E-1,-2.391000032E0,-1.759500057E-1,2.455792495E0
2.904459525E0,-1.068000078E0,-2.199000120E0,1.087950110E0,2.675791684E0
2.906422553E0,-1.795950055E0,-2.046000004E0,1.624950051E0,3.170491332E0
2.908385432E0,-2.332950115E0,-1.816050053E0,2.659050226E0,3.976335265E0
2.910348859E0,-2.830950022E0,-1.509000063E0,3.733050108E0,4.922095318E0
2.912312125E0,-3.100050211E0,-1.432950020E0,4.308000088E0,5.497501417E0
2.914275575E0,-3.445050240E0,-1.318050027E0,4.231050014E0,5.613146288E0
2.916238971E0,-3.712950230E0,-1.318050027E0,3.808950186E0,5.480087298E0
2.918202524E0,-3.904950142E0,-1.356000066E0,3.196050167E0,5.225141956E0
2.920166038E0,-4.018949986E0,-1.279050112E0,2.506050110E0,4.905936743E0
2.922129716E0,-4.288050175E0,-1.240950108E0,1.585950017E0,4.737358856E0
2.924093345E0,-4.594050407E0,-1.164000034E0,5.130000114E-1,4.766903003E0
2.926057409E0,-4.747950077E0,-1.126049995E0,-5.209500194E-1,4.907382953E0
2.928021345E0,-5.131050110E0,-1.011000037E0,-1.555950046E0,5.456260336E0
2.929984656E0,-5.398950100E0,-1.011000037E0,-2.590050220E0,6.072820053E0
2.931948136E0,-5.629050255E0,-1.011000037E0,-3.739950180E0,6.833414607E0
2.933911504E0,-5.782950401E0,-1.011000037E0,-4.698000431E0,7.519032150E0
2.935874905E0,-5.782950401E0,-1.318050027E0,-5.503050327E0,8.090941486E0
2.937838646E0,-5.590950489E0,-1.585950017E0,-5.772000313E0,8.190845649E0
2.939802287E0,-5.169000149E0,-2.083950043E0,-5.311950207E0,7.699235372E0
2.941765964E0,-4.518000126E0,-2.851050138E0,-4.429950237E0,6.940120398E0
2.943729648E0,-3.675000191E0,-3.808950186E0,-3.127050161E0,6.147533703E0
2.945692982E0,-2.793000221E0,-4.651950359E0,-1.516950130E0,5.634059822E0
2.947656419E0,-1.911000133E0,-5.533950329E0,-1.369500011E-1,5.856217470E0
2.949619074E0,-1.106999993E0,-6.454050541E0,1.126049995E0,6.644411634E0
2.951581958E0,-3.400500119E-1,-7.488000393E0,1.624950051E0,7.669827023E0
2.953546554E0,5.020500422E-1,-8.868000031E0,1.701000094E0,9.043609905E0
2.955510648E0,1.192050099E0,-1.009500027E1,1.318050027E0,1.025023267E1
2.957474767E0,1.614000082E0,-1.128300095E1,2.070000172E-1,1.139973489E1
2.959438879E0,1.959000111E0,-1.277805042E1,-7.120500207E-1,1.294694054E1
2.961401825E0,2.265000105E0,-1.454100037E1,-9.040500522E-1,1.474409114E1
2.963365112E0,2.725050211E0,-1.653404999E1,7.429500222E-1,1.677357095E1
2.965328657E0,3.492000103E0,-1.837305069E1,3.043050051E0,1.894790780E1
2.967292120E0,4.219950199E0,-2.002200127E1,5.112000465E0,2.109078147E1
2.969255672E0,4.987050056E0,-2.190000153E1,6.186000347E0,2.329693833E1
2.971219197E0,6.097950459E0,-2.400795174E1,6.339000225E0,2.556852890E1
2.973182604E0,7.822950363E0,-2.642205048E1,5.074050426E0,2.801908798E1
2.975146045E0,1.004595089E1,-2.914305115E1,4.423050404E0,3.114164309E1
2.977109549E0,1.215405083E1,-3.190305138E1,4.614000320E0,3.445017616E1
2.979073038E0,1.422300053E1,-3.519900131E1,1.816050053E0,3.800738711E1
2.981037531E0,1.660004997E1,-3.868695068E1,-1.369500011E-1,4.209822523E1
2.983001730E0,2.004900169E1,-4.209795380E1,-4.890000343E0,4.688403018E1
2.984965292E0,2.031795120E1,-4.363095093E1,-6.385050297E0,4.855149727E1
2.986929040E0,2.073900032E1,-4.784700394E1,-8.953050613E0,5.291123733E1
2.988892007E0,2.070105171E1,-5.102895355E1,-1.060095024E1,5.607912079E1
2.990855199E0,2.093100166E1,-5.355795288E1,-1.263195038E1,5.887382540E1
2.992818615E0,2.070105171E1,-5.547495270E1,-1.408905029E1,6.086464702E1
2.994781966E0,2.020305061E1,-5.731395340E1,-1.447200108E1,6.246992335E1
2.996745537E0,1.928295135E1,-5.865600204E1,-1.512405109E1,6.356961310E1
2.998709043E0,1.725105095E1,-5.911605453E1,-1.489395046E1,6.335721287E1
3.000672601E0,1.614000130E1,-5.934600449E1,-1.600500107E1,6.355004288E1
3.002636134E0,1.522005081E1,-5.949900436E1,-1.826595116E1,6.407360173E1
3.004599674E0,1.445295048E1,-5.972895432E1,-2.209905052E1,6.530546528E1
3.006563211E0,1.257495022E1,-5.976705170E1,-2.508900070E1,6.602793195E1
3.008526570E0,1.111905098E1,-6.045705414E1,-2.685195160E1,6.707992244E1
3.010489982E0,9.318000793E0,-6.095505142E1,-2.784795189E1,6.765982454E1
3.012453411E0,7.363050461E0,-6.133905411E1,-2.738805199E1,6.757809899E1
3.014416831E0,5.215950012E0,-6.210495377E1,-2.482005119E1,6.708402461E1
3.016380706E0,3.682950258E0,-6.298695374E1,-2.114100075E1,6.654218494E1
3.018344447E0,1.537050128E0,-6.291000366E1,-1.700205040E1,6.518512715E1
3.020306690E0,-2.629500031E-1,-6.210495377E1,-1.132905006E1,6.313035562E1
3.022269372E0,-2.065050125E0,-6.153000259E1,-4.162050247E0,6.170517250E1
3.024232141E0,-5.092950344E0,-6.057195282E1,1.011000037E0,6.079409291E1
3.026194894E0,-6.856050491E0,-5.923095322E1,4.882050037E0,5.982596142E1
3.028158252E0,-8.656949997E0,-5.746800232E1,6.991050243E0,5.853536416E1
3.030121433E0,-1.022895050E1,-5.524500275E1,8.599950790E0,5.683837533E1
3.032084807E0,-1.126305008E1,-5.233200073E1,9.060000420E0,5.429160345E1
3.034048125E0,-1.137795067E1,-4.849905396E1,8.254950523E0,5.049515030E1
3.036011672E0,-1.042005062E1,-4.420605087E1,7.066950321E0,4.596405308E1
3.037975173E0,-8.848950386E0,-4.010505295E1,6.109050274E0,4.152155693E1
3.039938584E0,-7.584000587E0,-3.608100128E1,5.341950417E0,3.725442461E1
3.041902021E0,-7.086000443E0,-3.324495316E1,4.345950127E0,3.426843438E1
3.043865576E0,-6.396000385E0,-2.994795227E1,3.963000298E0,3.087869877E1
3.045829096E0,-5.935950279E0,-2.699700165E1,3.886050224E0,2.791370613E1
3.047792422E0,-5.668050289E0,-2.442900085E1,4.153950214E0,2.541964160E1
3.049755799E0,-5.821050167E0,-2.186100197E1,4.078050137E0,2.298735576E1
3.051719409E0,-5.590950489E0,-1.952295113E1,4.231050014E0,2.074382154E1
3.053682951E0,-4.939050198E0,-1.760700035E1,4.498950005E0,1.883192049E1
3.055646310E0,-4.096050262E0,-1.622700119E1,5.419050217E0,1.759145533E1
3.057609722E0,-2.716050148E0,-1.549905109E1,6.760950089E0,1.712623599E1
3.059573286E0,-1.222050071E0,-1.553700066E1,8.638950348E0,1.781918233E1
3.061536802E0,2.719500065E-1,-1.549905109E1,9.826950073E0,1.835384127E1
3.063501246E0,1.306950092E0,-1.511595058E1,1.040205002E1,1.839572573E1
3.065465418E0,2.074050188E0,-1.511595058E1,1.070805073E1,1.864017158E1
3.067428984E0,2.457000017E0,-1.492395115E1,1.051695061E1,1.842192762E1
3.069392727E0,2.686950207E0,-1.396605110E1,1.139805031E1,1.822596597E1
3.071356211E0,2.955000162E0,-1.381200027E1,1.132200050E1,1.810223945E1
3.073319785E0,2.802000046E0,-1.308405018E1,1.170495033E1,1.777777927E1
3.075282822E0,2.341950178E0,-1.220295048E1,1.162800026E1,1.701784713E1
3.077246016E0,1.882050037E0,-1.124400043E1,1.166595078E1,1.631147037E1
3.079209613E0,1.306950092E0,-1.040100002E1,1.174305058E1,1.574128828E1
3.081173091E0,1.114950061E0,-9.595950127E0,1.170495033E1,1.517666745E1
3.083135485E0,6.550500393E-1,-8.562000275E0,1.132200050E1,1.421001881E1
3.085098218E0,-1.480500102E-1,-7.603050232E0,1.082295036E1,1.322741646E1
3.087061533E0,-1.030050039E0,-6.760050297E0,1.024800014E1,1.231993466E1
3.089024677E0,-1.758000135E0,-6.070050240E0,9.442950249E0,1.136245501E1
3.090987968E0,-2.256000042E0,-5.380050182E0,9.442950249E0,1.109972007E1
3.092951216E0,-2.485950232E0,-4.690050125E0,9.367050171E0,1.076652904E1
3.094914614E0,-2.716050148E0,-3.732000113E0,9.214050293E0,1.030550707E1
3.096877975E0,-2.985000134E0,-2.581950188E0,9.060000420E0,9.882322610E0
3.098841364E0,-3.061050177E0,-1.585950017E0,9.520050049E0,1.012504907E1
3.100804744E0,-3.330000162E0,-5.509500504E-1,9.442950249E0,1.002804849E1
3.102767229E0,-3.559950113E0,-1.500000060E-2,9.558000565E0,1.019945315E1
3.104729977E0,-3.330000162E0,3.679500222E-1,1.078500080E1,1.129338437E1
3.106693435E0,-3.175950050E0,1.134000063E0,1.162800026E1,1.210714685E1
3.108656677E0,-3.483000278E0,2.016000032E0,1.189605045E1,1.255832646E1
3.110619907E0,-3.790050268E0,2.743950129E0,1.258605099E1,1.342767377E1
3.112583141E0,-4.210950375E0,3.970950127E0,1.289295101E1,1.413254166E1
3.114546595E0,-4.863000393E0,5.119950294E0,1.312305069E1,1.490225229E1
3.116509985E0,-5.437950134E0,6.309000492E0,1.381305027E1,1.612994565E1
3.118473331E0,-6.204000473E0,7.612050533E0,1.346805096E1,1.666797324E1
3.120436717E0,-6.931950092E0,8.761950493E0,1.385100079E1,1.779533454E1
3.122400281E0,-7.776000500E0,9.796050072E0,1.427295113E1,1.897751076E1
3.124363792E0,-8.848950386E0,1.098495007E1,1.442595100E1,2.017625122E1
3.126327111E0,-9.922050476E0,1.198095036E1,1.469400024E1,2.139868922E1
3.128290487E0,-1.091805077E1,1.274805069E1,1.503900051E1,2.253637427E1
3.130253758E0,-1.206795025E1,1.351395035E1,1.480905056E1,2.340021914E1
3.132217045E0,-1.291095066E1,1.393605042E1,1.484805107E1,2.411163140E1
3.134180266E0,-1.363995075E1,1.405095100E1,1.446405029E1,2.434514801E1
3.136143507E0,-1.413795090E1,1.401195049E1,1.457895088E1,2.467310724E1
3.138107230E0,-1.505805111E1,1.431900024E1,1.392795086E1,2.501532503E1
3.140070812E0,-1.551795101E1,1.424205112E1,1.358295059E1,2.506270876E1
3.142034533E0,-1.601595116E1,1.416600037E1,1.346805096E1,2.527003471E1
3.143998206E0,-1.639905167E1,1.401195049E1,1.342995071E1,2.540919574E1
3.145961362E0,-1.682100105E1,1.397400093E1,1.346805096E1,2.568281867E1
3.147924670E0,-1.720395088E1,1.382100105E1,1.281600094E1,2.551951951E1
3.149887932E0,-1.754895020E1,1.366695023E1,1.239495087E1,2.546342452E1
3.151851208E0,-1.777905083E1,1.347600079E1,1.220295048E1,2.542851246E1
3.153814584E0,-1.774095154E1,1.328400040E1,1.220295048E1,2.530055391E1
3.155777917E0,-1.743405151E1,1.278600025E1,1.224105072E1,2.484494470E1
3.157741132E0,-1.689795113E1,1.232595062E1,1.243305016E1,2.433208884E1
3.159704381E0,-1.628400040E1,1.171305084E1,1.285500050E1,2.382467768E1
3.161667608E0,-1.578600121E1,1.125300026E1,1.327605057E1,2.349641180E1
3.163630842E0,-1.528800106E1,1.083105087E1,1.350600052E1,2.309646487E1
3.165593933E0,-1.467495060E1,1.041000080E1,1.392795086E1,2.275324388E1
3.167557069E0,-1.436805058E1,1.010295010E1,1.427295113E1,2.263244600E1
3.169520495E0,-1.390800095E1,9.681000710E0,1.492395115E1,2.258049120E1
3.171483836E0,-1.318005085E1,8.953050613E0,1.572900105E1,2.238911185E1
3.173447363E0,-1.260495090E1,8.532000542E0,1.657200050E1,2.250135599E1
3.175410836E0,-1.222200012E1,8.224950790E0,1.687905121E1,2.240378254E1
3.177373886E0,-1.180005074E1,7.957050323E0,1.722405052E1,2.234331586E1
3.179337064E0,-1.153200054E1,7.726950169E0,1.726200104E1,2.215106036E1
3.181300438E0,-1.134000015E1,7.381950378E0,1.687905121E1,2.163310344E1
3.183263755E0,-1.122495079E1,7.152000427E0,1.634205055E1,2.107636702E1
3.185226836E0,-1.091805077E1,6.844950199E0,1.553805065E1,2.018633681E1
3.187189987E0,-1.072695065E1,6.424050331E0,1.450305080E1,1.914874344E1
3.189153591E0,-1.034400082E1,6.040050507E0,1.339095020E1,1.796658316E1
3.191117062E0,-1.030500031E1,5.809950352E0,1.143705082E1,1.645462506E1
3.193080253E0,-9.999000549E0,5.542050362E0,9.787950516E0,1.504986078E1
3.195043526E0,-9.691950798E0,5.274000168E0,7.795050144E0,1.350969262E1
3.197006569E0,-9.232050896E0,4.813950062E0,6.531000137E0,1.229059973E1
3.198969680E0,-8.848950386E0,4.276950359E0,4.461000443E0,1.079336612E1
3.200933105E0,-8.619000435E0,3.931950092E0,2.965950251E0,9.926946203E0
3.202896442E0,-8.274000168E0,3.549000263E0,9.730500579E-1,9.055457363E0
3.204860736E0,-7.699050426E0,2.974050045E0,-9.900000691E-2,8.254099111E0
3.206824750E0,-7.431000233E0,2.629050016E0,-1.402050018E0,8.006085979E0
3.208788163E0,-7.123950481E0,2.437050104E0,-3.241950035E0,8.197568158E0
3.210751752E0,-6.778950214E0,2.016000032E0,-4.200000286E0,8.225474123E0
3.212715335E0,-6.396000385E0,1.824000120E0,-5.272950172E0,8.487626340E0
3.214678914E0,-6.241950512E0,1.518000126E0,-5.848050117E0,8.687114639E0
3.216642580E0,-6.127950191E0,1.363950014E0,-6.691050529E0,9.175090756E0
3.218606220E0,-6.013050079E0,1.249050021E0,-6.997950554E0,9.310650308E0
3.220569562E0,-6.088950157E0,1.173000097E0,-7.573050499E0,9.787866831E0
3.222532991E0,-6.127950191E0,1.096050024E0,-7.995000362E0,1.013277504E1
3.224496224E0,-6.280950069E0,9.810000658E-1,-7.803000450E0,1.006476582E1
3.226459521E0,-6.396000385E0,8.280000687E-1,-7.918050289E0,1.021224390E1
3.228422919E0,-6.472050190E0,5.209500194E-1,-7.573050499E0,9.975465726E0
3.230386288E0,-6.472050190E0,3.289500177E-1,-7.495950222E0,9.908829977E0
3.232350577E0,-6.472050190E0,6.105000153E-2,-7.381050587E0,9.816876720E0
3.234314596E0,-6.357000351E0,-1.680000126E-1,-7.305000305E0,9.685179757E0
3.236277979E0,-6.357000351E0,-2.440500110E-1,-7.150950432E0,9.571160115E0
3.238241569E0,-6.127950191E0,-5.130000114E-1,-6.921000481E0,9.258249846E0
3.240204603E0,-6.051000118E0,-7.810500264E-1,-6.805950165E0,9.140328179E0
3.242167800E0,-5.859000206E0,-1.126049995E0,-6.691050529E0,8.964710212E0
3.244131216E0,-5.590950489E0,-1.548000097E0,-6.960000515E0,9.060719554E0
3.246094567E0,-5.208000183E0,-2.238000154E0,-7.305000305E0,9.246347390E0
3.248057908E0,-4.786050320E0,-2.851050138E0,-8.224950790E0,9.934011277E0
3.250021256E0,-4.210950375E0,-3.655950069E0,-9.796050072E0,1.127211919E1
3.251984512E0,-3.445050240E0,-4.651950359E0,-1.186605072E1,1.320273354E1
3.253947795E0,-2.371050119E0,-5.955000401E0,-1.497000027E1,1.628449620E1
3.255911511E0,-1.144950032E0,-7.335000515E0,-1.857299995E1,2.000173669E1
3.257875100E0,3.870000243E-1,-8.983050346E0,-2.244405174E1,2.417809796E1
3.259838869E0,1.920000076E0,-1.070805073E1,-2.470500183E1,2.699418208E1
3.261802576E0,3.682950258E0,-1.247100067E1,-2.501205063E1,2.819029367E1
3.263765681E0,4.833000183E0,-1.388895035E1,-2.370900154E1,2.789941911E1
3.265728962E0,5.944950104E0,-1.515405083E1,-2.160105133E1,2.704797787E1
3.267692724E0,7.285950184E0,-1.626495171E1,-1.845795059E1,2.565793570E1
3.269656345E0,8.206049919E0,-1.718505096E1,-1.385895061E1,2.355282879E1
3.271619745E0,9.318000793E0,-1.787505150E1,-9.757950783E0,2.239553992E1
3.273583203E0,1.016100025E1,-1.848795128E1,-5.311950207E0,2.175470256E1
3.275545493E0,1.073595047E1,-1.856505013E1,-9.810000658E-1,2.146821091E1
3.277508126E0,1.081200027E1,-1.822005081E1,2.889000177E0,2.138260797E1
3.279471639E0,1.062105083E1,-1.741500092E1,7.144050121E0,2.161310783E1
3.281434894E0,1.008405018E1,-1.660995102E1,1.055505085E1,2.211306490E1
3.283398115E0,9.318000793E0,-1.569000053E1,1.411905098E1,2.307268637E1
3.285361319E0,8.743050575E0,-1.477095032E1,1.684095001E1,2.404661107E1
3.287324599E0,8.206049919E0,-1.396605110E1,1.944705009E1,2.530963445E1
