"Time (s)","Acceleration x (m/s^2)","Acceleration y (m/s^2)","Acceleration z (m/s^2)","Absolute acceleration (m/s^2)"
4.003955200E-2,-4.930500090E-1,-5.854095459E1,-2.229105186E1,6.264325547E1
4.200156400E-2,-1.106999993E0,-6.210495377E1,-2.336400032E1,6.636359877E1
4.396593600E-2,-1.413000107E0,-6.513300323E1,-2.482005119E1,6.971613602E1
4.592847600E-2,-1.567050099E0,-6.716400146E1,-2.547195053E1,7.184900140E1
4.789155200E-2,-1.336950064E0,-6.858300018E1,-2.577900124E1,7.328009453E1
4.985528400E-2,-1.099500060E-1,-6.977100372E1,-2.620005035E1,7.452816708E1
5.181883800E-2,2.494950056E0,-7.134195709E1,-2.650695038E1,7.614800087E1
5.378183400E-2,5.599950314E0,-7.141905212E1,-2.478195190E1,7.580359879E1
5.574499400E-2,8.167950630E0,-7.138005066E1,-2.194605064E1,7.512294049E1
5.770805700E-2,8.743050575E0,-6.996195221E1,-1.765305138E1,7.268250074E1
5.967114800E-2,8.628000259E0,-6.831405640E1,-1.297695065E1,7.006892277E1
6.163369800E-2,9.547050476E0,-6.636000061E1,-7.879950523E0,6.750473668E1
6.359642700E-2,1.161705017E1,-6.528600311E1,-3.165000200E0,6.638701141E1
6.555866200E-2,1.111905098E1,-6.333195114E1,8.200500607E-1,6.430584586E1
6.752104200E-2,1.073595047E1,-6.099405289E1,4.498950005E0,6.209489247E1
6.948419200E-2,1.046700096E1,-5.796600342E1,6.376950264E0,5.924762574E1
7.144711700E-2,8.436000824E0,-5.474595261E1,6.760950089E0,5.580318882E1
7.340966100E-2,5.178000450E0,-5.022405243E1,6.109050274E0,5.085850594E1
7.537233100E-2,1.039050102E0,-4.550895309E1,4.690950394E0,4.576187772E1
7.733462100E-2,-2.448000193E0,-4.083300018E1,3.694050074E0,4.107277218E1
7.929702300E-2,-4.057950020E0,-3.734595108E1,3.426000118E0,3.772167145E1
8.126017000E-2,-3.828000069E0,-3.450900269E1,3.388050079E0,3.488558061E1
8.322309800E-2,-4.210950375E0,-3.198000145E1,3.771000147E0,3.247572998E1
8.518600100E-2,-4.173000336E0,-2.937300110E1,4.153950214E0,2.995734347E1
8.714892600E-2,-4.173000336E0,-2.692005157E1,4.461000443E0,2.760441330E1
8.911225400E-2,-4.288050175E0,-2.492700195E1,5.074050426E0,2.579706938E1
9.107546300E-2,-4.402950287E0,-2.304900169E1,5.533950329E0,2.410948064E1
9.303847300E-2,-3.943050146E0,-2.155500031E1,6.531000137E0,2.286524973E1
9.500154200E-2,-3.138000250E0,-2.071095085E1,7.527000427E0,2.225862229E1
9.696463500E-2,-2.295000076E0,-1.998300171E1,8.409000397E0,2.180134561E1
9.892774100E-2,-1.720050097E0,-1.925505066E1,8.983950615E0,2.131729150E1
1.008904090E-1,-1.260000110E0,-1.837305069E1,9.481950760E0,2.071385966E1
1.028532050E-1,-1.222050071E0,-1.729995155E1,9.787950516E0,1.991445971E1
1.048160130E-1,-1.413000107E0,-1.641900063E1,9.865050316E0,1.920675320E1
1.067788180E-1,-1.528050065E0,-1.553700066E1,1.021005058E1,1.865418075E1
1.087417310E-1,-1.758000135E0,-1.480905056E1,1.047795010E1,1.822596997E1
1.107046020E-1,-1.720050097E0,-1.434900093E1,1.063200092E1,1.794134453E1
1.126677590E-1,-1.567050099E0,-1.385100079E1,1.093800068E1,1.771851370E1
1.146308320E-1,-1.452000022E0,-1.296900082E1,1.139805031E1,1.732682421E1
1.165938660E-1,-1.452000022E0,-1.193400097E1,1.166595078E1,1.675180858E1
1.185569110E-1,-1.375050068E0,-1.082295036E1,1.143705082E1,1.580611112E1
1.205200050E-1,-1.605000019E0,-9.750000000E0,1.135995007E1,1.505612801E1
1.224831070E-1,-1.758000135E0,-8.599950790E0,1.101495075E1,1.408470298E1
1.244461360E-1,-2.026050091E0,-7.450050354E0,1.070805073E1,1.320115448E1
1.264091860E-1,-2.218050003E0,-6.262050152E0,1.024800014E1,1.221288356E1
1.283723120E-1,-2.410050154E0,-5.188950062E0,9.712050438E0,1.127197712E1
1.303354150E-1,-3.061050177E0,-3.502050161E0,9.367050171E0,1.045829873E1
1.322981080E-1,-3.520950079E0,-1.701000094E0,9.136950493E0,9.938528819E0
1.342609350E-1,-3.865950108E0,-3.210000098E-1,8.907000542E0,9.715105243E0
1.362234690E-1,-4.249050140E0,9.810000658E-1,8.638950348E0,9.677202661E0
1.381860890E-1,-4.747950077E0,2.551950216E0,8.562000275E0,1.011747639E1
1.401492880E-1,-5.131050110E0,4.123950005E0,8.446949959E0,1.070913640E1
1.421123180E-1,-5.208000183E0,5.542050362E0,8.562000275E0,1.145187482E1
1.440755350E-1,-5.361000061E0,6.807000160E0,8.562000275E0,1.218127340E1
1.460387310E-1,-5.398950100E0,7.879950523E0,8.446949959E0,1.275120567E1
1.480021490E-1,-5.437950134E0,9.030000687E0,8.677050591E0,1.365296382E1
1.499655010E-1,-4.671000004E0,7.842000484E0,8.830050468E0,1.269980330E1
1.519286670E-1,-4.747950077E0,8.761950493E0,9.136950493E0,1.352030586E1
1.538918870E-1,-5.245950222E0,9.873000145E0,8.907000542E0,1.429443193E1
1.558548910E-1,-5.553000450E0,1.060095024E1,8.907000542E0,1.491813054E1
1.578179930E-1,-5.629050255E0,1.113795090E1,9.252000809E0,1.553511107E1
1.597811100E-1,-6.204000473E0,1.171305084E1,9.405000687E0,1.625236044E1
1.617442220E-1,-6.702000141E0,1.213395023E1,9.136950493E0,1.660221125E1
1.637077890E-1,-7.315950394E0,1.251795101E1,9.252000809E0,1.719946937E1
1.656712220E-1,-8.311950684E0,1.282395077E1,9.214050293E0,1.784491413E1
1.676342240E-1,-9.270000458E0,1.305405045E1,9.481950760E0,1.860775461E1
1.695973630E-1,-1.053495026E1,1.336095047E1,9.750000000E0,1.961026961E1
1.715604740E-1,-1.176195049E1,1.355205059E1,1.005705070E1,2.057050859E1
1.735235940E-1,-1.294995022E1,1.359105110E1,1.063200092E1,2.157446000E1
1.754869780E-1,-1.421505070E1,1.370595074E1,1.105305099E1,2.262942085E1
1.774502840E-1,-1.532595062E1,1.362900066E1,1.143705082E1,2.348277141E1
1.794133590E-1,-1.624604988E1,1.351395035E1,1.162800026E1,2.411993741E1
1.813765080E-1,-1.685895157E1,1.290105057E1,1.204995060E1,2.441029830E1
1.833397510E-1,-1.747200012E1,1.236405087E1,1.247100067E1,2.477229097E1
1.853029670E-1,-1.785600090E1,1.194300079E1,1.277805042E1,2.499501168E1
1.872657960E-1,-1.846905136E1,1.155900097E1,1.285500050E1,2.529757695E1
1.892287380E-1,-1.892895126E1,1.106100082E1,1.297005081E1,2.547298870E1
1.911919970E-1,-1.919700050E1,1.060095024E1,1.304595089E1,2.551669667E1
1.931551780E-1,-1.931205177E1,1.006500053E1,1.285500050E1,2.528854715E1
1.951184620E-1,-1.931205177E1,9.490050316E0,1.304595089E1,2.516372853E1
1.970817160E-1,-1.915904999E1,8.953050613E0,1.304595089E1,2.484800085E1
1.990449440E-1,-1.869900131E1,8.302050591E0,1.270095062E1,2.408092276E1
2.010081800E-1,-1.793205070E1,7.726950169E0,1.251000023E1,2.318974573E1
2.029717400E-1,-1.720395088E1,7.228050232E0,1.247100067E1,2.244429758E1
2.049352260E-1,-1.639905167E1,6.730050087E0,1.247100067E1,2.167367822E1
2.068985490E-1,-1.574805069E1,6.270000458E0,1.208805084E1,2.081910131E1
2.088619200E-1,-1.509600067E1,5.848950386E0,1.193505096E1,2.011330153E1
2.108249460E-1,-1.456005096E1,5.542050362E0,1.178100014E1,1.953206007E1
2.127880740E-1,-1.421505070E1,5.235000134E0,1.147500038E1,1.900390819E1
2.147511040E-1,-1.341000080E1,4.774950027E0,1.151295090E1,1.830782094E1
2.167141900E-1,-1.329495049E1,4.660050392E0,1.120695019E1,1.800187520E1
2.186774890E-1,-1.291095066E1,4.392000198E0,1.124505043E1,1.767578773E1
2.206407260E-1,-1.260495090E1,4.315950394E0,1.128300095E1,1.745904709E1
2.226039120E-1,-1.237500095E1,4.201050282E0,1.139805031E1,1.734084839E1
2.245671130E-1,-1.214505100E1,4.162050247E0,1.143705082E1,1.719392502E1
2.265303620E-1,-1.180005074E1,4.047000408E0,1.151295090E1,1.697549552E1
2.284935870E-1,-1.168500042E1,4.047000408E0,1.128300095E1,1.673987925E1
2.304566840E-1,-1.137795067E1,3.970950127E0,1.113000011E1,1.640436249E1
2.324198190E-1,-1.118700027E1,3.856050253E0,1.074705029E1,1.598490502E1
2.343830650E-1,-1.087995052E1,3.817050219E0,1.017195034E1,1.537568761E1
2.363462790E-1,-1.072695065E1,3.856050253E0,9.558000565E0,1.487588547E1
2.383096480E-1,-1.061205006E1,3.970950127E0,8.485050201E0,1.415556881E1
2.402729710E-1,-1.034400082E1,4.392000198E0,7.527000427E0,1.352567019E1
2.422358720E-1,-9.999000549E0,4.699050426E0,6.454050541E0,1.279514968E1
2.441988960E-1,-9.577050209E0,4.392000198E0,5.419050217E0,1.184802354E1
2.461618020E-1,-9.117000580E0,3.931950092E0,4.231050014E0,1.079266952E1
2.481247420E-1,-8.619000435E0,3.778950214E0,2.889000177E0,9.844488572E0
2.500878110E-1,-8.082000732E0,3.586950064E0,1.816050053E0,9.026792586E0
2.520508320E-1,-7.584000587E0,3.472050190E0,6.280500293E-1,8.364606642E0
2.540143250E-1,-7.201050282E0,3.280950069E0,-7.510500550E-1,7.948825995E0
2.559776790E-1,-6.778950214E0,3.166050196E0,-1.747050047E0,7.683112892E0
2.579410250E-1,-6.166050434E0,2.896950245E0,-2.437050104E0,7.235448285E0
2.599043730E-1,-5.821050167E0,2.743950129E0,-3.394950151E0,7.275958623E0
2.618670930E-1,-5.553000450E0,2.590950012E0,-4.353000164E0,7.516478324E0
2.638299930E-1,-5.053950310E0,2.322000027E0,-4.698000431E0,7.280474291E0
2.657930540E-1,-4.747950077E0,2.092950106E0,-5.197050095E0,7.343895408E0
2.677560680E-1,-4.671000004E0,1.978050113E0,-5.925000191E0,7.799778878E0
2.697191560E-1,-4.402950287E0,1.863000035E0,-6.385050297E0,7.976566157E0
2.716822220E-1,-3.904950142E0,1.939050078E0,-6.078000069E0,7.480015752E0
2.736454610E-1,-3.559950113E0,1.939050078E0,-6.307950497E0,7.498226423E0
2.756086640E-1,-3.330000162E0,1.747950077E0,-6.193050385E0,7.245557509E0
2.775717200E-1,-3.138000250E0,1.555950046E0,-6.117000103E0,7.048809571E0
2.795348190E-1,-2.869950056E0,1.326000094E0,-6.346950531E0,7.090745420E0
2.814975770E-1,-2.793000221E0,1.134000063E0,-6.270000458E0,6.956990162E0
2.834604350E-1,-2.410050154E0,8.280000687E-1,-6.499950409E0,6.981638860E0
2.854235320E-1,-2.026050091E0,6.360000372E-1,-6.346950531E0,6.692768938E0
2.873865390E-1,-1.795950055E0,4.060500264E-1,-5.848050117E0,6.131068700E0
2.893503940E-1,-1.375050068E0,6.105000153E-2,-5.272950172E0,5.449632402E0
2.913140000E-1,-9.529500604E-1,-1.680000126E-1,-4.852050304E0,4.947598405E0
2.932771230E-1,-3.780000210E-1,-5.509500504E-1,-4.123950005E0,4.177725890E0
2.952403870E-1,8.100000024E-2,-1.048950076E0,-3.549000263E0,3.701656404E0
2.972043770E-1,4.260000288E-1,-1.548000097E0,-3.241950035E0,3.617736911E0
2.991681540E-1,7.699500322E-1,-2.008050203E0,-3.049950123E0,3.731927709E0
3.011314280E-1,1.230000019E0,-2.544000149E0,-3.280050039E0,4.329383913E0
3.030948490E-1,1.230000019E0,-3.042000055E0,-4.315050125E0,5.420915233E0
3.050577320E-1,1.306950092E0,-3.579000235E0,-6.883050442E0,7.867257756E0
3.070207720E-1,1.729050040E0,-4.729050159E0,-9.643050194E0,1.087850847E1
3.089839700E-1,2.572050095E0,-6.837000370E0,-1.221105099E1,1.422918768E1
3.109471350E-1,2.494950056E0,-8.407950401E0,-1.405005074E1,1.656267887E1
3.129098830E-1,3.108000040E0,-9.520050049E0,-1.428000069E1,1.744160075E1
3.148727530E-1,4.258049965E0,-1.070805073E1,-1.309200096E1,1.744115332E1
3.168356390E-1,5.446050167E0,-1.178100014E1,-1.029405022E1,1.656559376E1
3.187985200E-1,6.405000210E0,-1.262400055E1,-6.538050175E0,1.559280339E1
3.207607790E-1,7.285950184E0,-1.342905045E1,-2.782050133E0,1.552946454E1
3.227232180E-1,8.014050484E0,-1.431105042E1,4.750500321E-1,1.640904756E1
3.246861780E-1,8.512949944E0,-1.503900051E1,3.694050074E0,1.767166826E1
3.266489850E-1,8.551050186E0,-1.572900105E1,6.607050419E0,1.908337099E1
3.286119740E-1,8.628000259E0,-1.641900063E1,9.289950371E0,2.074437630E1
3.305749090E-1,8.398050308E0,-1.684005165E1,1.155105019E1,2.208033852E1
3.325381500E-1,7.822950363E0,-1.699394989E1,1.354500103E1,2.309675168E1
3.345012980E-1,7.630950451E0,-1.668704987E1,1.484805107E1,2.360410258E1
3.364645430E-1,7.669050217E0,-1.507695103E1,1.511595058E1,2.268525392E1
3.384277600E-1,6.634950161E0,-1.492395115E1,1.500105095E1,2.217607745E1
3.403908590E-1,5.446050167E0,-1.446405029E1,1.438800049E1,2.111593643E1
3.423539920E-1,3.990000248E0,-1.392705059E1,1.323795033E1,1.962463169E1
3.443172390E-1,2.802000046E0,-1.369695091E1,1.189605045E1,1.835684300E1
3.462804520E-1,1.575000048E0,-1.323795033E1,1.028700066E1,1.683883418E1
3.482427860E-1,8.089500666E-1,-1.346700096E1,8.638950348E0,1.602017410E1
3.502053770E-1,4.200000316E-2,-1.316100025E1,6.952050209E0,1.488437751E1
3.521685360E-1,-7.230000496E-1,-1.308405018E1,5.188950062E0,1.409398102E1
3.541315290E-1,-1.068000078E0,-1.400400066E1,4.653000355E0,1.479537330E1
3.560949360E-1,-1.144950032E0,-1.526895046E1,4.576050282E0,1.598098855E1
3.580582210E-1,-1.183050036E0,-1.703205109E1,5.764050484E0,1.801984044E1
3.600221640E-1,-1.336950064E0,-2.063505173E1,3.886050224E0,2.104029899E1
3.619859140E-1,-2.026050091E0,-2.810895157E1,-1.669500160E1,3.275577988E1
3.639490560E-1,-4.402950287E0,-3.324495316E1,-4.455900192E1,5.576842775E1
3.659123770E-1,-6.702000141E0,-3.393405151E1,-2.646795082E1,4.355443811E1
3.678757610E-1,-7.047000408E0,-3.688605118E1,-1.462500095E1,4.030051661E1
3.698391340E-1,-7.315950394E0,-4.029705048E1,-7.687950134E0,4.167109291E1
3.718016210E-1,-7.239000320E0,-4.301805115E1,-2.667000055E0,4.370433319E1
3.737643670E-1,-7.468950272E0,-4.435995102E1,8.959500194E-1,4.499325726E1
3.757273190E-1,-7.431000233E0,-4.447500229E1,3.043050051E0,4.519408973E1
3.776902110E-1,-7.507050514E0,-4.336305237E1,4.269000053E0,4.421464101E1
3.796532000E-1,-6.970950127E0,-4.202205276E1,6.262050152E0,4.305415585E1
3.816161490E-1,-7.162050247E0,-3.841905212E1,7.948950291E0,3.988112762E1
3.835794280E-1,-7.431000233E0,-3.623400116E1,9.060000420E0,3.808157313E1
3.855426110E-1,-5.935950279E0,-3.389595032E1,8.409000397E0,3.542431709E1
3.875056710E-1,-4.978050232E0,-3.025500107E1,6.913950443E0,3.143165259E1
3.894687670E-1,-4.555950165E0,-2.684400177E1,6.109050274E0,2.790479543E1
3.914318410E-1,-3.790050268E0,-2.404605103E1,4.729050159E0,2.479800327E1
3.933949210E-1,-2.563050032E0,-2.232105064E1,2.430000067E0,2.259874836E1
3.953590330E-1,-1.873050094E0,-2.094105148E1,5.899500251E-1,2.103292645E1
3.973228420E-1,-1.183050036E0,-1.933200073E1,-1.018950105E0,1.939495086E1
3.992858400E-1,-8.770500422E-1,-1.818195152E1,-2.359950066E0,1.835543359E1
4.012490750E-1,-8.380500674E-1,-1.687905121E1,-2.398950100E0,1.706926065E1
4.032116030E-1,-9.919500351E-1,-1.591995049E1,-1.287000060E0,1.600266095E1
4.051743240E-1,-1.375050068E0,-1.465605068E1,5.130000114E-1,1.472935006E1
4.071374160E-1,-1.413000107E0,-1.358205032E1,2.430000067E0,1.386987962E1
4.091003990E-1,-7.999500632E-1,-1.335300064E1,4.308000088E0,1.405351952E1
4.110636730E-1,4.200000316E-2,-1.346700096E1,5.572050095E0,1.457427944E1
4.130268610E-1,-7.200000435E-2,-1.327605057E1,6.607050419E0,1.482942406E1
4.149910190E-1,3.109500110E-1,-1.289295101E1,7.795050144E0,1.506942874E1
4.169548800E-1,9.619500637E-1,-1.262400055E1,8.907000542E0,1.547983839E1
4.189175080E-1,1.459950089E0,-1.239405060E1,9.826950073E0,1.588435999E1
4.208804970E-1,1.882050037E0,-1.227900028E1,1.090005016E1,1.652655602E1
4.228435430E-1,2.341950178E0,-1.216395092E1,1.212600040E1,1.733454119E1
4.248065720E-1,2.955000162E0,-1.216395092E1,1.320000076E1,1.819158454E1
4.267694970E-1,3.645000219E0,-1.224105072E1,1.427295113E1,1.915323689E1
4.287324390E-1,3.837000132E0,-1.204905033E1,1.492395115E1,1.956084103E1
4.306955380E-1,3.952050209E0,-1.254795074E1,1.530795097E1,2.018422978E1
4.326585910E-1,4.105050087E0,-1.239405060E1,1.542300034E1,2.020724785E1
4.346216720E-1,4.527000427E0,-1.235595036E1,1.523100090E1,2.012825453E1
4.365847450E-1,5.101050377E0,-1.231800079E1,1.496295071E1,2.004105168E1
4.385478230E-1,6.060000420E0,-1.216395092E1,1.492395115E1,2.018439063E1
4.405108990E-1,6.787950516E0,-1.231800079E1,1.461795044E1,2.028531219E1
4.424737970E-1,6.595950127E0,-1.270095062E1,1.366005039E1,1.978427865E1
4.444367470E-1,5.944950104E0,-1.277805042E1,1.155105019E1,1.822217783E1
4.463997090E-1,5.446050167E0,-1.319895077E1,9.328050613E0,1.705533031E1
4.483626680E-1,5.025000095E0,-1.365900040E1,7.105050564E0,1.619569885E1
4.503259660E-1,5.025000095E0,-1.388895035E1,4.614000320E0,1.547393184E1
4.522891500E-1,4.987050056E0,-1.419600105E1,1.318050027E0,1.510411765E1
4.542531100E-1,4.872000217E0,-1.431105042E1,-2.169000149E0,1.527242979E1
4.562168420E-1,4.909950256E0,-1.434900093E1,-4.927950382E0,1.594635175E1
4.581796270E-1,4.795050144E0,-1.408095074E1,-7.036050320E0,1.645514156E1
4.601426900E-1,4.987050056E0,-1.427205086E1,-7.840950489E0,1.703063735E1
4.621056270E-1,5.485050201E0,-1.496205044E1,-6.652950287E0,1.726877171E1
4.640685740E-1,5.752950191E0,-1.615005112E1,-4.429950237E0,1.770720323E1
4.660307270E-1,5.370000362E0,-1.779900169E1,-2.014950037E0,1.870030451E1
4.679931130E-1,5.062950134E0,-1.910205078E1,7.050000429E-1,1.977419614E1
4.699559920E-1,5.370000362E0,-2.029005051E1,2.851050138E0,2.118139609E1
4.719187260E-1,5.830050468E0,-2.147805023E1,5.074050426E0,2.282634701E1
4.738818030E-1,6.175050259E0,-2.235900116E1,6.454050541E0,2.407718727E1
4.758447890E-1,6.442950249E0,-2.320305061E1,7.258950233E0,2.515125293E1
4.778075220E-1,6.250950336E0,-2.366295052E1,7.527000427E0,2.560596303E1
4.797703300E-1,6.097950459E0,-2.393100166E1,7.564950466E0,2.582840134E1
4.817330920E-1,5.599950314E0,-2.400795174E1,7.297050476E0,2.570968953E1
4.836958680E-1,5.062950134E0,-2.389305115E1,6.837000370E0,2.536249064E1
4.856587810E-1,4.717950344E0,-2.381595039E1,6.262050152E0,2.507332887E1
4.876216780E-1,4.564949989E0,-2.366295052E1,5.725950241E0,2.477015344E1
4.895846060E-1,4.027950287E0,-2.339400101E1,4.614000320E0,2.418248675E1
4.915475240E-1,3.721950293E0,-2.331795120E1,3.310950041E0,2.384412197E1
4.935112140E-1,2.992950201E0,-2.308800125E1,1.855050087E0,2.335497299E1
4.954746780E-1,2.035050154E0,-2.281905174E1,2.070000172E-1,2.291055217E1
4.974366180E-1,1.077000022E0,-2.251305199E1,-1.594050050E0,2.259509757E1
4.993989980E-1,1.960500032E-1,-2.201505089E1,-2.629050016E0,2.217234325E1
5.013619680E-1,-6.079500318E-1,-2.167005157E1,-3.855000257E0,2.201866857E1
5.033247650E-1,-1.030050039E0,-2.147805023E1,-4.774950027E0,2.202652475E1
5.052877550E-1,-1.452000022E0,-2.109495163E1,-5.887050152E0,2.194909219E1
5.072506880E-1,-1.911000133E0,-2.078805161E1,-6.805950165E0,2.195713936E1
5.092137400E-1,-1.873050094E0,-2.059605026E1,-7.534950256E0,2.201093089E1
5.111767600E-1,-1.950000048E0,-2.025105095E1,-8.340000153E0,2.198779587E1
5.131395330E-1,-2.179949999E0,-1.975305176E1,-8.722949982E0,2.170311250E1
5.151023780E-1,-2.332950115E0,-1.917795181E1,-9.220950127E0,2.140706456E1
5.170652680E-1,-2.755050182E0,-1.867995071E1,-9.873000145E0,2.130743983E1
5.190281450E-1,-2.830950022E0,-1.825800133E1,-1.017900085E1,2.109457155E1
5.209907120E-1,-3.175950050E0,-1.776000023E1,-1.060095024E1,2.092568787E1
5.229533730E-1,-3.559950113E0,-1.722405052E1,-1.094595051E1,2.071605642E1
5.249163400E-1,-4.096050262E0,-1.691700172E1,-1.121400070E1,2.070546756E1
5.268792170E-1,-4.441050053E0,-1.653404999E1,-1.144395065E1,2.059275943E1
5.288421480E-1,-4.786050320E0,-1.615005112E1,-1.167405033E1,2.049424016E1
5.308050630E-1,-5.169000149E0,-1.584405041E1,-1.144395065E1,2.021673817E1
5.327678220E-1,-5.361000061E0,-1.565205097E1,-1.117605019E1,1.996574865E1
5.347306170E-1,-5.629050255E0,-1.549905109E1,-1.075395012E1,1.968639720E1
5.366935610E-1,-5.514000416E0,-1.572900105E1,-1.014105034E1,1.951016598E1
5.386564620E-1,-5.437950134E0,-1.603499985E1,-9.451050758E0,1.939110317E1
5.406194340E-1,-5.208000183E0,-1.626495171E1,-9.028950691E0,1.931822638E1
5.425823850E-1,-4.824000359E0,-1.653404999E1,-8.914050102E0,1.939345451E1
5.445456440E-1,-4.134000301E0,-1.680195045E1,-9.336000443E0,1.966103766E1
5.465088260E-1,-3.253050089E0,-1.714695168E1,-1.014105034E1,2.018517249E1
5.484718860E-1,-1.987950087E0,-1.753005028E1,-1.129095078E1,2.094612560E1
5.504349820E-1,-4.170000255E-1,-1.818195152E1,-1.247895050E1,2.205632462E1
5.523989100E-1,1.192050099E0,-1.879500008E1,-1.381995106E1,2.335945330E1
5.543625950E-1,2.686950207E0,-1.917795181E1,-1.508505058E1,2.454734789E1
5.563254340E-1,4.066950321E0,-1.944705009E1,-1.646505165E1,2.580359991E1
5.582885210E-1,4.833000183E0,-1.921695137E1,-1.795995140E1,2.674339105E1
5.602515960E-1,6.175050259E0,-1.914000130E1,-1.903305054E1,2.768985208E1
5.622146740E-1,7.401000500E0,-1.898700142E1,-2.002905083E1,2.857348261E1
5.641777510E-1,8.857950211E0,-1.875705147E1,-2.079600143E1,2.937284354E1
5.661408280E-1,1.008405018E1,-1.860300064E1,-2.129400063E1,3.001989613E1
5.681037150E-1,1.115700054E1,-1.833495140E1,-2.148600197E1,3.036934943E1
5.700666650E-1,1.219200039E1,-1.787505150E1,-2.148600197E1,3.049279620E1
5.720295840E-1,1.330395031E1,-1.733895111E1,-2.114100075E1,3.040684515E1
5.739925120E-1,1.429995060E1,-1.664895058E1,-2.048895073E1,3.002454403E1
5.759553890E-1,1.506705093E1,-1.588200092E1,-1.953105164E1,2.933796099E1
5.779182810E-1,1.579500103E1,-1.515405083E1,-1.830495071E1,2.853416434E1
5.798812670E-1,1.629300117E1,-1.469400024E1,-1.700205040E1,2.775689551E1
5.818442160E-1,1.667595100E1,-1.450200081E1,-1.543005085E1,2.695332704E1
5.838069100E-1,1.702095032E1,-1.388895035E1,-1.378200054E1,2.593374694E1
5.857696790E-1,1.755795097E1,-1.350600052E1,-1.217205048E1,2.527553175E1
5.877324480E-1,1.794105148E1,-1.293105030E1,-1.075395012E1,2.459147888E1
5.896952170E-1,1.817100143E1,-1.262400055E1,-8.953050613E0,2.386855250E1
5.916582060E-1,1.824795151E1,-1.216395092E1,-6.844950199E0,2.297395872E1
5.936211340E-1,1.847805023E1,-1.158900070E1,-4.698000431E0,2.231175667E1
5.955840120E-1,1.870800018E1,-1.113000011E1,-2.475000143E0,2.190871514E1
5.975469050E-1,1.893795013E1,-1.078500080E1,1.300500035E-1,2.179401548E1
5.995089770E-1,1.909095001E1,-1.028595066E1,2.430000067E0,2.182132108E1
6.014712900E-1,1.947405052E1,-9.865050316E0,4.498950005E0,2.228897514E1
6.034342880E-1,1.928295135E1,-9.328050613E0,6.376950264E0,2.234972563E1
6.053971050E-1,1.924395180E1,-8.523000717E0,7.987050533E0,2.251142373E1
6.073600460E-1,1.893795013E1,-7.756950378E0,9.328050613E0,2.249063722E1
6.093229510E-1,1.882305145E1,-6.990000248E0,1.040205002E1,2.261349186E1
6.112858330E-1,1.855395126E1,-5.994000435E0,1.128300095E1,2.252738909E1
6.132487220E-1,1.832505035E1,-5.149950027E0,1.162800026E1,2.230560122E1
6.152118260E-1,1.821000099E1,-4.384050369E0,1.097700024E1,2.170987259E1
6.171748700E-1,1.801800156E1,-3.771000147E0,1.055505085E1,2.121975308E1
6.191379980E-1,1.771095085E1,-3.196050167E0,9.634950638E0,2.041383821E1
6.211011010E-1,1.729005051E1,-2.428950071E0,8.446949959E0,1.939578842E1
6.230639940E-1,1.713600159E1,-1.701000094E0,6.492000103E0,1.840331538E1
6.250269490E-1,1.663800049E1,-1.164000034E0,4.308000088E0,1.722605065E1
6.269898460E-1,1.610205078E1,-3.210000098E-1,2.698050022E0,1.632968323E1
6.289527750E-1,1.591005039E1,-9.105000645E-2,3.220500052E-1,1.591356999E1
6.309156520E-1,1.579500103E1,9.900000691E-2,-2.092050076E0,1.593325240E1
6.328785450E-1,1.579500103E1,2.530499995E-1,-4.736999989E0,1.649197565E1
6.348416520E-1,1.564200115E1,5.980500579E-1,-6.040050507E0,1.677832155E1
6.368046960E-1,1.548795033E1,1.173000097E0,-7.420050144E0,1.721364803E1
6.387676100E-1,1.487505054E1,1.786050081E0,-7.381050587E0,1.670140747E1
6.407305550E-1,1.429995060E1,2.514000177E0,-7.342950344E0,1.627045494E1
6.426933390E-1,1.399305058E1,2.974050045E0,-7.266000271E0,1.604509888E1
6.446561700E-1,1.360995102E1,3.396000147E0,-6.768000126E0,1.557463995E1
6.466192430E-1,1.311195087E1,3.931950092E0,-6.232050419E0,1.504067617E1
6.485822450E-1,1.257495022E1,4.392000198E0,-5.848050117E0,1.454712098E1
6.505453700E-1,1.177005100E1,4.929000378E0,-5.580000401E0,1.392715153E1
6.525084660E-1,1.065900040E1,5.350050449E0,-5.542050362E0,1.315110837E1
6.544714960E-1,9.471000671E0,5.580000401E0,-4.813050270E0,1.200007130E1
6.564345450E-1,8.282999992E0,5.619000435E0,-3.931950092E0,1.075367315E1
6.583976260E-1,7.132950306E0,5.350050449E0,-2.667000055E0,9.306713124E0
6.603606970E-1,6.060000420E0,4.660050392E0,-1.249050021E0,7.745953828E0
6.623224950E-1,5.025000095E0,3.817050219E0,2.070000172E-1,6.313742736E0
6.642846800E-1,3.990000248E0,2.896950245E0,1.585950017E0,5.179542466E0
6.662474130E-1,3.108000040E0,2.131050110E0,2.545050144E0,4.547341977E0
6.682099850E-1,2.265000105E0,1.402950048E0,3.234000206E0,4.190137426E0
6.701729230E-1,1.537050128E0,9.810000658E-1,3.502950191E0,3.949119430E0
6.721357540E-1,9.619500637E-1,2.530499995E-1,3.541050196E0,3.678099878E0
6.740984170E-1,3.870000243E-1,1.057950020E0,3.081000090E0,3.280486064E0
6.760611020E-1,-4.930500090E-1,1.096050024E0,2.659050226E0,2.918042507E0
6.780249660E-1,-1.336950064E0,6.360000372E-1,2.008050203E0,2.494834091E0
6.799884850E-1,-1.911000133E0,-2.059500068E-1,1.395000100E0,2.374944671E0
6.819513070E-1,-2.218050003E0,-1.318050027E0,1.279950023E0,2.880151689E0
6.839143330E-1,-2.332950115E0,-2.736000061E0,1.471050024E0,3.884886195E0
6.858772480E-1,-2.410050154E0,-4.231050014E0,1.855050087E0,5.210694464E0
6.878401890E-1,-2.256000042E0,-5.380050182E0,2.583000183E0,6.380154081E0
6.898031090E-1,-2.140950203E0,-6.492000103E0,3.310950041E0,7.595533114E0
6.917660350E-1,-1.987950087E0,-7.564950466E0,3.655950069E0,8.634025250E0
6.937290920E-1,-1.873050094E0,-8.523000717E0,3.886050224E0,9.552551713E0
6.956921100E-1,-1.795950055E0,-9.289950371E0,3.733050108E0,1.017173916E1
6.976548830E-1,-1.413000107E0,-1.009500027E1,3.157950163E0,1.067137521E1
6.996177280E-1,-1.375050068E0,-1.051605034E1,2.353049994E0,1.086346730E1
7.015817000E-1,-1.452000022E0,-1.158900070E1,8.580000401E-1,1.171108045E1
7.035453410E-1,-1.297950029E0,-1.300800037E1,-1.018950105E0,1.311224646E1
7.055072860E-1,-7.999500632E-1,-1.488600063E1,-1.287000060E0,1.496293100E1
7.074697280E-1,2.340000123E-1,-1.668704987E1,5.130000114E-1,1.669657325E1
7.094332470E-1,1.575000048E0,-1.772205162E1,3.310950041E0,1.809735144E1
7.113964370E-1,2.494950056E0,-1.891005135E1,5.457000256E0,1.983919528E1
7.133591800E-1,3.184950113E0,-2.032800102E1,6.339000225E0,2.153031483E1
7.153220540E-1,3.837000132E0,-2.190000153E1,6.070950508E0,2.304753950E1
7.172853000E-1,4.411950111E0,-2.370105171E1,4.423050404E0,2.451057998E1
7.192484370E-1,4.872000217E0,-2.557905197E1,2.353049994E0,2.614500201E1
7.212122250E-1,5.025000095E0,-2.753400040E1,5.295000225E-2,2.798883005E1
7.231758220E-1,5.254950047E0,-2.941200066E1,-2.667000055E0,2.999655267E1
7.251386760E-1,5.638050079E0,-3.151995087E1,-4.698000431E0,3.236303631E1
7.271017470E-1,6.250950336E0,-3.378105164E1,-6.385050297E0,3.494284901E1
7.290649590E-1,6.289950371E0,-3.623400116E1,-7.458000183E0,3.752449976E1
7.310281290E-1,5.868000507E0,-3.834195328E1,-8.953050613E0,3.980823943E1
7.329913810E-1,5.215950012E0,-4.025805283E1,-1.006395054E1,4.182343903E1
7.349546010E-1,4.488000393E0,-4.228995132E1,-1.167405033E1,4.410063017E1
7.369165730E-1,2.533950090E0,-4.393800354E1,-1.247895050E1,4.574596445E1
7.388789110E-1,3.490500152E-1,-4.539405060E1,-1.155900097E1,4.684391283E1
7.408419330E-1,-1.106999993E0,-4.727205276E1,-1.129095078E1,4.861438050E1
7.428047550E-1,-2.371050119E0,-4.888200378E1,-1.232595062E1,5.046782372E1
7.447673310E-1,-3.865950108E0,-4.934205246E1,-1.286205101E1,5.113722780E1
7.467299830E-1,-5.974050522E0,-4.846095276E1,-1.282395077E1,5.048372941E1
7.486931310E-1,-7.315950394E0,-4.895895386E1,-1.316895103E1,5.122424782E1
7.506561340E-1,-8.197050095E0,-4.926495361E1,-1.424205112E1,5.193325818E1
7.526186840E-1,-8.389050484E0,-4.938000107E1,-1.600500107E1,5.258251356E1
7.545813670E-1,-8.350950241E0,-4.926495361E1,-1.803600121E1,5.312317163E1
7.565441950E-1,-8.389050484E0,-4.918905258E1,-1.987605095E1,5.371216308E1
7.585069810E-1,-8.197050095E0,-4.941900253E1,-2.094900131E1,5.429815925E1
7.604695680E-1,-7.162050247E0,-4.972500229E1,-2.033595085E1,5.419798625E1
7.624322130E-1,-5.629050255E0,-5.010900116E1,-1.826595116E1,5.363061789E1
7.643951380E-1,-3.214950085E0,-5.053005219E1,-1.581300068E1,5.304406723E1
7.663579810E-1,-7.999500632E-1,-5.118195343E1,-1.359000111E1,5.296149929E1
7.683218590E-1,1.269000053E0,-5.175705338E1,-1.037100029E1,5.280114186E1
7.702854370E-1,2.878050089E0,-5.233200073E1,-6.576000214E0,5.282201484E1
7.722478430E-1,4.833000183E0,-5.283000183E1,-4.353000164E0,5.322889812E1
7.742105930E-1,6.136050224E0,-5.302200317E1,-1.134000063E0,5.338791894E1
7.761728700E-1,7.516050339E0,-5.336700439E1,2.046000004E0,5.393249750E1
7.781352850E-1,8.282999992E0,-5.359605408E1,4.308000088E0,5.440316136E1
7.800982550E-1,9.088050842E0,-5.309805298E1,6.531000137E0,5.426462808E1
7.820610580E-1,1.062105083E1,-5.217795181E1,8.025000572E0,5.384928979E1
7.840240020E-1,1.184700012E1,-5.098995209E1,9.328050613E0,5.317272942E1
7.859869040E-1,1.261395073E1,-4.899705124E1,8.944950104E0,5.137932381E1
7.879495160E-1,1.284405041E1,-4.631400299E1,7.219950199E0,4.860127760E1
7.899122130E-1,1.046700096E1,-4.328595352E1,5.266050339E0,4.484376398E1
7.918751830E-1,7.018050194E0,-4.048800278E1,4.153950214E0,4.130117068E1
7.938380670E-1,3.798000097E0,-3.684705353E1,3.157950163E0,3.717664331E1
7.958002320E-1,9.240000248E-1,-3.351300049E1,2.430000067E0,3.361368587E1
7.977626070E-1,-1.222050071E0,-3.071505165E1,2.008050203E0,3.080487088E1
7.997258030E-1,-2.179949999E0,-2.837700081E1,1.701000094E0,2.851139699E1
8.016887590E-1,-2.563050032E0,-2.642205048E1,1.969950080E0,2.661906610E1
8.036517320E-1,-2.869950056E0,-2.496600151E1,2.545050144E0,2.525896128E1
8.056146920E-1,-2.601000071E0,-2.358600044E1,3.196050167E0,2.394325281E1
8.075777440E-1,-1.911000133E0,-2.239800072E1,3.886050224E0,2.281279781E1
8.095407690E-1,-1.297950029E0,-2.140095139E1,4.653000355E0,2.193936660E1
8.115037210E-1,-3.019500077E-1,-2.067300034E1,5.572050095E0,2.141289002E1
8.134666940E-1,3.490500152E-1,-2.021295166E1,6.415950298E0,2.120965980E1
8.154302970E-1,9.240000248E-1,-1.952295113E1,7.182000160E0,2.082259645E1
8.173937060E-1,1.306950092E0,-1.891005135E1,7.603950500E0,2.042347237E1
8.193564110E-1,1.345050097E0,-1.818195152E1,8.101950645E0,1.995079260E1
8.213193230E-1,1.230000019E0,-1.753005028E1,8.638950348E0,1.958180344E1
8.232820230E-1,8.470500112E-1,-1.672500038E1,8.983950615E0,1.900406536E1
8.252447850E-1,5.790000558E-1,-1.611194992E1,9.367050171E0,1.864595935E1
8.272069810E-1,2.340000123E-1,-1.546095085E1,9.481950760E0,1.813844391E1
8.291693670E-1,-3.299999982E-2,-1.446405029E1,9.597000122E0,1.735834817E1
8.311323810E-1,-1.480500102E-1,-1.358205032E1,9.826950073E0,1.676493237E1
8.330952110E-1,-2.629500031E-1,-1.247100067E1,1.044000053E1,1.626617999E1
8.350583760E-1,-4.170000255E-1,-1.105305099E1,1.101495075E1,1.561002772E1
8.370214420E-1,-7.999500632E-1,-9.865050316E0,1.124505043E1,1.498033034E1
8.389845110E-1,-1.106999993E0,-9.289950371E0,1.113000011E1,1.453979124E1
8.409475860E-1,-1.528050065E0,-8.407950401E0,1.116795063E1,1.406242114E1
8.429106190E-1,-1.758000135E0,-7.411950588E0,1.128300095E1,1.361373154E1
8.448736650E-1,-2.026050091E0,-6.454050541E0,1.147500038E1,1.332048352E1
8.468365670E-1,-2.716050148E0,-5.265000343E0,1.147500038E1,1.291405400E1
8.487995110E-1,-3.367950201E0,-3.655950069E0,1.159005070E1,1.261104019E1
8.507624930E-1,-3.943050146E0,-1.893000126E0,1.170495033E1,1.249547743E1
8.527254510E-1,-4.326000214E0,-2.830500007E-1,1.185795021E1,1.262558428E1
8.546877830E-1,-4.633050442E0,1.210950017E0,1.155105019E1,1.250433192E1
8.566502990E-1,-4.671000004E0,2.782050133E0,1.201095104E1,1.318411881E1
8.586133360E-1,-4.747950077E0,4.392000198E0,1.224105072E1,1.384471085E1
8.605762210E-1,-4.939050198E0,6.309000492E0,1.266300106E1,1.498496913E1
8.625391010E-1,-5.284050465E0,8.263050079E0,1.231800079E1,1.574586706E1
8.645019860E-1,-5.476050377E0,1.018005085E1,1.258605099E1,1.708886311E1
8.664650950E-1,-5.821050167E0,1.155900097E1,1.281600094E1,1.821386858E1
8.684281390E-1,-5.782950401E0,1.182795048E1,1.270095062E1,1.829363481E1
8.703910420E-1,-4.671000004E0,1.079295063E1,1.235595036E1,1.705800497E1
8.723539870E-1,-5.514000416E0,1.190400028E1,1.170495033E1,1.758167471E1
8.743171360E-1,-6.241950512E0,1.297800064E1,1.155105019E1,1.846123526E1
8.762802210E-1,-6.741000175E0,1.366695023E1,1.147500038E1,1.907622199E1
8.782431170E-1,-7.392000198E0,1.416600037E1,1.151295090E1,1.969429541E1
8.802060690E-1,-8.158950806E0,1.481700039E1,1.151295090E1,2.046118318E1
8.821688070E-1,-8.809950829E0,1.523895073E1,1.135995007E1,2.094968540E1
8.841316070E-1,-9.807000160E0,1.554600048E1,1.147500038E1,2.166866440E1
8.860943860E-1,-1.107195091E1,1.592895031E1,1.185795021E1,2.273610649E1
8.880571610E-1,-1.264305019E1,1.612005043E1,1.151295090E1,2.350001665E1
8.900202890E-1,-1.432995033E1,1.631204987E1,1.147500038E1,2.455821820E1
8.919833130E-1,-1.567095089E1,1.623495102E1,1.147500038E1,2.531458019E1
8.939461750E-1,-1.701300049E1,1.615904999E1,1.182000065E1,2.627298037E1
8.959090840E-1,-1.812405014E1,1.592895031E1,1.151295090E1,2.673500869E1
8.978718040E-1,-1.931205177E1,1.573695087E1,1.128300095E1,2.734799950E1
8.998345970E-1,-2.023200035E1,1.535400105E1,1.132200050E1,2.780767667E1
9.017974060E-1,-2.080695152E1,1.477905083E1,1.124505043E1,2.788907912E1
9.037602110E-1,-2.107500076E1,1.412700081E1,1.135995007E1,2.779885383E1
9.057227500E-1,-2.119005013E1,1.343700027E1,1.139805031E1,2.755878719E1
9.076853670E-1,-2.115195084E1,1.263300037E1,1.170495033E1,2.727642911E1
9.096481280E-1,-2.099895096E1,1.190400028E1,1.185795021E1,2.689371948E1
9.116108700E-1,-2.053905106E1,1.125300026E1,1.189605045E1,2.626782537E1
9.135736440E-1,-1.961895180E1,1.037100029E1,1.216500092E1,2.530707735E1
9.155364080E-1,-1.850699997E1,9.604950905E0,1.247100067E1,2.429588417E1
9.174992240E-1,-1.751100159E1,8.877000809E0,1.297005081E1,2.352994981E1
9.194620240E-1,-1.666800117E1,8.302050591E0,1.335300064E1,2.291394626E1
9.214247540E-1,-1.586295033E1,7.842000484E0,1.373595047E1,2.240103792E1
9.233874970E-1,-1.517295074E1,7.497000217E0,1.438800049E1,2.221346449E1
9.253500910E-1,-1.444500065E1,6.922050476E0,1.526895046E1,2.212947525E1
9.273127280E-1,-1.390800095E1,6.499950409E0,1.599705029E1,2.217177177E1
9.292752040E-1,-1.329495049E1,6.040050507E0,1.653404999E1,2.205930025E1
9.312377280E-1,-1.306500053E1,5.925000191E0,1.676399994E1,2.206425979E1
9.332005130E-1,-1.279695034E1,5.656950474E0,1.695600128E1,2.198338023E1
9.351632080E-1,-1.245195103E1,5.427000046E0,1.691700172E1,2.169535345E1
9.371259900E-1,-1.214505100E1,5.119950294E0,1.653404999E1,2.114452562E1
9.390887460E-1,-1.195305061E1,4.852050304E0,1.565295029E1,2.028380299E1
9.410519230E-1,-1.172295094E1,4.660050392E0,1.477095032E1,1.942484547E1
9.430149770E-1,-1.141695023E1,4.507050037E0,1.358295059E1,1.830728815E1
9.449776930E-1,-1.145505047E1,4.736999989E0,1.224105072E1,1.742127070E1
9.469405120E-1,-1.122495079E1,4.929000378E0,1.105305099E1,1.650649876E1
9.489032280E-1,-1.061205006E1,3.664050102E0,9.405000687E0,1.464564466E1
9.508659740E-1,-1.018995094E1,2.935950041E0,7.987050533E0,1.327583817E1
9.528286120E-1,-9.769050598E0,2.514000177E0,6.568950176E0,1.203767639E1
9.547912820E-1,-9.577050209E0,2.551950216E0,5.074050426E0,1.113455560E1
9.567540720E-1,-9.346950531E0,2.590950012E0,3.733050108E0,1.039298654E1
9.587168230E-1,-9.040050507E0,2.476050138E0,2.046000004E0,9.593719480E0
9.606802710E-1,-8.772000313E0,2.398950100E0,1.050000072E0,9.154531731E0
9.626435150E-1,-8.311950684E0,2.053950071E0,-6.105000153E-2,8.562182091E0
9.646062490E-1,-7.813950539E0,1.786050081E0,-1.057050109E0,8.084871851E0
9.665691330E-1,-7.468950272E0,1.402950048E0,-2.130000114E0,7.892425957E0
9.685316820E-1,-6.970950127E0,1.173000097E0,-3.049950123E0,7.698848657E0
9.704943440E-1,-6.625950336E0,1.018950105E0,-3.855000257E0,7.733207883E0
9.724570850E-1,-6.088950157E0,8.280000687E-1,-4.545000076E0,7.643161900E0
9.744198030E-1,-5.782950401E0,7.510500550E-1,-5.119950294E0,7.760185729E0
9.763822670E-1,-5.514000416E0,5.980500579E-1,-5.235000134E0,7.626735268E0
9.783448050E-1,-5.092950344E0,2.140500098E-1,-5.542050362E0,7.529826215E0
9.803075540E-1,-4.671000004E0,2.140500098E-1,-5.656950474E0,7.339287915E0
9.822702510E-1,-4.249050140E0,2.140500098E-1,-5.656950474E0,7.078229522E0
9.842339340E-1,-3.981000185E0,-5.295000225E-2,-5.542050362E0,6.823891000E0
9.861973280E-1,-3.751050234E0,-1.290000081E-1,-5.503050327E0,6.661124662E0
9.881601710E-1,-3.598050117E0,-2.059500068E-1,-5.503050327E0,6.578141300E0
9.901231760E-1,-3.367950201E0,-3.979500234E-1,-5.617950439E0,6.562226750E0
9.920857600E-1,-3.138000250E0,-7.039500475E-1,-5.809950352E0,6.640641108E0
9.940484740E-1,-2.908050060E0,-8.959500194E-1,-5.809950352E0,6.558582521E0
9.960113870E-1,-2.563050032E0,-1.203000069E0,-5.772000313E0,6.429029650E0
9.979742410E-1,-2.218050003E0,-1.432950020E0,-5.962950230E0,6.521492699E0
9.999370420E-1,-1.834950089E0,-1.585950017E0,-5.962950230E0,6.437317355E0
1.001899858E0,-1.605000019E0,-1.854000092E0,-5.848050117E0,6.341374581E0
1.003862945E0,-1.336950064E0,-2.122950077E0,-6.040050507E0,6.540379395E0
1.005825976E0,-1.144950032E0,-2.428950071E0,-6.001950264E0,6.575265470E0
1.007788882E0,-1.068000078E0,-2.736000061E0,-6.346950531E0,6.993575734E0
1.009751824E0,-1.144950032E0,-3.004050255E0,-6.997950554E0,7.701073981E0
1.011714564E0,-1.183050036E0,-3.234000206E0,-7.611000538E0,8.353783209E0
1.013677363E0,-1.260000110E0,-3.694050074E0,-8.301000595E0,9.172797670E0
1.015640111E0,-9.919500351E-1,-4.729050159E0,-8.914050102E0,1.013943635E1
1.017602853E0,-6.850500107E-1,-6.031950474E0,-9.873000145E0,1.159007558E1
1.019565806E0,-3.019500077E-1,-7.027950287E0,-1.167405033E1,1.362962619E1
1.021528697E0,1.960500032E-1,-8.101950645E0,-1.374405098E1,1.595553124E1
1.023492212E0,1.000050068E0,-9.289950371E0,-1.535295105E1,1.797265656E1
1.025455544E0,1.882050037E0,-1.059300041E1,-1.604295158E1,1.931657489E1
1.027418172E0,3.070050240E0,-1.193400097E1,-1.546800041E1,1.977636530E1
1.029381007E0,3.913050175E0,-1.316100025E1,-1.343700027E1,1.921137334E1
1.031343404E0,4.642050266E0,-1.434900093E1,-1.109895039E1,1.872509434E1
1.033305930E0,5.254950047E0,-1.546095085E1,-8.569950104E0,1.844178804E1
1.035268965E0,6.060000420E0,-1.641900063E1,-6.423000336E0,1.864301799E1
1.037231851E0,6.595950127E0,-1.729995155E1,-3.855000257E0,1.891179285E1
1.039193821E0,6.865050316E0,-1.822005081E1,-1.441050053E0,1.952372384E1
1.041156070E0,6.787950516E0,-1.914000130E1,1.087950110E0,2.033714723E1
1.043118972E0,6.520050526E0,-1.979205132E1,3.196050167E0,2.108200870E1
1.045081683E0,6.595950127E0,-2.025105095E1,4.882050037E0,2.185053856E1
1.047044463E0,6.940950394E0,-2.048100090E1,6.837000370E0,2.268022849E1
1.049007222E0,7.248000145E0,-2.048100090E1,9.022050858E0,2.352450437E1
1.050970339E0,7.248000145E0,-2.002200127E1,1.113000011E1,2.402687960E1
1.052933361E0,6.903000355E0,-1.925505066E1,1.308495045E1,2.428218108E1
1.054896268E0,6.711000443E0,-1.795200157E1,1.404300022E1,2.375958212E1
1.056859209E0,6.021000385E0,-1.615005112E1,1.492395115E1,2.279914285E1
1.058822308E0,5.215950012E0,-1.595895100E1,1.496295071E1,2.248964529E1
1.060785361E0,4.258049965E0,-1.557600117E1,1.423395061E1,2.152552327E1
1.062748263E0,3.108000040E0,-1.511595058E1,1.281600094E1,2.005994782E1
1.064711209E0,2.149950027E0,-1.480905056E1,1.120695019E1,1.869561436E1
1.066673407E0,1.153950095E0,-1.503900051E1,9.481950760E0,1.781601884E1
1.068635824E0,1.189500093E-1,-1.526895046E1,7.872000217E0,1.717915553E1
1.070599013E0,-8.770500422E-1,-1.576695061E1,6.568950176E0,1.710312997E1
1.072561976E0,-1.795950055E0,-1.653404999E1,5.878950119E0,1.763979309E1
1.074525014E0,-3.061050177E0,-1.638000107E1,5.917050362E0,1.768292816E1
1.076488039E0,-3.559950113E0,-1.798995018E1,6.070950508E0,1.931755658E1
1.078450991E0,-4.134000301E0,-2.036595154E1,6.837000370E0,2.187707738E1
1.080413964E0,-4.441050053E0,-2.320305061E1,4.498950005E0,2.404880526E1
1.082377914E0,-5.590950489E0,-2.546400070E1,7.810500264E-1,2.608225639E1
1.084341578E0,-7.315950394E0,-2.753400040E1,-3.127050161E0,2.866047367E1
1.086304424E0,-9.040050507E0,-2.925795174E1,-4.890000343E0,3.101068133E1
1.088267507E0,-1.011405087E1,-3.067695236E1,-2.359950066E0,3.238732461E1
1.090230222E0,-1.087995052E1,-3.140505219E1,-1.057050109E0,3.325308980E1
1.092193045E0,-1.183800030E1,-3.136605072E1,-2.053950071E0,3.358848165E1
1.094155760E0,-1.287300014E1,-3.117495155E1,-3.280050039E0,3.388732013E1
1.096118507E0,-1.333305073E1,-3.136605072E1,-4.353000164E0,3.435910345E1
1.098081664E0,-1.325595093E1,-3.148095131E1,-4.276950359E0,3.442474161E1
1.100044683E0,-1.241295052E1,-3.006300163E1,-3.049950123E0,3.266753133E1
1.102007591E0,-1.180005074E1,-2.638395119E1,-1.402050018E0,2.893647909E1
1.103970531E0,-9.654000282E0,-2.370105171E1,-1.210950017E0,2.562042103E1
1.105933495E0,-8.427000046E0,-2.078805161E1,-1.747050047E0,2.249910227E1
1.107896452E0,-7.929000378E0,-1.822005081E1,-1.939050078E0,1.996494963E1
1.109859496E0,-7.891050339E0,-1.638000107E1,-1.977000117E0,1.828883922E1
1.111822520E0,-8.005949974E0,-1.519200039E1,-2.092050076E0,1.729938682E1
1.113785427E0,-7.660950184E0,-1.454100037E1,-2.551950216E0,1.663259749E1
1.115748368E0,-7.929000378E0,-1.423395061E1,-2.974050045E0,1.656258949E1
1.117711107E0,-7.891050339E0,-1.358205032E1,-2.896950245E0,1.597288600E1
1.119673906E0,-7.507050514E0,-1.285395050E1,-1.747050047E0,1.498772947E1
1.121635999E0,-6.856050491E0,-1.212600040E1,2.830500007E-1,1.393289028E1
1.123598296E0,-5.898000240E0,-1.132095051E1,2.698050022E0,1.304721431E1
1.125561641E0,-4.594050407E0,-1.120605087E1,5.074050426E0,1.313114096E1
1.127524679E0,-3.367950201E0,-1.189605045E1,6.952050209E0,1.418414985E1
1.129487807E0,-2.869950056E0,-1.239405060E1,8.562000275E0,1.533482808E1
1.131450909E0,-2.601000071E0,-1.250895023E1,9.826950073E0,1.611856027E1
1.133414135E0,-2.103000164E0,-1.273905087E1,1.082295036E1,1.684761945E1
1.135377312E0,-1.567050099E0,-1.304595089E1,1.166595078E1,1.757119484E1
1.137340238E0,-9.529500604E-1,-1.346700096E1,1.281600094E1,1.861499688E1
1.139303237E0,-4.170000255E-1,-1.396605110E1,1.408095074E1,1.983677509E1
1.141266867E0,1.960500032E-1,-1.450200081E1,1.511595058E1,2.094847071E1
1.143230312E0,8.089500666E-1,-1.496205044E1,1.626600075E1,2.211560838E1
1.145193259E0,1.114950061E0,-1.515405083E1,1.745400047E1,2.314153199E1
1.147156368E0,1.345050097E0,-1.549905109E1,1.825905037E1,2.398796917E1
1.149118899E0,1.459950089E0,-1.588200092E1,1.891005135E1,2.473781416E1
1.151081599E0,1.614000082E0,-1.634205055E1,1.960005188E1,2.557009281E1
1.153044379E0,1.804950118E0,-1.684005165E1,2.040495110E1,2.651805449E1
1.155007135E0,2.265000105E0,-1.741500092E1,2.074995041E1,2.718405644E1
1.156970247E0,2.380050182E0,-1.802805138E1,2.032905006E1,2.727536529E1
1.158933269E0,2.533950090E0,-1.871805000E1,1.990695000E1,2.744217479E1
1.160896176E0,2.419050217E0,-1.925505066E1,1.917900085E1,2.728448009E1
1.162859117E0,2.533950090E0,-1.967700005E1,1.822005081E1,2.693650841E1
1.164822397E0,3.184950113E0,-2.040495110E1,1.741604996E1,2.701526851E1
1.166785577E0,3.874950171E0,-2.140095139E1,1.626600075E1,2.715876911E1
1.168748831E0,4.680000305E0,-2.209095192E1,1.457895088E1,2.687858568E1
1.170712053E0,5.676000118E0,-2.239800072E1,1.285500050E1,2.644122636E1
1.172674611E0,6.634950161E0,-2.243595123E1,1.013295078E1,2.549649315E1
1.174637363E0,7.324050426E0,-2.209095192E1,5.956050396E0,2.402345537E1
1.176600990E0,7.669050217E0,-2.170800018E1,2.506050110E0,2.315884044E1
1.178564361E0,7.861050606E0,-2.136300087E1,-6.105000153E-2,2.276351576E1
1.180527439E0,7.938000202E0,-2.132505035E1,-2.206950188E0,2.286132649E1
1.182490599E0,8.934000015E0,-2.209095192E1,-3.204000235E0,2.404354655E1
1.184453436E0,9.777000427E0,-2.362395096E1,-3.549000263E0,2.581232650E1
1.186416368E0,9.777000427E0,-2.519595146E1,-2.743950129E0,2.716532661E1
1.188379829E0,1.035195065E1,-2.573205185E1,-1.977000117E0,2.780665215E1
1.190343135E0,1.081200027E1,-2.592405128E1,-9.420000315E-1,2.810414825E1
1.192305170E0,1.123395061E1,-2.596200180E1,-9.900000691E-2,2.828846028E1
1.194267554E0,1.165605068E1,-2.592405128E1,5.509500504E-1,2.842927186E1
1.196230704E0,1.230705070E1,-2.580900192E1,1.087950110E0,2.861383778E1
1.198193629E0,1.295895100E1,-2.554095078E1,1.318050027E0,2.867074874E1
1.200156553E0,1.341900063E1,-2.485095024E1,1.585950017E0,2.828700308E1
1.202119477E0,1.284405041E1,-2.419905090E1,1.395000100E0,2.743191063E1
1.204083332E0,1.184700012E1,-2.362395096E1,8.580000401E-1,2.644198621E1
1.206046924E0,1.104195023E1,-2.324100113E1,9.195000678E-2,2.573086188E1
1.208009869E0,1.042905045E1,-2.301105118E1,-4.819500148E-1,2.526867320E1
1.209973003E0,9.508950233E0,-2.274300194E1,-1.671000123E0,2.470741818E1
1.211935394E0,8.282999992E0,-2.239800072E1,-3.702000141E0,2.416574704E1
1.213898003E0,7.018050194E0,-2.224500084E1,-5.580000401E0,2.398394245E1
1.215860947E0,5.944950104E0,-2.212995148E1,-7.381050587E0,2.407399202E1
1.217823783E0,4.603050232E0,-2.182305145E1,-8.530950546E0,2.387908632E1
1.219786766E0,3.568050146E0,-2.147805023E1,-9.718950272E0,2.384314614E1
1.221749706E0,2.686950207E0,-2.113305092E1,-1.083105087E1,2.389847706E1
1.223712761E0,1.920000076E0,-2.078805161E1,-1.148205090E1,2.382576300E1
1.225675783E0,1.077000022E0,-2.025105095E1,-1.228695011E1,2.371147690E1
1.227637951E0,8.100000024E-2,-1.979205132E1,-1.312995052E1,2.375136748E1
1.229600382E0,-6.850500107E-1,-1.944705009E1,-1.339905071E1,2.362607904E1
1.231563569E0,-1.375050068E0,-1.914000130E1,-1.370505047E1,2.358089949E1
1.233526534E0,-2.140950203E0,-1.883295059E1,-1.397400093E1,2.354859651E1
1.235489630E0,-3.022950172E0,-1.833495140E1,-1.389705086E1,2.320423869E1
1.237452688E0,-3.751050234E0,-1.798995018E1,-1.401195049E1,2.310937996E1
1.239415976E0,-4.210950375E0,-1.795200157E1,-1.393500042E1,2.311256585E1
1.241379177E0,-5.016000271E0,-1.787505150E1,-1.370505047E1,2.307609441E1
1.243342054E0,-5.553000450E0,-1.787505150E1,-1.370505047E1,2.319874325E1
1.245305026E0,-5.782950401E0,-1.779900169E1,-1.381995106E1,2.326452286E1
1.247267986E0,-6.204000473E0,-1.806705093E1,-1.401195049E1,2.369056158E1
1.249230949E0,-6.894000530E0,-1.875705147E1,-1.439505100E1,2.462867671E1
1.251194044E0,-6.702000141E0,-1.902495003E1,-1.527705097E1,2.530323726E1
1.253157101E0,-6.088950157E0,-1.902495003E1,-1.654200172E1,2.593572553E1
1.255119822E0,-5.361000061E0,-1.929300117E1,-1.788300133E1,2.684701012E1
1.257082641E0,-4.363950253E0,-1.956195068E1,-1.911000061E1,2.769306952E1
1.259045581E0,-2.793000221E0,-1.983000183E1,-2.022105026E1,2.845910569E1
1.261008485E0,-1.260000110E0,-1.979205132E1,-2.106405067E1,2.893107544E1
1.262972127E0,5.020500422E-1,-1.975305176E1,-2.183100128E1,2.944533452E1
1.264935557E0,1.996950150E0,-1.948500061E1,-2.221395111E1,2.961608824E1
1.266898575E0,3.607050180E0,-1.921695137E1,-2.229105186E1,2.965118925E1
1.268861713E0,5.101050377E0,-1.879500008E1,-2.183100128E1,2.925517663E1
1.270824419E0,6.328050137E0,-1.814295006E1,-2.114100075E1,2.856838756E1
1.272787251E0,7.324050426E0,-1.733895111E1,-2.014395142E1,2.756918060E1
1.274750358E0,8.206049919E0,-1.638000107E1,-1.903305054E1,2.641781034E1
1.276713360E0,9.088050842E0,-1.549905109E1,-1.799805069E1,2.543114393E1
1.278676316E0,9.931050301E0,-1.442595100E1,-1.684800148E1,2.430203646E1
1.280639285E0,1.077405071E1,-1.358205032E1,-1.550700092E1,2.325982238E1
1.282601840E0,1.154100037E1,-1.277805042E1,-1.416495037E1,2.229616741E1
1.284564516E0,1.196205044E1,-1.285395050E1,-1.255605030E1,2.158631727E1
1.286527130E0,1.257495022E1,-1.243305016E1,-1.109895039E1,2.087814189E1
1.288489756E0,1.326495075E1,-1.178100014E1,-9.757950783E0,2.024767854E1
1.290452504E0,1.391700077E1,-1.128300095E1,-8.569950104E0,1.986033901E1
1.292415216E0,1.453005028E1,-1.086105061E1,-7.305000305E0,1.955627293E1
1.294378040E0,1.491300106E1,-1.040100002E1,-6.040050507E0,1.915882596E1
1.296340831E0,1.529700089E1,-9.826050758E0,-4.890000343E0,1.882715095E1
1.298303743E0,1.564200115E1,-9.289950371E0,-3.817050219E0,1.858884747E1
1.300266611E0,1.587195110E1,-8.868000031E0,-2.245050192E0,1.831940247E1
1.302228463E0,1.621605110E1,-8.562000275E0,-5.590500236E-1,1.834613580E1
1.304190613E0,1.675304985E1,-8.140049934E0,1.087950110E0,1.865767209E1
1.306153713E0,1.717500114E1,-7.603050232E0,2.506050110E0,1.894907186E1
1.308116534E0,1.748100090E1,-7.335000515E0,4.078050137E0,1.939118660E1
1.310079645E0,1.798005104E1,-7.066950321E0,6.301050186E0,2.032061160E1
1.312042678E0,1.866900063E1,-6.721950531E0,8.638950348E0,2.164134160E1
1.314005538E0,1.909095001E1,-6.262050152E0,9.787950516E0,2.234908543E1
1.315968449E0,1.928295135E1,-5.802000046E0,1.093800068E1,2.291583026E1
1.317931194E0,1.943595123E1,-5.341950417E0,1.185795021E1,2.338597053E1
1.319893988E0,1.935900116E1,-4.729050159E0,1.289295101E1,2.373526969E1
1.321856927E0,1.939800072E1,-4.269000053E0,1.262505054E1,2.353505247E1
1.323819827E0,1.935900116E1,-3.847050190E0,1.166595078E1,2.292738818E1
1.325782980E0,1.916805077E1,-3.579000235E0,1.024800014E1,2.202827546E1
1.327746058E0,1.889895058E1,-3.042000055E0,8.562000275E0,2.096978650E1
1.329708910E0,1.866900063E1,-2.697000027E0,6.415950298E0,1.992410128E1
1.331671829E0,1.817100143E1,-2.391000032E0,4.729050159E0,1.892791826E1
1.333634612E0,1.786500168E1,-2.161050081E0,2.506050110E0,1.816889401E1
1.335597439E0,1.740495110E1,-1.854000092E0,4.360500276E-1,1.750884858E1
1.337560874E0,1.694505119E1,-1.585950017E0,-1.516950130E0,1.708657763E1
1.339524130E0,1.633095169E1,-1.240950108E0,-3.510000229E0,1.674992662E1
1.341486862E0,1.606305122E1,-8.580000401E-1,-5.617950439E0,1.703875423E1
1.343449747E0,1.591005039E1,-5.130000114E-1,-6.921000481E0,1.735779710E1
1.345412831E0,1.567995071E1,-2.440500110E-1,-8.340000153E0,1.776164456E1
1.347375842E0,1.552695084E1,-1.290000081E-1,-9.643050194E0,1.827816348E1
1.349338075E0,1.537305069E1,-9.105000645E-2,-1.094595051E1,1.887201129E1
1.351300536E0,1.498995113E1,6.105000153E-2,-1.098405075E1,1.858364154E1
1.353263672E0,1.460700035E1,3.679500222E-1,-1.010295010E1,1.776427446E1
1.355226611E0,1.345695019E1,9.040500522E-1,-8.416049957E0,1.589769517E1
1.357189343E0,1.295895100E1,1.210950017E0,-6.921000481E0,1.474113491E1
1.359152142E0,1.280505085E1,1.441050053E0,-6.154950142E0,1.428038388E1
1.361114726E0,1.234500027E1,1.708950043E0,-5.617950439E0,1.367043924E1
1.363077373E0,1.165605068E1,1.939050078E0,-4.545000076E0,1.266019188E1
1.365040207E0,1.050600052E1,2.053950071E0,-3.357000113E0,1.121892185E1
1.367002986E0,9.049050331E0,2.092950106E0,-1.977000117E0,9.496013980E0
1.368965034E0,7.438950539E0,1.786050081E0,-5.209500194E-1,7.668073352E0
1.370927296E0,6.097950459E0,1.363950014E0,7.810500264E-1,6.297253257E0
1.372890286E0,4.987050056E0,7.890000343E-1,1.855050087E0,5.379070565E0
1.374853063E0,4.066950321E0,2.530499995E-1,2.851050138E0,4.973188727E0
1.376816732E0,3.108000040E0,-1.290000081E-1,3.618000269E0,4.771397195E0
1.378780140E0,2.111999989E0,-1.680000126E-1,4.078050137E0,4.595569701E0
1.380741724E0,1.269000053E0,-2.440500110E-1,4.000950336E0,4.204464905E0
1.382703839E0,2.719500065E-1,-9.105000645E-2,3.541050196E0,3.552644564E0
1.384665639E0,-2.250000089E-1,3.289500177E-1,2.620950222E0,2.651077740E0
1.386627532E0,-9.529500604E-1,1.380000114E-1,1.855050087E0,2.090064268E0
1.388592072E0,-1.795950055E0,-1.680000126E-1,9.349500537E-1,2.031696879E0
1.390555837E0,-2.332950115E0,-5.890500546E-1,5.295000225E-2,2.406748826E0
1.392518281E0,-2.869950056E0,-1.240950108E0,-6.739500165E-1,3.198558913E0
1.394481127E0,-3.367950201E0,-1.854000092E0,-1.171950102E0,4.019187970E0
1.396444017E0,-3.367950201E0,-3.004050255E0,-1.402050018E0,4.725796308E0
1.398406894E0,-3.253050089E0,-4.269000053E0,-1.249050021E0,5.510609975E0
1.400369511E0,-2.908050060E0,-5.419050217E0,-4.819500148E-1,6.168884520E0
1.402332204E0,-2.640000105E0,-6.645000458E0,1.680000126E-1,7.152192366E0
1.404294201E0,-2.371050119E0,-7.833000183E0,1.087950110E0,8.255992126E0
1.406256416E0,-1.987950087E0,-8.983050346E0,1.740000129E0,9.363479029E0
1.408219324E0,-1.528050065E0,-1.036305046E1,2.200050116E0,1.070364295E1
1.410182029E0,-9.919500351E-1,-1.162800026E1,2.391000032E0,1.191265025E1
1.412144944E0,-5.700000525E-1,-1.289295101E1,2.391000032E0,1.312516541E1
1.414107798E0,-3.400500119E-1,-1.415700054E1,2.620950222E0,1.440158597E1
1.416071488E0,2.340000123E-1,-1.538400078E1,2.659050226E0,1.561386512E1
1.418034909E0,1.804950118E0,-1.607400131E1,3.157950163E0,1.648041299E1
1.419997252E0,2.839950085E0,-1.764495087E1,5.266050339E0,1.863171741E1
1.421959911E0,3.760050297E0,-1.883295059E1,7.756950378E0,2.071203238E1
1.423922653E0,4.527000427E0,-2.013600159E1,9.787950516E0,2.284198477E1
1.425885371E0,4.987050056E0,-2.167005157E1,1.051695061E1,2.459813110E1
1.427847820E0,5.407950401E0,-2.354805183E1,1.028700066E1,2.625983730E1
1.429810358E0,6.136050224E0,-2.569395065E1,9.442950249E0,2.805351176E1
1.431773301E0,6.634950161E0,-2.791695213E1,7.374000549E0,2.962692465E1
1.433736125E0,7.324050426E0,-3.048495102E1,5.380950451E0,3.181082490E1
1.435699786E0,8.282999992E0,-3.282300186E1,3.463950157E0,3.402875976E1
1.437663202E0,8.282999992E0,-3.542895126E1,2.830500007E-1,3.638542007E1
1.439625873E0,7.056000233E0,-3.780600357E1,-3.357000113E0,3.860505789E1
1.441588786E0,5.331000328E0,-3.964500046E1,-6.001950264E0,4.044958631E1
1.443551666E0,3.837000132E0,-4.163805008E1,-7.765050411E0,4.252935213E1
1.445514556E0,2.764050245E0,-4.374600220E1,-8.991000175E0,4.474584636E1
1.447477124E0,2.074050188E0,-4.685100174E1,-1.094595051E1,4.815736580E1
1.449439786E0,7.320000529E-1,-4.984005356E1,-1.328400040E1,5.158518614E1
1.451402222E0,-8.770500422E-1,-5.236995316E1,-1.485495090E1,5.444309669E1
1.453364718E0,-2.410050154E0,-5.447805405E1,-1.566000080E1,5.673537115E1
1.455327894E0,-4.479000092E0,-5.551305389E1,-1.704000092E1,5.824192842E1
1.457290870E0,-6.511050224E0,-5.474595261E1,-1.842000008E1,5.812752794E1
1.459253605E0,-7.660950184E0,-5.536005402E1,-1.964595032E1,5.924009708E1
1.461216411E0,-8.274000168E0,-5.570505142E1,-2.094900131E1,6.008637523E1
1.463178990E0,-8.580000877E0,-5.601105118E1,-2.301900101E1,6.116149668E1
1.465141670E0,-9.270000458E0,-5.635605240E1,-2.593200111E1,6.272484541E1
1.467104454E0,-9.844950676E0,-5.643300247E1,-2.784795189E1,6.369548843E1
1.469067207E0,-9.922050476E0,-5.639400101E1,-2.842305183E1,6.392652275E1
1.471029800E0,-9.154950142E0,-5.643300247E1,-2.692800140E1,6.319504838E1
1.472992440E0,-7.737000465E0,-5.647095108E1,-2.374695206E1,6.174744711E1
1.474955365E0,-6.013050079E0,-5.616405106E1,-1.983795166E1,5.986736781E1
1.476918207E0,-4.900950432E0,-5.574300385E1,-1.508505058E1,5.795567741E1
1.478881324E0,-3.865950108E0,-5.490000153E1,-1.033305073E1,5.599756848E1
1.480844361E0,-2.908050060E0,-5.424795151E1,-6.001950264E0,5.465638485E1
1.482806950E0,-1.375050068E0,-5.305995178E1,-1.326000094E0,5.309432665E1
1.484769671E0,7.320000529E-1,-5.248500061E1,3.771000147E0,5.262538888E1
1.486732628E0,2.686950207E0,-5.290695190E1,7.374000549E0,5.348589670E1
1.488695515E0,5.944950104E0,-5.244705200E1,1.028700066E1,5.377599909E1
1.490658265E0,9.318000793E0,-5.156505203E1,1.224105072E1,5.381099379E1
1.492621055E0,1.196205044E1,-4.926495361E1,1.204995060E1,5.210880554E1
1.494584135E0,1.291995049E1,-4.685100174E1,1.105305099E1,4.984086096E1
1.496547130E0,1.261395073E1,-4.504905319E1,9.673050880E0,4.777129745E1
1.498510226E0,1.157895088E1,-4.278795242E1,7.680000305E0,4.498736912E1
1.500473289E0,9.739050865E0,-3.983700180E1,5.917050362E0,4.143485621E1
1.502436054E0,7.516050339E0,-3.661695099E1,4.537950039E0,3.765481514E1
1.504398906E0,4.795050144E0,-3.366600037E1,3.771000147E0,3.421421530E1
1.506361255E0,2.380050182E0,-3.121305084E1,3.349050045E0,3.148230166E1
1.508323752E0,4.260000288E-1,-2.914305115E1,3.426000118E0,2.934682918E1
1.510286557E0,-1.106999993E0,-2.737995148E1,3.579000235E0,2.763505807E1
1.512249279E0,-1.873050094E0,-2.546400070E1,3.771000147E0,2.580976735E1
1.514212597E0,-2.410050154E0,-2.370105171E1,4.078050137E0,2.416978872E1
1.516175741E0,-2.640000105E0,-2.193795013E1,4.384050369E0,2.252694285E1
1.518138627E0,-2.524950027E0,-2.059605026E1,5.074050426E0,2.136161620E1
1.520101589E0,-2.371050119E0,-1.956195068E1,5.917050362E0,2.057433543E1
1.522064574E0,-2.140950203E0,-1.875705147E1,6.837000370E0,2.007872560E1
1.524027536E0,-1.642950058E0,-1.822005081E1,7.564950466E0,1.979641412E1
1.525990227E0,-1.489950061E0,-1.764495087E1,8.293950081E0,1.955387047E1
1.527952997E0,-1.413000107E0,-1.710900116E1,8.907000542E0,1.934035027E1
1.529915810E0,-1.375050068E0,-1.660995102E1,9.252000809E0,1.906254848E1
1.531878611E0,-1.489950061E0,-1.584405041E1,9.673050880E0,1.862315220E1
1.533841520E0,-1.681950092E0,-1.500105095E1,9.865050316E0,1.803273976E1
1.535804390E0,-1.987950087E0,-1.385100079E1,9.979950905E0,1.718725075E1
1.537767188E0,-2.295000076E0,-1.312305069E1,1.036305046E1,1.687821968E1
1.539730007E0,-2.755050182E0,-1.231800079E1,1.070805073E1,1.655251629E1
1.541692768E0,-2.985000134E0,-1.128300095E1,1.097700024E1,1.602219930E1
1.543655546E0,-3.214950085E0,-1.017105007E1,1.109205055E1,1.538894893E1
1.545618458E0,-3.520950079E0,-9.097949982E0,1.113000011E1,1.480022587E1
1.547581323E0,-3.981000185E0,-8.217000008E0,1.093800068E1,1.424806339E1
1.549544482E0,-4.441050053E0,-7.297050476E0,1.078500080E1,1.375812900E1
1.551507554E0,-4.594050407E0,-6.415050507E0,1.082295036E1,1.339382047E1
1.553470588E0,-4.900950432E0,-5.419050217E0,1.066995049E1,1.293187008E1
1.555433633E0,-5.092950344E0,-4.192049980E0,1.040205002E1,1.231722659E1
1.557396565E0,-5.131050110E0,-2.736000061E0,1.044000053E1,1.195018756E1
1.559359541E0,-5.245950222E0,-1.011000037E0,9.787950516E0,1.115105780E1
1.561321328E0,-5.361000061E0,6.739500165E-1,1.013295078E1,1.148351958E1
1.563283464E0,-5.743950367E0,2.131050110E0,1.036305046E1,1.203856948E1
1.565246386E0,-6.166050434E0,3.817050219E0,1.024800014E1,1.255434416E1
1.567209077E0,-6.625950336E0,5.464950085E0,1.009500027E1,1.325435505E1
1.569172026E0,-6.970950127E0,6.960000515E0,1.009500027E1,1.410477874E1
1.571134909E0,-7.276950359E0,8.493000031E0,9.750000000E0,1.483737025E1
1.573097840E0,-7.660950184E0,9.988050461E0,9.787950516E0,1.594538444E1
1.575060756E0,-8.082000732E0,1.117605019E1,9.520050049E0,1.675870480E1
1.577023860E0,-7.546050549E0,1.010295010E1,9.481950760E0,1.577719461E1
1.578986909E0,-7.776000500E0,1.102305031E1,9.634950638E0,1.657727649E1
1.580950195E0,-8.005949974E0,1.182795048E1,9.520050049E0,1.716470217E1
1.582913395E0,-8.542050362E0,1.270905018E1,9.252000809E0,1.789095022E1
1.584876226E0,-9.270000458E0,1.359105110E1,8.983950615E0,1.874462449E1
1.586839166E0,-9.691950798E0,1.401195049E1,8.869050026E0,1.920751715E1
1.588802311E0,-1.057395077E1,1.466400051E1,9.175050735E0,2.027369976E1
1.590765395E0,-1.130205059E1,1.500900078E1,9.442950249E0,2.102797568E1
1.592728255E0,-1.176195049E1,1.497105026E1,9.750000000E0,2.139014552E1
1.594691175E0,-1.241295052E1,1.485600090E1,1.005705070E1,2.181573680E1
1.596654278E0,-1.306500053E1,1.454895115E1,1.009500027E1,2.200625477E1
1.598617327E0,-1.356300068E1,1.420395088E1,1.036305046E1,2.220585560E1
1.600580454E0,-1.417605114E1,1.382100105E1,1.051695061E1,2.241844656E1
1.602543558E0,-1.459800053E1,1.316895103E1,1.032495022E1,2.220647400E1
1.604506418E0,-1.521105099E1,1.267095089E1,1.017195034E1,2.225753001E1
1.606469373E0,-1.563300037E1,1.221105099E1,1.032495022E1,2.236302895E1
1.608432425E0,-1.593900108E1,1.182795048E1,9.942000389E0,2.219899862E1
1.610395448E0,-1.662900162E1,1.125300026E1,9.942000389E0,2.240529137E1
1.612358400E0,-1.705095100E1,1.079295063E1,9.826950073E0,2.244530377E1
1.614321373E0,-1.735695076E1,1.037100029E1,9.787950516E0,2.246386792E1
1.616284237E0,-1.762605095E1,9.949950218E0,9.903000832E0,2.253327777E1
1.618247137E0,-1.785600090E1,9.643050194E0,9.979950905E0,2.261469888E1
1.620210063E0,-1.804695129E1,9.412950516E0,1.005705070E1,2.270331159E1
1.622172982E0,-1.816200066E1,9.259950638E0,1.036305046E1,2.286914446E1
1.624135951E0,-1.770195007E1,8.761950493E0,1.082295036E1,2.252259016E1
1.626098905E0,-1.747200012E1,8.302050591E0,1.151295090E1,2.251095002E1
1.628061817E0,-1.728105164E1,8.032950401E0,1.204995060E1,2.254693654E1
1.630024714E0,-1.670595169E1,7.573050499E0,1.289295101E1,2.242026096E1
1.631987866E0,-1.609305000E1,7.342950344E0,1.423395061E1,2.270485693E1
1.633950943E0,-1.559400082E1,7.113000393E0,1.553805065E1,2.313436090E1
1.635913841E0,-1.513395119E1,7.113000393E0,1.668704987E1,2.362390498E1
1.637876791E0,-1.459800053E1,6.960000515E0,1.799100113E1,2.419130729E1
1.639839695E0,-1.398495102E1,6.691950321E0,1.917900085E1,2.466161243E1
1.641802623E0,-1.360095024E1,6.654000282E0,1.936995125E1,2.458569866E1
1.643765724E0,-1.325595093E1,6.615000248E0,1.960005188E1,2.456909638E1
1.645728775E0,-1.318005085E1,6.577050209E0,1.914000130E1,2.415183180E1
1.647692217E0,-1.298805046E1,6.538950443E0,1.856505013E1,2.358195102E1
1.649655544E0,-1.287300014E1,6.346950531E0,1.733895111E1,2.250860145E1
1.651618413E0,-1.272000027E1,6.309000492E0,1.595895100E1,2.136094593E1
1.653581406E0,-1.264305019E1,6.424050331E0,1.408095074E1,1.998470201E1
1.655544496E0,-1.268205070E1,6.346950531E0,1.228005028E1,1.875947297E1
1.657507558E0,-1.256700039E1,6.346950531E0,1.013295078E1,1.734618031E1
1.659470413E0,-1.252800083E1,6.309000492E0,8.332050323E0,1.631494268E1
1.661433329E0,-1.237500095E1,6.040050507E0,6.721950531E0,1.532342904E1
1.663396114E0,-1.214505100E1,5.964000225E0,4.537950039E0,1.427110904E1
1.665358941E0,-1.183800030E1,5.542050362E0,3.196050167E0,1.345612537E1
1.667322916E0,-1.164705086E1,5.734050274E0,1.701000094E0,1.309299536E1
1.669286554E0,-1.153200054E1,6.270000458E0,2.070000172E-1,1.312793934E1
1.671249716E0,-1.095705032E1,4.621950150E0,-8.659500480E-1,1.192347451E1
1.673213018E0,-1.030500031E1,3.241950035E0,-1.671000123E0,1.093140031E1
1.675176056E0,-9.999000549E0,2.782050133E0,-2.782050133E0,1.074521372E1
1.677139172E0,-9.730050087E0,2.859000206E0,-3.702000141E0,1.079595118E1
1.679102466E0,-9.538950920E0,3.166050196E0,-4.507050037E0,1.101494251E1
1.681065708E0,-9.040050507E0,2.743950129E0,-4.927950382E0,1.065534938E1
1.683028893E0,-8.772000313E0,2.590950012E0,-5.272950172E0,1.055769932E1
1.684992095E0,-8.503950119E0,2.551950216E0,-5.925000191E0,1.067404538E1
1.686955149E0,-8.121000290E0,2.208000183E0,-6.001950264E0,1.033679435E1
1.688918247E0,-7.699050426E0,2.016000032E0,-6.040050507E0,9.991088215E0
1.690881545E0,-7.123950481E0,1.671000123E0,-6.001950264E0,9.463948375E0
1.692844784E0,-6.702000141E0,1.249050021E0,-6.078000069E0,9.133401156E0
1.694807834E0,-6.204000473E0,8.659500480E-1,-6.078000069E0,8.728205783E0
1.696770940E0,-5.821050167E0,5.590500236E-1,-6.270000458E0,8.573801241E0
1.698735102E0,-5.398950100E0,1.380000114E-1,-6.193050385E0,8.217151529E0
1.700698948E0,-5.016000271E0,-1.680000126E-1,-5.962950230E0,7.793924439E0
1.702662074E0,-4.747950077E0,-2.830500007E-1,-6.154950142E0,7.778596177E0
1.704625411E0,-4.402950287E0,-5.890500546E-1,-5.733000278E0,7.252602525E0
1.706588579E0,-4.018949986E0,-8.959500194E-1,-5.350050449E0,6.751127701E0
1.708551796E0,-3.751050234E0,-1.164000034E0,-4.736999989E0,6.153409041E0
1.710515054E0,-3.598050117E0,-1.509000063E0,-4.084949970E0,5.648881491E0
1.712478313E0,-3.330000162E0,-1.893000126E0,-3.778950214E0,5.380782032E0
1.714441495E0,-2.908050060E0,-2.581950188E0,-3.586950064E0,5.290504010E0
1.716404700E0,-2.524950027E0,-3.349050045E0,-3.778950214E0,5.645526864E0
1.718367934E0,-1.873050094E0,-4.461000443E0,-4.392000198E0,6.534409487E0
1.720331160E0,-1.144950032E0,-5.533950329E0,-5.427000046E0,7.835039650E0
1.722294266E0,-4.930500090E-1,-6.645000458E0,-7.189950466E0,9.802781090E0
1.724257401E0,1.570500135E-1,-7.680000305E0,-9.565950394E0,1.226843414E1
1.726221503E0,1.114950061E0,-8.983050346E0,-1.217205048E1,1.516895250E1
1.728185322E0,1.729050040E0,-1.017105007E1,-1.462500095E1,1.789777993E1
1.730148498E0,2.533950090E0,-1.151295090E1,-1.654200172E1,2.031272415E1
1.732111863E0,3.337950230E0,-1.304595089E1,-1.750005150E1,2.208145260E1
1.734075070E0,4.450050354E0,-1.461705112E1,-1.700205040E1,2.285893369E1
1.736038324E0,5.485050201E0,-1.576695061E1,-1.512405109E1,2.252597231E1
1.738001551E0,6.289950371E0,-1.657200050E1,-1.205700016E1,2.143748887E1
1.739964786E0,6.787950516E0,-1.710900116E1,-8.416049957E0,2.023917216E1
1.741927836E0,7.477950573E0,-1.772205162E1,-5.119950294E0,1.990489260E1
1.743890940E0,7.708050251E0,-1.852695084E1,-1.747050047E0,2.014234668E1
1.745853635E0,7.708050251E0,-1.917795181E1,1.585950017E0,2.072976391E1
1.747816430E0,7.783950329E0,-1.971495056E1,4.768050194E0,2.172564064E1
1.749779420E0,8.167950630E0,-2.002200127E1,7.719000340E0,2.296037714E1
1.751742352E0,8.436000824E0,-1.994505119E1,1.074705029E1,2.417581988E1
1.753705408E0,8.704050064E0,-1.975305176E1,1.350600052E1,2.546282764E1
1.755668428E0,8.781000137E0,-1.948500061E1,1.576800060E1,2.655938733E1
1.757631575E0,8.589000702E0,-1.902495003E1,1.776105118E1,2.740756457E1
1.759594674E0,8.473950386E0,-1.852695084E1,1.936995125E1,2.811139900E1
1.761557928E0,8.436000824E0,-1.772205162E1,2.036700058E1,2.828518934E1
1.763521136E0,8.206049919E0,-1.668704987E1,2.071200180E1,2.783494040E1
1.765484506E0,7.324050426E0,-1.507695103E1,1.998405075E1,2.608291493E1
1.767447828E0,5.830050468E0,-1.385100079E1,1.883400154E1,2.409479872E1
1.769410859E0,4.564949989E0,-1.266300106E1,1.718595123E1,2.182996299E1
1.771373979E0,3.415050268E0,-1.189605045E1,1.549905109E1,1.983429277E1
1.773337049E0,2.764050245E0,-1.189605045E1,1.373595047E1,1.838021560E1
1.775300133E0,1.192050099E0,-1.036305046E1,1.201095104E1,1.590838594E1
1.777262127E0,3.490500152E-1,-9.865050316E0,1.005705070E1,1.409203046E1
1.779224441E0,-5.320500135E-1,-1.032495022E1,8.485050201E0,1.337474303E1
1.781188202E0,-1.144950032E0,-1.105305099E1,7.335000515E0,1.331476922E1
1.783151529E0,-1.413000107E0,-1.212600040E1,7.564950466E0,1.436192643E1
1.785114790E0,-1.528050065E0,-1.365900040E1,1.036305046E1,1.721325198E1
1.787078070E0,-1.720050097E0,-1.542195034E1,1.277805042E1,2.010158445E1
1.789041112E0,-2.065050125E0,-1.806705093E1,2.055795097E1,2.744653183E1
1.791004224E0,-1.260000110E0,-2.285805130E1,1.342995071E1,2.654132035E1
1.792968209E0,-2.448000193E0,-2.799405098E1,-9.183000565E0,2.956327273E1
1.794931928E0,-7.354050159E0,-2.891400146E1,-1.704000092E1,3.435786905E1
1.796895076E0,-1.038195038E1,-3.129000092E1,-1.788300133E1,3.750534345E1
1.798858392E0,-1.091805077E1,-3.443295288E1,-2.068095016E1,4.162371651E1
1.800821563E0,-1.172295094E1,-3.696195221E1,-2.313405037E1,4.515304836E1
1.802784776E0,-1.341000080E1,-3.857205200E1,-2.351700020E1,4.712409803E1
1.804748059E0,-1.417605114E1,-3.937695312E1,-2.045100021E1,4.658055681E1
1.806711318E0,-1.375500107E1,-3.588899994E1,-1.523895073E1,4.134544703E1
1.808674724E0,-1.436805058E1,-3.056205177E1,-1.037100029E1,3.532757468E1
1.810638087E0,-1.436805058E1,-2.975700188E1,-5.925000191E0,3.357120292E1
1.812601251E0,-1.352505112E1,-2.787900162E1,-2.859000206E0,3.111815581E1
1.814564474E0,-1.137795067E1,-2.573205185E1,-5.970000029E-1,2.814165352E1
1.816526841E0,-8.964000702E0,-2.400795174E1,1.050000072E0,2.564834410E1
1.818489465E0,-6.856050491E0,-2.308800125E1,1.624950051E0,2.413921483E1
1.820452934E0,-5.016000271E0,-2.278095055E1,2.008050203E0,2.341290738E1
1.822416155E0,-3.712950230E0,-2.255100060E1,2.275950193E0,2.296766372E1
1.824380108E0,-2.524950027E0,-2.262795067E1,1.203000069E0,2.280014766E1
1.826343847E0,-1.489950061E0,-2.281905174E1,1.500000060E-2,2.286764742E1
1.828306140E0,-1.099500060E-1,-2.293395042E1,-2.910000086E-1,2.293606008E1
1.830268853E0,2.719500065E-1,-2.209095192E1,3.600000143E-1,2.209555868E1
1.832232127E0,1.570500135E-1,-2.071095085E1,1.969950080E0,2.080501990E1
1.834195236E0,4.200000316E-2,-1.914000130E1,3.694050074E0,1.949326601E1
1.836158309E0,-3.299999982E-2,-1.795200157E1,5.304000378E0,1.871918453E1
1.838121392E0,-2.629500031E-1,-1.676399994E1,6.913950443E0,1.813569815E1
1.840085447E0,3.490500152E-1,-1.569000053E1,8.254950523E0,1.773251705E1
1.842049193E0,1.345050097E0,-1.484700108E1,9.214050293E0,1.752544788E1
1.844012292E0,2.304000139E0,-1.404195023E1,1.013295078E1,1.746887158E1
1.845975580E0,3.415050268E0,-1.339095020E1,1.116795063E1,1.776803976E1
1.847938846E0,4.488000393E0,-1.285395050E1,1.212600040E1,1.823200693E1
1.849902118E0,5.560950279E0,-1.250895023E1,1.285500050E1,1.877895209E1
1.851865481E0,6.328050137E0,-1.220295048E1,1.354500103E1,1.929827121E1
1.853828813E0,7.132950306E0,-1.197300053E1,1.381305027E1,1.962223431E1
1.855791892E0,7.669050217E0,-1.166595078E1,1.408095074E1,1.982881520E1
1.857755046E0,7.861050606E0,-1.139805031E1,1.427295113E1,1.988539166E1
1.859718244E0,8.091000557E0,-1.124400043E1,1.438800049E1,1.997264113E1
1.861681429E0,8.359050751E0,-1.113000011E1,1.454100037E1,2.012936471E1
1.863644518E0,8.473950386E0,-1.120605087E1,1.484805107E1,2.044133146E1
1.865607646E0,8.551050186E0,-1.124400043E1,1.519305038E1,2.074552446E1
1.867570714E0,8.934000015E0,-1.124400043E1,1.599705029E1,2.149766313E1
1.869533799E0,9.471000671E0,-1.128300095E1,1.699394989E1,2.249000438E1
1.871496695E0,9.931050301E0,-1.139805031E1,1.760700035E1,2.320663207E1
1.873459646E0,9.777000427E0,-1.151295090E1,1.745400047E1,2.308202565E1
1.875422674E0,9.202950478E0,-1.166595078E1,1.653404999E1,2.222978889E1
1.877385697E0,8.359050751E0,-1.193400097E1,1.427295113E1,2.039635366E1
1.879348783E0,7.516050339E0,-1.224105072E1,1.208805084E1,1.877379313E1
1.881311850E0,6.979950428E0,-1.235595036E1,9.903000832E0,1.730487338E1
1.883275154E0,6.481050491E0,-1.220295048E1,7.066950321E0,1.551959415E1
1.885238389E0,5.638050079E0,-1.162800026E1,3.196050167E0,1.331212738E1
1.887202485E0,4.756950378E0,-1.254795074E1,-1.759500057E-1,1.342052917E1
1.889166322E0,4.105050087E0,-1.377405071E1,-2.398950100E0,1.457157750E1
1.891129495E0,3.798000097E0,-1.618905067E1,-2.437050104E0,1.680623038E1
1.893092862E0,3.607050180E0,-1.971495056E1,-1.249050021E0,2.008109092E1
1.895054943E0,3.376950264E0,-2.262795067E1,5.295000225E-2,2.287860897E1
1.897017401E0,2.992950201E0,-2.481195068E1,1.087950110E0,2.501548087E1
1.898980652E0,2.686950207E0,-2.634600067E1,2.008050203E0,2.655868443E1
1.900943654E0,2.649000168E0,-2.749500084E1,3.310950041E0,2.782004068E1
1.902906519E0,2.686950207E0,-2.841495132E1,4.039050102E0,2.882608343E1
1.904869425E0,2.764050245E0,-2.895195198E1,4.461000443E0,2.942373230E1
1.906832530E0,3.147000074E0,-2.902800179E1,4.690950394E0,2.957251279E1
1.908795577E0,3.529950142E0,-2.864505196E1,4.653000355E0,2.923439690E1
1.910758670E0,4.105050087E0,-2.810895157E1,4.308000088E0,2.873192404E1
1.912721774E0,4.527000427E0,-2.745705223E1,3.349050045E0,2.802854949E1
1.914685162E0,4.795050144E0,-2.669100189E1,1.930950046E0,2.718695746E1
1.916648466E0,5.178000450E0,-2.584695053E1,4.360500276E-1,2.636411728E1
1.918612225E0,5.407950401E0,-2.508105087E1,-1.287000060E0,2.568971408E1
1.920575850E0,4.680000305E0,-2.427600098E1,-3.702000141E0,2.499862859E1
1.922539185E0,3.645000219E0,-2.366295052E1,-6.615000248E0,2.483907168E1
1.924502612E0,2.764050245E0,-2.297295189E1,-9.412950516E0,2.497999459E1
1.926465809E0,1.959000111E0,-2.220600128E1,-1.155900097E1,2.511084781E1
1.928429073E0,1.345050097E0,-2.147805023E1,-1.339905071E1,2.535054953E1
1.930391217E0,1.114950061E0,-2.078805161E1,-1.481700039E1,2.555248919E1
1.932353689E0,3.490500152E-1,-2.044305038E1,-1.623495102E1,2.610773409E1
1.934316520E0,-5.320500135E-1,-1.998300171E1,-1.734705162E1,2.646740702E1
1.936279269E0,-1.222050071E0,-1.960005188E1,-1.795995140E1,2.661231471E1
1.938242538E0,-1.681950092E0,-1.929300117E1,-1.757595062E1,2.615268420E1
1.940205654E0,-2.410050154E0,-1.906305122E1,-1.704000092E1,2.568209288E1
1.942168725E0,-2.793000221E0,-1.894799995E1,-1.604295158E1,2.498407189E1
1.944131810E0,-3.406050205E0,-1.871805000E1,-1.504695034E1,2.425648962E1
1.946094676E0,-4.057950020E0,-1.848795128E1,-1.393500042E1,2.350437273E1
1.948057627E0,-4.594050407E0,-1.867995071E1,-1.312995052E1,2.329037266E1
1.950020725E0,-5.131050110E0,-1.864200020E1,-1.286205101E1,2.322249347E1
1.951983779E0,-5.553000450E0,-1.867995071E1,-1.282395077E1,2.332873949E1
1.953946859E0,-5.553000450E0,-1.887195015E1,-1.312995052E1,2.365125614E1
1.955909932E0,-5.553000450E0,-1.906305122E1,-1.370505047E1,2.412600556E1
1.957872995E0,-5.553000450E0,-1.914000130E1,-1.435695076E1,2.456211511E1
1.959836071E0,-5.514000416E0,-1.917795181E1,-1.543005085E1,2.522468048E1
1.961799014E0,-4.939050198E0,-1.944705009E1,-1.596705055E1,2.564232200E1
1.963761996E0,-4.210950375E0,-1.952295113E1,-1.654200172E1,2.593290467E1
1.965724729E0,-3.061050177E0,-1.971495056E1,-1.692495155E1,2.616301376E1
1.967687535E0,-1.260000110E0,-1.971495056E1,-1.700205040E1,2.606408628E1
1.969651494E0,6.940500140E-1,-2.029005051E1,-1.692495155E1,2.643145550E1
1.971615129E0,2.572050095E0,-2.128605080E1,-1.642695045E1,2.701029621E1
1.973577976E0,4.488000393E0,-2.147805023E1,-1.631204987E1,2.734102705E1
1.975541054E0,6.250950336E0,-2.113305092E1,-1.604295158E1,2.725906302E1
1.977503950E0,7.861050606E0,-2.055795097E1,-1.573695087E1,2.705692310E1
1.979466900E0,9.202950478E0,-1.979205132E1,-1.558305073E1,2.681885648E1
1.981429793E0,1.046700096E1,-1.883295059E1,-1.535295105E1,2.645659168E1
1.983392689E0,1.142595100E1,-1.791300011E1,-1.504695034E1,2.603533452E1
1.985355840E0,1.230705070E1,-1.687905121E1,-1.462500095E1,2.550012784E1
1.987318917E0,1.307400036E1,-1.588200092E1,-1.408905029E1,2.493328652E1
1.989282490E0,1.376400089E1,-1.492395115E1,-1.332195091E1,2.428263607E1
1.991245917E0,1.441500092E1,-1.388895035E1,-1.255605030E1,2.362942217E1
1.993209166E0,1.487505054E1,-1.285395050E1,-1.171200085E1,2.288366527E1
1.995172463E0,1.537305069E1,-1.208805084E1,-1.044795036E1,2.217230993E1
1.997135683E0,1.591005039E1,-1.143600082E1,-8.991000175E0,2.155805888E1
1.999098925E0,1.629300117E1,-1.097595024E1,-7.573050499E0,2.105432176E1
2.001061928E0,1.652295113E1,-1.113000011E1,-5.848050117E0,2.076257466E1
2.003025001E0,1.690605164E1,-1.051605034E1,-4.237950325E0,2.035588661E1
2.004988059E0,1.740495110E1,-9.903000832E0,-2.820000172E0,2.022261479E1
2.006951134E0,1.767300034E1,-9.558000565E0,-1.057050109E0,2.011983277E1
2.008913311E0,1.809495163E1,-9.021000862E0,2.830500007E-1,2.022092600E1
2.010875752E0,1.836300087E1,-8.562000275E0,1.624950051E0,2.032604517E1
2.012838937E0,1.840095139E1,-7.987050533E0,2.965950251E0,2.027769338E1
2.014801904E0,1.843905067E1,-7.564950466E0,4.384050369E0,2.040703219E1
2.016764871E0,1.859295082E1,-6.874950409E0,5.227050304E0,2.050084921E1
2.018727834E0,1.866900063E1,-6.376950264E0,6.186000347E0,2.067519478E1
2.020690705E0,1.863105011E1,-5.764050484E0,7.489050388E0,2.089081573E1
2.022653603E0,1.866900063E1,-5.074050426E0,8.025000572E0,2.094464624E1
2.024616710E0,1.870800018E1,-4.575000286E0,7.948950291E0,2.083520360E1
2.026579755E0,1.847805023E1,-4.000950336E0,7.680000305E0,2.040657611E1
2.028542683E0,1.813305092E1,-3.463950157E0,6.876000404E0,1.969989512E1
2.030505660E0,1.763505173E1,-2.812050104E0,5.841000080E0,1.878882533E1
2.032468529E0,1.721295166E1,-2.275950193E0,4.345950127E0,1.789840598E1
2.034431429E0,1.679100037E1,-1.624050021E0,2.928000212E0,1.712157753E1
2.036395076E0,1.640805054E1,-1.126049995E0,1.395000100E0,1.650570012E1
2.038358504E0,1.598700047E1,-6.280500293E-1,-9.900000691E-2,1.599963849E1
2.040320601E0,1.548795033E1,-9.105000645E-2,-2.092050076E0,1.562886973E1
2.042283102E0,1.498995113E1,2.910000086E-1,-3.319050074E0,1.535576144E1
2.044246141E0,1.476000023E1,6.739500165E-1,-4.890000343E0,1.556354454E1
2.046209023E0,1.445295048E1,9.810000658E-1,-5.809950352E0,1.560787179E1
2.048172269E0,1.422300053E1,1.210950017E0,-6.385050297E0,1.563742342E1
2.050135408E0,1.426200104E1,1.518000126E0,-6.615000248E0,1.579453153E1
2.052098335E0,1.418505096E1,1.939050078E0,-6.499950409E0,1.572338836E1
2.054061328E0,1.391700077E1,2.245950222E0,-6.270000458E0,1.542854849E1
2.056024418E0,1.360995102E1,2.590950012E0,-6.040050507E0,1.511376852E1
2.057987480E0,1.303500080E1,2.974050045E0,-5.695050240E0,1.453237134E1
2.059950695E0,1.238400078E1,3.127050161E0,-5.158050060E0,1.377488288E1
2.061913865E0,1.161705017E1,3.127050161E0,-4.315050125E0,1.278099976E1
2.063876460E0,1.088895035E1,3.088950157E0,-3.394950151E0,1.181679057E1
2.065839203E0,1.016100025E1,3.241950035E0,-2.629050016E0,1.098490192E1
2.067801932E0,9.355950356E0,3.280950069E0,-1.861950040E0,1.008787878E1
2.069764665E0,8.398050308E0,3.166050196E0,-6.360000372E-1,8.997534044E0
2.071726945E0,7.363050461E0,2.821050167E0,6.280500293E-1,7.909948355E0
2.073689357E0,6.405000210E0,2.322000027E0,1.663050056E0,7.012948545E0
2.075652497E0,5.523000240E0,1.786050081E0,2.314950228E0,6.249200037E0
2.077615427E0,4.680000305E0,1.402950048E0,2.773950100E0,5.618315660E0
2.079578574E0,4.105050087E0,1.096050024E0,2.965950251E0,5.181662162E0
2.081541658E0,3.492000103E0,9.810000658E-1,3.004050255E0,4.709643700E0
2.083504869E0,3.108000040E0,1.210950017E0,2.773950100E0,4.338301897E0
2.085468043E0,2.725050211E0,1.018950105E0,2.353049994E0,3.741791314E0
2.087431104E0,2.304000139E0,6.360000372E-1,1.777950048E0,2.978929181E0
2.089394198E0,1.920000076E0,9.900000691E-2,1.279950023E0,2.309647885E0
2.091358713E0,1.614000082E0,-3.589500189E-1,6.660000086E-1,1.782525566E0
2.093322812E0,1.192050099E0,-8.190000653E-1,1.500000060E-2,1.446364251E0
2.095284994E0,6.550500393E-1,-1.240950108E0,-4.440000355E-1,1.471796098E0
2.097247737E0,3.490500152E-1,-1.816050053E0,-8.269500136E-1,2.025764061E0
2.099210934E0,3.109500110E-1,-2.467050076E0,-1.057050109E0,2.701921708E0
2.101173985E0,3.870000243E-1,-3.234000206E0,-1.516950130E0,3.593002094E0
2.103136842E0,5.020500422E-1,-4.000950336E0,-1.977000117E0,4.490900500E0
2.105099756E0,4.260000288E-1,-4.729050159E0,-2.359950066E0,5.302334934E0
2.107062679E0,3.490500152E-1,-5.380050182E0,-2.704950094E0,6.031876233E0
2.109025600E0,2.340000123E-1,-5.955000401E0,-2.704950094E0,6.544733821E0
2.110988538E0,1.570500135E-1,-6.376950264E0,-2.475000143E0,6.842206156E0
2.112951461E0,1.960500032E-1,-6.952050209E0,-1.939050078E0,7.220065991E0
2.114915331E0,4.639500082E-1,-7.756950378E0,-1.096050024E0,7.847729254E0
2.116878923E0,6.550500393E-1,-8.523000717E0,1.500000060E-2,8.548149319E0
2.118841011E0,8.470500112E-1,-9.289950371E0,1.011000037E0,9.383112100E0
2.120803540E0,1.077000022E0,-1.017105007E1,2.008050203E0,1.042316911E1
2.122766539E0,1.306950092E0,-1.116795063E1,3.043050051E0,1.164866488E1
2.124729393E0,1.459950089E0,-1.189605045E1,3.541050196E0,1.249746003E1
2.126692329E0,1.767000079E0,-1.281600094E1,3.655950069E0,1.344388858E1
2.128655240E0,2.227050066E0,-1.385100079E1,3.081000090E0,1.436323558E1
2.130618300E0,2.265000105E0,-1.503900051E1,3.043050051E0,1.551005853E1
2.132581316E0,2.839950085E0,-1.649505043E1,4.116000175E0,1.723639935E1
2.134544285E0,4.680000305E0,-1.660995102E1,6.262050152E0,1.835772720E1
2.136507257E0,5.523000240E0,-1.787505150E1,8.293950081E0,2.046486271E1
2.138470172E0,6.060000420E0,-1.902495003E1,8.524050713E0,2.171017663E1
2.140433103E0,6.673050404E0,-2.036595154E1,8.217000008E0,2.295257443E1
2.142396025E0,7.324050426E0,-2.201505089E1,7.258950233E0,2.431042037E1
2.144358949E0,7.783950329E0,-2.377800179E1,5.341950417E0,2.558358235E1
2.146322805E0,8.128950119E0,-2.592405128E1,2.200050116E0,2.725759501E1
2.148286364E0,8.628000259E0,-2.860695076E1,-2.206950188E0,2.996115234E1
2.150249180E0,9.394050598E0,-3.151995087E1,-6.652950287E0,3.355618031E1
2.152212213E0,1.019895077E1,-3.431805038E1,-9.757950783E0,3.710747610E1
2.154175296E0,1.119600010E1,-3.726900101E1,-1.209600067E1,4.075097651E1
2.156138364E0,1.173195076E1,-4.033500290E1,-1.420395088E1,4.434301916E1
2.158101550E0,1.073595047E1,-4.340100098E1,-1.650300026E1,4.765770175E1
2.160064721E0,9.394050598E0,-4.619895172E1,-1.834305000E1,5.058714076E1
2.162027287E0,8.589000702E0,-4.872900391E1,-1.907100105E1,5.302819850E1
2.163990031E0,7.593000412E0,-5.102895355E1,-2.037405014E1,5.546809601E1
2.165952579E0,6.213000298E0,-5.279205322E1,-1.991400146E1,5.676415868E1
2.167915185E0,4.450050354E0,-5.459295273E1,-2.041305161E1,5.845413682E1
2.169878381E0,2.878050089E0,-5.627895355E1,-2.148600197E1,6.030963493E1
2.171841408E0,2.074050188E0,-5.750595093E1,-2.248200035E1,6.177925555E1
2.173804809E0,1.843950033E0,-5.857905197E1,-2.363205147E1,6.319319060E1
2.175768101E0,1.192050099E0,-5.934600449E1,-2.531895065E1,6.453230582E1
2.177730781E0,1.189500093E-1,-5.984400177E1,-2.562495041E1,6.509959125E1
2.179693641E0,-5.320500135E-1,-6.076395416E1,-2.566395187E1,6.596347193E1
2.181657290E0,-3.019500077E-1,-6.095505142E1,-2.428395081E1,6.561493530E1
2.183620711E0,4.260000288E-1,-6.122400284E1,-2.160105133E1,6.492430530E1
2.185584810E0,1.498950124E0,-6.095505142E1,-1.857299995E1,6.373948127E1
2.187548711E0,2.149950027E0,-6.064905167E1,-1.439505100E1,6.237104494E1
2.189512008E0,1.843950033E0,-6.030405426E1,-1.075395012E1,6.128316698E1
2.191475482E0,1.575000048E0,-5.995905304E1,-7.305000305E0,6.042294015E1
2.193438019E0,1.077000022E0,-5.930700302E1,-4.084949970E0,5.945727334E1
2.195400814E0,3.109500110E-1,-5.831100464E1,-1.249050021E0,5.832520963E1
2.197363534E0,3.490500152E-1,-5.865600204E1,8.580000401E-1,5.866331542E1
2.199326276E0,-8.770500422E-1,-5.762100220E1,1.893000126E0,5.765875962E1
2.201289589E0,-2.908050060E0,-5.470800400E1,2.773950100E0,5.485542139E1
2.203252735E0,-4.518000126E0,-5.179500198E1,3.004050255E0,5.207839162E1
2.205215846E0,-5.208000183E0,-4.857600403E1,3.273000240E0,4.896390470E1
2.207178968E0,-5.706000328E0,-4.409100342E1,3.388050079E0,4.458759811E1
2.209141992E0,-6.894000530E0,-3.914700317E1,3.771000147E0,3.992787927E1
2.211105045E0,-8.236050606E0,-3.527595139E1,4.000950336E0,3.644492940E1
2.213068170E0,-9.499950409E0,-3.190305138E1,4.269000053E0,3.356006714E1
2.215031274E0,-8.925000191E0,-2.879895210E1,5.227050304E0,3.059995630E1
2.216995032E0,-7.929000378E0,-2.592405128E1,6.531000137E0,2.788511153E1
2.218958591E0,-7.276950359E0,-2.412300110E1,7.642050266E0,2.633009914E1
2.220921812E0,-6.894000530E0,-2.258895111E1,8.332050323E0,2.504418132E1
2.222885132E0,-6.396000385E0,-2.132505035E1,8.830050468E0,2.395070740E1
2.224848167E0,-5.476050377E0,-2.009805107E1,9.673050880E0,2.296707857E1
2.226811286E0,-4.479000092E0,-1.887195015E1,1.055505085E1,2.208214307E1
2.228774559E0,-3.712950230E0,-1.798995018E1,1.116795063E1,2.149761448E1
2.230737769E0,-3.175950050E0,-1.729995155E1,1.135995007E1,2.093856366E1
2.232701004E0,-2.448000193E0,-1.672500038E1,1.162800026E1,2.051654778E1
2.234664231E0,-1.720050097E0,-1.615005112E1,1.155105019E1,1.993011500E1
2.236627238E0,-1.222050071E0,-1.576695061E1,1.128300095E1,1.942668907E1
2.238590310E0,-1.030050039E0,-1.523100090E1,1.093800068E1,1.877988952E1
2.240553457E0,-7.620000243E-1,-1.484700108E1,1.078500080E1,1.836655458E1
2.242516564E0,-9.919500351E-1,-1.431105042E1,1.059300041E1,1.783260459E1
2.244479816E0,-1.567050099E0,-1.346700096E1,1.032495022E1,1.704172403E1
2.246443025E0,-1.911000133E0,-1.250895023E1,9.903000832E0,1.606845303E1
2.248406080E0,-2.065050125E0,-1.128300095E1,9.673050880E0,1.500461448E1
2.250369181E0,-2.256000042E0,-1.013295078E1,9.558000565E0,1.411104541E1
2.252332397E0,-2.563050032E0,-9.021000862E0,9.328050613E0,1.322725256E1
2.254295573E0,-2.793000221E0,-7.987050533E0,9.214050293E0,1.250969821E1
2.256258813E0,-2.985000134E0,-6.990000248E0,9.098999977E0,1.185589009E1
2.258222034E0,-3.291000128E0,-6.109050274E0,8.791950226E0,1.120042704E1
2.260185087E0,-3.598050117E0,-5.035050392E0,8.409000397E0,1.044073679E1
2.262148190E0,-3.828000069E0,-3.771000147E0,8.254950523E0,9.849783489E0
2.264110942E0,-4.326000214E0,-2.046000004E0,7.680000305E0,9.048911457E0
2.266073800E0,-4.747950077E0,-2.830500007E-1,7.719000340E0,9.066758709E0
2.268036329E0,-5.092950344E0,1.326000094E0,7.450050354E0,9.121385297E0
2.269998954E0,-5.016000271E0,2.859000206E0,6.876000404E0,8.978503353E0
2.271962107E0,-5.398950100E0,4.813950062E0,6.415950298E0,9.668877681E0
2.273925106E0,-5.514000416E0,6.424050331E0,6.339000225E0,1.057617828E1
2.275888177E0,-5.668050289E0,8.455050468E0,5.572050095E0,1.160441359E1
2.277851241E0,-5.590950489E0,1.033305073E1,5.725950241E0,1.306970431E1
2.279814186E0,-5.782950401E0,1.152105045E1,6.031950474E0,1.423241179E1
2.281777166E0,-5.782950401E0,1.282395077E1,6.147000313E0,1.535193283E1
2.283740079E0,-5.974050522E0,1.412700081E1,6.492000103E0,1.665555453E1
2.285703012E0,-5.514000416E0,1.382100105E1,6.760950089E0,1.634425639E1
2.287666253E0,-5.323050022E0,1.428105068E1,6.913950443E0,1.673576950E1
2.289629400E0,-5.743950367E0,1.543095112E1,7.144050121E0,1.794838907E1
2.291592331E0,-6.204000473E0,1.635000038E1,7.066950321E0,1.886144006E1
2.293555325E0,-6.778950214E0,1.711695099E1,6.991050243E0,1.969311963E1
2.295518191E0,-7.431000233E0,1.769205093E1,6.760950089E0,2.034548787E1
2.297481094E0,-7.852050304E0,1.784505081E1,6.876000404E0,2.067316894E1
2.299443886E0,-8.580000877E0,1.799805069E1,6.991050243E0,2.112867784E1
2.301406710E0,-9.193950653E0,1.784505081E1,7.450050354E0,2.141209512E1
2.303369829E0,-9.844950676E0,1.723200035E1,7.756950378E0,2.130810102E1
2.305332861E0,-1.087995052E1,1.700205040E1,7.680000305E0,2.159688510E1
2.307295722E0,-1.214505100E1,1.669500160E1,8.025000572E0,2.215007848E1
2.309258633E0,-1.298805046E1,1.619700050E1,8.677050591E0,2.250163299E1
2.311221967E0,-1.367805099E1,1.535400105E1,8.869050026E0,2.239407233E1
2.313185174E0,-1.425300026E1,1.424205112E1,9.098999977E0,2.210827531E1
2.315148049E0,-1.459800053E1,1.313100052E1,9.634950638E0,2.187137553E1
2.317111022E0,-1.471305084E1,1.194300079E1,9.787950516E0,2.132869214E1
2.319073891E0,-1.467495060E1,1.087005043E1,9.634950638E0,2.064810997E1
2.321036791E0,-1.440600109E1,9.835050583E0,9.750000000E0,1.998308253E1
2.322999758E0,-1.432995033E1,8.914950371E0,9.634950638E0,1.943337568E1
2.324962708E0,-1.398495102E1,7.957050323E0,9.597000122E0,1.873488501E1
2.326925762E0,-1.344795036E1,7.113000393E0,9.481950760E0,1.792622475E1
2.328888785E0,-1.298805046E1,6.499950409E0,9.289950371E0,1.724070729E1
2.330851557E0,-1.252800083E1,5.964000225E0,9.136950493E0,1.661336714E1
2.332814402E0,-1.145505047E1,4.966950417E0,8.944950104E0,1.535906605E1
2.334777308E0,-1.057395077E1,4.354050159E0,9.252000809E0,1.470937479E1
2.336740217E0,-9.999000549E0,3.856050253E0,9.022050858E0,1.400880213E1
2.338703323E0,-9.499950409E0,3.357000113E0,8.791950226E0,1.337224350E1
2.340666371E0,-8.964000702E0,2.821050167E0,8.754000664E0,1.284305884E1
2.342629274E0,-8.503950119E0,2.245950222E0,8.638950348E0,1.232854100E1
2.344592219E0,-8.311950684E0,1.863000035E0,8.869050026E0,1.229712737E1
2.346555347E0,-8.158950806E0,1.518000126E0,8.869050026E0,1.214631018E1
2.348518400E0,-8.044050217E0,1.057950020E0,9.214050293E0,1.227699983E1
2.350481302E0,-8.044050217E0,8.280000687E-1,9.865050316E0,1.275584359E1
2.352444248E0,-7.929000378E0,3.679500222E-1,1.090005016E1,1.348389883E1
2.354407301E0,-8.005949974E0,2.910000086E-1,1.147500038E1,1.399484011E1
2.356370323E0,-7.891050339E0,9.900000691E-2,1.231800079E1,1.462913600E1
2.358334083E0,-7.891050339E0,-1.290000081E-1,1.316100025E1,1.534591946E1
2.360297660E0,-7.891050339E0,-1.290000081E-1,1.358295059E1,1.570929226E1
2.362260337E0,-7.852050304E0,-1.680000126E-1,1.335300064E1,1.549146682E1
2.364223277E0,-7.929000378E0,-1.680000126E-1,1.316100025E1,1.536584520E1
2.366186557E0,-8.005949974E0,-9.105000645E-2,1.247100067E1,1.481989821E1
2.368149737E0,-8.197050095E0,-1.680000126E-1,1.166595078E1,1.425883101E1
2.370112432E0,-8.350950241E0,-9.105000645E-2,1.074705029E1,1.361050146E1
2.372075272E0,-8.427000046E0,-1.290000081E-1,9.367050171E0,1.260049998E1
2.374037623E0,-8.619000435E0,9.900000691E-2,7.719000340E0,1.157064975E1
2.376000118E0,-8.580000877E0,1.759500057E-1,6.376950264E0,1.069171961E1
2.377963474E0,-8.503950119E0,-9.105000645E-2,4.959000111E0,9.844650315E0
2.379926578E0,-8.236050606E0,-9.105000645E-2,3.771000147E0,9.058767123E0
2.381888565E0,-8.158950806E0,-9.105000645E-2,2.773950100E0,8.618095353E0
2.383850882E0,-8.082000732E0,2.295000106E-2,1.701000094E0,8.259095826E0
2.385814809E0,-8.121000290E0,2.910000086E-1,8.580000401E-1,8.171382428E0
2.387778265E0,-8.311950684E0,1.134000063E0,-6.105000153E-2,8.389172034E0
2.389741504E0,-8.158950806E0,6.360000372E-1,-4.819500148E-1,8.197880831E0
2.391704806E0,-7.699050426E0,-5.295000225E-2,-1.249050021E0,7.799891482E0
2.393667595E0,-7.468950272E0,-1.680000126E-1,-1.441050053E0,7.608552255E0
2.395630551E0,-7.239000320E0,-5.295000225E-2,-2.092050076E0,7.535423204E0
2.397592612E0,-7.086000443E0,6.105000153E-2,-2.475000143E0,7.506047900E0
2.399554935E0,-6.970950127E0,9.900000691E-2,-3.165000200E0,7.656446495E0
2.401518276E0,-6.856050491E0,9.900000691E-2,-3.664050102E0,7.774348365E0
2.403481318E0,-6.625950336E0,2.295000106E-2,-3.855000257E0,7.665818387E0
2.405444963E0,-6.396000385E0,-1.290000081E-1,-3.970050097E0,7.529061010E0
2.407408448E0,-6.013050079E0,-2.059500068E-1,-3.702000141E0,7.064275738E0
2.409371411E0,-5.974050522E0,-1.680000126E-1,-3.739950180E0,7.050158225E0
2.411334527E0,-5.821050167E0,-3.589500189E-1,-3.394950151E0,6.748270645E0
2.413297821E0,-5.668050289E0,-4.360500276E-1,-3.012000084E0,6.433434403E0
2.415261063E0,-5.361000061E0,-6.660000086E-1,-2.974050045E0,6.166753711E0
2.417224093E0,-5.053950310E0,-8.580000401E-1,-2.629050016E0,5.761118102E0
2.419187199E0,-4.824000359E0,-1.203000069E0,-2.398950100E0,5.520249107E0
2.421150766E0,-4.633050442E0,-1.509000063E0,-2.245050192E0,5.364931309E0
2.423114197E0,-4.479000092E0,-1.930950046E0,-2.475000143E0,5.469518773E0
2.425077079E0,-4.249050140E0,-2.351999998E0,-2.743950129E0,5.578135297E0
2.427040122E0,-4.210950375E0,-2.812050104E0,-3.394950151E0,6.096344427E0
2.429003330E0,-4.402950287E0,-3.463950157E0,-4.237950325E0,7.024609945E0
2.430966496E0,-4.326000214E0,-4.422000408E0,-5.197050095E0,8.079461315E0
2.432929604E0,-4.134000301E0,-5.457000256E0,-6.460950375E0,9.413431363E0
2.434892729E0,-3.790050268E0,-6.492000103E0,-7.687950134E0,1.075244733E1
2.436856292E0,-3.330000162E0,-7.450050354E0,-8.875950813E0,1.205714121E1
2.438819727E0,-2.524950027E0,-8.254950523E0,-9.949050903E0,1.317206114E1
2.440782954E0,-1.681950092E0,-9.175050735E0,-1.021800041E1,1.383539101E1
2.442746252E0,-6.079500318E-1,-1.017105007E1,-9.873000145E0,1.418788197E1
2.444709966E0,3.490500152E-1,-1.120605087E1,-9.489000320E0,1.468804068E1
2.446673558E0,1.230000019E0,-1.224105072E1,-8.646000862E0,1.503693964E1
2.448636412E0,1.804950118E0,-1.289295101E1,-7.228050232E0,1.489062594E1
2.450599483E0,2.419050217E0,-1.342905045E1,-4.545000076E0,1.438221907E1
2.452561471E0,2.839950085E0,-1.377405071E1,-1.708950043E0,1.416722626E1
2.454523782E0,3.108000040E0,-1.400400066E1,1.624950051E0,1.443648716E1
2.456487304E0,2.992950201E0,-1.408095074E1,4.959000111E0,1.522572188E1
2.458450472E0,2.649000168E0,-1.400400066E1,7.909950256E0,1.630020090E1
2.460413354E0,2.419050217E0,-1.365900040E1,1.078500080E1,1.757089463E1
2.462376320E0,2.341950178E0,-1.316100025E1,1.346805096E1,1.897590722E1
2.464339479E0,2.227050066E0,-1.258605099E1,1.542300034E1,2.003091038E1
2.466302568E0,1.843950033E0,-1.201095104E1,1.645695114E1,2.045713415E1
2.468265103E0,1.230000019E0,-1.143600082E1,1.599705029E1,1.970280774E1
2.470227801E0,3.109500110E-1,-1.086105061E1,1.480905056E1,1.836755533E1
2.472191122E0,-5.700000525E-1,-1.047795010E1,1.281600094E1,1.656388295E1
2.474154260E0,-1.413000107E0,-1.024800014E1,1.051695061E1,1.475209566E1
2.476117666E0,-2.103000164E0,-1.028595066E1,8.638950348E0,1.359613378E1
2.478080977E0,-2.563050032E0,-1.070805073E1,7.258950233E0,1.318802238E1
2.480043835E0,-2.640000105E0,-1.166595078E1,6.531000137E0,1.362783808E1
2.482006825E0,-2.601000071E0,-1.304595089E1,7.182000160E0,1.511764407E1
2.483969782E0,-2.332950115E0,-1.503900051E1,8.638950348E0,1.749987588E1
2.485932748E0,-2.026050091E0,-1.798995018E1,1.090005016E1,2.113183097E1
2.487896544E0,-7.620000243E-1,-2.274300194E1,6.301050186E0,2.361203114E1
2.489860111E0,1.960500032E-1,-2.692005157E1,-2.398950100E0,2.702744113E1
2.491823105E0,-3.019500077E-1,-3.044700050E1,-5.772000313E0,3.099075670E1
2.493786267E0,-1.681950092E0,-3.458595276E1,-5.848050117E0,3.511718631E1
2.495749644E0,-3.253050089E0,-3.899400330E1,-1.057050109E0,3.914373491E1
2.497712958E0,-3.828000069E0,-4.305600357E1,-9.420000315E-1,4.323610056E1
2.499675864E0,-4.402950287E0,-4.642905045E1,-3.472050190E0,4.676641775E1
2.501638887E0,-4.978050232E0,-4.761705399E1,-4.545000076E0,4.809180637E1
2.503602468E0,-6.319050312E0,-4.443600082E1,-4.927950382E0,4.515277689E1
2.505565885E0,-6.127950191E0,-3.941505051E1,-3.586950064E0,4.004952173E1
2.507528229E0,-7.239000320E0,-3.730695343E1,-9.810000658E-1,3.801544766E1
2.509490887E0,-8.311950684E0,-3.703905106E1,2.620950222E0,3.805061376E1
2.511454010E0,-8.082000732E0,-3.665595245E1,5.994000435E0,3.801191428E1
2.513416982E0,-6.856050491E0,-3.381900024E1,6.223950386E0,3.506376711E1
2.515380122E0,-5.706000328E0,-3.075300217E1,4.078050137E0,3.154260729E1
2.517343212E0,-4.747950077E0,-2.810895157E1,1.893000126E0,2.856990790E1
2.519307684E0,-3.828000069E0,-2.600100136E1,-9.900000691E-2,2.628146604E1
2.521271751E0,-3.445050240E0,-2.435295105E1,-3.012000084E0,2.477915940E1
2.523234704E0,-2.946000099E0,-2.304900169E1,-5.695050240E0,2.392423443E1
2.525197984E0,-2.908050060E0,-2.109495163E1,-7.458000183E0,2.256270166E1
2.527161340E0,-2.716050148E0,-1.921695137E1,-7.573050499E0,2.083312848E1
2.529124674E0,-2.410050154E0,-1.722405052E1,-6.154950142E0,1.844883924E1
2.531087753E0,-2.103000164E0,-1.542195034E1,-4.047000408E0,1.608220676E1
2.533050907E0,-1.834950089E0,-1.385100079E1,-1.555950046E0,1.405838700E1
2.535013399E0,-1.758000135E0,-1.247100067E1,5.899500251E-1,1.260811101E1
2.536976075E0,-2.140950203E0,-1.174305058E1,1.777950048E0,1.206830605E1
2.538939400E0,-2.256000042E0,-1.093800068E1,2.965950251E0,1.155535616E1
2.540902534E0,-1.681950092E0,-9.940950394E0,4.345950127E0,1.097901331E1
2.542865782E0,-9.150000215E-1,-9.213000298E0,5.917050362E0,1.098763325E1
2.544828996E0,-3.780000210E-1,-8.562000275E0,7.374000549E0,1.130604338E1
2.546792823E0,1.570500135E-1,-8.140049934E0,8.715000153E0,1.192628632E1
2.548756433E0,5.790000558E-1,-7.987050533E0,1.009500027E1,1.288554414E1
2.550719645E0,8.089500666E-1,-7.948050499E0,1.082295036E1,1.345221772E1
2.552682974E0,1.077000022E0,-8.101950645E0,1.113000011E1,1.380863628E1
2.554646008E0,1.575000048E0,-8.407950401E0,1.135995007E1,1.422050353E1
2.556609128E0,2.572050095E0,-8.868000031E0,1.120695019E1,1.452076440E1
2.558572502E0,3.415050268E0,-9.213000298E0,1.105305099E1,1.478891068E1
2.560535808E0,4.297049999E0,-9.634950638E0,1.109205055E1,1.530785739E1
2.562498892E0,4.948050022E0,-1.005600071E1,1.151295090E1,1.606718356E1
2.564462041E0,5.446050167E0,-1.047795010E1,1.235595036E1,1.709141334E1
2.566425106E0,5.791050434E0,-1.082295036E1,1.331505108E1,1.810975165E1
2.568388195E0,5.944950104E0,-1.105305099E1,1.427295113E1,1.900603856E1
2.570351080E0,5.944950104E0,-1.124400043E1,1.526895046E1,1.987236337E1
2.572314032E0,6.021000385E0,-1.162800026E1,1.649595070E1,2.106132059E1
2.574277309E0,5.905950069E0,-1.201095104E1,1.772205162E1,2.220842869E1
2.576240491E0,6.060000420E0,-1.243305016E1,1.875705147E1,2.330517799E1
2.578203551E0,5.638050079E0,-1.293105030E1,1.940895081E1,2.399389593E1
2.580166647E0,4.717950344E0,-1.331400108E1,1.944705009E1,2.403558690E1
2.582130059E0,3.874950171E0,-1.404195023E1,1.883400154E1,2.380989750E1
2.584093362E0,3.874950171E0,-1.569000053E1,1.783695030E1,2.406965209E1
2.586056626E0,4.258049965E0,-1.703205109E1,1.726200104E1,2.462109733E1
2.588019902E0,4.488000393E0,-1.814295006E1,1.684095001E1,2.515802817E1
2.589982900E0,4.717950344E0,-1.994505119E1,1.599705029E1,2.599941808E1
2.591945979E0,5.370000362E0,-2.247405052E1,1.473300076E1,2.740403551E1
2.593909253E0,6.060000420E0,-2.531100082E1,1.369800091E1,2.941097749E1
2.595872457E0,6.826050282E0,-2.814705086E1,1.235595036E1,3.148842555E1
2.597835918E0,7.669050217E0,-3.033195114E1,1.005705070E1,3.286313832E1
2.599799304E0,8.628000259E0,-3.220995331E1,7.642050266E0,3.421000457E1
2.601762509E0,9.394050598E0,-3.370395279E1,5.188950062E0,3.537131356E1
2.603725767E0,1.027605057E1,-3.462405014E1,2.353049994E0,3.619335447E1
2.605689888E0,1.131105042E1,-3.489300156E1,-7.120500207E-1,3.668744246E1
2.607653760E0,1.184700012E1,-3.412605286E1,-3.433950186E0,3.628678698E1
2.609617062E0,1.276695061E1,-3.347400284E1,-6.193050385E0,3.635736194E1
2.611580531E0,1.357200050E1,-3.263100052E1,-8.683950424E0,3.639220229E1
2.613543541E0,1.395495033E1,-3.151995087E1,-1.098405075E1,3.617868588E1
2.615506685E0,1.384005070E1,-3.025500107E1,-1.259400082E1,3.557416126E1
2.617469355E0,1.338000107E1,-2.899005127E1,-1.324500084E1,3.456700086E1
2.619432157E0,1.269000053E1,-2.761005211E1,-1.324500084E1,3.314786778E1
2.621395145E0,1.169400024E1,-2.638395119E1,-1.359000111E1,3.189906977E1
2.623358078E0,1.023705006E1,-2.542605209E1,-1.412700081E1,3.083591203E1
2.625321135E0,8.973000526E0,-2.469705200E1,-1.447200108E1,2.999829880E1
2.627284155E0,7.975950241E0,-2.404605103E1,-1.435695076E1,2.911958769E1
2.629247481E0,7.210050106E0,-2.327895164E1,-1.362900066E1,2.792210721E1
2.631210707E0,5.676000118E0,-2.235900116E1,-1.293900108E1,2.644919014E1
2.633173895E0,3.453000069E0,-2.147805023E1,-1.213395023E1,2.490908669E1
2.635137094E0,1.422000051E0,-2.055795097E1,-1.121400070E1,2.346071704E1
2.637099248E0,-3.780000210E-1,-2.005995178E1,-1.052400017E1,2.265610578E1
2.639061709E0,-1.834950089E0,-1.971495056E1,-1.037100029E1,2.235182240E1
2.641025100E0,-3.138000250E0,-1.944705009E1,-1.017900085E1,2.217311122E1
2.642988198E0,-4.134000301E0,-1.929300117E1,-9.718950272E0,2.199472317E1
2.644951272E0,-5.553000450E0,-1.891005135E1,-9.144000053E0,2.172644915E1
2.646914354E0,-6.741000175E0,-1.845000076E1,-8.683950424E0,2.147683884E1
2.648877250E0,-7.852050304E0,-1.814295006E1,-7.956000328E0,2.131007443E1
2.650840200E0,-8.964000702E0,-1.776000023E1,-7.687950134E0,2.132781034E1
2.652803357E0,-9.807000160E0,-1.756905174E1,-7.342950344E0,2.141886437E1
2.654766443E0,-1.030500031E1,-1.737705040E1,-7.726050377E0,2.162976575E1
2.656729834E0,-1.095705032E1,-1.783695030E1,-8.071050644E0,2.243558794E1
2.658693135E0,-1.137795067E1,-1.791300011E1,-8.646000862E0,2.291476959E1
2.660656355E0,-1.126305008E1,-1.772205162E1,-9.565950394E0,2.307454913E1
2.662619599E0,-1.103295040E1,-1.737705040E1,-1.090695095E1,2.329483750E1
2.664583038E0,-1.049700069E1,-1.695495033E1,-1.209600067E1,2.332317724E1
2.666546429E0,-9.538950920E0,-1.660995102E1,-1.324500084E1,2.328759551E1
2.668509453E0,-8.044050217E0,-1.657200050E1,-1.443405056E1,2.340255884E1
2.670472585E0,-5.782950401E0,-1.657200050E1,-1.523895073E1,2.324433986E1
2.672435831E0,-3.214950085E0,-1.684005165E1,-1.608195114E1,2.350643308E1
2.674399044E0,-6.079500318E-1,-1.729995155E1,-1.677195168E1,2.410303487E1
2.676362838E0,1.651950121E0,-1.756905174E1,-1.723200035E1,2.466459719E1
2.678326448E0,3.721950293E0,-1.779900169E1,-1.765305138E1,2.534339358E1
2.680289390E0,5.638050079E0,-1.798995018E1,-1.803600121E1,2.609067373E1
2.682252527E0,7.324050426E0,-1.810500145E1,-1.815105057E1,2.666258481E1
2.684215594E0,8.857950211E0,-1.810500145E1,-1.803600121E1,2.704721241E1
2.686178681E0,1.004595089E1,-1.776000023E1,-1.750005150E1,2.688104425E1
2.688141980E0,1.108095074E1,-1.737705040E1,-1.665705109E1,2.649918302E1
2.690105217E0,1.188495064E1,-1.668704987E1,-1.573695087E1,2.583333714E1
2.692068448E0,1.257495022E1,-1.595895100E1,-1.474005032E1,2.510152532E1
2.694031681E0,1.326495075E1,-1.534605026E1,-1.355205059E1,2.439504565E1
2.695994866E0,1.384005070E1,-1.480905056E1,-1.232595062E1,2.372306980E1
2.697958065E0,1.453005028E1,-1.427205086E1,-1.129095078E1,2.328732200E1
2.699921494E0,1.514295101E1,-1.392705059E1,-1.002600002E1,2.288651087E1
2.701884846E0,1.571805096E1,-1.327605057E1,-8.991000175E0,2.245325653E1
2.703848102E0,1.644600105E1,-1.277805042E1,-7.650000572E0,2.218720424E1
2.705811387E0,1.702095032E1,-1.224105072E1,-6.538050175E0,2.196137911E1
2.707774742E0,1.759605026E1,-1.155105019E1,-5.272950172E0,2.169911862E1
2.709738077E0,1.809495163E1,-1.116795063E1,-3.855000257E0,2.161044707E1
2.711701176E0,1.863105011E1,-1.059300041E1,-2.514000177E0,2.157887585E1
2.713664330E0,1.920600128E1,-1.009500027E1,-1.249050021E0,2.173337621E1
2.715626808E0,1.966605186E1,-9.634950638E0,2.830500007E-1,2.190127821E1
2.717589484E0,2.012595177E1,-9.136050224E0,1.585950017E0,2.215934534E1
2.719552629E0,2.047095108E1,-8.638050079E0,3.043050051E0,2.242623243E1
2.721515636E0,2.085405159E1,-8.217000008E0,4.690950394E0,2.290012167E1
2.723478410E0,2.123700142E1,-7.909950256E0,6.339000225E0,2.353211563E1
2.725441253E0,2.139105034E1,-7.258050442E0,7.144050121E0,2.369163952E1
2.727404504E0,2.142900085E1,-6.721950531E0,8.064000130E0,2.386241385E1
2.729367636E0,2.123700142E1,-6.109050274E0,8.217000008E0,2.357646737E1
2.731330929E0,2.089200020E1,-5.572050095E0,7.872000217E0,2.301068886E1
2.733294174E0,2.043300056E1,-4.996950150E0,7.603950500E0,2.236732184E1
2.735257002E0,1.978095055E1,-4.422000408E0,7.258950233E0,2.152980378E1
2.737219949E0,1.932105064E1,-3.732000113E0,6.721950531E0,2.079460126E1
2.739183228E0,1.889895058E1,-3.234000206E0,5.994000435E0,2.008873145E1
2.741146409E0,1.847805023E1,-2.659050226E0,4.498950005E0,1.920284978E1
2.743109514E0,1.782600021E1,-2.199000120E0,2.736000061E0,1.816831257E1
2.745072642E0,1.736595154E1,-1.777950048E0,1.395000100E0,1.751237861E1
2.747036760E0,1.682999992E1,-1.318050027E0,-1.369500011E-1,1.688208840E1
2.749000578E0,1.636995125E1,-8.959500194E-1,-1.786050081E0,1.649145249E1
2.750962673E0,1.591005039E1,-3.210000098E-1,-3.510000229E0,1.629579228E1
2.752925272E0,1.552695084E1,9.900000691E-2,-5.235000134E0,1.638600713E1
2.754888430E0,1.525800037E1,5.590500236E-1,-6.805950165E0,1.671646105E1
2.756851424E0,1.525800037E1,1.057950020E0,-8.416049957E0,1.745725438E1
2.758814684E0,1.502805042E1,1.479000092E0,-9.144000053E0,1.765339848E1
2.760777842E0,1.464495087E1,1.786050081E0,-1.006395054E1,1.785910583E1
2.762741130E0,1.437705040E1,2.092950106E0,-1.060095024E1,1.798499831E1
2.764704380E0,1.399305058E1,2.361000061E0,-1.040895081E1,1.759903527E1
2.766667788E0,1.353405094E1,2.476050138E0,-1.014105034E1,1.709216959E1
2.768631149E0,1.288200092E1,2.667000055E0,-9.451050758E0,1.619818501E1
2.770594542E0,1.200000095E1,2.667000055E0,-8.608050346E0,1.500704644E1
2.772557923E0,1.115700054E1,2.629050016E0,-7.573050499E0,1.373832810E1
2.774521084E0,1.008405018E1,2.706000090E0,-6.423000336E0,1.225828038E1
2.776484309E0,8.973000526E0,2.551950216E0,-5.005050182E0,1.058667633E1
2.778447406E0,7.746000290E0,2.131050110E0,-3.280050039E0,8.677593176E0
2.780410540E0,6.520050526E0,1.518000126E0,-1.516950130E0,6.864147503E0
2.782372680E0,5.523000240E0,9.810000658E-1,-9.900000691E-2,5.610320293E0
2.784335097E0,4.372950077E0,3.289500177E-1,1.126049995E0,4.527569887E0
2.786299007E0,3.492000103E0,-1.500000060E-2,2.046000004E0,4.047271394E0
2.788262480E0,2.878050089E0,-1.680000126E-1,2.736000061E0,3.974555655E0
2.790224273E0,2.188950062E0,-3.210000098E-1,3.426000118E0,4.078237388E0
2.792186559E0,1.384050012E0,2.530499995E-1,3.694050074E0,3.952927356E0
2.794148985E0,1.192050099E0,3.289500177E-1,3.847950220E0,4.041770955E0
2.796111384E0,4.639500082E-1,2.530499995E-1,3.963000298E0,3.998081449E0
2.798075163E0,1.960500032E-1,-9.105000645E-2,3.655950069E0,3.662334859E0
2.800038538E0,-2.629500031E-1,-2.830500007E-1,3.196050167E0,3.219316182E0
2.802001565E0,-6.850500107E-1,-5.130000114E-1,2.545050144E0,2.685096416E0
2.803964694E0,-1.068000078E0,-1.011000037E0,1.701000094E0,2.248587682E0
2.805928472E0,-1.605000019E0,-1.318050027E0,8.959500194E-1,2.261859273E0
2.807892067E0,-2.026050091E0,-1.777950048E0,-3.289500177E-1,2.715546623E0
2.809855056E0,-2.563050032E0,-2.314050198E0,-1.555950046E0,3.787483904E0
2.811818222E0,-2.946000099E0,-2.851050138E0,-2.667000055E0,4.890837635E0
2.813781104E0,-3.406050205E0,-3.271950245E0,-3.931950092E0,6.145491676E0
2.815744069E0,-3.828000069E0,-3.655950069E0,-5.082000256E0,7.338002592E0
2.817706945E0,-3.981000185E0,-4.192049980E0,-5.925000191E0,8.278120123E0
2.819669843E0,-4.057950020E0,-4.767000198E0,-6.423000336E0,8.969179593E0
2.821632814E0,-4.057950020E0,-5.457000256E0,-6.768000126E0,9.594354374E0
2.823595764E0,-4.018949986E0,-6.184950352E0,-6.691050529E0,9.958701071E0
2.825558998E0,-4.057950020E0,-6.721950531E0,-6.154950142E0,9.976722335E0
2.827522148E0,-4.096050262E0,-7.219950199E0,-5.272950172E0,9.834089289E0
2.829485034E0,-3.943050146E0,-7.833000183E0,-4.047000408E0,9.658247700E0
2.831447997E0,-3.520950079E0,-8.446949959E0,-2.475000143E0,9.480172929E0
2.833410012E0,-2.869950056E0,-9.136050224E0,-8.269500136E-1,9.611861076E0
2.835372304E0,-2.332950115E0,-9.826050758E0,1.011000037E0,1.014968230E1
2.837335695E0,-1.605000019E0,-1.082295036E1,2.698050022E0,1.126906179E1
2.839298764E0,-8.770500422E-1,-1.197300053E1,3.847950220E0,1.260669185E1
2.841262013E0,-2.250000089E-1,-1.304595089E1,4.153950214E0,1.369316479E1
2.843225216E0,3.109500110E-1,-1.400400066E1,4.690950394E0,1.477205944E1
2.845188812E0,1.114950061E0,-1.484700108E1,6.415950298E0,1.621237098E1
2.847152293E0,2.572050095E0,-1.515405083E1,7.680000305E0,1.718263958E1
2.849114987E0,4.182000160E0,-1.653404999E1,9.252000809E0,1.940266614E1
2.851077911E0,5.407950401E0,-1.783695030E1,1.055505085E1,2.141989314E1
2.853040996E0,6.442950249E0,-1.925505066E1,1.147500038E1,2.332261172E1
2.855004014E0,7.363050461E0,-2.109495163E1,1.201095104E1,2.536679801E1
2.856966967E0,8.014050484E0,-2.335605049E1,1.170495033E1,2.732646999E1
2.858929939E0,9.010950089E0,-2.607705116E1,9.098999977E0,2.905170596E1
2.860893529E0,1.004595089E1,-2.906700134E1,4.576050282E0,3.109263470E1
2.862856937E0,1.092705059E1,-3.236295319E1,1.500000060E-2,3.415788926E1
2.864820143E0,1.184700012E1,-3.608100128E1,-3.433950186E0,3.813111694E1
2.866783405E0,1.253700066E1,-3.983700180E1,-5.887050152E0,4.217606498E1
2.868746450E0,1.334205055E1,-4.366995239E1,-8.838000298E0,4.651005595E1
2.870709559E0,1.453005028E1,-4.788600159E1,-1.213395023E1,5.149198246E1
2.872672630E0,1.487505054E1,-5.210205078E1,-1.566000080E1,5.640147560E1
2.874635713E0,1.407000065E1,-5.616405106E1,-1.784505081E1,6.058722132E1
2.876598654E0,1.357200050E1,-5.949900436E1,-1.849605179E1,6.376860238E1
2.878561636E0,1.280505085E1,-6.229695129E1,-1.933995056E1,6.647490621E1
2.880524324E0,1.165605068E1,-6.471105194E1,-1.864995003E1,6.834620982E1
2.882487098E0,1.104195023E1,-6.678105164E1,-1.918605042E1,7.035437480E1
2.884450270E0,1.031400013E1,-6.812295532E1,-2.125605011E1,7.210364281E1
2.886413326E0,9.049050331E0,-6.900405121E1,-2.347905159E1,7.344869133E1
2.888376209E0,7.746000290E0,-6.950205231E1,-2.627700043E1,7.470620153E1
2.890339156E0,6.750000477E0,-7.019205475E1,-2.781000137E1,7.580160442E1
2.892302030E0,5.715000153E0,-7.061400604E1,-2.800200081E1,7.617815386E1
2.894264925E0,5.370000362E0,-7.080599976E1,-2.746500206E1,7.613575273E1
2.896227897E0,5.101050377E0,-7.061400604E1,-2.439900208E1,7.488437665E1
2.898190846E0,4.909950256E0,-6.980895233E1,-2.018295097E1,7.283370749E1
2.900154075E0,3.645000219E0,-6.934905243E1,-1.531500053E1,7.111347510E1
2.902117226E0,2.265000105E0,-6.773895264E1,-9.796050072E0,6.848108152E1
2.904079030E0,8.850000501E-1,-6.559305573E1,-4.237950325E0,6.573577723E1
2.906041228E0,2.719500065E-1,-6.475005341E1,1.300500035E-1,6.475075510E1
2.908003419E0,-1.681950092E0,-6.344700241E1,3.196050167E0,6.354971131E1
2.909965612E0,-4.594050407E0,-6.076395416E1,5.227050304E0,6.116114354E1
2.911928794E0,-8.005949974E0,-5.704605103E1,6.031950474E0,5.792004488E1
2.913891687E0,-1.003695011E1,-5.298300171E1,6.147000313E0,5.427452856E1
2.915854482E0,-1.034400082E1,-4.731105042E1,5.994000435E0,4.879817502E1
2.917817305E0,-1.026705074E1,-4.309500122E1,6.415950298E0,4.476333186E1
2.919780020E0,-8.925000191E0,-3.964500046E1,6.721950531E0,4.118939558E1
2.921742766E0,-7.086000443E0,-3.654104996E1,6.646050453E0,3.781044460E1
2.923705739E0,-6.472050190E0,-3.393405151E1,6.607050419E0,3.517186946E1
2.925668663E0,-7.354050159E0,-3.060000229E1,6.301050186E0,3.209587866E1
2.927631766E0,-7.852050304E0,-2.806995201E1,5.956050396E0,2.974981405E1
2.929594817E0,-7.737000465E0,-2.554095078E1,5.917050362E0,2.733519394E1
2.931557854E0,-6.586950302E0,-2.324100113E1,6.186000347E0,2.493589076E1
2.933520896E0,-5.974050522E0,-2.132505035E1,6.876000404E0,2.318892912E1
2.935483863E0,-5.859000206E0,-1.925505066E1,7.527000427E0,2.148815010E1
2.937446838E0,-5.476050377E0,-1.749195099E1,8.599950790E0,2.024634858E1
2.939409886E0,-4.824000359E0,-1.591995049E1,9.289950371E0,1.905305699E1
2.941372913E0,-3.828000069E0,-1.469400024E1,1.009500027E1,1.823393150E1
2.943336224E0,-2.755050182E0,-1.396605110E1,1.051695061E1,1.769878908E1
2.945299451E0,-2.103000164E0,-1.323795033E1,1.074705029E1,1.718036753E1
2.947262444E0,-1.758000135E0,-1.239405060E1,1.074705029E1,1.649854977E1
2.949225516E0,-1.375050068E0,-1.197300053E1,1.090005016E1,1.624975686E1
2.951188098E0,-8.770500422E-1,-1.170405102E1,1.105305099E1,1.612215753E1
2.953150824E0,-3.019500077E-1,-1.124400043E1,1.113000011E1,1.582389403E1
2.955113915E0,-1.099500060E-1,-1.070805073E1,1.109205055E1,1.541778275E1
2.957076899E0,-1.870500147E-1,-9.979950905E0,1.113000011E1,1.495029466E1
2.959039968E0,4.050000105E-3,-9.366000175E0,1.147500038E1,1.481207647E1
2.961003029E0,2.340000123E-1,-8.752950668E0,1.185795021E1,1.474041670E1
2.962965929E0,1.960500032E-1,-7.987050533E0,1.162800026E1,1.410821753E1
2.964928877E0,-3.299999982E-2,-7.372950554E0,1.139805031E1,1.357486794E1
2.966891840E0,-3.019500077E-1,-6.607050419E0,1.124505043E1,1.304589775E1
2.968854798E0,-6.850500107E-1,-5.572050095E0,1.109205055E1,1.243183901E1
2.970818056E0,-1.528050065E0,-4.192049980E0,1.036305046E1,1.128277603E1
2.972781240E0,-2.371050119E0,-2.697000027E0,9.712050438E0,1.035469032E1
2.974743894E0,-3.061050177E0,-1.585950017E0,9.060000420E0,9.693754342E0
2.976706703E0,-4.018949986E0,-2.059500068E-1,8.599950790E0,9.494921168E0
2.978668790E0,-4.747950077E0,1.134000063E0,8.140049934E0,9.491543553E0
2.980631088E0,-5.284050465E0,2.782050133E0,7.564950466E0,9.637918230E0
2.982594351E0,-4.824000359E0,3.741000175E0,7.795050144E0,9.900952910E0
2.984557293E0,-4.633050442E0,4.545000076E0,7.564950466E0,9.967480005E0
2.986520573E0,-4.671000004E0,5.350050449E0,7.719000340E0,1.048924435E1
2.988483754E0,-4.708950043E0,6.309000492E0,7.948950291E0,1.118764982E1
2.990446634E0,-4.671000004E0,7.342950344E0,8.025000572E0,1.183798103E1
2.992409602E0,-4.671000004E0,8.263050079E0,8.485050201E0,1.273154800E1
2.994372523E0,-4.708950043E0,9.183000565E0,8.332050323E0,1.326366361E1
2.996335454E0,-4.671000004E0,1.006500053E1,8.524050713E0,1.399220917E1
2.998298690E0,-3.828000069E0,9.030000687E0,8.599950790E0,1.304429571E1
3.000261836E0,-4.210950375E0,9.412950516E0,8.562000275E0,1.340311864E1
3.002224902E0,-4.939050198E0,1.002600002E1,8.983950615E0,1.433967440E1
3.004187992E0,-5.935950279E0,1.075500011E1,9.175050735E0,1.533254999E1
3.006151092E0,-6.970950127E0,1.140600014E1,9.520050049E0,1.641104316E1
3.008114202E0,-8.005949974E0,1.175100040E1,1.028700066E1,1.755003214E1
3.010077589E0,-9.270000458E0,1.228800011E1,1.135995007E1,1.913050759E1
3.012040894E0,-1.065000057E1,1.278600025E1,1.182000065E1,2.041119129E1
3.014004292E0,-1.168500042E1,1.297800064E1,1.277805042E1,2.163899970E1
3.015967663E0,-1.291095066E1,1.328400040E1,1.320000076E1,2.274636968E1
3.017931040E0,-1.383105087E1,1.324605083E1,1.400400066E1,2.372483647E1
3.019894423E0,-1.482795048E1,1.316895103E1,1.454100037E1,2.459126020E1
3.021857628E0,-1.574805069E1,1.320795059E1,1.446405029E1,2.513284326E1
3.023820886E0,-1.659105110E1,1.305405045E1,1.450305080E1,2.561268616E1
3.025783932E0,-1.716600037E1,1.286295033E1,1.465605068E1,2.597935490E1
3.027747040E0,-1.781700134E1,1.259400082E1,1.450305080E1,2.619910067E1
3.029709986E0,-1.808595085E1,1.217295074E1,1.431105042E1,2.607850671E1
3.031672973E0,-1.804695129E1,1.163595009E1,1.431105042E1,2.580492103E1
3.033636019E0,-1.785600090E1,1.102305031E1,1.400400066E1,2.522808833E1
3.035599048E0,-1.774095154E1,1.060095024E1,1.377405071E1,2.483638421E1
3.037561954E0,-1.751100159E1,1.025595093E1,1.358295059E1,2.441958748E1
3.039524896E0,-1.724295044E1,9.873000145E0,1.346805096E1,2.400383028E1
3.041487971E0,-1.651395035E1,9.298050880E0,1.346805096E1,2.324978931E1
3.043451024E0,-1.582395077E1,8.877000809E0,1.323795033E1,2.245978384E1
3.045414105E0,-1.509600067E1,8.263050079E0,1.339095020E1,2.180561350E1
3.047377178E0,-1.429095078E1,7.650000572E0,1.366005039E1,2.119789517E1
3.049339941E0,-1.352505112E1,7.152000427E0,1.396605110E1,2.071542182E1
3.051302795E0,-1.283505058E1,6.654000282E0,1.450305080E1,2.047810357E1
3.053266020E0,-1.214505100E1,6.309000492E0,1.496295071E1,2.027795958E1
3.055229154E0,-1.145505047E1,5.887050152E0,1.561395073E1,2.024033098E1
3.057192582E0,-1.111005020E1,5.580000401E0,1.611194992E1,2.035103315E1
3.059155923E0,-1.065000057E1,5.311950207E0,1.645695114E1,2.030937143E1
3.061118415E0,-1.034400082E1,5.005050182E0,1.661100006E1,2.019837130E1
3.063081156E0,-1.034400082E1,4.852050304E0,1.668704987E1,2.022370832E1
3.065043974E0,-1.022895050E1,4.813950062E0,1.622700119E1,1.977678212E1
3.067006769E0,-1.030500031E1,4.699050426E0,1.530795097E1,1.904225484E1
3.068969894E0,-1.015200043E1,4.699050426E0,1.446405029E1,1.828532030E1
3.070932923E0,-1.011405087E1,4.699050426E0,1.327605057E1,1.733864523E1
3.072896189E0,-1.003695011E1,4.276950359E0,1.182000065E1,1.608555524E1
3.074859385E0,-9.730050087E0,4.201050282E0,1.021005058E1,1.471624378E1
3.076822586E0,-9.577050209E0,4.123950005E0,8.562000275E0,1.349202368E1
3.078785780E0,-9.615000725E0,4.201050282E0,6.876000404E0,1.254497684E1
3.080748882E0,-9.691950798E0,5.158950329E0,5.151000023E0,1.212771537E1
3.082712011E0,-9.615000725E0,4.545000076E0,3.618000269E0,1.123366328E1
3.084675393E0,-9.154950142E0,3.549000263E0,2.161050081E0,1.005378796E1
3.086638701E0,-9.040050507E0,3.012000084E0,1.011000037E0,9.582107218E0
3.088602460E0,-8.809950829E0,2.859000206E0,-2.910000086E-1,9.266811576E0
3.090566086E0,-8.734050751E0,3.166050196E0,-1.671000123E0,9.439266803E0
3.092529115E0,-8.772000313E0,3.396000147E0,-2.896950245E0,9.842414704E0
3.094492319E0,-8.389050484E0,3.204000235E0,-3.931950092E0,9.803163625E0
3.096455509E0,-8.158950806E0,3.051000118E0,-4.736999989E0,9.915455051E0
3.098418704E0,-7.776000500E0,2.896950245E0,-5.464950085E0,9.936004424E0
3.100381747E0,-7.584000587E0,2.706000090E0,-6.078000069E0,1.008868605E1
3.102344844E0,-7.086000443E0,2.514000177E0,-6.538050175E0,9.963819511E0
3.104307738E0,-6.586950302E0,2.169000149E0,-7.036050320E0,9.879194301E0
3.106270691E0,-6.204000473E0,1.978050113E0,-7.650000572E0,1.004613423E1
3.108233428E0,-5.898000240E0,1.824000120E0,-7.840950489E0,9.979673734E0
3.110196229E0,-5.590950489E0,1.555950046E0,-7.918050289E0,9.817088586E0
3.112159074E0,-5.245950222E0,1.402950048E0,-8.224950790E0,9.855865161E0
3.114121879E0,-5.016000271E0,1.249050021E0,-8.377950668E0,9.844310137E0
3.116084958E0,-4.747950077E0,1.210950017E0,-8.071050644E0,9.441995995E0
3.118047956E0,-4.363950253E0,9.810000658E-1,-7.611000538E0,8.828009522E0
3.120010912E0,-4.057950020E0,6.739500165E-1,-7.420050144E0,8.484003249E0
3.121973881E0,-3.790050268E0,5.209500194E-1,-7.189950466E0,8.144400387E0
3.123937678E0,-3.483000278E0,1.380000114E-1,-6.730050087E0,7.579176018E0
3.125901245E0,-3.022950172E0,-2.059500068E-1,-6.423000336E0,7.101800931E0
3.127864419E0,-2.716050148E0,-4.360500276E-1,-6.193050385E0,6.776499177E0
3.129827709E0,-2.485950232E0,-8.959500194E-1,-6.040050507E0,6.592790389E0
3.131790569E0,-2.179949999E0,-1.356000066E0,-6.040050507E0,6.563012136E0
3.133753555E0,-1.987950087E0,-1.816050053E0,-5.848050117E0,6.438142086E0
3.135716591E0,-1.758000135E0,-2.314050198E0,-6.193050385E0,6.840998893E0
3.137679620E0,-1.720050097E0,-2.851050138E0,-6.615000248E0,7.405760427E0
3.139642345E0,-1.834950089E0,-3.271950245E0,-7.228050232E0,8.143550233E0
3.141605160E0,-1.642950058E0,-4.000950336E0,-8.148000717E0,9.224792907E0
3.143568146E0,-1.068000078E0,-4.804950237E0,-9.528000832E0,1.072431680E1
3.145531081E0,-5.320500135E-1,-5.686950207E0,-1.132905006E1,1.268746843E1
3.147494923E0,1.960500032E-1,-6.529950142E0,-1.312995052E1,1.466541118E1
3.149458485E0,7.320000529E-1,-7.488000393E0,-1.462500095E1,1.644678166E1
3.151421480E0,1.306950092E0,-8.446949959E0,-1.566000080E1,1.784081577E1
3.153384641E0,1.843950033E0,-9.520050049E0,-1.608195114E1,1.877926136E1
3.155347658E0,2.686950207E0,-1.055505085E1,-1.543005085E1,1.888690735E1
3.157310718E0,3.300000191E0,-1.151295090E1,-1.401195049E1,1.843292696E1
3.159273668E0,3.952050209E0,-1.254795074E1,-1.205700016E1,1.784491585E1
3.161236646E0,4.182000160E0,-1.342905045E1,-9.757950783E0,1.711859003E1
3.163199334E0,4.488000393E0,-1.427205086E1,-6.844950199E0,1.645256595E1
3.165162107E0,4.564949989E0,-1.484700108E1,-3.702000141E0,1.596799970E1
3.167124515E0,4.143000126E0,-1.530705070E1,-5.590500236E-1,1.586766486E1
3.169087030E0,3.913050175E0,-1.557600117E1,3.118950129E0,1.636006186E1
3.171049833E0,3.682950258E0,-1.546095085E1,6.607050419E0,1.721215382E1
3.173012558E0,3.453000069E0,-1.523100090E1,1.009500027E1,1.859611864E1
3.174975560E0,2.917050123E0,-1.496205044E1,1.335300064E1,2.026511191E1
3.176938481E0,2.304000139E0,-1.446405029E1,1.603605080E1,2.171801309E1
3.178901585E0,1.959000111E0,-1.373595047E1,1.776105118E1,2.253816664E1
3.180864635E0,1.422000051E0,-1.273905087E1,1.898700142E1,2.290876959E1
3.182826776E0,8.850000501E-1,-1.139805031E1,1.921695137E1,2.236045608E1
3.184789180E0,-1.480500102E-1,-1.021005058E1,1.887195015E1,2.145734266E1
3.186752191E0,-1.222050071E0,-9.595950127E0,1.787595177E1,2.032548442E1
3.188715024E0,-2.371050119E0,-9.097949982E0,1.630395126E1,1.882055789E1
3.190678188E0,-3.675000191E0,-7.909950256E0,1.454100037E1,1.695622691E1
3.192641255E0,-4.978050232E0,-6.874950409E0,1.293105030E1,1.546796655E1
3.194604334E0,-5.935950279E0,-6.529950142E0,1.170495033E1,1.465884091E1
3.196567409E0,-6.741000175E0,-6.874950409E0,1.028700066E1,1.409001096E1
3.198530307E0,-7.086000443E0,-7.680000305E0,9.214050293E0,1.393170951E1
3.200493257E0,-7.086000443E0,-8.944950104E0,8.869050026E0,1.445280537E1
3.202456175E0,-6.396000385E0,-1.078500080E1,1.017195034E1,1.614600994E1
3.204419103E0,-5.361000061E0,-1.316100025E1,1.273995018E1,1.908555946E1
3.206382376E0,-4.708950043E0,-1.572900105E1,1.856505013E1,2.478380057E1
3.208345554E0,-3.981000185E0,-1.944705009E1,2.143995094E1,2.921827538E1
3.210308434E0,-3.367950201E0,-2.385405159E1,9.979950905E0,2.607600978E1
3.212271402E0,-4.210950375E0,-2.692005157E1,8.332050323E0,2.849288231E1
3.214234137E0,-5.323050022E0,-2.956500053E1,6.991050243E0,3.084313378E1
3.216196941E0,-6.549000263E0,-3.293805313E1,4.959000111E0,3.394696497E1
3.218160905E0,-8.311950684E0,-3.615705109E1,2.046000004E0,3.715652007E1
3.220124539E0,-1.111005020E1,-3.795900345E1,-3.549000263E0,3.971038354E1
3.222086981E0,-1.479000092E1,-3.883995056E1,-8.722949982E0,4.246617175E1
3.224049772E0,-1.774095154E1,-3.692400360E1,-1.010295010E1,4.219233347E1
3.226012942E0,-1.716600037E1,-3.719205093E1,-8.148000717E0,4.176493909E1
3.227976001E0,-1.728105164E1,-3.642600250E1,-4.774950027E0,4.059912009E1
3.229937995E0,-1.701300049E1,-3.542895126E1,-7.890000343E-1,3.930998975E1
3.231900305E0,-1.528800106E1,-3.500805283E1,2.506050110E0,3.828272491E1
3.233863513E0,-1.237500095E1,-3.512295151E1,4.690950394E0,3.753355015E1
3.235826457E0,-1.038195038E1,-3.385800171E1,4.039050102E0,3.564355621E1
3.237790458E0,-8.427000046E0,-3.236295319E1,1.701000094E0,3.348534709E1
3.239754149E0,-6.664050102E0,-3.144300079E1,-1.824000120E0,3.219314895E1
3.241717321E0,-5.016000271E0,-3.075300217E1,-6.615000248E0,3.185381656E1
3.243680632E0,-3.214950085E0,-3.010200119E1,-1.152105045E1,3.239137205E1
3.245643669E0,-2.140950203E0,-2.875995064E1,-1.450995064E1,3.228400681E1
3.247606786E0,-1.720050097E0,-2.680500221E1,-1.374405098E1,3.017226629E1
3.249569811E0,-1.489950061E0,-2.442900085E1,-1.159695053E1,2.708293366E1
3.251532863E0,-9.919500351E-1,-2.216805077E1,-8.340000153E0,2.370573859E1
3.253495760E0,-5.320500135E-1,-2.032800102E1,-5.542050362E0,2.107664644E1
3.255458705E0,-1.870500147E-1,-1.825800133E1,-2.629050016E0,1.844726278E1
3.257420948E0,-7.200000435E-2,-1.638000107E1,1.300500035E-1,1.638067557E1
3.259383397E0,3.870000243E-1,-1.519200039E1,2.122950077E0,1.534449614E1
3.261347437E0,1.000050068E0,-1.415700054E1,3.963000298E0,1.473520057E1
3.263311011E0,1.614000082E0,-1.342905045E1,6.301050186E0,1.492138149E1
3.265273803E0,2.494950056E0,-1.285395050E1,8.715000153E0,1.572895568E1
3.267236839E0,3.453000069E0,-1.239405060E1,1.082295036E1,1.681285087E1
3.269200282E0,4.411950111E0,-1.204905033E1,1.266300106E1,1.802765968E1
3.271163606E0,5.407950401E0,-1.185795021E1,1.388895035E1,1.904625560E1
3.273126461E0,6.289950371E0,-1.174305058E1,1.488600063E1,1.997637923E1
3.275089454E0,7.018050194E0,-1.170405102E1,1.534605026E1,2.053628733E1
3.277052559E0,7.630950451E0,-1.158900070E1,1.595895100E1,2.114768212E1
3.279015621E0,8.282999992E0,-1.151295090E1,1.641900063E1,2.169653679E1
3.280978926E0,9.126000404E0,-1.166595078E1,1.664895058E1,2.228375745E1
3.282942159E0,9.816000938E0,-1.185795021E1,1.699394989E1,2.292943938E1
3.284905030E0,1.050600052E1,-1.201095104E1,1.756905174E1,2.373416464E1
3.286868008E0,1.142595100E1,-1.224105072E1,1.825905037E1,2.477475730E1
3.288831134E0,1.234500027E1,-1.247100067E1,1.887195015E1,2.576966030E1
3.290794193E0,1.288200092E1,-1.270095062E1,1.936995125E1,2.650386964E1
3.292757228E0,1.303500080E1,-1.273905087E1,2.013705063E1,2.716054990E1
3.294720271E0,1.276695061E1,-1.277805042E1,2.086500168E1,2.759749799E1
3.296683219E0,1.222995090E1,-1.289295101E1,2.140200043E1,2.781807878E1
