"Time (s)","Acceleration x (m/s^2)","Acceleration y (m/s^2)","Acceleration z (m/s^2)","Absolute acceleration (m/s^2)"
3.189534400E-2,-3.299999982E-2,8.914950371E0,-1.134000063E0,8.986845123E0
3.385795800E-2,4.200000316E-2,8.877000809E0,-1.096050024E0,8.944508540E0
3.582303600E-2,1.570500135E-1,8.838000298E0,-1.134000063E0,8.911838761E0
3.778667100E-2,8.100000024E-2,8.800050735E0,-1.096050024E0,8.868414718E0
3.975072900E-2,8.100000024E-2,8.722949982E0,-1.018950105E0,8.782634952E0
4.171476900E-2,4.200000316E-2,8.685000420E0,-1.057050109E0,8.749191461E0
4.367881100E-2,4.200000316E-2,8.685000420E0,-1.057050109E0,8.749191461E0
4.564280400E-2,-3.299999982E-2,8.761950493E0,-1.134000063E0,8.835090355E0
4.760681100E-2,-3.299999982E-2,8.877000809E0,-1.326000094E0,8.975550602E0
4.957040400E-2,4.200000316E-2,8.685000420E0,-1.171950102E0,8.763815569E0
5.153411800E-2,4.050000105E-3,8.685000420E0,-9.040500522E-1,8.731927347E0
5.349801600E-2,-7.200000435E-2,8.722949982E0,-7.890000343E-1,8.758856172E0
5.546187100E-2,8.100000024E-2,8.647050858E0,-7.510500550E-1,8.679984200E0
5.742571700E-2,1.189500093E-1,8.647050858E0,-7.120500207E-1,8.677133909E0
5.938956500E-2,1.570500135E-1,8.608050346E0,-7.510500550E-1,8.642179798E0
6.135354500E-2,1.570500135E-1,8.608050346E0,-7.890000343E-1,8.645560510E0
6.331748600E-2,1.189500093E-1,8.608050346E0,-7.890000343E-1,8.644952338E0
6.528148700E-2,1.189500093E-1,8.569950104E0,-7.120500207E-1,8.600302850E0
6.724547700E-2,1.570500135E-1,8.532000542E0,-6.739500165E-1,8.560017907E0
6.920952400E-2,1.189500093E-1,8.532000542E0,-5.970000029E-1,8.553688757E0
7.117355400E-2,1.570500135E-1,8.532000542E0,-5.590500236E-1,8.551738705E0
7.313750500E-2,1.570500135E-1,8.493000031E0,-6.360000372E-1,8.518228118E0
7.510147900E-2,1.960500032E-1,8.532000542E0,-6.360000372E-1,8.557918257E0
7.706564300E-2,1.960500032E-1,8.455050468E0,-5.590500236E-1,8.475780257E0
7.902976500E-2,2.340000123E-1,8.493000031E0,-5.209500194E-1,8.512179183E0
8.099396900E-2,1.960500032E-1,8.493000031E0,-4.440000355E-1,8.506857302E0
8.295814900E-2,2.719500065E-1,8.455050468E0,-4.440000355E-1,8.471066713E0
8.492225500E-2,3.490500152E-1,8.416950226E0,-4.060500264E-1,8.433964883E0
8.688638200E-2,3.109500110E-1,8.455050468E0,-2.910000086E-1,8.465769270E0
8.885017500E-2,3.490500152E-1,8.455050468E0,-2.910000086E-1,8.467254298E0
9.081407000E-2,4.260000288E-1,8.455050468E0,-2.520000041E-1,8.469525279E0
9.277808700E-2,4.260000288E-1,8.493000031E0,-2.520000041E-1,8.507410273E0
9.474206800E-2,5.020500422E-1,8.416950226E0,-2.520000041E-1,8.435674801E0
9.670593700E-2,5.020500422E-1,8.416950226E0,-2.910000086E-1,8.436929913E0
9.866983900E-2,5.410500169E-1,8.493000031E0,-2.910000086E-1,8.515190288E0
1.006345710E-1,5.790000558E-1,8.493000031E0,-3.289500177E-1,8.519066774E0
1.025990630E-1,5.790000558E-1,8.493000031E0,-3.289500177E-1,8.519066774E0
1.045627540E-1,6.169500351E-1,8.493000031E0,-2.520000041E-1,8.519106812E0
1.065266800E-1,6.550500393E-1,8.569950104E0,-2.910000086E-1,8.599873042E0
1.084905570E-1,7.320000529E-1,8.569950104E0,-1.759500057E-1,8.602954566E0
1.104544490E-1,8.470500112E-1,8.569950104E0,-9.900000691E-2,8.612278415E0
1.124186020E-1,8.850000501E-1,8.608050346E0,-2.205000073E-2,8.653452609E0
1.143826780E-1,8.470500112E-1,8.608050346E0,1.500000060E-2,8.649638691E0
1.163464860E-1,1.000050068E0,8.608050346E0,-2.205000073E-2,8.665974677E0
1.183103720E-1,1.000050068E0,8.608050346E0,-2.205000073E-2,8.665974677E0
1.202742120E-1,1.077000022E0,8.608050346E0,5.295000225E-2,8.675324980E0
1.222380650E-1,1.039050102E0,8.608050346E0,1.300500035E-1,8.671509032E0
1.242017100E-1,1.000050068E0,8.685000420E0,1.680000126E-1,8.744001168E0
1.261654300E-1,1.039050102E0,8.800050735E0,2.830500007E-1,8.865699937E0
1.281284420E-1,1.000050068E0,8.877000809E0,3.600000143E-1,8.940405109E0
1.300916610E-1,1.000050068E0,8.914950371E0,4.360500276E-1,8.981457559E0
1.320557940E-1,1.039050102E0,8.953050613E0,5.509500504E-1,9.029966022E0
1.340196590E-1,1.000050068E0,9.030000687E0,7.050000429E-1,9.112520925E0
1.359838270E-1,9.619500637E-1,9.106050491E0,6.280500293E-1,9.178232418E0
1.379478990E-1,8.089500666E-1,9.145050049E0,7.050000429E-1,9.207788316E0
1.399117520E-1,8.470500112E-1,9.183000565E0,7.050000429E-1,9.248892807E0
1.418756700E-1,8.089500666E-1,9.259950638E0,8.200500607E-1,9.331321885E0
1.438400430E-1,8.089500666E-1,9.220950127E0,8.200500607E-1,9.292620919E0
1.458042830E-1,8.470500112E-1,9.298050880E0,8.959500194E-1,9.379444031E0
1.477680280E-1,8.850000501E-1,9.375000000E0,1.011000037E0,9.470795699E0
1.497319110E-1,9.240000248E-1,9.451050758E0,9.730500579E-1,9.545834846E0
1.516956150E-1,9.240000248E-1,9.490050316E0,1.087950110E0,9.596794594E0
1.536593720E-1,1.039050102E0,9.565950394E0,1.050000072E0,9.679335318E0
1.556232330E-1,9.240000248E-1,9.757950783E0,1.318050027E0,9.889824842E0
1.575870630E-1,8.089500666E-1,9.873000145E0,1.395000100E0,1.000382714E1
1.595506930E-1,6.550500393E-1,9.988050461E0,1.395000100E0,1.010624895E1
1.615144100E-1,6.940500140E-1,1.018005085E1,1.395000100E0,1.029860020E1
1.634785930E-1,7.320000529E-1,1.037100029E1,1.471050024E0,1.050035520E1
1.654426390E-1,8.470500112E-1,1.044795036E1,1.471050024E0,1.058494916E1
1.674066770E-1,9.240000248E-1,1.052505016E1,1.510050058E0,1.067289596E1
1.693707180E-1,9.619500637E-1,1.060095024E1,1.548000097E0,1.075647704E1
1.713346420E-1,1.039050102E0,1.071600056E1,1.548000097E0,1.087697556E1
1.732986170E-1,1.077000022E0,1.075500011E1,1.585950017E0,1.092452260E1
1.752624410E-1,1.153950095E0,1.075500011E1,1.548000097E0,1.092693610E1
1.772263090E-1,1.269000053E0,1.071600056E1,1.356000066E0,1.087574206E1
1.791905110E-1,1.269000053E0,1.090800095E1,1.548000097E0,1.109013751E1
1.811546150E-1,1.192050099E0,1.094595051E1,1.663050056E0,1.113555349E1
1.831187780E-1,1.114950061E0,1.106100082E1,1.663050056E0,1.124075568E1
1.850829230E-1,1.039050102E0,1.110000038E1,1.663050056E0,1.127188401E1
1.870468990E-1,9.240000248E-1,1.113795090E1,1.510050058E0,1.127776473E1
1.890109250E-1,9.240000248E-1,1.110000038E1,1.510050058E0,1.124028628E1
1.909751440E-1,9.240000248E-1,1.110000038E1,1.624950051E0,1.125629811E1
1.929393070E-1,8.470500112E-1,1.113795090E1,1.740000129E0,1.130482394E1
1.949034320E-1,7.699500322E-1,1.110000038E1,1.624950051E0,1.124470072E1
1.968675880E-1,6.940500140E-1,1.106100082E1,1.585950017E0,1.119565461E1
1.988316960E-1,6.169500351E-1,1.106100082E1,1.471050024E0,1.117543533E1
2.007958190E-1,6.550500393E-1,1.102305031E1,1.471050024E0,1.114005013E1
2.027596620E-1,6.169500351E-1,1.087005043E1,1.548000097E0,1.099704178E1
2.047235880E-1,6.169500351E-1,1.087005043E1,1.548000097E0,1.099704178E1
2.066868700E-1,5.790000558E-1,1.079295063E1,1.585950017E0,1.092420532E1
2.086503470E-1,5.410500169E-1,1.079295063E1,1.510050058E0,1.091149713E1
2.106142560E-1,4.639500082E-1,1.079295063E1,1.510050058E0,1.090794592E1
2.125780380E-1,3.870000243E-1,1.079295063E1,1.510050058E0,1.090494399E1
2.145416710E-1,3.490500152E-1,1.079295063E1,1.471050024E0,1.089833049E1
2.165053470E-1,3.109500110E-1,1.075500011E1,1.471050024E0,1.085959049E1
2.184694280E-1,2.719500065E-1,1.075500011E1,1.471050024E0,1.085854375E1
2.204334030E-1,2.340000123E-1,1.071600056E1,1.432950020E0,1.081391556E1
2.223972290E-1,1.189500093E-1,1.075500011E1,1.471050024E0,1.085578946E1
2.243610980E-1,1.189500093E-1,1.075500011E1,1.432950020E0,1.085069225E1
2.263251190E-1,1.189500093E-1,1.075500011E1,1.356000066E0,1.084079853E1
2.282890960E-1,4.050000105E-3,1.083105087E1,1.203000069E0,1.089765519E1
2.302529020E-1,-1.099500060E-1,1.087005043E1,1.165050030E0,1.093285996E1
2.322167710E-1,-1.099500060E-1,1.087005043E1,1.203000069E0,1.093696917E1
2.341807470E-1,-7.200000435E-2,1.098495007E1,1.203000069E0,1.105086065E1
2.361446920E-1,-1.099500060E-1,1.094595051E1,1.126049995E0,1.100426781E1
2.381083870E-1,-1.870500147E-1,1.106100082E1,1.165050030E0,1.112376144E1
2.400721560E-1,-3.400500119E-1,1.110000038E1,1.087950110E0,1.115837255E1
2.420359880E-1,-3.780000210E-1,1.117605019E1,1.087950110E0,1.123523997E1
2.439997880E-1,-4.549500346E-1,1.121400070E1,1.126049995E0,1.127957357E1
2.459636420E-1,-5.700000525E-1,1.125300026E1,1.087950110E0,1.131982996E1
2.479274800E-1,-6.469500065E-1,1.136805058E1,1.087950110E0,1.143830204E1
2.498913280E-1,-7.230000496E-1,1.144395065E1,1.087950110E0,1.151826250E1
2.518551730E-1,-7.620000243E-1,1.140600014E1,1.126049995E0,1.148675201E1
2.538190590E-1,-8.770500422E-1,1.148295021E1,1.087950110E0,1.156767037E1
2.557829370E-1,-9.529500604E-1,1.155900097E1,1.126049995E0,1.165275100E1
2.577467790E-1,-1.030050039E0,1.159800053E1,1.165050030E0,1.170179306E1
2.597106310E-1,-1.030050039E0,1.159800053E1,1.165050030E0,1.170179306E1
2.616747910E-1,-1.106999993E0,1.159800053E1,1.203000069E0,1.171265445E1
2.636388600E-1,-1.144950032E0,1.163595009E1,1.203000069E0,1.175386975E1
2.656028940E-1,-1.222050071E0,1.167405033E1,1.165050030E0,1.179551606E1
2.675669390E-1,-1.183050036E0,1.163595009E1,1.126049995E0,1.175001832E1
2.695309310E-1,-1.222050071E0,1.155900097E1,1.050000072E0,1.167075019E1
2.714949390E-1,-1.222050071E0,1.155900097E1,1.050000072E0,1.167075019E1
2.734589380E-1,-1.222050071E0,1.152105045E1,9.349500537E-1,1.162334468E1
2.754229390E-1,-1.222050071E0,1.136805058E1,9.730500579E-1,1.147487720E1
2.773867580E-1,-1.183050036E0,1.129095078E1,8.959500194E-1,1.138805968E1
2.793506310E-1,-1.183050036E0,1.121400070E1,7.810500264E-1,1.130324990E1
2.813146520E-1,-1.183050036E0,1.113795090E1,7.810500264E-1,1.122780463E1
2.832786290E-1,-1.183050036E0,1.113795090E1,7.810500264E-1,1.122780463E1
2.852425890E-1,-1.144950032E0,1.102305031E1,8.200500607E-1,1.111265183E1
2.872065540E-1,-1.106999993E0,1.094595051E1,7.810500264E-1,1.102947509E1
2.891705590E-1,-1.030050039E0,1.083105087E1,7.050000429E-1,1.090273778E1
2.911345520E-1,-9.919500351E-1,1.075500011E1,6.660000086E-1,1.082116206E1
2.930985530E-1,-9.529500604E-1,1.075500011E1,6.280500293E-1,1.081538664E1
2.950625520E-1,-9.529500604E-1,1.060095024E1,5.899500251E-1,1.066003287E1
2.970265970E-1,-8.770500422E-1,1.052505016E1,5.899500251E-1,1.057799313E1
2.989906290E-1,-7.999500632E-1,1.044795036E1,5.130000114E-1,1.049107983E1
3.009547400E-1,-7.230000496E-1,1.029495049E1,4.750500321E-1,1.033123454E1
3.029188410E-1,-6.469500065E-1,1.018005085E1,4.750500321E-1,1.021164297E1
3.048830490E-1,-6.079500318E-1,1.006500053E1,4.750500321E-1,1.009452879E1
3.068472260E-1,-5.700000525E-1,9.949950218E0,3.979500234E-1,9.974205413E0
3.088115110E-1,-5.320500135E-1,9.835050583E0,2.830500007E-1,9.853497576E0
3.107757640E-1,-4.930500090E-1,9.720000267E0,3.220500052E-1,9.737824177E0
3.127402960E-1,-4.549500346E-1,9.604950905E0,2.070000172E-1,9.617947308E0
3.147047540E-1,-4.170000255E-1,9.490050316E0,2.070000172E-1,9.501462678E0
3.166684970E-1,-3.019500077E-1,9.375000000E0,2.070000172E-1,9.382145161E0
3.186324490E-1,-3.400500119E-1,9.298050880E0,1.300500035E-1,9.305175828E0
3.205964110E-1,-2.629500031E-1,9.220950127E0,1.680000126E-1,9.226228262E0
3.225603700E-1,-2.250000089E-1,9.106050491E0,9.195000678E-2,9.109293900E0
3.245244080E-1,-3.400500119E-1,8.953050613E0,1.500000060E-2,8.959518642E0
3.264884330E-1,-3.019500077E-1,8.953050613E0,9.195000678E-2,8.958612833E0
3.284526090E-1,-2.250000089E-1,8.838000298E0,1.680000126E-1,8.842459967E0
3.304167400E-1,-1.870500147E-1,8.761950493E0,9.195000678E-2,8.764429186E0
3.323808540E-1,-1.870500147E-1,8.761950493E0,1.500000060E-2,8.763959673E0
3.343449730E-1,-1.480500102E-1,8.685000420E0,1.500000060E-2,8.686275156E0
3.363093020E-1,-2.250000089E-1,8.608050346E0,5.295000225E-2,8.611153202E0
3.382735760E-1,-2.250000089E-1,8.608050346E0,1.500000060E-2,8.611003471E0
3.402373500E-1,-2.250000089E-1,8.608050346E0,5.295000225E-2,8.611153202E0
3.422012710E-1,-2.250000089E-1,8.608050346E0,5.295000225E-2,8.611153202E0
3.441654630E-1,-2.629500031E-1,8.608050346E0,-6.105000153E-2,8.612281961E0
3.461295760E-1,-2.629500031E-1,8.569950104E0,1.500000060E-2,8.573996296E0
3.480935920E-1,-1.870500147E-1,8.569950104E0,1.500000060E-2,8.572004287E0
3.500576120E-1,-1.870500147E-1,8.647050858E0,5.295000225E-2,8.649235801E0
3.520216080E-1,-1.870500147E-1,8.647050858E0,1.300500035E-1,8.650051401E0
3.539856120E-1,-1.480500102E-1,8.722949982E0,9.195000678E-2,8.724690825E0
3.559497910E-1,-1.870500147E-1,8.722949982E0,1.680000126E-1,8.726572529E0
3.579139180E-1,-1.480500102E-1,8.761950493E0,1.680000126E-1,8.764811421E0
3.598780720E-1,-1.099500060E-1,8.838000298E0,2.449500114E-1,8.842077741E0
3.618422210E-1,-1.099500060E-1,8.838000298E0,2.070000172E-1,8.841107808E0
3.638063760E-1,-3.299999982E-2,8.914950371E0,2.070000172E-1,8.917414318E0
3.657705290E-1,-3.299999982E-2,8.953050613E0,2.449500114E-1,8.956461622E0
3.677338280E-1,4.050000105E-3,8.991000175E0,2.830500007E-1,8.995455400E0
3.696973770E-1,4.200000316E-2,9.106050491E0,3.600000143E-1,9.113260644E0
3.716616230E-1,4.050000105E-3,9.145050049E0,3.600000143E-1,9.152134003E0
3.736256720E-1,4.200000316E-2,9.220950127E0,3.600000143E-1,9.228070505E0
3.755899790E-1,8.100000024E-2,9.220950127E0,3.979500234E-1,9.229888757E0
3.775542110E-1,1.960500032E-1,9.298050880E0,3.979500234E-1,9.308627718E0
3.795183530E-1,2.340000123E-1,9.336000443E0,4.750500321E-1,9.351007047E0
3.814825210E-1,2.719500065E-1,9.451050758E0,4.360500276E-1,9.465012249E0
3.834467210E-1,3.109500110E-1,9.490050316E0,4.750500321E-1,9.507019377E0
3.854109080E-1,2.719500065E-1,9.490050316E0,4.360500276E-1,9.503954515E0
3.873750570E-1,3.870000243E-1,9.565950394E0,5.130000114E-1,9.587509842E0
3.893392180E-1,4.260000288E-1,9.643050194E0,5.509500504E-1,9.668166270E0
3.913033260E-1,4.260000288E-1,9.643050194E0,6.280500293E-1,9.672866168E0
3.932674490E-1,5.020500422E-1,9.720000267E0,6.280500293E-1,9.753199797E0
3.952312330E-1,5.020500422E-1,9.720000267E0,6.660000086E-1,9.755717065E0
3.971951270E-1,5.020500422E-1,9.757950783E0,7.050000429E-1,9.796258612E0
3.991588300E-1,5.790000558E-1,9.835050583E0,7.050000429E-1,9.877271187E0
4.011225890E-1,5.020500422E-1,9.835050583E0,7.050000429E-1,9.873059266E0
4.030875300E-1,5.790000558E-1,9.873000145E0,5.899500251E-1,9.907543286E0
4.050521250E-1,6.550500393E-1,9.835050583E0,6.660000086E-1,9.879315084E0
4.070156640E-1,7.320000529E-1,9.835050583E0,6.660000086E-1,9.884715477E0
4.089795120E-1,6.940500140E-1,9.835050583E0,6.280500293E-1,9.879492509E0
4.109436720E-1,6.550500393E-1,9.796050072E0,5.509500504E-1,9.833373456E0
4.129077400E-1,6.550500393E-1,9.757950783E0,5.899500251E-1,9.797690292E0
4.148717290E-1,6.169500351E-1,9.757950783E0,6.280500293E-1,9.797585298E0
4.168357420E-1,5.790000558E-1,9.720000267E0,6.660000086E-1,9.759979624E0
4.187997840E-1,5.790000558E-1,9.643050194E0,7.050000429E-1,9.686107741E0
4.207638170E-1,6.169500351E-1,9.681000710E0,7.810500264E-1,9.732031711E0
4.227270470E-1,5.410500169E-1,9.643050194E0,8.200500607E-1,9.692968290E0
4.246905120E-1,5.410500169E-1,9.643050194E0,8.580000401E-1,9.696252690E0
4.266550080E-1,5.020500422E-1,9.681000710E0,8.580000401E-1,9.731905931E0
4.286192020E-1,5.790000558E-1,9.681000710E0,8.580000401E-1,9.736178915E0
4.305831840E-1,7.320000529E-1,9.720000267E0,9.349500537E-1,9.792260253E0
4.325472180E-1,7.699500322E-1,9.757950783E0,1.011000037E0,9.840353022E0
4.345113460E-1,7.699500322E-1,9.835050583E0,1.087950110E0,9.924952315E0
4.364754470E-1,8.089500666E-1,9.910950661E0,1.165050030E0,1.001192713E1
4.384394310E-1,8.089500666E-1,1.002600002E1,1.203000069E0,1.013026583E1
4.404034490E-1,8.089500666E-1,1.010295010E1,1.165050030E0,1.020202639E1
4.423671450E-1,8.470500112E-1,1.014105034E1,1.165050030E0,1.024283834E1
4.443309250E-1,8.089500666E-1,1.025595093E1,1.165050030E0,1.035356321E1
4.462946020E-1,7.699500322E-1,1.033305073E1,1.165050030E0,1.042698911E1
4.482583100E-1,7.699500322E-1,1.041000080E1,1.165050030E0,1.050325099E1
4.502221790E-1,6.550500393E-1,1.052505016E1,1.126049995E0,1.060536468E1
4.521860000E-1,6.169500351E-1,1.052505016E1,1.011000037E0,1.059147909E1
4.541500310E-1,6.940500140E-1,1.048605061E1,8.200500607E-1,1.054094136E1
4.561140000E-1,7.320000529E-1,1.052505016E1,8.959500194E-1,1.058844802E1
4.580769250E-1,5.790000558E-1,1.052505016E1,8.959500194E-1,1.057897199E1
4.600401560E-1,5.020500422E-1,1.052505016E1,9.349500537E-1,1.057841514E1
4.620042420E-1,3.870000243E-1,1.048605061E1,8.959500194E-1,1.053136994E1
4.639680770E-1,3.490500152E-1,1.041000080E1,7.810500264E-1,1.044509415E1
4.659325110E-1,2.719500065E-1,1.033305073E1,8.200500607E-1,1.036910682E1
4.678967700E-1,8.100000024E-2,1.029495049E1,6.660000086E-1,1.031678838E1
4.698605010E-1,4.050000105E-3,1.018005085E1,5.509500504E-1,1.019494962E1
4.718243870E-1,-3.299999982E-2,1.010295010E1,5.130000114E-1,1.011601990E1
4.737880460E-1,-2.250000089E-1,1.002600002E1,4.360500276E-1,1.003799986E1
4.757517720E-1,-3.400500119E-1,9.949950218E0,4.750500321E-1,9.967086630E0
4.777159980E-1,-4.930500090E-1,9.949950218E0,5.130000114E-1,9.975358473E0
4.796800770E-1,-6.079500318E-1,9.910950661E0,4.360500276E-1,9.939149152E0
4.816442440E-1,-6.850500107E-1,9.873000145E0,3.220500052E-1,9.901976650E0
4.836083850E-1,-7.999500632E-1,9.835050583E0,3.220500052E-1,9.872783613E0
4.855733070E-1,-9.150000215E-1,9.796050072E0,2.070000172E-1,9.840867393E0
4.875380000E-1,-1.030050039E0,9.796050072E0,2.070000172E-1,9.852230666E0
4.895018960E-1,-1.068000078E0,9.757950783E0,2.070000172E-1,9.818404995E0
4.914660160E-1,-1.144950032E0,9.757950783E0,2.070000172E-1,9.827072965E0
4.934301750E-1,-1.183050036E0,9.681000710E0,2.070000172E-1,9.755215586E0
4.953943220E-1,-1.183050036E0,9.681000710E0,2.070000172E-1,9.755215586E0
4.973586130E-1,-1.336950064E0,9.681000710E0,2.449500114E-1,9.775950630E0
4.993228610E-1,-1.336950064E0,9.604950905E0,2.449500114E-1,9.700645229E0
5.012871810E-1,-1.413000107E0,9.604950905E0,2.070000172E-1,9.710535526E0
5.032515100E-1,-1.452000022E0,9.528000832E0,1.300500035E-1,9.638880480E0
5.052157700E-1,-1.489950061E0,9.490050316E0,1.300500035E-1,9.607180605E0
5.071800500E-1,-1.489950061E0,9.490050316E0,9.195000678E-2,9.606740393E0
5.091443620E-1,-1.567050099E0,9.412950516E0,5.295000225E-2,9.542645709E0
5.111086640E-1,-1.605000019E0,9.375000000E0,1.500000060E-2,9.511407628E0
5.130727930E-1,-1.642950058E0,9.375000000E0,5.295000225E-2,9.518020466E0
5.150369730E-1,-1.681950092E0,9.298050880E0,-2.205000073E-2,9.448978383E0
5.170009420E-1,-1.758000135E0,9.298050880E0,5.295000225E-2,9.462933919E0
5.189649730E-1,-1.795950055E0,9.298050880E0,5.295000225E-2,9.470057575E0
5.209288330E-1,-1.795950055E0,9.259950638E0,9.195000678E-2,9.432951671E0
5.228927430E-1,-1.758000135E0,9.259950638E0,5.295000225E-2,9.425500199E0
5.248565280E-1,-1.834950089E0,9.183000565E0,1.300500035E-1,9.365439349E0
5.268203530E-1,-1.873050094E0,9.183000565E0,1.680000126E-1,9.373582028E0
5.287844270E-1,-1.795950055E0,9.183000565E0,1.680000126E-1,9.358480645E0
5.307484280E-1,-1.873050094E0,9.145050049E0,2.070000172E-1,9.337189409E0
5.327118430E-1,-1.873050094E0,9.145050049E0,3.220500052E-1,9.340448236E0
5.346754300E-1,-1.873050094E0,9.183000565E0,3.220500052E-1,9.377608023E0
5.366397150E-1,-1.873050094E0,9.259950638E0,3.600000143E-1,9.454343048E0
5.386038030E-1,-1.834950089E0,9.259950638E0,3.600000143E-1,9.446868669E0
5.405681480E-1,-1.834950089E0,9.259950638E0,3.979500234E-1,9.448390967E0
5.425324180E-1,-1.834950089E0,9.298050880E0,3.979500234E-1,9.485734354E0
5.444967320E-1,-1.834950089E0,9.336000443E0,4.360500276E-1,9.524604229E0
5.464610330E-1,-1.795950055E0,9.336000443E0,4.360500276E-1,9.517167672E0
5.484252840E-1,-1.795950055E0,9.375000000E0,4.750500321E-1,9.557286965E0
5.503895600E-1,-1.720050097E0,9.412950516E0,5.130000114E-1,9.582555962E0
5.523538720E-1,-1.758000135E0,9.451050758E0,4.750500321E-1,9.624894672E0
5.543181730E-1,-1.720050097E0,9.490050316E0,4.360500276E-1,9.654520545E0
5.562823030E-1,-1.681950092E0,9.451050758E0,4.750500321E-1,9.611294870E0
5.582464830E-1,-1.642950058E0,9.528000832E0,4.360500276E-1,9.678441216E0
5.602106210E-1,-1.605000019E0,9.565950394E0,3.979500234E-1,9.707821394E0
5.621747800E-1,-1.567050099E0,9.604950905E0,4.360500276E-1,9.741707629E0
5.641392920E-1,-1.528050065E0,9.565950394E0,4.360500276E-1,9.697034782E0
5.661037010E-1,-1.489950061E0,9.604950905E0,3.979500234E-1,9.727969844E0
5.680678570E-1,-1.489950061E0,9.643050194E0,5.130000114E-1,9.770953753E0
5.700320870E-1,-1.375050068E0,9.643050194E0,5.130000114E-1,9.754093948E0
5.719964070E-1,-1.375050068E0,9.604950905E0,5.509500504E-1,9.718507629E0
5.739607010E-1,-1.336950064E0,9.565950394E0,5.509500504E-1,9.674626006E0
5.759249670E-1,-1.222050071E0,9.528000832E0,5.130000114E-1,9.619738834E0
5.778892410E-1,-1.260000110E0,9.565950394E0,4.750500321E-1,9.660262923E0
5.798535540E-1,-1.183050036E0,9.528000832E0,4.750500321E-1,9.612912138E0
5.818178550E-1,-1.183050036E0,9.490050316E0,4.750500321E-1,9.575298163E0
5.837819910E-1,-1.183050036E0,9.490050316E0,5.130000114E-1,9.577255943E0
5.857462030E-1,-1.106999993E0,9.451050758E0,4.360500276E-1,9.525646910E0
5.877106610E-1,-1.030050039E0,9.375000000E0,5.130000114E-1,9.445358495E0
5.896750470E-1,-1.030050039E0,9.375000000E0,4.750500321E-1,9.443373371E0
5.916392070E-1,-1.030050039E0,9.336000443E0,4.360500276E-1,9.402768048E0
5.936034340E-1,-1.030050039E0,9.298050880E0,4.750500321E-1,9.366985950E0
5.955677100E-1,-9.529500604E-1,9.259950638E0,4.750500321E-1,9.320969486E0
5.975319710E-1,-9.529500604E-1,9.259950638E0,3.979500234E-1,9.317358201E0
5.994968720E-1,-9.529500604E-1,9.183000565E0,4.750500321E-1,9.244527339E0
6.014615860E-1,-8.770500422E-1,9.145050049E0,2.830500007E-1,9.191369565E0
6.034246980E-1,-8.770500422E-1,9.106050491E0,2.830500007E-1,9.152567379E0
6.053882800E-1,-9.150000215E-1,9.145050049E0,3.220500052E-1,9.196351540E0
6.073530870E-1,-7.999500632E-1,9.067950249E0,2.830500007E-1,9.107566037E0
6.093175240E-1,-7.230000496E-1,9.067950249E0,2.449500114E-1,9.100024796E0
6.112814500E-1,-7.620000243E-1,8.991000175E0,2.070000172E-1,9.025606750E0
6.132455260E-1,-7.620000243E-1,9.030000687E0,3.220500052E-1,9.067815208E0
6.152093780E-1,-7.230000496E-1,9.030000687E0,2.449500114E-1,9.062209553E0
6.171732950E-1,-6.850500107E-1,9.030000687E0,1.680000126E-1,9.057506827E0
6.191374430E-1,-6.850500107E-1,8.991000175E0,1.300500035E-1,9.017998152E0
6.211015240E-1,-6.469500065E-1,8.914950371E0,1.300500035E-1,8.939339877E0
6.230653760E-1,-6.079500318E-1,8.914950371E0,9.195000678E-2,8.936128813E0
6.250292950E-1,-5.320500135E-1,8.914950371E0,5.295000225E-2,8.930969770E0
6.269934880E-1,-5.700000525E-1,8.914950371E0,-2.205000073E-2,8.933181201E0
6.289576010E-1,-6.079500318E-1,8.914950371E0,1.500000060E-2,8.935668322E0
6.309215230E-1,-6.850500107E-1,8.877000809E0,-6.105000153E-2,8.903603988E0
6.328855110E-1,-6.079500318E-1,8.877000809E0,-9.900000691E-2,8.898345217E0
6.348495120E-1,-6.079500318E-1,8.953050613E0,-1.369500011E-1,8.974713022E0
6.368135090E-1,-6.850500107E-1,8.914950371E0,-2.140500098E-1,8.943793996E0
6.387776900E-1,-6.469500065E-1,8.877000809E0,-1.759500057E-1,8.902283194E0
6.407418170E-1,-6.469500065E-1,8.914950371E0,-1.759500057E-1,8.940125437E0
6.427057770E-1,-7.230000496E-1,8.877000809E0,-2.520000041E-1,8.909959396E0
6.446698000E-1,-7.230000496E-1,8.914950371E0,-3.289500177E-1,8.950266884E0
6.466338400E-1,-7.620000243E-1,8.914950371E0,-4.060500264E-1,8.956665717E0
6.485978750E-1,-8.380500674E-1,8.914950371E0,-3.670500219E-1,8.961774029E0
6.505618700E-1,-8.770500422E-1,8.991000175E0,-4.440000355E-1,9.044580530E0
6.525258770E-1,-8.380500674E-1,8.991000175E0,-4.819500148E-1,9.042825216E0
6.544897000E-1,-9.150000215E-1,8.953050613E0,-4.819500148E-1,9.012580992E0
6.564535740E-1,-9.150000215E-1,8.991000175E0,-5.590500236E-1,9.054714028E0
6.584175490E-1,-1.030050039E0,9.030000687E0,-5.970000029E-1,9.108146051E0
6.603814950E-1,-1.030050039E0,8.991000175E0,-5.970000029E-1,9.069481586E0
6.623455040E-1,-1.106999993E0,9.030000687E0,-5.209500194E-1,9.112505161E0
6.643094950E-1,-1.144950032E0,9.067950249E0,-5.590500236E-1,9.157028405E0
6.662733220E-1,-1.222050071E0,9.106050491E0,-5.590500236E-1,9.204678096E0
6.682371940E-1,-1.297950029E0,9.106050491E0,-5.970000029E-1,9.217442098E0
6.702009010E-1,-1.297950029E0,9.106050491E0,-5.970000029E-1,9.217442098E0
6.721646560E-1,-1.375050068E0,9.145050049E0,-6.360000372E-1,9.269692505E0
6.741286970E-1,-1.452000022E0,9.183000565E0,-6.739500165E-1,9.321481216E0
6.760926540E-1,-1.528050065E0,9.183000565E0,-5.590500236E-1,9.326037385E0
6.780569620E-1,-1.528050065E0,9.220950127E0,-5.209500194E-1,9.361209706E0
6.800211780E-1,-1.605000019E0,9.298050880E0,-5.590500236E-1,9.452106229E0
6.819850070E-1,-1.605000019E0,9.298050880E0,-5.209500194E-1,9.449929320E0
6.839489490E-1,-1.642950058E0,9.375000000E0,-4.440000355E-1,9.528223650E0
6.859127780E-1,-1.720050097E0,9.451050758E0,-4.440000355E-1,9.616551815E0
6.878766410E-1,-1.720050097E0,9.451050758E0,-4.440000355E-1,9.616551815E0
6.898406920E-1,-1.758000135E0,9.490050316E0,-4.819500148E-1,9.663534306E0
6.918046680E-1,-1.758000135E0,9.565950394E0,-5.209500194E-1,9.740090366E0
6.937686720E-1,-1.795950055E0,9.565950394E0,-4.819500148E-1,9.745004841E0
6.957326680E-1,-1.795950055E0,9.643050194E0,-5.209500194E-1,9.822690190E0
6.976969850E-1,-1.834950089E0,9.681000710E0,-4.819500148E-1,9.865145330E0
6.996612070E-1,-1.834950089E0,9.681000710E0,-5.209500194E-1,9.867127520E0
7.016251560E-1,-1.834950089E0,9.757950783E0,-4.440000355E-1,9.938902421E0
7.035891950E-1,-1.795950055E0,9.757950783E0,-4.060500264E-1,9.930151897E0
7.055532330E-1,-1.758000135E0,9.757950783E0,-3.670500219E-1,9.921839228E0
7.075172720E-1,-1.758000135E0,9.757950783E0,-3.670500219E-1,9.921839228E0
7.094812200E-1,-1.720050097E0,9.757950783E0,-3.670500219E-1,9.915185401E0
7.114451950E-1,-1.720050097E0,9.796050072E0,-3.670500219E-1,9.952682807E0
7.134090190E-1,-1.681950092E0,9.757950783E0,-4.060500264E-1,9.910168324E0
7.153728870E-1,-1.605000019E0,9.757950783E0,-5.209500194E-1,9.902778270E0
7.173367730E-1,-1.567050099E0,9.757950783E0,-4.819500148E-1,9.894722094E0
7.193006540E-1,-1.567050099E0,9.757950783E0,-4.819500148E-1,9.894722094E0
7.212646290E-1,-1.528050065E0,9.757950783E0,-5.590500236E-1,9.892677970E0
7.232285770E-1,-1.452000022E0,9.757950783E0,-5.590500236E-1,9.881216751E0
7.251926260E-1,-1.489950061E0,9.720000267E0,-5.970000029E-1,9.851637700E0
7.271566490E-1,-1.413000107E0,9.720000267E0,-5.209500194E-1,9.835972927E0
7.291207800E-1,-1.413000107E0,9.681000710E0,-4.819500148E-1,9.795438727E0
7.310848800E-1,-1.413000107E0,9.643050194E0,-5.970000029E-1,9.764291851E0
7.330486840E-1,-1.375050068E0,9.604950905E0,-5.590500236E-1,9.718970187E0
7.350125740E-1,-1.336950064E0,9.565950394E0,-5.209500194E-1,9.672963937E0
7.369768410E-1,-1.297950029E0,9.528000832E0,-5.590500236E-1,9.632238112E0
7.389409810E-1,-1.336950064E0,9.565950394E0,-5.209500194E-1,9.672963937E0
7.409047780E-1,-1.297950029E0,9.528000832E0,-5.209500194E-1,9.630101923E0
7.428686750E-1,-1.297950029E0,9.490050316E0,-5.209500194E-1,9.592555353E0
7.448326460E-1,-1.297950029E0,9.528000832E0,-5.590500236E-1,9.632238112E0
7.467965960E-1,-1.297950029E0,9.490050316E0,-4.819500148E-1,9.590516414E0
7.487607850E-1,-1.297950029E0,9.490050316E0,-5.590500236E-1,9.594699902E0
7.507249040E-1,-1.297950029E0,9.490050316E0,-5.970000029E-1,9.596985896E0
7.526890640E-1,-1.297950029E0,9.375000000E0,-5.970000029E-1,9.483233008E0
7.546532120E-1,-1.260000110E0,9.375000000E0,-6.360000372E-1,9.480649837E0
7.566170070E-1,-1.297950029E0,9.412950516E0,-6.360000372E-1,9.523277153E0
7.585809060E-1,-1.260000110E0,9.451050758E0,-5.590500236E-1,9.551046940E0
7.605451170E-1,-1.260000110E0,9.412950516E0,-5.209500194E-1,9.511184291E0
7.625092260E-1,-1.260000110E0,9.412950516E0,-5.209500194E-1,9.511184291E0
7.644733870E-1,-1.222050071E0,9.412950516E0,-5.209500194E-1,9.506231257E0
7.664375330E-1,-1.260000110E0,9.375000000E0,-5.209500194E-1,9.473627299E0
7.684015090E-1,-1.260000110E0,9.375000000E0,-5.590500236E-1,9.475798763E0
7.703655350E-1,-1.336950064E0,9.375000000E0,-5.970000029E-1,9.488649508E0
7.723299780E-1,-1.297950029E0,9.298050880E0,-6.360000372E-1,9.409724783E0
7.742942690E-1,-1.336950064E0,9.259950638E0,-6.739500165E-1,9.380209481E0
7.762585350E-1,-1.336950064E0,9.259950638E0,-6.739500165E-1,9.380209481E0
7.782228090E-1,-1.375050068E0,9.259950638E0,-7.120500207E-1,9.388528305E0
7.801871220E-1,-1.413000107E0,9.220950127E0,-7.120500207E-1,9.355720484E0
7.821514230E-1,-1.375050068E0,9.259950638E0,-5.590500236E-1,9.378165355E0
7.841157360E-1,-1.375050068E0,9.259950638E0,-5.209500194E-1,9.375971279E0
7.860800420E-1,-1.452000022E0,9.220950127E0,-5.209500194E-1,9.349096974E0
7.880443950E-1,-1.489950061E0,9.220950127E0,-5.970000029E-1,9.359609042E0
7.900087340E-1,-1.567050099E0,9.183000565E0,-5.209500194E-1,9.330301941E0
7.919729930E-1,-1.567050099E0,9.145050049E0,-4.819500148E-1,9.290848305E0
7.939372750E-1,-1.528050065E0,9.145050049E0,-4.819500148E-1,9.284349908E0
7.959014420E-1,-1.528050065E0,9.106050491E0,-4.440000355E-1,9.244037461E0
7.978656500E-1,-1.528050065E0,9.106050491E0,-4.440000355E-1,9.244037461E0
7.998296140E-1,-1.605000019E0,9.145050049E0,-4.819500148E-1,9.297324415E0
8.017936500E-1,-1.605000019E0,9.106050491E0,-4.060500264E-1,9.255325885E0
8.037578230E-1,-1.567050099E0,9.067950249E0,-4.440000355E-1,9.213061584E0
8.057219560E-1,-1.642950058E0,9.067950249E0,-4.440000355E-1,9.226274581E0
8.076862150E-1,-1.605000019E0,9.030000687E0,-4.819500148E-1,9.184182777E0
8.096504610E-1,-1.642950058E0,9.067950249E0,-4.060500264E-1,9.224526179E0
8.116144650E-1,-1.605000019E0,9.067950249E0,-4.060500264E-1,9.217842665E0
8.135785400E-1,-1.605000019E0,9.067950249E0,-3.670500219E-1,9.216207056E0
8.155428860E-1,-1.642950058E0,9.067950249E0,-3.289500177E-1,9.221454046E0
8.175071530E-1,-1.681950092E0,9.030000687E0,-2.520000041E-1,9.188763383E0
8.194712400E-1,-1.681950092E0,9.030000687E0,-2.140500098E-1,9.187800930E0
8.214353820E-1,-1.642950058E0,9.067950249E0,-1.759500057E-1,9.217264508E0
8.233992220E-1,-1.642950058E0,9.030000687E0,-1.369500011E-1,9.179267541E0
8.253631510E-1,-1.605000019E0,9.030000687E0,-9.900000691E-2,9.172062934E0
8.273271170E-1,-1.642950058E0,9.067950249E0,-2.205000073E-2,9.215611364E0
8.292910720E-1,-1.567050099E0,8.991000175E0,-9.900000691E-2,9.127076814E0
8.312547940E-1,-1.605000019E0,8.991000175E0,-2.205000073E-2,9.133159115E0
8.332185640E-1,-1.642950058E0,8.953050613E0,-2.205000073E-2,9.102575810E0
8.351827370E-1,-1.642950058E0,8.953050613E0,-2.205000073E-2,9.102575810E0
8.371467920E-1,-1.567050099E0,8.953050613E0,1.500000060E-2,9.089168625E0
8.391108290E-1,-1.567050099E0,8.953050613E0,5.295000225E-2,9.089310480E0
8.410748710E-1,-1.567050099E0,8.914950371E0,9.195000678E-2,9.052095941E0
8.430389930E-1,-1.528050065E0,8.877000809E0,1.680000126E-1,9.009123396E0
8.450030950E-1,-1.605000019E0,8.838000298E0,1.300500035E-1,8.983495273E0
8.469667180E-1,-1.528050065E0,8.838000298E0,1.300500035E-1,8.970066848E0
8.489304820E-1,-1.452000022E0,8.800050735E0,1.680000126E-1,8.920617749E0
8.508943860E-1,-1.489950061E0,8.761950493E0,1.680000126E-1,8.889316713E0
8.528582490E-1,-1.528050065E0,8.761950493E0,2.070000172E-1,8.896603984E0
8.548220290E-1,-1.489950061E0,8.722949982E0,2.449500114E-1,8.852672369E0
8.567858470E-1,-1.413000107E0,8.761950493E0,2.070000172E-1,8.877566939E0
8.587499220E-1,-1.413000107E0,8.722949982E0,2.449500114E-1,8.840046730E0
8.607139220E-1,-1.375050068E0,8.722949982E0,2.449500114E-1,8.834060198E0
8.626769770E-1,-1.375050068E0,8.685000420E0,2.830500007E-1,8.797733360E0
8.646403090E-1,-1.375050068E0,8.685000420E0,3.600000143E-1,8.800545153E0
8.666040690E-1,-1.297950029E0,8.685000420E0,3.979500234E-1,8.790464765E0
8.685677300E-1,-1.260000110E0,8.685000420E0,4.360500276E-1,8.786749808E0
8.705314280E-1,-1.222050071E0,8.685000420E0,4.750500321E-1,8.783411137E0
8.724951150E-1,-1.222050071E0,8.647050858E0,5.130000114E-1,8.748032003E0
8.744589880E-1,-1.183050036E0,8.647050858E0,5.899500251E-1,8.747521761E0
8.764228070E-1,-1.144950032E0,8.685000420E0,6.660000086E-1,8.785425367E0
8.783868580E-1,-1.068000078E0,8.685000420E0,7.050000429E-1,8.778774488E0
8.803508270E-1,-1.030050039E0,8.685000420E0,7.810500264E-1,8.780676199E0
8.823148320E-1,-9.919500351E-1,8.685000420E0,7.810500264E-1,8.776288299E0
8.842788270E-1,-9.150000215E-1,8.722949982E0,8.959500194E-1,8.816450979E0
8.862428280E-1,-9.529500604E-1,8.722949982E0,8.200500607E-1,8.813084154E0
8.882068270E-1,-8.770500422E-1,8.685000420E0,8.200500607E-1,8.767606924E0
8.901707920E-1,-8.380500674E-1,8.685000420E0,8.200500607E-1,8.763791549E0
8.921347610E-1,-7.999500632E-1,8.647050858E0,8.200500607E-1,8.722608024E0
8.940989460E-1,-7.999500632E-1,8.647050858E0,8.580000401E-1,8.726257658E0
8.960630670E-1,-8.380500674E-1,8.685000420E0,9.730500579E-1,8.779429743E0
8.980270470E-1,-7.620000243E-1,8.569950104E0,9.349500537E-1,8.654410461E0
8.999910690E-1,-6.079500318E-1,8.569950104E0,9.349500537E-1,8.642209187E0
9.019552450E-1,-5.320500135E-1,8.532000542E0,1.126049995E0,8.622418399E0
9.039193750E-1,-5.700000525E-1,8.569950104E0,1.279950023E0,8.683732890E0
9.058835330E-1,-5.700000525E-1,8.569950104E0,1.356000066E0,8.695267737E0
9.078476830E-1,-5.320500135E-1,8.532000542E0,1.395000100E0,8.661647403E0
9.098120180E-1,-4.549500346E-1,8.493000031E0,1.432950020E0,8.625043467E0
9.117762980E-1,-3.780000210E-1,8.493000031E0,1.471050024E0,8.627741402E0
9.137401300E-1,-2.629500031E-1,8.377950668E0,1.471050024E0,8.510181448E0
9.157040830E-1,-2.250000089E-1,8.416950226E0,1.548000097E0,8.561073555E0
9.176682250E-1,-1.870500147E-1,8.416950226E0,1.663050056E0,8.581711618E0
9.196323120E-1,-1.480500102E-1,8.340000153E0,1.701000094E0,8.512985532E0
9.215967030E-1,-1.480500102E-1,8.302050591E0,1.777950048E0,8.491588143E0
9.235610040E-1,-1.480500102E-1,8.340000153E0,1.893000126E0,8.553418663E0
9.255254840E-1,-7.200000435E-2,8.224950790E0,2.008050203E0,8.466833241E0
9.274899180E-1,1.570500135E-1,8.263050079E0,2.275950193E0,8.572199870E0
9.294541600E-1,8.100000024E-2,8.187000275E0,2.238000154E0,8.487766443E0
9.314184590E-1,2.340000123E-1,8.071949959E0,2.238000154E0,8.379724150E0
9.333822720E-1,3.109500110E-1,8.071949959E0,2.161050081E0,8.362009537E0
9.353462280E-1,3.490500152E-1,7.995000362E0,2.046000004E0,8.260023167E0
9.373104090E-1,3.870000243E-1,7.879950523E0,1.930950046E0,8.122312315E0
9.392745280E-1,4.260000288E-1,7.803000450E0,1.777950048E0,8.014324577E0
9.412388230E-1,4.639500082E-1,7.687950134E0,1.740000129E0,7.896038711E0
9.432030660E-1,4.260000288E-1,7.573050499E0,1.663050056E0,7.765198347E0
9.451672060E-1,3.870000243E-1,7.420050144E0,1.585950017E0,7.597509501E0
9.471313760E-1,4.260000288E-1,7.305000305E0,1.548000097E0,7.479358915E0
9.490951820E-1,4.260000288E-1,7.152000427E0,1.510050058E0,7.322078756E0
9.510591160E-1,3.490500152E-1,6.997950554E0,1.510050058E0,7.167523913E0
9.530236670E-1,3.109500110E-1,6.844950199E0,1.471050024E0,7.008139647E0
9.549880370E-1,2.340000123E-1,6.730050087E0,1.471050024E0,6.892917985E0
9.569517950E-1,1.570500135E-1,6.538950443E0,1.432950020E0,6.695960227E0
9.589157320E-1,8.100000024E-2,6.424050331E0,1.432950020E0,6.582425800E0
9.608799220E-1,4.050000105E-3,6.232050419E0,1.395000100E0,6.386273883E0
9.628440370E-1,-3.299999982E-2,6.079050064E0,1.356000066E0,6.228537136E0
9.648083780E-1,-1.099500060E-1,5.925000191E0,1.395000100E0,6.087999798E0
9.667726530E-1,-7.200000435E-2,5.809950352E0,1.395000100E0,5.975511055E0
9.687367420E-1,-2.250000089E-1,5.695050240E0,1.356000066E0,5.858579897E0
9.707008860E-1,-2.629500031E-1,5.580000401E0,1.279950023E0,5.730952734E0
9.726650950E-1,-3.780000210E-1,5.464950085E0,1.126049995E0,5.592544326E0
9.746292780E-1,-4.549500346E-1,5.389050484E0,1.011000037E0,5.501905645E0
9.765933830E-1,-5.700000525E-1,5.350050449E0,8.959500194E-1,5.454417137E0
9.785575110E-1,-6.469500065E-1,5.235000134E0,8.200500607E-1,5.338188158E0
9.805218480E-1,-7.999500632E-1,5.235000134E0,7.429500222E-1,5.347627627E0
9.824861240E-1,-8.770500422E-1,5.119950294E0,7.429500222E-1,5.247388163E0
9.844502190E-1,-9.919500351E-1,5.158950329E0,8.200500607E-1,5.317068315E0
9.864143950E-1,-1.106999993E0,5.158950329E0,9.730500579E-1,5.365355896E0
9.883784100E-1,-1.144950032E0,5.119950294E0,9.730500579E-1,5.335881184E0
9.903424720E-1,-1.260000110E0,5.158950329E0,9.730500579E-1,5.398999462E0
9.923062810E-1,-1.375050068E0,5.235000134E0,9.730500579E-1,5.499346825E0
9.942701640E-1,-1.452000022E0,5.274000168E0,1.011000037E0,5.562868227E0
9.962343730E-1,-2.026050091E0,5.619000435E0,1.500000060E-2,5.973128984E0
9.981984800E-1,-1.720050097E0,5.619000435E0,3.600000143E-1,5.887388065E0
1.000162418E0,-1.375050068E0,5.542050362E0,1.050000072E0,5.805823374E0
1.002126405E0,-1.222050071E0,5.580000401E0,1.126049995E0,5.822181673E0
1.004090587E0,-1.183050036E0,5.695050240E0,1.087950110E0,5.917502857E0
1.006054711E0,-1.183050036E0,5.772000313E0,9.349500537E-1,5.965712581E0
1.008018545E0,-1.222050071E0,5.887050152E0,7.810500264E-1,6.063068943E0
1.009982472E0,-1.297950029E0,6.001950264E0,6.280500293E-1,6.172724527E0
1.011946619E0,-1.222050071E0,6.154950142E0,5.509500504E-1,6.299235159E0
1.013910701E0,-1.144950032E0,6.346950531E0,3.979500234E-1,6.461660455E0
1.015875633E0,-1.068000078E0,6.424050331E0,2.070000172E-1,6.515511939E0
1.017840316E0,-9.919500351E-1,6.577050209E0,5.295000225E-2,6.651643258E0
1.019804682E0,-9.150000215E-1,6.730050087E0,-1.759500057E-1,6.794244448E0
1.021769151E0,-8.380500674E-1,6.922050476E0,-5.590500236E-1,6.994973026E0
1.023733296E0,-6.469500065E-1,7.075050354E0,-6.739500165E-1,7.136462040E0
1.025697536E0,-4.549500346E-1,7.267050266E0,-7.510500550E-1,7.319909514E0
1.027661854E0,-3.400500119E-1,7.458000183E0,-8.659500480E-1,7.515801370E0
1.029626149E0,-2.629500031E-1,7.650000572E0,-1.057050109E0,7.727160306E0
1.031590639E0,-1.870500147E-1,7.918050289E0,-1.210950017E0,8.012297301E0
1.033555072E0,-2.629500031E-1,8.187000275E0,-1.363950014E0,8.304003603E0
1.035519134E0,-2.629500031E-1,8.455050468E0,-1.402050018E0,8.574541701E0
1.037483305E0,-2.629500031E-1,8.685000420E0,-1.632000089E0,8.840916202E0
1.039447456E0,-1.870500147E-1,8.877000809E0,-1.747050047E0,9.049216261E0
1.041411613E0,-2.250000089E-1,9.106050491E0,-1.708950043E0,9.267755435E0
1.043375586E0,-1.870500147E-1,9.259950638E0,-1.555950046E0,9.391626806E0
1.045339613E0,-3.019500077E-1,9.490050316E0,-1.479000092E0,9.609353260E0
1.047303608E0,-4.170000255E-1,9.643050194E0,-1.402050018E0,9.753360975E0
1.049267613E0,-5.320500135E-1,9.835050583E0,-1.363950014E0,9.943422792E0
1.051231612E0,-6.469500065E-1,1.002600002E1,-1.479000092E0,1.015512984E1
1.053195613E0,-7.230000496E-1,1.025595093E1,-1.555950046E0,1.039847292E1
1.055160049E0,-9.150000215E-1,1.048605061E1,-1.708950043E0,1.066372321E1
1.057124335E0,-1.030050039E0,1.079295063E1,-1.824000120E0,1.099435141E1
1.059088287E0,-1.144950032E0,1.106100082E1,-1.977000117E0,1.129447561E1
1.061052337E0,-1.375050068E0,1.129095078E1,-2.245050192E0,1.159381656E1
1.063016508E0,-1.489950061E0,1.163595009E1,-2.475000143E0,1.198919978E1
1.064980643E0,-1.642950058E0,1.186605072E1,-2.743950129E0,1.228949580E1
1.066944732E0,-1.834950089E0,1.221105099E1,-3.049950123E0,1.271923755E1
1.068908852E0,-1.950000048E0,1.255605030E1,-3.433950186E0,1.316240530E1
1.070872696E0,-2.218050003E0,1.290105057E1,-3.702000141E0,1.360373686E1
1.072836621E0,-2.485950232E0,1.324605083E1,-4.009050369E0,1.406094933E1
1.074800633E0,-2.755050182E0,1.359105110E1,-4.315050125E0,1.452331330E1
1.076764619E0,-2.946000099E0,1.397400093E1,-4.507050037E0,1.497548392E1
1.078728613E0,-3.175950050E0,1.431900024E1,-4.736999989E0,1.541296842E1
1.080692611E0,-3.330000162E0,1.466400051E1,-4.852050304E0,1.580076594E1
1.082656747E0,-3.559950113E0,1.500900078E1,-4.927950382E0,1.619345683E1
1.084620842E0,-3.751050234E0,1.535400105E1,-5.043000221E0,1.659058701E1
1.086584872E0,-3.981000185E0,1.569900036E1,-5.119950294E0,1.698590197E1
1.088548921E0,-4.210950375E0,1.600500107E1,-4.966950417E0,1.727896868E1
1.090512667E0,-4.402950287E0,1.631204987E1,-5.043000221E0,1.763237912E1
1.092476516E0,-4.633050442E0,1.657995033E1,-5.158050060E0,1.797123785E1
1.094440541E0,-4.786050320E0,1.696395111E1,-5.272950172E0,1.839798680E1
1.096404514E0,-5.092950344E0,1.723200035E1,-5.311950207E0,1.873757707E1
1.098368384E0,-5.323050022E0,1.746195030E1,-5.427000046E0,1.904486543E1
1.100332285E0,-5.668050289E0,1.773000145E1,-5.503050327E0,1.941039176E1
1.102296452E0,-5.974050522E0,1.803705025E1,-5.464950085E0,1.977094183E1
1.104260562E0,-6.433950424E0,1.838205147E1,-5.962950230E0,2.036792355E1
1.106224859E0,-6.357000351E0,1.849695015E1,-5.848050117E0,2.041441423E1
1.108189101E0,-6.319050312E0,1.861200142E1,-5.388000488E0,2.038056778E1
1.110153600E0,-6.472050190E0,1.872705078E1,-5.503050327E0,2.056388649E1
1.112118024E0,-6.586950302E0,1.888005066E1,-5.503050327E0,2.073952242E1
1.114081997E0,-6.586950302E0,1.899495125E1,-5.464950085E0,2.083414905E1
1.116046103E0,-6.664050102E0,1.903305054E1,-5.542050362E0,2.091365340E1
1.118010264E0,-6.817050457E0,1.914795113E1,-5.733000278E0,2.111832146E1
1.119974408E0,-6.741000175E0,1.918695068E1,-5.733000278E0,2.112930316E1
1.121939059E0,-6.702000141E0,1.922504997E1,-5.503050327E0,2.109035124E1
1.123903562E0,-6.586950302E0,1.922504997E1,-5.388000488E0,2.102429571E1
1.125867707E0,-6.511050224E0,1.926300049E1,-5.235000134E0,2.099671853E1
1.127831954E0,-6.280950069E0,1.918695068E1,-5.005050182E0,2.079999850E1
1.129796451E0,-6.088950157E0,1.911000061E1,-4.660050392E0,2.059085979E1
1.131760875E0,-5.935950279E0,1.903305054E1,-4.392000198E0,2.041524392E1
1.133724984E0,-5.743950367E0,1.888005066E1,-3.931950092E0,2.012236344E1
1.135689185E0,-5.629050255E0,1.876500130E1,-3.510000229E0,1.990305459E1
1.137653451E0,-5.590950489E0,1.857299995E1,-3.319050074E0,1.967818965E1
1.139617707E0,-5.553000450E0,1.838205147E1,-3.088950157E0,1.944935072E1
1.141581529E0,-5.398950100E0,1.826700020E1,-3.165000200E0,1.930930306E1
1.143545478E0,-5.092950344E0,1.795995140E1,-2.820000172E0,1.887989403E1
1.145509621E0,-4.863000393E0,1.769205093E1,-2.475000143E0,1.851440155E1
1.147473707E0,-4.555950165E0,1.742400169E1,-2.245050192E0,1.814918090E1
1.149437718E0,-4.441050053E0,1.723200035E1,-2.053950071E0,1.791322061E1
1.151401766E0,-4.363950253E0,1.696395111E1,-1.939050078E0,1.762326912E1
1.153365713E0,-4.173000336E0,1.677195168E1,-1.786050081E0,1.737533510E1
1.155329689E0,-4.018949986E0,1.650405121E1,-1.708950043E0,1.707208761E1
1.157293692E0,-3.865950108E0,1.631204987E1,-1.479000092E0,1.682902203E1
1.159257687E0,-3.751050234E0,1.612005043E1,-1.096050024E0,1.658697469E1
1.161221894E0,-3.675000191E0,1.596705055E1,-7.120500207E-1,1.639998003E1
1.163186053E0,-3.445050240E0,1.577505112E1,-3.289500177E-1,1.615019557E1
1.165149441E0,-3.330000162E0,1.546905041E1,1.500000060E-2,1.582342082E1
1.167113055E0,-3.214950085E0,1.512405109E1,3.600000143E-1,1.546617036E1
1.169076626E0,-2.985000134E0,1.489395046E1,7.429500222E-1,1.520828593E1
1.171040209E0,-2.716050148E0,1.458705044E1,1.126049995E0,1.488042195E1
1.173004073E0,-2.485950232E0,1.435695076E1,1.432950020E0,1.464087871E1
1.174967841E0,-2.371050119E0,1.412700081E1,1.585950017E0,1.441212226E1
1.176931881E0,-2.218050003E0,1.393605042E1,1.855050087E0,1.423286541E1
1.178895841E0,-2.026050091E0,1.370595074E1,2.275950193E0,1.404058097E1
1.180860208E0,-1.950000048E0,1.359105110E1,2.851050138E0,1.402311154E1
1.182824456E0,-1.950000048E0,1.336095047E1,3.426000118E0,1.393036161E1
1.184788456E0,-1.911000133E0,1.313100052E1,4.000950336E0,1.385939031E1
1.186752531E0,-1.758000135E0,1.282395077E1,4.078050137E0,1.357110057E1
1.188716652E0,-1.567050099E0,1.228800011E1,3.886050224E0,1.298275699E1
1.190680760E0,-1.336950064E0,1.175100040E1,3.541050196E0,1.234554505E1
1.192644967E0,-1.106999993E0,1.117605019E1,3.310950041E0,1.170862660E1
1.194609145E0,-1.068000078E0,1.075500011E1,3.349050045E0,1.131489230E1
1.196572755E0,-7.999500632E-1,1.029495049E1,3.349050045E0,1.085550836E1
1.198536531E0,-5.320500135E-1,9.873000145E0,3.157950163E0,1.037939585E1
1.200500568E0,-3.400500119E-1,9.681000710E0,3.004050255E0,1.014207704E1
1.202464529E0,-3.400500119E-1,9.681000710E0,2.928000212E0,1.011981195E1
1.204428357E0,-4.170000255E-1,9.720000267E0,2.928000212E0,1.015999407E1
1.206392224E0,-6.079500318E-1,9.949950218E0,2.851050138E0,1.036820136E1
1.208356380E0,-6.850500107E-1,1.025595093E1,2.773950100E0,1.064653099E1
1.210320452E0,-6.850500107E-1,1.075500011E1,2.812950134E0,1.113786377E1
1.212284306E0,-7.999500632E-1,1.144395065E1,2.928000212E0,1.183964154E1
1.214248224E0,-9.529500604E-1,1.236405087E1,3.118950129E0,1.278693542E1
1.216212372E0,-1.106999993E0,1.351395035E1,3.388050079E0,1.397609339E1
1.218176452E0,-1.183050036E0,1.454895115E1,3.847950220E0,1.509563870E1
1.220140305E0,-1.183050036E0,1.531605053E1,4.116000175E0,1.590353636E1
1.222104224E0,-7.999500632E-1,1.569900036E1,4.153950214E0,1.625896167E1
1.224068012E0,-3.019500077E-1,1.577505112E1,4.116000175E0,1.630597648E1
1.226031839E0,4.050000105E-3,1.566000080E1,4.039050102E0,1.617249416E1
1.227995687E0,1.189500093E-1,1.539195061E1,3.963000298E0,1.589439096E1
1.229959529E0,2.340000123E-1,1.512405109E1,3.847950220E0,1.560763910E1
1.231923390E0,3.490500152E-1,1.470195103E1,3.618000269E0,1.514460715E1
1.233887236E0,4.639500082E-1,1.424205112E1,3.349050045E0,1.463787574E1
1.235851263E0,3.490500152E-1,1.389705086E1,3.157950163E0,1.425561320E1
1.237815236E0,5.020500422E-1,1.328400040E1,2.698050022E0,1.356451970E1
1.239779781E0,6.550500393E-1,1.278600025E1,2.275950193E0,1.300349346E1
1.241744159E0,8.470500112E-1,1.217295074E1,1.855050087E0,1.234258621E1
1.243708085E0,1.077000022E0,1.148295021E1,1.701000094E0,1.165810773E1
1.245672151E0,1.345050097E0,1.087005043E1,2.085000038E0,1.114963593E1
1.247635959E0,1.804950118E0,1.021800041E1,3.157950163E0,1.084610652E1
1.249599843E0,2.419050217E0,9.681000710E0,4.653000355E0,1.101017670E1
1.251563682E0,2.992950201E0,9.220950127E0,6.531000137E0,1.168921019E1
1.253527535E0,3.529950142E0,8.800050735E0,8.446949959E0,1.269851978E1
1.255491255E0,3.990000248E0,8.455050468E0,1.009500027E1,1.375925183E1
1.257455007E0,4.182000160E0,8.148000717E0,1.055505085E1,1.397455328E1
1.259418823E0,4.372950077E0,7.842000484E0,1.005705070E1,1.348198549E1
1.261382620E0,4.411950111E0,7.381950378E0,8.907000542E0,1.238116125E1
1.263346475E0,4.450050354E0,6.997950554E0,7.335000515E0,1.107142686E1
1.265310313E0,4.564949989E0,6.499950409E0,5.649000168E0,9.746759801E0
1.267274336E0,4.680000305E0,6.040050507E0,4.000950336E0,8.625092265E0
1.269238308E0,4.795050144E0,5.619000435E0,2.545050144E0,7.812998913E0
1.271203079E0,4.948050022E0,5.082000256E0,1.318050027E0,7.214373257E0
1.273167615E0,4.909950256E0,4.468950272E0,2.449500114E-1,6.643728513E0
1.275131705E0,4.642050266E0,3.894000292E0,-6.360000372E-1,6.092320165E0
1.277095925E0,4.027950287E0,3.241950035E0,-1.287000060E0,5.328319876E0
1.279059842E0,3.147000074E0,2.551950216E0,-1.747050047E0,4.412283223E0
1.281023848E0,1.996950150E0,1.900950074E0,-2.014950037E0,3.414885757E0
1.282986946E0,1.039050102E0,1.057950020E0,-2.130000114E0,2.595338869E0
1.284950310E0,1.570500135E-1,2.140500098E-1,-2.284050226E0,2.299427657E0
1.286914823E0,-4.930500090E-1,-3.589500189E-1,-2.322000027E0,2.400755621E0
1.288879000E0,-9.150000215E-1,-8.580000401E-1,-2.514000177E0,2.809552633E0
1.290842940E0,-1.336950064E0,-1.087950110E0,-2.820000172E0,3.305067607E0
1.292806939E0,-1.911000133E0,-1.126049995E0,-3.204000235E0,3.896861250E0
1.294770938E0,-2.295000076E0,-1.471050024E0,-3.664050102E0,4.566867271E0
1.296734937E0,-2.640000105E0,-1.585950017E0,-4.084949970E0,5.115823909E0
1.298699163E0,-2.869950056E0,-1.585950017E0,-4.392000198E0,5.481014187E0
1.300663322E0,-3.138000250E0,-1.471050024E0,-4.774950027E0,5.900100127E0
1.302627301E0,-3.483000278E0,-1.318050027E0,-4.927950382E0,6.176831047E0
1.304591329E0,-3.790050268E0,-1.126049995E0,-4.813050270E0,6.228797840E0
1.306555458E0,-4.096050262E0,-8.959500194E-1,-4.429950237E0,6.099574845E0
1.308519558E0,-4.363950253E0,-6.280500293E-1,-3.817050219E0,5.831670517E0
1.310482866E0,-4.633050442E0,-3.210000098E-1,-2.935050249E0,5.493879992E0
1.312446406E0,-4.863000393E0,2.295000106E-2,-1.939050078E0,5.235381049E0
1.314410439E0,-5.053950310E0,6.739500165E-1,-9.040500522E-1,5.178216764E0
1.316374327E0,-5.245950222E0,1.441050053E0,1.680000126E-1,5.442870841E0
1.318337671E0,-5.398950100E0,2.169000149E0,1.203000069E0,5.941416750E0
1.320301175E0,-5.476050377E0,3.088950157E0,2.008050203E0,6.600076244E0
1.322265574E0,-5.553000450E0,3.970950127E0,2.812950134E0,7.383559261E0
1.324229711E0,-5.553000450E0,5.005050182E0,3.426000118E0,8.223370242E0
1.326193729E0,-5.514000416E0,6.154950142E0,3.886050224E0,9.131757672E0
1.328157785E0,-5.361000061E0,7.305000305E0,4.192950249E0,9.984196658E0
1.330121730E0,-5.131050110E0,8.532000542E0,4.384050369E0,1.087853879E1
1.332085708E0,-4.900950432E0,9.796050072E0,4.461000443E0,1.182719058E1
1.334049756E0,-4.594050407E0,1.110000038E1,4.461000443E0,1.281467255E1
1.336013783E0,-4.288050175E0,1.236405087E1,4.308000088E0,1.377737249E1
1.337977929E0,-3.904950142E0,1.339905071E1,4.078050137E0,1.454007182E1
1.339942029E0,-3.483000278E0,1.431900024E1,4.000950336E0,1.526999222E1
1.341906013E0,-2.985000134E0,1.508595085E1,3.847950220E0,1.585253481E1
1.343870031E0,-2.601000071E0,1.573695087E1,3.847950220E0,1.640803294E1
1.345833893E0,-2.218050003E0,1.612005043E1,3.771000147E0,1.670317975E1
1.347797800E0,-1.834950089E0,1.638899994E1,3.694050074E0,1.690007002E1
1.349761755E0,-1.528050065E0,1.657995033E1,3.694050074E0,1.705507830E1
1.351725707E0,-1.260000110E0,1.665705109E1,3.655950069E0,1.710002696E1
1.353690076E0,-9.529500604E-1,1.688700104E1,3.808950186E0,1.733744558E1
1.355654322E0,-5.320500135E-1,1.677195168E1,3.963000298E0,1.724200718E1
1.357618281E0,-2.629500031E-1,1.696395111E1,4.269000053E0,1.749483185E1
1.359582324E0,-3.299999982E-2,1.738500023E1,4.423050404E0,1.793885996E1
1.361546671E0,2.340000123E-1,1.753905106E1,4.461000443E0,1.809899425E1
1.363510932E0,5.410500169E-1,1.784505081E1,4.576050282E0,1.843037736E1
1.365475834E0,8.089500666E-1,1.834305000E1,4.614000320E0,1.893174272E1
1.367440548E0,1.077000022E0,1.868805122E1,4.768050194E0,1.931676708E1
1.369404381E0,1.345050097E0,1.911000061E1,4.959000111E0,1.978870802E1
1.371368473E0,1.422000051E0,1.972305107E1,5.112000465E0,2.042433295E1
1.373332457E0,1.767000079E0,2.006805038E1,5.304000378E0,2.083221917E1
1.375296473E0,2.035050154E0,2.071995163E1,5.496000290E0,2.153285499E1
1.377260649E0,2.227050066E0,2.129505157E1,5.611050129E0,2.213420107E1
1.379224778E0,2.419050217E0,2.179305077E1,5.496000290E0,2.260519597E1
1.381188802E0,2.572050095E0,2.217600060E1,5.227050304E0,2.292842121E1
1.383152857E0,2.839950085E0,2.240595055E1,4.921050072E0,2.311511778E1
1.385116997E0,3.147000074E0,2.248305130E1,4.537950039E0,2.315133248E1
1.387081101E0,3.492000103E0,2.232900047E1,4.153950214E0,2.297898234E1
1.389045084E0,3.721950293E0,2.198505020E1,3.694050074E0,2.260179976E1
1.391009103E0,4.143000126E0,2.156295013E1,3.118950129E0,2.217776180E1
1.392973100E0,4.450050354E0,2.110305023E1,2.736000061E0,2.173999479E1
1.394937103E0,4.795050144E0,2.049000168E1,2.238000154E0,2.116226168E1
1.396901156E0,5.370000362E0,1.987695122E1,1.930950046E0,2.067990961E1
1.398865187E0,5.676000118E0,1.949295044E1,1.471050024E0,2.035573832E1
1.400829362E0,6.213000298E0,1.903305054E1,1.203000069E0,2.005755704E1
1.402793495E0,6.711000443E0,1.857299995E1,8.200500607E-1,1.976528108E1
1.404758373E0,7.210050106E0,1.815195084E1,3.979500234E-1,1.953551908E1
1.406723033E0,7.822950363E0,1.780695152E1,1.300500035E-1,1.945001254E1
1.408686921E0,8.473950386E0,1.738500023E1,-2.205000073E-2,1.934028320E1
1.410651035E0,8.818950653E0,1.711695099E1,-2.910000086E-1,1.925742929E1
1.412615195E0,9.010950089E0,1.700205040E1,-7.120500207E-1,1.925549154E1
1.414579341E0,9.202950478E0,1.684905052E1,-1.134000063E0,1.923202426E1
1.416543137E0,9.202950478E0,1.692495155E1,-1.402050018E0,1.931615973E1
1.418507035E0,9.279000282E0,1.707900047E1,-1.747050047E0,1.951523219E1
1.420470859E0,9.241050720E0,1.715505028E1,-2.169000149E0,1.960605340E1
1.422434714E0,9.202950478E0,1.734705162E1,-2.514000177E0,1.979734059E1
1.424398873E0,9.241050720E0,1.765395164E1,-2.743950129E0,2.011438016E1
1.426362942E0,9.088050842E0,1.799805069E1,-2.896950245E0,2.036945796E1
1.428326931E0,9.049050331E0,1.822800064E1,-2.859000206E0,2.055040636E1
1.430290944E0,8.781000137E0,1.853505135E1,-3.049950123E0,2.073538733E1
1.432254802E0,8.551050186E0,1.864995003E1,-3.319050074E0,2.078357979E1
1.434218709E0,8.091000557E0,1.864995003E1,-3.702000141E0,2.066372984E1
1.436182859E0,7.822950363E0,1.868805122E1,-4.084949970E0,2.066709044E1
1.438146937E0,7.285950184E0,1.853505135E1,-4.353000164E0,2.038582372E1
1.440110925E0,6.673050404E0,1.826700020E1,-4.582950115E0,1.998039864E1
1.442074939E0,6.213000298E0,1.803705025E1,-4.852050304E0,1.968448492E1
1.444038762E0,5.715000153E0,1.776900101E1,-5.082000256E0,1.934490502E1
1.446002637E0,5.178000450E0,1.746195030E1,-5.158050060E0,1.892978810E1
1.447966522E0,4.680000305E0,1.707900047E1,-5.043000221E0,1.841267257E1
1.449930404E0,4.450050354E0,1.657995033E1,-4.813050270E0,1.782871712E1
1.451894560E0,4.297049999E0,1.612005043E1,-4.660050392E0,1.732156847E1
1.453858635E0,3.760050297E0,1.562205029E1,-4.507050037E0,1.668831727E1
1.455822623E0,3.262050152E0,1.512405109E1,-4.315050125E0,1.606230215E1
1.457786637E0,2.725050211E0,1.462605095E1,-4.162050247E0,1.544894583E1
1.459750499E0,2.188950062E0,1.412700081E1,-3.855000257E0,1.480623792E1
1.461714406E0,1.729050040E0,1.366695023E1,-3.739950180E0,1.427453571E1
1.463678376E0,1.767000079E0,1.316895103E1,-3.549000263E0,1.375278021E1
1.465642327E0,2.878050089E0,1.270905018E1,-3.433950186E0,1.347572420E1
1.467605855E0,4.027950287E0,1.228800011E1,-3.241950035E0,1.333152543E1
1.469569497E0,3.376950264E0,1.201905060E1,-3.088950157E0,1.286090912E1
1.471533377E0,2.533950090E0,1.152105045E1,-2.974050045E0,1.216554480E1
1.473497187E0,2.035050154E0,1.106100082E1,-2.743950129E0,1.157654658E1
1.475460996E0,1.575000048E0,1.033305073E1,-2.206950188E0,1.068284567E1
1.477424805E0,1.192050099E0,9.720000267E0,-1.671000123E0,9.934366112E0
1.479387931E0,8.470500112E-1,9.106050491E0,-1.057050109E0,9.206248107E0
1.481351261E0,4.639500082E-1,8.455050468E0,-5.590500236E-1,8.486204391E0
1.483315240E0,-7.200000435E-2,7.765050411E0,-6.105000153E-2,7.765624186E0
1.485279029E0,-4.549500346E-1,6.997950554E0,2.070000172E-1,7.015777968E0
1.487242300E0,-9.919500351E-1,6.309000492E0,5.509500504E-1,6.410226052E0
1.489205723E0,-1.605000019E0,5.695050240E0,7.050000429E-1,5.958745451E0
1.491169831E0,-2.218050003E0,5.158950329E0,7.050000429E-1,5.659641276E0
1.493133731E0,-2.677950144E0,4.507050037E0,5.509500504E-1,5.271476356E0
1.495097973E0,-3.022950172E0,3.817050219E0,3.600000143E-1,4.882386724E0
1.497062115E0,-3.406050205E0,3.166050196E0,3.600000143E-1,4.664188231E0
1.499026812E0,-3.904950142E0,2.590950012E0,2.070000172E-1,4.690896139E0
1.500991346E0,-4.363950253E0,2.053950071E0,9.195000678E-2,4.824026068E0
1.502955076E0,-4.708950043E0,1.402950048E0,-1.369500011E-1,4.915407882E0
1.504919041E0,-4.824000359E0,7.890000343E-1,-3.289500177E-1,4.899153869E0
1.506884082E0,-4.633050442E0,2.140500098E-1,-4.060500264E-1,4.655733071E0
1.508848808E0,-4.633050442E0,-2.059500068E-1,-7.120500207E-1,4.691970485E0
1.510812685E0,-4.747950077E0,-5.130000114E-1,-1.287000060E0,4.945964830E0
1.512776810E0,-4.786050320E0,-8.190000653E-1,-1.747050047E0,5.160351019E0
1.514740992E0,-4.747950077E0,-1.164000034E0,-2.206950188E0,5.363632644E0
1.516705140E0,-4.900950432E0,-1.585950017E0,-2.667000055E0,5.800641506E0
1.518669160E0,-4.633050442E0,-1.930950046E0,-3.012000084E0,5.853705577E0
1.520633218E0,-4.747950077E0,-2.238000154E0,-3.472050190E0,6.293393929E0
1.522597208E0,-4.633050442E0,-2.506050110E0,-3.894000292E0,6.550471878E0
1.524561218E0,-4.594050407E0,-2.851050138E0,-4.315050125E0,6.917618349E0
1.526524666E0,-4.441050053E0,-3.157050133E0,-4.621950150E0,7.145090223E0
1.528488285E0,-4.326000214E0,-3.426000118E0,-4.890000343E0,7.373185066E0
1.530452485E0,-4.249050140E0,-3.616950274E0,-5.005050182E0,7.495817748E0
1.532416514E0,-4.018949986E0,-3.771000147E0,-4.927950382E0,7.393043762E0
1.534380330E0,-3.675000191E0,-3.924000263E0,-4.774950027E0,7.190518217E0
1.536344208E0,-3.214950085E0,-4.077000141E0,-4.468050003E0,6.849912775E0
1.538308292E0,-2.448000193E0,-4.153950214E0,-4.123950005E0,6.344680525E0
1.540272302E0,-1.795950055E0,-4.116000175E0,-3.778950214E0,5.869187232E0
1.542236257E0,-1.260000110E0,-4.000950336E0,-3.319050074E0,5.348952913E0
1.544200228E0,-9.529500604E-1,-3.961950302E0,-2.896950245E0,4.999748467E0
1.546164276E0,-7.999500632E-1,-3.771000147E0,-2.629050016E0,4.666076103E0
1.548128302E0,-7.230000496E-1,-3.579000235E0,-2.245050192E0,4.286283019E0
1.550092613E0,-6.850500107E-1,-3.349050045E0,-1.977000117E0,3.948918736E0
1.552056841E0,-5.320500135E-1,-3.157050133E0,-1.708950043E0,3.629125653E0
1.554020983E0,-6.079500318E-1,-2.889000177E0,-1.402050018E0,3.268282350E0
1.555985151E0,-7.230000496E-1,-2.620950222E0,-1.018950105E0,2.903509679E0
1.557948987E0,-7.620000243E-1,-2.391000032E0,-6.739500165E-1,2.598409863E0
1.559912920E0,-8.380500674E-1,-2.083950043E0,-2.140500098E-1,2.256322916E0
1.561876361E0,-7.999500632E-1,-1.816050053E0,3.600000143E-1,2.016818759E0
1.563839935E0,-7.999500632E-1,-1.509000063E0,9.349500537E-1,1.947083177E0
1.565804007E0,-6.469500065E-1,-1.279050112E0,1.510050058E0,2.082009769E0
1.567767933E0,-6.469500065E-1,-1.011000037E0,2.122950077E0,2.438766577E0
1.569731946E0,-6.850500107E-1,-6.660000086E-1,2.812950134E0,2.970780703E0
1.571695933E0,-6.469500065E-1,-3.589500189E-1,3.426000118E0,3.504977352E0
1.573659915E0,-6.469500065E-1,-1.680000126E-1,3.963000298E0,4.018972465E0
1.575623913E0,-6.079500318E-1,-5.295000225E-2,4.269000053E0,4.312397060E0
1.577587374E0,-4.930500090E-1,2.140500098E-1,4.921050072E0,4.950318124E0
1.579550992E0,-4.170000255E-1,4.440000355E-1,5.649000168E0,5.681745150E0
1.581515102E0,-3.780000210E-1,6.360000372E-1,5.725950241E0,5.773550574E0
1.583479067E0,-3.400500119E-1,7.890000343E-1,5.802000046E0,5.865267223E0
1.585443199E0,-1.480500102E-1,9.040500522E-1,5.764050484E0,5.836394716E0
1.587407289E0,-7.200000435E-2,1.018950105E0,5.725950241E0,5.816351905E0
1.589371634E0,4.050000105E-3,1.018950105E0,5.533950329E0,5.626978049E0
1.591335904E0,8.100000024E-2,1.057950020E0,5.457000256E0,5.559196977E0
1.593300218E0,2.340000123E-1,1.057950020E0,5.304000378E0,5.413541748E0
1.595264519E0,3.490500152E-1,1.018950105E0,5.227050304E0,5.336867069E0
1.597229374E0,5.410500169E-1,1.057950020E0,5.227050304E0,5.360414933E0
1.599194063E0,7.320000529E-1,1.018950105E0,5.112000465E0,5.263708973E0
1.601157991E0,8.470500112E-1,1.057950020E0,5.074050426E0,5.251927236E0
1.603122142E0,9.619500637E-1,1.134000063E0,4.996950150E0,5.213522309E0
1.605086116E0,1.039050102E0,1.134000063E0,4.843950272E0,5.082266767E0
1.607050142E0,1.192050099E0,1.210950017E0,4.614000320E0,4.916948478E0
1.609014092E0,1.269000053E0,1.249050021E0,4.269000053E0,4.625456577E0
1.610978065E0,1.345050097E0,1.210950017E0,3.963000298E0,4.356711037E0
1.612942114E0,1.422000051E0,1.210950017E0,3.541050196E0,4.003438594E0
1.614906140E0,1.690050125E0,1.134000063E0,3.118950129E0,3.724255022E0
1.616870092E0,1.959000111E0,1.057950020E0,2.506050110E0,3.352197314E0
1.618834065E0,2.227050066E0,1.018950105E0,1.855050087E0,3.072331710E0
1.620798073E0,2.457000017E0,8.659500480E-1,1.356000066E0,2.936912452E0
1.622762067E0,2.610000134E0,8.280000687E-1,7.429500222E-1,2.837192194E0
1.624726969E0,2.878050089E0,6.739500165E-1,5.295000225E-2,2.956380328E0
1.626691605E0,3.184950113E0,6.360000372E-1,-6.360000372E-1,3.309516478E0
1.628655677E0,3.337950230E0,5.980500579E-1,-1.402050018E0,3.669512210E0
1.630619915E0,3.529950142E0,5.590500236E-1,-1.939050078E0,4.066079210E0
1.632584041E0,3.798000097E0,4.830000103E-1,-2.437050104E0,4.538425604E0
1.634548209E0,4.105050087E0,4.440000355E-1,-2.782050133E0,4.978792543E0
1.636511864E0,4.335000038E0,4.830000103E-1,-2.704950094E0,5.132472051E0
1.638475670E0,4.717950344E0,4.830000103E-1,-2.169000149E0,5.215065302E0
1.640438802E0,5.331000328E0,6.739500165E-1,-9.040500522E-1,5.448952158E0
1.642402132E0,5.944950104E0,9.430500269E-1,8.580000401E-1,6.080126574E0
1.644366265E0,6.558000088E0,1.363950014E0,2.773950100E0,7.250001652E0
1.646330149E0,6.979950428E0,1.939050078E0,4.614000320E0,8.588866173E0
1.648293990E0,7.324050426E0,2.743950129E0,5.686950207E0,9.670179916E0
1.650257843E0,7.477950573E0,3.586950064E0,5.994000435E0,1.023298572E1
1.652221822E0,7.554000378E0,4.507050037E0,5.304000378E0,1.027174969E1
1.654185764E0,7.401000500E0,5.427000046E0,3.847950220E0,9.951575694E0
1.656149790E0,7.210050106E0,6.232050419E0,2.046000004E0,9.747276080E0
1.658113812E0,6.979950428E0,6.730050087E0,5.509500504E-1,9.711685132E0
1.660078349E0,6.711000443E0,6.960000515E0,-1.369500011E-1,9.669430666E0
1.662042735E0,6.366000175E0,7.381950378E0,5.295000225E-2,9.747920462E0
1.664005904E0,5.868000507E0,8.110050201E0,1.050000072E0,1.006522947E1
1.665969430E0,5.485050201E0,8.991000175E0,2.238000154E0,1.076719576E1
1.667933496E0,5.140050411E0,9.949950218E0,3.463950157E0,1.172265236E1
1.669897414E0,4.717950344E0,1.102305031E1,4.576050282E0,1.283381976E1
1.671861428E0,4.488000393E0,1.232595062E1,5.457000256E0,1.420739449E1
1.673825414E0,4.105050087E0,1.382100105E1,6.031950474E0,1.562868942E1
1.675789237E0,3.913050175E0,1.539195061E1,6.070950508E0,1.700236881E1
1.677753108E0,3.645000219E0,1.704000092E1,5.533950329E0,1.828311418E1
1.679716785E0,3.337950230E0,1.861200142E1,4.192950249E0,1.936825600E1
1.681680540E0,2.955000162E0,2.026005173E1,2.583000183E0,2.063670545E1
1.683645257E0,2.265000105E0,2.187000084E1,1.126049995E0,2.201579321E1
1.685609692E0,1.537050128E0,2.355600166E1,-1.759500057E-1,2.360675107E1
1.687572898E0,8.089500666E-1,2.531895065E1,-1.441050053E0,2.537282577E1
1.689536464E0,-3.299999982E-2,2.673705101E1,-2.629050016E0,2.686601738E1
1.691500532E0,-4.930500090E-1,2.803995132E1,-3.970050097E0,2.832389921E1
1.693464457E0,-4.930500090E-1,2.899800110E1,-4.774950027E0,2.939264047E1
1.695428470E0,4.050000105E-3,2.922795105E1,-5.503050327E0,2.974149798E1
1.697392457E0,3.109500110E-1,2.899800110E1,-6.385050297E0,2.969426923E1
1.699356459E0,4.260000288E-1,2.880705070E1,-7.075050354E0,2.966620946E1
1.701320457E0,4.200000316E-2,2.846205139E1,-7.228050232E0,2.936553837E1
1.703284522E0,-5.700000525E-1,2.842395210E1,-7.342950344E0,2.936264418E1
1.705248553E0,-8.770500422E-1,2.884500122E1,-7.150950432E0,2.973111845E1
1.707212728E0,-1.720050097E0,2.888400078E1,-6.652950287E0,2.969016370E1
1.709176860E0,-2.869950056E0,2.869200134E1,-5.809950352E0,2.941467453E1
1.711140659E0,-4.018949986E0,2.830905151E1,-4.852050304E0,2.900166803E1
1.713104555E0,-5.323050022E0,2.788695145E1,-3.931950092E0,2.866142275E1
1.715068567E0,-6.625950336E0,2.750400162E1,-2.859000206E0,2.843496448E1
1.717032548E0,-7.891050339E0,2.727405167E1,-1.786050081E0,2.844877053E1
1.718996507E0,-9.270000458E0,2.708205223E1,-1.096050024E0,2.864562422E1
1.720960473E0,-1.038195038E1,2.669895172E1,-8.659500480E-1,2.865953220E1
1.722924658E0,-1.107195091E1,2.639205170E1,-9.420000315E-1,2.863591895E1
1.724888778E0,-1.183800030E1,2.600895119E1,-1.326000094E0,2.860702832E1
1.726852934E0,-1.294995022E1,2.547195053E1,-2.245050192E0,2.866289805E1
1.728817082E0,-1.425300026E1,2.462895203E1,-3.088950157E0,2.862297866E1
1.730781103E0,-1.494300079E1,2.393895149E1,-3.855000257E0,2.848205923E1
1.732745161E0,-1.521105099E1,2.386305046E1,-4.852050304E0,2.871173352E1
1.734709330E0,-1.517295074E1,2.367105103E1,-5.350050449E0,2.862097362E1
1.736673467E0,-1.486605072E1,2.332605171E1,-5.580000401E0,2.821773479E1
1.738637464E0,-1.444500065E1,2.301900101E1,-5.542050362E0,2.773529833E1
1.740601488E0,-1.352505112E1,2.232900047E1,-5.311950207E0,2.664072230E1
1.742565798E0,-1.264305019E1,2.187000084E1,-5.350050449E0,2.582182594E1
1.744530024E0,-1.176195049E1,2.121795082E1,-5.464950085E0,2.486786271E1
1.746494346E0,-1.061205006E1,2.060505104E1,-5.427000046E0,2.380411864E1
1.748458640E0,-9.769050598E0,2.002995110E1,-5.119950294E0,2.286585186E1
1.750422801E0,-8.964000702E0,1.945500183E1,-4.852050304E0,2.196344228E1
1.752387011E0,-8.274000168E0,1.884195137E1,-4.507050037E0,2.106636443E1
1.754351110E0,-7.699050426E0,1.826700020E1,-4.084949970E0,2.023970084E1
1.756315242E0,-7.315950394E0,1.765395164E1,-3.586950064E0,1.944354262E1
1.758279579E0,-6.856050491E0,1.696395111E1,-3.165000200E0,1.856874503E1
1.760243855E0,-6.511050224E0,1.627395058E1,-2.782050133E0,1.774753632E1
1.762208004E0,-6.396000385E0,1.569900036E1,-2.704950094E0,1.716636794E1
1.764172180E0,-6.204000473E0,1.508595085E1,-1.900950074E0,1.642221502E1
1.766136195E0,-6.013050079E0,1.431900024E1,-1.287000060E0,1.558354608E1
1.768100257E0,-5.821050167E0,1.339905071E1,-8.269500136E-1,1.463225995E1
1.770064426E0,-5.706000328E0,1.247895050E1,-2.910000086E-1,1.372469768E1
1.772028563E0,-5.706000328E0,1.152105045E1,2.070000172E-1,1.285830052E1
1.773991981E0,-5.821050167E0,1.083105087E1,5.509500504E-1,1.230852688E1
1.775955623E0,-6.166050434E0,1.025595093E1,9.349500537E-1,1.200328451E1
1.777920179E0,-6.472050190E0,9.835050583E0,9.730500579E-1,1.181365651E1
1.779884467E0,-6.664050102E0,9.604950905E0,7.810500264E-1,1.171642799E1
1.781848644E0,-6.625950336E0,9.490050316E0,7.429500222E-1,1.159811397E1
1.783812853E0,-6.319050312E0,9.490050316E0,7.810500264E-1,1.142810094E1
1.785777532E0,-6.051000118E0,9.720000267E0,1.300500035E-1,1.145032404E1
1.787742077E0,-5.706000328E0,9.949950218E0,-2.140500098E-1,1.147195565E1
1.789705985E0,-5.092950344E0,1.025595093E1,-5.590500236E-1,1.146451960E1
1.791670079E0,-4.479000092E0,1.071600056E1,-5.970000029E-1,1.162972565E1
1.793633297E0,-3.520950079E0,1.121400070E1,-2.520000041E-1,1.175646227E1
1.795596771E0,-2.485950232E0,1.159800053E1,5.130000114E-1,1.187252011E1
1.797560545E0,-1.567050099E0,1.205805016E1,1.432950020E0,1.224359283E1
1.799524231E0,-8.770500422E-1,1.263300037E1,2.200050116E0,1.285309829E1
1.801488059E0,-1.870500147E-1,1.316895103E1,3.234000206E0,1.356152707E1
1.803451846E0,3.870000243E-1,1.378200054E1,4.384050369E0,1.446766068E1
1.805416604E0,9.619500637E-1,1.431900024E1,4.921050072E0,1.517154737E1
1.807381077E0,1.384050012E0,1.477905083E1,4.996950150E0,1.566223000E1
1.809344651E0,1.614000082E0,1.523895073E1,5.341950417E0,1.622858743E1
1.811308478E0,1.920000076E0,1.573695087E1,5.764050484E0,1.686897451E1
1.813272507E0,2.227050066E0,1.604400063E1,6.147000313E0,1.732499122E1
1.815236476E0,2.533950090E0,1.619700050E1,6.454050541E0,1.761869736E1
1.817200481E0,2.725050211E0,1.615904999E1,6.454050541E0,1.761236962E1
1.819164476E0,2.878050089E0,1.596705055E1,6.262050152E0,1.739089267E1
1.821128496E0,3.262050152E0,1.558395100E1,6.186000347E0,1.708119141E1
1.823092495E0,3.682950258E0,1.500900078E1,6.339000225E0,1.670380648E1
1.825056495E0,4.297049999E0,1.435695076E1,6.531000137E0,1.634749634E1
1.827020495E0,4.872000217E0,1.366695023E1,6.646050453E0,1.595906956E1
1.828984540E0,5.446050167E0,1.290105057E1,6.721950531E0,1.553322848E1
1.830948572E0,5.983050346E0,1.201905060E1,6.684000492E0,1.499767753E1
1.832912927E0,6.673050404E0,1.110000038E1,6.876000404E0,1.466352590E1
1.834877187E0,7.210050106E0,1.010295010E1,7.029000282E0,1.426398500E1
1.836841324E0,7.593000412E0,9.183000565E0,7.144050121E0,1.389311365E1
1.838805497E0,8.014050484E0,8.148000717E0,7.219950199E0,1.351823220E1
1.840769648E0,8.167950630E0,7.189950466E0,7.219950199E0,1.305903848E1
1.842733805E0,8.091000557E0,6.193950176E0,6.952050209E0,1.233532776E1
1.844698144E0,7.861050606E0,5.274000168E0,6.721950531E0,1.161015992E1
1.846662393E0,7.593000412E0,4.507050037E0,6.568950176E0,1.100537422E1
1.848626711E0,7.285950184E0,3.856050253E0,6.415950298E0,1.044598544E1
1.850591008E0,7.132950306E0,3.319050074E0,6.262050152E0,1.005526457E1
1.852554958E0,7.132950306E0,2.859000206E0,6.339000225E0,9.961716022E0
1.854519010E0,7.171050549E0,2.476050138E0,6.376950264E0,9.910614760E0
1.856483380E0,7.132950306E0,2.169000149E0,6.607050419E0,9.961759732E0
1.858447643E0,7.056000233E0,1.786050081E0,6.684000492E0,9.881952072E0
1.860412003E0,7.171050549E0,1.402950048E0,6.721950531E0,9.928587702E0
1.862376335E0,7.171050549E0,9.810000658E-1,6.799050331E0,9.930428616E0
1.864340819E0,7.285950184E0,5.980500579E-1,6.913950443E0,1.006207954E1
1.866305258E0,7.363050461E0,1.380000114E-1,6.760950089E0,9.997199717E0
1.868270103E0,7.363050461E0,-2.830500007E-1,6.376950264E0,9.744748538E0
1.870234816E0,7.324050426E0,-6.660000086E-1,5.841000080E0,9.391621404E0
1.872199055E0,7.210050106E0,-1.048950076E0,5.457000256E0,9.102964934E0
1.874163433E0,7.056000233E0,-1.509000063E0,5.112000465E0,8.842893714E0
1.876127368E0,6.787950516E0,-1.854000092E0,4.576050282E0,8.393677664E0
1.878091433E0,6.520050526E0,-2.199000120E0,3.924000263E0,7.921138709E0
1.880055592E0,6.366000175E0,-2.544000149E0,3.196050167E0,7.563903203E0
1.882019730E0,6.136050224E0,-2.889000177E0,2.430000067E0,7.204327498E0
1.883983707E0,5.983050346E0,-3.271950245E0,1.701000094E0,7.028225322E0
1.885947732E0,5.752950191E0,-3.616950274E0,1.203000069E0,6.901157465E0
1.887912448E0,5.599950314E0,-3.961950302E0,6.660000086E-1,6.892027983E0
1.889876961E0,5.407950401E0,-4.269000053E0,2.830500007E-1,6.895680264E0
1.891841205E0,5.178000450E0,-4.537050247E0,1.300500035E-1,6.885740818E0
1.893805549E0,4.948050022E0,-4.767000198E0,9.195000678E-2,6.871385939E0
1.895769625E0,4.717950344E0,-4.920000076E0,-6.105000153E-2,6.816830884E0
1.897733780E0,4.450050354E0,-5.112000465E0,-3.289500177E-1,6.785551195E0
1.899697934E0,4.105050087E0,-5.227050304E0,-5.970000029E-1,6.673072763E0
1.901662088E0,3.645000219E0,-5.149950027E0,-1.018950105E0,6.391108761E0
1.903626255E0,3.262050152E0,-5.112000465E0,-1.671000123E0,6.290132062E0
1.905590409E0,2.878050089E0,-5.035050392E0,-2.245050192E0,6.218935209E0
1.907554607E0,2.457000017E0,-4.767000198E0,-2.475000143E0,5.906501984E0
1.909518792E0,1.959000111E0,-4.345950127E0,-2.437050104E0,5.353893644E0
1.911482716E0,1.614000082E0,-3.771000147E0,-2.206950188E0,4.657903767E0
1.913446717E0,1.345050097E0,-3.196050167E0,-1.708950043E0,3.865799617E0
1.915411081E0,1.269000053E0,-2.620950222E0,-1.210950017E0,3.153750330E0
1.917375335E0,1.153950095E0,-2.122950077E0,-6.739500165E-1,2.508530741E0
1.919339697E0,1.077000022E0,-1.663050056E0,-2.520000041E-1,1.997290298E0
1.921304028E0,9.240000248E-1,-1.240950108E0,-2.205000073E-2,1.547326539E0
1.923268107E0,8.089500666E-1,-9.340500236E-1,5.295000225E-2,1.236791559E0
1.925232260E0,6.550500393E-1,-5.509500504E-1,1.680000126E-1,8.722731890E-1
1.927194806E0,6.169500351E-1,-3.589500189E-1,2.449500114E-1,7.546343286E-1
1.929157813E0,5.410500169E-1,-2.059500068E-1,3.979500234E-1,7.025060478E-1
1.931122163E0,6.169500351E-1,-1.680000126E-1,5.509500504E-1,8.440363191E-1
1.933086119E0,5.410500169E-1,-1.290000081E-1,4.750500321E-1,7.314702016E-1
1.935050487E0,5.020500422E-1,-9.105000645E-2,4.750500321E-1,6.971491100E-1
1.937014734E0,5.790000558E-1,2.295000106E-2,3.220500052E-1,6.629358740E-1
1.938979788E0,6.550500393E-1,6.105000153E-2,2.070000172E-1,6.896859168E-1
1.940944595E0,6.940500140E-1,1.380000114E-1,5.295000225E-2,7.096147743E-1
1.942909043E0,8.470500112E-1,1.380000114E-1,-1.369500011E-1,8.690759618E-1
1.944873597E0,8.850000501E-1,1.759500057E-1,-2.520000041E-1,9.368497719E-1
1.946837682E0,1.039050102E0,1.759500057E-1,-3.289500177E-1,1.103988964E0
1.948801905E0,1.077000022E0,2.140500098E-1,-5.209500194E-1,1.215374583E0
1.950766415E0,1.114950061E0,2.910000086E-1,-6.360000372E-1,1.316165146E0
1.952730835E0,1.192050099E0,3.679500222E-1,-5.970000029E-1,1.383032777E0
1.954695124E0,1.269000053E0,4.060500264E-1,-6.360000372E-1,1.476392159E0
1.956659452E0,1.306950092E0,4.440000355E-1,-6.360000372E-1,1.519786374E0
1.958623711E0,1.422000051E0,5.209500194E-1,-7.510500550E-1,1.690428718E0
1.960587991E0,1.498950124E0,6.360000372E-1,-9.040500522E-1,1.862432285E0
1.962552188E0,1.690050125E0,6.739500165E-1,-1.134000063E0,2.143929615E0
1.964516395E0,1.920000076E0,6.739500165E-1,-1.479000092E0,2.515561605E0
1.966480359E0,2.111999989E0,7.129500508E-1,-1.900950074E0,2.929582378E0
1.968444395E0,2.341950178E0,7.510500550E-1,-2.284050226E0,3.356440415E0
1.970408884E0,2.610000134E0,7.890000343E-1,-2.551950216E0,3.734577842E0
1.972373240E0,3.031950235E0,8.659500480E-1,-2.398950100E0,3.962013793E0
1.974337360E0,3.376950264E0,1.057950020E0,-1.632000089E0,3.896982887E0
1.976301549E0,3.721950293E0,1.326000094E0,-2.140500098E-1,3.956893685E0
1.978265156E0,3.913050175E0,1.633050084E0,1.969950080E0,4.675416299E0
1.980228934E0,3.874950171E0,2.208000183E0,4.729050159E0,6.500339918E0
1.982193557E0,3.721950293E0,2.859000206E0,7.948950291E0,9.231067483E0
1.984157932E0,3.453000069E0,3.586950064E0,1.082295036E1,1.191325626E1
1.986122179E0,3.070050240E0,4.392000198E0,1.254795074E1,1.364426407E1
1.988086467E0,2.764050245E0,5.119950294E0,1.366005039E1,1.484758706E1
1.990050598E0,2.380050182E0,5.887050152E0,1.434900093E1,1.569126592E1
1.992014775E0,2.074050188E0,6.499950409E0,1.423395061E1,1.578468845E1
1.993979149E0,1.767000079E0,7.305000305E0,1.308495045E1,1.508977293E1
1.995943465E0,1.459950089E0,8.148000717E0,1.135995007E1,1.405595374E1
1.997908077E0,1.230000019E0,9.067950249E0,9.328050613E0,1.306725488E1
1.999872609E0,1.077000022E0,1.029495049E1,6.607050419E0,1.228002646E1
2.001836339E0,7.699500322E-1,1.171305084E1,3.273000240E0,1.218609509E1
2.003800304E0,3.870000243E-1,1.313100052E1,1.300500035E-1,1.313734588E1
2.005764534E0,-7.200000435E-2,1.477905083E1,-2.206950188E0,1.494309729E1
2.007728686E0,-6.850500107E-1,1.661894989E1,-3.625050068E0,1.702350660E1
2.009693151E0,-1.452000022E0,1.891800117E1,-4.545000076E0,1.951041000E1
2.011657527E0,-2.793000221E0,2.160105133E1,-5.772000313E0,2.253269306E1
2.013621824E0,-4.363950253E0,2.409300041E1,-6.538050175E0,2.534290494E1
2.015586145E0,-6.088950157E0,2.685195160E1,-6.691050529E0,2.833500972E1
2.017550270E0,-7.431000233E0,2.949705124E1,-6.691050529E0,3.114588181E1
2.019514452E0,-8.656949997E0,3.271605301E1,-6.193050385E0,3.440402274E1
2.021478781E0,-9.462000847E0,3.639599991E1,-5.158050060E0,3.795792078E1
2.023443066E0,-1.061205006E1,3.999900055E1,-4.162050247E0,4.159156541E1
2.025407377E0,-1.183800030E1,4.383105087E1,-4.545000076E0,4.562845929E1
2.027371681E0,-1.199205017E1,4.724205399E1,-4.507050037E0,4.894828324E1
2.029336215E0,-1.183800030E1,4.973400116E1,-4.736999989E0,5.134246090E1
2.031300681E0,-1.156995010E1,5.157300186E1,-5.848050117E0,5.317741961E1
2.033264764E0,-1.087995052E1,5.245500183E1,-6.805950165E0,5.400205087E1
2.035228972E0,-9.922050476E0,5.203305435E1,-6.997950554E0,5.343086320E1
2.037193117E0,-8.619000435E0,5.103705215E1,-6.499950409E0,5.216624595E1
2.039157280E0,-7.584000587E0,4.931205368E1,-5.158050060E0,5.015776294E1
2.041121747E0,-6.664050102E0,4.643805313E1,-4.123950005E0,4.709468448E1
2.043086124E0,-5.590950489E0,4.344795227E1,-3.586950064E0,4.395280986E1
2.045050421E0,-4.326000214E0,4.061205292E1,-2.974050045E0,4.094994620E1
2.047014741E0,-2.946000099E0,3.800505066E1,-2.514000177E0,3.820187154E1
2.048979047E0,-1.413000107E0,3.562905121E1,-2.398950100E0,3.573766670E1
2.050943357E0,4.050000105E-3,3.344400024E1,-2.284050226E0,3.352190410E1
2.052908429E0,1.345050097E0,3.152805138E1,-2.245050192E0,3.163648896E1
2.054873278E0,2.494950056E0,2.965005112E1,-2.514000177E0,2.986085236E1
2.056837499E0,3.568050146E0,2.792505074E1,-3.049950123E0,2.831680837E1
2.058801900E0,4.411950111E0,2.631600189E1,-3.664050102E0,2.693366894E1
2.060766192E0,5.101050377E0,2.485905075E1,-4.353000164E0,2.574765484E1
2.062730516E0,5.560950279E0,2.359395027E1,-5.158050060E0,2.478314221E1
2.064694955E0,5.868000507E0,2.244405174E1,-6.040050507E0,2.397188142E1
2.066659360E0,6.021000385E0,2.152500153E1,-6.921000481E0,2.339825600E1
2.068623692E0,6.250950336E0,2.052795029E1,-7.650000572E0,2.278143173E1
2.070588049E0,6.328050137E0,1.968495178E1,-8.377950668E0,2.230989921E1
2.072552527E0,6.366000175E0,1.895700073E1,-8.761050224E0,2.183231174E1
2.074516970E0,6.405000210E0,1.819005013E1,-9.259050369E0,2.139233426E1
2.076481391E0,6.328050137E0,1.746195030E1,-9.528000832E0,2.087454734E1
2.078445818E0,6.250950336E0,1.681005096E1,-9.681000710E0,2.038072541E1
2.080410124E0,6.136050224E0,1.627395058E1,-9.681000710E0,1.990513387E1
2.082374453E0,5.905950069E0,1.562205029E1,-9.604050636E0,1.926568166E1
2.084338576E0,5.599950314E0,1.497105026E1,-9.144000053E0,1.841479097E1
2.086302760E0,5.485050201E0,1.454895115E1,-9.144000053E0,1.803802906E1
2.088267088E0,5.407950401E0,1.412700081E1,-8.991000175E0,1.759704985E1
2.090231374E0,5.025000095E0,1.378200054E1,-8.032950401E0,1.672490529E1
2.092195371E0,4.833000183E0,1.316895103E1,-7.150950432E0,1.574532484E1
2.094159453E0,4.756950378E0,1.236405087E1,-6.538050175E0,1.477309821E1
2.096123439E0,4.795050144E0,1.178895092E1,-5.733000278E0,1.395847993E1
2.098087453E0,4.833000183E0,1.125300026E1,-4.507050037E0,1.304995807E1
2.100051451E0,5.101050377E0,1.056300068E1,-3.817050219E0,1.233562202E1
2.102015453E0,5.178000450E0,1.002600002E1,-2.896950245E0,1.165009381E1
2.103979631E0,5.293050289E0,9.298050880E0,-2.014950037E0,1.088715551E1
2.105943758E0,5.254950047E0,8.569950104E0,-1.441050053E0,1.015554873E1
2.107908232E0,5.062950134E0,7.803000450E0,-8.659500480E-1,9.341849366E0
2.109872605E0,5.025000095E0,7.036950111E0,-1.759500057E-1,8.648713848E0
2.111835866E0,4.909950256E0,6.232050419E0,2.449500114E-1,7.937635949E0
2.113799453E0,4.642050266E0,5.427000046E0,3.600000143E-1,7.150563627E0
2.115764725E0,4.143000126E0,4.736999989E0,2.449500114E-1,6.297905957E0
2.117729514E0,3.645000219E0,4.123950005E0,-6.105000153E-2,5.504245393E0
2.119693605E0,3.070050240E0,3.357000113E0,-1.369500011E-1,4.551199131E0
2.121657900E0,2.265000105E0,2.590950012E0,-3.289500177E-1,3.457087727E0
2.123621985E0,1.690050125E0,2.016000032E0,-4.819500148E-1,2.674472167E0
2.125586131E0,1.345050097E0,1.288050056E0,-3.670500219E-1,1.898146050E0
2.127549205E0,9.619500637E-1,6.739500165E-1,-2.520000041E-1,1.201274553E0
2.129512593E0,1.960500032E-1,9.900000691E-2,-2.205000073E-2,2.207324345E-1
2.131476697E0,-1.480500102E-1,-2.440500110E-1,1.300500035E-1,3.136753367E-1
2.133440591E0,-4.930500090E-1,-7.039500475E-1,3.600000143E-1,9.317961102E-1
2.135404834E0,-9.529500604E-1,-1.087950110E0,4.750500321E-1,1.522308048E0
2.137368975E0,-1.260000110E0,-1.356000066E0,4.360500276E-1,1.901703468E0
2.139333288E0,-1.605000019E0,-1.585950017E0,5.509500504E-1,2.322672701E0
2.141297567E0,-1.987950087E0,-1.738950133E0,5.130000114E-1,2.690550524E0
2.143262916E0,-2.256000042E0,-1.930950046E0,2.449500114E-1,2.979614870E0
2.145227951E0,-2.332950115E0,-2.238000154E0,1.300500035E-1,3.235461935E0
2.147192541E0,-2.332950115E0,-2.467050076E0,-6.105000153E-2,3.395985780E0
2.149157261E0,-2.256000042E0,-2.773950100E0,-4.440000355E-1,3.602980902E0
2.151121692E0,-2.026050091E0,-3.118950129E0,-8.659500480E-1,3.818716847E0
2.153086198E0,-1.834950089E0,-3.502050161E0,-1.210950017E0,4.134948259E0
2.155050652E0,-1.605000019E0,-3.886050224E0,-1.747050047E0,4.552976529E0
2.157015121E0,-1.375050068E0,-4.269000053E0,-2.206950188E0,4.998575125E0
2.158979356E0,-1.297950029E0,-4.651950359E0,-2.629050016E0,5.498838097E0
2.160943660E0,-1.144950032E0,-5.035050392E0,-3.088950157E0,6.016997266E0
2.162908012E0,-9.529500604E-1,-5.304000378E0,-3.394950151E0,6.369161668E0
2.164872350E0,-9.150000215E-1,-5.649000168E0,-3.702000141E0,6.815660862E0
2.166836788E0,-9.919500351E-1,-5.955000401E0,-3.778950214E0,7.122251004E0
2.168801196E0,-1.030050039E0,-6.147000313E0,-3.739950180E0,7.268689241E0
2.170765308E0,-1.144950032E0,-6.376950264E0,-3.549000263E0,7.387273388E0
2.172729506E0,-1.375050068E0,-6.492000103E0,-3.241950035E0,7.385598693E0
2.174693836E0,-1.681950092E0,-6.568950176E0,-2.704950094E0,7.300466940E0
2.176658124E0,-2.065050125E0,-6.568950176E0,-2.169000149E0,7.219425191E0
2.178622076E0,-2.410050154E0,-6.454050541E0,-1.555950046E0,7.062867029E0
2.180586126E0,-2.869950056E0,-6.223950386E0,-9.040500522E-1,6.913138088E0
2.182549036E0,-3.138000250E0,-6.070050240E0,-9.900000691E-2,6.833912238E0
2.184512280E0,-3.367950201E0,-5.764050484E0,7.050000429E-1,6.713001683E0
2.186476237E0,-3.367950201E0,-5.419050217E0,1.585950017E0,6.574528977E0
2.188439979E0,-3.100050211E0,-5.074050426E0,2.353049994E0,6.394774688E0
2.190404429E0,-2.677950144E0,-4.690050125E0,3.273000240E0,6.315102352E0
2.192368672E0,-2.448000193E0,-4.269000053E0,4.078050137E0,6.391209535E0
2.194333171E0,-2.371050119E0,-3.694050074E0,4.690950394E0,6.424398821E0
2.196297595E0,-2.332950115E0,-3.157050133E0,5.188950062E0,6.506521692E0
2.198261848E0,-2.332950115E0,-2.659050226E0,5.457000256E0,6.503234283E0
2.200226145E0,-2.140950203E0,-2.199000120E0,5.686950207E0,6.462249759E0
2.202190634E0,-1.911000133E0,-1.854000092E0,5.802000046E0,6.383763966E0
2.204155066E0,-1.795950055E0,-1.356000066E0,5.956050396E0,6.367001578E0
2.206119218E0,-1.642950058E0,-9.340500236E-1,6.147000313E0,6.430967826E0
2.208083453E0,-1.144950032E0,-5.890500546E-1,6.799050331E0,6.919897105E0
2.210046808E0,-1.030050039E0,-2.440500110E-1,6.799050331E0,6.880962788E0
2.212010434E0,-7.999500632E-1,2.295000106E-2,6.721950531E0,6.769421375E0
2.213974317E0,-6.850500107E-1,2.910000086E-1,6.646050453E0,6.687597562E0
2.215938124E0,-6.079500318E-1,6.360000372E-1,6.454050541E0,6.513744520E0
2.217902202E0,-5.320500135E-1,9.040500522E-1,6.262050152E0,6.349303570E0
2.219866201E0,-4.549500346E-1,1.134000063E0,6.070950508E0,6.192687280E0
2.221830322E0,-3.019500077E-1,1.363950014E0,5.764050484E0,5.930919948E0
2.223794417E0,-1.870500147E-1,1.633050084E0,5.533950329E0,5.772906246E0
2.225758941E0,-1.099500060E-1,1.863000035E0,5.304000378E0,5.622746495E0
2.227723340E0,-7.200000435E-2,2.131050110E0,5.074050426E0,5.503866487E0
2.229687453E0,-7.200000435E-2,2.322000027E0,4.806000233E0,5.338024575E0
2.231651650E0,-7.200000435E-2,2.551950216E0,4.537950039E0,5.206786385E0
2.233615827E0,-3.299999982E-2,2.743950129E0,4.269000053E0,5.074910124E0
2.235580020E0,1.189500093E-1,2.896950245E0,3.847950220E0,4.818006924E0
2.237545202E0,2.719500065E-1,3.204000235E0,3.463950157E0,4.726364882E0
2.239510095E0,5.410500169E-1,3.319050074E0,3.043050051E0,4.535303973E0
2.241474168E0,8.089500666E-1,3.549000263E0,2.583000183E0,4.463372382E0
2.243438482E0,1.153950095E0,3.741000175E0,2.008050203E0,4.399880539E0
2.245402977E0,1.306950092E0,3.894000292E0,1.471050024E0,4.362951408E0
2.247367412E0,1.498950124E0,4.047000408E0,8.959500194E-1,4.407696702E0
2.249332599E0,1.804950118E0,4.162050247E0,1.680000126E-1,4.539684041E0
2.251297566E0,2.111999989E0,4.201050282E0,-6.360000372E-1,4.744877603E0
2.253261716E0,2.341950178E0,4.239000320E0,-1.479000092E0,5.063723494E0
2.255226106E0,2.494950056E0,4.239000320E0,-2.169000149E0,5.375728894E0
2.257190421E0,2.572050095E0,4.162050247E0,-2.935050249E0,5.705490681E0
2.259154743E0,2.572050095E0,4.123950005E0,-3.510000229E0,5.995206997E0
2.261118868E0,2.494950056E0,4.085999966E0,-4.047000408E0,6.268842302E0
2.263083050E0,2.457000017E0,3.856050253E0,-4.392000198E0,6.340003027E0
2.265047603E0,2.341950178E0,3.664050102E0,-4.698000431E0,6.401656179E0
2.267012048E0,2.111999989E0,3.625950098E0,-4.890000343E0,6.443614003E0
2.268976648E0,1.920000076E0,3.433950186E0,-4.966950417E0,6.336324693E0
2.270941202E0,1.729050040E0,3.396000147E0,-4.966950417E0,6.260433490E0
2.272905469E0,1.614000082E0,3.280950069E0,-4.698000431E0,5.953220781E0
2.274869820E0,1.767000079E0,3.166050196E0,-3.817050219E0,5.264602121E0
2.276833624E0,1.996950150E0,3.088950157E0,-2.322000027E0,4.349839893E0
2.278797589E0,2.341950178E0,3.166050196E0,-9.900000691E-2,3.939340742E0
2.280761369E0,2.533950090E0,3.357000113E0,2.506050110E0,4.895982023E0
2.282725204E0,2.725050211E0,3.664050102E0,5.380950451E0,7.057321699E0
2.284689457E0,2.917050123E0,4.162050247E0,8.025000572E0,9.499077738E0
2.286653587E0,3.031950235E0,4.736999989E0,1.001805019E1,1.148883026E1
2.288617925E0,3.031950235E0,5.389050484E0,1.120695019E1,1.279962186E1
2.290582202E0,3.031950235E0,6.117000103E0,1.159005070E1,1.345138237E1
2.292546475E0,2.992950201E0,6.922050476E0,1.120695019E1,1.350808151E1
2.294510747E0,2.955000162E0,7.842000484E0,1.005705070E1,1.309096125E1
2.296475060E0,2.955000162E0,8.761950493E0,8.409000397E0,1.249860352E1
2.298439360E0,2.992950201E0,9.720000267E0,6.415950298E0,1.202499789E1
2.300403490E0,3.108000040E0,1.067805004E1,4.345950127E0,1.194017167E1
2.302367670E0,3.223050117E0,1.159800053E1,2.545050144E0,1.230361526E1
2.304332881E0,3.184950113E0,1.255605030E1,1.126049995E0,1.300254956E1
2.306297803E0,2.878050089E0,1.351395035E1,-2.910000086E-1,1.382008348E1
2.308261691E0,2.341950178E0,1.458705044E1,-1.326000094E0,1.483324130E1
2.310225882E0,1.690050125E0,1.581405067E1,-1.939050078E0,1.602187203E1
2.312190163E0,1.459950089E0,1.704000092E1,-2.284050226E0,1.725427399E1
2.314154418E0,1.614000082E0,1.845795059E1,-2.245050192E0,1.866390063E1
2.316118406E0,2.035050154E0,1.980000114E1,-1.824000120E0,1.998770749E1
2.318082483E0,2.265000105E0,2.133300018E1,-9.810000658E-1,2.147532266E1
2.320046064E0,2.725050211E0,2.271300125E1,-2.205000073E-2,2.287590022E1
2.322009791E0,3.568050146E0,2.393895149E1,9.730500579E-1,2.422294794E1
2.323974377E0,4.564949989E0,2.497395134E1,1.663050056E0,2.544214514E1
2.325938712E0,5.446050167E0,2.554905128E1,2.008050203E0,2.620010972E1
2.327903055E0,5.944950104E0,2.562600136E1,2.467950106E0,2.642205812E1
2.329867399E0,6.442950249E0,2.554905128E1,2.583000183E0,2.647522463E1
2.331831657E0,7.018050194E0,2.558700180E1,2.161050081E0,2.661987654E1
2.333795940E0,7.477950573E0,2.574105072E1,1.471050024E0,2.684558483E1
2.335761152E0,7.477950573E0,2.597100067E1,6.660000086E-1,2.703435179E1
2.337726092E0,7.248000145E0,2.631600189E1,5.295000225E-2,2.729593862E1
2.339690118E0,6.520050526E0,2.646900177E1,-7.510500550E-1,2.727055536E1
2.341654439E0,5.293050289E0,2.650695038E1,-2.245050192E0,2.712333037E1
2.343618745E0,3.492000103E0,2.635395050E1,-3.855000257E0,2.686234909E1
2.345583055E0,1.077000022E0,2.593200111E1,-5.235000134E0,2.647704359E1
2.347546776E0,-1.183050036E0,2.539605141E1,-6.423000336E0,2.622239439E1
2.349510670E0,-3.022950172E0,2.466705132E1,-7.650000572E0,2.600238753E1
2.351475033E0,-4.363950253E0,2.397795105E1,-8.646000862E0,2.585999863E1
2.353439269E0,-5.323050022E0,2.321100044E1,-9.298050880E0,2.556441185E1
2.355403410E0,-6.088950157E0,2.278905106E1,-9.718950272E0,2.551223543E1
2.357367579E0,-6.778950214E0,2.252100182E1,-9.718950272E0,2.544813713E1
2.359331909E0,-7.507050514E0,2.225295067E1,-9.489000320E0,2.532964169E1
2.361296192E0,-8.274000168E0,2.213805199E1,-8.799000740E0,2.521854156E1
2.363260910E0,-9.154950142E0,2.198505020E1,-8.148000717E0,2.517032896E1
2.365225500E0,-1.026705074E1,2.194605064E1,-7.611000538E0,2.539623592E1
2.367189895E0,-1.111005020E1,2.187000084E1,-7.113000393E0,2.554065243E1
2.369154348E0,-1.180005074E1,2.183100128E1,-6.768000126E0,2.572235681E1
2.371118631E0,-1.241295052E1,2.167800140E1,-6.652950287E0,2.585108959E1
2.373082964E0,-1.291095066E1,2.160105133E1,-6.615000248E0,2.602030541E1
2.375046952E0,-1.302600098E1,2.137095070E1,-6.346950531E0,2.582010876E1
2.377011041E0,-1.294995022E1,2.110305023E1,-6.270000458E0,2.554119898E1
2.378975340E0,-1.268205070E1,2.079600143E1,-6.423000336E0,2.519053431E1
2.380939577E0,-1.233705044E1,2.052795029E1,-6.538050175E0,2.482630977E1
2.382903537E0,-1.195305061E1,2.022105026E1,-6.576000214E0,2.439282828E1
2.384867579E0,-1.149300098E1,1.999200058E1,-6.691050529E0,2.401123312E1
2.386831201E0,-1.087995052E1,1.980000114E1,-6.615000248E0,2.354084954E1
2.388794954E0,-1.018995094E1,1.960800171E1,-6.499950409E0,2.303384871E1
2.390758995E0,-9.538950920E0,1.930200005E1,-6.307950497E0,2.243544138E1
2.392722952E0,-9.079050064E0,1.888005066E1,-6.040050507E0,2.180292809E1
2.394687184E0,-8.619000435E0,1.857299995E1,-5.617950439E0,2.123216576E1
2.396651336E0,-8.082000732E0,1.826700020E1,-5.082000256E0,2.061137450E1
2.398615495E0,-7.546050549E0,1.807500076E1,-4.545000076E0,2.010735082E1
2.400579649E0,-7.086000443E0,1.795995140E1,-4.200000286E0,1.975882737E1
2.402543938E0,-6.778950214E0,1.807500076E1,-3.931950092E0,1.970076268E1
2.404508188E0,-6.511050224E0,1.803705025E1,-3.739950180E0,1.953755829E1
2.406472505E0,-6.280950069E0,1.795995140E1,-3.586950064E0,1.936172510E1
2.408436803E0,-6.013050079E0,1.765395164E1,-3.088950157E0,1.890397823E1
2.410400793E0,-5.821050167E0,1.730895042E1,-2.704950094E0,1.846080022E1
2.412364877E0,-5.590950489E0,1.665705109E1,-2.130000114E0,1.769895417E1
2.414329177E0,-5.361000061E0,1.592895031E1,-1.516950130E0,1.687521607E1
2.416293413E0,-5.053950310E0,1.489395046E1,-8.269500136E-1,1.574979430E1
2.418256518E0,-5.092950344E0,1.397400093E1,1.500000060E-2,1.487316611E1
2.420219954E0,-5.361000061E0,1.351395035E1,8.200500607E-1,1.456158157E1
2.422184204E0,-5.668050289E0,1.320795059E1,1.395000100E0,1.444031780E1
2.424148202E0,-5.898000240E0,1.305405045E1,1.548000097E0,1.440801666E1
2.426112382E0,-5.935950279E0,1.305405045E1,1.395000100E0,1.440797571E1
2.428076509E0,-5.821050167E0,1.286295033E1,1.011000037E0,1.415493685E1
2.430041569E0,-5.743950367E0,1.244100094E1,4.360500276E-1,1.370990918E1
2.432006355E0,-5.629050255E0,1.198095036E1,-9.900000691E-2,1.323779359E1
2.433970598E0,-5.706000328E0,1.163595009E1,-1.759500057E-1,1.296089243E1
2.435935021E0,-5.668050289E0,1.132905006E1,-1.369500011E-1,1.266858022E1
2.437898363E0,-5.398950100E0,1.136805058E1,1.500000060E-2,1.258496965E1
2.439862021E0,-4.863000393E0,1.148295021E1,5.509500504E-1,1.248240619E1
2.441826484E0,-4.288050175E0,1.159800053E1,1.050000072E0,1.240981429E1
2.443790711E0,-3.790050268E0,1.152105045E1,1.126049995E0,1.218060233E1
2.445755198E0,-3.138000250E0,1.144395065E1,1.240950108E0,1.193109422E1
2.447719619E0,-2.524950027E0,1.132905006E1,1.318050027E0,1.168160964E1
2.449684223E0,-1.758000135E0,1.110000038E1,1.432950020E0,1.132933885E1
2.451648773E0,-1.106999993E0,1.098495007E1,1.471050024E0,1.113815807E1
2.453613040E0,-5.320500135E-1,1.102305031E1,1.585950017E0,1.114925795E1
2.455577390E0,8.100000024E-2,1.113795090E1,1.740000129E0,1.127333631E1
2.457542557E0,5.020500422E-1,1.113795090E1,1.855050087E0,1.130253137E1
2.459507508E0,9.619500637E-1,1.136805058E1,2.430000067E0,1.166459696E1
2.461471752E0,1.114950061E0,1.163595009E1,3.081000090E0,1.208846598E1
2.463436203E0,1.000050068E0,1.209600067E1,3.655950069E0,1.267593402E1
2.465400621E0,1.039050102E0,1.259400082E1,4.461000443E0,1.340108229E1
2.467365049E0,9.240000248E-1,1.309305096E1,5.341950417E0,1.417103361E1
2.469329016E0,6.169500351E-1,1.370595074E1,6.109050274E0,1.501846224E1
2.471293121E0,8.470500112E-1,1.405095100E1,7.182000160E0,1.580277963E1
2.473257417E0,1.384050012E0,1.401195049E1,8.101950645E0,1.624475162E1
2.475221657E0,1.804950118E0,1.370595074E1,8.562000275E0,1.626095874E1
2.477185977E0,2.533950090E0,1.313100052E1,8.677050591E0,1.594162114E1
2.479150273E0,3.262050152E0,1.244100094E1,8.524050713E0,1.542980609E1
2.481114408E0,3.874950171E0,1.163595009E1,8.140049934E0,1.471974817E1
2.483078587E0,4.603050232E0,1.063995075E1,7.564950466E0,1.384287178E1
2.485042781E0,5.485050201E0,9.604950905E0,6.837000370E0,1.300328542E1
2.487006970E0,6.250950336E0,8.416950226E0,6.070950508E0,1.211510921E1
2.488971253E0,6.940950394E0,7.189950466E0,5.380950451E0,1.135018977E1
2.490935508E0,7.516050339E0,6.040050507E0,4.996950150E0,1.086014427E1
2.492899505E0,8.053050041E0,4.929000378E0,4.729050159E0,1.055985677E1
2.494863582E0,8.551050186E0,3.931950092E0,4.729050159E0,1.053302455E1
2.496827344E0,9.088050842E0,3.012000084E0,5.188950062E0,1.088990429E1
2.498791198E0,9.355950356E0,2.322000027E0,5.764050484E0,1.123164143E1
2.500755267E0,9.739050865E0,1.518000126E0,6.376950264E0,1.173963078E1
2.502719273E0,9.816000938E0,8.280000687E-1,6.607050419E0,1.186139004E1
2.504684128E0,9.739050865E0,1.380000114E-1,6.760950089E0,1.185658475E1
2.506648734E0,9.508950233E0,-3.979500234E-1,6.991050243E0,1.180903393E1
2.508612631E0,9.163949966E0,-8.959500194E-1,7.105050564E0,1.163023856E1
2.510576736E0,8.781000137E0,-1.393950105E0,6.991050243E0,1.131034234E1
2.512540763E0,8.589000702E0,-1.816050053E0,6.376950264E0,1.085055139E1
2.514504813E0,8.320950508E0,-2.199000120E0,5.611050129E0,1.027412782E1
2.516468949E0,8.091000557E0,-2.467050076E0,4.806000233E0,9.728733953E0
2.518433052E0,7.975950241E0,-2.697000027E0,4.116000175E0,9.371822066E0
2.520397035E0,7.822950363E0,-2.889000177E0,3.655950069E0,9.105539266E0
2.522361054E0,7.669050217E0,-3.118950129E0,3.426000118E0,8.959891625E0
2.524325051E0,7.477950573E0,-3.310950041E0,3.310950041E0,8.822954444E0
2.526289054E0,7.285950184E0,-3.502050161E0,3.349050045E0,8.750174948E0
2.528253482E0,6.903000355E0,-3.655950069E0,3.388050079E0,8.514474038E0
2.530217768E0,6.481050491E0,-3.808950186E0,3.234000206E0,8.183573444E0
2.532182036E0,5.944950104E0,-3.771000147E0,3.118950129E0,7.700046996E0
2.534146309E0,5.407950401E0,-3.771000147E0,2.965950251E0,7.229331265E0
2.536110442E0,4.987050056E0,-3.694050074E0,2.812950134E0,6.813909500E0
2.538074616E0,4.603050232E0,-3.732000113E0,2.583000183E0,6.464347316E0
2.540038840E0,4.335000038E0,-3.771000147E0,2.238000154E0,6.166142403E0
2.542003028E0,4.105050087E0,-3.847050190E0,1.855050087E0,5.923887423E0
2.543967132E0,3.990000248E0,-4.077000141E0,1.471050024E0,5.891181571E0
2.545931261E0,3.837000132E0,-4.116000175E0,1.240950108E0,5.762289877E0
2.547894923E0,3.607050180E0,-4.077000141E0,9.349500537E-1,5.523302704E0
2.549858722E0,3.262050152E0,-4.039050102E0,5.899500251E-1,5.225221331E0
2.551823787E0,2.992950201E0,-3.886050224E0,2.449500114E-1,4.911123879E0
2.553788485E0,2.649000168E0,-3.771000147E0,1.500000060E-2,4.608456249E0
2.555752591E0,2.419050217E0,-3.579000235E0,-1.369500011E-1,4.322013643E0
2.557716871E0,2.149950027E0,-3.387000084E0,-3.289500177E-1,4.025203449E0
2.559681363E0,1.920000076E0,-3.196050167E0,-3.670500219E-1,3.746446674E0
2.561645792E0,1.690050125E0,-2.965950251E0,-2.910000086E-1,3.426048937E0
2.563610021E0,1.384050012E0,-2.659050226E0,-2.140500098E-1,3.005321937E0
2.565574319E0,1.192050099E0,-2.238000154E0,-6.105000153E-2,2.536405968E0
2.567538132E0,9.619500637E-1,-1.816050053E0,5.295000225E-2,2.055769788E0
2.569502088E0,8.470500112E-1,-1.509000063E0,9.195000678E-2,1.732925190E0
2.571466230E0,7.320000529E-1,-1.279050112E0,1.680000126E-1,1.483245519E0
2.573430317E0,6.940500140E-1,-1.126049995E0,2.449500114E-1,1.345248870E0
2.575393747E0,6.940500140E-1,-1.011000037E0,3.600000143E-1,1.278055753E0
2.577357381E0,6.940500140E-1,-8.580000401E-1,4.360500276E-1,1.186595600E0
2.579321668E0,6.940500140E-1,-7.810500264E-1,4.750500321E-1,1.147787915E0
2.581285763E0,6.940500140E-1,-7.039500475E-1,4.360500276E-1,1.080458568E0
2.583250063E0,6.940500140E-1,-7.039500475E-1,4.360500276E-1,1.080458568E0
2.585214302E0,8.470500112E-1,-7.429500222E-1,5.130000114E-1,1.237997362E0
2.587178468E0,8.470500112E-1,-7.039500475E-1,4.750500321E-1,1.199463182E0
2.589142669E0,8.850000501E-1,-7.810500264E-1,3.220500052E-1,1.223511519E0
2.591107850E0,9.619500637E-1,-8.959500194E-1,1.680000126E-1,1.325254076E0
2.593072744E0,1.039050102E0,-9.340500236E-1,5.295000225E-2,1.398169612E0
2.595036817E0,1.192050099E0,-1.048950076E0,-2.205000073E-2,1.588006897E0
2.597001131E0,1.192050099E0,-1.087950110E0,5.295000225E-2,1.614751555E0
2.598965262E0,1.269000053E0,-1.126049995E0,5.295000225E-2,1.697396074E0
2.600929444E0,1.306950092E0,-1.203000069E0,1.300500035E-1,1.781078525E0
2.602893007E0,1.306950092E0,-1.240950108E0,2.070000172E-1,1.814090604E0
2.604856751E0,1.306950092E0,-1.279050112E0,3.600000143E-1,1.863783180E0
2.606820839E0,1.306950092E0,-1.240950108E0,5.130000114E-1,1.873831563E0
2.608784826E0,1.345050097E0,-1.126049995E0,5.899500251E-1,1.850726718E0
2.610748999E0,1.422000051E0,-1.048950076E0,6.660000086E-1,1.888368719E0
2.612713124E0,1.498950124E0,-8.959500194E-1,7.050000429E-1,1.883242675E0
2.614676923E0,1.651950121E0,-7.810500264E-1,7.429500222E-1,1.972549893E0
2.616640818E0,1.882050037E0,-7.039500475E-1,6.660000086E-1,2.116887816E0
2.618605511E0,2.149950027E0,-6.660000086E-1,3.979500234E-1,2.285652063E0
2.620569970E0,2.494950056E0,-6.280500293E-1,5.295000225E-2,2.573329813E0
2.622534268E0,2.802000046E0,-4.740000367E-1,-1.759500057E-1,2.847251077E0
2.624498603E0,3.223050117E0,-4.740000367E-1,-2.910000086E-1,3.270689392E0
2.626461824E0,3.645000219E0,-3.979500234E-1,-2.205000073E-2,3.666725654E0
2.628425372E0,4.066950321E0,-2.440500110E-1,5.899500251E-1,4.116756776E0
2.630389448E0,4.411950111E0,-1.290000081E-1,1.548000097E0,4.677419063E0
2.632353370E0,4.564949989E0,-5.295000225E-2,2.851050138E0,5.382384137E0
2.634316668E0,4.527000427E0,3.289500177E-1,4.461000443E0,6.364154770E0
2.636280146E0,4.372950077E0,8.659500480E-1,6.301050186E0,7.718535827E0
2.638244640E0,4.066950321E0,1.363950014E0,8.064000130E0,9.133922632E0
2.640208836E0,3.721950293E0,1.863000035E0,9.597000122E0,1.046069283E1
2.642173118E0,3.337950230E0,2.514000177E0,1.059300041E1,1.138743897E1
2.644137375E0,2.878050089E0,3.357000113E0,1.086195087E1,1.172751461E1
2.646101719E0,2.457000017E0,4.276950359E0,1.036305046E1,1.147701914E1
2.648066018E0,1.959000111E0,5.119950294E0,9.214050293E0,1.072148755E1
2.650030373E0,1.614000082E0,6.001950264E0,7.489050388E0,9.732126127E0
2.651994711E0,1.269000053E0,7.228050232E0,5.188950062E0,8.987784712E0
2.653958474E0,9.619500637E-1,8.532000542E0,2.698050022E0,8.999991949E0
2.655922405E0,5.020500422E-1,1.018005085E1,3.220500052E-1,1.019750978E1
2.657887277E0,3.490500152E-1,1.209600067E1,-1.594050050E0,1.220557511E1
2.659851869E0,3.490500152E-1,1.424205112E1,-2.667000055E0,1.449381749E1
2.661815769E0,4.050000105E-3,1.696395111E1,-3.088950157E0,1.724289033E1
2.663779871E0,-6.850500107E-1,1.983795166E1,-3.702000141E0,2.019203864E1
2.665743853E0,-1.681950092E0,2.290395164E1,-3.931950092E0,2.329978945E1
2.667707871E0,-3.022950172E0,2.585595131E1,-3.931950092E0,2.632733707E1
2.669671931E0,-4.441050053E0,2.811705208E1,-4.621950150E0,2.883841130E1
2.671635965E0,-5.437950134E0,3.030195236E1,-4.927950382E0,3.117794595E1
2.673600275E0,-6.319050312E0,3.267795181E1,-3.970050097E0,3.351925162E1
2.675564504E0,-7.123950481E0,3.509295273E1,-3.702000141E0,3.599959454E1
2.677528285E0,-7.929000378E0,3.835005188E1,-3.739950180E0,3.933932833E1
2.679492198E0,-8.274000168E0,4.233600235E1,-4.237950325E0,4.334462362E1
2.681456038E0,-8.350950241E0,4.609305191E1,-4.698000431E0,4.707843469E1
2.683419896E0,-8.121000290E0,5.004000092E1,-5.197050095E0,5.096039312E1
2.685383605E0,-8.197050095E0,5.371995163E1,-5.962950230E0,5.466792120E1
2.687347357E0,-8.044050217E0,5.621100235E1,-7.036050320E0,5.721791269E1
2.689311218E0,-7.891050339E0,5.755305099E1,-8.110050201E0,5.865488273E1
2.691275047E0,-7.584000587E0,5.770605087E1,-8.875950813E0,5.887518896E1
2.693239045E0,-7.584000587E0,5.686305237E1,-8.914050102E0,5.805500908E1
2.695202984E0,-7.468950272E0,5.452500153E1,-8.377950668E0,5.566822313E1
2.697167175E0,-7.201050282E0,5.145795059E1,-7.726050377E0,5.253063543E1
2.699131292E0,-6.625950336E0,4.808595276E1,-7.381050587E0,4.909828896E1
2.701095093E0,-5.553000450E0,4.425300217E1,-6.883050442E0,4.512804448E1
2.703058987E0,-4.594050407E0,4.061205292E1,-6.652950287E0,4.140900734E1
2.705023239E0,-3.712950230E0,3.731595230E1,-6.730050087E0,3.809934212E1
2.706987379E0,-2.946000099E0,3.440295029E1,-6.768000126E0,3.518590244E1
2.708950996E0,-2.140950203E0,3.175800133E1,-6.844950199E0,3.255775882E1
2.710914766E0,-1.297950029E0,2.941995049E1,-6.883050442E0,3.024226420E1
2.712878984E0,-6.079500318E-1,2.742705154E1,-7.075050354E0,2.833141538E1
2.714843071E0,8.100000024E-2,2.562600136E1,-7.189950466E0,2.661567009E1
2.716807879E0,7.699500322E-1,2.390100098E1,-7.420050144E0,2.503812722E1
2.718772499E0,1.269000053E0,2.232900047E1,-7.726050377E0,2.366192041E1
2.720736394E0,1.614000082E0,2.114100075E1,-8.032950401E0,2.267322652E1
2.722700501E0,1.996950150E0,2.026005173E1,-8.493000031E0,2.205875235E1
2.724663987E0,2.265000105E0,1.937805176E1,-9.106050491E0,2.153042663E1
2.726627655E0,2.380050182E0,1.861200142E1,-9.528000832E0,2.104409740E1
2.728591682E0,2.304000139E0,1.792200089E1,-9.796050072E0,2.055405384E1
2.730555624E0,2.304000139E0,1.742400169E1,-1.002600002E1,2.023425136E1
2.732519634E0,2.380050182E0,1.688700104E1,-1.017900085E1,1.986070244E1
2.734483624E0,2.341950178E0,1.627395058E1,-1.006395054E1,1.927717040E1
2.736447806E0,2.341950178E0,1.562205029E1,-9.910950661E0,1.864832777E1
2.738411932E0,2.494950056E0,1.493205070E1,-9.796050072E0,1.803201351E1
2.740375893E0,2.572050095E0,1.439595032E1,-9.643050194E0,1.751705581E1
2.742339916E0,2.686950207E0,1.382100105E1,-9.106050491E0,1.676782416E1
2.744304091E0,2.878050089E0,1.316895103E1,-8.340000153E0,1.585118438E1
2.746268221E0,2.878050089E0,1.267095089E1,-7.611000538E0,1.505866853E1
2.748232335E0,2.955000162E0,1.213395023E1,-7.150950432E0,1.439099949E1
2.750196454E0,3.300000191E0,1.148295021E1,-6.232050419E0,1.347540720E1
2.752160626E0,3.529950142E0,1.090800095E1,-5.350050449E0,1.265180115E1
2.754124773E0,3.568050146E0,1.029495049E1,-4.852050304E0,1.192725364E1
2.756088794E0,3.645000219E0,9.835050583E0,-4.468050003E0,1.140077705E1
2.758052852E0,3.453000069E0,9.259950638E0,-4.276950359E0,1.076857463E1
2.760016662E0,3.376950264E0,8.761950493E0,-4.009050369E0,1.021019365E1
2.761980544E0,3.492000103E0,8.224950790E0,-3.894000292E0,9.747159509E0
2.763944938E0,3.529950142E0,7.650000572E0,-3.664050102E0,9.187400063E0
2.765909172E0,3.300000191E0,6.960000515E0,-2.974050045E0,8.256911172E0
2.767873493E0,3.184950113E0,6.193950176E0,-2.169000149E0,7.294757546E0
2.769837788E0,2.878050089E0,5.580000401E0,-1.594050050E0,6.477698075E0
2.771801693E0,2.955000162E0,4.852050304E0,-1.287000060E0,5.825013929E0
2.773765713E0,2.839950085E0,4.239000320E0,-9.810000658E-1,5.195844621E0
2.775729754E0,2.725050211E0,3.396000147E0,-4.819500148E-1,4.380752386E0
2.777693788E0,2.419050217E0,2.743950129E0,-1.369500011E-1,3.660576671E0
2.779657243E0,2.149950027E0,2.169000149E0,1.680000126E-1,3.058606017E0
2.781620867E0,1.575000048E0,1.708950043E0,3.979500234E-1,2.357859118E0
2.783585246E0,1.306950092E0,1.210950017E0,6.280500293E-1,1.889170539E0
2.785549403E0,1.153950095E0,7.129500508E-1,8.959500194E-1,1.625615279E0
2.787513737E0,7.699500322E-1,2.530499995E-1,1.126049995E0,1.387388174E0
2.789478019E0,4.639500082E-1,-1.290000081E-1,1.318050027E0,1.403262800E0
2.791442152E0,4.200000316E-2,-2.440500110E-1,1.432950020E0,1.454190554E0
2.793406328E0,-1.099500060E-1,-4.360500276E-1,1.585950017E0,1.648473866E0
2.795370522E0,-2.250000089E-1,-7.039500475E-1,1.624950051E0,1.785114378E0
2.797334711E0,-4.170000255E-1,-8.190000653E-1,1.548000097E0,1.800265100E0
2.799299043E0,-7.999500632E-1,-1.011000037E0,1.510050058E0,1.985520677E0
2.801263330E0,-1.030050039E0,-1.240950108E0,1.471050024E0,2.182876182E0
2.803227462E0,-1.222050071E0,-1.471050024E0,1.471050024E0,2.412754178E0
2.805191640E0,-1.452000022E0,-1.701000094E0,1.510050058E0,2.698510064E0
2.807155969E0,-1.452000022E0,-2.008050203E0,1.471050024E0,2.881762977E0
2.809120253E0,-1.375050068E0,-2.314050198E0,1.471050024E0,3.067503737E0
2.811084205E0,-1.336950064E0,-2.659050226E0,1.356000066E0,3.270584009E0
2.813048255E0,-1.297950029E0,-2.889000177E0,1.126049995E0,3.361396272E0
2.815012381E0,-1.260000110E0,-3.271950245E0,8.959500194E-1,3.618837537E0
2.816976484E0,-1.260000110E0,-3.541050196E0,5.899500251E-1,3.804560132E0
2.818941773E0,-1.144950032E0,-3.808950186E0,3.220500052E-1,3.990329347E0
2.820906715E0,-1.106999993E0,-4.116000175E0,2.070000172E-1,4.267289003E0
2.822870906E0,-1.144950032E0,-4.306950092E0,5.295000225E-2,4.456852407E0
2.824835323E0,-1.260000110E0,-4.498950005E0,-2.205000073E-2,4.672112758E0
2.826799206E0,-1.375050068E0,-4.614000320E0,5.295000225E-2,4.814827655E0
2.828763246E0,-1.528050065E0,-4.729050159E0,2.449500114E-1,4.975826858E0
2.830726743E0,-1.720050097E0,-4.729050159E0,5.509500504E-1,5.062216284E0
2.832690400E0,-1.987950087E0,-4.651950359E0,8.959500194E-1,5.137637018E0
2.834654778E0,-2.295000076E0,-4.651950359E0,1.240950108E0,5.333631471E0
2.836618941E0,-2.563050032E0,-4.537050247E0,1.510050058E0,5.425338846E0
2.838583138E0,-2.830950022E0,-4.422000408E0,1.855050087E0,5.568624288E0
2.840547325E0,-3.100050211E0,-4.153950214E0,2.430000067E0,5.724553609E0
2.842511294E0,-3.061050177E0,-3.924000263E0,2.851050138E0,5.735529020E0
2.844475327E0,-2.716050148E0,-3.616950274E0,3.310950041E0,5.605501571E0
2.846439456E0,-2.332950115E0,-3.310950041E0,3.847950220E0,5.586749261E0
2.848403556E0,-2.256000042E0,-2.851050138E0,4.345950127E0,5.666154391E0
2.850367900E0,-2.332950115E0,-2.391000032E0,4.806000233E0,5.852962979E0
2.852332172E0,-2.371050119E0,-1.893000126E0,5.227050304E0,6.043788798E0
2.854296531E0,-2.332950115E0,-1.471050024E0,5.496000290E0,6.149200241E0
2.856260864E0,-2.218050003E0,-1.011000037E0,5.764050484E0,6.258286097E0
2.858225255E0,-1.873050094E0,-5.509500504E-1,6.301050186E0,6.596597309E0
2.860189662E0,-1.642950058E0,-1.680000126E-1,6.721950531E0,6.921858698E0
2.862152737E0,-1.375050068E0,6.105000153E-2,6.721950531E0,6.861421772E0
2.864116203E0,-9.529500604E-1,2.910000086E-1,6.684000492E0,6.757858936E0
2.866080654E0,-6.469500065E-1,5.980500579E-1,6.607050419E0,6.665532493E0
2.868044816E0,-4.170000255E-1,8.280000687E-1,6.531000137E0,6.596471476E0
2.870008930E0,-1.480500102E-1,9.810000658E-1,6.531000137E0,6.605924820E0
2.871973054E0,8.100000024E-2,1.134000063E0,6.531000137E0,6.629214127E0
2.873937978E0,3.109500110E-1,1.249050021E0,6.492000103E0,6.618374514E0
2.875902667E0,6.169500351E-1,1.363950014E0,6.492000103E0,6.662360867E0
2.877867045E0,8.850000501E-1,1.518000126E0,6.454050541E0,6.688969865E0
2.879831515E0,1.153950095E0,1.594050050E0,6.415950298E0,6.710962272E0
2.881795631E0,1.269000053E0,1.786050081E0,6.262050152E0,6.634275253E0
2.883759871E0,1.384050012E0,2.092950106E0,6.031950474E0,6.533028478E0
2.885724010E0,1.498950124E0,2.361000061E0,5.725950241E0,6.372415470E0
2.887688179E0,1.614000082E0,2.590950012E0,5.304000378E0,6.119676318E0
2.889652150E0,1.767000079E0,2.896950245E0,4.690950394E0,5.789613597E0
2.891616179E0,1.882050037E0,3.241950035E0,4.078050137E0,5.539209807E0
2.893580488E0,2.074050188E0,3.664050102E0,3.349050045E0,5.379877651E0
2.895544715E0,2.304000139E0,4.009050369E0,2.506050110E0,5.259390522E0
2.897509217E0,2.457000017E0,4.468950272E0,1.585950017E0,5.340749299E0
2.899473638E0,2.533950090E0,4.890000343E0,7.050000429E-1,5.552479759E0
2.901438512E0,2.649000168E0,5.274000168E0,-3.289500177E-1,5.911047942E0
2.903403254E0,2.802000046E0,5.542050362E0,-1.402050018E0,6.366417417E0
2.905367458E0,2.917050123E0,5.656950474E0,-2.629050016E0,6.886375975E0
2.907331809E0,2.992950201E0,5.695050240E0,-3.855000257E0,7.500158340E0
2.909296109E0,3.262050152E0,5.503950119E0,-5.158050060E0,8.218267368E0
2.911260424E0,3.568050146E0,5.044050217E0,-6.499950409E0,8.967874874E0
2.913224595E0,3.874950171E0,4.507050037E0,-7.879950523E0,9.870276547E0
2.915188809E0,4.219950199E0,3.817050219E0,-9.259050369E0,1.086774428E1
2.917152967E0,4.488000393E0,3.088950157E0,-1.029405022E1,1.164694082E1
2.919117131E0,4.564949989E0,2.514000177E0,-1.102200031E1,1.219194226E1
2.921081238E0,4.717950344E0,1.978050113E0,-1.144395065E1,1.253537970E1
2.923045362E0,4.795050144E0,1.555950046E0,-1.136700058E1,1.243471707E1
2.925009341E0,4.795050144E0,1.326000094E0,-1.083105087E1,1.191899514E1
2.926973362E0,4.795050144E0,1.134000063E0,-9.681000710E0,1.086279139E1
2.928937561E0,4.833000183E0,1.134000063E0,-8.185950279E0,9.573590178E0
2.930901691E0,4.833000183E0,1.057950020E0,-6.193050385E0,7.926602177E0
2.932865715E0,4.717950344E0,1.057950020E0,-3.894000292E0,6.208184273E0
2.934829770E0,4.527000427E0,1.134000063E0,-1.632000089E0,4.943997704E0
2.936793175E0,4.219950199E0,1.402950048E0,9.349500537E-1,4.544268932E0
2.938756770E0,3.874950171E0,1.786050081E0,3.655950069E0,5.618824132E0
2.940721059E0,3.492000103E0,2.245950222E0,6.339000225E0,7.577683087E0
2.942685148E0,3.262050152E0,2.782050133E0,8.944950104E0,9.919319860E0
2.944649313E0,3.147000074E0,3.357000113E0,1.113000011E1,1.204366895E1
2.946613456E0,3.376950264E0,4.085999966E0,1.277805042E1,1.383393514E1
2.948577433E0,3.682950258E0,4.852050304E0,1.385100079E1,1.513131645E1
2.950541458E0,4.105050087E0,5.734050274E0,1.431105042E1,1.595421364E1
2.952505592E0,4.488000393E0,6.768000126E0,1.419600105E1,1.635464518E1
2.954469691E0,4.872000217E0,7.879950523E0,1.342995071E1,1.631544000E1
2.956434080E0,5.293050289E0,9.145050049E0,1.228005028E1,1.620024557E1
2.958398384E0,5.446050167E0,1.067805004E1,1.097700024E1,1.625345346E1
2.960362153E0,5.446050167E0,1.232595062E1,9.597000122E0,1.654360700E1
2.962326078E0,4.948050022E0,1.397400093E1,7.909950256E0,1.680247643E1
2.964290309E0,3.913050175E0,1.569900036E1,5.533950329E0,1.709956667E1
2.966254423E0,2.725050211E0,1.719405174E1,2.659050226E0,1.761056110E1
2.968219124E0,1.690050125E0,1.876500130E1,5.899500251E-1,1.885018791E1
2.970183653E0,1.306950092E0,2.071995163E1,-8.269500136E-1,2.077759275E1
2.972147338E0,1.269000053E0,2.271300125E1,-1.134000063E0,2.277667103E1
2.974111271E0,6.940500140E-1,2.462895203E1,1.300500035E-1,2.463907255E1
2.976074761E0,8.470500112E-1,2.658405113E1,1.395000100E0,2.663410020E1
2.978038367E0,2.188950062E0,2.842395210E1,1.356000066E0,2.854034498E1
2.980003380E0,4.258049965E0,2.972700119E1,1.680000126E-1,3.003088099E1
2.981967980E0,6.558000088E0,3.060795212E1,-7.510500550E-1,3.131163001E1
2.983931653E0,8.896050453E0,3.114495087E1,-5.970000029E-1,3.239605049E1
2.985895598E0,1.123395061E1,3.156600189E1,1.300500035E-1,3.350568661E1
2.987858556E0,1.226895046E1,3.214095306E1,1.011000037E0,3.441787516E1
2.989821813E0,1.142595100E1,3.298500061E1,1.203000069E0,3.492863912E1
2.991786255E0,8.398050308E0,3.375105286E1,5.899500251E-1,3.478518160E1
2.993750350E0,4.411950111E0,3.363600159E1,1.500000060E-2,3.392412315E1
2.995713478E0,1.000050068E0,3.256305313E1,-7.890000343E-1,3.258795867E1
2.997676890E0,-1.452000022E0,3.091500092E1,-2.398950100E0,3.104191597E1
2.999640971E0,-3.406050205E0,2.907495117E1,-4.621950150E0,2.963640307E1
3.001604869E0,-4.633050442E0,2.734995079E1,-6.960000515E0,2.859941558E1
3.003568887E0,-5.514000416E0,2.589405060E1,-9.336000443E0,2.807253037E1
3.005532869E0,-5.898000240E0,2.470605087E1,-1.148205090E1,2.787495021E1
3.007497188E0,-6.127950191E0,2.378595161E1,-1.305405045E1,2.781602957E1
3.009461408E0,-6.433950424E0,2.321100044E1,-1.381995106E1,2.776935914E1
3.011425436E0,-7.009050369E0,2.267400169E1,-1.381995106E1,2.746321516E1
3.013389507E0,-7.852050304E0,2.229105186E1,-1.339905071E1,2.716763234E1
3.015353809E0,-8.964000702E0,2.194605064E1,-1.282395077E1,2.695247968E1
3.017318043E0,-1.015200043E1,2.167800140E1,-1.201905060E1,2.678537726E1
3.019281824E0,-1.153200054E1,2.152500153E1,-1.098405075E1,2.677614793E1
3.021245737E0,-1.302600098E1,2.144805145E1,-9.873000145E0,2.696612216E1
3.023209717E0,-1.452105045E1,2.133300018E1,-8.799000740E0,2.726499986E1
3.025173702E0,-1.586295033E1,2.133300018E1,-8.032950401E0,2.777153906E1
3.027137525E0,-1.697400093E1,2.121795082E1,-7.765050411E0,2.825976207E1
3.029101396E0,-1.774095154E1,2.102595139E1,-7.840950489E0,2.860616188E1
3.031065417E0,-1.808595085E1,2.079600143E1,-8.185950279E0,2.875039262E1
3.033029394E0,-1.808595085E1,2.049000168E1,-8.569950104E0,2.864237825E1
3.034993088E0,-1.770195007E1,2.018295097E1,-8.953050613E0,2.829960533E1
3.036956862E0,-1.682100105E1,1.976205063E1,-8.991000175E0,2.746493775E1
3.038920900E0,-1.605405045E1,1.957005119E1,-8.953050613E0,2.684914439E1
3.040884860E0,-1.540305042E1,1.933995056E1,-8.914050102E0,2.628208400E1
3.042848867E0,-1.471305084E1,1.903305054E1,-8.722949982E0,2.558946530E1
3.044812860E0,-1.390800095E1,1.849695015E1,-8.340000153E0,2.459929385E1
3.046777196E0,-1.302600098E1,1.807500076E1,-7.879950523E0,2.363209627E1
3.048741418E0,-1.218300056E1,1.765395164E1,-7.420050144E0,2.269679836E1
3.050705426E0,-1.153200054E1,1.750005150E1,-7.113000393E0,2.213218501E1
3.052669497E0,-1.095705032E1,1.746195030E1,-6.768000126E0,2.169752257E1
3.054633799E0,-1.049700069E1,1.738500023E1,-6.040050507E0,2.118743653E1
3.056598033E0,-1.018995094E1,1.738500023E1,-5.427000046E0,2.086925161E1
3.058562210E0,-9.769050598E0,1.730895042E1,-4.852050304E0,2.045914237E1
3.060526411E0,-9.193950653E0,1.696395111E1,-4.047000408E0,1.971503432E1
3.062490871E0,-8.580000877E0,1.650405121E1,-3.319050074E0,1.889487271E1
3.064455255E0,-7.813950539E0,1.581405067E1,-2.704950094E0,1.784541333E1
3.066419550E0,-6.894000530E0,1.466400051E1,-2.437050104E0,1.638595031E1
3.068383872E0,-6.088950157E0,1.343700027E1,-1.671000123E0,1.484656633E1
3.070347295E0,-5.437950134E0,1.217295074E1,-7.510500550E-1,1.335350545E1
3.072310968E0,-4.824000359E0,1.090800095E1,4.750500321E-1,1.193654626E1
3.074275023E0,-4.402950287E0,9.835050583E0,1.624950051E0,1.089746089E1
3.076238966E0,-4.173000336E0,8.838000298E0,2.430000067E0,1.007120059E1
3.078202842E0,-4.326000214E0,8.148000717E0,2.620950222E0,9.590285376E0
3.080166738E0,-4.671000004E0,7.381950378E0,1.816050053E0,8.922413923E0
3.082131070E0,-5.131050110E0,6.538950443E0,7.429500222E-1,8.344909997E0
3.084095274E0,-4.939050198E0,5.619000435E0,3.220500052E-1,7.488063765E0
3.086060141E0,-4.978050232E0,4.852050304E0,-5.590500236E-1,6.973945311E0
3.088024813E0,-5.016000271E0,4.545000076E0,-9.420000315E-1,6.834079929E0
3.089988699E0,-4.824000359E0,4.736999989E0,-7.120500207E-1,6.798320644E0
3.091952815E0,-4.479000092E0,5.158950329E0,2.070000172E-1,6.835134185E0
3.093916299E0,-3.981000185E0,5.848950386E0,1.318050027E0,7.196932608E0
3.095879968E0,-3.636000156E0,6.424050331E0,2.122950077E0,7.680874743E0
3.097844159E0,-3.253050089E0,6.844950199E0,3.043050051E0,8.166751601E0
3.099808197E0,-2.793000221E0,7.342950344E0,3.655950069E0,8.665202877E0
3.101772012E0,-2.295000076E0,7.803000450E0,4.078050137E0,9.098589687E0
3.103735892E0,-1.642950058E0,8.340000153E0,4.308000088E0,9.529624977E0
3.105699893E0,-1.068000078E0,8.877000809E0,4.768050194E0,1.013292012E1
3.107663871E0,-4.549500346E-1,9.412950516E0,5.533950329E0,1.092864233E1
3.109628776E0,1.960500032E-1,9.796050072E0,5.878950119E0,1.142642057E1
3.111593409E0,9.240000248E-1,1.018005085E1,5.841000080E0,1.177304095E1
3.113557482E0,1.614000082E0,1.041000080E1,5.764050484E0,1.200822181E1
3.115521719E0,2.074050188E0,1.079295063E1,5.686950207E0,1.237460586E1
3.117485824E0,2.380050182E0,1.129095078E1,5.878950119E0,1.295037694E1
3.119449992E0,2.725050211E0,1.178895092E1,6.376950264E0,1.367738122E1
3.121413963E0,2.839950085E0,1.217295074E1,7.029000282E0,1.434060289E1
3.123377992E0,3.262050152E0,1.240305042E1,7.795050144E0,1.500797914E1
3.125342166E0,3.645000219E0,1.255605030E1,8.869050026E0,1.579874913E1
3.127306298E0,4.105050087E0,1.247895050E1,9.750000000E0,1.635964981E1
3.129270332E0,4.642050266E0,1.232595062E1,1.082295036E1,1.704740285E1
3.131234387E0,5.178000450E0,1.190400028E1,1.193505096E1,1.763412467E1
3.133198692E0,5.983050346E0,1.129095078E1,1.270095062E1,1.801656481E1
3.135162924E0,6.865050316E0,1.033305073E1,1.312305069E1,1.805866309E1
3.137127065E0,7.630950451E0,9.298050880E0,1.285500050E1,1.760500476E1
3.139091233E0,8.320950508E0,8.340000153E0,1.178100014E1,1.666090586E1
3.141055409E0,8.934000015E0,7.381950378E0,1.055505085E1,1.567541534E1
3.143019596E0,9.547050476E0,6.385050297E0,9.367050171E0,1.482081877E1
3.144984105E0,1.000695038E1,5.389050484E0,8.179050446E0,1.400277784E1
3.146948519E0,1.046700096E1,4.315950394E0,7.411950588E0,1.353227802E1
3.148912989E0,1.092705059E1,3.241950035E0,6.454050541E0,1.309829924E1
3.150877442E0,1.138695049E1,2.245950222E0,4.996950150E0,1.263631452E1
3.152841662E0,1.177005100E1,1.402950048E0,3.157950163E0,1.226682594E1
3.154805964E0,1.196205044E1,7.129500508E-1,1.624950051E0,1.209294882E1
3.156771217E0,1.211505032E1,1.380000114E-1,1.203000069E0,1.217541364E1
3.158736192E0,1.211505032E1,-1.680000126E-1,1.395000100E0,1.219625735E1
3.160700702E0,1.180905056E1,-4.740000367E-1,1.855050087E0,1.196325884E1
3.162665348E0,1.146405029E1,-8.959500194E-1,2.889000177E0,1.185636949E1
3.164629112E0,1.119600010E1,-1.471050024E0,3.618000269E0,1.185766977E1
3.166593127E0,1.081200027E1,-2.008050203E0,4.231050014E0,1.178275858E1
3.168557124E0,1.042905045E1,-2.467050076E0,4.537950039E0,1.163805911E1
3.170521127E0,1.004595089E1,-2.697000027E0,4.806000233E0,1.145829728E1
3.172485126E0,9.661950111E0,-2.812050104E0,5.074050426E0,1.126973351E1
3.174449127E0,9.049050331E0,-2.773950100E0,5.074050426E0,1.073899897E1
3.176413455E0,8.244000435E0,-2.620950222E0,4.690950394E0,9.840626953E0
3.178377678E0,7.285950184E0,-2.467050076E0,4.153950214E0,8.742237044E0
3.180342000E0,6.442950249E0,-2.467050076E0,3.541050196E0,7.754803703E0
3.182306293E0,5.868000507E0,-2.544000149E0,2.928000212E0,7.034099228E0
3.184270244E0,5.293050289E0,-2.697000027E0,2.506050110E0,6.447517170E0
3.186234295E0,4.909950256E0,-2.926950216E0,2.314950228E0,6.167142259E0
3.188198530E0,4.564949989E0,-3.157050133E0,2.161050081E0,5.956162473E0
3.190162697E0,4.258049965E0,-3.349050045E0,2.200050116E0,5.846994631E0
3.192126984E0,3.990000248E0,-3.541050196E0,2.238000154E0,5.785134671E0
3.194091235E0,3.760050297E0,-3.694050074E0,2.238000154E0,5.726484862E0
3.196055419E0,3.492000103E0,-3.886050224E0,2.122950077E0,5.639358837E0
3.198019622E0,3.262050152E0,-4.000950336E0,1.816050053E0,5.472349823E0
3.199984112E0,2.992950201E0,-4.039050102E0,1.624950051E0,5.283194044E0
3.201948528E0,2.686950207E0,-3.961950302E0,1.471050024E0,5.008067470E0
3.203912818E0,2.380050182E0,-3.847050190E0,1.471050024E0,4.756934119E0
3.205877145E0,2.111999989E0,-3.616950274E0,1.356000066E0,4.402454930E0
3.207841584E0,1.767000079E0,-3.310950041E0,1.240950108E0,3.952801111E0
3.209805990E0,1.498950124E0,-2.965950251E0,1.087950110E0,3.496762475E0
3.211770301E0,1.345050097E0,-2.659050226E0,8.959500194E-1,3.111661020E0
3.213734626E0,1.269000053E0,-2.314050198E0,8.200500607E-1,2.763633759E0
3.215698796E0,1.192050099E0,-1.893000126E0,7.429500222E-1,2.357203354E0
3.217663011E0,1.039050102E0,-1.624050021E0,7.810500264E-1,2.080192955E0
3.219627154E0,9.240000248E-1,-1.318050027E0,8.200500607E-1,1.806519865E0
3.221591318E0,9.240000248E-1,-1.087950110E0,7.810500264E-1,1.627098839E0
3.223555611E0,8.850000501E-1,-8.580000401E-1,9.730500579E-1,1.570418916E0
3.225519893E0,8.089500666E-1,-7.429500222E-1,1.165050030E0,1.601160991E0
3.227484026E0,8.850000501E-1,-7.039500475E-1,1.395000100E0,1.795771711E0
3.229448202E0,9.240000248E-1,-5.890500546E-1,1.471050024E0,1.834323904E0
3.231412172E0,9.619500637E-1,-5.890500546E-1,1.548000097E0,1.915367378E0
3.233376202E0,1.039050102E0,-6.280500293E-1,1.624950051E0,2.028431567E0
3.235340197E0,1.114950061E0,-6.660000086E-1,1.510050058E0,1.991713039E0
3.237304202E0,1.192050099E0,-6.660000086E-1,1.471050024E0,2.007119235E0
3.239268157E0,1.230000019E0,-7.039500475E-1,1.395000100E0,1.988585174E0
3.241232126E0,1.306950092E0,-6.660000086E-1,1.240950108E0,1.921361945E0
3.243196310E0,1.306950092E0,-6.660000086E-1,1.050000072E0,1.803933121E0
3.245160431E0,1.306950092E0,-7.429500222E-1,7.810500264E-1,1.694146518E0
3.247124660E0,1.306950092E0,-7.810500264E-1,7.429500222E-1,1.694146518E0
3.249088840E0,1.306950092E0,-7.039500475E-1,8.200500607E-1,1.695920492E0
3.251053124E0,1.306950092E0,-6.660000086E-1,1.011000037E0,1.781514982E0
3.253017378E0,1.306950092E0,-7.429500222E-1,1.165050030E0,1.901955533E0
3.254981740E0,1.269000053E0,-6.660000086E-1,1.279950023E0,1.921507015E0
3.256946071E0,1.269000053E0,-6.660000086E-1,1.471050024E0,2.053753958E0
3.258910326E0,1.269000053E0,-7.039500475E-1,1.510050058E0,2.094315636E0
3.260874607E0,1.306950092E0,-7.039500475E-1,1.548000097E0,2.144753719E0
3.262838784E0,1.306950092E0,-6.660000086E-1,1.624950051E0,2.189095070E0
3.264802992E0,1.345050097E0,-6.280500293E-1,1.624950051E0,2.200924640E0
3.266767136E0,1.384050012E0,-6.660000086E-1,1.510050058E0,2.153927024E0
3.268731299E0,1.498950124E0,-6.660000086E-1,1.395000100E0,2.153237740E0
3.270695621E0,1.729050040E0,-6.660000086E-1,1.203000069E0,2.209158034E0
3.272659903E0,2.149950027E0,-5.890500546E-1,1.203000069E0,2.533076046E0
3.274624171E0,2.533950090E0,-5.130000114E-1,1.395000100E0,2.937702734E0
3.276588443E0,2.839950085E0,-2.830500007E-1,1.930950046E0,3.445867360E0
3.278552081E0,3.262050152E0,-5.295000225E-2,3.043050051E0,4.461381906E0
3.280515905E0,3.568050146E0,2.140500098E-1,4.576050282E0,5.806637188E0
3.282480639E0,3.682950258E0,6.739500165E-1,6.376950264E0,7.394851310E0
3.284445086E0,3.529950142E0,1.249050021E0,8.254950523E0,9.064484657E0
3.286409235E0,3.070050240E0,1.863000035E0,9.942000389E0,1.057068349E1
3.288373472E0,2.572050095E0,2.322000027E0,1.132200050E1,1.184038940E1
3.290337791E0,1.996950150E0,2.935950041E0,1.212600040E1,1.263516911E1
3.292302086E0,1.459950089E0,3.586950064E0,1.243305016E1,1.302222720E1
