"Time (s)","Acceleration x (m/s^2)","Acceleration y (m/s^2)","Acceleration z (m/s^2)","Absolute acceleration (m/s^2)"
3.950659900E-2,-5.169000149E0,1.504695034E1,-4.392000198E0,1.650511869E1
4.146951000E-2,-5.016000271E0,1.462605095E1,-4.237950325E0,1.603252469E1
4.343490600E-2,-4.441050053E0,1.435695076E1,-4.047000408E0,1.556352058E1
4.539902700E-2,-3.981000185E0,1.412700081E1,-3.817050219E0,1.516543394E1
4.736352200E-2,-3.367950201E0,1.397400093E1,-3.394950151E0,1.476961330E1
4.932773500E-2,-2.793000221E0,1.393605042E1,-2.935050249E0,1.451305865E1
5.129207500E-2,-2.295000076E0,1.378200054E1,-2.437050104E0,1.418272814E1
5.325637700E-2,-2.065050125E0,1.385895061E1,-1.861950040E0,1.413512653E1
5.522069100E-2,-1.795950055E0,1.393605042E1,-1.441050053E0,1.412499781E1
5.718517700E-2,-1.605000019E0,1.420395088E1,-1.210950017E0,1.434554445E1
5.914961200E-2,-1.375050068E0,1.443405056E1,-1.018950105E0,1.453515867E1
6.111374800E-2,-1.336950064E0,1.466400051E1,-8.269500136E-1,1.474802335E1
6.307798300E-2,-1.489950061E0,1.497105026E1,-4.060500264E-1,1.505048749E1
6.504248200E-2,-1.605000019E0,1.535400105E1,-9.900000691E-2,1.543797831E1
6.700690400E-2,-1.605000019E0,1.585200119E1,1.680000126E-1,1.593393206E1
6.897029200E-2,-1.873050094E0,1.642695045E1,3.220500052E-1,1.653652727E1
7.093398300E-2,-1.950000048E0,1.688700104E1,5.509500504E-1,1.700814070E1
7.289814600E-2,-1.987950087E0,1.734705162E1,7.429500222E-1,1.747638750E1
7.486218800E-2,-1.911000133E0,1.757700157E1,1.011000037E0,1.770946151E1
7.682658600E-2,-1.795950055E0,1.780695152E1,1.318050027E0,1.794575758E1
7.879088000E-2,-1.795950055E0,1.784505081E1,1.585950017E0,1.800518016E1
8.075537000E-2,-1.873050094E0,1.792200089E1,1.969950080E0,1.812697260E1
8.271980300E-2,-1.911000133E0,1.795995140E1,2.275950193E0,1.820416779E1
8.468381200E-2,-2.179949999E0,1.795995140E1,2.391000032E0,1.824907991E1
8.664798300E-2,-2.218050003E0,1.773000145E1,2.314950228E0,1.801753845E1
8.861249300E-2,-2.448000193E0,1.753905106E1,2.046000004E0,1.782686548E1
9.057690400E-2,-2.524950027E0,1.726995087E1,1.585950017E0,1.752546185E1
9.254137400E-2,-2.448000193E0,1.688700104E1,1.279950023E0,1.711145175E1
9.450582700E-2,-2.371050119E0,1.638899994E1,5.899500251E-1,1.657013092E1
9.647095300E-2,-2.218050003E0,1.588995075E1,-1.759500057E-1,1.604497551E1
9.843592300E-2,-2.140950203E0,1.546905041E1,-8.659500480E-1,1.564049417E1
1.004002980E-1,-2.179949999E0,1.520100117E1,-1.555950046E0,1.543514169E1
1.023648480E-1,-2.218050003E0,1.500900078E1,-2.092050076E0,1.531556475E1
1.043291590E-1,-2.371050119E0,1.481700039E1,-2.475000143E0,1.520825450E1
1.062935410E-1,-2.485950232E0,1.466400051E1,-2.590050220E0,1.509705997E1
1.082578210E-1,-2.563050032E0,1.458705044E1,-2.398950100E0,1.500354050E1
1.102221410E-1,-2.601000071E0,1.454895115E1,-2.014950037E0,1.491634019E1
1.121864460E-1,-2.716050148E0,1.458705044E1,-1.632000089E0,1.492723662E1
1.141507560E-1,-2.830950022E0,1.466400051E1,-1.479000092E0,1.500781897E1
1.161150640E-1,-2.677950144E0,1.458705044E1,-1.210950017E0,1.488018338E1
1.180793720E-1,-2.332950115E0,1.443405056E1,-1.018950105E0,1.465683223E1
1.200434700E-1,-2.103000164E0,1.420395088E1,-8.269500136E-1,1.438258241E1
1.220076510E-1,-1.911000133E0,1.401195049E1,-8.269500136E-1,1.416582241E1
1.239718000E-1,-1.567050099E0,1.389705086E1,-9.810000658E-1,1.401948750E1
1.259359580E-1,-1.183050036E0,1.362900066E1,-9.040500522E-1,1.371009019E1
1.279000660E-1,-7.230000496E-1,1.332300091E1,-6.360000372E-1,1.335775349E1
1.298641890E-1,-7.200000435E-2,1.274805069E1,-1.369500011E-1,1.274898959E1
1.318285080E-1,4.639500082E-1,1.221105099E1,2.449500114E-1,1.222231632E1
1.337927830E-1,9.240000248E-1,1.140600014E1,9.730500579E-1,1.148466114E1
1.357570970E-1,1.498950124E0,1.048605061E1,1.663050056E0,1.072239918E1
1.377213990E-1,2.035050154E0,9.565950394E0,2.467950106E0,1.008660566E1
1.396855280E-1,2.494950056E0,8.722949982E0,2.965950251E0,9.545234049E0
1.416497080E-1,2.992950201E0,7.726950169E0,3.463950157E0,8.981228229E0
1.436138830E-1,3.415050268E0,6.883050442E0,3.847950220E0,8.593350488E0
1.455780720E-1,3.798000097E0,6.079050064E0,4.000950336E0,8.208974236E0
1.475422210E-1,4.105050087E0,5.274000168E0,3.733050108E0,7.655205882E0
1.495063820E-1,4.564949989E0,4.354050159E0,3.463950157E0,7.196907106E0
1.514710740E-1,4.833000183E0,3.549000263E0,3.157950163E0,6.776868220E0
1.534356110E-1,4.987050056E0,2.935950041E0,2.851050138E0,6.451275672E0
1.554000700E-1,5.178000450E0,2.245950222E0,2.659050226E0,6.239112851E0
1.573645450E-1,5.215950012E0,1.633050084E0,2.545050144E0,6.029118289E0
1.593291380E-1,5.254950047E0,1.018950105E0,2.583000183E0,5.943454320E0
1.612936970E-1,5.215950012E0,4.830000103E-1,2.659050226E0,5.874518844E0
1.632588620E-1,5.101050377E0,-9.105000645E-2,2.889000177E0,5.863047593E0
1.652238500E-1,4.909950256E0,-4.740000367E-1,3.081000090E0,5.815913437E0
1.671880280E-1,4.564949989E0,-8.190000653E-1,3.388050079E0,5.743554026E0
1.691524540E-1,4.143000126E0,-1.240950108E0,3.541050196E0,5.589583500E0
1.711167410E-1,3.682950258E0,-1.585950017E0,3.655950069E0,5.426355220E0
1.730810690E-1,3.223050117E0,-1.893000126E0,3.541050196E0,5.148838512E0
1.750452380E-1,2.839950085E0,-2.275950193E0,3.426000118E0,4.998273960E0
1.770094540E-1,2.494950056E0,-2.620950222E0,3.196050167E0,4.827928388E0
1.789735920E-1,2.227050066E0,-2.965950251E0,3.081000090E0,4.821739773E0
1.809377560E-1,1.996950150E0,-3.271950245E0,2.965950251E0,4.846682287E0
1.829022230E-1,1.920000076E0,-3.655950069E0,2.773950100E0,4.974652788E0
1.848666010E-1,1.920000076E0,-3.961950302E0,2.659050226E0,5.143345078E0
1.868304020E-1,1.882050037E0,-4.384050369E0,2.545050144E0,5.407336703E0
1.887943720E-1,1.882050037E0,-4.690050125E0,2.545050144E0,5.658264995E0
1.907586880E-1,1.996950150E0,-4.996950150E0,2.545050144E0,5.952696946E0
1.927229370E-1,2.111999989E0,-5.188950062E0,2.545050144E0,6.153293990E0
1.946874350E-1,2.188950062E0,-5.494950294E0,2.506050110E0,6.423882647E0
1.966518600E-1,2.188950062E0,-5.764050484E0,2.353049994E0,6.599441236E0
1.986161490E-1,2.149950027E0,-5.878950119E0,2.275950193E0,6.660652288E0
2.005804780E-1,2.111999989E0,-5.955000401E0,2.085000038E0,6.653555356E0
2.025447860E-1,1.959000111E0,-5.917050362E0,1.893000126E0,6.514032230E0
2.045090970E-1,1.767000079E0,-5.878950119E0,1.740000129E0,6.380591213E0
2.064737640E-1,1.614000082E0,-5.725050449E0,1.548000097E0,6.146340636E0
2.084383260E-1,1.384050012E0,-5.419050217E0,1.432950020E0,5.773650963E0
2.104025910E-1,1.269000053E0,-5.227050304E0,1.240950108E0,5.520178728E0
2.123669430E-1,1.077000022E0,-4.882050037E0,8.200500607E-1,5.066243551E0
2.143326340E-1,8.850000501E-1,-4.651950359E0,2.070000172E-1,4.739906776E0
2.162979360E-1,7.699500322E-1,-4.306950092E0,-4.060500264E-1,4.394032177E0
2.182615340E-1,6.169500351E-1,-4.039050102E0,-9.810000658E-1,4.202013113E0
2.202256310E-1,5.020500422E-1,-3.732000113E0,-1.441050053E0,4.031935557E0
2.221899740E-1,3.870000243E-1,-3.426000118E0,-1.747050047E0,3.865155844E0
2.241542440E-1,2.719500065E-1,-3.042000055E0,-1.824000120E0,3.557344175E0
2.261186130E-1,8.100000024E-2,-2.544000149E0,-1.747050047E0,3.087180206E0
2.280829460E-1,-7.200000435E-2,-2.122950077E0,-1.363950014E0,2.524373322E0
2.300473850E-1,-1.870500147E-1,-1.777950048E0,-1.018950105E0,2.057754455E0
2.320117930E-1,-1.870500147E-1,-1.432950020E0,-5.590500236E-1,1.549474232E0
2.339759490E-1,-2.629500031E-1,-1.087950110E0,-9.900000691E-2,1.123645473E0
2.359401790E-1,-2.629500031E-1,-8.190000653E-1,1.680000126E-1,8.764290133E-1
2.379039880E-1,-1.099500060E-1,-5.890500546E-1,5.509500504E-1,8.140116268E-1
2.398679000E-1,-3.299999982E-2,-3.979500234E-1,8.200500607E-1,9.121048861E-1
2.418324550E-1,4.200000316E-2,-2.440500110E-1,1.050000072E0,1.078807007E0
2.437968220E-1,1.570500135E-1,-1.680000126E-1,1.203000069E0,1.224784829E0
2.457612550E-1,4.260000288E-1,-1.290000081E-1,1.356000066E0,1.427183662E0
2.477256680E-1,5.410500169E-1,-9.105000645E-2,1.510050058E0,1.606635118E0
2.496896380E-1,8.470500112E-1,-5.295000225E-2,1.510050058E0,1.732209168E0
2.516537420E-1,1.039050102E0,6.105000153E-2,1.548000097E0,1.865383746E0
2.536180830E-1,1.230000019E0,9.900000691E-2,1.585950017E0,2.009462243E0
2.555823550E-1,1.384050012E0,9.900000691E-2,1.624950051E0,2.136786865E0
2.575468040E-1,1.537050128E0,1.759500057E-1,1.624950051E0,2.243645286E0
2.595112010E-1,1.804950118E0,2.530499995E-1,1.663050056E0,2.467309206E0
2.614756740E-1,2.074050188E0,3.289500177E-1,1.624950051E0,2.655250453E0
2.634401240E-1,2.419050217E0,3.679500222E-1,1.585950017E0,2.915892424E0
2.654039130E-1,2.764050245E0,3.679500222E-1,1.548000097E0,3.189304827E0
2.673678960E-1,2.992950201E0,4.440000355E-1,1.471050024E0,3.364353595E0
2.693324390E-1,3.337950230E0,5.209500194E-1,1.395000100E0,3.655041168E0
2.712968170E-1,3.682950258E0,5.590500236E-1,1.165050030E0,3.903075852E0
2.732609620E-1,3.990000248E0,6.739500165E-1,1.011000037E0,4.170902981E0
2.752251550E-1,4.450050354E0,7.129500508E-1,8.580000401E-1,4.587745633E0
2.771893020E-1,4.795050144E0,8.659500480E-1,6.660000086E-1,4.917919416E0
2.791534630E-1,5.140050411E0,9.430500269E-1,4.750500321E-1,5.247393078E0
2.811185160E-1,5.485050201E0,9.810000658E-1,2.070000172E-1,5.575929147E0
2.830833070E-1,5.752950191E0,1.057950020E0,-1.369500011E-1,5.851021232E0
2.850476870E-1,6.060000420E0,1.210950017E0,-6.739500165E-1,6.216447028E0
2.870121740E-1,6.328050137E0,1.363950014E0,-1.249050021E0,6.592776663E0
2.889764960E-1,6.558000088E0,1.479000092E0,-1.861950040E0,6.975791308E0
2.909408670E-1,6.711000443E0,1.708950043E0,-2.206950188E0,7.268333118E0
2.929053430E-1,6.865050316E0,1.939050078E0,-2.092050076E0,7.434077250E0
2.948697880E-1,6.940950394E0,2.245950222E0,-1.479000092E0,7.443690351E0
2.968333160E-1,6.940950394E0,2.629050016E0,-2.910000086E-1,7.427878389E0
2.987971060E-1,6.673050404E0,3.051000118E0,1.203000069E0,7.435416100E0
3.007613660E-1,6.366000175E0,3.511050224E0,2.965950251E0,7.851770043E0
3.027254890E-1,5.868000507E0,4.085999966E0,4.996950150E0,8.723436047E0
3.046896480E-1,5.293050289E0,4.774950027E0,6.913950443E0,9.930722021E0
3.066537970E-1,4.795050144E0,5.389050484E0,8.599950790E0,1.122468372E1
3.086177730E-1,4.372950077E0,6.001950264E0,9.979950905E0,1.243967521E1
3.105817990E-1,3.913050175E0,6.730050087E0,1.097700024E1,1.345734261E1
3.125459290E-1,3.529950142E0,7.420050144E0,1.128300095E1,1.395792974E1
3.145100280E-1,3.223050117E0,8.302050591E0,1.051695061E1,1.378108654E1
3.164743710E-1,2.955000162E0,9.375000000E0,8.562000275E0,1.303573932E1
3.184386430E-1,3.070050240E0,1.044795036E1,6.492000103E0,1.267797068E1
3.204026120E-1,3.337950230E0,1.155900097E1,4.461000443E0,1.283171618E1
3.223666600E-1,3.529950142E0,1.267095089E1,2.736000061E0,1.343500059E1
3.243317770E-1,3.568050146E0,1.405095100E1,6.280500293E-1,1.451050147E1
3.262965810E-1,3.300000191E0,1.562205029E1,-1.671000123E0,1.605399320E1
3.282606250E-1,2.802000046E0,1.723200035E1,-4.009050369E0,1.791271965E1
3.302248910E-1,1.843950033E0,1.888005066E1,-6.001950264E0,1.989673017E1
3.321880740E-1,4.260000288E-1,2.064300156E1,-8.071050644E0,2.216882604E1
3.341515780E-1,-1.297950029E0,2.309595108E1,-8.838000298E0,2.476323646E1
3.361160220E-1,-3.175950050E0,2.581695175E1,-7.956000328E0,2.720109552E1
3.380801910E-1,-5.208000183E0,2.850000191E1,-7.266000271E0,2.986918369E1
3.400443440E-1,-7.047000408E0,3.179595184E1,-6.538050175E0,3.321729773E1
3.420085010E-1,-8.619000435E0,3.570600128E1,-5.464950085E0,3.713585027E1
3.439729610E-1,-9.769050598E0,3.949995041E1,-4.966950417E0,4.099208495E1
3.459373690E-1,-1.084200096E1,4.314105225E1,-4.927950382E0,4.475471002E1
3.479015260E-1,-1.180005074E1,4.674405289E1,-4.852050304E0,4.845399952E1
3.498657560E-1,-1.225995064E1,4.942695236E1,-5.158050060E0,5.118530541E1
3.518300760E-1,-1.229805088E1,5.134305191E1,-6.117000103E0,5.314855337E1
3.537943690E-1,-1.195305061E1,5.280000305E1,-6.270000458E0,5.449796920E1
3.557585100E-1,-1.103295040E1,5.337495422E1,-5.848050117E0,5.481616024E1
3.577226890E-1,-9.999000549E0,5.326005173E1,-5.695050240E0,5.448895961E1
3.596870170E-1,-8.925000191E0,5.207205200E1,-5.503050327E0,5.311720805E1
3.616513020E-1,-7.086000443E0,4.946505356E1,-5.158050060E0,5.023552932E1
3.636159290E-1,-4.900950432E0,4.551795197E1,-4.927950382E0,4.604549882E1
3.655804560E-1,-3.175950050E0,4.156995010E1,-4.927950382E0,4.198133044E1
3.675447420E-1,-2.140950203E0,3.792900085E1,-4.852050304E0,3.829797861E1
3.695090880E-1,-1.795950055E0,3.486300278E1,-4.736999989E0,3.522915793E1
3.714732530E-1,-1.642950058E0,3.229500198E1,-4.736999989E0,3.268188500E1
3.734374720E-1,-1.375050068E0,3.007200050E1,-4.852050304E0,3.049193941E1
3.754017490E-1,-1.144950032E0,2.811705208E1,-5.197050095E0,2.861623417E1
3.773660090E-1,-7.620000243E-1,2.639205170E1,-5.617950439E0,2.699411795E1
3.793302040E-1,-3.780000210E-1,2.489700127E1,-6.078000069E0,2.563095084E1
3.812944090E-1,-3.299999982E-2,2.351805115E1,-6.615000248E0,2.443067840E1
3.832598150E-1,3.109500110E-1,2.232900047E1,-7.075050354E0,2.342514225E1
3.852248690E-1,6.550500393E-1,2.114100075E1,-7.650000572E0,2.249207665E1
3.871895450E-1,1.039050102E0,2.006805038E1,-8.148000717E0,2.168400763E1
3.891543320E-1,1.114950061E0,1.922504997E1,-8.569950104E0,2.107818078E1
3.911187380E-1,1.153950095E0,1.834305000E1,-8.991000175E0,2.046062483E1
3.930832560E-1,1.000050068E0,1.761495018E1,-9.298050880E0,1.994342799E1
3.950475030E-1,8.850000501E-1,1.684905052E1,-9.451050758E0,1.933897849E1
3.970118470E-1,7.320000529E-1,1.619700050E1,-9.528000832E0,1.880588869E1
3.989754720E-1,5.410500169E-1,1.558395100E1,-9.412950516E0,1.821416760E1
4.009393080E-1,5.020500422E-1,1.508595085E1,-8.991000175E0,1.756917902E1
4.029040110E-1,2.719500065E-1,1.458705044E1,-8.722949982E0,1.699840739E1
4.048684600E-1,1.570500135E-1,1.424205112E1,-8.301000595E0,1.648536611E1
4.068329690E-1,1.189500093E-1,1.378200054E1,-7.840950489E0,1.585680272E1
4.087974600E-1,4.200000316E-2,1.339905071E1,-7.420050144E0,1.531644437E1
4.107618730E-1,-1.480500102E-1,1.305405045E1,-6.997950554E0,1.481220658E1
4.127263090E-1,-1.870500147E-1,1.270905018E1,-6.730050087E0,1.438222925E1
4.146906390E-1,-1.480500102E-1,1.232595062E1,-6.154950142E0,1.377804009E1
4.166550010E-1,4.200000316E-2,1.186605072E1,-5.695050240E0,1.316201052E1
4.186194990E-1,1.960500032E-1,1.140600014E1,-5.388000488E0,1.261609385E1
4.205839430E-1,1.960500032E-1,1.094595051E1,-5.005050182E0,1.203755770E1
4.225485880E-1,3.490500152E-1,1.048605061E1,-4.890000343E0,1.157545665E1
4.245131740E-1,2.340000123E-1,1.002600002E1,-4.468050003E0,1.097902105E1
4.264776150E-1,2.719500065E-1,9.451050758E0,-3.702000141E0,1.015387228E1
4.284420990E-1,2.719500065E-1,8.838000298E0,-3.241950035E0,9.417772884E0
4.304066710E-1,2.340000123E-1,8.224950790E0,-2.704950094E0,8.661485238E0
4.323712310E-1,2.340000123E-1,7.687950134E0,-2.437050104E0,8.068367027E0
4.343357220E-1,2.719500065E-1,7.189950466E0,-2.322000027E0,7.560491296E0
4.363002330E-1,2.340000123E-1,6.691950321E0,-2.130000114E0,7.026653229E0
4.382648200E-1,1.570500135E-1,6.154950142E0,-2.053950071E0,6.490515145E0
4.402293850E-1,4.050000105E-3,5.695050240E0,-2.053950071E0,6.054116329E0
4.421938450E-1,4.200000316E-2,5.274000168E0,-2.169000149E0,5.702754020E0
4.441583250E-1,-1.480500102E-1,4.966950417E0,-2.130000114E0,5.406423562E0
4.461229620E-1,-1.099500060E-1,4.584000111E0,-2.169000149E0,5.072445925E0
4.480875530E-1,-1.870500147E-1,4.315950394E0,-2.206950188E0,4.851086954E0
4.500518590E-1,-4.549500346E-1,4.009050369E0,-1.747050047E0,4.396777031E0
4.520162480E-1,-8.770500422E-1,3.741000175E0,-1.287000060E0,4.052242372E0
4.539808650E-1,-9.529500604E-1,3.357000113E0,-7.120500207E-1,3.561541633E0
4.559454090E-1,-1.183050036E0,3.127050161E0,-2.910000086E-1,3.355999271E0
4.579100360E-1,-1.413000107E0,2.782050133E0,-1.759500057E-1,3.125272892E0
4.598746390E-1,-1.528050065E0,2.398950100E0,-2.205000073E-2,2.844360172E0
4.618391220E-1,-1.452000022E0,2.053950071E0,9.195000678E-2,2.517035908E0
4.638036410E-1,-1.528050065E0,1.671000123E0,9.195000678E-2,2.266193552E0
4.657680280E-1,-1.489950061E0,1.288050056E0,-2.205000073E-2,1.969647261E0
4.677324680E-1,-1.528050065E0,1.057950020E0,-2.205000073E-2,1.858677338E0
4.696971580E-1,-1.489950061E0,7.890000343E-1,-9.900000691E-2,1.688867443E0
4.716617740E-1,-1.489950061E0,5.590500236E-1,-2.140500098E-1,1.605710285E0
4.736262100E-1,-1.567050099E0,4.060500264E-1,-2.140500098E-1,1.632893152E0
4.755906990E-1,-1.489950061E0,9.900000691E-2,-2.520000041E-1,1.514350087E0
4.775560160E-1,-1.375050068E0,-1.290000081E-1,-2.520000041E-1,1.403890200E0
4.795210870E-1,-1.183050036E0,-3.210000098E-1,-2.520000041E-1,1.251460106E0
4.814856250E-1,-1.030050039E0,-5.509500504E-1,-2.140500098E-1,1.187588501E0
4.834503200E-1,-8.380500674E-1,-7.039500475E-1,-9.900000691E-2,1.098942485E0
4.854146060E-1,-6.850500107E-1,-1.011000037E0,5.295000225E-2,1.222382221E0
4.873790120E-1,-4.930500090E-1,-1.240950108E0,2.449500114E-1,1.357591982E0
4.893427210E-1,-3.019500077E-1,-1.471050024E0,4.360500276E-1,1.563746017E0
4.913066310E-1,-7.200000435E-2,-1.663050056E0,6.280500293E-1,1.779147641E0
4.932710060E-1,4.200000316E-2,-1.893000126E0,9.349500537E-1,2.111716146E0
4.952352450E-1,1.570500135E-1,-2.122950077E0,1.011000037E0,2.356629545E0
4.971997450E-1,3.490500152E-1,-2.314050198E0,1.165050030E0,2.614193145E0
4.991641680E-1,4.639500082E-1,-2.428950071E0,1.240950108E0,2.766768011E0
5.011292320E-1,6.550500393E-1,-2.581950188E0,1.279950023E0,2.955305295E0
5.030941010E-1,7.320000529E-1,-2.659050226E0,1.240950108E0,3.024289892E0
5.050582680E-1,7.320000529E-1,-2.697000027E0,1.165050030E0,3.027701239E0
5.070226410E-1,6.940500140E-1,-2.773950100E0,1.165050030E0,3.087692690E0
5.089871170E-1,8.850000501E-1,-2.926950216E0,1.203000069E0,3.285950673E0
5.109515630E-1,8.850000501E-1,-2.926950216E0,1.356000066E0,3.344996089E0
5.129160720E-1,9.619500637E-1,-2.965950251E0,1.548000097E0,3.481165482E0
5.148805630E-1,9.619500637E-1,-2.965950251E0,2.008050203E0,3.708702527E0
5.168450210E-1,1.077000022E0,-2.926950216E0,2.659050226E0,4.098477122E0
5.188094880E-1,1.230000019E0,-3.004050255E0,3.273000240E0,4.609744955E0
5.207739480E-1,1.306950092E0,-3.081000090E0,3.963000298E0,5.187104342E0
5.227384110E-1,1.345050097E0,-3.196050167E0,4.614000320E0,5.771732443E0
5.247028320E-1,1.537050128E0,-3.234000206E0,5.035950184E0,6.179164562E0
5.266672620E-1,1.614000082E0,-3.310950041E0,5.419050217E0,6.552365351E0
5.286317280E-1,1.651950121E0,-3.310950041E0,5.725950241E0,6.817465478E0
5.305961830E-1,1.843950033E0,-3.387000084E0,5.764050484E0,6.935142340E0
5.325603320E-1,1.882050037E0,-3.271950245E0,5.572050095E0,6.730194128E0
5.345245700E-1,2.074050188E0,-3.042000055E0,5.457000256E0,6.582879333E0
5.364892270E-1,2.188950062E0,-2.851050138E0,5.341950417E0,6.438666284E0
5.384537450E-1,2.380050182E0,-2.581950188E0,5.341950417E0,6.392772473E0
5.404182430E-1,2.494950056E0,-2.238000154E0,5.496000290E0,6.437347253E0
5.423827470E-1,2.610000134E0,-1.893000126E0,5.572050095E0,6.437646498E0
5.443473810E-1,2.686950207E0,-1.585950017E0,5.496000290E0,6.319885921E0
5.463119760E-1,2.725050211E0,-1.279050112E0,5.380950451E0,6.165751827E0
5.482764010E-1,2.764050245E0,-9.730500579E-1,5.266050339E0,6.026448900E0
5.502408860E-1,2.955000162E0,-6.280500293E-1,5.457000256E0,6.237413293E0
5.522054780E-1,3.031950235E0,-3.979500234E-1,5.419050217E0,6.222314015E0
5.541700380E-1,2.917050123E0,-1.680000126E-1,5.151000023E0,5.922010356E0
5.561338080E-1,2.802000046E0,-1.500000060E-2,4.614000320E0,5.398187493E0
5.580978090E-1,2.878050089E0,2.910000086E-1,4.192950249E0,5.093985189E0
5.600620900E-1,2.878050089E0,5.590500236E-1,3.847950220E0,4.837605827E0
5.620263130E-1,2.802000046E0,8.659500480E-1,3.426000118E0,4.509828218E0
5.639908160E-1,2.649000168E0,1.134000063E0,3.043050051E0,4.190860490E0
5.659552360E-1,2.572050095E0,1.441050053E0,2.698050022E0,3.996441025E0
5.679195700E-1,2.494950056E0,1.708950043E0,2.314950228E0,3.808448580E0
5.698839300E-1,2.341950178E0,1.978050113E0,1.969950080E0,3.643914955E0
5.718483630E-1,2.227050066E0,2.284050226E0,1.585950017E0,3.562565773E0
5.738127740E-1,2.149950027E0,2.437050104E0,1.318050027E0,3.506957970E0
5.757772890E-1,2.111999989E0,2.706000090E0,1.011000037E0,3.578421651E0
5.777417740E-1,1.996950150E0,2.821050167E0,5.899500251E-1,3.506305032E0
5.797069080E-1,1.959000111E0,2.896950245E0,2.070000172E-1,3.503262931E0
5.816718510E-1,1.882050037E0,2.935950041E0,-6.105000153E-2,3.487928051E0
5.836360460E-1,1.767000079E0,2.974050045E0,-4.440000355E-1,3.487749845E0
5.856004640E-1,1.651950121E0,2.859000206E0,-8.659500480E-1,3.413603794E0
5.875647980E-1,1.498950124E0,2.782050133E0,-1.249050021E0,3.398055381E0
5.895291560E-1,1.384050012E0,2.551950216E0,-1.747050047E0,3.388248546E0
5.914935890E-1,1.306950092E0,2.361000061E0,-2.322000027E0,3.560073589E0
5.934580000E-1,1.230000019E0,2.092950106E0,-2.935050249E0,3.808918502E0
5.954221370E-1,1.039050102E0,1.900950074E0,-3.510000229E0,4.124722767E0
5.973863680E-1,9.240000248E-1,1.594050050E0,-4.084949970E0,4.481248472E0
5.993506880E-1,7.699500322E-1,1.402950048E0,-4.621950150E0,4.891167046E0
6.013149810E-1,7.699500322E-1,1.057950020E0,-5.082000256E0,5.247743124E0
6.032785260E-1,5.790000558E-1,8.280000687E-1,-5.311950207E0,5.407184126E0
6.052422910E-1,5.020500422E-1,7.129500508E-1,-5.197050095E0,5.269694650E0
6.072069000E-1,4.260000288E-1,5.590500236E-1,-4.698000431E0,4.750286413E0
6.091712730E-1,3.109500110E-1,7.129500508E-1,-3.817050219E0,3.895492274E0
6.111348500E-1,1.960500032E-1,9.430500269E-1,-2.014950037E0,2.233338892E0
6.130986600E-1,1.570500135E-1,1.402950048E0,4.360500276E-1,1.477522647E0
6.150631870E-1,8.100000024E-2,1.978050113E0,3.273000240E0,3.825150170E0
6.170275040E-1,4.200000316E-2,2.629050016E0,6.109050274E0,6.650876877E0
6.189918890E-1,8.100000024E-2,3.319050074E0,8.524050713E0,9.147791807E0
6.209562300E-1,8.100000024E-2,4.085999966E0,1.028700066E1,1.106907129E1
6.229205330E-1,1.189500093E-1,4.929000378E0,1.124505043E1,1.227845076E1
6.248848470E-1,2.719500065E-1,5.848950386E0,1.162800026E1,1.301900793E1
6.268500540E-1,4.639500082E-1,6.997950554E0,1.147500038E1,1.344850160E1
6.288149990E-1,8.089500666E-1,8.263050079E0,1.051695061E1,1.339920322E1
6.307790030E-1,1.230000019E0,9.910950661E0,8.907000542E0,1.338187213E1
6.327432940E-1,1.537050128E0,1.186605072E1,7.066950321E0,1.389631137E1
6.347076030E-1,1.996950150E0,1.393605042E1,5.112000465E0,1.497777887E1
6.366719070E-1,2.419050217E0,1.566000080E1,2.965950251E0,1.612092708E1
6.386371170E-1,2.533950090E0,1.684905052E1,4.360500276E-1,1.704410591E1
6.406020610E-1,2.380050182E0,1.807500076E1,-2.359950066E0,1.838313509E1
6.425662570E-1,1.575000048E0,1.995300102E1,-4.429950237E0,2.049944716E1
6.445306750E-1,7.320000529E-1,2.232900047E1,-5.388000488E0,2.298152814E1
6.464952780E-1,3.870000243E-1,2.505105209E1,-5.350050449E0,2.561889966E1
6.484598270E-1,7.699500322E-1,2.781000137E1,-4.468050003E0,2.817716221E1
6.504240940E-1,1.384050012E0,3.068505096E1,-2.782050133E0,3.084198032E1
6.523884440E-1,2.457000017E0,3.363600159E1,-7.890000343E-1,3.373484805E1
6.543517360E-1,3.337950230E0,3.666405106E1,1.087950110E0,3.683175514E1
6.563153180E-1,4.335000038E0,3.976905060E1,1.777950048E0,4.004410964E1
6.582797490E-1,5.254950047E0,4.229805374E1,2.430000067E0,4.269244372E1
6.602439310E-1,5.715000153E0,4.360095215E1,3.118950129E0,4.408437484E1
6.622082610E-1,5.140050411E0,4.348605347E1,2.889000177E0,4.388397528E1
6.641725470E-1,3.607050180E0,4.225995255E1,1.740000129E0,4.244928740E1
6.661377360E-1,1.804950118E0,3.992205048E1,5.899500251E-1,3.996718654E1
6.681026770E-1,8.089500666E-1,3.658695221E1,-4.060500264E-1,3.659814679E1
6.700663360E-1,8.100000024E-2,3.290805054E1,-8.659500480E-1,3.291954162E1
6.720303710E-1,-5.700000525E-1,2.934300232E1,-1.326000094E0,2.937847786E1
6.739947240E-1,-1.375050068E0,2.623905182E1,-1.671000123E0,2.632813788E1
6.759589840E-1,-2.332950115E0,2.347905159E1,-2.206950188E0,2.369766125E1
6.779234170E-1,-3.100050211E0,2.118000031E1,-2.743950129E0,2.158082451E1
6.798878120E-1,-3.751050234E0,1.941705132E1,-3.165000200E0,2.002771794E1
6.818521510E-1,-4.018949986E0,1.811295128E1,-3.319050074E0,1.884799874E1
6.838165060E-1,-3.981000185E0,1.723200035E1,-3.702000141E0,1.806917274E1
6.857808050E-1,-3.559950113E0,1.665705109E1,-3.931950092E0,1.748115635E1
6.877451210E-1,-3.253050089E0,1.638899994E1,-4.237950325E0,1.723780371E1
6.897092330E-1,-3.100050211E0,1.631204987E1,-4.621950150E0,1.723530404E1
6.916734150E-1,-3.214950085E0,1.638899994E1,-5.005050182E0,1.743518713E1
6.936375640E-1,-3.636000156E0,1.650405121E1,-5.043000221E0,1.763621430E1
6.956017230E-1,-4.134000301E0,1.657995033E1,-5.082000256E0,1.782726670E1
6.975665500E-1,-4.747950077E0,1.657995033E1,-5.197050095E0,1.801241551E1
6.995311820E-1,-5.398950100E0,1.673400116E1,-5.350050449E0,1.837929533E1
7.014956150E-1,-5.782950401E0,1.677195168E1,-5.464950085E0,1.856358149E1
7.034601070E-1,-6.088950157E0,1.692495155E1,-5.695050240E0,1.886697899E1
7.054243830E-1,-6.472050190E0,1.700205040E1,-5.962950230E0,1.914455345E1
7.073887230E-1,-7.162050247E0,1.723200035E1,-6.270000458E0,1.968628217E1
7.093530250E-1,-7.737000465E0,1.730895042E1,-6.499950409E0,2.004271180E1
7.113173380E-1,-8.236050606E0,1.746195030E1,-6.768000126E0,2.045869164E1
7.132820440E-1,-8.427000046E0,1.742400169E1,-6.960000515E0,2.056822238E1
7.152466390E-1,-8.503950119E0,1.726995087E1,-7.113000393E0,2.052225975E1
7.172108980E-1,-8.542050362E0,1.711695099E1,-7.266000271E0,2.046341603E1
7.191752560E-1,-8.464950562E0,1.688700104E1,-7.534950256E0,2.033719910E1
7.211397340E-1,-8.274000168E0,1.665705109E1,-7.573050499E0,2.008152194E1
7.231041770E-1,-7.813950539E0,1.642695045E1,-7.342950344E0,1.961686631E1
7.250687720E-1,-7.468950272E0,1.619700050E1,-7.075050354E0,1.918813125E1
7.270333260E-1,-7.276950359E0,1.608195114E1,-6.730050087E0,1.889118136E1
7.289975930E-1,-6.970950127E0,1.592895031E1,-6.460950375E0,1.854911004E1
7.309619440E-1,-6.817050457E0,1.581405067E1,-6.040050507E0,1.824934480E1
7.329264230E-1,-6.778950214E0,1.585200119E1,-5.733000278E0,1.816885797E1
7.348908650E-1,-6.702000141E0,1.585200119E1,-5.388000488E0,1.803422571E1
7.368548350E-1,-6.741000175E0,1.592895031E1,-4.852050304E0,1.796426824E1
7.388189440E-1,-6.778950214E0,1.608195114E1,-4.315050125E0,1.797784682E1
7.407831040E-1,-6.894000530E0,1.642695045E1,-4.123950005E0,1.828603041E1
7.427472490E-1,-6.817050457E0,1.665705109E1,-3.931950092E0,1.842253401E1
7.447117200E-1,-6.817050457E0,1.688700104E1,-3.817050219E0,1.860679589E1
7.466760950E-1,-6.702000141E0,1.711695099E1,-3.664050102E0,1.874385446E1
7.486405860E-1,-6.586950302E0,1.730895042E1,-3.394950151E0,1.882852532E1
7.506050330E-1,-6.511050224E0,1.757700157E1,-3.127050161E0,1.900324188E1
7.525694970E-1,-6.702000141E0,1.769205093E1,-2.704950094E0,1.911131150E1
7.545339560E-1,-6.778950214E0,1.788300133E1,-2.053950071E0,1.923472416E1
7.564984180E-1,-6.856050491E0,1.784505081E1,-1.363950014E0,1.916537572E1
7.584628790E-1,-6.856050491E0,1.776900101E1,-7.510500550E-1,1.906061125E1
7.604264450E-1,-6.894000530E0,1.769205093E1,5.295000225E-2,1.898785699E1
7.623902700E-1,-6.894000530E0,1.750005150E1,7.050000429E-1,1.882222279E1
7.643550200E-1,-6.894000530E0,1.715505028E1,1.279950023E0,1.853270799E1
7.663194990E-1,-6.931950092E0,1.673400116E1,1.471050024E0,1.817258141E1
7.682838230E-1,-6.778950214E0,1.627395058E1,1.548000097E0,1.769722966E1
7.702481930E-1,-6.549000263E0,1.577505112E1,1.585950017E0,1.715391733E1
7.722128180E-1,-6.396000385E0,1.516200066E1,1.471050024E0,1.652147309E1
7.741773590E-1,-6.088950157E0,1.454895115E1,1.240950108E0,1.582046936E1
7.761425280E-1,-5.668050289E0,1.389705086E1,7.810500264E-1,1.502880088E1
7.781075130E-1,-5.245950222E0,1.324605083E1,2.070000172E-1,1.424853345E1
7.800717060E-1,-4.978050232E0,1.274805069E1,-1.369500011E-1,1.368621700E1
7.820361310E-1,-4.633050442E0,1.213395023E1,-4.060500264E-1,1.299472129E1
7.840004140E-1,-4.288050175E0,1.167405033E1,-4.819500148E-1,1.244600744E1
7.859647420E-1,-3.865950108E0,1.121400070E1,-5.590500236E-1,1.187484395E1
7.879292250E-1,-3.406050205E0,1.075500011E1,-5.590500236E-1,1.129529736E1
7.898936630E-1,-2.946000099E0,1.048605061E1,-7.120500207E-1,1.091527320E1
7.918581290E-1,-2.716050148E0,1.021800041E1,-1.018950105E0,1.062180400E1
7.938225860E-1,-2.332950115E0,9.873000145E0,-1.326000094E0,1.023118099E1
7.957867490E-1,-1.950000048E0,9.643050194E0,-1.594050050E0,9.966539660E0
7.977509880E-1,-1.642950058E0,9.565950394E0,-1.786050081E0,9.868974958E0
7.997158020E-1,-1.375050068E0,9.412950516E0,-1.900950074E0,9.700928372E0
8.016804470E-1,-1.183050036E0,9.451050758E0,-1.900950074E0,9.712650463E0
8.036446980E-1,-1.183050036E0,9.490050316E0,-1.861950040E0,9.743075507E0
8.056090650E-1,-1.030050039E0,9.336000443E0,-1.708950043E0,9.546853806E0
8.075735080E-1,-7.230000496E-1,9.298050880E0,-1.441050053E0,9.436795245E0
8.095379520E-1,-4.930500090E-1,9.259950638E0,-1.018950105E0,9.328882218E0
8.115022820E-1,-3.780000210E-1,9.412950516E0,-5.970000029E-1,9.439434858E0
8.134666460E-1,-1.870500147E-1,9.451050758E0,-2.140500098E-1,9.455324720E0
8.154308990E-1,2.340000123E-1,9.451050758E0,5.509500504E-1,9.469987455E0
8.173951850E-1,6.550500393E-1,9.412950516E0,1.510050058E0,9.555782498E0
8.193598860E-1,1.153950095E0,9.298050880E0,2.620950222E0,9.729066300E0
8.213244760E-1,1.575000048E0,9.183000565E0,3.847950220E0,1.008041891E1
8.232890520E-1,2.265000105E0,8.991000175E0,4.806000233E0,1.044346436E1
8.252536320E-1,3.070050240E0,8.647050858E0,5.496000290E0,1.069592054E1
8.272182980E-1,3.990000248E0,8.148000717E0,6.339000225E0,1.106765294E1
8.291829380E-1,4.833000183E0,7.534950256E0,6.760950089E0,1.121801285E1
8.311471850E-1,5.676000118E0,6.807000160E0,6.760950089E0,1.114731692E1
8.331115500E-1,6.520050526E0,6.001950264E0,6.721950531E0,1.112290811E1
8.350760270E-1,7.171050549E0,5.235000134E0,6.376950264E0,1.093136254E1
8.370404710E-1,7.822950363E0,4.468950272E0,5.841000080E0,1.073719474E1
8.390050710E-1,8.473950386E0,3.702000141E0,5.457000256E0,1.073738758E1
8.409696250E-1,8.934000015E0,3.088950157E0,5.035950184E0,1.071068455E1
8.429337330E-1,9.355950356E0,2.361000061E0,4.729050159E0,1.074579191E1
8.448979880E-1,9.547050476E0,1.633050084E0,4.192950249E0,1.055432884E1
8.468626640E-1,9.433050156E0,9.430500269E-1,3.694050074E0,1.017436900E1
8.488272170E-1,9.279000282E0,2.140500098E-1,3.618000269E0,9.961706159E0
8.507923830E-1,8.973000526E0,-3.979500234E-1,3.618000269E0,9.683131137E0
8.527573700E-1,8.589000702E0,-1.048950076E0,3.771000147E0,9.438838458E0
8.547220770E-1,8.128950119E0,-1.624050021E0,3.847950220E0,9.139151460E0
8.566868530E-1,7.593000412E0,-2.161050081E0,3.847950220E0,8.782397942E0
8.586514860E-1,7.018050194E0,-2.544000149E0,3.694050074E0,8.328923774E0
8.606161610E-1,6.481050491E0,-2.926950216E0,3.618000269E0,7.978783052E0
8.625810800E-1,5.944950104E0,-3.234000206E0,3.541050196E0,7.638077347E0
8.645459280E-1,5.523000240E0,-3.655950069E0,3.655950069E0,7.565412975E0
8.665105050E-1,5.101050377E0,-3.924000263E0,3.808950186E0,7.478408556E0
8.684751610E-1,4.680000305E0,-4.192049980E0,4.039050102E0,7.469244381E0
8.704397690E-1,4.372950077E0,-4.384050369E0,4.308000088E0,7.543305295E0
8.724043910E-1,4.105050087E0,-4.614000320E0,4.576050282E0,7.686395212E0
8.743690050E-1,3.952050209E0,-4.804950237E0,4.806000233E0,7.861544751E0
8.763336220E-1,3.837000132E0,-4.804950237E0,4.996950150E0,7.923359615E0
8.782980910E-1,3.568050146E0,-4.882050037E0,4.921050072E0,7.796289388E0
8.802625790E-1,3.492000103E0,-4.959000111E0,4.729050159E0,7.690881759E0
8.822272600E-1,3.337950230E0,-5.035050392E0,4.461000443E0,7.509605125E0
8.841918850E-1,3.262050152E0,-5.112000465E0,4.039050102E0,7.286113208E0
8.861563200E-1,3.070050240E0,-5.074050426E0,3.541050196E0,6.907259420E0
8.881208100E-1,2.955000162E0,-5.074050426E0,3.043050051E0,6.613483749E0
8.900855620E-1,2.802000046E0,-5.074050426E0,2.583000183E0,6.345792459E0
8.920502510E-1,2.686950207E0,-4.996950150E0,2.122950077E0,6.057733012E0
8.940148540E-1,2.533950090E0,-4.920000076E0,1.701000094E0,5.789706826E0
8.959794830E-1,2.457000017E0,-4.882050037E0,1.471050024E0,5.659969066E0
8.979437360E-1,2.265000105E0,-4.690050125E0,1.240950108E0,5.354134180E0
8.999080990E-1,2.111999989E0,-4.422000408E0,1.087950110E0,5.019787546E0
9.018725760E-1,1.996950150E0,-4.116000175E0,1.050000072E0,4.693800965E0
9.038370200E-1,1.843950033E0,-3.771000147E0,9.349500537E-1,4.300549434E0
9.058016650E-1,1.690050125E0,-3.463950157E0,7.810500264E-1,3.932589384E0
9.077662510E-1,1.498950124E0,-3.081000090E0,7.050000429E-1,3.498062047E0
9.097310970E-1,1.384050012E0,-2.736000061E0,4.750500321E-1,3.102734810E0
9.116958660E-1,1.306950092E0,-2.428950071E0,3.220500052E-1,2.776982751E0
9.136613010E-1,1.306950092E0,-2.083950043E0,1.680000126E-1,2.465601413E0
9.156265480E-1,1.269000053E0,-1.816050053E0,1.300500035E-1,2.219304380E0
9.175909210E-1,1.230000019E0,-1.548000097E0,5.295000225E-2,1.977879686E0
9.195555500E-1,1.306950092E0,-1.393950105E0,5.295000225E-2,1.911548885E0
9.215199830E-1,1.384050012E0,-1.240950108E0,5.295000225E-2,1.859665375E0
9.234844740E-1,1.459950089E0,-1.048950076E0,1.680000126E-1,1.805539955E0
9.254481400E-1,1.651950121E0,-8.580000401E-1,2.449500114E-1,1.877525973E0
9.274120650E-1,1.882050037E0,-7.039500475E-1,3.979500234E-1,2.048419448E0
9.293767980E-1,1.959000111E0,-5.130000114E-1,4.750500321E-1,2.080029562E0
9.313412940E-1,2.149950027E0,-2.830500007E-1,4.750500321E-1,2.219926791E0
9.333048490E-1,2.304000139E0,-1.290000081E-1,4.360500276E-1,2.348445714E0
9.352686800E-1,2.419050217E0,6.105000153E-2,3.979500234E-1,2.452324464E0
9.372334480E-1,2.533950090E0,2.140500098E-1,3.979500234E-1,2.573923987E0
9.391979280E-1,2.610000134E0,4.830000103E-1,3.220500052E-1,2.673781201E0
9.411624320E-1,2.764050245E0,6.360000372E-1,3.220500052E-1,2.854502761E0
9.431269280E-1,2.878050089E0,8.280000687E-1,3.220500052E-1,3.012054554E0
9.450913850E-1,2.992950201E0,9.810000658E-1,3.220500052E-1,3.166042994E0
9.470558530E-1,3.147000074E0,1.018950105E0,3.979500234E-1,3.331701218E0
9.490204290E-1,3.300000191E0,1.057950020E0,3.979500234E-1,3.488212110E0
9.509849860E-1,3.453000069E0,1.134000063E0,5.130000114E-1,3.670467903E0
9.529492970E-1,3.645000219E0,1.173000097E0,6.280500293E-1,3.880258067E0
9.549136800E-1,3.760050297E0,1.210950017E0,7.429500222E-1,4.019496600E0
9.568783340E-1,3.952050209E0,1.326000094E0,8.959500194E-1,4.263766356E0
9.588429090E-1,4.066950321E0,1.326000094E0,8.959500194E-1,4.370479104E0
9.608074900E-1,4.182000160E0,1.326000094E0,8.580000401E-1,4.470298162E0
9.627720670E-1,4.335000038E0,1.326000094E0,6.660000086E-1,4.581927279E0
9.647375900E-1,4.411950111E0,1.288050056E0,4.750500321E-1,4.620611352E0
9.667028360E-1,4.411950111E0,1.363950014E0,2.830500007E-1,4.626638167E0
9.686663080E-1,4.411950111E0,1.363950014E0,3.600000143E-1,4.631982668E0
9.706303000E-1,4.450050354E0,1.518000126E0,7.810500264E-1,4.766268108E0
9.725946540E-1,4.372950077E0,1.671000123E0,1.471050024E0,4.907027813E0
9.745588750E-1,4.450050354E0,1.863000035E0,2.620950222E0,5.490272976E0
9.765235580E-1,4.297049999E0,2.284050226E0,4.153950214E0,6.398189315E0
9.784881060E-1,4.182000160E0,2.743950129E0,5.994000435E0,7.806819382E0
9.804525990E-1,3.990000248E0,3.166050196E0,7.719000340E0,9.248077750E0
9.824171080E-1,3.607050180E0,3.741000175E0,9.060000420E0,1.044459195E1
9.843813810E-1,3.376950264E0,4.239000320E0,1.024800014E1,1.159286090E1
9.863457230E-1,3.108000040E0,4.736999989E0,1.101495075E1,1.238660459E1
9.883102050E-1,2.725050211E0,5.389050484E0,1.124505043E1,1.276396972E1
9.902746450E-1,2.380050182E0,6.040050507E0,1.051695061E1,1.235933247E1
9.922391100E-1,1.959000111E0,6.960000515E0,9.252000809E0,1.174218070E1
9.942035680E-1,1.614000082E0,8.302050591E0,8.677050591E0,1.211694051E1
9.961684140E-1,1.498950124E0,9.681000710E0,8.140049934E0,1.273691639E1
9.981331300E-1,1.575000048E0,1.094595051E1,7.219950199E0,1.320689739E1
1.000097729E0,1.729050040E0,1.213395023E1,6.031950474E0,1.366040954E1
1.002062363E0,1.729050040E0,1.316895103E1,4.269000053E0,1.395117367E1
1.004027289E0,1.690050125E0,1.401195049E1,2.430000067E0,1.432117057E1
1.005992130E0,1.230000019E0,1.531605053E1,6.660000086E-1,1.537978738E1
1.007956708E0,1.960500032E-1,1.704000092E1,-1.057050109E0,1.707388127E1
1.009921363E0,-1.068000078E0,1.891800117E1,-2.629050016E0,1.912964445E1
1.011885836E0,-2.524950027E0,2.133300018E1,-3.970050097E0,2.184567617E1
1.013850363E0,-3.981000185E0,2.451405144E1,-4.200000286E0,2.518783601E1
1.015814993E0,-5.169000149E0,2.777205086E1,-3.931950092E0,2.852131839E1
1.017779592E0,-6.396000385E0,3.148995209E1,-3.510000229E0,3.232407779E1
1.019743836E0,-7.546050549E0,3.566699982E1,-3.049950123E0,3.658387555E1
1.021708194E0,-8.809950829E0,4.011405182E1,-2.743950129E0,4.116165265E1
1.023672807E0,-9.462000847E0,4.429095078E1,-3.241950035E0,4.540625530E1
1.025637346E0,-9.844950676E0,4.831605148E1,-4.123950005E0,4.948101503E1
1.027601795E0,-9.922050476E0,5.145795059E1,-4.890000343E0,5.263344819E1
1.029566271E0,-9.615000725E0,5.437095261E1,-5.962950230E0,5.553562372E1
1.031530919E0,-9.001950264E0,5.659395218E1,-7.113000393E0,5.774517561E1
1.033495510E0,-7.966950417E0,5.774400330E1,-7.765050411E0,5.880593697E1
1.035459770E0,-6.664050102E0,5.778300095E1,-8.185950279E0,5.873920789E1
1.037424127E0,-5.590950489E0,5.697795105E1,-8.530950546E0,5.788370021E1
1.039388291E0,-4.441050053E0,5.498505402E1,-8.377950668E0,5.579667686E1
1.041352512E0,-3.330000162E0,5.172705078E1,-7.381050587E0,5.235701091E1
1.043317154E0,-2.640000105E0,4.777905273E1,-6.576000214E0,4.830166932E1
1.045281669E0,-2.103000164E0,4.367805099E1,-6.385050297E0,4.419234793E1
1.047245987E0,-1.605000019E0,3.999900055E1,-6.460950375E0,4.054922872E1
1.049210363E0,-1.183050036E0,3.674100113E1,-6.652950287E0,3.735722847E1
1.051174973E0,-8.770500422E-1,3.386595154E1,-6.883050442E0,3.456947026E1
1.053139515E0,-6.469500065E-1,3.141300201E1,-7.150950432E0,3.222314901E1
1.055103944E0,-4.549500346E-1,2.934300232E1,-7.381050587E0,3.026051342E1
1.057068420E0,-2.629500031E-1,2.746500206E1,-7.650000572E0,2.851171671E1
1.059032879E0,-1.480500102E-1,2.577900124E1,-7.803000450E0,2.693446936E1
1.060997343E0,-7.200000435E-2,2.428395081E1,-8.032950401E0,2.557818881E1
1.062961983E0,-3.299999982E-2,2.294295120E1,-8.455050468E0,2.445133897E1
1.064926572E0,4.200000316E-2,2.179305077E1,-8.991000175E0,2.357492121E1
1.066891398E0,4.050000105E-3,2.079600143E1,-9.528000832E0,2.287480037E1
1.068856168E0,-7.200000435E-2,1.995300102E1,-9.949050903E0,2.229598725E1
1.070820893E0,-1.870500147E-1,1.922504997E1,-1.017900085E1,2.175430055E1
1.072785632E0,-2.250000089E-1,1.845795059E1,-1.021800041E1,2.109867525E1
1.074749730E0,-4.549500346E-1,1.780695152E1,-1.017900085E1,2.051600742E1
1.076714016E0,-5.320500135E-1,1.719405174E1,-1.002600002E1,1.991078022E1
1.078678327E0,-6.079500318E-1,1.654200172E1,-9.718950272E0,1.919545307E1
1.080642630E0,-4.549500346E-1,1.585200119E1,-9.259050369E0,1.836363077E1
1.082607074E0,-5.320500135E-1,1.523895073E1,-9.144000053E0,1.777980409E1
1.084571476E0,-7.230000496E-1,1.477905083E1,-8.991000175E0,1.731418946E1
1.086536308E0,-7.620000243E-1,1.412700081E1,-8.569950104E0,1.654076300E1
1.088501014E0,-7.230000496E-1,1.343700027E1,-8.032950401E0,1.567175796E1
1.090465840E0,-6.469500065E-1,1.282395077E1,-7.458000183E0,1.484904119E1
1.092430630E0,-5.700000525E-1,1.224900055E1,-6.921000481E0,1.408059523E1
1.094394991E0,-5.700000525E-1,1.171305084E1,-6.499950409E0,1.340782665E1
1.096359478E0,-4.549500346E-1,1.113795090E1,-5.887050152E0,1.260627975E1
1.098324114E0,-2.250000089E-1,1.037100029E1,-5.350050449E0,1.167181699E1
1.100288707E0,-1.870500147E-1,9.757950783E0,-4.890000343E0,1.091625827E1
1.102253216E0,-1.870500147E-1,9.067950249E0,-4.123950005E0,9.963416736E0
1.104217733E0,-1.870500147E-1,8.416950226E0,-3.319050074E0,9.049648181E0
1.106182499E0,8.100000024E-2,7.803000450E0,-2.782050133E0,8.284514468E0
1.108147192E0,1.960500032E-1,7.189950466E0,-2.092050076E0,7.490694015E0
1.110112020E0,2.340000123E-1,6.538950443E0,-1.479000092E0,6.708209163E0
1.112076808E0,2.340000123E-1,5.964000225E0,-9.040500522E-1,6.036668053E0
1.114041423E0,1.960500032E-1,5.389050484E0,-5.590500236E-1,5.421516176E0
1.116006069E0,2.340000123E-1,4.890000343E0,-6.105000153E-2,4.895976559E0
1.117970634E0,1.570500135E-1,4.315950394E0,1.500000060E-2,4.318832887E0
1.119935223E0,8.100000024E-2,3.778950214E0,-9.900000691E-2,3.781114482E0
1.121899663E0,-1.480500102E-1,3.357000113E0,-2.140500098E-1,3.367073799E0
1.123864146E0,-4.549500346E-1,2.896950245E0,-1.369500011E-1,2.935652493E0
1.125828409E0,-3.400500119E-1,2.476050138E0,-6.105000153E-2,2.500037080E0
1.127792747E0,-4.170000255E-1,2.208000183E0,-9.900000691E-2,2.249212047E0
1.129756869E0,-4.170000255E-1,1.900950074E0,-2.205000073E-2,1.946275008E0
1.131721054E0,-3.400500119E-1,1.708950043E0,1.300500035E-1,1.747299992E0
1.133684662E0,-3.299999982E-2,1.441050053E0,5.130000114E-1,1.529994531E0
1.135648439E0,-1.480500102E-1,1.288050056E0,8.959500194E-1,1.575981659E0
1.137612832E0,-4.549500346E-1,1.288050056E0,1.165050030E0,1.795381311E0
1.139577048E0,-6.850500107E-1,1.210950017E0,1.203000069E0,1.839266872E0
1.141541372E0,-7.999500632E-1,1.018950105E0,1.356000066E0,1.875344128E0
1.143505664E0,-4.930500090E-1,7.890000343E-1,1.318050027E0,1.613342877E0
1.145470200E0,-2.629500031E-1,5.590500236E-1,1.203000069E0,1.352364151E0
1.147434664E0,-2.629500031E-1,2.140500098E-1,1.087950110E0,1.139559368E0
1.149400346E0,4.050000105E-3,-9.105000645E-2,1.050000072E0,1.053948128E0
1.151365668E0,3.870000243E-1,-2.830500007E-1,1.087950110E0,1.188916214E0
1.153330884E0,6.550500393E-1,-5.509500504E-1,1.165050030E0,1.445675650E0
1.155296131E0,8.850000501E-1,-8.959500194E-1,1.165050030E0,1.715602838E0
1.157260818E0,1.039050102E0,-1.279050112E0,1.011000037E0,1.933317196E0
1.159225670E0,1.306950092E0,-1.548000097E0,9.730500579E-1,2.247498445E0
1.161189925E0,1.345050097E0,-1.930950046E0,8.580000401E-1,2.504773824E0
1.163154358E0,1.422000051E0,-2.314050198E0,8.200500607E-1,2.837145496E0
1.165118823E0,1.575000048E0,-2.544000149E0,5.899500251E-1,3.049688991E0
1.167083279E0,1.537050128E0,-2.812050104E0,4.360500276E-1,3.234236929E0
1.169048598E0,1.384050012E0,-3.081000090E0,1.300500035E-1,3.380098962E0
1.171013664E0,1.498950124E0,-3.310950041E0,-1.369500011E-1,3.637031337E0
1.172977692E0,1.384050012E0,-3.579000235E0,-4.060500264E-1,3.858719184E0
1.174942035E0,1.422000051E0,-3.886050224E0,-6.739500165E-1,4.192574283E0
1.176906291E0,1.384050012E0,-4.077000141E0,-8.269500136E-1,4.384218392E0
1.178870573E0,1.306950092E0,-4.269000053E0,-9.810000658E-1,4.571087521E0
1.180834929E0,1.230000019E0,-4.461000443E0,-1.096050024E0,4.755496888E0
1.182799263E0,1.077000022E0,-4.498950005E0,-1.096050024E0,4.754135657E0
1.184763382E0,9.240000248E-1,-4.537050247E0,-1.096050024E0,4.758143193E0
1.186727568E0,5.790000558E-1,-4.461000443E0,-9.810000658E-1,4.604142389E0
1.188691310E0,2.340000123E-1,-4.306950092E0,-8.269500136E-1,4.391858539E0
1.190655183E0,4.050000105E-3,-4.269000053E0,-4.819500148E-1,4.296120771E0
1.192619025E0,-1.099500060E-1,-4.231050014E0,5.295000225E-2,4.232809579E0
1.194582876E0,-3.299999982E-2,-4.077000141E0,9.730500579E-1,4.191639961E0
1.196548177E0,2.719500065E-1,-4.039050102E0,1.893000126E0,4.468929627E0
1.198513043E0,6.940500140E-1,-4.000950336E0,2.889000177E0,4.983535998E0
1.200477301E0,1.114950061E0,-3.847050190E0,3.694050074E0,5.448753504E0
1.202441737E0,1.345050097E0,-3.771000147E0,4.308000088E0,5.881196020E0
1.204406202E0,1.384050012E0,-3.502050161E0,4.614000320E0,5.955581309E0
1.206370658E0,1.537050128E0,-3.310950041E0,4.729050159E0,5.974012779E0
1.208335296E0,1.651950121E0,-3.157050133E0,4.576050282E0,5.799667311E0
1.210299884E0,1.882050037E0,-3.042000055E0,4.116000175E0,5.453194855E0
1.212264099E0,1.996950150E0,-2.889000177E0,3.733050108E0,5.125406816E0
1.214228424E0,1.996950150E0,-2.581950188E0,3.426000118E0,4.731992549E0
1.216192729E0,2.035050154E0,-2.122950077E0,3.349050045E0,4.456958869E0
1.218157040E0,2.035050154E0,-1.663050056E0,3.349050045E0,4.257147028E0
1.220121396E0,2.111999989E0,-1.318050027E0,3.273000240E0,4.112217212E0
1.222085735E0,2.149950027E0,-9.730500579E-1,3.118950129E0,3.911133012E0
1.224050038E0,2.188950062E0,-6.280500293E-1,3.004050255E0,3.769650799E0
1.226014352E0,2.149950027E0,-3.210000098E-1,2.773950100E0,3.524219812E0
1.227978073E0,2.149950027E0,-1.290000081E-1,2.545050144E0,3.334097533E0
1.229941968E0,2.227050066E0,2.295000106E-2,2.391000032E0,3.267592364E0
1.231906375E0,2.149950027E0,2.530499995E-1,2.200050116E0,3.086509345E0
1.233870643E0,2.111999989E0,4.060500264E-1,1.740000129E0,2.766409410E0
1.235835138E0,1.996950150E0,7.129500508E-1,1.432950020E0,2.559189996E0
1.237799566E0,1.920000076E0,9.430500269E-1,1.165050030E0,2.435792524E0
1.239764169E0,1.767000079E0,1.134000063E0,7.810500264E-1,2.240152800E0
1.241728720E0,1.729050040E0,1.363950014E0,3.979500234E-1,2.237931613E0
1.243693546E0,1.537050128E0,1.594050050E0,5.295000225E-2,2.215021977E0
1.245658278E0,1.498950124E0,1.824000120E0,-1.759500057E-1,2.367442991E0
1.247622514E0,1.384050012E0,2.016000032E0,-4.819500148E-1,2.492413766E0
1.249586896E0,1.306950092E0,2.245950222E0,-6.739500165E-1,2.684514773E0
1.251551415E0,1.269000053E0,2.437050104E0,-8.269500136E-1,2.869393781E0
1.253515894E0,1.192050099E0,2.667000055E0,-9.040500522E-1,3.057969789E0
1.255480172E0,1.077000022E0,2.896950245E0,-9.420000315E-1,3.231039125E0
1.257444510E0,9.240000248E-1,3.127050161E0,-9.040500522E-1,3.383714712E0
1.259408272E0,7.699500322E-1,3.319050074E0,-8.659500480E-1,3.515506497E0
1.261372203E0,5.790000558E-1,3.472050190E0,-7.890000343E-1,3.607338997E0
1.263336754E0,3.870000243E-1,3.625950098E0,-6.360000372E-1,3.701591439E0
1.265301124E0,1.189500093E-1,3.664050102E0,-5.970000029E-1,3.714272642E0
1.267265796E0,-1.099500060E-1,3.741000175E0,-5.970000029E-1,3.789931440E0
1.269230369E0,-4.549500346E-1,3.817050219E0,-5.590500236E-1,3.884506254E0
1.271194633E0,-7.620000243E-1,3.702000141E0,-7.510500550E-1,3.853508177E0
1.273158987E0,-1.106999993E0,3.625950098E0,-1.096050024E0,3.946427341E0
1.275123107E0,-1.413000107E0,3.549000263E0,-1.479000092E0,4.096268234E0
1.277087295E0,-1.642950058E0,3.433950186E0,-2.014950037E0,4.307124612E0
1.279051268E0,-1.642950058E0,3.280950069E0,-2.475000143E0,4.426007677E0
1.281015300E0,-1.758000135E0,3.051000118E0,-2.974050045E0,4.609136564E0
1.282979654E0,-1.795950055E0,2.896950245E0,-3.319050074E0,4.757504673E0
1.284943913E0,-1.681950092E0,2.667000055E0,-3.549000263E0,4.747341180E0
1.286908005E0,-1.528050065E0,2.476050138E0,-3.855000257E0,4.829781390E0
1.288872146E0,-1.336950064E0,2.245950222E0,-4.123950005E0,4.882488250E0
1.290836302E0,-9.150000215E-1,1.978050113E0,-4.047000408E0,4.596533432E0
1.292800484E0,-5.700000525E-1,1.900950074E0,-3.357000113E0,3.899738581E0
1.294764048E0,-7.200000435E-2,1.939050078E0,-1.747050047E0,2.610992737E0
1.296727794E0,3.490500152E-1,2.245950222E0,1.011000037E0,2.487619221E0
1.298692603E0,7.699500322E-1,2.706000090E0,4.461000443E0,5.274067167E0
1.300657100E0,1.230000019E0,3.204000235E0,8.254950523E0,8.939951101E0
1.302621516E0,1.537050128E0,3.702000141E0,1.135995007E1,1.204640169E1
1.304585953E0,2.074050188E0,4.201050282E0,1.331505108E1,1.411527870E1
1.306550058E0,2.419050217E0,4.660050392E0,1.431105042E1,1.524381965E1
1.308514261E0,2.610000134E0,5.235000134E0,1.450305080E1,1.563828027E1
1.310478046E0,3.031950235E0,5.734050274E0,1.362105083E1,1.508658612E1
1.312441953E0,3.415050268E0,6.346950531E0,1.178100014E1,1.381080423E1
1.314406174E0,3.798000097E0,7.305000305E0,9.289950371E0,1.241334009E1
1.316370317E0,4.027950287E0,8.532000542E0,6.646050453E0,1.154077135E1
1.318334472E0,4.258049965E0,1.002600002E1,4.116000175E0,1.164444603E1
1.320298624E0,4.564949989E0,1.182795048E1,1.701000094E0,1.279189518E1
1.322263815E0,4.642050266E0,1.385895061E1,-6.739500165E-1,1.463124572E1
1.324228701E0,4.564949989E0,1.608195114E1,-2.896950245E0,1.696644458E1
1.326192970E0,4.488000393E0,1.868805122E1,-4.507050037E0,1.974079295E1
1.328157410E0,4.297049999E0,2.144805145E1,-5.272950172E0,2.250083450E1
1.330121650E0,4.027950287E0,2.432295036E1,-5.043000221E0,2.516470046E1
1.332085948E0,3.798000097E0,2.727405167E1,-4.084949970E0,2.783856166E1
1.334050077E0,3.492000103E0,3.034005165E1,-2.743950129E0,3.066336676E1
1.336014256E0,3.453000069E0,3.313800049E1,-1.594050050E0,3.335552850E1
1.337977909E0,3.837000132E0,3.582105255E1,-1.210950017E0,3.604631432E1
1.339941717E0,4.564949989E0,3.789105225E1,-1.363950014E0,3.818940911E1
1.341905569E0,5.830050468E0,3.877200317E1,-1.096050024E0,3.922319523E1
1.343869408E0,6.940950394E0,3.892500305E1,-1.018950105E0,3.955212907E1
1.345833391E0,7.861050606E0,3.823500061E1,-1.402050018E0,3.905991721E1
1.347797331E0,8.398050308E0,3.750705338E1,-1.555950046E0,3.846722348E1
1.349761492E0,7.669050217E0,3.677895355E1,-1.861950040E0,3.761612172E1
1.351725609E0,4.909950256E0,3.582105255E1,-2.245050192E0,3.622562170E1
1.353688734E0,1.192050099E0,3.451800156E1,-2.206950188E0,3.460901680E1
1.355652150E0,-2.179949999E0,3.271605301E1,-2.437050104E0,3.287904378E1
1.357616745E0,-4.863000393E0,3.076200104E1,-3.241950035E0,3.131229344E1
1.359580994E0,-7.047000408E0,2.884500122E1,-4.698000431E0,3.006269313E1
1.361545672E0,-8.464950562E0,2.712000084E1,-6.193050385E0,2.907754643E1
1.363510225E0,-9.079050064E0,2.562600136E1,-7.458000183E0,2.819118413E1
1.365474537E0,-8.887050629E0,2.443800163E1,-8.263050079E0,2.728504333E1
1.367438919E0,-8.350950241E0,2.347905159E1,-8.340000153E0,2.627850521E1
1.369403348E0,-7.929000378E0,2.267400169E1,-7.956000328E0,2.530370212E1
1.371367763E0,-7.852050304E0,2.187000084E1,-7.305000305E0,2.435805124E1
1.373331909E0,-7.966950417E0,2.121795082E1,-6.615000248E0,2.360999713E1
1.375296141E0,-8.389050484E0,2.068095016E1,-5.962950230E0,2.310053340E1
1.377260596E0,-8.925000191E0,2.026005173E1,-5.542050362E0,2.282191155E1
1.379224985E0,-9.538950920E0,1.995300102E1,-5.158050060E0,2.270945431E1
1.381189459E0,-9.922050476E0,1.960800171E1,-5.005050182E0,2.253821963E1
1.383153908E0,-1.034400082E1,1.937805176E1,-5.158050060E0,2.256352639E1
1.385118017E0,-1.065000057E1,1.926300049E1,-5.580000401E0,2.270731390E1
1.387082223E0,-1.095705032E1,1.918695068E1,-6.193050385E0,2.294667517E1
1.389046592E0,-1.126305008E1,1.918695068E1,-6.538050175E0,2.318925341E1
1.391010913E0,-1.134000015E1,1.911000061E1,-7.228050232E0,2.336733697E1
1.392975354E0,-1.130205059E1,1.911000061E1,-7.879950523E0,2.355890683E1
1.394939759E0,-1.111005020E1,1.899495125E1,-8.301000595E0,2.351909861E1
1.396904294E0,-1.061205006E1,1.876500130E1,-8.646000862E0,2.322701468E1
1.398868778E0,-9.960000038E0,1.849695015E1,-8.569950104E0,2.268882567E1
1.400833551E0,-9.385050774E0,1.834305000E1,-8.263050079E0,2.219965446E1
1.402798240E0,-8.848950386E0,1.822800064E1,-7.573050499E0,2.163134356E1
1.404762528E0,-8.350950241E0,1.807500076E1,-6.538050175E0,2.095686338E1
1.406726934E0,-7.813950539E0,1.799805069E1,-5.580000401E0,2.039911900E1
1.408690995E0,-7.431000233E0,1.792200089E1,-4.736999989E0,1.997140579E1
1.410655160E0,-7.047000408E0,1.780695152E1,-3.931950092E0,1.955013987E1
1.412619177E0,-6.664050102E0,1.761495018E1,-3.510000229E0,1.915766518E1
1.414583237E0,-6.088950157E0,1.750005150E1,-3.241950035E0,1.881056502E1
1.416547227E0,-5.590950489E0,1.753905106E1,-2.974050045E0,1.864730578E1
1.418511237E0,-4.978050232E0,1.742400169E1,-2.896950245E0,1.835127080E1
1.420475380E0,-4.594050407E0,1.730895042E1,-2.743950129E0,1.811723837E1
1.422439476E0,-4.018949986E0,1.704000092E1,-2.398950100E0,1.767112197E1
1.424403461E0,-3.559950113E0,1.661894989E1,-1.900950074E0,1.710193999E1
1.426367478E0,-3.175950050E0,1.619700050E1,-1.479000092E0,1.657156979E1
1.428331654E0,-2.908050060E0,1.546905041E1,-1.057050109E0,1.577547561E1
1.430295783E0,-2.793000221E0,1.485600090E1,-5.209500194E-1,1.512524386E1
1.432259065E0,-2.946000099E0,1.416600037E1,-6.105000153E-2,1.446921594E1
1.434222579E0,-3.138000250E0,1.351395035E1,3.979500234E-1,1.387920256E1
1.436186526E0,-3.559950113E0,1.297800064E1,1.240950108E0,1.351449972E1
1.438150346E0,-4.018949986E0,1.244100094E1,1.816050053E0,1.319956443E1
1.440114692E0,-4.518000126E0,1.213395023E1,2.353049994E0,1.315986009E1
1.442078884E0,-4.900950432E0,1.194300079E1,2.659050226E0,1.318048297E1
1.444043231E0,-5.131050110E0,1.171305084E1,2.659050226E0,1.306115551E1
1.446007519E0,-5.092950344E0,1.148295021E1,2.275950193E0,1.276621471E1
1.447971651E0,-4.824000359E0,1.110000038E1,1.777950048E0,1.223282855E1
1.449935828E0,-4.555950165E0,1.067805004E1,1.471050024E0,1.170219735E1
1.451899663E0,-4.210950375E0,1.048605061E1,1.471050024E0,1.139532134E1
1.453863598E0,-3.790050268E0,1.025595093E1,1.471050024E0,1.103236143E1
1.455827752E0,-3.330000162E0,1.006500053E1,1.432950020E0,1.069796628E1
1.457791835E0,-3.022950172E0,9.988050461E0,1.203000069E0,1.050459847E1
1.459756182E0,-2.677950144E0,9.910950661E0,1.356000066E0,1.035553457E1
1.461720451E0,-2.295000076E0,9.835050583E0,1.279950023E0,1.018005488E1
1.463684631E0,-1.834950089E0,9.835050583E0,1.240950108E0,1.008142941E1
1.465648837E0,-1.260000110E0,9.720000267E0,8.200500607E-1,9.835572559E0
1.467614017E0,-7.999500632E-1,9.490050316E0,2.830500007E-1,9.527911230E0
1.469578912E0,-2.629500031E-1,9.259950638E0,-1.369500011E-1,9.264695560E0
1.471543706E0,2.340000123E-1,9.145050049E0,-4.060500264E-1,9.157050454E0
1.473508530E0,5.790000558E-1,9.067950249E0,-5.209500194E-1,9.101337907E0
1.475472929E0,8.089500666E-1,9.067950249E0,-5.209500194E-1,9.118854689E0
1.477437453E0,1.000050068E0,9.259950638E0,-2.520000041E-1,9.317203977E0
1.479400837E0,9.240000248E-1,9.528000832E0,1.500000060E-2,9.572711261E0
1.481364545E0,1.114950061E0,9.796050072E0,4.750500321E-1,9.870733670E0
1.483328909E0,1.269000053E0,1.021800041E1,8.959500194E-1,1.033540614E1
1.485293081E0,1.306950092E0,1.052505016E1,1.050000072E0,1.065773426E1
1.487257277E0,1.690050125E0,1.083105087E1,1.585950017E0,1.107624349E1
1.489221466E0,1.767000079E0,1.102305031E1,2.046000004E0,1.134971556E1
1.491185620E0,1.882050037E0,1.121400070E1,2.698050022E0,1.168654774E1
1.493149781E0,2.304000139E0,1.117605019E1,4.039050102E0,1.210481062E1
1.495113933E0,2.878050089E0,1.102305031E1,5.341950417E0,1.258281545E1
1.497078088E0,3.529950142E0,1.063995075E1,6.684000492E0,1.305162682E1
1.499042376E0,4.066950321E0,1.033305073E1,7.680000305E0,1.350164534E1
1.501006625E0,4.948050022E0,9.643050194E0,8.446949959E0,1.374127285E1
1.502970647E0,5.676000118E0,8.877000809E0,8.791950226E0,1.372284626E1
1.504934723E0,6.442950249E0,7.918050289E0,8.524050713E0,1.329911910E1
1.506899069E0,7.477950573E0,6.768000126E0,8.101950645E0,1.293704660E1
1.508863336E0,8.359050751E0,5.656950474E0,7.411950588E0,1.252245302E1
1.510827966E0,8.896050453E0,4.699050426E0,6.646050453E0,1.205780972E1
1.512792490E0,9.355950356E0,3.856050253E0,5.994000435E0,1.176141878E1
1.514756775E0,9.661950111E0,3.012000084E0,5.611050129E0,1.157191894E1
1.516721121E0,9.661950111E0,2.284050226E0,5.496000290E0,1.134795949E1
1.518685107E0,9.547050476E0,1.555950046E0,4.882050037E0,1.083520032E1
1.520649198E0,9.241050720E0,8.280000687E-1,4.116000175E0,1.015007685E1
1.522614263E0,8.896050453E0,-1.500000060E-2,3.579000235E0,9.589013575E0
1.524579042E0,8.282999992E0,-5.130000114E-1,3.273000240E0,8.920974636E0
1.526543246E0,7.708050251E0,-1.203000069E0,3.234000206E0,8.445117238E0
1.528507636E0,6.979950428E0,-1.701000094E0,3.463950157E0,7.975716895E0
1.530471749E0,6.175050259E0,-2.199000120E0,3.502950191E0,7.432193974E0
1.532435944E0,5.523000240E0,-2.697000027E0,3.426000118E0,7.036676603E0
1.534400090E0,4.909950256E0,-3.157050133E0,3.426000118E0,6.768460229E0
1.536364251E0,4.411950111E0,-3.579000235E0,3.310950041E0,6.575479955E0
1.538328763E0,4.027950287E0,-4.000950336E0,3.196050167E0,6.515115024E0
1.540293172E0,3.760050297E0,-4.461000443E0,3.157950163E0,6.634090172E0
1.542257419E0,3.682950258E0,-4.882050037E0,3.426000118E0,7.009708409E0
1.544221713E0,3.607050180E0,-5.188950062E0,3.541050196E0,7.243966471E0
1.546185887E0,3.492000103E0,-5.494950294E0,3.618000269E0,7.448387034E0
1.548150097E0,3.415050268E0,-5.839950085E0,3.426000118E0,7.583209224E0
1.550114391E0,3.300000191E0,-6.070050240E0,3.157950163E0,7.596588734E0
1.552078649E0,3.223050117E0,-6.184950352E0,2.773950100E0,7.505761925E0
1.554042651E0,3.108000040E0,-6.262050152E0,2.314950228E0,7.364233219E0
1.556006728E0,2.839950085E0,-6.376950264E0,1.777950048E0,7.203604482E0
1.557970849E0,2.610000134E0,-6.492000103E0,1.471050024E0,7.149975819E0
1.559934957E0,2.380050182E0,-6.492000103E0,1.471050024E0,7.069278066E0
1.561898955E0,2.188950062E0,-6.607050419E0,1.432950020E0,7.106191904E0
1.563862974E0,1.843950033E0,-6.529950142E0,1.395000100E0,6.927223532E0
1.565827149E0,1.498950124E0,-6.415050507E0,1.318050027E0,6.718406087E0
1.567791279E0,1.269000053E0,-6.223950386E0,1.165050030E0,6.457961065E0
1.569755482E0,1.114950061E0,-5.878950119E0,1.050000072E0,6.075168170E0
1.571719664E0,8.850000501E-1,-5.419050217E0,9.349500537E-1,5.569870909E0
1.573682894E0,6.169500351E-1,-4.804950237E0,8.959500194E-1,4.926550575E0
1.575646416E0,3.490500152E-1,-4.231050014E0,7.810500264E-1,4.316672246E0
1.577610632E0,1.960500032E-1,-3.579000235E0,7.429500222E-1,3.660553649E0
1.579574645E0,1.570500135E-1,-2.926950216E0,7.050000429E-1,3.014751621E0
1.581538688E0,8.100000024E-2,-2.428950071E0,5.509500504E-1,2.491968179E0
1.583502722E0,8.100000024E-2,-1.930950046E0,5.130000114E-1,1.999574477E0
1.585466897E0,1.189500093E-1,-1.548000097E0,4.360500276E-1,1.612635431E0
1.587431030E0,8.100000024E-2,-1.126049995E0,4.750500321E-1,1.224835550E0
1.589395503E0,1.189500093E-1,-7.810500264E-1,4.750500321E-1,9.218789408E-1
1.591359876E0,1.189500093E-1,-4.740000367E-1,5.509500504E-1,7.364584832E-1
1.593323813E0,1.570500135E-1,-2.059500068E-1,7.050000429E-1,7.510693527E-1
1.595287878E0,1.960500032E-1,-5.295000225E-2,8.200500607E-1,8.448203410E-1
1.597251117E0,3.109500110E-1,1.380000114E-1,1.050000072E0,1.103736410E0
1.599214618E0,4.260000288E-1,4.060500264E-1,1.165050030E0,1.305256381E0
1.601179829E0,6.169500351E-1,5.590500236E-1,1.356000066E0,1.591194662E0
1.603144539E0,8.089500666E-1,7.510500550E-1,1.471050024E0,1.839147783E0
1.605108734E0,1.039050102E0,8.659500480E-1,1.510050058E0,2.027250793E0
1.607073080E0,1.230000019E0,1.018950105E0,1.548000097E0,2.224289474E0
1.609037381E0,1.345050097E0,1.096050024E0,1.624950051E0,2.377172288E0
1.611001695E0,1.498950124E0,1.249050021E0,1.624950051E0,2.539180990E0
1.612965867E0,1.729050040E0,1.326000094E0,1.585950017E0,2.695019063E0
1.614930080E0,2.074050188E0,1.479000092E0,1.510050058E0,2.961313329E0
1.616894538E0,2.304000139E0,1.633050084E0,1.510050058E0,3.202424144E0
1.618858924E0,2.533950090E0,1.747950077E0,1.510050058E0,3.428772916E0
1.620823195E0,2.839950085E0,1.863000035E0,1.471050024E0,3.701361072E0
1.622787517E0,3.108000040E0,1.978050113E0,1.471050024E0,3.966904923E0
1.624751642E0,3.453000069E0,2.092950106E0,1.432950020E0,4.284506433E0
1.626715825E0,3.760050297E0,2.131050110E0,1.318050027E0,4.518474154E0
1.628679839E0,4.105050087E0,2.208000183E0,1.087950110E0,4.786474325E0
1.630643902E0,4.411950111E0,2.169000149E0,8.200500607E-1,4.984209820E0
1.632608906E0,4.717950344E0,2.131050110E0,4.360500276E-1,5.195244907E0
1.634573649E0,4.987050056E0,2.208000183E0,1.300500035E-1,5.455533528E0
1.636538108E0,5.254950047E0,2.131050110E0,-9.900000691E-2,5.671479134E0
1.638502651E0,5.523000240E0,2.131050110E0,-5.209500194E-1,5.942751480E0
1.640466738E0,5.715000153E0,2.092950106E0,-8.269500136E-1,6.142109834E0
1.642430959E0,5.868000507E0,2.053950071E0,-1.057050109E0,6.306306033E0
1.644395230E0,5.905950069E0,2.016000032E0,-1.402050018E0,6.396111835E0
1.646359490E0,5.868000507E0,1.978050113E0,-1.747050047E0,6.434150765E0
1.648323492E0,5.905950069E0,1.824000120E0,-2.169000149E0,6.550708687E0
1.650287569E0,5.944950104E0,1.824000120E0,-2.322000027E0,6.637852989E0
1.652251916E0,5.944950104E0,1.824000120E0,-2.092050076E0,6.560951280E0
1.654216183E0,5.868000507E0,1.863000035E0,-1.555950046E0,6.350210991E0
1.656179417E0,5.715000153E0,2.092950106E0,-4.819500148E-1,6.105238956E0
1.658142954E0,5.599950314E0,2.398950100E0,1.395000100E0,6.249834428E0
1.660107212E0,5.215950012E0,2.896950245E0,4.078050137E0,7.226959815E0
1.662071259E0,4.756950378E0,3.472050190E0,7.335000515E0,9.406696656E0
1.664035567E0,4.143000126E0,4.123950005E0,1.051695061E1,1.203235903E1
1.665999798E0,3.492000103E0,4.774950027E0,1.312305069E1,1.439474459E1
1.667963960E0,2.839950085E0,5.427000046E0,1.507800102E1,1.627463550E1
1.669928128E0,2.188950062E0,6.193950176E0,1.618905067E1,1.747117291E1
1.671891964E0,1.422000051E0,7.075050354E0,1.611194992E1,1.765427291E1
1.673855897E0,1.114950061E0,7.726950169E0,1.396605110E1,1.599998300E1
1.675819862E0,9.619500637E-1,8.838000298E0,1.178100014E1,1.475898240E1
1.677783818E0,8.470500112E-1,1.021800041E1,1.021005058E1,1.446962885E1
1.679748046E0,8.470500112E-1,1.171305084E1,8.101950645E0,1.426725825E1
1.681712198E0,8.850000501E-1,1.316895103E1,4.768050194E0,1.403348849E1
1.683677253E0,1.000050068E0,1.435695076E1,3.600000143E-1,1.439624032E1
1.685642044E0,6.550500393E-1,1.585200119E1,-3.817050219E0,1.631823841E1
1.687605188E0,-7.200000435E-2,1.761495018E1,-6.883050442E0,1.891211351E1
1.689568815E0,-9.150000215E-1,1.953195000E1,-9.220950127E0,2.161851560E1
1.691532867E0,-1.873050094E0,2.259795189E1,-9.988050461E0,2.477775006E1
1.693496770E0,-2.946000099E0,2.627700043E1,-9.604050636E0,2.813178730E1
1.695460787E0,-4.402950287E0,3.064695168E1,-8.875950813E0,3.220875845E1
1.697424770E0,-5.398950100E0,3.593595123E1,-6.615000248E0,3.693642486E1
1.699388999E0,-6.280950069E0,4.137795258E1,-4.698000431E0,4.211480145E1
1.701353155E0,-7.162050247E0,4.720395279E1,-3.778950214E0,4.789351300E1
1.703317119E0,-8.082000732E0,5.199495316E1,-5.235000134E0,5.287909905E1
1.705281147E0,-8.464950562E0,5.571300125E1,-8.416049957E0,5.697739721E1
1.707245276E0,-7.966950417E0,5.824200439E1,-1.182705021E1,5.996234228E1
1.709209376E0,-7.162050247E0,6.038895416E1,-1.431900024E1,6.247523122E1
1.711173404E0,-6.664050102E0,6.172995377E1,-1.566000080E1,6.403305694E1
1.713137454E0,-6.204000473E0,6.196005249E1,-1.558305073E1,6.419010201E1
1.715101299E0,-5.706000328E0,6.088695145E1,-1.497000027E1,6.295935359E1
1.717065181E0,-5.590950489E0,5.874105453E1,-1.374405098E1,6.058604751E1
1.719029515E0,-5.245950222E0,5.456295395E1,-1.175100040E1,5.605998526E1
1.720993717E0,-4.096050262E0,4.873695374E1,-9.718950272E0,4.986508078E1
1.722957729E0,-2.946000099E0,4.325595093E1,-8.416049957E0,4.416544016E1
1.724921796E0,-2.140950203E0,3.873405075E1,-7.956000328E0,3.960060980E1
1.726885637E0,-1.567050099E0,3.501600266E1,-7.803000450E0,3.590909222E1
1.728849521E0,-1.297950029E0,3.179595184E1,-7.918050289E0,3.279272401E1
1.730813495E0,-1.068000078E0,2.911305046E1,-8.071050644E0,3.022998825E1
1.732777443E0,-1.068000078E0,2.677500153E1,-8.110050201E0,2.799668275E1
1.734741497E0,-1.030050039E0,2.474400139E1,-8.148000717E0,2.607137364E1
1.736705520E0,-1.260000110E0,2.309595108E1,-7.918050289E0,2.444802808E1
1.738669837E0,-1.375050068E0,2.164005089E1,-7.726050377E0,2.301900127E1
1.740634096E0,-1.489950061E0,2.045100021E1,-7.534950256E0,2.184579676E1
1.742598008E0,-1.528050065E0,1.926300049E1,-7.458000183E0,2.071279536E1
1.744562021E0,-1.528050065E0,1.819005013E1,-7.918050289E0,1.989744659E1
1.746526423E0,-1.605000019E0,1.726995087E1,-7.879950523E0,1.905048158E1
1.748490711E0,-1.489950061E0,1.642695045E1,-8.263050079E0,1.844837795E1
1.750455157E0,-1.720050097E0,1.569900036E1,-8.377950668E0,1.787756253E1
1.752419557E0,-1.987950087E0,1.500900078E1,-8.493000031E0,1.735952475E1
1.754383715E0,-2.103000164E0,1.443405056E1,-8.493000031E0,1.687884696E1
1.756347944E0,-2.371050119E0,1.393605042E1,-8.455050468E0,1.647189298E1
1.758312444E0,-2.716050148E0,1.355205059E1,-8.493000031E0,1.622239357E1
1.760276865E0,-2.985000134E0,1.305405045E1,-8.377950668E0,1.579583857E1
1.762241179E0,-3.175950050E0,1.263300037E1,-8.455050468E0,1.552956006E1
1.764205507E0,-3.253050089E0,1.240305042E1,-8.875950813E0,1.559488690E1
1.766169766E0,-3.520950079E0,1.221105099E1,-9.757950783E0,1.602262335E1
1.768134045E0,-3.598050117E0,1.201905060E1,-9.718950272E0,1.587014607E1
1.770098177E0,-3.445050240E0,1.175100040E1,-9.220950127E0,1.532906725E1
1.772062353E0,-3.367950201E0,1.140600014E1,-8.646000862E0,1.470351178E1
1.774026498E0,-3.138000250E0,1.106100082E1,-7.956000328E0,1.398179981E1
1.775990655E0,-2.869950056E0,1.056300068E1,-7.228050232E0,1.311709979E1
1.777954808E0,-2.524950027E0,1.006500053E1,-6.691050529E0,1.234705494E1
1.779918963E0,-2.179949999E0,9.565950394E0,-6.040050507E0,1.152136273E1
1.781882936E0,-2.026050091E0,9.067950249E0,-5.158050060E0,1.062723299E1
1.783846963E0,-1.834950089E0,8.532000542E0,-4.392000198E0,9.769940676E0
1.785810823E0,-1.720050097E0,8.071949959E0,-3.510000229E0,8.968558974E0
1.787774732E0,-1.489950061E0,7.612050533E0,-2.590050220E0,8.177507239E0
1.789738882E0,-1.567050099E0,7.152000427E0,-1.594050050E0,7.493180345E0
1.791702961E0,-1.720050097E0,6.654000282E0,-9.040500522E-1,6.931926037E0
1.793667173E0,-1.834950089E0,6.001950264E0,-2.140500098E-1,6.279830110E0
1.795631346E0,-1.873050094E0,5.389050484E0,1.300500035E-1,5.706758692E0
1.797594883E0,-2.065050125E0,4.966950417E0,9.195000678E-2,5.379914801E0
1.799558627E0,-1.987950087E0,4.584000111E0,3.600000143E-1,5.009451324E0
1.801522714E0,-2.026050091E0,4.239000320E0,4.750500321E-1,4.722253193E0
1.803486701E0,-1.950000048E0,3.931950092E0,5.509500504E-1,4.423378536E0
1.805450660E0,-1.987950087E0,3.549000263E0,5.509500504E-1,4.104984089E0
1.807414627E0,-1.911000133E0,3.241950035E0,6.280500293E-1,3.815312356E0
1.809378511E0,-1.950000048E0,2.821050167E0,7.429500222E-1,3.508959813E0
1.811342410E0,-2.026050091E0,2.476050138E0,9.730500579E-1,3.344028958E0
1.813306426E0,-1.795950055E0,2.092950106E0,1.126049995E0,2.978903378E0
1.815270408E0,-1.528050065E0,1.671000123E0,1.356000066E0,2.639301914E0
1.817234367E0,-1.413000107E0,1.402950048E0,1.432950020E0,2.453198708E0
1.819198333E0,-1.106999993E0,1.134000063E0,1.471050024E0,2.162265779E0
1.821162369E0,-5.700000525E-1,8.280000687E-1,1.356000066E0,1.687963374E0
1.823126394E0,1.189500093E-1,4.830000103E-1,1.203000069E0,1.301786188E0
1.825092012E0,8.470500112E-1,9.900000691E-2,1.165050030E0,1.443826961E0
1.827057163E0,1.422000051E0,-1.680000126E-1,8.959500194E-1,1.689092829E0
1.829021507E0,1.920000076E0,-3.589500189E-1,4.750500321E-1,2.010203458E0
1.830986088E0,2.341950178E0,-6.660000086E-1,2.449500114E-1,2.447097701E0
1.832950124E0,2.764050245E0,-9.730500579E-1,-2.205000073E-2,2.930407203E0
1.834914319E0,3.070050240E0,-1.318050027E0,-2.520000041E-1,3.350517624E0
1.836878466E0,3.300000191E0,-1.663050056E0,-5.209500194E-1,3.731906439E0
1.838842627E0,3.529950142E0,-2.008050203E0,-6.360000372E-1,4.110633731E0
1.840806823E0,3.760050297E0,-2.506050110E0,-8.659500480E-1,4.600884140E0
1.842771009E0,3.798000097E0,-2.812050104E0,-8.269500136E-1,4.797528202E0
1.844734968E0,4.027950287E0,-3.271950245E0,-9.040500522E-1,5.267575193E0
1.846699001E0,4.066950321E0,-3.579000235E0,-9.040500522E-1,5.492416052E0
1.848663310E0,3.990000248E0,-3.924000263E0,-8.659500480E-1,5.662839352E0
1.850627538E0,3.874950171E0,-4.192049980E0,-7.510500550E-1,5.757829282E0
1.852591859E0,3.760050297E0,-4.537050247E0,-5.970000029E-1,5.922770651E0
1.854556153E0,3.492000103E0,-4.767000198E0,-5.970000029E-1,5.939256234E0
1.856520130E0,3.070050240E0,-4.804950237E0,-4.819500148E-1,5.722327417E0
1.858484213E0,2.649000168E0,-4.959000111E0,-2.140500098E-1,5.626251096E0
1.860448333E0,2.304000139E0,-4.959000111E0,-1.759500057E-1,5.470928362E0
1.862412442E0,1.882050037E0,-4.882050037E0,1.680000126E-1,5.234954528E0
1.864375523E0,1.459950089E0,-4.690050125E0,5.130000114E-1,4.938744117E0
1.866338905E0,1.269000053E0,-4.575000286E0,8.580000401E-1,4.824640175E0
1.868303351E0,1.153950095E0,-4.461000443E0,1.395000100E0,4.814369227E0
1.870267499E0,1.000050068E0,-4.231050014E0,1.777950048E0,4.697125795E0
1.872231520E0,8.470500112E-1,-4.000950336E0,2.467950106E0,4.776596596E0
1.874195578E0,8.089500666E-1,-3.771000147E0,3.118950129E0,4.960110102E0
1.876160063E0,7.699500322E-1,-3.541050196E0,3.733050108E0,5.202645735E0
1.878124422E0,7.699500322E-1,-3.271950245E0,4.308000088E0,5.464187608E0
1.880088504E0,6.550500393E-1,-2.965950251E0,4.806000233E0,5.685383864E0
1.882052694E0,6.550500393E-1,-2.620950222E0,5.266050339E0,5.918594157E0
1.884016885E0,6.550500393E-1,-2.428950071E0,5.572050095E0,6.113643043E0
1.885981076E0,6.550500393E-1,-2.199000120E0,5.686950207E0,6.132380838E0
1.887944278E0,5.410500169E-1,-2.008050203E0,5.764050484E0,6.127746626E0
1.889907770E0,5.020500422E-1,-1.854000092E0,5.611050129E0,5.930704354E0
1.891872262E0,4.639500082E-1,-1.777950048E0,5.380950451E0,5.686034096E0
1.893836461E0,4.639500082E-1,-1.701000094E0,5.035950184E0,5.335676638E0
1.895801508E0,5.020500422E-1,-1.585950017E0,4.768050194E0,5.049910331E0
1.897766307E0,6.169500351E-1,-1.471050024E0,4.614000320E0,4.881968299E0
1.899730531E0,7.699500322E-1,-1.432950020E0,4.498950005E0,4.784006684E0
1.901694924E0,9.619500637E-1,-1.471050024E0,4.498950005E0,4.830102198E0
1.903658841E0,1.000050068E0,-1.356000066E0,4.537950039E0,4.840643229E0
1.905622909E0,1.077000022E0,-1.356000066E0,4.423050404E0,4.749951589E0
1.907586852E0,1.039050102E0,-1.318050027E0,4.423050404E0,4.730777511E0
1.909550832E0,1.114950061E0,-1.203000069E0,4.231050014E0,4.537852689E0
1.911514656E0,1.153950095E0,-1.203000069E0,4.153950214E0,4.475948209E0
1.913478525E0,1.230000019E0,-1.126049995E0,3.963000298E0,4.299565094E0
1.915442353E0,1.306950092E0,-1.048950076E0,3.847950220E0,4.197038921E0
1.917406203E0,1.306950092E0,-9.730500579E-1,3.771000147E0,4.107966293E0
1.919370408E0,1.345050097E0,-8.959500194E-1,3.541050196E0,3.892418617E0
1.921334509E0,1.459950089E0,-7.810500264E-1,3.388050079E0,3.770991481E0
1.923298493E0,1.575000048E0,-7.429500222E-1,3.081000090E0,3.539090482E0
1.925262511E0,1.614000082E0,-6.280500293E-1,2.736000061E0,3.238076503E0
1.927226412E0,1.651950121E0,-5.509500504E-1,2.353049994E0,2.927341701E0
1.929190319E0,1.651950121E0,-4.360500276E-1,1.816050053E0,2.493414651E0
1.931154154E0,1.804950118E0,-3.210000098E-1,1.395000100E0,2.303673417E0
1.933118011E0,1.882050037E0,-2.059500068E-1,1.011000037E0,2.146310514E0
1.935081989E0,2.035050154E0,-1.290000081E-1,5.130000114E-1,2.102674283E0
1.937045932E0,2.035050154E0,6.105000153E-2,5.295000225E-2,2.036654103E0
1.939010002E0,2.035050154E0,4.440000355E-1,-2.520000041E-1,2.098110855E0
1.940974024E0,2.035050154E0,9.430500269E-1,-5.970000029E-1,2.321030264E0
1.942938021E0,1.996950150E0,1.441050053E0,-9.040500522E-1,2.623307388E0
1.944902026E0,2.074050188E0,1.939050078E0,-1.249050021E0,3.101890608E0
1.946865845E0,2.111999989E0,2.398950100E0,-1.441050053E0,3.506013518E0
1.948829719E0,2.188950062E0,2.896950245E0,-1.632000089E0,3.980860131E0
1.950793869E0,2.419050217E0,3.280950069E0,-1.786050081E0,4.450439552E0
1.952757942E0,2.649000168E0,3.625950098E0,-1.900950074E0,4.876302614E0
1.954721796E0,2.917050123E0,4.009050369E0,-1.900950074E0,5.309922548E0
1.956685714E0,2.955000162E0,4.392000198E0,-1.747050047E0,5.574394637E0
1.958649727E0,3.070050240E0,4.774950027E0,-1.441050053E0,5.856789350E0
1.960613712E0,3.108000040E0,5.235000134E0,-1.057050109E0,6.179178390E0
1.962577661E0,2.992950201E0,5.772000313E0,-4.819500148E-1,6.519663667E0
1.964541627E0,2.764050245E0,6.309000492E0,1.500000060E-2,6.887937715E0
1.966505092E0,2.572050095E0,6.768000126E0,6.660000086E-1,7.270819995E0
1.968468704E0,2.572050095E0,7.152000427E0,1.510050058E0,7.748987223E0
1.970432949E0,2.686950207E0,7.650000572E0,2.736000061E0,8.557330571E0
1.972397009E0,2.839950085E0,8.110050201E0,4.192950249E0,9.561331630E0
1.974361084E0,2.878050089E0,8.761950493E0,5.572050095E0,1.077509587E1
1.976325127E0,3.070050240E0,9.490050316E0,6.646050453E0,1.198566853E1
1.978289434E0,3.337950230E0,1.029495049E1,7.066950321E0,1.292554463E1
1.980253664E0,3.607050180E0,1.113795090E1,6.607050419E0,1.344313492E1
1.982217671E0,3.874950171E0,1.209600067E1,5.533950329E0,1.385471318E1
1.984181743E0,4.027950287E0,1.309305096E1,4.000950336E0,1.427094848E1
1.986146633E0,4.105050087E0,1.412700081E1,2.161050081E0,1.486922074E1
1.988111250E0,4.027950287E0,1.508595085E1,2.449500114E-1,1.561634711E1
1.990075506E0,3.721950293E0,1.585200119E1,-1.671000123E0,1.636860095E1
1.992039868E0,3.223050117E0,1.650405121E1,-3.625050068E0,1.720211459E1
1.994003851E0,2.764050245E0,1.711695099E1,-5.503050327E0,1.819102932E1
1.995967945E0,2.304000139E0,1.795995140E1,-7.036050320E0,1.942612352E1
1.997932118E0,1.651950121E0,1.907205009E1,-7.879950523E0,2.070182732E1
1.999896260E0,1.230000019E0,2.037495041E1,-7.765050411E0,2.183912801E1
2.001860597E0,1.039050102E0,2.179305077E1,-6.997950554E0,2.291261658E1
2.003824876E0,9.240000248E-1,2.324895096E1,-5.733000278E0,2.396319655E1
2.005789369E0,7.699500322E-1,2.455200195E1,-4.237950325E0,2.492697025E1
2.007753799E0,8.850000501E-1,2.566395187E1,-2.667000055E0,2.581733023E1
2.009717876E0,1.192050099E0,2.650695038E1,-1.171950102E0,2.655960973E1
2.011682046E0,1.306950092E0,2.708205223E1,2.070000172E-1,2.711436004E1
2.013645476E0,1.230000019E0,2.738895035E1,1.432950020E0,2.745397689E1
2.015609123E0,7.699500322E-1,2.734995079E1,1.969950080E0,2.743161196E1
2.017572822E0,-7.200000435E-2,2.715900040E1,1.969950080E0,2.723044601E1
2.019536505E0,-1.144950032E0,2.666100121E1,1.471050024E0,2.672608995E1
2.021501335E0,-2.065050125E0,2.589405060E1,7.810500264E-1,2.598800353E1
2.023465822E0,-2.830950022E0,2.489700127E1,-2.205000073E-2,2.505744273E1
2.025429920E0,-3.330000162E0,2.370900154E1,-9.420000315E-1,2.396023830E1
2.027394132E0,-3.675000191E0,2.252100182E1,-1.900950074E0,2.289792044E1
2.029358050E0,-4.018949986E0,2.125605011E1,-2.743950129E0,2.180598284E1
2.031322055E0,-4.210950375E0,2.029800034E1,-3.510000229E0,2.102524726E1
2.033285947E0,-4.363950253E0,1.960800171E1,-4.009050369E0,2.048390289E1
2.035249852E0,-4.210950375E0,1.922504997E1,-4.276950359E0,2.014018257E1
2.037213867E0,-4.057950020E0,1.891800117E1,-4.276950359E0,1.981539884E1
2.039177850E0,-3.981000185E0,1.868805122E1,-4.084949970E0,1.953915140E1
2.041141988E0,-4.173000336E0,1.853505135E1,-3.664050102E0,1.934909102E1
2.043106081E0,-4.210950375E0,1.845795059E1,-3.433950186E0,1.924110332E1
2.045070116E0,-4.441050053E0,1.849695015E1,-3.204000235E0,1.929056007E1
2.047034165E0,-4.863000393E0,1.845795059E1,-3.088950157E0,1.933614041E1
2.048998290E0,-5.323050022E0,1.849695015E1,-3.127050161E0,1.950001203E1
2.050962393E0,-5.859000206E0,1.849695015E1,-3.394950151E0,1.969748042E1
2.052926422E0,-6.472050190E0,1.849695015E1,-3.778950214E0,1.995758160E1
2.054890472E0,-6.970950127E0,1.849695015E1,-4.429950237E0,2.025723993E1
2.056854662E0,-7.354050159E0,1.842000008E1,-5.119950294E0,2.048395342E1
2.058818797E0,-7.776000500E0,1.849695015E1,-5.733000278E0,2.086793331E1
2.060782730E0,-7.891050339E0,1.845795059E1,-6.385050297E0,2.106498238E1
2.062746722E0,-8.044050217E0,1.853505135E1,-6.883050442E0,2.134552074E1
2.064710722E0,-7.966950417E0,1.857299995E1,-7.150950432E0,2.143746063E1
2.066674720E0,-7.966950417E0,1.868805122E1,-7.342950344E0,2.160172394E1
2.068638771E0,-7.966950417E0,1.884195137E1,-7.458000183E0,2.177414056E1
2.070602802E0,-8.121000290E0,1.903305054E1,-7.573050499E0,2.203539771E1
2.072566572E0,-8.121000290E0,1.911000061E1,-7.573050499E0,2.210189727E1
2.074530419E0,-8.044050217E0,1.918695068E1,-7.381050587E0,2.207545533E1
2.076494444E0,-7.813950539E0,1.911000061E1,-7.036050320E0,2.181183052E1
2.078458417E0,-7.507050514E0,1.899495125E1,-6.844950199E0,2.154106134E1
2.080422094E0,-6.970950127E0,1.884195137E1,-6.232050419E0,2.103453659E1
2.082385867E0,-6.511050224E0,1.876500130E1,-5.503050327E0,2.061074020E1
2.084349546E0,-6.013050079E0,1.872705078E1,-4.698000431E0,2.022202785E1
2.086313252E0,-5.476050377E0,1.888005066E1,-4.123950005E0,2.008607488E1
2.088277076E0,-4.863000393E0,1.899495125E1,-3.549000263E0,1.992617245E1
2.090240865E0,-4.402950287E0,1.914795113E1,-2.974050045E0,1.987146138E1
2.092204761E0,-3.981000185E0,1.926300049E1,-2.629050016E0,1.984498562E1
2.094168629E0,-3.636000156E0,1.918695068E1,-2.245050192E0,1.965705532E1
2.096132652E0,-3.291000128E0,1.911000061E1,-1.747050047E0,1.946984820E1
2.098096629E0,-3.100050211E0,1.895700073E1,-1.210950017E0,1.924693711E1
2.100060633E0,-3.022950172E0,1.884195137E1,-7.120500207E-1,1.909618743E1
2.102024629E0,-3.061050177E0,1.853505135E1,-4.060500264E-1,1.879050380E1
2.103988742E0,-3.330000162E0,1.838205147E1,-3.289500177E-1,1.868413566E1
2.105952837E0,-3.520950079E0,1.803705025E1,-2.520000041E-1,1.837922129E1
2.107916822E0,-3.675000191E0,1.765395164E1,-1.369500011E-1,1.803292518E1
2.109880839E0,-3.751050234E0,1.715505028E1,5.295000225E-2,1.756043654E1
2.111843935E0,-3.675000191E0,1.661894989E1,4.360500276E-1,1.702601719E1
2.113807301E0,-3.559950113E0,1.615904999E1,8.959500194E-1,1.657078356E1
2.115771618E0,-3.406050205E0,1.562205029E1,1.279950023E0,1.604019654E1
2.117735667E0,-3.138000250E0,1.508595085E1,1.432950020E0,1.547534505E1
2.119699794E0,-2.946000099E0,1.454895115E1,1.356000066E0,1.490602671E1
2.121663898E0,-2.830950022E0,1.412700081E1,9.349500537E-1,1.443816337E1
2.123627926E0,-2.601000071E0,1.347600079E1,5.899500251E-1,1.373738838E1
2.125591977E0,-2.524950027E0,1.305405045E1,3.979500234E-1,1.330195361E1
2.127555954E0,-2.448000193E0,1.259400082E1,4.750500321E-1,1.283850591E1
2.129519963E0,-2.179949999E0,1.213395023E1,7.050000429E-1,1.234835841E1
2.131483961E0,-1.834950089E0,1.182795048E1,7.429500222E-1,1.199247385E1
2.133447963E0,-1.489950061E0,1.155900097E1,5.899500251E-1,1.166955422E1
2.135413043E0,-1.068000078E0,1.136805058E1,2.449500114E-1,1.142073546E1
2.137377807E0,-6.079500318E-1,1.110000038E1,-2.520000041E-1,1.111949260E1
2.139341857E0,-2.250000089E-1,1.075500011E1,-7.510500550E-1,1.078353971E1
2.141306117E0,1.570500135E-1,1.052505016E1,-1.249050021E0,1.060006941E1
2.143270972E0,7.699500322E-1,1.029495049E1,-1.747050047E0,1.047048291E1
2.145235653E0,1.345050097E0,9.910950661E0,-1.939050078E0,1.018803308E1
2.147199673E0,1.651950121E0,9.681000710E0,-2.053950071E0,1.003341541E1
2.149163886E0,1.996950150E0,9.528000832E0,-2.053950071E0,9.949337699E0
2.151128238E0,2.265000105E0,9.298050880E0,-1.939050078E0,9.764419637E0
2.153092529E0,2.419050217E0,9.259950638E0,-1.402050018E0,9.672860695E0
2.155056119E0,2.380050182E0,9.220950127E0,-5.970000029E-1,9.541853547E0
2.157019915E0,2.227050066E0,9.451050758E0,2.830500007E-1,9.714022325E0
2.158983049E0,2.188950062E0,9.528000832E0,1.548000097E0,9.898010230E0
2.160946377E0,2.227050066E0,9.490050316E0,2.506050110E0,1.006484447E1
2.162910351E0,2.188950062E0,9.528000832E0,3.234000206E0,1.029723553E1
2.164874139E0,2.533950090E0,9.259950638E0,4.039050102E0,1.041544596E1
2.166837771E0,2.764050245E0,9.106050491E0,4.423050404E0,1.049397466E1
2.168801449E0,3.031950235E0,8.953050613E0,4.537950039E0,1.048536256E1
2.170765503E0,3.415050268E0,8.569950104E0,4.806000233E0,1.040212725E1
2.172729447E0,3.837000132E0,8.071949959E0,5.188950062E0,1.033460928E1
2.174693608E0,4.335000038E0,7.497000217E0,5.611050129E0,1.031896900E1
2.176657725E0,4.909950256E0,6.883050442E0,6.415950298E0,1.061359567E1
2.178621706E0,5.331000328E0,6.385050297E0,7.105050564E0,1.093938642E1
2.180585727E0,5.868000507E0,5.772000313E0,7.756950378E0,1.131015901E1
2.182550128E0,6.442950249E0,5.119950294E0,8.064000130E0,1.152187472E1
2.184514418E0,6.826050282E0,4.507050037E0,8.101950645E0,1.151303899E1
2.186478305E0,7.095000267E0,3.894000292E0,7.872000217E0,1.129029027E1
2.188442324E0,7.095000267E0,3.357000113E0,7.564950466E0,1.090123636E1
2.190406499E0,7.171050549E0,2.821050167E0,7.105050564E0,1.048160453E1
2.192370629E0,7.132950306E0,2.361000061E0,6.799050331E0,1.013313312E1
2.194334473E0,6.940950394E0,1.786050081E0,6.454050541E0,9.644767268E0
2.196298401E0,6.520050526E0,1.288050056E0,5.917050362E0,8.898405294E0
2.198262547E0,6.060000420E0,7.129500508E-1,5.380950451E0,8.135510471E0
2.200226629E0,5.638050079E0,2.140500098E-1,4.882050037E0,7.461088303E0
2.202191156E0,5.215950012E0,-1.290000081E-1,4.614000320E0,6.965039446E0
2.204155553E0,4.795050144E0,-3.979500234E-1,4.653000355E0,6.693376010E0
2.206119711E0,4.335000038E0,-7.039500475E-1,4.729050159E0,6.453811774E0
2.208083939E0,3.874950171E0,-1.087950110E0,4.882050037E0,6.327186328E0
2.210047714E0,3.645000219E0,-1.509000063E0,5.035950184E0,6.397179226E0
2.212011626E0,3.453000069E0,-2.083950043E0,5.035950184E0,6.451887438E0
2.213975641E0,3.300000191E0,-2.506050110E0,4.959000111E0,6.462350231E0
2.215939625E0,2.764050245E0,-2.428950071E0,4.806000233E0,6.052884473E0
2.217903628E0,2.764050245E0,-2.889000177E0,4.996950150E0,6.399672381E0
2.219867625E0,2.955000162E0,-3.234000206E0,5.074050426E0,6.703489466E0
2.221831426E0,3.147000074E0,-3.541050196E0,4.653000355E0,6.640260406E0
2.223795299E0,3.262050152E0,-3.924000263E0,4.039050102E0,6.507893283E0
2.225759455E0,3.529950142E0,-4.231050014E0,3.463950157E0,6.508554595E0
2.227723528E0,3.721950293E0,-4.537050247E0,2.812950134E0,6.507720598E0
2.229687876E0,3.798000097E0,-4.767000198E0,2.238000154E0,6.492899223E0
2.231652143E0,3.760050297E0,-4.959000111E0,1.624950051E0,6.431961054E0
2.233616148E0,3.568050146E0,-5.149950027E0,1.318050027E0,6.402360737E0
2.235580227E0,3.376950264E0,-5.341950417E0,9.349500537E-1,6.388611660E0
2.237544528E0,3.070050240E0,-5.419050217E0,6.280500293E-1,6.259853078E0
2.239508763E0,2.686950207E0,-5.419050217E0,5.130000114E-1,6.070335714E0
2.241472769E0,2.380050182E0,-5.265000343E0,4.750500321E-1,5.797459790E0
2.243436842E0,1.920000076E0,-4.996950150E0,3.600000143E-1,5.365213053E0
2.245401851E0,1.498950124E0,-4.498950005E0,2.070000172E-1,4.746604220E0
2.247366596E0,1.306950092E0,-4.077000141E0,9.195000678E-2,4.282347896E0
2.249330514E0,1.192050099E0,-3.579000235E0,-6.105000153E-2,3.772791171E0
2.251294675E0,9.240000248E-1,-3.157050133E0,-1.369500011E-1,3.292339121E0
2.253258827E0,8.089500666E-1,-2.736000061E0,-1.369500011E-1,2.856370397E0
2.255222982E0,6.940500140E-1,-2.351999998E0,-1.759500057E-1,2.458570279E0
2.257186365E0,5.410500169E-1,-1.893000126E0,-2.520000041E-1,1.984864882E0
2.259149977E0,4.260000288E-1,-1.471050024E0,-3.670500219E-1,1.574861872E0
2.261114403E0,3.490500152E-1,-1.011000037E0,-3.670500219E-1,1.130788533E0
2.263078591E0,2.719500065E-1,-5.130000114E-1,-4.060500264E-1,7.085213065E-1
2.265041839E0,2.340000123E-1,-2.059500068E-1,-3.289500177E-1,4.531881786E-1
2.267005362E0,2.340000123E-1,-1.500000060E-2,-2.520000041E-1,3.442165130E-1
2.268969077E0,3.109500110E-1,2.910000086E-1,-1.369500011E-1,4.473546883E-1
2.270932739E0,4.260000288E-1,5.209500194E-1,9.195000678E-2,6.792052348E-1
2.272896978E0,5.790000558E-1,7.129500508E-1,2.449500114E-1,9.505468677E-1
2.274861047E0,6.940500140E-1,9.040500522E-1,5.509500504E-1,1.265921750E0
2.276825261E0,7.699500322E-1,1.096050024E0,8.580000401E-1,1.590695689E0
2.278789432E0,9.240000248E-1,1.288050056E0,1.240950108E0,2.013158255E0
2.280753349E0,1.153950095E0,1.441050053E0,1.471050024E0,2.360553801E0
2.282717347E0,1.269000053E0,1.633050084E0,1.624950051E0,2.630147597E0
2.284681346E0,1.345050097E0,1.747950077E0,1.855050087E0,2.881961148E0
2.286645345E0,1.537050128E0,1.900950074E0,1.930950046E0,3.115237127E0
2.288609345E0,1.651950121E0,2.092950106E0,1.855050087E0,3.248167202E0
2.290573345E0,1.767000079E0,2.169000149E0,1.585950017E0,3.215911750E0
2.292537550E0,1.959000111E0,2.322000027E0,1.356000066E0,3.326875672E0
2.294501677E0,2.074050188E0,2.398950100E0,8.580000401E-1,3.285241214E0
2.296466376E0,2.265000105E0,2.437050104E0,2.830500007E-1,3.339095085E0
2.298430907E0,2.380050182E0,2.590950012E0,1.500000060E-2,3.518221971E0
2.300393781E0,2.533950090E0,2.743950129E0,2.449500114E-1,3.743015613E0
2.302357140E0,2.686950207E0,2.974050045E0,1.087950110E0,4.153108538E0
2.304321380E0,2.764050245E0,3.241950035E0,2.314950228E0,4.848629533E0
2.306285365E0,2.839950085E0,3.511050224E0,4.192950249E0,6.162274089E0
2.308249368E0,2.764050245E0,3.817050219E0,6.186000347E0,7.776660364E0
2.310213365E0,2.419050217E0,4.276950359E0,8.179050446E0,9.541539421E0
2.312177546E0,2.074050188E0,4.660050392E0,1.009500027E1,1.131047233E1
2.314141673E0,1.614000082E0,5.119950294E0,1.182000065E1,1.298196066E1
2.316105647E0,1.192050099E0,5.772000313E0,1.327605057E1,1.452551169E1
2.318069670E0,7.699500322E-1,6.499950409E0,1.419600105E1,1.563229427E1
2.320032810E0,1.570500135E-1,7.152000427E0,1.454100037E1,1.620544558E1
2.321996208E0,-3.019500077E-1,7.957050323E0,1.408095074E1,1.617649521E1
2.323960626E0,-7.230000496E-1,8.838000298E0,1.300800037E1,1.574296834E1
2.325924745E0,-9.529500604E-1,9.643050194E0,1.139805031E1,1.496035032E1
2.327888771E0,-1.106999993E0,1.025595093E1,9.405000687E0,1.395937020E1
2.329852824E0,-8.770500422E-1,1.094595051E1,6.721950531E0,1.287507935E1
2.331816770E0,-3.780000210E-1,1.171305084E1,3.655950069E0,1.227617265E1
2.333780747E0,4.050000105E-3,1.263300037E1,1.087950110E0,1.267976144E1
2.335745470E0,8.100000024E-2,1.428105068E1,-9.420000315E-1,1.431231406E1
2.337709975E0,-4.930500090E-1,1.650405121E1,-2.935050249E0,1.677025118E1
2.339673365E0,-1.260000110E0,1.876500130E1,-4.200000286E0,1.927051832E1
2.341637102E0,-2.179949999E0,2.175495148E1,-4.698000431E0,2.236294488E1
2.343601101E0,-3.406050205E0,2.535705185E1,-4.621950150E0,2.599891689E1
2.345565023E0,-5.016000271E0,3.010995102E1,-3.549000263E0,3.073051923E1
2.347529397E0,-6.433950424E0,3.536100006E1,-1.977000117E0,3.599589661E1
2.349493639E0,-7.468950272E0,4.080300140E1,-1.210950017E0,4.149863301E1
2.351457805E0,-8.197050095E0,4.613100052E1,-1.287000060E0,4.687128341E1
2.353422006E0,-8.121000290E0,5.138205338E1,-1.402050018E0,5.203875286E1
2.355386152E0,-7.354050159E0,5.575095367E1,-1.747050047E0,5.626102624E1
2.357350314E0,-6.051000118E0,5.912400436E1,-3.088950157E0,5.951305829E1
2.359314106E0,-3.865950108E0,6.058005142E1,-4.660050392E0,6.088188787E1
2.361278006E0,-1.681950092E0,6.069495392E1,-5.464950085E0,6.096369466E1
2.363242743E0,9.619500637E-1,5.908605194E1,-6.001950264E0,5.939789802E1
2.365207235E0,3.337950230E0,5.624895096E1,-6.232050419E0,5.669148832E1
2.367170971E0,5.370000362E0,5.237805176E1,-5.848050117E0,5.297638059E1
2.369134929E0,6.865050316E0,4.816200256E1,-5.503050327E0,4.895907444E1
2.371098935E0,7.438950539E0,4.417605209E1,-5.272950172E0,4.510726734E1
2.373062927E0,7.056000233E0,4.065000153E1,-4.890000343E0,4.154662281E1
2.375026943E0,5.944950104E0,3.754605103E1,-4.468050003E0,3.827547322E1
2.376990942E0,4.717950344E0,3.482400131E1,-4.507050037E0,3.542998198E1
2.378954898E0,3.798000097E0,3.241005325E1,-4.813050270E0,3.298487243E1
2.380918867E0,3.184950113E0,3.026295090E1,-5.158050060E0,3.086414724E1
2.382882556E0,2.992950201E0,2.838495064E1,-5.503050327E0,2.906796753E1
2.384846328E0,2.878050089E0,2.673705101E1,-5.962950230E0,2.754468814E1
2.386810560E0,3.223050117E0,2.501205063E1,-6.346950531E0,2.600527850E1
2.388774648E0,3.415050268E0,2.363295174E1,-6.730050087E0,2.480871924E1
2.390738813E0,3.645000219E0,2.240595055E1,-6.921000481E0,2.373210682E1
2.392702956E0,3.837000132E0,2.114100075E1,-7.228050232E0,2.266956534E1
2.394667067E0,4.066950321E0,1.999200058E1,-7.687950134E0,2.180194371E1
2.396631188E0,4.105050087E0,1.903305054E1,-8.148000717E0,2.110683218E1
2.398595523E0,4.066950321E0,1.819005013E1,-8.914050102E0,2.066103332E1
2.400559798E0,3.952050209E0,1.742400169E1,-9.336000443E0,2.015875592E1
2.402523571E0,3.721950293E0,1.700205040E1,-9.910950661E0,2.002871875E1
2.404487492E0,3.337950230E0,1.669500160E1,-1.040895081E1,1.995523107E1
2.406451685E0,2.802000046E0,1.646505165E1,-1.056300068E1,1.976173356E1
2.408415798E0,2.341950178E0,1.627395058E1,-1.037100029E1,1.943923468E1
2.410379594E0,1.843950033E0,1.585200119E1,-9.988050461E0,1.882676938E1
2.412343487E0,1.459950089E0,1.543095112E1,-9.565950394E0,1.821409107E1
2.414307549E0,1.269000053E0,1.497105026E1,-9.144000053E0,1.758850318E1
2.416271562E0,1.039050102E0,1.454895115E1,-8.530950546E0,1.689759515E1
2.418235740E0,8.850000501E-1,1.412700081E1,-7.687950134E0,1.610776068E1
2.420199870E0,5.790000558E-1,1.359105110E1,-7.113000393E0,1.535078779E1
2.422163618E0,2.719500065E-1,1.293900108E1,-6.691050529E0,1.456920942E1
2.424127482E0,-1.480500102E-1,1.244100094E1,-6.117000103E0,1.386427472E1
2.426091325E0,-3.400500119E-1,1.175100040E1,-5.733000278E0,1.307933243E1
2.428055174E0,-7.230000496E-1,1.117605019E1,-5.464950085E0,1.246164140E1
2.430019199E0,-8.770500422E-1,1.056300068E1,-4.852050304E0,1.165712624E1
2.431983172E0,-8.380500674E-1,9.910950661E0,-4.660050392E0,1.098386729E1
2.433947241E0,-6.850500107E-1,9.220950127E0,-4.468050003E0,1.026930794E1
2.435911268E0,-7.620000243E-1,8.647050858E0,-4.660050392E0,9.852319637E0
2.437875219E0,-1.106999993E0,7.995000362E0,-4.200000286E0,9.098652767E0
2.439839193E0,-1.260000110E0,6.960000515E0,-2.359950066E0,7.456444981E0
2.441803063E0,-1.222050071E0,6.040050507E0,-1.134000063E0,6.265905572E0
2.443766963E0,-1.642950058E0,5.311950207E0,-6.360000372E-1,5.596480674E0
2.445730953E0,-1.720050097E0,4.584000111E0,-2.910000086E-1,4.904723270E0
2.447694903E0,-1.452000022E0,3.741000175E0,9.195000678E-2,4.013955802E0
2.449657696E0,-1.452000022E0,2.974050045E0,4.360500276E-1,3.338175753E0
2.451620828E0,-1.489950061E0,2.208000183E0,1.087950110E0,2.877299330E0
2.453584570E0,-1.413000107E0,1.402950048E0,1.548000097E0,2.522130536E0
2.455548134E0,-1.375050068E0,5.209500194E-1,1.624950051E0,2.191486774E0
2.457512944E0,-1.375050068E0,-1.290000081E-1,1.816050053E0,2.281543663E0
2.459477379E0,-1.260000110E0,-7.429500222E-1,2.046000004E0,2.515092648E0
2.461440945E0,-1.336950064E0,-1.240950108E0,2.200050116E0,2.857903629E0
2.463404766E0,-1.222050071E0,-1.701000094E0,2.314950228E0,3.121826749E0
2.465368481E0,-9.529500604E-1,-2.275950193E0,2.583000183E0,3.572107648E0
2.467332227E0,-9.150000215E-1,-2.620950222E0,2.659050226E0,3.844106295E0
2.469296225E0,-6.469500065E-1,-3.310950041E0,2.583000183E0,4.248861545E0
2.471260149E0,-3.019500077E-1,-3.616950274E0,2.200050116E0,4.244257721E0
2.473224028E0,-2.629500031E-1,-3.924000263E0,1.624950051E0,4.255277128E0
2.475187920E0,4.200000316E-2,-4.269000053E0,1.126049995E0,4.415213930E0
2.477153559E0,4.260000288E-1,-4.537050247E0,5.509500504E-1,4.590190293E0
2.479118687E0,8.470500112E-1,-4.767000198E0,1.500000060E-2,4.841694911E0
2.481082430E0,1.230000019E0,-5.074050426E0,-4.060500264E-1,5.236770417E0
2.483046593E0,1.690050125E0,-5.304000378E0,-7.890000343E-1,5.622384769E0
2.485010250E0,2.149950027E0,-5.533950329E0,-1.057050109E0,6.030277464E0
2.486974055E0,2.686950207E0,-5.686950207E0,-1.210950017E0,6.405271580E0
2.488938087E0,3.147000074E0,-5.839950085E0,-1.402050018E0,6.780440304E0
2.490902053E0,3.492000103E0,-6.070050240E0,-1.516950130E0,7.165243354E0
2.492866039E0,3.682950258E0,-6.262050152E0,-1.555950046E0,7.429560906E0
2.494830002E0,3.798000097E0,-6.415050507E0,-1.594050050E0,7.623560409E0
2.496793873E0,3.874950171E0,-6.454050541E0,-1.632000089E0,7.702819711E0
2.498757771E0,3.798000097E0,-6.568950176E0,-1.441050053E0,7.723505448E0
2.500721787E0,3.682950258E0,-6.684000492E0,-1.249050021E0,7.733053158E0
2.502685769E0,3.607050180E0,-6.721950531E0,-9.420000315E-1,7.686533289E0
2.504649898E0,3.415050268E0,-6.798000336E0,-5.590500236E-1,7.628100276E0
2.506613991E0,3.031950235E0,-6.760050297E0,-1.759500057E-1,7.410935207E0
2.508576940E0,2.764050245E0,-6.798000336E0,2.070000172E-1,7.341364405E0
2.510540224E0,2.572050095E0,-6.837000370E0,7.050000429E-1,7.338735641E0
2.512504301E0,2.304000139E0,-6.837000370E0,1.240950108E0,7.320720448E0
2.514468145E0,2.035050154E0,-6.837000370E0,1.510050058E0,7.291519346E0
2.516432217E0,1.882050037E0,-6.874950409E0,1.740000129E0,7.337210363E0
2.518396222E0,1.651950121E0,-6.684000492E0,2.085000038E0,7.193888166E0
2.520360222E0,1.345050097E0,-6.492000103E0,2.506050110E0,7.087701479E0
2.522324224E0,1.230000019E0,-6.339000225E0,2.812950134E0,7.043331056E0
2.524287998E0,1.039050102E0,-6.109050274E0,3.004050255E0,6.886540372E0
2.526251839E0,7.320000529E-1,-5.725050449E0,3.196050167E0,6.597481595E0
2.528214780E0,5.410500169E-1,-5.419050217E0,3.426000118E0,6.433996983E0
2.530177988E0,4.260000288E-1,-5.035050392E0,3.771000147E0,6.305049610E0
2.532141987E0,3.109500110E-1,-4.575000286E0,4.078050137E0,6.136595998E0
2.534105755E0,8.100000024E-2,-4.077000141E0,4.231050014E0,5.876246708E0
2.536069614E0,8.100000024E-2,-3.732000113E0,4.116000175E0,5.556603575E0
2.538033447E0,4.050000105E-3,-3.463950157E0,4.192950249E0,5.438731367E0
2.539997291E0,-1.099500060E-1,-3.042000055E0,4.116000175E0,5.119307647E0
2.541961135E0,-3.019500077E-1,-2.620950222E0,4.000950336E0,4.792510560E0
2.543924757E0,-3.780000210E-1,-2.238000154E0,3.847950220E0,4.467465680E0
2.545888444E0,-4.930500090E-1,-1.893000126E0,3.733050108E0,4.214523804E0
2.547852497E0,-6.079500318E-1,-1.432950020E0,3.388050079E0,3.728516104E0
2.549816442E0,-5.320500135E-1,-1.164000034E0,3.043050051E0,3.301231120E0
2.551780347E0,-6.079500318E-1,-8.190000653E-1,2.698050022E0,2.884412985E0
2.553744243E0,-4.930500090E-1,-4.740000367E-1,2.275950193E0,2.376493978E0
2.555708035E0,-3.019500077E-1,-3.210000098E-1,2.046000004E0,2.092923990E0
2.557671858E0,-2.629500031E-1,-5.295000225E-2,1.777950048E0,1.798069182E0
2.559635212E0,-2.250000089E-1,2.140500098E-1,1.510050058E0,1.541652876E0
2.561598704E0,-7.200000435E-2,4.060500264E-1,1.432950020E0,1.491109112E0
2.563562785E0,1.189500093E-1,5.590500236E-1,1.240950108E0,1.366251515E0
2.565526697E0,3.109500110E-1,6.739500165E-1,1.011000037E0,1.254200785E0
2.567490488E0,4.639500082E-1,8.659500480E-1,8.200500607E-1,1.279687930E0
2.569454315E0,5.410500169E-1,1.096050024E0,6.280500293E-1,1.374229826E0
2.571418929E0,7.320000529E-1,1.210950017E0,5.130000114E-1,1.505122265E0
2.573383313E0,8.089500666E-1,1.210950017E0,3.600000143E-1,1.500133382E0
2.575347759E0,8.470500112E-1,1.441050053E0,2.070000172E-1,1.684330129E0
2.577312207E0,9.240000248E-1,1.555950046E0,5.295000225E-2,1.810403351E0
2.579275770E0,9.619500637E-1,1.671000123E0,-6.105000153E-2,1.929071393E0
2.581239593E0,9.240000248E-1,1.824000120E0,-9.900000691E-2,2.047084142E0
2.583203263E0,1.000050068E0,2.016000032E0,-1.759500057E-1,2.257280371E0
2.585166978E0,1.000050068E0,2.131050110E0,-2.520000041E-1,2.367483624E0
2.587131196E0,1.039050102E0,2.361000061E0,-3.670500219E-1,2.605508035E0
2.589095274E0,1.114950061E0,2.514000177E0,-5.209500194E-1,2.799053314E0
2.591059217E0,1.192050099E0,2.706000090E0,-5.970000029E-1,3.016592271E0
2.593023199E0,1.269000053E0,2.935950041E0,-7.120500207E-1,3.276763496E0
2.594986886E0,1.306950092E0,3.241950035E0,-9.040500522E-1,3.610493743E0
2.596950660E0,1.269000053E0,3.586950064E0,-1.096050024E0,3.959532491E0
2.598914478E0,1.230000019E0,4.047000408E0,-1.363950014E0,4.444262818E0
2.600878279E0,1.192050099E0,4.584000111E0,-1.632000089E0,5.009736993E0
2.602842313E0,1.114950061E0,5.119950294E0,-2.053950071E0,5.628118296E0
2.604806279E0,1.039050102E0,5.656950474E0,-2.359950066E0,6.216918697E0
2.606770151E0,1.000050068E0,6.154950142E0,-2.629050016E0,6.767230998E0
2.608734050E0,1.077000022E0,6.538950443E0,-3.012000084E0,7.279419376E0
2.610697522E0,1.114950061E0,6.844950199E0,-3.165000200E0,7.623233116E0
2.612661122E0,1.039050102E0,7.113000393E0,-3.394950151E0,7.949848189E0
2.614623929E0,8.470500112E-1,7.152000427E0,-3.664050102E0,8.080462053E0
2.616586968E0,5.410500169E-1,7.152000427E0,-3.970050097E0,8.197874298E0
2.618550772E0,8.100000024E-2,7.113000393E0,-4.276950359E0,8.300219272E0
2.620514351E0,-4.170000255E-1,6.922050476E0,-4.353000164E0,8.187629831E0
2.622477810E0,-7.230000496E-1,6.615000248E0,-4.237950325E0,7.889307974E0
2.624441324E0,-9.529500604E-1,6.270000458E0,-3.664050102E0,7.324362273E0
2.626404911E0,-9.150000215E-1,5.809950352E0,-2.859000206E0,6.539620043E0
2.628368476E0,-9.150000215E-1,5.350050449E0,-1.708950043E0,5.690410802E0
2.630331470E0,-7.999500632E-1,4.890000343E0,-6.739500165E-1,5.000623170E0
2.632294631E0,-6.469500065E-1,4.468950272E0,3.979500234E-1,4.533037068E0
2.634258160E0,-6.469500065E-1,4.085999966E0,1.663050056E0,4.458662974E0
2.636221601E0,-3.400500119E-1,3.778950214E0,3.349050045E0,5.060853183E0
2.638185382E0,-7.200000435E-2,3.586950064E0,5.419050217E0,6.499038391E0
2.640149063E0,2.340000123E-1,3.549000263E0,7.719000340E0,8.499007302E0
2.642113839E0,7.320000529E-1,3.549000263E0,1.017195034E1,1.079813876E1
2.644078294E0,1.230000019E0,3.664050102E0,1.285500050E1,1.342345712E1
2.646042010E0,1.345050097E0,4.047000408E0,1.492395115E1,1.552133016E1
2.648005930E0,1.384050012E0,4.468950272E0,1.626600075E1,1.692542145E1
2.649969583E0,1.459950089E0,4.966950417E0,1.703205109E1,1.780148350E1
2.651933315E0,1.345050097E0,5.734050274E0,1.699394989E1,1.798562830E1
2.653897179E0,1.114950061E0,6.922050476E0,1.645695114E1,1.788824020E1
2.655861005E0,1.039050102E0,8.110050201E0,1.557600117E1,1.759159890E1
2.657824869E0,1.230000019E0,9.336000443E0,1.438800049E1,1.719559136E1
2.659788711E0,1.345050097E0,1.083105087E1,1.304595089E1,1.700934030E1
2.661752558E0,1.459950089E0,1.290105057E1,1.170495033E1,1.748068712E1
2.663716404E0,1.192050099E0,1.569900036E1,1.021005058E1,1.876498677E1
2.665679215E0,5.790000558E-1,1.899495125E1,8.217000008E0,2.070416632E1
2.667642329E0,-3.780000210E-1,2.236800194E1,6.223950386E0,2.322085169E1
2.669606273E0,-1.375050068E0,2.600895119E1,4.729050159E0,2.647112049E1
2.671569961E0,-1.795950055E0,2.976495171E1,3.463950157E0,3.001960588E1
2.673533835E0,-1.987950087E0,3.375105286E1,2.161050081E0,3.387854265E1
2.675497654E0,-1.297950029E0,3.773700333E1,9.349500537E-1,3.777089125E1
2.677463127E0,1.960500032E-1,4.114800262E1,-9.420000315E-1,4.115925072E1
2.679428115E0,2.380050182E0,4.321800232E1,-4.353000164E0,4.350182725E1
2.681391582E0,5.215950012E0,4.306500244E1,-8.032950401E0,4.411721730E1
2.683355498E0,8.704050064E0,4.229805374E1,-1.106100082E1,4.457837567E1
2.685319377E0,1.238400078E1,4.091805267E1,-9.949050903E0,4.389344055E1
2.687283267E0,1.591005039E1,3.992205048E1,-7.840950489E0,4.368501256E1
2.689247105E0,1.855395126E1,3.904005051E1,-5.005050182E0,4.351350570E1
2.691210959E0,2.035605049E1,3.819705200E1,-3.510000229E0,4.342468969E1
2.693174754E0,2.070105171E1,3.720105362E1,-3.357000113E0,4.270505101E1
2.695138570E0,1.690605164E1,3.651105118E1,-4.621950150E0,4.049980078E1
2.697102241E0,9.318000793E0,3.566699982E1,-6.576000214E0,3.744601172E1
2.699065954E0,2.992950201E0,3.371295166E1,-9.067950249E0,3.503924346E1
2.701028786E0,-1.260000110E0,3.106800079E1,-1.132905006E1,3.309313598E1
2.702991877E0,-3.598050117E0,2.846205139E1,-1.290105057E1,3.145586495E1
2.704955987E0,-4.518000126E0,2.635395050E1,-1.324500084E1,2.983911995E1
2.706919798E0,-4.210950375E0,2.455200195E1,-1.286205101E1,2.803507195E1
2.708883651E0,-3.790050268E0,2.301900101E1,-1.228695011E1,2.636679790E1
2.710847491E0,-3.598050117E0,2.171595192E1,-1.163595009E1,2.489827036E1
2.712811519E0,-3.675000191E0,2.079600143E1,-1.106100082E1,2.383956882E1
2.714775491E0,-4.018949986E0,2.010600090E1,-1.021800041E1,2.290874863E1
2.716739515E0,-4.402950287E0,1.968495178E1,-9.067950249E0,2.211585449E1
2.718703510E0,-4.978050232E0,1.945500183E1,-8.110050201E0,2.165758515E1
2.720667377E0,-5.553000450E0,1.926300049E1,-7.687950134E0,2.147099390E1
2.722631281E0,-5.974050522E0,1.903305054E1,-7.420050144E0,2.128387738E1
2.724595251E0,-6.396000385E0,1.888005066E1,-6.921000481E0,2.110131232E1
2.726559202E0,-6.817050457E0,1.891800117E1,-6.768000126E0,2.121718104E1
2.728523050E0,-7.201050282E0,1.888005066E1,-6.232050419E0,2.114591900E1
2.730486915E0,-7.468950272E0,1.899495125E1,-5.695050240E0,2.119025692E1
2.732450758E0,-7.354050159E0,1.922504997E1,-5.542050362E0,2.131663488E1
2.734414608E0,-7.009050369E0,1.933995056E1,-5.695050240E0,2.134464973E1
2.736378453E0,-6.472050190E0,1.953195000E1,-6.307950497E0,2.152149493E1
2.738342300E0,-5.668050289E0,1.980000114E1,-7.075050354E0,2.177666588E1
2.740306016E0,-5.092950344E0,1.976205063E1,-7.534950256E0,2.175436194E1
2.742269767E0,-4.288050175E0,1.918695068E1,-6.385050297E0,2.067112281E1
2.744233224E0,-3.445050240E0,1.864995003E1,-4.468050003E0,1.948467290E1
2.746196767E0,-2.755050182E0,1.834305000E1,-4.084949970E0,1.899327779E1
2.748160889E0,-2.218050003E0,1.773000145E1,-3.778950214E0,1.826343785E1
2.750124842E0,-1.987950087E0,1.715505028E1,-3.012000084E0,1.753054021E1
2.752088612E0,-2.026050091E0,1.661894989E1,-2.359950066E0,1.690750540E1
2.754052445E0,-2.103000164E0,1.619700050E1,-2.206950188E0,1.648138538E1
2.756016292E0,-2.065050125E0,1.573695087E1,-2.130000114E0,1.601414860E1
2.757980135E0,-2.026050091E0,1.508595085E1,-1.786050081E0,1.532582027E1
2.759943667E0,-2.179949999E0,1.454895115E1,-1.479000092E0,1.478552004E1
2.761907291E0,-2.256000042E0,1.385895061E1,-1.326000094E0,1.410384077E1
2.763871193E0,-2.448000193E0,1.305405045E1,-1.249050021E0,1.334020479E1
2.765835000E0,-2.640000105E0,1.232595062E1,-1.210950017E0,1.266353265E1
2.767798674E0,-2.755050182E0,1.144395065E1,-9.420000315E-1,1.180854234E1
2.769762387E0,-3.022950172E0,1.071600056E1,-7.120500207E-1,1.115696692E1
2.771726210E0,-3.214950085E0,1.010295010E1,-3.289500177E-1,1.060724813E1
2.773690000E0,-3.445050240E0,9.757950783E0,-1.369500011E-1,1.034914151E1
2.775653686E0,-3.790050268E0,9.565950394E0,5.295000225E-2,1.028954283E1
2.777617396E0,-4.018949986E0,9.643050194E0,1.500000060E-2,1.044703791E1
2.779581085E0,-4.096050262E0,9.757950783E0,-2.205000073E-2,1.058280291E1
2.781544781E0,-4.057950020E0,9.757950783E0,-3.289500177E-1,1.057321001E1
2.783508877E0,-3.790050268E0,9.796050072E0,-2.910000086E-1,1.050769999E1
2.785472856E0,-3.445050240E0,1.014105034E1,-3.670500219E-1,1.071652924E1
2.787436635E0,-2.908050060E0,1.033305073E1,-6.360000372E-1,1.075328734E1
2.789400473E0,-2.485950232E0,1.048605061E1,-9.810000658E-1,1.082125533E1
2.791364364E0,-2.026050091E0,1.060095024E1,-9.420000315E-1,1.083385384E1
2.793328240E0,-1.413000107E0,1.094595051E1,-1.018950105E0,1.108371152E1
2.795292037E0,-9.529500604E-1,1.125300026E1,-9.420000315E-1,1.133249720E1
2.797255858E0,-5.320500135E-1,1.159800053E1,-9.810000658E-1,1.165156876E1
2.799219588E0,-1.099500060E-1,1.194300079E1,-9.810000658E-1,1.198372722E1
2.801183334E0,1.570500135E-1,1.221105099E1,-9.420000315E-1,1.224833846E1
2.803148052E0,3.870000243E-1,1.263300037E1,-9.810000658E-1,1.267694082E1
2.805112486E0,6.169500351E-1,1.290105057E1,-9.420000315E-1,1.295010028E1
2.807076097E0,7.320000529E-1,1.301595020E1,-8.659500480E-1,1.306524601E1
2.809039950E0,8.470500112E-1,1.316895103E1,-6.739500165E-1,1.321336345E1
2.811002873E0,7.699500322E-1,1.324605083E1,-9.900000691E-2,1.326877865E1
2.812966051E0,6.550500393E-1,1.320795059E1,6.280500293E-1,1.323908971E1
2.814930235E0,4.639500082E-1,1.297800064E1,1.777950048E0,1.310743517E1
2.816894125E0,7.320000529E-1,1.267095089E1,2.736000061E0,1.298362495E1
2.818858279E0,1.192050099E0,1.209600067E1,3.655950069E0,1.269252483E1
2.820822356E0,1.537050128E0,1.155900097E1,4.384050369E0,1.245764521E1
2.822786223E0,2.035050154E0,1.110000038E1,5.112000465E0,1.238886542E1
2.824750141E0,2.649000168E0,1.079295063E1,5.649000168E0,1.246660291E1
2.826713930E0,3.262050152E0,1.025595093E1,5.649000168E0,1.215469882E1
2.828677757E0,3.682950258E0,9.681000710E0,5.380950451E0,1.167221166E1
2.830641426E0,4.182000160E0,9.106050491E0,5.151000023E0,1.126685769E1
2.832605142E0,4.680000305E0,8.493000031E0,4.996950150E0,1.090884793E1
2.834569335E0,5.062950134E0,7.803000450E0,4.959000111E0,1.054096590E1
2.836533413E0,5.331000328E0,7.267050266E0,4.882050037E0,1.025007301E1
2.838497040E0,5.599950314E0,6.691950321E0,4.806000233E0,9.961891429E0
2.840460800E0,5.523000240E0,6.154950142E0,4.768050194E0,9.545744893E0
2.842424525E0,5.560950279E0,5.772000313E0,4.882050037E0,9.384805176E0
2.844388261E0,5.560950279E0,5.311950207E0,5.035950184E0,9.192484825E0
2.846351932E0,5.560950279E0,4.813950062E0,5.112000465E0,8.957166514E0
2.848315632E0,5.485050201E0,4.392000198E0,5.188950062E0,8.735023995E0
2.850279323E0,5.407950401E0,3.894000292E0,5.380950451E0,8.565266696E0
2.852243017E0,5.407950401E0,3.319050074E0,5.341950417E0,8.294483419E0
2.854206888E0,5.331000328E0,2.629050016E0,5.341950417E0,7.991739657E0
2.856170707E0,5.293050289E0,1.900950074E0,5.266050339E0,7.704627098E0
2.858134553E0,5.101050377E0,1.249050021E0,5.112000465E0,7.328941920E0
2.860098394E0,5.025000095E0,5.209500194E-1,4.806000233E0,6.972779440E0
2.862062917E0,4.948050022E0,-1.290000081E-1,4.653000355E0,6.793397701E0
2.864027240E0,4.795050144E0,-5.890500546E-1,4.498950005E0,6.601517780E0
2.865990871E0,4.717950344E0,-1.164000034E0,4.423050404E0,6.570945625E0
2.867954704E0,4.603050232E0,-1.663050056E0,4.192950249E0,6.444737288E0
2.869918726E0,4.488000393E0,-2.122950077E0,3.847950220E0,6.281384040E0
2.871882696E0,4.488000393E0,-2.659050226E0,3.694050074E0,6.392081162E0
2.873846657E0,4.450050354E0,-3.118950129E0,3.426000118E0,6.424038828E0
2.875810621E0,4.297049999E0,-3.655950069E0,3.118950129E0,6.446585105E0
2.877774492E0,4.105050087E0,-4.039050102E0,2.851050138E0,6.426029010E0
2.879738390E0,3.874950171E0,-4.306950092E0,2.659050226E0,6.374606343E0
2.881702233E0,3.837000132E0,-4.651950359E0,2.506050110E0,6.530199025E0
2.883666088E0,3.721950293E0,-4.959000111E0,2.391000032E0,6.645410238E0
2.885629887E0,3.607050180E0,-5.341950417E0,2.275950193E0,6.835729262E0
2.887593703E0,3.337950230E0,-5.572050095E0,2.161050081E0,6.845421203E0
2.889557959E0,3.147000074E0,-5.764050484E0,1.930950046E0,6.845177538E0
2.891522086E0,2.917050123E0,-6.031950474E0,1.624950051E0,6.894495675E0
2.893486094E0,2.725050211E0,-6.223950386E0,1.432950020E0,6.943831998E0
2.895450117E0,2.457000017E0,-6.454050541E0,1.203000069E0,7.009909174E0
2.897414113E0,2.188950062E0,-6.568950176E0,1.011000037E0,6.997480251E0
2.899378117E0,1.920000076E0,-6.721950531E0,8.200500607E-1,7.038714466E0
2.901342250E0,1.651950121E0,-6.874950409E0,7.050000429E-1,7.105695419E0
2.903306345E0,1.459950089E0,-6.990000248E0,7.429500222E-1,7.179382457E0
2.905270150E0,1.345050097E0,-7.027950287E0,8.200500607E-1,7.202341779E0
2.907234040E0,1.306950092E0,-7.143000126E0,8.959500194E-1,7.316645118E0
2.909197698E0,1.306950092E0,-7.066950321E0,8.959500194E-1,7.242418921E0
2.911161424E0,1.269000053E0,-6.874950409E0,7.810500264E-1,7.034581964E0
2.913125111E0,1.000050068E0,-6.376950264E0,4.360500276E-1,6.469600794E0
2.915088809E0,5.410500169E-1,-5.686950207E0,2.449500114E-1,5.717878827E0
2.917052850E0,1.960500032E-1,-4.882050037E0,5.295000225E-2,4.886271777E0
2.919016797E0,-7.200000435E-2,-4.116000175E0,-2.205000073E-2,4.116688918E0
2.920980851E0,-3.400500119E-1,-3.463950157E0,-6.105000153E-2,3.481136568E0
2.922944874E0,-4.549500346E-1,-2.926950216E0,-6.105000153E-2,2.962725807E0
2.924909051E0,-5.700000525E-1,-2.467050076E0,-2.205000073E-2,2.532137899E0
2.926873182E0,-6.079500318E-1,-2.122950077E0,1.300500035E-1,2.212110593E0
2.928836776E0,-6.469500065E-1,-1.777950048E0,4.360500276E-1,1.941594786E0
2.930800544E0,-5.700000525E-1,-1.548000097E0,7.810500264E-1,1.825169445E0
2.932764763E0,-5.700000525E-1,-1.318050027E0,1.126049995E0,1.824868358E0
2.934728850E0,-4.930500090E-1,-1.164000034E0,1.395000100E0,1.882556685E0
2.936693150E0,-3.780000210E-1,-1.011000037E0,1.585950017E0,1.918395827E0
2.938657388E0,-2.250000089E-1,-8.959500194E-1,1.855050087E0,2.072332567E0
2.940621417E0,-3.299999982E-2,-7.429500222E-1,2.122950077E0,2.249440100E0
2.942585491E0,8.100000024E-2,-6.280500293E-1,2.391000032E0,2.473436677E0
2.944549658E0,2.719500065E-1,-5.890500546E-1,2.545050144E0,2.626445699E0
2.946513797E0,3.870000243E-1,-4.740000367E-1,2.620950222E0,2.691435513E0
2.948478675E0,5.410500169E-1,-3.979500234E-1,2.659050226E0,2.742562205E0
2.950443336E0,8.089500666E-1,-3.589500189E-1,2.659050226E0,2.802462030E0
2.952407358E0,9.240000248E-1,-2.059500068E-1,2.659050226E0,2.822541329E0
2.954371568E0,1.114950061E0,-2.059500068E-1,2.430000067E0,2.681497598E0
2.956335577E0,1.306950092E0,-1.680000126E-1,2.200050116E0,2.564481051E0
2.958299645E0,1.498950124E0,-1.290000081E-1,1.969950080E0,2.478748836E0
2.960262732E0,1.767000079E0,-9.105000645E-2,1.701000094E0,2.454379902E0
2.962226107E0,2.074050188E0,6.105000153E-2,1.624950051E0,2.635502600E0
2.964190213E0,2.380050182E0,1.759500057E-1,1.510050058E0,2.824154467E0
2.966154105E0,2.572050095E0,2.910000086E-1,1.471050024E0,2.977265670E0
2.968118304E0,2.878050089E0,4.440000355E-1,1.395000100E0,3.228983373E0
2.970082413E0,3.184950113E0,6.360000372E-1,1.318050027E0,3.505090462E0
2.972046574E0,3.529950142E0,7.129500508E-1,1.165050030E0,3.784995027E0
2.974010720E0,3.913050175E0,7.890000343E-1,8.959500194E-1,4.091113438E0
2.975975597E0,4.335000038E0,8.659500480E-1,4.750500321E-1,4.446095742E0
2.977940259E0,4.642050266E0,1.018950105E0,9.195000678E-2,4.753456089E0
2.979904326E0,4.948050022E0,1.210950017E0,-2.140500098E-1,5.098570032E0
2.981868568E0,5.215950012E0,1.326000094E0,-2.140500098E-1,5.386114387E0
2.983831580E0,5.446050167E0,1.633050084E0,9.195000678E-2,5.686367013E0
2.985794953E0,5.638050079E0,2.016000032E0,7.429500222E-1,6.033559444E0
2.987759050E0,5.791050434E0,2.361000061E0,1.777950048E0,6.501668462E0
2.989722942E0,5.715000153E0,2.896950245E0,3.157950163E0,7.143262329E0
2.991686646E0,5.560950279E0,3.549000263E0,4.729050159E0,8.116864314E0
2.993650406E0,5.293050289E0,4.123950005E0,6.531000137E0,9.363616171E0
2.995614401E0,5.215950012E0,4.660050392E0,8.485050201E0,1.099628488E1
2.997578327E0,5.062950134E0,5.389050484E0,1.021005058E1,1.260636593E1
2.999542307E0,4.833000183E0,6.193950176E0,1.159005070E1,1.400186362E1
3.001506294E0,4.642050266E0,7.228050232E0,1.270095062E1,1.533321517E1
3.003470341E0,4.411950111E0,8.569950104E0,1.316100025E1,1.631322397E1
3.005434371E0,4.105050087E0,1.018005085E1,1.308495045E1,1.707925056E1
3.007398546E0,3.874950171E0,1.198095036E1,1.235595036E1,1.764165297E1
3.009362678E0,3.952050209E0,1.347600079E1,1.086195087E1,1.775396505E1
3.011326792E0,4.488000393E0,1.470195103E1,8.217000008E0,1.743010616E1
3.013290911E0,5.062950134E0,1.554600048E1,4.384050369E0,1.692724114E1
3.015255791E0,5.752950191E0,1.704000092E1,1.300500035E-1,1.798541020E1
3.017220448E0,6.405000210E0,1.868805122E1,-2.514000177E0,1.991450434E1
3.019184336E0,6.673050404E0,2.022105026E1,-6.615000248E0,2.229750443E1
3.021148450E0,6.136050224E0,2.317305183E1,-1.002600002E1,2.598388193E1
3.023112300E0,5.254950047E0,2.643105125E1,-1.198095036E1,2.949166224E1
3.025076224E0,4.027950287E0,3.010995102E1,-1.347495079E1,3.323263205E1
3.027040236E0,2.764050245E0,3.432600021E1,-1.320705032E1,3.688279331E1
3.029004222E0,1.690050125E0,3.938505173E1,-1.152105045E1,4.107034420E1
3.030967459E0,9.619500637E-1,4.436805344E1,-1.006395054E1,4.550530314E1
3.032930916E0,8.100000024E-2,4.977195358E1,-8.722949982E0,5.053062221E1
3.034894841E0,-1.260000110E0,5.440995407E1,-8.493000031E0,5.508322568E1
3.036858619E0,-3.061050177E0,5.797395325E1,-9.373950005E0,5.880663417E1
3.038822117E0,-4.326000214E0,6.023505402E1,-1.033305073E1,6.126783779E1
3.040785698E0,-4.863000393E0,6.107895279E1,-1.075395012E1,6.220879914E1
3.042749409E0,-4.326000214E0,6.058005142E1,-1.063905048E1,6.165911371E1
3.044713081E0,-3.904950142E0,5.935395432E1,-1.010295010E1,6.033415392E1
3.046676948E0,-3.291000128E0,5.640300369E1,-9.336000443E0,5.726508894E1
3.048640764E0,-2.218050003E0,5.245500183E1,-8.569950104E0,5.319671990E1
3.050604301E0,-1.297950029E0,4.804695129E1,-7.726050377E0,4.868147551E1
3.052567920E0,-6.079500318E-1,4.383105087E1,-6.997950554E0,4.439033606E1
3.054531939E0,-3.400500119E-1,4.007505035E1,-6.730050087E0,4.063765334E1
3.056495841E0,-3.400500119E-1,3.685605240E1,-6.346950531E0,3.740010713E1
3.058460043E0,-4.170000255E-1,3.371295166E1,-7.305000305E0,3.449782643E1
3.060424154E0,-5.700000525E-1,3.122100067E1,-8.377950668E0,3.233057130E1
3.062388001E0,-7.620000243E-1,2.930505180E1,-8.646000862E0,3.056337737E1
3.064351925E0,-9.529500604E-1,2.761905098E1,-8.722949982E0,2.897947458E1
3.066316117E0,-1.106999993E0,2.612400055E1,-8.761050224E0,2.757616461E1
3.068280231E0,-1.106999993E0,2.466705132E1,-8.875950813E0,2.623873801E1
3.070244162E0,-8.770500422E-1,2.328795052E1,-9.144000053E0,2.503418848E1
3.072208151E0,-5.700000525E-1,2.202300072E1,-9.681000710E0,2.406364967E1
3.074171657E0,-3.019500077E-1,2.087295151E1,-1.014105034E1,2.320801974E1
3.076135305E0,-3.019500077E-1,1.976205063E1,-1.079295063E1,2.251927179E1
3.078098825E0,-3.019500077E-1,1.872705078E1,-1.148205090E1,2.196886655E1
3.080062382E0,-3.019500077E-1,1.788300133E1,-1.198095036E1,2.152756562E1
3.082026202E0,-3.780000210E-1,1.704000092E1,-1.251705074E1,2.114665634E1
3.083989966E0,-4.930500090E-1,1.635000038E1,-1.290105057E1,2.083273185E1
3.085953871E0,-6.850500107E-1,1.569900036E1,-1.312995052E1,2.047739013E1
3.087917735E0,-8.380500674E-1,1.500900078E1,-1.332195091E1,2.008598537E1
3.089881758E0,-1.030050039E0,1.443405056E1,-1.309200096E1,1.951418222E1
3.091845735E0,-1.260000110E0,1.385895061E1,-1.274700069E1,1.887178156E1
3.093809754E0,-1.452000022E0,1.339905071E1,-1.209600067E1,1.810955815E1
3.095773750E0,-1.336950064E0,1.286295033E1,-1.171200085E1,1.744746086E1
3.097738112E0,-1.297950029E0,1.232595062E1,-1.106100082E1,1.661202794E1
3.099702366E0,-1.336950064E0,1.178895092E1,-1.025595093E1,1.568283548E1
3.101666638E0,-1.375050068E0,1.121400070E1,-8.953050613E0,1.441532829E1
3.103630904E0,-1.260000110E0,1.056300068E1,-7.879950523E0,1.323851215E1
3.105595635E0,-7.230000496E-1,9.835050583E0,-6.805950165E0,1.198214950E1
3.107560222E0,-5.320500135E-1,9.183000565E0,-5.311950207E0,1.062202389E1
3.109524618E0,-3.400500119E-1,8.455050468E0,-4.507050037E0,9.587336047E0
3.111489070E0,-3.299999982E-2,7.534950256E0,-3.931950092E0,8.499223252E0
3.113453398E0,1.960500032E-1,6.768000126E0,-3.127050161E0,7.458063021E0
3.115417762E0,4.639500082E-1,6.154950142E0,-2.169000149E0,6.542417176E0
3.117382045E0,4.639500082E-1,5.619000435E0,-1.441050053E0,5.819367728E0
3.119346363E0,3.870000243E-1,4.890000343E0,-1.057050109E0,5.017890723E0
3.121310669E0,2.719500065E-1,4.392000198E0,-4.819500148E-1,4.426725468E0
3.123274978E0,1.960500032E-1,3.741000175E0,-6.105000153E-2,3.746631156E0
3.125238339E0,1.960500032E-1,3.319050074E0,3.600000143E-1,3.344268082E0
3.127201978E0,2.719500065E-1,2.743950129E0,7.050000429E-1,2.846092791E0
3.129166240E0,3.490500152E-1,2.361000061E0,8.959500194E-1,2.549290811E0
3.131130337E0,4.639500082E-1,1.900950074E0,1.126049995E0,2.257620293E0
3.133095176E0,7.699500322E-1,1.326000094E0,1.356000066E0,2.046908762E0
3.135059798E0,9.240000248E-1,8.659500480E-1,1.548000097E0,1.999987458E0
3.137023737E0,1.269000053E0,3.679500222E-1,1.663050056E0,2.124025386E0
3.138987877E0,1.384050012E0,6.105000153E-2,1.893000126E0,2.345798588E0
3.140952694E0,1.614000082E0,-2.440500110E-1,1.855050087E0,2.470985127E0
3.142917323E0,1.767000079E0,-5.890500546E-1,1.663050056E0,2.496999146E0
3.144881081E0,1.959000111E0,-9.340500236E-1,1.432950020E0,2.600668499E0
3.146845094E0,2.074050188E0,-1.279050112E0,1.126049995E0,2.684332685E0
3.148809047E0,1.996950150E0,-1.509000063E0,7.810500264E-1,2.622008816E0
3.150773017E0,2.227050066E0,-1.854000092E0,5.130000114E-1,2.942828121E0
3.152738128E0,2.380050182E0,-2.008050203E0,3.220500052E-1,3.130594304E0
3.154702918E0,2.494950056E0,-2.046000004E0,1.680000126E-1,3.230962055E0
3.156666964E0,2.649000168E0,-2.161050081E0,9.195000678E-2,3.419911424E0
3.158631228E0,2.878050089E0,-2.275950193E0,5.295000225E-2,3.669594705E0
3.160595318E0,2.992950201E0,-2.391000032E0,5.295000225E-2,3.831114167E0
3.162559459E0,3.108000040E0,-2.428950071E0,-9.900000691E-2,3.945790630E0
3.164523435E0,3.300000191E0,-2.428950071E0,-1.369500011E-1,4.099823778E0
3.166487459E0,3.262050152E0,-2.467050076E0,-2.140500098E-1,4.095500540E0
3.168451634E0,3.108000040E0,-2.544000149E0,-2.140500098E-1,4.022116161E0
3.170415765E0,3.031950235E0,-2.581950188E0,-2.910000086E-1,3.992977587E0
3.172379744E0,2.802000046E0,-2.659050226E0,-2.910000086E-1,3.873813801E0
3.174343767E0,2.494950056E0,-2.736000061E0,-2.520000041E-1,3.711330775E0
3.176307431E0,2.265000105E0,-2.889000177E0,-2.910000086E-1,3.682557332E0
3.178271180E0,2.035050154E0,-3.004050255E0,-4.440000355E-1,3.655527745E0
3.180234908E0,1.843950033E0,-3.042000055E0,-2.910000086E-1,3.569117127E0
3.182198642E0,1.537050128E0,-3.157050133E0,-3.670500219E-1,3.530469424E0
3.184162461E0,1.306950092E0,-3.157050133E0,-2.910000086E-1,3.429251389E0
3.186126255E0,1.114950061E0,-3.157050133E0,-1.369500011E-1,3.350945312E0
3.188089289E0,8.470500112E-1,-3.118950129E0,1.500000060E-2,3.231960493E0
3.190052522E0,5.410500169E-1,-3.004050255E0,3.220500052E-1,3.069327167E0
3.192015752E0,2.719500065E-1,-2.965950251E0,7.050000429E-1,3.060693182E0
3.193978983E0,1.960500032E-1,-3.004050255E0,1.011000037E0,3.175669160E0
3.195942754E0,1.570500135E-1,-2.889000177E0,1.471050024E0,3.245762608E0
3.197906366E0,8.100000024E-2,-2.889000177E0,1.624950051E0,3.315621464E0
3.199870402E0,4.050000105E-3,-2.889000177E0,2.122950077E0,3.585143715E0
3.201834303E0,-3.299999982E-2,-2.812050104E0,2.659050226E0,3.870305271E0
3.203798500E0,-1.099500060E-1,-2.659050226E0,3.388050079E0,4.308308305E0
3.205762611E0,-1.870500147E-1,-2.467050076E0,4.231050014E0,4.901337369E0
3.207726232E0,-2.629500031E-1,-2.199000120E0,4.806000233E0,5.291727740E0
3.209689997E0,-3.019500077E-1,-2.083950043E0,5.419050217E0,5.813787650E0
3.211653677E0,-2.629500031E-1,-1.930950046E0,6.109050274E0,6.412347934E0
3.213617382E0,-3.400500119E-1,-1.738950133E0,6.454050541E0,6.692858131E0
3.215581432E0,-3.400500119E-1,-1.585950017E0,6.721950531E0,6.914874576E0
3.217545380E0,-2.629500031E-1,-1.471050024E0,6.721950531E0,6.886054735E0
3.219509210E0,-2.629500031E-1,-1.164000034E0,6.568950176E0,6.676462027E0
3.221473074E0,-3.299999982E-2,-1.164000034E0,6.376950264E0,6.482397685E0
3.223437979E0,3.870000243E-1,-1.203000069E0,6.070950508E0,6.201082023E0
3.225402592E0,6.940500140E-1,-1.279050112E0,5.533950329E0,5.722087106E0
3.227366353E0,9.240000248E-1,-1.279050112E0,5.227050304E0,5.460018326E0
3.229330363E0,1.000050068E0,-1.126049995E0,4.921050072E0,5.146340694E0
3.231294181E0,1.192050099E0,-1.203000069E0,4.806000233E0,5.095667850E0
3.233258055E0,1.345050097E0,-1.240950108E0,4.729050159E0,5.070801943E0
3.235222220E0,1.498950124E0,-1.164000034E0,4.653000355E0,5.025152720E0
3.237186293E0,1.537050128E0,-1.126049995E0,4.461000443E0,4.850879986E0
3.239150146E0,1.537050128E0,-8.959500194E-1,4.269000053E0,4.624890376E0
3.241114064E0,1.614000082E0,-8.190000653E-1,4.153950214E0,4.531121247E0
3.243078032E0,1.651950121E0,-8.190000653E-1,3.924000263E0,4.335605883E0
3.245041986E0,1.614000082E0,-6.660000086E-1,3.655950069E0,4.051484072E0
3.247006164E0,1.575000048E0,-5.509500504E-1,3.273000240E0,3.673785742E0
3.248970283E0,1.498950124E0,-3.979500234E-1,2.965950251E0,3.346950341E0
3.250934264E0,1.537050128E0,-2.830500007E-1,2.736000061E0,3.150926329E0
3.252898285E0,1.498950124E0,-1.290000081E-1,2.238000154E0,2.696690039E0
3.254861741E0,1.651950121E0,-1.500000060E-2,1.471050024E0,2.212047101E0
3.256825362E0,1.651950121E0,3.289500177E-1,1.087950110E0,2.005188958E0
3.258789251E0,1.804950118E0,7.890000343E-1,7.810500264E-1,2.119057603E0
3.260753058E0,1.804950118E0,1.134000063E0,5.509500504E-1,2.201669146E0
3.262717812E0,1.920000076E0,1.479000092E0,2.070000172E-1,2.432424834E0
3.264682288E0,1.920000076E0,1.900950074E0,-1.759500057E-1,2.707576385E0
3.266646073E0,1.959000111E0,2.322000027E0,-5.590500236E-1,3.088997003E0
3.268610060E0,1.996950150E0,2.706000090E0,-9.810000658E-1,3.503228156E0
3.270573858E0,2.111999989E0,3.088950157E0,-1.287000060E0,3.957085566E0
3.272537728E0,2.227050066E0,3.396000147E0,-1.594050050E0,4.362747363E0
3.274501525E0,2.149950027E0,3.664050102E0,-1.900950074E0,4.654155074E0
3.276465343E0,2.111999989E0,3.931950092E0,-2.245050192E0,4.996101064E0
3.278429193E0,1.882050037E0,4.085999966E0,-2.629050016E0,5.210509769E0
3.280393034E0,1.614000082E0,4.162050247E0,-3.088950157E0,5.428560730E0
3.282357068E0,1.306950092E0,4.201050282E0,-3.739950180E0,5.774441043E0
3.284321073E0,1.269000053E0,4.162050247E0,-4.237950325E0,6.073981096E0
3.286285073E0,9.240000248E-1,4.047000408E0,-4.736999989E0,6.298504365E0
3.288249075E0,7.699500322E-1,3.741000175E0,-5.350050449E0,6.573503265E0
3.290212128E0,5.410500169E-1,3.357000113E0,-5.887050152E0,6.798495743E0
3.292175459E0,3.870000243E-1,3.051000118E0,-6.232050419E0,6.949591582E0
3.294139968E0,4.260000288E-1,2.551950216E0,-6.232050419E0,6.747768398E0
3.296104139E0,5.410500169E-1,2.131050110E0,-5.809950352E0,6.212055439E0
3.298068066E0,8.089500666E-1,1.786050081E0,-4.774950027E0,5.161833286E0
3.300032065E0,9.240000248E-1,1.594050050E0,-3.204000235E0,3.695996362E0
3.301995028E0,1.077000022E0,1.555950046E0,-1.096050024E0,2.186832240E0
3.303958295E0,1.230000019E0,1.708950043E0,1.432950020E0,2.546911081E0
