"Time (s)","Acceleration x (m/s^2)","Acceleration y (m/s^2)","Acceleration z (m/s^2)","Absolute acceleration (m/s^2)"
3.268799800E-2,5.791050434E0,-2.199000120E0,-7.458000183E0,9.695031376E0
3.464938400E-2,5.638050079E0,-2.122950077E0,-6.805950165E0,9.089305990E0
3.661346000E-2,5.599950314E0,-2.083950043E0,-5.848050117E0,8.360740486E0
3.857587000E-2,5.560950279E0,-2.083950043E0,-4.852050304E0,7.668729226E0
4.053876800E-2,5.446050167E0,-1.969050050E0,-3.778950214E0,6.914989895E0
4.250168400E-2,5.293050289E0,-1.816050053E0,-2.782050133E0,6.249337733E0
4.446460200E-2,5.140050411E0,-1.663050056E0,-1.900950074E0,5.727081709E0
4.642730100E-2,4.948050022E0,-1.585950017E0,-1.363950014E0,5.372038358E0
4.839006500E-2,4.795050144E0,-1.432950020E0,-1.018950105E0,5.107260612E0
5.035265500E-2,4.603050232E0,-1.318050027E0,-7.120500207E-1,4.840696494E0
5.231529600E-2,4.411950111E0,-1.164000034E0,-2.520000041E-1,4.569869130E0
5.427737700E-2,4.219950199E0,-9.340500236E-1,5.295000225E-2,4.322410535E0
5.623964700E-2,3.913050175E0,-7.039500475E-1,3.600000143E-1,3.992130678E0
5.820178000E-2,3.300000191E0,-3.589500189E-1,6.660000086E-1,3.385616988E0
6.016395400E-2,2.457000017E0,-1.500000060E-2,9.730500579E-1,2.642707040E0
6.212682500E-2,1.767000079E0,2.910000086E-1,1.050000072E0,2.075926404E0
6.408949100E-2,1.192050099E0,6.739500165E-1,8.200500607E-1,1.596143529E0
6.605240800E-2,5.790000558E-1,9.040500522E-1,2.070000172E-1,1.093341927E0
6.801525500E-2,4.050000105E-3,1.018950105E0,-6.739500165E-1,1.221672764E0
6.997801200E-2,-5.320500135E-1,1.057950020E0,-1.516950130E0,1.924440999E0
7.194079600E-2,-7.999500632E-1,8.280000687E-1,-2.169000149E0,2.455619242E0
7.390414700E-2,-9.529500604E-1,3.679500222E-1,-2.667000055E0,2.855939483E0
7.586733200E-2,-1.030050039E0,-1.290000081E-1,-3.165000200E0,3.330896329E0
7.783039200E-2,-8.380500674E-1,-6.280500293E-1,-3.702000141E0,3.847282132E0
7.979348800E-2,-5.700000525E-1,-1.548000097E0,-4.353000164E0,4.655084832E0
8.175602100E-2,-1.099500060E-1,-2.351999998E0,-5.043000221E0,5.565594688E0
8.371871900E-2,4.639500082E-1,-3.234000206E0,-5.542050362E0,6.433376186E0
8.568222000E-2,1.000050068E0,-3.961950302E0,-5.809950352E0,7.103004535E0
8.764548600E-2,1.384050012E0,-4.537050247E0,-6.154950142E0,7.770703355E0
8.960828100E-2,1.575000048E0,-5.074050426E0,-6.883050442E0,8.694998348E0
9.157123200E-2,1.614000082E0,-5.533950329E0,-7.420050144E0,9.396102737E0
9.353397000E-2,1.422000051E0,-5.955000401E0,-7.189950466E0,9.443489907E0
9.549677100E-2,1.306950092E0,-6.223950386E0,-5.617950439E0,8.485696441E0
9.745921900E-2,1.306950092E0,-6.184950352E0,-3.088950157E0,7.035861175E0
9.942177100E-2,1.269000053E0,-6.184950352E0,-4.060500264E-1,6.326835592E0
1.013838650E-1,1.192050099E0,-5.955000401E0,2.161050081E0,6.446173335E0
1.033460870E-1,1.153950095E0,-5.764050484E0,4.153950214E0,7.197998415E0
1.053085440E-1,1.114950061E0,-5.686950207E0,5.419050217E0,7.934142773E0
1.072709320E-1,1.077000022E0,-5.572050095E0,5.956050396E0,8.226919692E0
1.092334060E-1,1.000050068E0,-5.419050217E0,6.262050152E0,8.341431382E0
1.111958550E-1,7.320000529E-1,-5.649000168E0,6.070950508E0,8.324870392E0
1.131574490E-1,1.189500093E-1,-6.568950176E0,6.223950386E0,9.050017344E0
1.151193040E-1,-1.528050065E0,-8.638050079E0,6.607050419E0,1.098198349E1
1.170818680E-1,-4.441050053E0,-1.135905075E1,7.105050564E0,1.411498151E1
1.190442250E-1,-8.044050217E0,-1.415700054E1,6.913950443E0,1.768983095E1
1.210070200E-1,-1.264305019E1,-1.741500092E1,6.991050243E0,2.262750005E1
1.229696870E-1,-1.701300049E1,-2.078805161E1,9.289950371E0,2.842337864E1
1.249320900E-1,-2.065395164E1,-2.519595146E1,1.082295036E1,3.433013171E1
1.268945880E-1,-2.398800087E1,-3.063795090E1,1.090005016E1,4.040939636E1
1.288572680E-1,-2.647905159E1,-3.715395355E1,1.270095062E1,4.735895464E1
1.308198940E-1,-2.820405197E1,-4.297995377E1,1.277805042E1,5.297191280E1
1.327824630E-1,-2.793600082E1,-4.876695251E1,1.285500050E1,5.765315982E1
1.347450490E-1,-2.609595108E1,-5.520600128E1,1.342995071E1,6.252251448E1
1.367076530E-1,-2.257005119E1,-6.114705276E1,1.461795044E1,6.679860588E1
1.386702630E-1,-1.793205070E1,-6.651300049E1,1.480905056E1,7.046166089E1
1.406331050E-1,-1.118700027E1,-7.076700592E1,1.354500103E1,7.291491723E1
1.425958790E-1,-3.865950108E0,-7.494495392E1,8.638950348E0,7.554020884E1
1.445600890E-1,5.485050201E0,-7.850895691E1,-9.834000587E0,7.931235502E1
1.465238790E-1,1.476000023E1,-7.850895691E1,-2.543400192E1,8.383556748E1
1.484865800E-1,2.116095161E1,-7.850895691E1,-3.340605164E1,8.790566804E1
1.504496210E-1,2.599005127E1,-7.850895691E1,-3.766005325E1,9.087034000E1
1.524128830E-1,2.867295074E1,-7.850895691E1,-3.263895035E1,8.972789700E1
1.543760800E-1,2.924805069E1,-7.831800079E1,-2.298105049E1,8.670228601E1
1.563387770E-1,2.702505112E1,-7.145700073E1,-1.339905071E1,7.756281907E1
1.583016210E-1,2.165895081E1,-6.072495270E1,-5.580000401E0,6.471295415E1
1.602642230E-1,1.399305058E1,-5.125905228E1,-2.053950071E0,5.317437932E1
1.622269100E-1,6.634950161E0,-4.382295227E1,-8.659500480E-1,4.433084230E1
1.641887470E-1,1.384050012E0,-3.826500320E1,-2.140500098E-1,3.829062394E1
1.661508330E-1,-1.987950087E0,-3.408795166E1,-9.900000691E-2,3.414601287E1
1.681135830E-1,-3.751050234E0,-3.113700104E1,-1.369500011E-1,3.136242922E1
1.700761380E-1,-4.518000126E0,-2.864505196E1,-2.205000073E-2,2.899916918E1
1.720389290E-1,-5.016000271E0,-2.634600067E1,-1.369500011E-1,2.681959667E1
1.740016620E-1,-5.476050377E0,-2.458200073E1,-5.970000029E-1,2.519163148E1
1.759640330E-1,-5.514000416E0,-2.339400101E1,-1.134000063E0,2.406178380E1
1.779265100E-1,-5.476050377E0,-2.255100060E1,-1.861950040E0,2.328092811E1
1.798895080E-1,-5.398950100E0,-2.190000153E1,-2.359950066E0,2.267880273E1
1.818523540E-1,-5.361000061E0,-2.143995094E1,-2.820000172E0,2.227923291E1
1.838151110E-1,-5.361000061E0,-2.105595016E1,-2.859000206E0,2.191500037E1
1.857778950E-1,-5.092950344E0,-2.105595016E1,-2.667000055E0,2.182668252E1
1.877405260E-1,-4.708950043E0,-2.132505035E1,-2.359950066E0,2.196591331E1
1.897032020E-1,-4.555950165E0,-2.155500031E1,-1.977000117E0,2.211974795E1
1.916657620E-1,-4.402950287E0,-2.167005157E1,-1.594050050E0,2.217020753E1
1.936283560E-1,-4.363950253E0,-2.182305145E1,-1.057050109E0,2.228019281E1
1.955909890E-1,-4.134000301E0,-2.190000153E1,-4.060500264E-1,2.229046662E1
1.975536000E-1,-3.943050146E0,-2.193795013E1,9.195000678E-2,2.228967822E1
1.995158570E-1,-3.751050234E0,-2.216805077E1,7.810500264E-1,2.249673069E1
2.014782170E-1,-3.100050211E0,-2.304900169E1,1.395000100E0,2.329834362E1
2.034408750E-1,-3.175950050E0,-2.281905174E1,1.663050056E0,2.309895055E1
2.054034460E-1,-3.406050205E0,-2.262795067E1,1.969950080E0,2.296749949E1
2.073659400E-1,-3.636000156E0,-2.262795067E1,2.161050081E0,2.301987806E1
2.093284530E-1,-3.559950113E0,-2.270400047E1,2.353049994E0,2.310155247E1
2.112914000E-1,-3.445050240E0,-2.274300194E1,2.467950106E0,2.313446101E1
2.132542200E-1,-3.520950079E0,-2.270400047E1,2.583000183E0,2.312013445E1
2.152170270E-1,-3.520950079E0,-2.258895111E1,2.583000183E0,2.300716609E1
2.171798380E-1,-3.598050117E0,-2.243595123E1,2.698050022E0,2.288224959E1
2.191426090E-1,-3.675000191E0,-2.224500084E1,2.736000061E0,2.271192165E1
2.211053850E-1,-3.712950230E0,-2.197605133E1,2.773950100E0,2.245946639E1
2.230681080E-1,-3.790050268E0,-2.174595070E1,2.889000177E0,2.226201192E1
2.250308470E-1,-3.865950108E0,-2.151600075E1,2.965950251E0,2.206084131E1
2.269936200E-1,-3.981000185E0,-2.124795151E1,2.965950251E0,2.182018943E1
2.289563830E-1,-4.134000301E0,-2.101800156E1,3.081000090E0,2.164113928E1
2.309189600E-1,-4.096050262E0,-2.063505173E1,3.196050167E0,2.127904425E1
2.328816020E-1,-3.712950230E0,-2.040495110E1,3.388050079E0,2.101492117E1
2.348442130E-1,-3.559950113E0,-2.021295166E1,3.733050108E0,2.086078433E1
2.368068330E-1,-3.406050205E0,-1.994505119E1,3.924000263E0,2.061077444E1
2.387693120E-1,-3.175950050E0,-1.971495056E1,4.153950214E0,2.039659866E1
2.407318330E-1,-2.946000099E0,-1.948500061E1,4.269000053E0,2.016354450E1
2.426944380E-1,-2.601000071E0,-1.933200073E1,4.231050014E0,1.995979053E1
2.446570040E-1,-2.140950203E0,-1.921695137E1,4.192950249E0,1.978523994E1
2.466196280E-1,-1.720050097E0,-1.891005135E1,4.231050014E0,1.945380165E1
2.485822350E-1,-1.222050071E0,-1.860300064E1,4.231050014E0,1.911718660E1
2.505447180E-1,-7.230000496E-1,-1.825800133E1,4.269000053E0,1.876437324E1
2.525072370E-1,-3.400500119E-1,-1.779900169E1,4.116000175E0,1.827187874E1
2.544698270E-1,4.050000105E-3,-1.741500092E1,4.039050102E0,1.787725368E1
2.564323930E-1,4.260000288E-1,-1.703205109E1,4.039050102E0,1.750960211E1
2.583952430E-1,8.850000501E-1,-1.653404999E1,3.847950220E0,1.699896335E1
2.603580090E-1,1.269000053E0,-1.599705029E1,3.733050108E0,1.647578957E1
2.623206000E-1,1.345050097E0,-1.542195034E1,3.541050196E0,1.588032583E1
2.642832420E-1,1.575000048E0,-1.480905056E1,3.273000240E0,1.524798787E1
2.662458120E-1,1.690050125E0,-1.411905098E1,3.004050255E0,1.453369148E1
2.682084000E-1,1.882050037E0,-1.346700096E1,2.698050022E0,1.386296149E1
2.701710640E-1,2.035050154E0,-1.285395050E1,2.314950228E0,1.321833829E1
2.721337060E-1,2.227050066E0,-1.220295048E1,1.816050053E0,1.253673762E1
2.740962730E-1,2.188950062E0,-1.143600082E1,1.356000066E0,1.172230154E1
2.760588620E-1,2.188950062E0,-1.066995049E1,8.959500194E-1,1.092895568E1
2.780222560E-1,2.227050066E0,-9.826050758E0,3.600000143E-1,1.008169755E1
2.799854070E-1,2.074050188E0,-8.983050346E0,-9.900000691E-2,9.219906654E0
2.819480670E-1,2.035050154E0,-8.178000450E0,-4.819500148E-1,8.441172686E0
2.839108710E-1,2.035050154E0,-7.411950588E0,-9.420000315E-1,7.743759081E0
2.858736340E-1,1.882050037E0,-6.568950176E0,-1.210950017E0,6.939713157E0
2.878364090E-1,1.843950033E0,-5.802000046E0,-1.479000092E0,6.265045692E0
2.897988220E-1,1.690050125E0,-5.035050392E0,-1.632000089E0,5.556206095E0
2.917613380E-1,1.537050128E0,-4.306950092E0,-1.824000120E0,4.923344253E0
2.937239690E-1,1.384050012E0,-3.502050161E0,-1.900950074E0,4.218241453E0
2.956865660E-1,1.345050097E0,-2.926950216E0,-1.939050078E0,3.759802194E0
2.976494100E-1,1.306950092E0,-2.351999998E0,-1.900950074E0,3.294485350E0
2.996121820E-1,1.192050099E0,-1.854000092E0,-1.786050081E0,2.836948126E0
3.015751450E-1,1.269000053E0,-1.393950105E0,-1.516950130E0,2.419627188E0
3.035380420E-1,1.306950092E0,-1.011000037E0,-1.363950014E0,2.142568379E0
3.055009700E-1,1.269000053E0,-6.280500293E-1,-1.096050024E0,1.790567963E0
3.074638880E-1,1.192050099E0,-3.589500189E-1,-9.810000658E-1,1.584988859E0
3.094269470E-1,1.192050099E0,-1.680000126E-1,-8.269500136E-1,1.460497781E0
3.113899650E-1,1.269000053E0,-1.290000081E-1,-6.360000372E-1,1.425306348E0
3.133518760E-1,1.306950092E0,2.295000106E-2,-5.590500236E-1,1.421682867E0
3.153140830E-1,1.345050097E0,2.140500098E-1,-4.819500148E-1,1.444732842E0
3.172770830E-1,1.384050012E0,3.679500222E-1,-3.670500219E-1,1.478413803E0
3.192398500E-1,1.575000048E0,4.830000103E-1,-3.670500219E-1,1.687791420E0
3.212028450E-1,1.729050040E0,6.739500165E-1,-3.289500177E-1,1.884683204E0
3.231657730E-1,1.920000076E0,7.890000343E-1,-3.289500177E-1,2.101696805E0
3.251288310E-1,2.035050154E0,9.430500269E-1,-5.590500236E-1,2.311559952E0
3.270918500E-1,2.035050154E0,1.057950020E0,-7.890000343E-1,2.425532607E0
3.290549820E-1,2.035050154E0,1.173000097E0,-1.096050024E0,2.592042440E0
3.310180810E-1,1.959000111E0,1.326000094E0,-1.402050018E0,2.749854894E0
3.329809300E-1,1.843950033E0,1.363950014E0,-1.747050047E0,2.883174506E0
3.349438520E-1,1.804950118E0,1.555950046E0,-2.130000114E0,3.196204931E0
3.369068520E-1,1.843950033E0,1.671000123E0,-2.514000177E0,3.537313957E0
3.388698060E-1,1.729050040E0,1.863000035E0,-2.859000206E0,3.825475833E0
3.408329040E-1,1.651950121E0,1.900950074E0,-3.280050039E0,4.135369227E0
3.427959600E-1,1.651950121E0,2.053950071E0,-3.739950180E0,4.575464725E0
3.447588610E-1,1.651950121E0,2.245950222E0,-4.084949970E0,4.945710046E0
3.467218080E-1,1.575000048E0,2.437050104E0,-4.468050003E0,5.327598820E0
3.486843210E-1,1.537050128E0,2.590950012E0,-4.890000343E0,5.743487479E0
3.506469620E-1,1.575000048E0,2.706000090E0,-5.082000256E0,5.969069294E0
3.526093930E-1,1.651950121E0,2.743950129E0,-5.235000134E0,6.137053683E0
3.545718850E-1,1.729050040E0,2.859000206E0,-5.350050449E0,6.307656937E0
3.565349260E-1,1.843950033E0,2.935950041E0,-5.503050327E0,6.504115410E0
3.584978060E-1,2.074050188E0,2.935950041E0,-5.427000046E0,6.509517365E0
3.604605420E-1,2.265000105E0,2.974050045E0,-5.311950207E0,6.495538018E0
3.624232990E-1,2.494950056E0,2.896950245E0,-5.043000221E0,6.328423795E0
3.643858900E-1,2.725050211E0,2.821050167E0,-4.736999989E0,6.150072486E0
3.663485300E-1,3.070050240E0,2.706000090E0,-4.315050125E0,5.947041495E0
3.683109610E-1,3.262050152E0,2.514000177E0,-3.817050219E0,5.615250703E0
3.702734530E-1,3.492000103E0,2.398950100E0,-3.241950035E0,5.334722704E0
3.722360990E-1,3.721950293E0,2.284050226E0,-2.629050016E0,5.097225069E0
3.741986920E-1,3.874950171E0,2.131050110E0,-1.939050078E0,4.828719147E0
3.761611770E-1,4.182000160E0,1.978050113E0,-1.249050021E0,4.791861177E0
3.781236940E-1,4.411950111E0,1.786050081E0,-6.739500165E-1,4.807232811E0
3.800856050E-1,4.527000427E0,1.633050084E0,-2.205000073E-2,4.812595105E0
3.820476940E-1,4.756950378E0,1.518000126E0,6.280500293E-1,5.032628351E0
3.840103830E-1,4.909950256E0,1.363950014E0,1.318050027E0,5.263575499E0
3.859729070E-1,5.062950134E0,1.249050021E0,1.663050056E0,5.473511259E0
3.879355380E-1,5.140050411E0,1.096050024E0,2.122950077E0,5.668188504E0
3.898981380E-1,5.101050377E0,1.018950105E0,2.583000183E0,5.807827839E0
3.918603960E-1,5.140050411E0,9.040500522E-1,2.965950251E0,6.002856455E0
3.938227550E-1,5.062950134E0,7.890000343E-1,3.234000206E0,6.059269135E0
3.957851830E-1,4.987050056E0,6.739500165E-1,3.310950041E0,6.023891356E0
3.977475950E-1,4.680000305E0,5.590500236E-1,3.349050045E0,5.781961258E0
3.997102450E-1,4.143000126E0,4.060500264E-1,3.234000206E0,5.271440410E0
4.016728250E-1,3.645000219E0,4.060500264E-1,3.043050051E0,4.765611906E0
4.036354470E-1,3.300000191E0,2.530499995E-1,3.043050051E0,4.496019258E0
4.055980560E-1,3.031950235E0,2.910000086E-1,3.118950129E0,4.359501478E0
4.075605290E-1,2.839950085E0,2.140500098E-1,3.043050051E0,4.167887655E0
4.095230490E-1,2.802000046E0,2.140500098E-1,2.928000212E0,4.058350269E0
4.114854550E-1,2.649000168E0,1.759500057E-1,2.889000177E0,3.923580293E0
4.134478950E-1,2.457000017E0,1.380000114E-1,2.889000177E0,3.795025048E0
4.154107650E-1,2.304000139E0,9.900000691E-2,2.851050138E0,3.666974848E0
4.173735090E-1,2.149950027E0,1.380000114E-1,2.773950100E0,3.512282489E0
4.193362570E-1,1.959000111E0,6.105000153E-2,2.698050022E0,3.334798713E0
4.212989910E-1,1.804950118E0,6.105000153E-2,2.583000183E0,3.151739516E0
4.232614510E-1,1.614000082E0,9.900000691E-2,2.430000067E0,2.918852102E0
4.252239910E-1,1.384050012E0,1.759500057E-1,2.238000154E0,2.637270849E0
4.271867540E-1,1.306950092E0,2.140500098E-1,2.085000038E0,2.470052856E0
4.291494510E-1,1.230000019E0,2.530499995E-1,1.855050087E0,2.240121687E0
4.311122780E-1,1.077000022E0,2.530499995E-1,1.701000094E0,2.029129042E0
4.330750660E-1,9.619500637E-1,2.910000086E-1,1.510050058E0,1.813912928E0
4.350376530E-1,8.089500666E-1,3.289500177E-1,1.432950020E0,1.678080476E0
4.370002990E-1,7.699500322E-1,3.679500222E-1,1.356000066E0,1.602169295E0
4.389621430E-1,6.940500140E-1,3.289500177E-1,1.165050030E0,1.395440829E0
4.409242220E-1,5.790000558E-1,3.289500177E-1,1.050000072E0,1.243362107E0
4.428874640E-1,5.410500169E-1,4.060500264E-1,7.810500264E-1,1.033271933E0
4.448503690E-1,6.169500351E-1,4.060500264E-1,6.280500293E-1,9.695106028E-1
4.468129810E-1,5.410500169E-1,3.679500222E-1,4.750500321E-1,8.085758299E-1
4.487756790E-1,5.020500422E-1,4.060500264E-1,2.830500007E-1,7.050164336E-1
4.507384140E-1,5.020500422E-1,4.060500264E-1,2.070000172E-1,6.780707012E-1
4.527011380E-1,5.020500422E-1,3.679500222E-1,1.500000060E-2,6.226286724E-1
4.546640850E-1,5.410500169E-1,4.060500264E-1,-1.369500011E-1,6.901934856E-1
4.566269740E-1,5.020500422E-1,4.060500264E-1,-2.520000041E-1,6.931340930E-1
4.585897690E-1,4.639500082E-1,3.679500222E-1,-3.670500219E-1,6.966796592E-1
4.605525920E-1,5.790000558E-1,3.679500222E-1,-4.819500148E-1,8.383937621E-1
4.625153520E-1,5.790000558E-1,3.289500177E-1,-5.590500236E-1,8.694746158E-1
4.644781300E-1,6.550500393E-1,3.289500177E-1,-6.360000372E-1,9.704610839E-1
4.664406880E-1,7.320000529E-1,2.910000086E-1,-7.890000343E-1,1.114910820E0
4.684033000E-1,8.089500666E-1,2.140500098E-1,-8.269500136E-1,1.176462469E0
4.703657810E-1,8.470500112E-1,1.759500057E-1,-8.269500136E-1,1.196786719E0
4.723283000E-1,8.470500112E-1,1.759500057E-1,-8.659500480E-1,1.224059480E0
4.742912910E-1,9.619500637E-1,1.380000114E-1,-9.040500522E-1,1.327289880E0
4.762541440E-1,9.619500637E-1,1.380000114E-1,-8.659500480E-1,1.301637973E0
4.782166650E-1,1.039050102E0,9.900000691E-2,-8.269500136E-1,1.331642760E0
4.801792900E-1,1.039050102E0,2.295000106E-2,-8.269500136E-1,1.328155918E0
4.821420830E-1,1.077000022E0,2.295000106E-2,-8.269500136E-1,1.358050837E0
4.841048270E-1,1.039050102E0,-1.500000060E-2,-7.120500207E-1,1.259708437E0
4.860683210E-1,1.077000022E0,-9.105000645E-2,-7.120500207E-1,1.294308457E0
4.880315960E-1,1.153950095E0,-9.105000645E-2,-6.739500165E-1,1.339440014E0
4.899941400E-1,1.114950061E0,-1.290000081E-1,-5.970000029E-1,1.271284250E0
4.919569010E-1,1.114950061E0,-1.680000126E-1,-5.590500236E-1,1.258520787E0
4.939196700E-1,1.114950061E0,-1.680000126E-1,-5.590500236E-1,1.258520787E0
4.958824370E-1,1.153950095E0,-2.059500068E-1,-5.209500194E-1,1.282733468E0
4.978453870E-1,1.153950095E0,-2.830500007E-1,-4.060500264E-1,1.255625242E0
4.998082830E-1,1.114950061E0,-2.830500007E-1,-3.670500219E-1,1.207458761E0
5.017708220E-1,1.153950095E0,-3.589500189E-1,-3.289500177E-1,1.252459202E0
5.037334870E-1,1.192050099E0,-3.979500234E-1,-2.520000041E-1,1.281737751E0
5.056962730E-1,1.230000019E0,-4.740000367E-1,-1.759500057E-1,1.329862582E0
5.076590230E-1,1.269000053E0,-4.740000367E-1,-2.140500098E-1,1.371442517E0
5.096214370E-1,1.230000019E0,-5.890500546E-1,-9.900000691E-2,1.367362796E0
5.115839490E-1,1.192050099E0,-5.890500546E-1,-6.105000153E-2,1.331048650E0
5.135464170E-1,1.192050099E0,-6.280500293E-1,-2.205000073E-2,1.347559454E0
5.155088870E-1,1.153950095E0,-6.660000086E-1,1.500000060E-2,1.332434551E0
5.174715260E-1,1.153950095E0,-6.280500293E-1,1.300500035E-1,1.320212356E0
5.194341150E-1,1.114950061E0,-7.039500475E-1,1.680000126E-1,1.329241630E0
5.213969160E-1,1.039050102E0,-6.660000086E-1,1.300500035E-1,1.241005290E0
5.233596540E-1,1.039050102E0,-7.039500475E-1,9.195000678E-2,1.258421864E0
5.253222260E-1,1.039050102E0,-7.039500475E-1,9.195000678E-2,1.258421864E0
5.272848630E-1,1.000050068E0,-7.039500475E-1,1.680000126E-1,1.234451219E0
5.292468880E-1,1.000050068E0,-7.039500475E-1,2.070000172E-1,1.240360760E0
5.312090930E-1,9.619500637E-1,-7.039500475E-1,2.830500007E-1,1.225157499E0
5.331715980E-1,9.240000248E-1,-7.039500475E-1,2.830500007E-1,1.195591493E0
5.351340150E-1,1.000050068E0,-7.429500222E-1,3.220500052E-1,1.286775458E0
5.370972190E-1,9.619500637E-1,-7.039500475E-1,3.220500052E-1,1.234750906E0
5.390601820E-1,9.619500637E-1,-7.810500264E-1,3.220500052E-1,1.280274687E0
5.410218380E-1,1.000050068E0,-8.190000653E-1,2.830500007E-1,1.323245460E0
5.429838770E-1,9.240000248E-1,-8.190000653E-1,3.979500234E-1,1.297266886E0
5.449465900E-1,9.240000248E-1,-8.190000653E-1,4.360500276E-1,1.309456673E0
5.469091050E-1,8.850000501E-1,-8.190000653E-1,5.509500504E-1,1.325719485E0
5.488717980E-1,8.089500666E-1,-8.580000401E-1,7.050000429E-1,1.373895680E0
5.508344280E-1,6.940500140E-1,-8.580000401E-1,8.200500607E-1,1.374900576E0
5.527968620E-1,6.550500393E-1,-9.340500236E-1,1.011000037E0,1.524355954E0
5.547593530E-1,5.790000558E-1,-8.959500194E-1,1.087950110E0,1.523680723E0
5.567212240E-1,4.639500082E-1,-8.580000401E-1,1.356000066E0,1.670374167E0
5.586832760E-1,3.109500110E-1,-7.810500264E-1,1.471050024E0,1.694319104E0
5.606464990E-1,2.340000123E-1,-7.039500475E-1,1.624950051E0,1.786271072E0
5.626093990E-1,1.570500135E-1,-6.280500293E-1,1.969950080E0,2.073599494E0
5.645720120E-1,4.050000105E-3,-5.509500504E-1,2.238000154E0,2.304822564E0
5.665347090E-1,-1.099500060E-1,-3.979500234E-1,2.583000183E0,2.615787295E0
5.684976250E-1,-1.870500147E-1,-3.210000098E-1,2.812950134E0,2.837378574E0
5.704604760E-1,-2.629500031E-1,-2.059500068E-1,2.965950251E0,2.984697472E0
5.724234150E-1,-3.019500077E-1,-1.680000126E-1,3.043050051E0,3.062605333E0
5.743863260E-1,-3.400500119E-1,-1.290000081E-1,3.043050051E0,3.064706939E0
5.763482160E-1,-4.170000255E-1,-5.295000225E-2,3.004050255E0,3.033316775E0
5.783104050E-1,-4.930500090E-1,2.295000106E-2,2.928000212E0,2.969311411E0
5.802736330E-1,-4.930500090E-1,6.105000153E-2,2.812950134E0,2.856486281E0
5.822365570E-1,-6.469500065E-1,1.380000114E-1,2.583000183E0,2.666360490E0
5.841999370E-1,-7.620000243E-1,1.759500057E-1,2.238000154E0,2.370706041E0
5.861632110E-1,-7.999500632E-1,1.380000114E-1,2.046000004E0,2.201154270E0
5.881261200E-1,-8.770500422E-1,1.380000114E-1,1.701000094E0,1.918765775E0
5.900891360E-1,-9.919500351E-1,6.105000153E-2,1.471050024E0,1.775297200E0
5.920529430E-1,-1.068000078E0,-5.295000225E-2,1.279950023E0,1.667842897E0
5.940165190E-1,-1.183050036E0,-9.105000645E-2,9.349500537E-1,1.510638638E0
5.959802460E-1,-1.222050071E0,-1.680000126E-1,5.130000114E-1,1.335963844E0
5.979439180E-1,-1.144950032E0,-2.830500007E-1,1.300500035E-1,1.186566847E0
5.999070290E-1,-1.183050036E0,-5.509500504E-1,-3.289500177E-1,1.345868293E0
6.018703040E-1,-1.106999993E0,-9.340500236E-1,-7.120500207E-1,1.613974493E0
6.038331670E-1,-1.030050039E0,-1.279050112E0,-1.134000063E0,1.995727540E0
6.057961510E-1,-1.106999993E0,-1.548000097E0,-1.786050081E0,2.609928769E0
6.077591090E-1,-1.106999993E0,-2.046000004E0,-2.935050249E0,3.745141515E0
6.097220740E-1,-9.529500604E-1,-2.697000027E0,-4.621950150E0,5.435471106E0
6.116849900E-1,-9.919500351E-1,-3.426000118E0,-6.844950199E0,7.718470374E0
6.136479200E-1,-1.030050039E0,-4.116000175E0,-8.875950813E0,9.837934914E0
6.156106160E-1,-1.222050071E0,-4.690050125E0,-1.048605061E1,1.155193637E1
6.175733810E-1,-1.452000022E0,-4.959000111E0,-1.121400070E1,1.234721823E1
6.195365060E-1,-1.605000019E0,-5.149950027E0,-1.098405075E1,1.223713125E1
6.214995290E-1,-1.681950092E0,-5.265000343E0,-1.014105034E1,1.154946262E1
6.234626150E-1,-1.720050097E0,-5.304000378E0,-9.028950691E0,1.061192456E1
6.254256830E-1,-1.681950092E0,-5.227050304E0,-8.340000153E0,9.985319902E0
6.273885820E-1,-1.873050094E0,-5.304000378E0,-7.611000538E0,9.464040672E0
6.293515310E-1,-2.677950144E0,-5.878950119E0,-6.768000126E0,9.356243754E0
6.313142810E-1,-4.363950253E0,-7.717950344E0,-5.733000278E0,1.055831954E1
6.332771130E-1,-6.166050434E0,-1.105305099E1,-4.392000198E0,1.339700638E1
6.352396910E-1,-8.005949974E0,-1.438695049E1,-3.394950151E0,1.681086750E1
6.372023430E-1,-1.034400082E1,-1.653404999E1,-1.708950043E0,1.957788733E1
6.391640510E-1,-1.348605061E1,-1.910205078E1,2.070000172E-1,2.338385670E1
6.411260360E-1,-1.601595116E1,-2.358600044E1,1.432950020E0,2.854581325E1
6.430889520E-1,-1.831605148E1,-2.983305168E1,7.810500264E-1,3.501569296E1
6.450515860E-1,-2.026995087E1,-3.592695236E1,1.663050056E0,4.128416827E1
6.470145140E-1,-2.207205200E1,-4.198305130E1,3.349050045E0,4.754963945E1
6.489773550E-1,-2.326005173E1,-4.757895279E1,4.614000320E0,5.316084794E1
6.509401130E-1,-2.318295097E1,-5.286795425E1,5.878950119E0,5.802613082E1
6.529028960E-1,-2.188005066E1,-5.723805237E1,7.411950588E0,6.172413035E1
6.548653270E-1,-1.931205177E1,-6.061005402E1,9.098999977E0,6.425983031E1
6.568278760E-1,-1.593900108E1,-6.348495483E1,1.055505085E1,6.630083215E1
6.587906820E-1,-1.145505047E1,-6.589995575E1,1.101495075E1,6.778902189E1
6.607534120E-1,-5.974050522E0,-6.793095398E1,1.047795010E1,6.899341437E1
6.627170890E-1,-4.930500090E-1,-6.946395111E1,9.022050858E0,7.004913278E1
6.646804890E-1,4.642050266E0,-7.115100098E1,7.374000549E0,7.168256032E1
6.666433550E-1,9.700950623E0,-7.268400574E1,4.921050072E0,7.349346819E1
6.686063610E-1,1.514295101E1,-7.410195160E1,3.979500234E-1,7.563442708E1
6.705697650E-1,2.292405128E1,-7.548195648E1,-1.113705063E1,7.966851184E1
6.725330520E-1,3.066600227E1,-7.521300507E1,-2.466705132E1,8.488735623E1
6.744954180E-1,3.426900101E1,-7.222395325E1,-2.639205170E1,8.418553466E1
6.764580540E-1,3.426900101E1,-6.716400146E1,-2.259705162E1,7.871463819E1
6.784208350E-1,3.104895210E1,-5.980605316E1,-1.788300133E1,6.971802606E1
6.803835800E-1,2.648805046E1,-5.236995316E1,-1.221105099E1,5.994446244E1
6.823464890E-1,2.242605019E1,-4.631400299E1,-6.730050087E0,5.189612870E1
6.843093490E-1,1.863105011E1,-4.163805008E1,-3.319050074E0,4.573684878E1
6.862712030E-1,1.472205067E1,-3.749895096E1,-6.360000372E-1,4.029037844E1
6.882333510E-1,1.096605015E1,-3.431805038E1,5.899500251E-1,3.603235878E1
6.901961060E-1,7.132950306E0,-3.163500214E1,1.471050024E0,3.246253731E1
6.921586720E-1,4.297049999E0,-2.941200066E1,1.777950048E0,2.977736603E1
6.941205760E-1,1.996950150E0,-2.776395226E1,1.893000126E0,2.789996961E1
6.960826740E-1,2.719500065E-1,-2.665200043E1,1.740000129E0,2.671012325E1
6.980455130E-1,-1.030050039E0,-2.550195122E1,1.777950048E0,2.558459742E1
7.000081340E-1,-1.950000048E0,-2.419905090E1,2.008050203E0,2.436039471E1
7.019709640E-1,-2.640000105E0,-2.293395042E1,2.314950228E0,2.320117836E1
7.039337390E-1,-3.138000250E0,-2.167005157E1,2.467950106E0,2.203472166E1
7.058966420E-1,-3.598050117E0,-2.071095085E1,1.969950080E0,2.111326960E1
7.078595080E-1,-3.865950108E0,-2.017500114E1,1.432950020E0,2.059197871E1
7.098221270E-1,-3.675000191E0,-1.983000183E1,1.203000069E0,2.020350980E1
7.117848180E-1,-3.367950201E0,-1.971495056E1,8.580000401E-1,2.001895423E1
7.137476100E-1,-3.138000250E0,-1.963800049E1,7.429500222E-1,1.990100710E1
7.157103650E-1,-2.908050060E0,-1.986795044E1,1.050000072E0,2.010708109E1
7.176731360E-1,-2.485950232E0,-2.013600159E1,1.548000097E0,2.034784541E1
7.196359030E-1,-2.026050091E0,-2.059605026E1,2.122950077E0,2.080406408E1
7.215986290E-1,-1.795950055E0,-2.094105148E1,2.851050138E0,2.121041161E1
7.235613670E-1,-1.987950087E0,-2.094105148E1,3.388050079E0,2.130630109E1
7.255241400E-1,-2.179949999E0,-2.101800156E1,3.733050108E0,2.145796436E1
7.274869030E-1,-2.448000193E0,-2.105595016E1,4.153950214E0,2.160095009E1
7.294497180E-1,-2.677950144E0,-2.098005104E1,4.690950394E0,2.166423260E1
7.314125180E-1,-2.946000099E0,-2.074995041E1,5.227050304E0,2.160003272E1
7.333749230E-1,-3.175950050E0,-2.059605026E1,5.572050095E0,2.157154810E1
7.353374440E-1,-3.445050240E0,-2.029005051E1,5.841000080E0,2.139326536E1
7.372999760E-1,-3.675000191E0,-2.005995178E1,6.070950508E0,2.127824551E1
7.392625420E-1,-3.865950108E0,-1.994505119E1,5.956050396E0,2.117132905E1
7.412250320E-1,-3.981000185E0,-1.979205132E1,5.649000168E0,2.096389421E1
7.431875440E-1,-4.096050262E0,-1.952295113E1,5.341950417E0,2.065090029E1
7.451501760E-1,-4.018949986E0,-1.936995125E1,4.959000111E0,2.039457409E1
7.471127730E-1,-3.943050146E0,-1.917795181E1,4.729050159E0,2.014212987E1
7.490752450E-1,-3.751050234E0,-1.914000130E1,4.537950039E0,2.002505975E1
7.510377310E-1,-3.675000191E0,-1.898700142E1,4.384050369E0,1.983007178E1
7.530003680E-1,-3.636000156E0,-1.883295059E1,4.345950127E0,1.966692166E1
7.549629600E-1,-3.751050234E0,-1.852695084E1,4.345950127E0,1.939601938E1
7.569255800E-1,-4.288050175E0,-1.825800133E1,4.153950214E0,1.920930215E1
7.588881910E-1,-4.479000092E0,-1.802805138E1,4.078050137E0,1.901847973E1
7.608509920E-1,-4.402950287E0,-1.768395042E1,3.771000147E0,1.860990371E1
7.628137340E-1,-4.326000214E0,-1.745400047E1,3.426000118E0,1.830556984E1
7.647766440E-1,-4.288050175E0,-1.718505096E1,3.118950129E0,1.798447110E1
7.667395040E-1,-4.249050140E0,-1.687905121E1,3.081000090E0,1.767623711E1
7.687021230E-1,-4.173000336E0,-1.645695114E1,2.851050138E0,1.721550637E1
7.706648130E-1,-3.904950142E0,-1.607400131E1,2.698050022E0,1.676012016E1
7.726273950E-1,-3.675000191E0,-1.569000053E1,2.506050110E0,1.630834235E1
7.745899910E-1,-3.406050205E0,-1.515405083E1,2.430000067E0,1.572104751E1
7.765524740E-1,-3.138000250E0,-1.457895088E1,2.161050081E0,1.506860949E1
7.785149910E-1,-2.755050182E0,-1.404195023E1,2.008050203E0,1.444987658E1
7.804774430E-1,-2.485950232E0,-1.339095020E1,1.740000129E0,1.373044414E1
7.824399140E-1,-1.987950087E0,-1.285395050E1,1.548000097E0,1.309856073E1
7.844028990E-1,-1.605000019E0,-1.231800079E1,1.432950020E0,1.250449976E1
7.863657440E-1,-1.144950032E0,-1.178100014E1,1.279950023E0,1.190550910E1
7.883283210E-1,-7.999500632E-1,-1.120605087E1,1.011000037E0,1.127996531E1
7.902909770E-1,-4.549500346E-1,-1.063095093E1,7.810500264E-1,1.066930815E1
7.922537650E-1,-1.480500102E-1,-1.009500027E1,5.130000114E-1,1.010911065E1
7.942165140E-1,4.200000316E-2,-9.595950127E0,3.600000143E-1,9.602792450E0
7.961810890E-1,3.109500110E-1,-9.097949982E0,1.300500035E-1,9.104191166E0
7.981451290E-1,6.940500140E-1,-8.677050591E0,-1.369500011E-1,8.705841009E0
8.001078610E-1,9.240000248E-1,-8.140049934E0,-2.910000086E-1,8.197491689E0
8.020709770E-1,1.269000053E0,-7.642050266E0,-5.209500194E-1,7.764192317E0
8.040335070E-1,1.422000051E0,-7.182000160E0,-7.510500550E-1,7.359842840E0
8.059962080E-1,1.651950121E0,-6.721950531E0,-9.420000315E-1,6.985765685E0
8.079589560E-1,1.882050037E0,-6.184950352E0,-1.096050024E0,6.557213497E0
8.099216810E-1,2.149950027E0,-5.802000046E0,-1.171950102E0,6.297535764E0
8.118842790E-1,2.380050182E0,-5.341950417E0,-1.287000060E0,5.988108406E0
8.138469140E-1,2.572050095E0,-4.882050037E0,-1.402050018E0,5.693469813E0
8.158095700E-1,2.802000046E0,-4.461000443E0,-1.479000092E0,5.471669807E0
8.177722200E-1,2.992950201E0,-4.077000141E0,-1.479000092E0,5.269451805E0
8.197350430E-1,3.108000040E0,-3.616950274E0,-1.441050053E0,4.981828859E0
8.216977910E-1,3.108000040E0,-3.271950245E0,-1.441050053E0,4.737293310E0
8.236605200E-1,3.262050152E0,-2.889000177E0,-1.363950014E0,4.565923002E0
8.256232550E-1,3.300000191E0,-2.659050226E0,-1.363950014E0,4.452067947E0
8.275857150E-1,3.300000191E0,-2.391000032E0,-1.287000060E0,4.273552570E0
8.295482550E-1,3.337950230E0,-2.122950077E0,-1.287000060E0,4.159951673E0
8.315111890E-1,3.300000191E0,-1.969050050E0,-1.210950017E0,4.029089140E0
8.334740130E-1,3.376950264E0,-1.854000092E0,-1.171950102E0,4.026732728E0
8.354364130E-1,3.453000069E0,-1.777950048E0,-1.171950102E0,4.056819307E0
8.373989380E-1,3.453000069E0,-1.509000063E0,-1.096050024E0,3.924489307E0
8.393616130E-1,3.376950264E0,-1.393950105E0,-1.057050109E0,3.803188782E0
8.413242440E-1,3.337950230E0,-1.203000069E0,-1.057050109E0,3.702225795E0
8.432866680E-1,3.223050117E0,-1.011000037E0,-1.018950105E0,3.528233616E0
8.452491590E-1,3.070050240E0,-7.810500264E-1,-9.810000658E-1,3.316264276E0
8.472119300E-1,2.917050123E0,-5.509500504E-1,-1.018950105E0,3.138628155E0
8.491746190E-1,2.802000046E0,-3.210000098E-1,-1.018950105E0,2.998750503E0
8.511372220E-1,2.686950207E0,-1.680000126E-1,-1.018950105E0,2.878573385E0
8.530998510E-1,2.610000134E0,-1.290000081E-1,-1.096050024E0,2.833737347E0
8.550614090E-1,2.533950090E0,-1.500000060E-2,-1.134000063E0,2.776163576E0
8.570232940E-1,2.494950056E0,1.380000114E-1,-1.287000060E0,2.810727475E0
8.589865290E-1,2.457000017E0,2.910000086E-1,-1.516950130E0,2.902183279E0
8.609493690E-1,2.419050217E0,4.440000355E-1,-1.861950040E0,3.084768700E0
8.629119920E-1,2.419050217E0,5.590500236E-1,-2.284050226E0,3.373607315E0
8.648746790E-1,2.380050182E0,7.510500550E-1,-2.551950216E0,3.569476847E0
8.668374370E-1,2.304000139E0,9.430500269E-1,-3.088950157E0,3.967287873E0
8.688001910E-1,2.265000105E0,1.096050024E0,-3.702000141E0,4.476198853E0
8.707631430E-1,2.304000139E0,1.249050021E0,-4.392000198E0,5.114509589E0
8.727260370E-1,2.380050182E0,1.441050053E0,-5.311950207E0,5.996505576E0
8.746887860E-1,2.457000017E0,1.594050050E0,-6.117000103E0,6.782000804E0
8.766515780E-1,2.610000134E0,1.747950077E0,-6.883050442E0,7.565964152E0
8.786142980E-1,2.802000046E0,1.900950074E0,-7.534950256E0,8.260768173E0
8.805770390E-1,3.108000040E0,1.978050113E0,-8.032950401E0,8.837456571E0
8.825400370E-1,3.337950230E0,1.939050078E0,-8.455050468E0,9.294606251E0
8.845029600E-1,3.645000219E0,1.939050078E0,-8.838000298E0,9.754803487E0
8.864660180E-1,3.913050175E0,1.863000035E0,-8.914050102E0,9.911761701E0
8.884290370E-1,4.258049965E0,1.786050081E0,-8.838000298E0,9.971520128E0
8.903914180E-1,4.488000393E0,1.633050084E0,-8.493000031E0,9.743718470E0
8.923539760E-1,4.833000183E0,1.479000092E0,-7.956000328E0,9.425670971E0
8.943169610E-1,5.140050411E0,1.363950014E0,-7.381050587E0,9.097273528E0
8.962798210E-1,5.407950401E0,1.210950017E0,-6.538050175E0,8.570789204E0
8.982425750E-1,5.715000153E0,1.057950020E0,-5.617950439E0,8.083430715E0
9.002053610E-1,5.983050346E0,9.040500522E-1,-4.736999989E0,7.684618848E0
9.021680070E-1,6.289950371E0,7.510500550E-1,-4.047000408E0,7.517031605E0
9.041306840E-1,6.595950127E0,5.590500236E-1,-3.280050039E0,7.387680506E0
9.060939630E-1,7.018050194E0,3.679500222E-1,-2.475000143E0,7.450774554E0
9.080570660E-1,7.285950184E0,1.380000114E-1,-1.632000089E0,7.467766626E0
9.100204990E-1,7.477950573E0,-5.295000225E-2,-6.739500165E-1,7.508445718E0
9.119838360E-1,7.516050339E0,-1.290000081E-1,9.195000678E-2,7.517719634E0
9.139456370E-1,7.285950184E0,-2.059500068E-1,8.580000401E-1,7.339185892E0
9.159078990E-1,7.056000233E0,-3.210000098E-1,1.510050058E0,7.222910180E0
9.178708900E-1,6.903000355E0,-4.740000367E-1,2.008050203E0,7.204745350E0
9.198336670E-1,6.787950516E0,-6.280500293E-1,2.620950222E0,7.303430640E0
9.217964360E-1,6.558000088E0,-6.280500293E-1,2.928000212E0,7.209368712E0
9.237592070E-1,6.366000175E0,-7.429500222E-1,3.234000206E0,7.178905927E0
9.257220050E-1,6.060000420E0,-7.429500222E-1,3.388050079E0,6.982439628E0
9.276847750E-1,5.676000118E0,-7.039500475E-1,3.618000269E0,6.767750657E0
9.296474080E-1,5.370000362E0,-6.660000086E-1,3.655950069E0,6.530423479E0
9.316100820E-1,4.948050022E0,-5.509500504E-1,3.771000147E0,6.245573399E0
9.335726420E-1,4.603050232E0,-5.509500504E-1,3.808950186E0,5.999976576E0
9.355352360E-1,4.105050087E0,-5.890500546E-1,3.579000235E0,5.477924686E0
9.374978990E-1,3.568050146E0,-4.740000367E-1,3.234000206E0,4.838844409E0
9.394605420E-1,2.992950201E0,-3.589500189E-1,2.889000177E0,4.175274607E0
9.414231090E-1,2.419050217E0,-2.440500110E-1,2.583000183E0,3.547288303E0
9.433856980E-1,1.882050037E0,-2.059500068E-1,2.161050081E0,2.873093316E0
9.453483610E-1,1.422000051E0,-1.680000126E-1,1.855050087E0,2.343399021E0
9.473110030E-1,1.077000022E0,-2.059500068E-1,1.663050056E0,1.992004001E0
9.492726550E-1,7.320000529E-1,-2.059500068E-1,1.510050058E0,1.690707148E0
9.512346070E-1,4.639500082E-1,-1.680000126E-1,1.432950020E0,1.515526105E0
9.531975600E-1,2.340000123E-1,-2.059500068E-1,1.356000066E0,1.391368962E0
9.551602200E-1,1.189500093E-1,-2.059500068E-1,1.240950108E0,1.263535389E0
9.571231880E-1,-3.299999982E-2,-1.680000126E-1,1.165050030E0,1.177562982E0
9.590860660E-1,-1.480500102E-1,-1.680000126E-1,1.011000037E0,1.035501755E0
9.610490110E-1,-1.480500102E-1,-2.059500068E-1,9.349500537E-1,9.687444522E-1
9.630119270E-1,-1.480500102E-1,-2.440500110E-1,8.200500607E-1,8.683094584E-1
9.649748510E-1,-3.299999982E-2,-3.210000098E-1,8.200500607E-1,8.812559835E-1
9.669377730E-1,4.200000316E-2,-4.740000367E-1,8.200500607E-1,9.481150443E-1
9.689008770E-1,8.100000024E-2,-4.740000367E-1,7.429500222E-1,8.849925256E-1
9.708639270E-1,1.960500032E-1,-5.130000114E-1,7.429500222E-1,9.238935821E-1
9.728268290E-1,2.340000123E-1,-5.509500504E-1,7.050000429E-1,9.248389180E-1
9.747897750E-1,3.109500110E-1,-5.890500546E-1,6.660000086E-1,9.419266891E-1
9.767525140E-1,3.109500110E-1,-5.130000114E-1,6.280500293E-1,8.685077780E-1
9.787153130E-1,4.260000288E-1,-5.509500504E-1,4.750500321E-1,8.430269958E-1
9.806787970E-1,5.410500169E-1,-5.890500546E-1,3.220500052E-1,8.622246189E-1
9.826420810E-1,5.020500422E-1,-5.509500504E-1,2.830500007E-1,7.973189485E-1
9.846059780E-1,5.410500169E-1,-5.890500546E-1,1.680000126E-1,8.172754075E-1
9.865696960E-1,5.790000558E-1,-6.280500293E-1,1.300500035E-1,8.640607081E-1
9.885314470E-1,5.410500169E-1,-5.509500504E-1,9.195000678E-2,7.776476596E-1
9.904937750E-1,5.410500169E-1,-5.509500504E-1,1.500000060E-2,7.723380599E-1
9.924563940E-1,4.639500082E-1,-4.740000367E-1,-2.205000073E-2,6.636353271E-1
9.944189270E-1,4.260000288E-1,-5.130000114E-1,-6.105000153E-2,6.696059580E-1
9.963814270E-1,3.870000243E-1,-4.360500276E-1,-6.105000153E-2,5.862045275E-1
9.983439340E-1,3.490500152E-1,-4.360500276E-1,1.500000060E-2,5.587490848E-1
1.000306747E0,3.109500110E-1,-4.740000367E-1,1.300500035E-1,5.816175269E-1
1.002269470E0,2.719500065E-1,-3.589500189E-1,2.070000172E-1,4.956318484E-1
1.004231167E0,1.189500093E-1,-3.210000098E-1,2.830500007E-1,4.441929917E-1
1.006193164E0,8.100000024E-2,-2.830500007E-1,3.600000143E-1,4.650573225E-1
1.008156005E0,4.200000316E-2,-2.830500007E-1,4.360500276E-1,5.215562575E-1
1.010118609E0,-7.200000435E-2,-2.830500007E-1,5.509500504E-1,6.235761874E-1
1.012081452E0,-1.480500102E-1,-2.059500068E-1,6.660000086E-1,7.126641722E-1
1.014044224E0,-1.480500102E-1,-2.059500068E-1,8.200500607E-1,8.583800516E-1
1.016007489E0,-1.870500147E-1,-1.680000126E-1,9.349500537E-1,9.681649215E-1
1.017970609E0,-2.250000089E-1,-1.680000126E-1,1.126049995E0,1.160533326E0
1.019933504E0,-3.019500077E-1,-1.290000081E-1,1.356000066E0,1.395188513E0
1.021896462E0,-4.170000255E-1,-1.290000081E-1,1.471050024E0,1.534443937E0
1.023859244E0,-5.700000525E-1,-1.290000081E-1,1.510050058E0,1.619194936E0
1.025822078E0,-6.079500318E-1,-1.290000081E-1,1.624950051E0,1.739743347E0
1.027785151E0,-6.079500318E-1,-1.290000081E-1,1.701000094E0,1.810979173E0
1.029748153E0,-6.469500065E-1,-9.105000645E-2,1.855050087E0,1.966734664E0
1.031710898E0,-5.700000525E-1,-1.290000081E-1,2.008050203E0,2.091364789E0
1.033673708E0,-4.930500090E-1,-5.295000225E-2,2.238000154E0,2.292279805E0
1.035636335E0,-4.170000255E-1,-9.105000645E-2,2.391000032E0,2.428798114E0
1.037599016E0,-3.780000210E-1,-9.105000645E-2,2.736000061E0,2.763488819E0
1.039561620E0,-2.250000089E-1,-9.105000645E-2,2.928000212E0,2.938043626E0
1.041524246E0,-2.250000089E-1,-1.290000081E-1,3.118950129E0,3.129714989E0
1.043486819E0,-1.870500147E-1,-1.290000081E-1,3.349050045E0,3.356749159E0
1.045449404E0,-1.870500147E-1,-1.290000081E-1,3.463950157E0,3.471394446E0
1.047412069E0,-2.629500031E-1,-1.290000081E-1,3.426000118E0,3.438496840E0
1.049374710E0,-3.400500119E-1,-1.290000081E-1,3.349050045E0,3.368740301E0
1.051337681E0,-2.629500031E-1,-1.290000081E-1,3.196050167E0,3.209442378E0
1.053300556E0,-2.250000089E-1,-1.680000126E-1,3.081000090E0,3.093769636E0
1.055263282E0,-7.200000435E-2,-1.680000126E-1,2.928000212E0,2.933699583E0
1.057226039E0,-3.299999982E-2,-1.290000081E-1,2.620950222E0,2.624330404E0
1.059188495E0,8.100000024E-2,-1.290000081E-1,2.122950077E0,2.128407628E0
1.061151039E0,1.570500135E-1,-1.680000126E-1,1.471050024E0,1.488918025E0
1.063115964E0,5.020500422E-1,-1.680000126E-1,8.200500607E-1,9.760944376E-1
1.065080191E0,7.320000529E-1,-1.680000126E-1,-5.209500194E-1,9.140224310E-1
1.067042512E0,1.114950061E0,-2.059500068E-1,-2.590050220E0,2.827346669E0
1.069005404E0,1.306950092E0,-2.830500007E-1,-5.350050449E0,5.514641934E0
1.070968198E0,1.384050012E0,-2.440500110E-1,-7.573050499E0,7.702353452E0
1.072931020E0,1.422000051E0,-2.059500068E-1,-9.067950249E0,9.181079526E0
1.074893959E0,1.269000053E0,-1.680000126E-1,-9.949050903E0,1.003106171E1
1.076856864E0,9.240000248E-1,-1.680000126E-1,-1.040895081E1,1.045123232E1
1.078818696E0,3.870000243E-1,-2.059500068E-1,-9.873000145E0,9.882728180E0
1.080780852E0,-1.099500060E-1,-2.059500068E-1,-8.646000862E0,8.649152289E0
1.082744041E0,-6.079500318E-1,-1.290000081E-1,-7.611000538E0,7.636332459E0
1.084706927E0,-1.068000078E0,-1.290000081E-1,-6.805950165E0,6.890444312E0
1.086669497E0,-1.528050065E0,-9.105000645E-2,-6.078000069E0,6.267799609E0
1.088632160E0,-1.911000133E0,-1.500000060E-2,-5.388000488E0,5.716878149E0
1.090594071E0,-2.295000076E0,9.900000691E-2,-4.660050392E0,5.195468796E0
1.092556217E0,-2.640000105E0,1.759500057E-1,-4.047000408E0,4.835159900E0
1.094519452E0,-2.869950056E0,2.910000086E-1,-3.472050190E0,4.514025570E0
1.096482368E0,-3.175950050E0,2.530499995E-1,-2.974050045E0,4.358401851E0
1.098445293E0,-3.330000162E0,2.910000086E-1,-2.514000177E0,4.182556512E0
1.100408215E0,-3.367950201E0,2.140500098E-1,-1.824000120E0,3.836128569E0
1.102372014E0,-3.175950050E0,6.105000153E-2,-9.810000658E-1,3.324567183E0
1.104335542E0,-2.793000221E0,-1.680000126E-1,-4.060500264E-1,2.827357576E0
1.106297281E0,-2.218050003E0,-4.360500276E-1,2.830500007E-1,2.278157753E0
1.108259544E0,-1.528050065E0,-1.048950076E0,6.280500293E-1,1.956956847E0
1.110222399E0,-7.230000496E-1,-1.624050021E0,6.660000086E-1,1.898373924E0
1.112185081E0,1.189500093E-1,-2.122950077E0,3.979500234E-1,2.163199102E0
1.114149366E0,1.000050068E0,-2.697000027E0,-1.759500057E-1,2.881816734E0
1.116113172E0,1.651950121E0,-3.271950245E0,-6.739500165E-1,3.726768873E0
1.118075539E0,2.533950090E0,-3.847050190E0,-1.363950014E0,4.804274957E0
1.120038328E0,3.223050117E0,-4.461000443E0,-2.398950100E0,6.003627119E0
1.122001273E0,3.721950293E0,-5.341950417E0,-3.894000292E0,7.586342103E0
1.123964172E0,3.682950258E0,-6.262050152E0,-4.927950382E0,8.778501562E0
1.125926779E0,3.453000069E0,-7.027950287E0,-5.005050182E0,9.293321367E0
1.127889476E0,3.262050152E0,-7.603050232E0,-4.507050037E0,9.421297366E0
1.129852437E0,3.108000040E0,-8.140049934E0,-3.586950064E0,9.422647608E0
1.131815321E0,2.917050123E0,-8.868000031E0,-3.088950157E0,9.833220176E0
1.133778206E0,2.725050211E0,-9.787950516E0,-3.012000084E0,1.059726467E1
1.135741090E0,2.341950178E0,-1.097595024E1,-3.549000263E0,1.177079510E1
1.137703183E0,1.422000051E0,-1.231800079E1,-4.009050369E0,1.303179621E1
1.139665495E0,2.340000123E-1,-1.335300064E1,-3.894000292E0,1.391116891E1
1.141628522E0,-8.770500422E-1,-1.408095074E1,-3.088950157E0,1.444243759E1
1.143591340E0,-1.834950089E0,-1.457895088E1,-1.747050047E0,1.479746717E1
1.145553381E0,-2.716050148E0,-1.542195034E1,-3.289500177E-1,1.566274844E1
1.147515649E0,-3.559950113E0,-1.676399994E1,1.395000100E0,1.719450389E1
1.149478699E0,-4.173000336E0,-1.910205078E1,2.545050144E0,1.971749366E1
1.151441509E0,-4.900950432E0,-2.239800072E1,4.231050014E0,2.331504955E1
1.153404272E0,-5.898000240E0,-2.646105194E1,5.304000378E0,2.762437505E1
1.155367049E0,-7.201050282E0,-3.106005096E1,4.843950272E0,3.224974024E1
1.157330131E0,-8.619000435E0,-3.581204987E1,5.035950184E0,3.717728982E1
1.159293124E0,-9.691950798E0,-4.056495285E1,4.921050072E0,4.199602414E1
1.161255906E0,-1.007505035E1,-4.493400192E1,4.269000053E0,4.624711375E1
1.163218746E0,-1.007505035E1,-4.903605270E1,4.039050102E0,5.022305278E1
1.165181638E0,-8.887050629E0,-5.309805298E1,3.310950041E0,5.393834711E1
1.167144514E0,-5.743950367E0,-5.704605103E1,1.203000069E0,5.734711948E1
1.169108932E0,-1.795950055E0,-5.999700165E1,-2.014950037E0,6.005768616E1
1.171072898E0,3.070050240E0,-6.206700134E1,-4.507050037E0,6.230611017E1
1.173035413E0,7.822950363E0,-6.333195114E1,-6.691050529E0,6.416311047E1
1.174998357E0,1.203900051E1,-6.413700104E1,-7.879950523E0,6.573116503E1
1.176961276E0,1.548795033E1,-6.409799957E1,-7.687950134E0,6.638926669E1
1.178924203E0,1.805595016E1,-6.337005234E1,-6.154950142E0,6.617903203E1
1.180886810E0,1.993395042E1,-6.199005127E1,-3.970050097E0,6.523718367E1
1.182849511E0,2.093100166E1,-5.957595444E1,-2.206950188E0,6.318442693E1
1.184812426E0,2.181195068E1,-5.673900223E1,-1.708950043E0,6.081115092E1
1.186775278E0,2.188905144E1,-5.313705063E1,-2.092050076E0,5.750698563E1
1.188738258E0,2.081595039E1,-4.892100143E1,-2.896950245E0,5.324434705E1
1.190701201E0,1.828605080E1,-4.481895065E1,-3.739950180E0,4.855002800E1
1.192664122E0,1.525800037E1,-4.125495148E1,-4.736999989E0,4.424044265E1
1.194627049E0,1.222995090E1,-3.826500320E1,-5.235000134E0,4.051157113E1
1.196590106E0,9.853950500E0,-3.588899994E1,-5.235000134E0,3.758358529E1
1.198553124E0,7.477950573E0,-3.393405151E1,-5.082000256E0,3.511789179E1
1.200516032E0,5.446050167E0,-3.236295319E1,-4.698000431E0,3.315254756E1
1.202478972E0,4.027950287E0,-3.109800148E1,-4.507050037E0,3.168001862E1
1.204441892E0,3.070050240E0,-3.025500107E1,-4.315050125E0,3.071497934E1
1.206404818E0,2.725050211E0,-2.964195061E1,-4.123950005E0,3.005125785E1
1.208367537E0,2.839950085E0,-2.902800179E1,-3.894000292E0,2.942538772E1
1.210330333E0,2.955000162E0,-2.864505196E1,-3.433950186E0,2.900108690E1
1.212292917E0,3.337950230E0,-2.830005074E1,-3.088950157E0,2.866315399E1
1.214255564E0,3.492000103E0,-2.784000206E1,-2.667000055E0,2.818461759E1
1.216218758E0,3.529950142E0,-2.734200096E1,-2.169000149E0,2.765411590E1
1.218181792E0,3.300000191E0,-2.688195038E1,-1.747050047E0,2.714003392E1
1.220144527E0,2.955000162E0,-2.630700111E1,-1.326000094E0,2.650563355E1
1.222107343E0,2.725050211E0,-2.573205185E1,-9.040500522E-1,2.589173029E1
1.224070464E0,2.457000017E0,-2.515695190E1,-7.890000343E-1,2.528896200E1
1.226033495E0,2.035050154E0,-2.465895081E1,-7.120500207E-1,2.475302606E1
1.227996401E0,1.614000082E0,-2.408400154E1,-5.209500194E-1,2.414364338E1
1.229959343E0,1.384050012E0,-2.358600044E1,-4.060500264E-1,2.363006322E1
1.231922053E0,1.345050097E0,-2.308800125E1,-2.520000041E-1,2.312852061E1
1.233884852E0,1.306950092E0,-2.258895111E1,1.500000060E-2,2.262673321E1
1.235846895E0,1.306950092E0,-2.224500084E1,1.680000126E-1,2.228399437E1
1.237809160E0,1.306950092E0,-2.182305145E1,3.220500052E-1,2.186452399E1
1.239771789E0,1.269000053E0,-2.151600075E1,3.979500234E-1,2.155706412E1
1.241734312E0,1.269000053E0,-2.117100143E1,3.600000143E-1,2.121205466E1
1.243697123E0,1.230000019E0,-2.090295029E1,4.750500321E-1,2.094449578E1
1.245659850E0,1.153950095E0,-2.067300034E1,6.280500293E-1,2.071470469E1
1.247622807E0,9.240000248E-1,-2.032800102E1,9.349500537E-1,2.037045736E1
1.249585697E0,7.320000529E-1,-2.005995178E1,1.050000072E0,2.010074600E1
1.251547725E0,5.020500422E-1,-1.994505119E1,1.240950108E0,1.998992442E1
1.253510006E0,3.870000243E-1,-1.975305176E1,1.510050058E0,1.981446628E1
1.255472728E0,3.109500110E-1,-1.967700005E1,1.740000129E0,1.975622993E1
1.257435317E0,8.100000024E-2,-1.956195068E1,1.893000126E0,1.965349651E1
1.259398252E0,4.050000105E-3,-1.940805054E1,2.085000038E0,1.951972508E1
1.261361086E0,-1.480500102E-1,-1.917795181E1,2.275950193E0,1.931309669E1
1.263324069E0,-2.250000089E-1,-1.902495003E1,2.391000032E0,1.917592839E1
1.265287009E0,-1.870500147E-1,-1.887195015E1,2.506050110E0,1.903853401E1
1.267249720E0,-2.250000089E-1,-1.860300064E1,2.620950222E0,1.878807169E1
1.269212488E0,-7.200000435E-2,-1.841205025E1,2.812950134E0,1.862582795E1
1.271175301E0,-3.299999982E-2,-1.822005081E1,2.965950251E0,1.845990795E1
1.273138101E0,8.100000024E-2,-1.795200157E1,3.081000090E0,1.821465023E1
1.275101181E0,1.570500135E-1,-1.768395042E1,3.349050045E0,1.799896951E1
1.277064178E0,3.490500152E-1,-1.737705040E1,3.579000235E0,1.774522356E1
1.279027293E0,3.490500152E-1,-1.703205109E1,3.771000147E0,1.744800969E1
1.280990356E0,3.870000243E-1,-1.668704987E1,3.771000147E0,1.711221331E1
1.282954157E0,5.790000558E-1,-1.634205055E1,3.808950186E0,1.679005536E1
1.284917741E0,7.320000529E-1,-1.599705029E1,3.886050224E0,1.647855662E1
1.286880732E0,8.089500666E-1,-1.569000053E1,3.886050224E0,1.618431041E1
1.288843896E0,9.619500637E-1,-1.534605026E1,3.924000263E0,1.586897554E1
1.290806417E0,1.114950061E0,-1.500105095E1,3.963000298E0,1.555570682E1
1.292769127E0,1.153950095E0,-1.450200081E1,3.963000298E0,1.507796404E1
1.294732131E0,1.269000053E0,-1.408095074E1,3.924000263E0,1.467246785E1
1.296695048E0,1.345050097E0,-1.362105083E1,3.847950220E0,1.421790795E1
1.298658333E0,1.537050128E0,-1.316100025E1,3.886050224E0,1.380854218E1
1.300621510E0,1.804950118E0,-1.281600094E1,3.771000147E0,1.348065900E1
1.302584345E0,2.074050188E0,-1.247100067E1,3.655950069E0,1.316030064E1
1.304547281E0,2.265000105E0,-1.208805084E1,3.541050196E0,1.279805591E1
1.306510381E0,2.304000139E0,-1.155105019E1,3.349050045E0,1.224546092E1
1.308473433E0,2.304000139E0,-1.116795063E1,3.349050045E0,1.188476647E1
1.310436695E0,2.265000105E0,-1.066995049E1,3.234000206E0,1.137703064E1
1.312399895E0,2.149950027E0,-1.005600071E1,3.043050051E0,1.072406588E1
1.314362655E0,2.074050188E0,-9.520050049E0,3.004050255E0,1.019594797E1
1.316325531E0,1.959000111E0,-8.907000542E0,2.812950134E0,9.543847680E0
1.318288596E0,1.920000076E0,-8.254950523E0,2.545050144E0,8.849174463E0
1.320251606E0,1.690050125E0,-7.603050232E0,2.353049994E0,8.136306688E0
1.322214380E0,1.614000082E0,-6.874950409E0,2.085000038E0,7.363230578E0
1.324177223E0,1.537050128E0,-6.223950386E0,1.663050056E0,6.623127433E0
1.326140123E0,1.422000051E0,-5.533950329E0,1.471050024E0,5.900057505E0
1.328102999E0,1.459950089E0,-4.843950272E0,1.356000066E0,5.237751872E0
1.330065931E0,1.345050097E0,-4.269000053E0,1.087950110E0,4.606208491E0
1.332028846E0,1.306950092E0,-3.616950274E0,7.050000429E-1,3.909919805E0
1.333992671E0,1.269000053E0,-2.965950251E0,4.750500321E-1,3.260811948E0
1.335956230E0,1.230000019E0,-2.506050110E0,2.449500114E-1,2.802353958E0
1.337919239E0,1.077000022E0,-1.893000126E0,1.680000126E-1,2.184399810E0
1.339882400E0,9.619500637E-1,-1.509000063E0,5.295000225E-2,1.790316402E0
1.341845147E0,7.699500322E-1,-1.048950076E0,-2.205000073E-2,1.301385998E0
1.343808016E0,6.550500393E-1,-6.660000086E-1,-6.105000153E-2,9.361483152E-1
1.345770002E0,4.639500082E-1,-2.440500110E-1,-9.900000691E-2,5.334894744E-1
1.347732246E0,3.490500152E-1,-9.105000645E-2,-2.140500098E-1,4.194561044E-1
1.349694425E0,3.870000243E-1,9.900000691E-2,-2.520000041E-1,4.723071270E-1
1.351656626E0,3.870000243E-1,3.289500177E-1,-2.140500098E-1,5.511755979E-1
1.353620212E0,5.020500422E-1,4.440000355E-1,-1.759500057E-1,6.929276159E-1
1.355583393E0,5.790000558E-1,5.590500236E-1,-1.759500057E-1,8.238545976E-1
1.357546408E0,7.699500322E-1,6.739500165E-1,-6.105000153E-2,1.025065256E0
1.359509472E0,8.470500112E-1,7.510500550E-1,1.500000060E-2,1.132163816E0
1.361472736E0,1.000050068E0,7.510500550E-1,9.195000678E-2,1.254045903E0
1.363435937E0,1.114950061E0,7.129500508E-1,-9.900000691E-2,1.327106783E0
1.365398633E0,1.077000022E0,6.739500165E-1,-1.369500011E-1,1.277847008E0
1.367361477E0,1.077000022E0,6.739500165E-1,-9.900000691E-2,1.274338524E0
1.369324234E0,1.114950061E0,6.739500165E-1,-2.205000073E-2,1.302999795E0
1.371287016E0,1.114950061E0,6.739500165E-1,-6.105000153E-2,1.304242832E0
1.373249633E0,1.114950061E0,6.739500165E-1,-1.369500011E-1,1.309991437E0
1.375212309E0,1.114950061E0,6.739500165E-1,-2.910000086E-1,1.334916952E0
1.377175454E0,1.077000022E0,7.129500508E-1,-4.440000355E-1,1.365782872E0
1.379138461E0,1.077000022E0,7.129500508E-1,-5.209500194E-1,1.392700881E0
1.381101505E0,1.114950061E0,7.890000343E-1,-5.590500236E-1,1.475863009E0
1.383064538E0,1.192050099E0,7.510500550E-1,-7.510500550E-1,1.596601331E0
1.385027637E0,1.114950061E0,8.280000687E-1,-8.269500136E-1,1.616336622E0
1.386990706E0,1.114950061E0,8.659500480E-1,-1.096050024E0,1.787262929E0
1.388953605E0,1.077000022E0,9.430500269E-1,-1.363950014E0,1.977278949E0
1.390916554E0,1.114950061E0,1.018950105E0,-1.671000123E0,2.252468505E0
1.392879517E0,1.153950095E0,1.096050024E0,-2.014950037E0,2.567674070E0
1.394842475E0,1.153950095E0,1.210950017E0,-2.590050220E0,3.083238705E0
1.396805741E0,1.114950061E0,1.326000094E0,-3.394950151E0,3.811440203E0
1.398768893E0,1.230000019E0,1.479000092E0,-4.315050125E0,4.724404608E0
1.400732003E0,1.269000053E0,1.747950077E0,-5.388000488E0,5.804846240E0
1.402695126E0,1.306950092E0,1.939050078E0,-6.768000126E0,7.160576754E0
1.404658509E0,1.422000051E0,2.169000149E0,-8.185950279E0,8.586991776E0
1.406621816E0,1.614000082E0,2.361000061E0,-9.528000832E0,9.947970517E0
1.408584906E0,1.882050037E0,2.514000177E0,-1.063905048E1,1.109286728E1
1.410548055E0,2.188950062E0,2.590950012E0,-1.152105045E1,1.200995953E1
1.412510894E0,2.380050182E0,2.667000055E0,-1.194195080E1,1.246546096E1
1.414473824E0,2.533950090E0,2.629050016E0,-1.201905060E1,1.256146426E1
1.416436970E0,2.725050211E0,2.629050016E0,-1.178895092E1,1.238213093E1
1.418400053E0,2.802000046E0,2.514000177E0,-1.144395065E1,1.204721577E1
1.420363153E0,2.878050089E0,2.476050138E0,-1.083105087E1,1.147717995E1
1.422326232E0,2.839950085E0,2.398950100E0,-1.002600002E1,1.069303299E1
1.424289263E0,2.839950085E0,2.398950100E0,-9.220950127E0,9.942142591E0
1.426252308E0,2.802000046E0,2.398950100E0,-8.301000595E0,9.083654370E0
1.428215256E0,2.802000046E0,2.361000061E0,-7.381050587E0,8.240475308E0
1.430178232E0,2.764050245E0,2.284050226E0,-6.460950375E0,7.389231282E0
1.432141645E0,2.764050245E0,2.169000149E0,-5.464950085E0,6.496938882E0
1.434104927E0,2.764050245E0,2.169000149E0,-4.468050003E0,5.684013215E0
1.436067835E0,2.764050245E0,2.092950106E0,-3.510000229E0,4.933610798E0
1.438030852E0,2.802000046E0,2.016000032E0,-2.398950100E0,4.203620103E0
1.439994253E0,2.917050123E0,1.939050078E0,-1.402050018E0,3.772908809E0
1.441957542E0,2.992950201E0,1.786050081E0,-6.360000372E-1,3.542911493E0
1.443919762E0,3.031950235E0,1.671000123E0,1.680000126E-1,3.466004565E0
1.445882271E0,3.031950235E0,1.479000092E0,9.730500579E-1,3.510981332E0
1.447845579E0,3.031950235E0,1.288050056E0,1.585950017E0,3.656095271E0
1.449808653E0,2.955000162E0,1.057950020E0,2.200050116E0,3.832949871E0
1.451772091E0,2.917050123E0,8.280000687E-1,2.851050138E0,4.162121145E0
1.453735422E0,2.802000046E0,5.209500194E-1,3.310950041E0,4.368636326E0
1.455698995E0,2.610000134E0,2.530499995E-1,3.808950186E0,4.624309302E0
1.457662498E0,2.419050217E0,2.295000106E-2,4.116000175E0,4.774284040E0
1.459626223E0,2.227050066E0,-1.290000081E-1,4.384050369E0,4.918972519E0
1.461589883E0,1.882050037E0,-1.680000126E-1,4.576050282E0,4.950815340E0
1.463552500E0,1.537050128E0,-2.830500007E-1,4.614000320E0,4.871513046E0
1.465515423E0,1.345050097E0,-3.589500189E-1,4.537950039E0,4.746682571E0
1.467478346E0,1.153950095E0,-4.360500276E-1,4.384050369E0,4.554298858E0
1.469441269E0,9.240000248E-1,-4.360500276E-1,4.269000053E0,4.389564572E0
1.471404192E0,7.699500322E-1,-3.979500234E-1,4.078050137E0,4.169134225E0
1.473367115E0,5.790000558E-1,-3.979500234E-1,3.847950220E0,3.911563138E0
1.475329138E0,4.639500082E-1,-3.210000098E-1,3.655950069E0,3.699224449E0
1.477291424E0,3.870000243E-1,-2.830500007E-1,3.388050079E0,3.421807952E0
1.479254685E0,2.719500065E-1,-1.680000126E-1,3.118950129E0,3.135287980E0
1.481217657E0,1.960500032E-1,-1.680000126E-1,2.965950251E0,2.977166522E0
1.483180887E0,1.570500135E-1,-1.680000126E-1,2.851050138E0,2.860310403E0
1.485144042E0,8.100000024E-2,-1.290000081E-1,2.698050022E0,2.702346374E0
1.487107107E0,1.189500093E-1,-1.290000081E-1,2.506050110E0,2.512185753E0
1.489070198E0,1.960500032E-1,-1.290000081E-1,2.238000154E0,2.250271383E0
1.491033092E0,1.570500135E-1,-1.290000081E-1,2.085000038E0,2.094882065E0
1.492996044E0,2.340000123E-1,-1.290000081E-1,1.930950046E0,1.949349914E0
1.494959006E0,2.719500065E-1,-1.290000081E-1,1.816050053E0,1.840824707E0
1.496921965E0,3.109500110E-1,-1.680000126E-1,1.740000129E0,1.775532135E0
1.498885017E0,3.870000243E-1,-1.680000126E-1,1.663050056E0,1.715729731E0
1.500848042E0,3.490500152E-1,-1.290000081E-1,1.624950051E0,1.667015172E0
1.502811294E0,2.340000123E-1,-9.105000645E-2,1.585950017E0,1.605703449E0
1.504774490E0,2.340000123E-1,-5.295000225E-2,1.585950017E0,1.603994129E0
1.506737006E0,3.490500152E-1,-1.290000081E-1,1.510050058E0,1.555226059E0
1.508699722E0,4.639500082E-1,-1.680000126E-1,1.471050024E0,1.551599751E0
1.510663581E0,5.020500422E-1,-1.680000126E-1,1.471050024E0,1.563414987E0
1.512627105E0,6.550500393E-1,-2.059500068E-1,1.432950020E0,1.588978200E0
1.514589781E0,6.550500393E-1,-2.440500110E-1,1.395000100E0,1.560344911E0
1.516552712E0,6.940500140E-1,-2.830500007E-1,1.395000100E0,1.583618642E0
1.518515273E0,6.550500393E-1,-2.440500110E-1,1.432950020E0,1.594364049E0
1.520477943E0,6.169500351E-1,-2.440500110E-1,1.356000066E0,1.509610523E0
1.522440008E0,6.550500393E-1,-3.210000098E-1,1.356000066E0,1.539762234E0
1.524402251E0,5.410500169E-1,-3.210000098E-1,1.356000066E0,1.494828520E0
1.526365072E0,5.410500169E-1,-3.210000098E-1,1.395000100E0,1.530294549E0
1.528327750E0,4.260000288E-1,-3.210000098E-1,1.471050024E0,1.564770016E0
1.530290671E0,4.639500082E-1,-3.589500189E-1,1.471050024E0,1.583692805E0
1.532253520E0,3.870000243E-1,-3.589500189E-1,1.471050024E0,1.562882692E0
1.534216141E0,4.260000288E-1,-3.589500189E-1,1.471050024E0,1.572993742E0
1.536178829E0,3.490500152E-1,-3.589500189E-1,1.471050024E0,1.553920591E0
1.538141608E0,3.870000243E-1,-3.979500234E-1,1.510050058E0,1.608845679E0
1.540104331E0,3.870000243E-1,-4.360500276E-1,1.548000097E0,1.654150219E0
1.542066929E0,3.490500152E-1,-3.979500234E-1,1.510050058E0,1.600141029E0
1.544029564E0,3.490500152E-1,-5.130000114E-1,1.510050058E0,1.632561210E0
1.545992400E0,2.719500065E-1,-4.360500276E-1,1.510050058E0,1.595101129E0
1.547955177E0,1.960500032E-1,-4.360500276E-1,1.548000097E0,1.620147997E0
1.549918130E0,1.570500135E-1,-5.130000114E-1,1.585950017E0,1.674237491E0
1.551881028E0,1.960500032E-1,-5.130000114E-1,1.548000097E0,1.642531253E0
1.553843777E0,2.340000123E-1,-5.509500504E-1,1.548000097E0,1.659700655E0
1.555806569E0,2.340000123E-1,-5.890500546E-1,1.548000097E0,1.672734370E0
1.557769289E0,1.960500032E-1,-5.890500546E-1,1.548000097E0,1.667848876E0
1.559732030E0,1.189500093E-1,-6.660000086E-1,1.471050024E0,1.619164380E0
1.561695002E0,1.189500093E-1,-7.429500222E-1,1.510050058E0,1.687120333E0
1.563657893E0,1.570500135E-1,-7.429500222E-1,1.471050024E0,1.655484103E0
1.565620867E0,2.340000123E-1,-7.810500264E-1,1.471050024E0,1.681898725E0
1.567583816E0,2.719500065E-1,-7.810500264E-1,1.471050024E0,1.687597145E0
1.569546736E0,2.719500065E-1,-7.810500264E-1,1.471050024E0,1.687597145E0
1.571509665E0,3.490500152E-1,-8.580000401E-1,1.471050024E0,1.738386653E0
1.573472920E0,4.260000288E-1,-8.190000653E-1,1.471050024E0,1.736728334E0
1.575436066E0,4.260000288E-1,-8.959500194E-1,1.471050024E0,1.774314131E0
1.577399897E0,5.790000558E-1,-8.959500194E-1,1.471050024E0,1.817128415E0
1.579363528E0,6.169500351E-1,-9.340500236E-1,1.471050024E0,1.848530488E0
1.581326150E0,7.320000529E-1,-9.730500579E-1,1.471050024E0,1.909617413E0
1.583289068E0,6.940500140E-1,-1.011000037E0,1.432950020E0,1.886046727E0
1.585252126E0,7.320000529E-1,-1.048950076E0,1.395000100E0,1.892655705E0
1.587215143E0,7.699500322E-1,-1.048950076E0,1.318050027E0,1.852127206E0
1.589177871E0,6.940500140E-1,-1.011000037E0,1.279950023E0,1.772596558E0
1.591140684E0,6.550500393E-1,-1.048950076E0,1.240950108E0,1.751954333E0
1.593103085E0,5.790000558E-1,-1.087950110E0,1.240950108E0,1.748952165E0
1.595065607E0,5.020500422E-1,-1.048950076E0,1.240950108E0,1.700678593E0
1.597028823E0,5.020500422E-1,-1.011000037E0,1.279950023E0,1.706589400E0
1.598991835E0,3.870000243E-1,-1.011000037E0,1.432950020E0,1.795894165E0
1.600954923E0,4.260000288E-1,-9.730500579E-1,1.471050024E0,1.814467033E0
1.602917989E0,3.870000243E-1,-9.340500236E-1,1.471050024E0,1.784994857E0
1.604880889E0,3.870000243E-1,-8.959500194E-1,1.471050024E0,1.765356516E0
1.606843837E0,3.490500152E-1,-7.429500222E-1,1.395000100E0,1.618590723E0
1.608807075E0,2.719500065E-1,-6.660000086E-1,1.279950023E0,1.468259132E0
1.610770225E0,2.719500065E-1,-5.509500504E-1,9.349500537E-1,1.118764661E0
1.612734371E0,1.960500032E-1,-4.740000367E-1,4.750500321E-1,6.991310117E-1
1.614698225E0,1.960500032E-1,-3.979500234E-1,-9.900000691E-2,4.545336360E-1
1.616660854E0,1.570500135E-1,-2.830500007E-1,-7.510500550E-1,8.178375112E-1
1.618623842E0,2.340000123E-1,-2.059500068E-1,-1.555950046E0,1.586868601E0
1.620586947E0,3.109500110E-1,-2.059500068E-1,-2.475000143E0,2.502944471E0
1.622550008E0,5.410500169E-1,-1.680000126E-1,-3.280050039E0,3.328616437E0
1.624513944E0,7.320000529E-1,-2.440500110E-1,-4.123950005E0,4.195515240E0
1.626477624E0,7.320000529E-1,-3.589500189E-1,-4.927950382E0,4.994933850E0
1.628440418E0,7.699500322E-1,-5.509500504E-1,-5.617950439E0,5.697169135E0
1.630403472E0,7.699500322E-1,-9.340500236E-1,-6.499950409E0,6.611703851E0
1.632366038E0,7.320000529E-1,-1.471050024E0,-7.495950222E0,7.673922203E0
1.634328761E0,7.320000529E-1,-2.161050081E0,-8.761050224E0,9.053284628E0
1.636291537E0,7.320000529E-1,-3.081000090E0,-1.025595093E1,1.073372792E1
1.638254297E0,8.089500666E-1,-4.039050102E0,-1.213395023E1,1.281409670E1
1.640217068E0,8.850000501E-1,-4.959000111E0,-1.362900066E1,1.453012616E1
1.642179836E0,8.470500112E-1,-5.610000134E0,-1.397400093E1,1.508185324E1
1.644141885E0,5.790000558E-1,-5.917050362E0,-1.316895103E1,1.444880609E1
1.646104145E0,2.719500065E-1,-5.839950085E0,-1.086900043E1,1.234156166E1
1.648067181E0,1.189500093E-1,-5.494950294E0,-7.918050289E0,9.638679797E0
1.650029989E0,4.200000316E-2,-4.959000111E0,-4.852050304E0,6.937999586E0
1.651992887E0,-7.200000435E-2,-4.461000443E0,-2.130000114E0,4.943946747E0
1.653955759E0,-7.200000435E-2,-3.961950302E0,1.500000060E-2,3.962632862E0
1.655917780E0,-3.299999982E-2,-3.579000235E0,1.471050024E0,3.869666633E0
1.657880058E0,-7.200000435E-2,-3.271950245E0,2.238000154E0,3.964780838E0
1.659843271E0,-1.480500102E-1,-2.965950251E0,2.889000177E0,4.143078773E0
1.661806210E0,-2.629500031E-1,-2.773950100E0,3.463950157E0,4.445547497E0
1.663768816E0,-4.170000255E-1,-2.697000027E0,4.000950336E0,4.843067392E0
1.665731520E0,-6.079500318E-1,-2.773950100E0,4.537950039E0,5.353260030E0
1.667694625E0,-9.529500604E-1,-2.851050138E0,5.304000378E0,6.096640117E0
1.669657605E0,-1.489950061E0,-3.081000090E0,5.725950241E0,6.670758495E0
1.671620879E0,-2.218050003E0,-3.616950274E0,5.802000046E0,7.187856400E0
1.673584066E0,-3.828000069E0,-6.223950386E0,5.725950241E0,9.283191752E0
1.675546990E0,-8.121000290E0,-1.227900028E1,5.341950417E0,1.566080866E1
1.677509991E0,-1.413795090E1,-2.021295166E1,4.806000233E0,2.513051350E1
1.679472906E0,-2.057700157E1,-2.726505089E1,5.380950451E0,3.457962726E1
1.681435843E0,-2.529105186E1,-3.642600250E1,5.611050129E0,4.469871191E1
1.683398718E0,-2.670900154E1,-4.830705261E1,6.760950089E0,5.561162236E1
1.685361612E0,-2.724600220E1,-5.869395447E1,1.040205002E1,6.554027442E1
1.687324719E0,-2.789805222E1,-6.697305298E1,1.293105030E1,7.369466198E1
1.689287764E0,-2.670900154E1,-7.440795135E1,1.542300034E1,8.054677478E1
1.691250365E0,-2.214795113E1,-7.850895691E1,1.822005081E1,8.358324178E1
1.693213087E0,-1.505805111E1,-7.850895691E1,1.986900139E1,8.237219455E1
1.695176359E0,-7.621950150E0,-7.850895691E1,2.078805161E1,8.157140141E1
1.697139470E0,-1.480500102E-1,-7.850895691E1,2.017500114E1,8.105990936E1
1.699103082E0,7.746000290E0,-7.850895691E1,1.776105118E1,8.086477462E1
1.701066547E0,1.541205120E1,-7.850895691E1,1.228005028E1,8.094434676E1
1.703029773E0,2.284695053E1,-7.850895691E1,6.280500293E-1,8.176817174E1
1.704993077E0,3.721995163E1,-7.850895691E1,-4.076505280E1,9.597275990E1
1.706955935E0,4.638000107E1,-7.850895691E1,-5.885505295E1,1.085296184E2
1.708918924E0,4.825800323E1,-7.850895691E1,-5.099805069E1,1.053246997E2
1.710881610E0,4.641900253E1,-7.843305206E1,-4.498095322E1,1.016353954E2
1.712844385E0,3.810195160E1,-7.115100098E1,-3.137400055E1,8.659417744E1
1.714807057E0,2.898000145E1,-5.880900192E1,-1.949295044E1,6.839820398E1
1.716769732E0,2.116095161E1,-4.915005112E1,-1.010295010E1,5.445716664E1
1.718731616E0,1.445295048E1,-4.171500015E1,-3.127050161E0,4.425841680E1
1.720693732E0,8.743050575E0,-3.600405121E1,1.318050027E0,3.707384378E1
1.722656432E0,4.411950111E0,-3.144300079E1,3.081000090E0,3.190015931E1
1.724618961E0,1.422000051E0,-2.764905167E1,2.620950222E0,2.780937831E1
1.726581567E0,-1.030050039E0,-2.450595093E1,1.471050024E0,2.457166299E1
1.728544167E0,-3.022950172E0,-2.178495026E1,-1.759500057E-1,2.199439119E1
1.730507101E0,-4.134000301E0,-1.979205132E1,-2.245050192E0,2.034343885E1
1.732469937E0,-4.363950253E0,-1.825800133E1,-3.280050039E0,1.905668918E1
1.734432875E0,-4.824000359E0,-1.699394989E1,-3.739950180E0,1.805692498E1
1.736395783E0,-5.398950100E0,-1.626495171E1,-3.664050102E0,1.752491310E1
1.738358569E0,-5.782950401E0,-1.595895100E1,-2.935050249E0,1.722629247E1
1.740321395E0,-5.898000240E0,-1.584405041E1,-1.786050081E0,1.700030338E1
1.742283569E0,-5.553000450E0,-1.599705029E1,-7.120500207E-1,1.694840544E1
1.744245934E0,-4.747950077E0,-1.626495171E1,3.220500052E-1,1.694684042E1
1.746208636E0,-4.057950020E0,-1.657200050E1,1.203000069E0,1.710395768E1
1.748171239E0,-3.253050089E0,-1.695495033E1,1.701000094E0,1.734779747E1
1.750134213E0,-2.677950144E0,-1.733895111E1,2.314950228E0,1.769659959E1
1.752097081E0,-2.295000076E0,-1.772205162E1,2.736000061E0,1.807826970E1
1.754059968E0,-1.834950089E0,-1.814295006E1,3.157950163E0,1.850692648E1
1.756022850E0,-1.375050068E0,-1.864200020E1,3.541050196E0,1.902508793E1
1.757985601E0,-1.144950032E0,-1.910205078E1,3.771000147E0,1.950435071E1
1.759948390E0,-1.068000078E0,-1.952295113E1,4.000950336E0,1.995730063E1
1.761911185E0,-1.068000078E0,-1.979205132E1,4.116000175E0,2.024369968E1
1.763873989E0,-9.150000215E-1,-1.994505119E1,4.231050014E0,2.040941147E1
1.765837068E0,-9.919500351E-1,-1.990695000E1,4.269000053E0,2.038369408E1
1.767800066E0,-9.919500351E-1,-1.986795044E1,4.308000088E0,2.035382726E1
1.769762977E0,-9.150000215E-1,-1.960005188E1,4.116000175E0,2.004845920E1
1.771725914E0,-1.030050039E0,-1.933200073E1,3.886050224E0,1.974559803E1
1.773688654E0,-9.529500604E-1,-1.906305122E1,3.847950220E0,1.947086944E1
1.775651452E0,-8.770500422E-1,-1.875705147E1,3.847950220E0,1.916775724E1
1.777614395E0,-8.770500422E-1,-1.837305069E1,3.618000269E0,1.874641657E1
1.779577296E0,-9.150000215E-1,-1.795200157E1,3.349050045E0,1.828463075E1
1.781540044E0,-1.030050039E0,-1.749195099E1,3.081000090E0,1.779106276E1
1.783502837E0,-1.030050039E0,-1.699394989E1,2.965950251E0,1.728155655E1
1.785465807E0,-1.068000078E0,-1.653404999E1,3.004050255E0,1.683863864E1
1.787428739E0,-9.529500604E-1,-1.611194992E1,3.426000118E0,1.649971275E1
1.789391256E0,-1.068000078E0,-1.561395073E1,3.618000269E0,1.606318796E1
1.791353895E0,-1.413000107E0,-1.511595058E1,3.655950069E0,1.561584139E1
1.793316550E0,-1.068000078E0,-1.450200081E1,3.733050108E0,1.501280503E1
1.795279201E0,-9.919500351E-1,-1.396605110E1,3.847950220E0,1.452037428E1
1.797241971E0,-6.469500065E-1,-1.342905045E1,3.963000298E0,1.401653707E1
1.799204720E0,-3.019500077E-1,-1.300800037E1,4.078050137E0,1.363560561E1
1.801167628E0,1.189500093E-1,-1.258605099E1,4.384050369E0,1.332826794E1
1.803130489E0,5.410500169E-1,-1.224105072E1,4.690950394E0,1.312025432E1
1.805093784E0,1.230000019E0,-1.201095104E1,4.921050072E0,1.303812022E1
1.807056951E0,1.690050125E0,-1.162800026E1,4.959000111E0,1.275375794E1
1.809019847E0,2.188950062E0,-1.124400043E1,4.921050072E0,1.246738874E1
1.810982813E0,2.610000134E0,-1.093800068E1,4.843950272E0,1.224401134E1
1.812945729E0,3.108000040E0,-1.063095093E1,4.653000355E0,1.201362536E1
1.814908659E0,3.529950142E0,-1.028595066E1,4.308000088E0,1.169701645E1
1.816871581E0,3.874950171E0,-9.940950394E0,4.039050102E0,1.140840301E1
1.818834505E0,4.143000126E0,-9.595950127E0,3.771000147E0,1.111157734E1
1.820797477E0,4.372950077E0,-9.097949982E0,3.579000235E0,1.071002469E1
1.822760431E0,4.450050354E0,-8.677050591E0,3.426000118E0,1.033593885E1
1.824723170E0,4.411950111E0,-8.254950523E0,3.196050167E0,9.890614167E0
1.826685972E0,4.450050354E0,-7.795050144E0,3.004050255E0,9.465203264E0
1.828648870E0,4.450050354E0,-7.372950554E0,2.812950134E0,9.059582578E0
1.830611739E0,4.411950111E0,-6.990000248E0,2.583000183E0,8.660097990E0
1.832574532E0,4.411950111E0,-6.645000458E0,2.353049994E0,8.316139678E0
1.834537351E0,4.411950111E0,-6.300000191E0,2.122950077E0,7.978861023E0
1.836500067E0,4.335000038E0,-5.878950119E0,1.855050087E0,7.536278303E0
1.838462813E0,4.258049965E0,-5.457000256E0,1.585950017E0,7.101061804E0
1.840425630E0,4.105050087E0,-5.035050392E0,1.471050024E0,6.660867574E0
1.842388426E0,4.027950287E0,-4.690050125E0,1.395000100E0,6.337742419E0
1.844351326E0,3.837000132E0,-4.345950127E0,1.203000069E0,5.920900411E0
1.846314196E0,3.682950258E0,-3.924000263E0,1.011000037E0,5.475766772E0
1.848277173E0,3.682950258E0,-3.616950274E0,7.429500222E-1,5.215211081E0
1.850240119E0,3.607050180E0,-3.271950245E0,5.130000114E-1,4.896900900E0
1.852203894E0,3.529950142E0,-2.851050138E0,2.830500007E-1,4.546333930E0
1.854167426E0,3.415050268E0,-2.428950071E0,1.300500035E-1,4.192765172E0
1.856130277E0,3.262050152E0,-2.008050203E0,-9.900000691E-2,3.831845223E0
1.858093338E0,3.147000074E0,-1.624050021E0,-4.440000355E-1,3.569073265E0
1.860055831E0,2.955000162E0,-1.279050112E0,-6.739500165E-1,3.289711807E0
1.862018491E0,2.839950085E0,-9.730500579E-1,-9.420000315E-1,3.146348194E0
1.863981323E0,2.686950207E0,-5.890500546E-1,-1.171950102E0,2.990008097E0
1.865944105E0,2.494950056E0,-2.830500007E-1,-1.479000092E0,2.914161004E0
1.867905912E0,2.380050182E0,-9.105000645E-2,-1.786050081E0,2.977062960E0
1.869868015E0,2.227050066E0,6.105000153E-2,-2.014950037E0,3.003914571E0
1.871830897E0,2.111999989E0,2.910000086E-1,-2.245050192E0,3.096041880E0
1.873793551E0,1.882050037E0,5.590500236E-1,-2.629050016E0,3.281242640E0
1.875756520E0,1.729050040E0,7.510500550E-1,-2.974050045E0,3.521173653E0
1.877719397E0,1.575000048E0,9.040500522E-1,-3.204000235E0,3.682872405E0
1.879682360E0,1.459950089E0,1.096050024E0,-3.510000229E0,3.956372268E0
1.881645307E0,1.306950092E0,1.249050021E0,-4.009050369E0,4.397809610E0
1.883608182E0,1.269000053E0,1.441050053E0,-4.621950150E0,5.004938519E0
1.885571078E0,1.077000022E0,1.594050050E0,-5.119950294E0,5.469443813E0
1.887533149E0,8.089500666E-1,1.824000120E0,-5.733000278E0,6.070310440E0
1.889495462E0,5.020500422E-1,1.978050113E0,-6.270000458E0,6.593757823E0
1.891458498E0,3.490500152E-1,2.169000149E0,-6.730050087E0,7.079546012E0
1.893421316E0,8.100000024E-2,2.322000027E0,-7.189950466E0,7.556032876E0
1.895384257E0,4.050000105E-3,2.551950216E0,-7.803000450E0,8.209706592E0
1.897347162E0,-1.480500102E-1,2.706000090E0,-8.301000595E0,8.732179921E0
1.899310448E0,-2.250000089E-1,2.859000206E0,-8.569950104E0,9.037065451E0
1.901273623E0,-3.019500077E-1,2.935950041E0,-8.838000298E0,9.317790817E0
1.903236845E0,-3.019500077E-1,3.012000084E0,-8.991000175E0,9.486906897E0
1.905200066E0,-3.019500077E-1,3.166050196E0,-9.028950691E0,9.572721569E0
1.907163119E0,-3.780000210E-1,3.166050196E0,-8.799000740E0,9.358908691E0
1.909126222E0,-3.019500077E-1,3.241950035E0,-8.416049957E0,9.023929893E0
1.911089114E0,-2.629500031E-1,3.204000235E0,-8.032950401E0,8.652343749E0
1.913052068E0,-2.250000089E-1,3.204000235E0,-7.573050499E0,8.226015826E0
1.915014977E0,-1.480500102E-1,3.127050161E0,-6.921000481E0,7.596091704E0
1.916977905E0,-1.099500060E-1,3.051000118E0,-6.270000458E0,6.973779210E0
1.918940782E0,-1.099500060E-1,3.012000084E0,-5.503050327E0,6.274376177E0
1.920903674E0,-3.299999982E-2,2.896950245E0,-4.852050304E0,5.651177035E0
1.922866422E0,4.200000316E-2,2.821050167E0,-4.047000408E0,4.933386296E0
1.924829213E0,4.050000105E-3,2.743950129E0,-3.357000113E0,4.335750047E0
1.926792022E0,-3.299999982E-2,2.629050016E0,-2.667000055E0,3.745114455E0
1.928754826E0,4.050000105E-3,2.476050138E0,-2.014950037E0,3.192313321E0
1.930718130E0,4.050000105E-3,2.361000061E0,-1.363950014E0,2.726664140E0
1.932681288E0,-3.299999982E-2,2.208000183E0,-7.120500207E-1,2.320208836E0
1.934643586E0,-3.299999982E-2,2.053950071E0,-2.205000073E-2,2.054333492E0
1.936606136E0,4.200000316E-2,1.863000035E0,5.899500251E-1,1.954628907E0
1.938569282E0,4.050000105E-3,1.633050084E0,1.318050027E0,2.098600689E0
1.940532268E0,4.050000105E-3,1.402950048E0,1.816050053E0,2.294847061E0
1.942495541E0,4.050000105E-3,1.173000097E0,2.353049994E0,2.629218497E0
1.944458729E0,4.050000105E-3,9.810000658E-1,2.812950134E0,2.979104897E0
1.946421653E0,4.050000105E-3,8.280000687E-1,3.157950163E0,3.264697497E0
1.948384654E0,-1.099500060E-1,6.739500165E-1,3.234000206E0,3.305307090E0
1.950347519E0,-1.480500102E-1,3.679500222E-1,3.273000240E0,3.296943524E0
1.952310424E0,-2.250000089E-1,2.140500098E-1,3.234000206E0,3.248876689E0
1.954273034E0,-3.019500077E-1,6.105000153E-2,3.118950129E0,3.134126803E0
1.956235731E0,-3.780000210E-1,-1.500000060E-2,3.118950129E0,3.141808225E0
1.958199413E0,-4.549500346E-1,-9.105000645E-2,3.043050051E0,3.078217544E0
1.960162806E0,-4.930500090E-1,-1.290000081E-1,2.812950134E0,2.858745839E0
1.962125766E0,-5.700000525E-1,-1.290000081E-1,2.698050022E0,2.760618587E0
1.964088866E0,-5.700000525E-1,-1.680000126E-1,2.467950106E0,2.538484152E0
1.966051759E0,-5.700000525E-1,-1.680000126E-1,2.314950228E0,2.390003896E0
1.968014712E0,-5.700000525E-1,-2.059500068E-1,2.200050116E0,2.282002624E0
1.969977495E0,-4.549500346E-1,-2.059500068E-1,2.085000038E0,2.143972971E0
1.971940328E0,-3.780000210E-1,-2.440500110E-1,2.085000038E0,2.132995448E0
1.973902881E0,-3.400500119E-1,-2.059500068E-1,2.085000038E0,2.122563209E0
1.975865502E0,-2.629500031E-1,-2.830500007E-1,2.161050081E0,2.195312611E0
1.977828340E0,-1.480500102E-1,-2.059500068E-1,2.122950077E0,2.138048465E0
1.979791115E0,-7.200000435E-2,-2.830500007E-1,2.085000038E0,2.105356612E0
1.981754379E0,4.200000316E-2,-3.589500189E-1,2.200050116E0,2.229535743E0
1.983717500E0,1.570500135E-1,-4.360500276E-1,2.200050116E0,2.248338241E0
1.985680473E0,2.719500065E-1,-3.979500234E-1,2.200050116E0,2.252230348E0
1.987643463E0,3.870000243E-1,-4.740000367E-1,2.200050116E0,2.283564224E0
1.989607095E0,5.020500422E-1,-4.740000367E-1,2.238000154E0,2.342087738E0
1.991570538E0,5.790000558E-1,-5.130000114E-1,2.238000154E0,2.367922036E0
1.993532832E0,7.320000529E-1,-5.130000114E-1,2.161050081E0,2.338617229E0
1.995495463E0,9.240000248E-1,-5.509500504E-1,2.161050081E0,2.414013144E0
1.997457862E0,1.000050068E0,-4.740000367E-1,2.122950077E0,2.394095487E0
1.999420353E0,1.039050102E0,-5.130000114E-1,2.122950077E0,2.418617613E0
2.001383169E0,1.114950061E0,-5.509500504E-1,2.008050203E0,2.361974855E0
2.003345889E0,1.153950095E0,-5.130000114E-1,1.969950080E0,2.339972895E0
2.005308667E0,1.192050099E0,-5.130000114E-1,1.777950048E0,2.201194863E0
2.007271428E0,1.153950095E0,-4.740000367E-1,1.663050056E0,2.078945007E0
2.009233820E0,1.114950061E0,-3.979500234E-1,1.663050056E0,2.041375357E0
2.011196334E0,1.114950061E0,-3.210000098E-1,1.548000097E0,1.934543601E0
2.013158966E0,1.077000022E0,-2.440500110E-1,1.510050058E0,1.870759374E0
2.015121563E0,1.039050102E0,-2.440500110E-1,1.510050058E0,1.849171896E0
2.017084362E0,9.240000248E-1,-2.059500068E-1,1.510050058E0,1.782257734E0
2.019047101E0,9.240000248E-1,-1.680000126E-1,1.510050058E0,1.778271978E0
2.021010065E0,8.470500112E-1,-1.680000126E-1,1.510050058E0,1.739531231E0
2.022972956E0,8.089500666E-1,-1.290000081E-1,1.624950051E0,1.819753797E0
2.024935345E0,7.699500322E-1,-1.290000081E-1,1.701000094E0,1.871594341E0
2.026897881E0,7.699500322E-1,-9.105000645E-2,1.816050053E0,1.974626787E0
2.028860689E0,8.089500666E-1,-1.500000060E-2,1.969950080E0,2.129631078E0
2.030823418E0,9.240000248E-1,-5.295000225E-2,2.008050203E0,2.211073352E0
2.032786199E0,1.114950061E0,-9.105000645E-2,2.046000004E0,2.331849000E0
2.034748961E0,1.192050099E0,-1.290000081E-1,2.122950077E0,2.438143037E0
2.036711552E0,1.306950092E0,-1.680000126E-1,2.161050081E0,2.531102527E0
2.038674194E0,1.306950092E0,-2.440500110E-1,2.238000154E0,2.603137269E0
2.040637119E0,1.498950124E0,-2.830500007E-1,2.314950228E0,2.772357000E0
2.042599961E0,1.614000082E0,-3.979500234E-1,2.391000032E0,2.912085445E0
2.044562734E0,1.729050040E0,-4.740000367E-1,2.545050144E0,3.113128702E0
2.046525517E0,1.843950033E0,-5.890500546E-1,2.659050226E0,3.289024141E0
2.048488508E0,2.035050154E0,-7.039500475E-1,2.736000061E0,3.481762647E0
2.050451438E0,2.188950062E0,-8.190000653E-1,2.773950100E0,3.627266552E0
2.052414001E0,2.380050182E0,-9.340500236E-1,2.851050138E0,3.829565930E0
2.054376671E0,2.494950056E0,-9.340500236E-1,2.965950251E0,3.986738782E0
2.056339285E0,2.572050095E0,-9.340500236E-1,3.004050255E0,4.063521757E0
2.058301910E0,2.649000168E0,-9.730500579E-1,2.889000177E0,4.038607474E0
2.060264658E0,2.802000046E0,-9.730500579E-1,2.773950100E0,4.061136519E0
2.062227370E0,2.839950085E0,-9.730500579E-1,2.545050144E0,3.935660445E0
2.064190149E0,3.070050240E0,-9.340500236E-1,2.275950193E0,3.934159021E0
2.066152908E0,3.223050117E0,-8.959500194E-1,1.855050087E0,3.825178339E0
2.068115500E0,3.453000069E0,-9.340500236E-1,1.432950020E0,3.853440629E0
2.070078141E0,3.607050180E0,-8.959500194E-1,9.730500579E-1,3.841921896E0
2.072041517E0,3.837000132E0,-9.340500236E-1,3.600000143E-1,3.965428031E0
2.074004678E0,4.027950287E0,-9.340500236E-1,-5.590500236E-1,4.172453701E0
2.075966840E0,4.297049999E0,-1.048950076E0,-1.939050078E0,4.829580744E0
2.077929295E0,4.564949989E0,-1.126049995E0,-3.165000200E0,5.667802331E0
2.079891906E0,4.872000217E0,-1.203000069E0,-4.353000164E0,6.643207487E0
2.081854461E0,5.140050411E0,-1.279050112E0,-5.388000488E0,7.555569911E0
2.083817087E0,5.331000328E0,-1.279050112E0,-6.117000103E0,8.214208662E0
2.085779692E0,5.560950279E0,-1.393950105E0,-6.730050087E0,8.840861897E0
2.087742670E0,5.715000153E0,-1.393950105E0,-7.075050354E0,9.201122820E0
2.089705538E0,5.868000507E0,-1.432950020E0,-7.381050587E0,9.537645594E0
2.091668107E0,5.905950069E0,-1.471050024E0,-7.534950256E0,9.686057493E0
2.093630767E0,5.905950069E0,-1.471050024E0,-7.495950222E0,9.655749796E0
2.095593734E0,5.791050434E0,-1.432950020E0,-7.381050587E0,9.490496228E0
2.097556611E0,5.638050079E0,-1.471050024E0,-7.075050354E0,9.165584236E0
2.099519363E0,5.407950401E0,-1.471050024E0,-6.423000336E0,8.524367955E0
2.101482151E0,5.101050377E0,-1.432950020E0,-6.001950264E0,8.006089412E0
2.103445114E0,4.717950344E0,-1.432950020E0,-5.656950474E0,7.504231464E0
2.105408013E0,4.143000126E0,-1.356000066E0,-5.158050060E0,6.753418886E0
2.107370985E0,3.529950142E0,-1.240950108E0,-4.890000343E0,6.157321539E0
2.109333936E0,2.917050123E0,-1.240950108E0,-4.966950417E0,5.892345461E0
2.111296811E0,2.380050182E0,-1.240950108E0,-4.966950417E0,5.645811942E0
2.113259708E0,1.843950033E0,-1.279050112E0,-5.005050182E0,5.485129738E0
2.115222275E0,1.422000051E0,-1.279050112E0,-5.082000256E0,5.429988944E0
2.117184939E0,1.306950092E0,-1.318050027E0,-4.582950115E0,4.944573407E0
2.119147591E0,1.192050099E0,-1.356000066E0,-3.625050068E0,4.049778712E0
2.121110246E0,1.039050102E0,-1.432950020E0,-2.398950100E0,2.981263567E0
2.123073169E0,9.240000248E-1,-1.471050024E0,-1.402050018E0,2.232377314E0
2.125036013E0,8.089500666E-1,-1.548000097E0,-7.890000343E-1,1.916566087E0
2.126998623E0,7.699500322E-1,-1.701000094E0,-4.819500148E-1,1.928341305E0
2.128961279E0,7.699500322E-1,-1.930950046E0,-5.209500194E-1,2.143077239E0
2.130923887E0,8.470500112E-1,-2.275950193E0,-7.120500207E-1,2.530703111E0
2.132886510E0,1.000050068E0,-2.736000061E0,-1.363950014E0,3.216544126E0
2.134849303E0,1.306950092E0,-3.426000118E0,-2.437050104E0,4.402818252E0
2.136812046E0,1.537050128E0,-4.231050014E0,-3.664050102E0,5.804271744E0
2.138775042E0,1.920000076E0,-5.035050392E0,-4.582950115E0,7.074006256E0
2.140737966E0,1.920000076E0,-5.572050095E0,-4.315050125E0,7.304368565E0
2.142701024E0,1.729050040E0,-5.839950085E0,-2.974050045E0,6.777876120E0
2.144664043E0,1.384050012E0,-5.725050449E0,-1.057050109E0,5.984074867E0
2.146625914E0,1.230000019E0,-5.380050182E0,1.011000037E0,5.610700588E0
2.148588121E0,9.619500637E-1,-4.996950150E0,2.314950228E0,5.590514581E0
2.150550060E0,6.940500140E-1,-4.651950359E0,3.118950129E0,5.643597919E0
2.152512064E0,3.490500152E-1,-4.384050369E0,3.541050196E0,5.646305876E0
2.154474963E0,1.189500093E-1,-4.231050014E0,3.808950186E0,5.694210643E0
2.156437600E0,-7.200000435E-2,-4.192049980E0,3.924000263E0,5.742494676E0
2.158400257E0,-1.870500147E-1,-4.306950092E0,3.924000263E0,5.829458369E0
2.160362908E0,-3.780000210E-1,-4.575000286E0,4.000950336E0,6.089426511E0
2.162325839E0,-6.850500107E-1,-5.188950062E0,4.078050137E0,6.635132943E0
2.164288683E0,-1.297950029E0,-6.376950264E0,4.192950249E0,7.741511528E0
2.166251125E0,-2.103000164E0,-7.948050499E0,4.231050014E0,9.246399334E0
2.168213685E0,-3.520950079E0,-9.903000832E0,4.384050369E0,1.138799423E1
2.170176309E0,-5.169000149E0,-1.227900028E1,4.806000233E0,1.416298163E1
2.172138914E0,-7.468950272E0,-1.530705070E1,5.533950329E0,1.790853500E1
2.174101706E0,-1.042005062E1,-2.009805107E1,5.419050217E0,2.327821336E1
2.176064447E0,-1.321800041E1,-2.557905197E1,4.653000355E0,2.916597070E1
2.178027401E0,-1.586295033E1,-3.155805206E1,4.231050014E0,3.557310258E1
2.179990293E0,-1.705095100E1,-3.880200195E1,4.384050369E0,4.260927344E1
2.181953178E0,-1.708905029E1,-4.635300064E1,3.963000298E0,4.956149392E1
2.183916065E0,-1.712805176E1,-5.321295166E1,3.579000235E0,5.601604792E1
2.185878877E0,-1.662900162E1,-5.919195175E1,2.965950251E0,6.155491620E1
2.187841698E0,-1.367805099E1,-6.475005341E1,1.395000100E0,6.619368943E1
2.189804998E0,-8.887050629E0,-6.984705353E1,-2.284050226E0,7.044719612E1
2.191768158E0,-2.908050060E0,-7.425495148E1,-8.683950424E0,7.481754854E1
2.193731761E0,4.066950321E0,-7.716795349E1,-1.474005032E1,7.866830502E1
2.195695234E0,1.073595047E1,-7.820295715E1,-1.845795059E1,8.106577009E1
2.197657717E0,1.598700047E1,-7.812600708E1,-1.822800064E1,8.180169420E1
2.199620481E0,1.958895111E1,-7.663095093E1,-1.508505058E1,8.052073271E1
2.201583566E0,2.142900085E1,-7.360395050E1,-1.113705063E1,7.746468553E1
2.203546556E0,2.196600151E1,-6.800805664E1,-5.887050152E0,7.170954155E1
2.205508568E0,2.158200073E1,-6.053400421E1,-1.441050053E0,6.428238520E1
2.207470866E0,2.058600044E1,-5.336700439E1,1.663050056E0,5.722400115E1
2.209433784E0,1.878404999E1,-4.715700150E1,3.426000118E0,5.087593538E1
2.211396503E0,1.644600105E1,-4.183005142E1,4.231050014E0,4.514560817E1
2.213359281E0,1.357200050E1,-3.719205093E1,3.655950069E0,3.975944946E1
2.215322042E0,1.058205032E1,-3.316800308E1,2.698050022E0,3.491956030E1
2.217285714E0,7.938000202E0,-2.975700188E1,2.008050203E0,3.086297577E1
2.219249119E0,5.752950191E0,-2.761005211E1,1.300500035E-1,2.820333892E1
2.221211915E0,3.798000097E0,-2.638395119E1,-2.130000114E0,2.674087855E1
2.223174890E0,2.111999989E0,-2.565600204E1,-3.664050102E0,2.600223544E1
2.225136903E0,8.470500112E-1,-2.546400070E1,-4.582950115E0,2.588699012E1
2.227099198E0,4.260000288E-1,-2.546400070E1,-4.660050392E0,2.589040126E1
2.229062273E0,4.260000288E-1,-2.573205185E1,-4.200000286E0,2.607604208E1
2.231025119E0,4.639500082E-1,-2.588595200E1,-3.586950064E0,2.613740559E1
2.232988757E0,7.699500322E-1,-2.623095131E1,-2.935050249E0,2.640587339E1
2.234952177E0,1.230000019E0,-2.642205048E1,-2.014950037E0,2.652730056E1
2.236914790E0,1.459950089E0,-2.634600067E1,-1.363950014E0,2.642164956E1
2.238877640E0,1.690050125E0,-2.623095131E1,-1.018950105E0,2.630508193E1
2.240840441E0,1.575000048E0,-2.603895187E1,-6.360000372E-1,2.609429317E1
2.242803256E0,1.384050012E0,-2.577105141E1,-3.670500219E-1,2.581080027E1
2.244765972E0,1.306950092E0,-2.538705063E1,-9.900000691E-2,2.542086268E1
2.246728717E0,1.269000053E0,-2.496600151E1,2.070000172E-1,2.499908881E1
2.248689688E0,9.240000248E-1,-2.446800041E1,4.750500321E-1,2.449004885E1
2.250651179E0,4.260000288E-1,-2.393100166E1,7.810500264E-1,2.394753340E1
2.252614211E0,-7.200000435E-2,-2.343300056E1,8.200500607E-1,2.344745576E1
2.254576792E0,-5.320500135E-1,-2.304900169E1,9.730500579E-1,2.307566646E1
2.256539414E0,-8.770500422E-1,-2.266605186E1,1.050000072E0,2.270730332E1
2.258502023E0,-1.144950032E0,-2.232105064E1,1.240950108E0,2.238482007E1
2.260464596E0,-1.413000107E0,-2.186100197E1,1.432950020E0,2.195343531E1
2.262427179E0,-1.642950058E0,-2.151600075E1,1.471050024E0,2.162872075E1
2.264389798E0,-1.834950089E0,-2.117100143E1,1.471050024E0,2.130122841E1
2.266352407E0,-1.987950087E0,-2.082600021E1,1.510050058E0,2.097509193E1
2.268315185E0,-2.295000076E0,-2.040495110E1,1.548000097E0,2.059187604E1
2.270277927E0,-2.371050119E0,-2.013600159E1,1.740000129E0,2.034964469E1
2.272240746E0,-2.371050119E0,-1.986795044E1,1.893000126E0,2.009827811E1
2.274203542E0,-2.371050119E0,-1.967700005E1,2.200050116E0,1.994107394E1
2.276166442E0,-2.179949999E0,-1.952295113E1,2.391000032E0,1.978925678E1
2.278129312E0,-2.179949999E0,-1.929300117E1,2.506050110E0,1.957683231E1
2.280091880E0,-2.140950203E0,-1.910205078E1,2.430000067E0,1.937464612E1
2.282054540E0,-2.218050003E0,-1.887195015E1,2.314950228E0,1.914234162E1
2.284017372E0,-2.179949999E0,-1.871805000E1,2.008050203E0,1.895124913E1
2.285980154E0,-1.950000048E0,-1.837305069E1,1.930950046E0,1.857686895E1
2.287943101E0,-1.642950058E0,-1.814295006E1,2.008050203E0,1.832752540E1
2.289906000E0,-1.489950061E0,-1.787505150E1,2.046000004E0,1.805335241E1
2.291868922E0,-1.222050071E0,-1.756905174E1,2.085000038E0,1.773449212E1
2.293831841E0,-1.068000078E0,-1.722405052E1,2.238000154E0,1.740164318E1
2.295794765E0,-9.150000215E-1,-1.680195045E1,2.314950228E0,1.698533952E1
2.297757687E0,-4.930500090E-1,-1.653404999E1,2.583000183E0,1.674185764E1
2.299720431E0,-2.250000089E-1,-1.615005112E1,2.812950134E0,1.639473893E1
2.301683228E0,8.100000024E-2,-1.584405041E1,2.851050138E0,1.609872607E1
2.303646352E0,5.410500169E-1,-1.553700066E1,3.004050255E0,1.583399641E1
2.305609380E0,1.077000022E0,-1.526895046E1,3.273000240E0,1.565290094E1
2.307572061E0,1.345050097E0,-1.484700108E1,3.388050079E0,1.528795225E1
2.309534843E0,1.690050125E0,-1.465605068E1,3.579000235E0,1.518108473E1
2.311497249E0,2.111999989E0,-1.423395061E1,3.618000269E0,1.483764874E1
2.313459766E0,2.341950178E0,-1.385100079E1,3.463950157E0,1.446837600E1
2.315422378E0,2.419050217E0,-1.335300064E1,3.118950129E0,1.392416173E1
2.317384976E0,2.649000168E0,-1.300800037E1,2.928000212E0,1.359405976E1
2.319347595E0,2.955000162E0,-1.262400055E1,2.659050226E0,1.323510347E1
2.321310207E0,3.070050240E0,-1.212600040E1,2.430000067E0,1.274244853E1
2.323272868E0,3.070050240E0,-1.166595078E1,2.046000004E0,1.223542937E1
2.325235514E0,3.070050240E0,-1.113000011E1,1.663050056E0,1.166481232E1
2.327198135E0,3.031950235E0,-1.051605034E1,1.279950023E0,1.101899764E1
2.329160757E0,2.955000162E0,-9.979950905E0,6.660000086E-1,1.042952549E1
2.331124091E0,2.992950201E0,-9.405000687E0,2.070000172E-1,9.871911559E0
2.333087217E0,3.070050240E0,-8.944950104E0,-2.520000041E-1,9.460488615E0
2.335049926E0,3.108000040E0,-8.407950401E0,-5.970000029E-1,8.983857924E0
2.337012757E0,3.223050117E0,-7.872000217E0,-8.269500136E-1,8.546360969E0
2.338975496E0,3.337950230E0,-7.297050476E0,-1.096050024E0,8.098776639E0
2.340938276E0,3.376950264E0,-6.607050419E0,-1.249050021E0,7.524429166E0
2.342901043E0,3.376950264E0,-5.955000401E0,-1.326000094E0,6.973098243E0
2.344863814E0,3.453000069E0,-5.304000378E0,-1.555950046E0,6.517408229E0
2.346826717E0,3.415050268E0,-4.729050159E0,-1.441050053E0,6.008586273E0
2.348789581E0,3.376950264E0,-4.231050014E0,-1.363950014E0,5.582646053E0
2.350752340E0,3.415050268E0,-3.771000147E0,-1.363950014E0,5.267197555E0
2.352715127E0,3.376950264E0,-3.426000118E0,-1.249050021E0,4.970049884E0
2.354677937E0,3.337950230E0,-2.926950216E0,-1.134000063E0,4.582019800E0
2.356640740E0,3.300000191E0,-2.581950188E0,-9.420000315E-1,4.294628283E0
2.358603819E0,3.262050152E0,-2.275950193E0,-8.659500480E-1,4.070723518E0
2.360566817E0,3.262050152E0,-1.930950046E0,-7.890000343E-1,3.871958203E0
2.362529773E0,3.262050152E0,-1.663050056E0,-6.739500165E-1,3.723025021E0
2.364492742E0,3.184950113E0,-1.471050024E0,-5.590500236E-1,3.552524782E0
2.366455791E0,3.184950113E0,-1.356000066E0,-5.970000029E-1,3.512698735E0
2.368418817E0,3.262050152E0,-1.164000034E0,-6.360000372E-1,3.521414960E0
2.370381589E0,3.300000191E0,-1.011000037E0,-7.510500550E-1,3.532166264E0
2.372344435E0,3.337950230E0,-8.190000653E-1,-8.269500136E-1,3.535041608E0
2.374307685E0,3.300000191E0,-5.890500546E-1,-1.018950105E0,3.503603936E0
2.376270817E0,3.262050152E0,-3.589500189E-1,-1.096050024E0,3.459933809E0
2.378233705E0,3.262050152E0,-1.680000126E-1,-1.326000094E0,3.525261898E0
2.380196665E0,3.070050240E0,-5.295000225E-2,-1.555950046E0,3.442236587E0
2.382158545E0,2.992950201E0,2.530499995E-1,-1.786050081E0,3.494532887E0
2.384120742E0,2.992950201E0,4.060500264E-1,-2.053950071E0,3.652579695E0
2.386083979E0,2.878050089E0,6.739500165E-1,-2.284050226E0,3.735540975E0
2.388046904E0,2.878050089E0,8.659500480E-1,-2.590050220E0,3.967543566E0
2.390009783E0,2.839950085E0,1.018950105E0,-2.859000206E0,4.156616169E0
2.391972675E0,2.839950085E0,1.134000063E0,-3.088950157E0,4.346594725E0
2.393935288E0,2.802000046E0,1.249050021E0,-3.433950186E0,4.604708904E0
2.395897983E0,2.764050245E0,1.402950048E0,-3.817050219E0,4.917124665E0
2.397860730E0,2.725050211E0,1.441050053E0,-4.084949970E0,5.117552165E0
2.399823486E0,2.610000134E0,1.555950046E0,-4.353000164E0,5.308643110E0
2.401786393E0,2.649000168E0,1.518000126E0,-4.507050037E0,5.443806234E0
2.403749255E0,2.533950090E0,1.671000123E0,-4.621950150E0,5.529517850E0
2.405712054E0,2.494950056E0,1.708950043E0,-4.736999989E0,5.620004886E0
2.407674872E0,2.457000017E0,1.786050081E0,-4.736999989E0,5.627254470E0
2.409637267E0,2.533950090E0,1.747950077E0,-4.736999989E0,5.649371773E0
2.411599790E0,2.572050095E0,1.747950077E0,-4.698000431E0,5.634002060E0
2.413562420E0,2.572050095E0,1.786050081E0,-4.621950150E0,5.582816473E0
2.415525019E0,2.610000134E0,1.786050081E0,-4.468050003E0,5.474079504E0
2.417487637E0,2.725050211E0,1.708950043E0,-4.353000164E0,5.412487351E0
2.419450250E0,2.878050089E0,1.708950043E0,-4.123950005E0,5.311369522E0
2.421412866E0,2.992950201E0,1.671000123E0,-3.970050097E0,5.245120598E0
2.423375481E0,3.147000074E0,1.633050084E0,-3.778950214E0,5.181787990E0
2.425338637E0,3.223050117E0,1.555950046E0,-3.510000229E0,5.012896788E0
2.427301635E0,3.415050268E0,1.479000092E0,-3.165000200E0,4.885410512E0
2.429264321E0,3.568050146E0,1.402950048E0,-2.859000206E0,4.782586420E0
2.431227098E0,3.682950258E0,1.326000094E0,-2.514000177E0,4.652160331E0
2.433190085E0,3.798000097E0,1.210950017E0,-2.169000149E0,4.538255868E0
2.435153014E0,3.913050175E0,1.210950017E0,-1.824000120E0,4.483897641E0
2.437116071E0,3.990000248E0,1.096050024E0,-1.326000094E0,4.345078122E0
2.439079091E0,4.066950321E0,1.018950105E0,-8.269500136E-1,4.273428431E0
2.441041683E0,4.105050087E0,9.430500269E-1,-2.520000041E-1,4.219512243E0
2.443004401E0,4.143000126E0,8.280000687E-1,2.830500007E-1,4.234400956E0
2.444966773E0,4.027950287E0,7.890000343E-1,7.810500264E-1,4.178150753E0
2.446929247E0,3.952050209E0,6.739500165E-1,1.279950023E0,4.208465461E0
2.448892291E0,3.874950171E0,5.209500194E-1,1.548000097E0,4.205107852E0
2.450855168E0,3.682950258E0,4.440000355E-1,1.855050087E0,4.147585980E0
2.452818054E0,3.376950264E0,3.289500177E-1,2.275950193E0,4.085578353E0
2.454780937E0,2.955000162E0,1.759500057E-1,2.583000183E0,3.928724260E0
2.456743738E0,2.494950056E0,9.900000691E-2,2.773950100E0,3.732207918E0
2.458706560E0,2.265000105E0,2.295000106E-2,2.889000177E0,3.671113483E0
2.460670175E0,1.920000076E0,-1.290000081E-1,2.965950251E0,3.535520073E0
2.462633558E0,1.690050125E0,-1.290000081E-1,3.004050255E0,3.449235910E0
2.464596087E0,1.384050012E0,-1.680000126E-1,3.043050051E0,3.347233492E0
2.466558867E0,1.269000053E0,-1.680000126E-1,3.004050255E0,3.265410093E0
2.468521630E0,1.077000022E0,-2.059500068E-1,2.889000177E0,3.090091662E0
2.470484401E0,9.240000248E-1,-2.830500007E-1,2.812950134E0,2.974320394E0
2.472446224E0,6.550500393E-1,-2.830500007E-1,2.659050226E0,2.753135660E0
2.474408324E0,4.260000288E-1,-3.210000098E-1,2.545050144E0,2.600345605E0
2.476371387E0,3.870000243E-1,-3.979500234E-1,2.430000067E0,2.492595748E0
2.478334168E0,3.109500110E-1,-3.979500234E-1,2.391000032E0,2.443754342E0
2.480297331E0,2.340000123E-1,-5.509500504E-1,2.391000032E0,2.464788656E0
2.482260389E0,2.340000123E-1,-5.890500546E-1,2.353049994E0,2.436920238E0
2.484223245E0,1.960500032E-1,-6.280500293E-1,2.353049994E0,2.443302420E0
2.486186160E0,2.340000123E-1,-6.660000086E-1,2.353049994E0,2.456655509E0
2.488148950E0,2.719500065E-1,-7.429500222E-1,2.314950228E0,2.446410861E0
2.490111776E0,1.570500135E-1,-7.039500475E-1,2.200050116E0,2.315260436E0
2.492074516E0,8.100000024E-2,-5.509500504E-1,2.046000004E0,2.120429903E0
2.494037295E0,8.100000024E-2,-4.740000367E-1,1.855050087E0,1.916363186E0
2.496000242E0,4.200000316E-2,-5.130000114E-1,1.701000094E0,1.777170316E0
2.497963139E0,8.100000024E-2,-5.130000114E-1,1.585950017E0,1.668822180E0
2.499926067E0,1.189500093E-1,-5.130000114E-1,1.471050024E0,1.562468012E0
2.501888985E0,1.189500093E-1,-4.740000367E-1,1.432950020E0,1.513991710E0
2.503852030E0,1.570500135E-1,-4.740000367E-1,1.395000100E0,1.481676760E0
2.505815048E0,1.570500135E-1,-4.740000367E-1,1.279950023E0,1.373904219E0
2.507777821E0,1.960500032E-1,-4.740000367E-1,1.087950110E0,1.202807999E0
2.509740666E0,1.960500032E-1,-4.740000367E-1,9.730500579E-1,1.099971842E0
2.511703377E0,1.570500135E-1,-4.360500276E-1,8.959500194E-1,1.008727302E0
2.513666127E0,1.189500093E-1,-3.979500234E-1,7.810500264E-1,8.846199577E-1
2.515629074E0,8.100000024E-2,-3.979500234E-1,6.660000086E-1,7.800520704E-1
2.517591966E0,8.100000024E-2,-3.589500189E-1,5.509500504E-1,6.625345833E-1
2.519554895E0,8.100000024E-2,-3.589500189E-1,5.509500504E-1,6.625345833E-1
2.521517813E0,8.100000024E-2,-3.589500189E-1,5.899500251E-1,6.953036374E-1
2.523480603E0,1.189500093E-1,-3.210000098E-1,6.280500293E-1,7.152880191E-1
2.525443430E0,1.189500093E-1,-3.210000098E-1,6.660000086E-1,7.488298354E-1
2.527406494E0,1.189500093E-1,-3.589500189E-1,5.899500251E-1,7.007390762E-1
2.529369495E0,1.570500135E-1,-3.589500189E-1,5.509500504E-1,6.760590069E-1
2.531331910E0,2.340000123E-1,-3.979500234E-1,5.509500504E-1,7.187949533E-1
2.533294497E0,3.109500110E-1,-4.360500276E-1,5.130000114E-1,7.416188695E-1
2.535257296E0,3.109500110E-1,-4.360500276E-1,5.509500504E-1,7.683589616E-1
2.537220033E0,1.960500032E-1,-4.360500276E-1,6.280500293E-1,7.893174707E-1
2.539182754E0,1.570500135E-1,-3.589500189E-1,6.660000086E-1,7.727003522E-1
2.541145487E0,1.570500135E-1,-4.360500276E-1,7.429500222E-1,8.756592196E-1
2.543108127E0,1.960500032E-1,-4.740000367E-1,8.959500194E-1,1.032394341E0
2.545070795E0,2.719500065E-1,-5.130000114E-1,1.011000037E0,1.165867442E0
2.547033401E0,2.340000123E-1,-5.130000114E-1,1.165050030E0,1.294320899E0
2.548996025E0,3.490500152E-1,-5.509500504E-1,1.356000066E0,1.504698657E0
2.550958971E0,3.870000243E-1,-5.890500546E-1,1.432950020E0,1.596901608E0
2.552921842E0,4.639500082E-1,-5.509500504E-1,1.548000097E0,1.707366355E0
2.554885495E0,5.410500169E-1,-5.130000114E-1,1.548000097E0,1.718199183E0
2.556848918E0,6.550500393E-1,-4.740000367E-1,1.585950017E0,1.780169668E0
2.558811576E0,8.470500112E-1,-5.130000114E-1,1.624950051E0,1.902925485E0
2.560774459E0,1.077000022E0,-4.740000367E-1,1.510050058E0,1.914381430E0
2.562737203E0,1.306950092E0,-5.130000114E-1,1.395000100E0,1.979220259E0
2.564699992E0,1.459950089E0,-5.509500504E-1,1.011000037E0,1.859333563E0
2.566663613E0,1.690050125E0,-5.509500504E-1,3.600000143E-1,1.813674556E0
2.568626990E0,2.035050154E0,-5.509500504E-1,-2.520000041E-1,2.123317943E0
2.570589656E0,2.419050217E0,-5.890500546E-1,-9.420000315E-1,2.661981964E0
2.572552531E0,2.878050089E0,-7.429500222E-1,-1.939050078E0,3.548952276E0
2.574515147E0,3.300000191E0,-8.190000653E-1,-2.974050045E0,4.517270861E0
2.576477839E0,3.721950293E0,-9.340500236E-1,-3.817050219E0,5.412507349E0
2.578440620E0,4.027950287E0,-1.048950076E0,-4.774950027E0,6.334416117E0
2.580403375E0,4.488000393E0,-1.126049995E0,-5.848050117E0,7.457199628E0
2.582366147E0,4.872000217E0,-1.164000034E0,-6.538050175E0,8.236345202E0
2.584328914E0,5.101050377E0,-1.164000034E0,-6.768000126E0,8.554614938E0
2.586292063E0,5.062950134E0,-1.164000034E0,-6.232050419E0,8.113372453E0
2.588255086E0,4.756950378E0,-1.048950076E0,-5.350050449E0,7.235462181E0
2.590217768E0,4.411950111E0,-7.810500264E-1,-4.429950237E0,6.300777891E0
2.592180550E0,4.027950287E0,-6.280500293E-1,-3.394950151E0,5.305140609E0
2.594143317E0,3.760050297E0,-3.589500189E-1,-2.667000055E0,4.623820135E0
2.596106088E0,3.415050268E0,-1.680000126E-1,-2.284050226E0,4.111894670E0
2.598067766E0,3.147000074E0,-1.290000081E-1,-2.284050226E0,3.890647235E0
2.600029771E0,2.802000046E0,6.105000153E-2,-2.437050104E0,3.714046926E0
2.601992535E0,2.457000017E0,2.910000086E-1,-2.590050220E0,3.581883615E0
2.603955076E0,2.188950062E0,3.289500177E-1,-2.935050249E0,3.676170623E0
2.605917840E0,1.882050037E0,3.679500222E-1,-3.241950035E0,3.766661598E0
2.607880538E0,1.459950089E0,3.289500177E-1,-3.357000113E0,3.675474409E0
2.609843107E0,1.192050099E0,3.679500222E-1,-3.357000113E0,3.581315459E0
2.611805738E0,8.470500112E-1,3.679500222E-1,-3.165000200E0,3.296984563E0
2.613767494E0,3.870000243E-1,4.830000103E-1,-2.859000206E0,2.925224813E0
2.615729507E0,8.100000024E-2,5.980500579E-1,-2.514000177E0,2.585424871E0
2.617692540E0,-2.629500031E-1,7.129500508E-1,-2.359950066E0,2.479275054E0
2.619655274E0,-3.400500119E-1,7.510500550E-1,-2.169000149E0,2.320403379E0
2.621618080E0,-4.170000255E-1,8.659500480E-1,-2.014950037E0,2.232438612E0
2.623580875E0,-6.469500065E-1,9.430500269E-1,-1.632000089E0,1.992815083E0
2.625543775E0,-6.079500318E-1,8.659500480E-1,-1.057050109E0,1.495602775E0
2.627506644E0,-4.549500346E-1,6.739500165E-1,-4.819500148E-1,9.452322337E-1
2.629468361E0,-1.870500147E-1,5.980500579E-1,5.295000225E-2,6.288523535E-1
2.631430415E0,1.189500093E-1,4.060500264E-1,4.360500276E-1,6.075897919E-1
2.633394708E0,5.410500169E-1,1.380000114E-1,5.509500504E-1,7.844265943E-1
2.635358341E0,1.000050068E0,-5.295000225E-2,5.899500251E-1,1.162301541E0
2.637321009E0,1.345050097E0,-2.059500068E-1,3.979500234E-1,1.417723312E0
2.639283959E0,1.537050128E0,-4.740000367E-1,3.220500052E-1,1.640400968E0
2.641247237E0,1.767000079E0,-7.039500475E-1,2.830500007E-1,1.923006046E0
2.643210418E0,1.843950033E0,-9.340500236E-1,2.830500007E-1,2.086316964E0
2.645171690E0,1.959000111E0,-1.164000034E0,3.600000143E-1,2.306984509E0
2.647133511E0,2.074050188E0,-1.548000097E0,3.600000143E-1,2.612965460E0
2.649096036E0,2.188950062E0,-1.816050053E0,4.750500321E-1,2.883611052E0
2.651058355E0,2.265000105E0,-2.122950077E0,4.750500321E-1,3.140511907E0
2.653021968E0,2.227050066E0,-2.428950071E0,3.220500052E-1,3.311082399E0
2.654985201E0,2.149950027E0,-2.812050104E0,-2.205000073E-2,3.539830096E0
2.656946816E0,1.843950033E0,-3.004050255E0,-9.900000691E-2,3.526226121E0
2.658908901E0,1.498950124E0,-3.118950129E0,3.600000143E-1,3.479123652E0
2.660871246E0,1.269000053E0,-3.081000090E0,9.730500579E-1,3.471274853E0
2.662833514E0,9.240000248E-1,-2.926950216E0,1.548000097E0,3.437603513E0
2.664794928E0,4.639500082E-1,-2.889000177E0,2.046000004E0,3.570390406E0
2.666756593E0,1.570500135E-1,-2.889000177E0,2.851050138E0,4.061954409E0
2.668719311E0,-1.480500102E-1,-3.042000055E0,3.310950041E0,4.498674618E0
2.670681731E0,-4.930500090E-1,-3.387000084E0,3.771000147E0,5.092672185E0
2.672644785E0,-9.529500604E-1,-4.039050102E0,4.116000175E0,5.844954832E0
2.674607654E0,-1.642950058E0,-5.149950027E0,4.345950127E0,6.936032921E0
2.676570002E0,-2.601000071E0,-6.721950531E0,4.690950394E0,8.599699757E0
2.678532502E0,-3.981000185E0,-8.677050591E0,4.882050037E0,1.072259213E1
2.680495181E0,-5.935950279E0,-1.162800026E1,5.151000023E0,1.403490994E1
2.682457808E0,-8.311950684E0,-1.611194992E1,5.917050362E0,1.907078759E1
2.684420423E0,-1.076505089E1,-2.228295135E1,6.760950089E0,2.565397996E1
2.686383041E0,-1.272000027E1,-2.956500053E1,7.066950321E0,3.295192635E1
2.688345790E0,-1.463595104E1,-3.753705215E1,7.756950378E0,4.102939954E1
2.690308500E0,-1.643805122E1,-4.547100067E1,9.750000000E0,4.932427323E1
2.692271133E0,-1.781700134E1,-5.236995316E1,1.204995060E1,5.661500543E1
2.694233766E0,-1.793205070E1,-5.838705444E1,1.446405029E1,6.276794819E1
2.696196063E0,-1.636095047E1,-6.394500351E1,1.695600128E1,6.814800183E1
2.698158458E0,-1.268205070E1,-6.819900513E1,1.806705093E1,7.168233422E1
2.700121426E0,-7.507050514E0,-7.061400604E1,1.871895027E1,7.343767940E1
2.702084226E0,-1.681950092E0,-7.138005066E1,1.898700142E1,7.388130218E1
2.704047336E0,3.837000132E0,-7.103594971E1,1.894905090E1,7.361993786E1
2.706010365E0,8.665950775E0,-6.992400360E1,1.845000076E1,7.283452142E1
2.707972730E0,1.246005058E1,-6.854400635E1,1.718595123E1,7.175577041E1
2.709935290E0,1.636995125E1,-6.731805420E1,1.411905098E1,7.070391309E1
2.711898320E0,1.978095055E1,-6.551595306E1,8.446949959E0,6.895634180E1
2.713861212E0,2.361405182E1,-6.337005234E1,-3.970050097E0,6.774325261E1
2.715823945E0,3.216105270E1,-6.168405151E1,-4.045800018E1,8.047425241E1
2.717786704E0,3.545700073E1,-5.873205185E1,-5.276100159E1,8.654695895E1
2.719749474E0,3.580200195E1,-5.528295135E1,-5.195595169E1,8.388926612E1
2.721712241E0,3.258195114E1,-5.102895355E1,-4.440600204E1,7.508282532E1
2.723675010E0,2.706300163E1,-4.612305069E1,-2.884500122E1,6.075998649E1
2.725637779E0,2.173605156E1,-4.167705154E1,-1.462500095E1,4.922726090E1
2.727599497E0,1.709805107E1,-3.792000198E1,-4.009050369E0,4.178926161E1
2.729561534E0,1.215405083E1,-3.450900269E1,3.426000118E0,3.674683244E1
2.731524248E0,7.018050194E0,-3.098295212E1,8.179050446E0,3.280385978E1
2.733486763E0,3.223050117E0,-2.872200203E1,8.869050026E0,3.023245774E1
2.735448450E0,9.240000248E-1,-2.711205101E1,7.335000515E0,2.810194510E1
2.737410380E0,3.109500110E-1,-2.580900192E1,4.882050037E0,2.626853027E1
2.739373302E0,2.719500065E-1,-2.465895081E1,2.620950222E0,2.479933853E1
2.741335927E0,1.960500032E-1,-2.358600044E1,3.600000143E-1,2.358956236E1
2.743299127E0,4.200000316E-2,-2.274300194E1,-1.900950074E0,2.282234678E1
2.745262158E0,-2.629500031E-1,-2.212995148E1,-3.739950180E0,2.244529177E1
2.747224883E0,-7.999500632E-1,-2.151600075E1,-5.158050060E0,2.214009234E1
2.749187698E0,-1.183050036E0,-2.124795151E1,-5.925000191E0,2.209028470E1
2.751150598E0,-1.375050068E0,-2.132505035E1,-5.962950230E0,2.218570059E1
2.753113470E0,-1.297950029E0,-2.136300087E1,-5.235000134E0,2.203333172E1
2.755076223E0,-9.529500604E-1,-2.147805023E1,-4.084949970E0,2.188381986E1
2.757039011E0,-7.230000496E-1,-2.155500031E1,-2.896950245E0,2.176081542E1
2.759001777E0,-3.780000210E-1,-2.170800018E1,-1.824000120E0,2.178777484E1
2.760964549E0,-7.200000435E-2,-2.182305145E1,-9.810000658E-1,2.184520817E1
2.762927133E0,-1.480500102E-1,-2.190000153E1,-2.910000086E-1,2.190243518E1
2.764889775E0,-1.480500102E-1,-2.201505089E1,1.300500035E-1,2.201593281E1
2.766851665E0,-1.870500147E-1,-2.201505089E1,4.750500321E-1,2.202097014E1
2.768813775E0,-3.780000210E-1,-2.193795013E1,7.810500264E-1,2.195510372E1
2.770776521E0,-4.170000255E-1,-2.197605133E1,1.165050030E0,2.201086238E1
2.772739081E0,-7.230000496E-1,-2.186100197E1,1.356000066E0,2.191494632E1
2.774701872E0,-8.380500674E-1,-2.170800018E1,1.510050058E0,2.177658952E1
2.776664605E0,-9.529500604E-1,-2.155500031E1,1.585950017E0,2.163426425E1
2.778627381E0,-1.183050036E0,-2.136300087E1,1.777950048E0,2.146947880E1
2.780590144E0,-1.222050071E0,-2.121000099E1,1.777950048E0,2.131944312E1
2.782553095E0,-1.375050068E0,-2.098005104E1,1.893000126E0,2.111011023E1
2.784515990E0,-1.260000110E0,-2.086500168E1,2.046000004E0,2.100290483E1
2.786478918E0,-1.413000107E0,-2.063505173E1,2.122950077E0,2.079203805E1
2.788441836E0,-1.452000022E0,-2.032800102E1,2.122950077E0,2.049006702E1
2.790404716E0,-1.528050065E0,-2.002200127E1,2.008050203E0,2.018038001E1
2.792367607E0,-1.452000022E0,-1.975305176E1,1.969950080E0,1.990407147E1
2.794330580E0,-1.413000107E0,-1.952295113E1,1.893000126E0,1.966534107E1
2.796293528E0,-1.297950029E0,-1.917795181E1,1.855050087E0,1.931112946E1
2.798256223E0,-1.144950032E0,-1.891005135E1,1.740000129E0,1.902441991E1
2.800218992E0,-8.770500422E-1,-1.867995071E1,1.740000129E0,1.878130389E1
2.802181626E0,-6.850500107E-1,-1.845000076E1,1.624950051E0,1.853408439E1
2.804144300E0,-4.170000255E-1,-1.829700089E1,1.585950017E0,1.837033935E1
2.806106725E0,-3.019500077E-1,-1.818195152E1,1.585950017E0,1.825348658E1
2.808069223E0,-1.480500102E-1,-1.802805138E1,1.624950051E0,1.810174074E1
2.810032192E0,8.100000024E-2,-1.787505150E1,1.777950048E0,1.796343880E1
2.811995009E0,4.260000288E-1,-1.764495087E1,2.008050203E0,1.776395318E1
2.813958311E0,8.850000501E-1,-1.733895111E1,2.314950228E0,1.751517757E1
2.815921471E0,1.230000019E0,-1.703205109E1,2.583000183E0,1.727065587E1
2.817884354E0,1.306950092E0,-1.680195045E1,2.773950100E0,1.707947472E1
2.819847319E0,1.459950089E0,-1.641900063E1,2.851050138E0,1.672852422E1
2.821810034E0,1.690050125E0,-1.611194992E1,3.004050255E0,1.647651412E1
2.823772837E0,1.959000111E0,-1.565205097E1,3.234000206E0,1.610227122E1
2.825735780E0,2.227050066E0,-1.523100090E1,3.196050167E0,1.572125558E1
2.827698681E0,2.265000105E0,-1.465605068E1,3.157950163E0,1.516254254E1
2.829661249E0,2.304000139E0,-1.411905098E1,3.043050051E0,1.462587334E1
2.831623914E0,2.419050217E0,-1.358205032E1,3.043050051E0,1.412742187E1
2.833586552E0,2.457000017E0,-1.312305069E1,2.965950251E0,1.367655546E1
2.835549208E0,2.457000017E0,-1.266300106E1,2.889000177E0,1.321872789E1
2.837511816E0,2.457000017E0,-1.212600040E1,2.620950222E0,1.264698047E1
2.839474439E0,2.494950056E0,-1.158900070E1,2.391000032E0,1.209324581E1
2.841437548E0,2.533950090E0,-1.105305099E1,2.200050116E0,1.155123629E1
2.843400514E0,2.649000168E0,-1.051605034E1,2.008050203E0,1.102890667E1
2.845363281E0,2.649000168E0,-9.979950905E0,1.701000094E0,1.046470369E1
2.847326117E0,2.649000168E0,-9.405000687E0,1.471050024E0,9.881053991E0
2.849288695E0,2.649000168E0,-8.830050468E0,1.203000069E0,9.296999641E0
2.851251348E0,2.610000134E0,-8.217000008E0,8.959500194E-1,8.667982248E0
2.853215037E0,2.610000134E0,-7.527000427E0,5.509500504E-1,7.985698597E0
2.855178423E0,2.572050095E0,-6.952050209E0,2.449500114E-1,7.416632949E0
2.857141267E0,2.610000134E0,-6.339000225E0,-6.105000153E-2,6.855563555E0
2.859104270E0,2.649000168E0,-5.649000168E0,-2.140500098E-1,6.242933781E0
2.861066774E0,2.649000168E0,-5.149950027E0,-4.060500264E-1,5.805520114E0
2.863029424E0,2.725050211E0,-4.537050247E0,-4.819500148E-1,5.314414306E0
2.864992033E0,2.686950207E0,-3.961950302E0,-5.970000029E-1,4.824226426E0
2.866954654E0,2.764050245E0,-3.426000118E0,-5.970000029E-1,4.442280897E0
2.868917153E0,2.764050245E0,-2.851050138E0,-5.970000029E-1,4.015578371E0
2.870879674E0,2.839950085E0,-2.391000032E0,-5.209500194E-1,3.748811353E0
2.872842440E0,2.839950085E0,-1.854000092E0,-4.060500264E-1,3.415773623E0
2.874805134E0,2.725050211E0,-1.471050024E0,-2.520000041E-1,3.106990638E0
2.876767961E0,2.572050095E0,-1.011000037E0,-2.140500098E-1,2.771891082E0
2.878730749E0,2.380050182E0,-5.890500546E-1,-1.369500011E-1,2.455682011E0
2.880693316E0,2.265000105E0,-2.440500110E-1,-1.759500057E-1,2.284894809E0
2.882655962E0,2.111999989E0,-1.290000081E-1,-2.520000041E-1,2.130889241E0
2.884617986E0,1.959000111E0,6.105000153E-2,-2.520000041E-1,1.976085155E0
2.886580193E0,1.729050040E0,2.530499995E-1,-3.289500177E-1,1.778160976E0
2.888542742E0,1.575000048E0,5.209500194E-1,-4.440000355E-1,1.717308972E0
2.890505191E0,1.459950089E0,7.510500550E-1,-5.970000029E-1,1.746980095E0
2.892468210E0,1.384050012E0,9.430500269E-1,-7.890000343E-1,1.851339742E0
2.894431052E0,1.306950092E0,1.018950105E0,-8.269500136E-1,1.852086441E0
2.896393810E0,1.306950092E0,1.057950020E0,-9.420000315E-1,1.927366298E0
2.898356593E0,1.306950092E0,1.210950017E0,-1.057050109E0,2.071683716E0
2.900319494E0,1.269000053E0,1.288050056E0,-1.171950102E0,2.154739224E0
2.902282360E0,1.269000053E0,1.288050056E0,-1.326000094E0,2.242255635E0
2.904244745E0,1.230000019E0,1.326000094E0,-1.479000092E0,2.336368457E0
2.906207309E0,1.192050099E0,1.363950014E0,-1.671000123E0,2.464464342E0
2.908170067E0,1.153950095E0,1.402950048E0,-1.786050081E0,2.547517331E0
2.910132768E0,1.153950095E0,1.441050053E0,-2.014950037E0,2.732809859E0
2.912095549E0,1.153950095E0,1.479000092E0,-2.169000149E0,2.867682643E0
2.914058307E0,1.153950095E0,1.479000092E0,-2.245050192E0,2.925626849E0
2.916020719E0,1.153950095E0,1.555950046E0,-2.475000143E0,3.142961513E0
2.917983232E0,1.192050099E0,1.518000126E0,-2.667000055E0,3.292141722E0
2.919945864E0,1.153950095E0,1.594050050E0,-2.820000172E0,3.438749388E0
2.921908461E0,1.192050099E0,1.671000123E0,-2.935050249E0,3.581584121E0
2.923870945E0,1.153950095E0,1.671000123E0,-3.127050161E0,3.728576799E0
2.925833463E0,1.114950061E0,1.786050081E0,-3.357000113E0,3.962642841E0
2.927796238E0,1.192050099E0,1.786050081E0,-3.625050068E0,4.213305867E0
2.929758931E0,1.192050099E0,1.786050081E0,-3.778950214E0,4.346426470E0
2.931721579E0,1.230000019E0,1.824000120E0,-3.817050219E0,4.405649652E0
2.933684241E0,1.269000053E0,1.863000035E0,-3.970050097E0,4.565350812E0
2.935646848E0,1.306950092E0,1.939050078E0,-3.970050097E0,4.607529872E0
2.937609472E0,1.384050012E0,1.978050113E0,-3.931950092E0,4.613947140E0
2.939572086E0,1.498950124E0,1.978050113E0,-3.931950092E0,4.649705932E0
2.941534703E0,1.575000048E0,2.053950071E0,-3.931950092E0,4.707394988E0
2.943497318E0,1.729050040E0,2.016000032E0,-3.855000257E0,4.681334976E0
2.945459933E0,1.920000076E0,2.092950106E0,-3.739950180E0,4.696175868E0
2.947422548E0,2.149950027E0,2.092950106E0,-3.625050068E0,4.705710707E0
2.949385163E0,2.227050066E0,2.092950106E0,-3.394950151E0,4.567918418E0
2.951347959E0,2.419050217E0,2.131050110E0,-3.241950035E0,4.572025651E0
2.953310701E0,2.494950056E0,2.169000149E0,-3.049950123E0,4.497947663E0
2.955273115E0,2.649000168E0,2.092950106E0,-2.820000172E0,4.398868377E0
2.957235626E0,2.764050245E0,2.131050110E0,-2.629050016E0,4.369582625E0
2.959198258E0,2.878050089E0,2.092950106E0,-2.437050104E0,4.313099311E0
2.961160854E0,2.992950201E0,2.053950071E0,-2.169000149E0,4.228595919E0
2.963123634E0,3.070050240E0,2.053950071E0,-1.861950040E0,4.136517535E0
2.965086374E0,3.147000074E0,2.016000032E0,-1.516950130E0,4.033485254E0
2.967049283E0,3.184950113E0,1.939050078E0,-1.171950102E0,3.908617335E0
2.969012143E0,3.223050117E0,1.900950074E0,-8.269500136E-1,3.832167738E0
2.970974537E0,3.262050152E0,1.786050081E0,-4.819500148E-1,3.750096252E0
2.972937068E0,3.300000191E0,1.708950043E0,-1.369500011E-1,3.718772218E0
2.974898651E0,3.262050152E0,1.555950046E0,1.300500035E-1,3.616471311E0
2.976860487E0,3.184950113E0,1.441050053E0,4.360500276E-1,3.522878384E0
2.978823280E0,3.108000040E0,1.288050056E0,6.660000086E-1,3.429619980E0
2.980785793E0,2.955000162E0,1.096050024E0,1.087950110E0,3.334214609E0
2.982748426E0,2.457000017E0,8.280000687E-1,1.165050030E0,2.842494463E0
2.984711023E0,1.959000111E0,4.060500264E-1,1.240950108E0,2.354254707E0
2.986674711E0,1.575000048E0,9.900000691E-2,1.318050027E0,2.056132784E0
2.988638056E0,1.306950092E0,-9.105000645E-2,1.318050027E0,1.858403756E0
2.990600547E0,1.153950095E0,-1.680000126E-1,1.318050027E0,1.759852465E0
2.992563289E0,8.470500112E-1,-2.059500068E-1,1.356000066E0,1.612031422E0
2.994524981E0,6.550500393E-1,-2.059500068E-1,1.395000100E0,1.554841226E0
2.996486981E0,4.260000288E-1,-2.440500110E-1,1.471050024E0,1.550814175E0
2.998449507E0,3.109500110E-1,-2.440500110E-1,1.471050024E0,1.523232907E0
3.000411889E0,2.719500065E-1,-3.210000098E-1,1.510050058E0,1.567561479E0
3.002374544E0,1.570500135E-1,-3.210000098E-1,1.510050058E0,1.551759289E0
3.004337119E0,1.570500135E-1,-2.830500007E-1,1.510050058E0,1.544355266E0
3.006299742E0,1.189500093E-1,-3.210000098E-1,1.585950017E0,1.622475752E0
3.008262350E0,8.100000024E-2,-3.210000098E-1,1.585950017E0,1.620135631E0
3.010224777E0,8.100000024E-2,-3.589500189E-1,1.663050056E0,1.703273790E0
3.012187265E0,4.050000105E-3,-3.210000098E-1,1.740000129E0,1.769366513E0
3.014149946E0,4.050000105E-3,-3.210000098E-1,1.777950048E0,1.806699694E0
3.016112571E0,-7.200000435E-2,-2.830500007E-1,1.701000094E0,1.725891835E0
3.018075006E0,-3.299999982E-2,-2.830500007E-1,1.777950048E0,1.800642296E0
3.020037496E0,-3.299999982E-2,-3.210000098E-1,1.740000129E0,1.769669589E0
3.022000267E0,4.050000105E-3,-3.210000098E-1,1.740000129E0,1.769366513E0
3.023962956E0,4.050000105E-3,-3.210000098E-1,1.701000094E0,1.731028229E0
3.025925559E0,4.050000105E-3,-3.979500234E-1,1.701000094E0,1.746935014E0
3.027888188E0,4.200000316E-2,-4.360500276E-1,1.701000094E0,1.756503615E0
3.029850621E0,8.100000024E-2,-5.130000114E-1,1.663050056E0,1.742258735E0
3.031813111E0,8.100000024E-2,-4.740000367E-1,1.585950017E0,1.657249073E0
3.033775802E0,1.189500093E-1,-5.130000114E-1,1.548000097E0,1.635121530E0
3.035738427E0,1.189500093E-1,-5.509500504E-1,1.510050058E0,1.611814580E0
3.037700997E0,8.100000024E-2,-5.130000114E-1,1.471050024E0,1.560037879E0
3.039663583E0,8.100000024E-2,-5.130000114E-1,1.510050058E0,1.596866053E0
3.041626202E0,8.100000024E-2,-5.509500504E-1,1.510050058E0,1.609458958E0
3.043588812E0,1.189500093E-1,-5.890500546E-1,1.510050058E0,1.625232368E0
3.045551443E0,1.960500032E-1,-7.039500475E-1,1.510050058E0,1.677567421E0
3.047514057E0,1.189500093E-1,-6.660000086E-1,1.510050058E0,1.654677097E0
3.049476539E0,1.570500135E-1,-7.810500264E-1,1.548000097E0,1.740979078E0
3.051439059E0,1.960500032E-1,-7.810500264E-1,1.510050058E0,1.711352075E0
3.053401465E0,2.719500065E-1,-8.190000653E-1,1.585950017E0,1.805534649E0
3.055363905E0,2.719500065E-1,-8.959500194E-1,1.663050056E0,1.908512177E0
3.057326350E0,3.490500152E-1,-1.011000037E0,1.777950048E0,2.074864661E0
3.059288807E0,3.490500152E-1,-1.011000037E0,1.777950048E0,2.074864661E0
3.061251314E0,3.109500110E-1,-1.011000037E0,1.855050087E0,2.135420757E0
3.063213807E0,3.870000243E-1,-1.126049995E0,1.855050087E0,2.204306793E0
3.065176398E0,3.870000243E-1,-1.164000034E0,1.930950046E0,2.287626101E0
3.067138961E0,3.870000243E-1,-1.164000034E0,1.930950046E0,2.287626101E0
3.069101290E0,4.260000288E-1,-1.240950108E0,1.893000126E0,2.303233091E0
3.071063674E0,5.020500422E-1,-1.279050112E0,1.855050087E0,2.308513430E0
3.073026643E0,6.169500351E-1,-1.318050027E0,1.701000094E0,2.238589855E0
3.074989441E0,7.320000529E-1,-1.356000066E0,1.585950017E0,2.211288699E0
3.076951891E0,8.850000501E-1,-1.393950105E0,1.432950020E0,2.186245124E0
3.078914443E0,1.077000022E0,-1.471050024E0,1.126049995E0,2.142873261E0
3.080877614E0,1.306950092E0,-1.509000063E0,5.899500251E-1,2.081643765E0
3.082840600E0,1.459950089E0,-1.548000097E0,-9.900000691E-2,2.130154822E0
3.084802612E0,1.767000079E0,-1.585950017E0,-7.120500207E-1,2.478818664E0
3.086764910E0,2.227050066E0,-1.663050056E0,-1.402050018E0,3.113074322E0
3.088727353E0,2.533950090E0,-1.663050056E0,-1.939050078E0,3.598131981E0
3.090689754E0,2.878050089E0,-1.663050056E0,-2.398950100E0,4.099252296E0
3.092651945E0,3.184950113E0,-1.663050056E0,-2.820000172E0,4.567498624E0
3.094614174E0,3.492000103E0,-1.663050056E0,-3.165000200E0,4.997702119E0
3.096576314E0,3.607050180E0,-1.663050056E0,-3.357000113E0,5.200576530E0
3.098538481E0,3.760050297E0,-1.548000097E0,-3.472050190E0,5.346907055E0
3.100500992E0,3.913050175E0,-1.585950017E0,-3.510000229E0,5.490655765E0
3.102463402E0,4.143000126E0,-1.624050021E0,-3.549000263E0,5.691870640E0
3.104425523E0,4.258049965E0,-1.624050021E0,-3.394950151E0,5.682799883E0
3.106387722E0,4.335000038E0,-1.701000094E0,-2.896950245E0,5.484336548E0
3.108350002E0,4.372950077E0,-1.624050021E0,-2.284050226E0,5.193949969E0
3.110312258E0,4.335000038E0,-1.585950017E0,-1.287000060E0,4.792059259E0
3.112273540E0,4.105050087E0,-1.471050024E0,-3.289500177E-1,4.373057569E0
3.114235107E0,3.913050175E0,-1.356000066E0,6.660000086E-1,4.194550496E0
3.116197851E0,3.874950171E0,-1.240950108E0,1.548000097E0,4.353332091E0
3.118160254E0,3.874950171E0,-1.164000034E0,2.314950228E0,4.661451433E0
3.120122546E0,3.837000132E0,-1.126049995E0,2.736000061E0,4.845230122E0
3.122084871E0,3.874950171E0,-1.048950076E0,2.965950251E0,4.991231910E0
3.124047175E0,3.760050297E0,-1.011000037E0,3.118950129E0,4.988782338E0
3.126009486E0,3.798000097E0,-9.730500579E-1,2.889000177E0,4.870108128E0
3.127971788E0,3.721950293E0,-8.580000401E-1,2.506050110E0,4.568300034E0
3.129934097E0,3.682950258E0,-7.429500222E-1,1.701000094E0,4.124257347E0
3.131897124E0,3.607050180E0,-6.280500293E-1,7.810500264E-1,3.743700975E0
3.133859941E0,3.529950142E0,-6.280500293E-1,-3.289500177E-1,3.600444828E0
3.135822162E0,3.415050268E0,-5.890500546E-1,-1.096050024E0,3.634676596E0
3.137784558E0,3.453000069E0,-6.280500293E-1,-1.671000123E0,3.887145190E0
3.139746868E0,3.529950142E0,-7.039500475E-1,-2.053950071E0,4.144249579E0
3.141709223E0,3.529950142E0,-8.580000401E-1,-2.475000143E0,4.395718119E0
3.143671657E0,3.682950258E0,-1.203000069E0,-2.896950245E0,4.837732164E0
3.145634067E0,3.760050297E0,-1.548000097E0,-3.433950186E0,5.322245430E0
3.147596583E0,3.837000132E0,-1.930950046E0,-4.009050369E0,5.875680637E0
3.149559067E0,3.837000132E0,-2.314050198E0,-4.507050037E0,6.355383416E0
3.151521540E0,3.952050209E0,-2.620950222E0,-4.582950115E0,6.594809526E0
3.153484006E0,3.913050175E0,-3.042000055E0,-4.813050270E0,6.908775500E0
3.155446781E0,3.837000132E0,-3.502050161E0,-5.158050060E0,7.320683422E0
3.157409465E0,3.798000097E0,-3.961950302E0,-5.772000313E0,7.964787665E0
3.159372294E0,3.760050297E0,-4.614000320E0,-6.652950287E0,8.926854133E0
3.161335081E0,3.645000219E0,-5.419050217E0,-7.840950489E0,1.020453999E1
3.163297770E0,3.262050152E0,-6.339000225E0,-8.914050102E0,1.141420975E1
3.165260511E0,2.572050095E0,-7.105050564E0,-8.416049957E0,1.131048549E1
3.167223284E0,2.035050154E0,-7.564950466E0,-5.962950230E0,9.845134845E0
3.169186048E0,1.575000048E0,-7.717950344E0,-2.551950216E0,8.280086507E0
3.171147918E0,1.306950092E0,-7.527000427E0,8.200500607E-1,7.683510661E0
3.173110050E0,1.269000053E0,-7.182000160E0,3.310950041E0,8.009611577E0
3.175072963E0,1.114950061E0,-6.721950531E0,5.112000465E0,8.518232289E0
3.177035654E0,9.240000248E-1,-6.223950386E0,6.492000103E0,9.040873840E0
3.178997537E0,5.020500422E-1,-5.994000435E0,7.527000427E0,9.635135229E0
3.180959656E0,1.960500032E-1,-6.415050507E0,8.524050713E0,1.067008665E1
3.182922671E0,-4.170000255E-1,-8.025000572E0,8.715000153E0,1.185435578E1
3.184885423E0,-1.528050065E0,-1.036305046E1,8.754000664E0,1.365138379E1
3.186848056E0,-3.636000156E0,-1.273905087E1,8.869050026E0,1.594252058E1
3.188810728E0,-5.782950401E0,-1.530705070E1,9.634950638E0,1.898895970E1
3.190773289E0,-7.776000500E0,-1.760700035E1,1.036305046E1,2.186013403E1
3.192735882E0,-1.026705074E1,-1.975305176E1,1.047795010E1,2.460452850E1
3.194698366E0,-1.256700039E1,-2.278095055E1,1.090005016E1,2.820837287E1
3.196660882E0,-1.444500065E1,-2.680500221E1,1.143705082E1,3.252648642E1
3.198623834E0,-1.532595062E1,-3.263100052E1,1.135995007E1,3.779835212E1
3.200586654E0,-1.517295074E1,-3.964500046E1,1.040205002E1,4.370523012E1
3.202549416E0,-1.494300079E1,-4.631400299E1,9.214050293E0,4.952957570E1
3.204512195E0,-1.413795090E1,-5.236995316E1,7.795050144E0,5.480197493E1
3.206475142E0,-1.214505100E1,-5.788905334E1,5.227050304E0,5.937985194E1
3.208438039E0,-8.236050606E0,-6.287205124E1,3.220500052E-1,6.341002344E1
3.210402409E0,-1.911000133E0,-6.777795410E1,-1.240200043E1,6.892976569E1
3.212366347E0,5.331000328E0,-7.149495697E1,-2.301900101E1,7.529822604E1
3.214329322E0,1.138695049E1,-7.379505157E1,-2.608500099E1,7.909361261E1
3.216292579E0,1.663800049E1,-7.494495392E1,-2.850000191E1,8.188906696E1
3.218255084E0,1.912905121E1,-7.371795654E1,-2.612400055E1,8.051534712E1
3.220217810E0,2.035605049E1,-7.030695343E1,-1.933995056E1,7.570647383E1
3.222180526E0,1.993395042E1,-6.406005096E1,-1.198095036E1,6.815127057E1
3.224143255E0,1.878404999E1,-5.696895218E1,-6.078000069E0,6.029298575E1
3.226104996E0,1.771095085E1,-5.064495087E1,-1.824000120E0,5.368347795E1
3.228067026E0,1.667595100E1,-4.512600327E1,9.730500579E-1,4.811850308E1
3.230029921E0,1.514295101E1,-4.052700043E1,2.698050022E0,4.334773585E1
3.231992562E0,1.334205055E1,-3.654104996E1,3.310950041E0,3.904127348E1
3.233955110E0,1.138695049E1,-3.316800308E1,2.467950106E0,3.515494059E1
3.235917699E0,9.471000671E0,-3.044700050E1,1.050000072E0,3.190332574E1
3.237881399E0,8.167950630E0,-2.826195145E1,-6.360000372E-1,2.942546199E1
3.239844774E0,7.132950306E0,-2.653695107E1,-2.359950066E0,2.758003111E1
3.241807441E0,6.213000298E0,-2.534895134E1,-3.855000257E0,2.638241334E1
3.243770315E0,5.370000362E0,-2.454405022E1,-5.119950294E0,2.564100614E1
3.245732945E0,4.756950378E0,-2.423805046E1,-5.580000401E0,2.532287645E1
3.247695636E0,4.372950077E0,-2.412300110E1,-5.772000313E0,2.518646188E1
3.249658193E0,4.335000038E0,-2.423805046E1,-5.311950207E0,2.518912723E1
3.251620790E0,4.564949989E0,-2.446800041E1,-4.621950150E0,2.531569149E1
3.253583588E0,4.717950344E0,-2.469705200E1,-3.739950180E0,2.542028049E1
3.255546327E0,4.680000305E0,-2.500395203E1,-2.935050249E0,2.560692367E1
3.257508574E0,4.564949989E0,-2.519595146E1,-2.245050192E0,2.570437684E1
3.259470988E0,4.182000160E0,-2.531100082E1,-1.861950040E0,2.572163964E1
3.261433637E0,3.529950142E0,-2.531100082E1,-1.555950046E0,2.560328673E1
3.263396217E0,2.955000162E0,-2.515695190E1,-1.249050021E0,2.536068574E1
3.265359019E0,2.380050182E0,-2.492700195E1,-1.134000063E0,2.506603322E1
