"Time (s)","Acceleration x (m/s^2)","Acceleration y (m/s^2)","Acceleration z (m/s^2)","Absolute acceleration (m/s^2)"
3.149366200E-2,1.422000051E0,-1.300800037E1,1.432950020E0,1.316371922E1
3.345612500E-2,1.651950121E0,-1.254795074E1,1.356000066E0,1.272865835E1
3.542112300E-2,1.920000076E0,-1.224105072E1,1.318050027E0,1.246061712E1
3.738459100E-2,2.074050188E0,-1.178100014E1,1.240950108E0,1.202637126E1
3.934850800E-2,2.341950178E0,-1.132095051E1,1.203000069E0,1.162307447E1
4.131230200E-2,2.533950090E0,-1.097595024E1,1.126049995E0,1.132079394E1
4.327612800E-2,2.686950207E0,-1.059300041E1,1.165050030E0,1.099039129E1
4.523997600E-2,2.764050245E0,-1.001805019E1,1.203000069E0,1.046176432E1
4.720381800E-2,2.878050089E0,-9.595950127E0,1.165050030E0,1.008577080E1
4.916712600E-2,3.108000040E0,-9.289950371E0,9.730500579E-1,9.844270849E0
5.113059000E-2,3.184950113E0,-8.715000153E0,7.429500222E-1,9.308442921E0
5.309418500E-2,3.376950264E0,-8.332050323E0,5.899500251E-1,9.009711245E0
5.505774200E-2,3.492000103E0,-7.909950256E0,4.750500321E-1,8.659506355E0
5.702231400E-2,3.607050180E0,-7.450050354E0,2.449500114E-1,8.280945706E0
5.898658800E-2,3.645000219E0,-6.990000248E0,1.300500035E-1,7.884354322E0
6.094986600E-2,3.721950293E0,-6.529950142E0,1.500000060E-2,7.516208342E0
6.291343600E-2,3.682950258E0,-5.955000401E0,-2.205000073E-2,7.001902497E0
6.487691900E-2,3.721950293E0,-5.533950329E0,-6.105000153E-2,6.669426312E0
6.684043100E-2,3.645000219E0,-5.074050426E0,5.295000225E-2,6.247785050E0
6.880311800E-2,3.607050180E0,-4.461000443E0,2.449500114E-1,5.742067264E0
7.076604600E-2,3.492000103E0,-3.961950302E0,4.360500276E-1,5.299174893E0
7.272950800E-2,3.568050146E0,-3.463950157E0,7.810500264E-1,5.033882367E0
7.469281400E-2,3.568050146E0,-2.965950251E0,1.279950023E0,4.813119030E0
7.665655000E-2,3.568050146E0,-2.467050076E0,1.585950017E0,4.618717936E0
7.862014400E-2,3.453000069E0,-1.930950046E0,1.893000126E0,4.385798334E0
8.058403400E-2,3.415050268E0,-1.432950020E0,2.238000154E0,4.327188323E0
8.254783700E-2,3.492000103E0,-9.730500579E-1,2.506050110E0,4.406946595E0
8.451119600E-2,3.415050268E0,-3.210000098E-1,2.736000061E0,4.387630987E0
8.647468500E-2,3.453000069E0,-5.295000225E-2,2.928000212E0,4.527604048E0
8.843797300E-2,3.529950142E0,2.910000086E-1,3.004050255E0,4.644302633E0
9.040134400E-2,3.492000103E0,7.129500508E-1,2.965950251E0,4.636725502E0
9.236491000E-2,3.492000103E0,1.057950020E0,2.928000212E0,4.678301850E0
9.432841900E-2,3.415050268E0,1.402950048E0,2.773950100E0,4.617968853E0
9.629236800E-2,3.376950264E0,1.708950043E0,2.773950100E0,4.692451650E0
9.825618800E-2,3.262050152E0,1.978050113E0,2.698050022E0,4.672593216E0
1.002198190E-1,3.184950113E0,2.322000027E0,2.314950228E0,4.571059604E0
1.021835020E-1,2.955000162E0,2.514000177E0,1.893000126E0,4.316905411E0
1.041471950E-1,2.878050089E0,2.629050016E0,1.395000100E0,4.140181347E0
1.061108850E-1,2.764050245E0,2.859000206E0,8.580000401E-1,4.068171580E0
1.080753440E-1,2.725050211E0,2.974050045E0,1.300500035E-1,4.035812846E0
1.100395770E-1,2.610000134E0,3.127050161E0,-4.060500264E-1,4.093338495E0
1.120035480E-1,2.457000017E0,3.241950035E0,-8.269500136E-1,4.151016194E0
1.139675890E-1,2.304000139E0,3.511050224E0,-9.420000315E-1,4.303865051E0
1.159315820E-1,2.149950027E0,3.741000175E0,-1.210950017E0,4.481491646E0
1.178955890E-1,1.996950150E0,3.931950092E0,-1.708950043E0,4.729540324E0
1.198590020E-1,1.690050125E0,4.009050369E0,-2.284050226E0,4.913821296E0
1.218225890E-1,1.422000051E0,4.009050369E0,-3.049950123E0,5.234191892E0
1.237860030E-1,1.153950095E0,4.009050369E0,-4.123950005E0,5.866093191E0
1.257494540E-1,7.699500322E-1,3.970950127E0,-5.158050060E0,6.554902622E0
1.277119260E-1,1.960500032E-1,3.894000292E0,-6.078000069E0,7.221063544E0
1.296746850E-1,-2.629500031E-1,3.664050102E0,-7.189950466E0,8.074019666E0
1.316385360E-1,-6.850500107E-1,3.280950069E0,-8.071050644E0,8.739324080E0
1.336020670E-1,-1.183050036E0,2.821050167E0,-8.799000740E0,9.315596892E0
1.355651880E-1,-1.567050099E0,2.284050226E0,-9.489000320E0,9.885021929E0
1.375284390E-1,-2.026050091E0,1.786050081E0,-1.002600002E1,1.038342575E1
1.394920710E-1,-2.140950203E0,1.210950017E0,-1.052400017E1,1.080761987E1
1.414555910E-1,-2.448000193E0,7.129500508E-1,-1.086900043E1,1.116405720E1
1.434196730E-1,-2.563050032E0,1.380000114E-1,-1.106100082E1,1.135491121E1
1.453835910E-1,-2.716050148E0,-1.680000126E-1,-1.106100082E1,1.139082489E1
1.473469090E-1,-2.946000099E0,-4.360500276E-1,-1.086900043E1,1.126961520E1
1.493103860E-1,-3.022950172E0,-7.039500475E-1,-1.052400017E1,1.097216264E1
1.512740690E-1,-3.061050177E0,-1.011000037E0,-1.006395054E1,1.056765110E1
1.532376920E-1,-3.061050177E0,-1.240950108E0,-9.412950516E0,9.975651496E0
1.552010370E-1,-3.022950172E0,-1.393950105E0,-8.683950424E0,9.300124709E0
1.571644630E-1,-2.985000134E0,-1.432950020E0,-7.879950523E0,8.547349987E0
1.591278450E-1,-2.946000099E0,-1.509000063E0,-6.921000481E0,7.671782415E0
1.610912370E-1,-2.755050182E0,-1.585950017E0,-6.001950264E0,6.791829351E0
1.630548000E-1,-2.485950232E0,-1.663050056E0,-5.043000221E0,5.863235905E0
1.650183120E-1,-2.218050003E0,-1.816050053E0,-4.200000286E0,5.085055163E0
1.669813150E-1,-1.950000048E0,-1.930950046E0,-3.394950151E0,4.365404311E0
1.689444680E-1,-1.642950058E0,-2.083950043E0,-2.514000177E0,3.655452033E0
1.709080530E-1,-1.222050071E0,-2.275950193E0,-1.632000089E0,3.055614496E0
1.728715240E-1,-9.919500351E-1,-2.314050198E0,-9.420000315E-1,2.688151270E0
1.748340390E-1,-8.380500674E-1,-2.314050198E0,-2.140500098E-1,2.470419729E0
1.767968340E-1,-6.850500107E-1,-2.275950193E0,3.979500234E-1,2.409897720E0
1.787599130E-1,-6.469500065E-1,-2.275950193E0,8.959500194E-1,2.530063246E0
1.807229090E-1,-6.850500107E-1,-2.199000120E0,1.356000066E0,2.672757233E0
1.826861800E-1,-6.469500065E-1,-2.199000120E0,1.510050058E0,2.744885611E0
1.846493700E-1,-6.850500107E-1,-2.161050081E0,1.701000094E0,2.834225166E0
1.866126530E-1,-6.850500107E-1,-2.161050081E0,1.930950046E0,2.977918577E0
1.885759090E-1,-6.850500107E-1,-2.122950077E0,2.122950077E0,3.079468717E0
1.905394510E-1,-7.230000496E-1,-2.083950043E0,2.314950228E0,3.197588374E0
1.925029090E-1,-7.620000243E-1,-2.008050203E0,2.545050144E0,3.330193672E0
1.944662980E-1,-7.620000243E-1,-2.008050203E0,2.736000061E0,3.478305046E0
1.964297280E-1,-6.469500065E-1,-1.930950046E0,2.851050138E0,3.503655132E0
1.983930600E-1,-6.079500318E-1,-1.969050050E0,3.081000090E0,3.706659263E0
2.003564200E-1,-4.170000255E-1,-2.008050203E0,3.349050045E0,3.927122464E0
2.023198530E-1,-3.019500077E-1,-2.083950043E0,3.502950191E0,4.087136116E0
2.042832640E-1,-1.099500060E-1,-2.083950043E0,3.694050074E0,4.242751788E0
2.062466500E-1,4.200000316E-2,-2.199000120E0,3.886050224E0,4.465282956E0
2.082100400E-1,1.189500093E-1,-2.161050081E0,4.039050102E0,4.582380635E0
2.101731980E-1,1.960500032E-1,-2.161050081E0,4.192950249E0,4.721165624E0
2.121364240E-1,2.719500065E-1,-2.122950077E0,4.345950127E0,4.844394321E0
2.140998800E-1,3.490500152E-1,-2.083950043E0,4.461000443E0,4.936112706E0
2.160632680E-1,4.260000288E-1,-2.122950077E0,4.653000355E0,5.132134581E0
2.180271630E-1,5.410500169E-1,-2.046000004E0,4.768050194E0,5.216622833E0
2.199908990E-1,5.790000558E-1,-2.008050203E0,4.843950272E0,5.275543661E0
2.219542240E-1,5.790000558E-1,-1.930950046E0,4.882050037E0,5.281876722E0
2.239176700E-1,6.169500351E-1,-1.893000126E0,4.959000111E0,5.343758876E0
2.258808640E-1,6.169500351E-1,-1.816050053E0,4.996950150E0,5.352399082E0
2.278441320E-1,6.550500393E-1,-1.701000094E0,4.959000111E0,5.283386601E0
2.298071950E-1,6.940500140E-1,-1.624050021E0,4.921050072E0,5.228381939E0
2.317703040E-1,7.320000529E-1,-1.509000063E0,4.806000233E0,5.090240024E0
2.337333750E-1,6.940500140E-1,-1.471050024E0,4.768050194E0,5.037856315E0
2.356964580E-1,7.699500322E-1,-1.432950020E0,4.614000320E0,4.892358099E0
2.376593990E-1,7.320000529E-1,-1.279050112E0,4.498950005E0,4.734167763E0
2.396223810E-1,6.940500140E-1,-1.164000034E0,4.345950127E0,4.552349284E0
2.415856400E-1,6.550500393E-1,-1.087950110E0,4.116000175E0,4.307456725E0
2.435488270E-1,6.550500393E-1,-1.048950076E0,4.039050102E0,4.224134532E0
2.455118410E-1,6.940500140E-1,-9.730500579E-1,3.808950186E0,3.992071311E0
2.474749060E-1,6.940500140E-1,-8.959500194E-1,3.694050074E0,3.863992470E0
2.494379840E-1,6.169500351E-1,-8.190000653E-1,3.502950191E0,3.649938150E0
2.514010580E-1,6.550500393E-1,-7.039500475E-1,3.273000240E0,3.411329183E0
2.533635810E-1,6.169500351E-1,-5.509500504E-1,3.118950129E0,3.226766680E0
2.553262760E-1,5.020500422E-1,-3.979500234E-1,2.889000177E0,2.959179023E0
2.572895970E-1,5.410500169E-1,-2.830500007E-1,2.620950222E0,2.691139627E0
2.592527350E-1,5.020500422E-1,-2.059500068E-1,2.353049994E0,2.414811364E0
2.612163870E-1,6.169500351E-1,-1.680000126E-1,2.046000004E0,2.143587499E0
2.631798890E-1,6.169500351E-1,-1.290000081E-1,1.816050053E0,1.922317909E0
2.651431900E-1,7.320000529E-1,-9.105000645E-2,1.585950017E0,1.749100237E0
2.671065640E-1,7.699500322E-1,-9.105000645E-2,1.432950020E0,1.629251029E0
2.690699490E-1,8.850000501E-1,-9.105000645E-2,1.240950108E0,1.526915964E0
2.710333310E-1,9.240000248E-1,-9.105000645E-2,9.730500579E-1,1.344950767E0
2.729960420E-1,9.619500637E-1,-5.295000225E-2,7.429500222E-1,1.216604440E0
2.749589490E-1,1.000050068E0,-1.500000060E-2,5.899500251E-1,1.161191703E0
2.769240550E-1,1.077000022E0,-1.500000060E-2,3.220500052E-1,1.124219842E0
2.788885040E-1,1.077000022E0,-5.295000225E-2,2.070000172E-1,1.097989871E0
2.808522030E-1,1.153950095E0,-9.105000645E-2,1.500000060E-2,1.157633762E0
2.828161220E-1,1.230000019E0,-1.290000081E-1,-1.369500011E-1,1.244305570E0
2.847796400E-1,1.306950092E0,-9.105000645E-2,-2.910000086E-1,1.342046815E0
2.867432760E-1,1.306950092E0,-1.290000081E-1,-5.590500236E-1,1.427338949E0
2.887066030E-1,1.345050097E0,-1.290000081E-1,-8.659500480E-1,1.604889482E0
2.906700310E-1,1.384050012E0,-1.680000126E-1,-1.057050109E0,1.749620922E0
2.926335870E-1,1.498950124E0,-2.059500068E-1,-1.249050021E0,1.961986961E0
2.945971060E-1,1.575000048E0,-2.440500110E-1,-1.479000092E0,2.174310656E0
2.965606480E-1,1.729050040E0,-2.440500110E-1,-1.632000089E0,2.390104336E0
2.985241830E-1,1.804950118E0,-2.830500007E-1,-1.747050047E0,2.527873830E0
3.004875190E-1,1.959000111E0,-2.830500007E-1,-1.824000120E0,2.691612003E0
3.024509300E-1,2.111999989E0,-3.979500234E-1,-1.939050078E0,2.894619730E0
3.044141290E-1,2.188950062E0,-3.979500234E-1,-1.977000117E0,2.976305774E0
3.063773910E-1,2.341950178E0,-3.979500234E-1,-1.977000117E0,3.090570226E0
3.083405710E-1,2.457000017E0,-5.130000114E-1,-2.014950037E0,3.218701873E0
3.103037760E-1,2.533950090E0,-5.890500546E-1,-2.053950071E0,3.314603132E0
3.122674160E-1,2.649000168E0,-5.509500504E-1,-2.092050076E0,3.420149319E0
3.142309280E-1,2.764050245E0,-5.509500504E-1,-2.014950037E0,3.464613019E0
3.161942920E-1,2.764050245E0,-5.509500504E-1,-1.900950074E0,3.399578047E0
3.181576990E-1,2.917050123E0,-5.890500546E-1,-1.671000123E0,3.412975652E0
3.201209000E-1,2.955000162E0,-5.509500504E-1,-1.363950014E0,3.300898598E0
3.220841610E-1,2.839950085E0,-4.740000367E-1,-8.269500136E-1,2.995636634E0
3.240473410E-1,2.764050245E0,-3.589500189E-1,-3.670500219E-1,2.811324349E0
3.260105450E-1,2.725050211E0,-3.210000098E-1,2.449500114E-1,2.754803108E0
3.279730590E-1,2.725050211E0,-3.589500189E-1,8.580000401E-1,2.879393658E0
3.299357760E-1,2.649000168E0,-3.210000098E-1,1.432950020E0,3.028793267E0
3.318989140E-1,2.686950207E0,-3.210000098E-1,1.930950046E0,3.324351139E0
3.338619280E-1,2.686950207E0,-3.210000098E-1,2.545050144E0,3.714838174E0
3.358248870E-1,2.725050211E0,-3.210000098E-1,2.889000177E0,3.984377201E0
3.377878580E-1,2.764050245E0,-3.210000098E-1,3.118950129E0,4.179816344E0
3.397511330E-1,2.725050211E0,-2.830500007E-1,3.118950129E0,4.151369155E0
3.417143180E-1,2.649000168E0,-2.059500068E-1,3.157950163E0,4.127016662E0
3.436775110E-1,2.533950090E0,-1.680000126E-1,3.081000090E0,3.992704424E0
3.456407020E-1,2.494950056E0,-1.290000081E-1,3.081000090E0,3.966607913E0
3.476029000E-1,2.419050217E0,9.900000691E-2,3.196050167E0,4.009531347E0
3.495653920E-1,2.265000105E0,4.830000103E-1,3.426000118E0,4.135334484E0
3.515287480E-1,1.996950150E0,9.430500269E-1,3.579000235E0,4.205519698E0
3.534918510E-1,1.767000079E0,1.441050053E0,3.694050074E0,4.341073655E0
3.554551040E-1,1.614000082E0,1.900950074E0,3.618000269E0,4.394147630E0
3.574183130E-1,1.690050125E0,2.131050110E0,3.081000090E0,4.109769525E0
3.593822720E-1,2.035050154E0,2.131050110E0,1.855050087E0,3.481955560E0
3.613460090E-1,2.610000134E0,1.900950074E0,1.300500035E-1,3.231505050E0
3.633100540E-1,2.955000162E0,1.057950020E0,-2.437050104E0,3.973725885E0
3.652740090E-1,2.839950085E0,-1.680000126E-1,-6.040050507E0,6.676507366E0
3.672372970E-1,2.649000168E0,-8.190000653E-1,-9.910950661E0,1.029149678E1
3.692007800E-1,2.457000017E0,-1.432950020E0,-1.263195038E1,1.294821861E1
3.711641480E-1,1.996950150E0,-2.046000004E0,-1.332195091E1,1.362528172E1
3.731275500E-1,1.384050012E0,-2.773950100E0,-1.251705074E1,1.289522985E1
3.750898500E-1,3.490500152E-1,-3.579000235E0,-1.090695095E1,1.148445287E1
3.770524730E-1,-9.919500351E-1,-4.537050247E0,-8.914050102E0,1.005132225E1
3.790157620E-1,-2.295000076E0,-5.764050484E0,-6.844950199E0,9.238216633E0
3.809788550E-1,-3.559950113E0,-7.105050564E0,-5.158050060E0,9.474200164E0
3.829423500E-1,-4.747950077E0,-8.677050591E0,-3.739950180E0,1.057456686E1
3.849057160E-1,-5.706000328E0,-1.044000053E1,-3.088950157E0,1.229201627E1
3.868690600E-1,-6.511050224E0,-1.243305016E1,-3.049950123E0,1.436233640E1
3.888324110E-1,-7.162050247E0,-1.434900093E1,-3.357000113E0,1.638469533E1
3.907958000E-1,-7.737000465E0,-1.611194992E1,-3.778950214E0,1.826845837E1
3.927591780E-1,-8.389050484E0,-1.802805138E1,-4.162050247E0,2.031525207E1
3.947225540E-1,-9.346950531E0,-2.025105095E1,-4.315050125E0,2.271761885E1
3.966859370E-1,-1.030500031E1,-2.274300194E1,-3.586950064E0,2.522505459E1
3.986493220E-1,-1.130205059E1,-2.577105141E1,-2.859000206E0,2.828528452E1
4.006127060E-1,-1.218300056E1,-2.872200203E1,-2.092050076E0,3.126908340E1
4.025764970E-1,-1.314105034E1,-3.148095131E1,-1.363950014E0,3.414085323E1
4.045401680E-1,-1.387005043E1,-3.439395142E1,-4.440000355E-1,3.708799440E1
4.065029140E-1,-1.429095078E1,-3.742200089E1,3.979500234E-1,4.005990250E1
4.084659340E-1,-1.429095078E1,-4.048800278E1,1.471050024E0,4.296130388E1
4.104292450E-1,-1.402305031E1,-4.378500366E1,2.928000212E0,4.606892305E1
4.123924710E-1,-1.360095024E1,-4.646805191E1,4.882050037E0,4.866312884E1
4.143556580E-1,-1.298805046E1,-4.876695251E1,6.876000404E0,5.093313748E1
4.163188570E-1,-1.206795025E1,-5.068395233E1,8.599950790E0,5.280584817E1
4.182823030E-1,-1.076505089E1,-5.225505066E1,1.005705070E1,5.429199673E1
4.202456870E-1,-9.270000458E0,-5.386500168E1,1.044000053E1,5.564499012E1
4.222088930E-1,-7.699050426E0,-5.578095245E1,1.021005058E1,5.722792297E1
4.241721510E-1,-6.319050312E0,-5.765895462E1,8.907000542E0,5.868407027E1
4.261359170E-1,-4.824000359E0,-5.907705307E1,6.223950386E0,5.959955316E1
4.280995340E-1,-3.483000278E0,-6.034200287E1,2.200050116E0,6.048246706E1
4.300643290E-1,-1.873050094E0,-6.168405151E1,-3.472050190E0,6.181007734E1
4.320287730E-1,7.320000529E-1,-6.264195251E1,-1.083105087E1,6.357563764E1
4.339919770E-1,4.143000126E0,-6.279495239E1,-2.106405067E1,6.636312777E1
4.359555450E-1,8.014050484E0,-6.149205399E1,-3.290805054E1,7.020283113E1
4.379190330E-1,1.180905056E1,-5.888595200E1,-4.153095245E1,7.301937434E1
4.398825450E-1,1.360995102E1,-5.478495407E1,-4.237395096E1,7.058451444E1
4.418459820E-1,1.391700077E1,-5.079900360E1,-3.620400238E1,6.391362504E1
4.438094200E-1,1.315005016E1,-4.692705154E1,-2.758005142E1,5.599760015E1
4.457726150E-1,1.127205086E1,-4.313295364E1,-1.864995003E1,4.832526727E1
4.477358810E-1,8.128950119E0,-3.983700180E1,-1.140600014E1,4.222751925E1
4.496990610E-1,5.178000450E0,-3.730695343E1,-6.652950287E0,3.824764320E1
4.516622660E-1,2.764050245E0,-3.489300156E1,-3.472050190E0,3.517409080E1
4.536248200E-1,9.240000248E-1,-3.267000198E1,-1.057050109E0,3.270015536E1
4.555875690E-1,-7.620000243E-1,-3.067695236E1,1.500000060E-2,3.068641842E1
4.575512420E-1,-2.485950232E0,-2.899005127E1,3.979500234E-1,2.909916469E1
4.595146440E-1,-3.828000069E0,-2.761005211E1,9.195000678E-2,2.787430747E1
4.614782060E-1,-4.900950432E0,-2.623095131E1,-7.890000343E-1,2.669652867E1
4.634417210E-1,-5.974050522E0,-2.481195068E1,-1.671000123E0,2.557566065E1
4.654047230E-1,-7.431000233E0,-2.350905037E1,-2.206950188E0,2.475410760E1
4.673678760E-1,-8.619000435E0,-2.209095192E1,-2.322000027E0,2.382622524E1
4.693311190E-1,-9.499950409E0,-2.074995041E1,-2.130000114E0,2.292043630E1
4.712943360E-1,-9.960000038E0,-1.956195068E1,-1.555950046E0,2.200664663E1
4.732575250E-1,-1.022895050E1,-1.837305069E1,-8.269500136E-1,2.104481566E1
4.752207230E-1,-1.038195038E1,-1.726200104E1,-2.205000073E-2,2.014353642E1
4.771832290E-1,-1.042005062E1,-1.630395126E1,9.349500537E-1,1.937189752E1
4.791459440E-1,-1.003695011E1,-1.569000053E1,1.471050024E0,1.868369536E1
4.811089470E-1,-9.654000282E0,-1.526895046E1,1.701000094E0,1.814480562E1
4.830718650E-1,-9.001950264E0,-1.511595058E1,1.893000126E0,1.769492922E1
4.850354650E-1,-8.082000732E0,-1.496205044E1,2.008050203E0,1.712349131E1
4.869988650E-1,-7.239000320E0,-1.473195076E1,1.930950046E0,1.652761528E1
4.889620770E-1,-6.472050190E0,-1.454100037E1,1.777950048E0,1.601528119E1
4.909253380E-1,-5.821050167E0,-1.442595100E1,1.663050056E0,1.564475704E1
4.928883830E-1,-5.284050465E0,-1.419600105E1,1.548000097E0,1.522642241E1
4.948514920E-1,-4.786050320E0,-1.396605110E1,1.701000094E0,1.486103167E1
4.968147870E-1,-4.363950253E0,-1.381200027E1,2.008050203E0,1.462353169E1
4.987780280E-1,-3.981000185E0,-1.354395103E1,2.161050081E0,1.428135531E1
5.007415730E-1,-3.598050117E0,-1.335300064E1,2.238000154E0,1.400918397E1
5.027050280E-1,-3.330000162E0,-1.339095020E1,2.008050203E0,1.394412830E1
5.046680860E-1,-3.061050177E0,-1.339095020E1,2.008050203E0,1.388235719E1
5.066312610E-1,-2.755050182E0,-1.354395103E1,1.969950080E0,1.396100335E1
5.085946800E-1,-2.601000071E0,-1.358205032E1,2.046000004E0,1.397939227E1
5.105580280E-1,-2.410050154E0,-1.377405071E1,2.122950077E0,1.414354029E1
5.125213940E-1,-2.065050125E0,-1.392705059E1,2.238000154E0,1.425607993E1
5.144847420E-1,-1.681950092E0,-1.411905098E1,2.391000032E0,1.441851025E1
5.164479970E-1,-1.260000110E0,-1.442595100E1,2.545050144E0,1.470282092E1
5.184112800E-1,-9.150000215E-1,-1.457895088E1,2.812950134E0,1.487601164E1
5.203743220E-1,-3.780000210E-1,-1.488600063E1,3.004050255E0,1.519079382E1
5.223374340E-1,8.100000024E-2,-1.511595058E1,3.273000240E0,1.546644929E1
5.243019000E-1,5.410500169E-1,-1.526895046E1,3.388050079E0,1.564967944E1
5.262659700E-1,1.114950061E0,-1.542195034E1,3.349050045E0,1.582073962E1
5.282294180E-1,1.537050128E0,-1.553700066E1,3.310950041E0,1.596005334E1
5.301930490E-1,2.035050154E0,-1.553700066E1,3.273000240E0,1.600788397E1
5.321565720E-1,2.380050182E0,-1.542195034E1,3.196050167E0,1.592846282E1
5.341201260E-1,2.610000134E0,-1.507695103E1,3.273000240E0,1.564733471E1
5.360836620E-1,2.802000046E0,-1.457895088E1,3.388050079E0,1.522747177E1
5.380472030E-1,3.108000040E0,-1.400400066E1,3.694050074E0,1.481275480E1
5.400104260E-1,3.300000191E0,-1.342905045E1,3.963000298E0,1.438522744E1
5.419737420E-1,3.529950142E0,-1.273905087E1,4.192950249E0,1.386812160E1
5.439373180E-1,3.645000219E0,-1.212600040E1,4.498950005E0,1.343750213E1
5.459008170E-1,3.760050297E0,-1.151295090E1,4.768050194E0,1.301615609E1
5.478639810E-1,3.837000132E0,-1.090005016E1,4.768050194E0,1.250071863E1
5.498272270E-1,3.913050175E0,-1.040100002E1,4.690950394E0,1.206224601E1
5.517906790E-1,3.952050209E0,-9.903000832E0,4.537950039E0,1.158797294E1
5.537540710E-1,3.990000248E0,-9.442950249E0,4.345950127E0,1.113448220E1
5.557174110E-1,4.027950287E0,-9.097949982E0,3.963000298E0,1.070992291E1
5.576807660E-1,3.990000248E0,-8.752950668E0,3.502950191E0,1.023742680E1
5.596442000E-1,3.874950171E0,-8.254950523E0,3.004050255E0,9.601237675E0
5.616076100E-1,3.645000219E0,-7.833000183E0,2.659050226E0,9.039494818E0
5.635709460E-1,3.492000103E0,-7.450050354E0,2.275950193E0,8.536818159E0
5.655343040E-1,3.300000191E0,-7.143000126E0,1.816050053E0,8.075301224E0
5.674975580E-1,3.184950113E0,-6.760050297E0,1.471050024E0,7.616178531E0
5.694608430E-1,3.031950235E0,-6.339000225E0,1.318050027E0,7.149328777E0
5.714241930E-1,2.955000162E0,-5.878950119E0,1.011000037E0,6.657041500E0
5.733875280E-1,2.878050089E0,-5.494950294E0,8.959500194E-1,6.267405962E0
5.753509660E-1,2.725050211E0,-5.149950027E0,6.280500293E-1,5.860232997E0
5.773143740E-1,2.572050095E0,-4.651950359E0,3.600000143E-1,5.327821679E0
5.792784760E-1,2.572050095E0,-4.306950092E0,1.300500035E-1,5.018184312E0
5.812423740E-1,2.457000017E0,-3.924000263E0,1.500000060E-2,4.629778845E0
5.832056320E-1,2.457000017E0,-3.541050196E0,-1.759500057E-1,4.313565112E0
5.851690740E-1,2.380050182E0,-3.196050167E0,-4.819500148E-1,4.013932157E0
5.871321330E-1,2.304000139E0,-2.773950100E0,-7.510500550E-1,3.683380510E0
5.890953040E-1,2.341950178E0,-2.506050110E0,-1.096050024E0,3.600880926E0
5.910583650E-1,2.265000105E0,-2.161050081E0,-1.441050053E0,3.446300652E0
5.930214580E-1,2.227050066E0,-1.893000126E0,-1.861950040E0,3.465553264E0
5.949844870E-1,2.149950027E0,-1.624050021E0,-2.206950188E0,3.482879947E0
5.969475350E-1,2.074050188E0,-1.356000066E0,-2.475000143E0,3.502291545E0
5.989106610E-1,2.035050154E0,-1.126049995E0,-2.896950245E0,3.715069103E0
6.008737640E-1,2.111999989E0,-1.011000037E0,-3.049950123E0,3.845108682E0
6.028373320E-1,2.227050066E0,-8.190000653E-1,-3.165000200E0,3.955722358E0
6.048007640E-1,2.265000105E0,-6.660000086E-1,-3.280050039E0,4.041349991E0
6.067641170E-1,2.304000139E0,-4.740000367E-1,-3.204000235E0,3.974759135E0
6.087275110E-1,2.341950178E0,-2.830500007E-1,-3.204000235E0,3.978751744E0
6.106909380E-1,2.380050182E0,-1.290000081E-1,-3.241950035E0,4.023868773E0
6.126543550E-1,2.457000017E0,-9.105000645E-2,-3.127050161E0,3.977886612E0
6.146170140E-1,2.380050182E0,-5.295000225E-2,-3.165000200E0,3.960387461E0
6.165798960E-1,2.380050182E0,6.105000153E-2,-3.241950035E0,4.022263791E0
6.185433020E-1,2.341950178E0,1.759500057E-1,-3.280050039E0,4.034156331E0
6.205065670E-1,2.227050066E0,2.910000086E-1,-3.586950064E0,4.232096852E0
6.224703330E-1,2.188950062E0,4.440000355E-1,-3.778950214E0,4.389658657E0
6.244339520E-1,2.035050154E0,5.980500579E-1,-4.276950359E0,4.774033659E0
6.263975230E-1,1.843950033E0,7.129500508E-1,-4.736999989E0,5.132993122E0
6.283611080E-1,1.498950124E0,8.659500480E-1,-5.617950439E0,5.878612770E0
6.303242880E-1,1.192050099E0,9.430500269E-1,-6.844950199E0,7.011680970E0
6.322875790E-1,6.550500393E-1,9.040500522E-1,-8.340000153E0,8.414392408E0
6.342506190E-1,4.200000316E-2,5.980500579E-1,-1.017900085E1,1.019664093E1
6.362137330E-1,-5.320500135E-1,6.105000153E-2,-1.201905060E1,1.203097592E1
6.381780190E-1,-1.030050039E0,-5.509500504E-1,-1.355205059E1,1.360230217E1
6.401419620E-1,-1.567050099E0,-1.279050112E0,-1.539195061E1,1.552429576E1
6.421054560E-1,-1.950000048E0,-2.008050203E0,-1.696305084E1,1.719243612E1
6.440690650E-1,-2.256000042E0,-2.659050226E0,-1.765305138E1,1.799417426E1
6.460324560E-1,-2.485950232E0,-3.118950129E0,-1.761495018E1,1.806084905E1
6.479959110E-1,-2.793000221E0,-3.541050196E0,-1.715505028E1,1.773797161E1
6.499595980E-1,-2.985000134E0,-3.771000147E0,-1.627305031E1,1.696887840E1
6.519232170E-1,-3.253050089E0,-3.924000263E0,-1.500900078E1,1.585087434E1
6.538867720E-1,-3.367950201E0,-3.924000263E0,-1.389705086E1,1.482797657E1
6.558503570E-1,-3.445050240E0,-3.886050224E0,-1.286205101E1,1.387090890E1
6.578142020E-1,-3.520950079E0,-3.847050190E0,-1.182705021E1,1.292578823E1
6.597779710E-1,-3.483000278E0,-3.694050074E0,-1.090695095E1,1.203074711E1
6.617420110E-1,-3.330000162E0,-3.579000235E0,-1.010295010E1,1.122353529E1
6.637059710E-1,-3.175950050E0,-3.349050045E0,-9.412950516E0,1.048362687E1
6.656698180E-1,-2.946000099E0,-3.042000055E0,-8.799000740E0,9.764993341E0
6.676336840E-1,-2.601000071E0,-2.697000027E0,-8.032950401E0,8.863819868E0
6.695972110E-1,-2.218050003E0,-2.428950071E0,-7.305000305E0,8.011402731E0
6.715608380E-1,-1.720050097E0,-2.238000154E0,-6.423000336E0,7.015849937E0
6.735245410E-1,-1.222050071E0,-1.930950046E0,-4.621950150E0,5.156005977E0
6.754882210E-1,-2.629500031E-1,-1.624050021E0,-2.092050076E0,2.661457250E0
6.774517460E-1,4.260000288E-1,-1.356000066E0,-4.819500148E-1,1.500829111E0
6.794153100E-1,6.940500140E-1,-8.580000401E-1,5.899500251E-1,1.251363465E0
6.813790230E-1,7.320000529E-1,-3.979500234E-1,1.240950108E0,1.494705813E0
6.833426920E-1,6.940500140E-1,-9.105000645E-2,1.624950051E0,1.769310090E0
6.853051280E-1,1.000050068E0,2.295000106E-2,2.161050081E0,2.381336661E0
6.872679250E-1,1.345050097E0,2.295000106E-2,2.889000177E0,3.186849305E0
6.892324310E-1,1.729050040E0,-1.500000060E-2,3.655950069E0,4.044231689E0
6.911964470E-1,2.265000105E0,-9.105000645E-2,4.423050404E0,4.970099642E0
6.931597700E-1,2.686950207E0,-1.680000126E-1,5.151000023E0,5.812118947E0
6.951232960E-1,3.070050240E0,-2.059500068E-1,5.686950207E0,6.465989989E0
6.970868360E-1,3.529950142E0,-3.210000098E-1,6.147000313E0,7.095717149E0
6.990503710E-1,3.837000132E0,-4.740000367E-1,6.492000103E0,7.556011605E0
7.010136920E-1,4.066950321E0,-6.280500293E-1,6.760950089E0,7.914858044E0
7.029771030E-1,4.258049965E0,-7.810500264E-1,6.991050243E0,8.222883445E0
7.049406170E-1,4.372950077E0,-9.730500579E-1,7.144050121E0,8.432494941E0
7.069041010E-1,4.411950111E0,-1.048950076E0,7.411950588E0,8.689223876E0
7.088673340E-1,4.411950111E0,-1.011000037E0,7.680000305E0,8.914585215E0
7.108306410E-1,4.411950111E0,-8.959500194E-1,8.064000130E0,9.235590307E0
7.127945390E-1,4.372950077E0,-7.810500264E-1,8.370000839E0,9.475739843E0
7.147582600E-1,4.066950321E0,-7.429500222E-1,8.599950790E0,9.542075940E0
7.167218130E-1,3.682950258E0,-6.660000086E-1,8.830050468E0,9.590488512E0
7.186854150E-1,3.453000069E0,-7.429500222E-1,8.983950615E0,9.653318231E0
7.206488970E-1,3.415050268E0,-8.580000401E-1,8.983950615E0,9.649357546E0
7.226124150E-1,3.376950264E0,-1.011000037E0,8.754000664E0,9.437078032E0
7.245757770E-1,3.337950230E0,-1.048950076E0,8.293950081E0,9.001767379E0
7.265391850E-1,3.223050117E0,-1.011000037E0,7.795050144E0,8.495468197E0
7.285031050E-1,3.108000040E0,-1.048950076E0,7.297050476E0,8.000431623E0
7.304668750E-1,2.839950085E0,-9.730500579E-1,6.876000404E0,7.502767787E0
7.324303750E-1,2.686950207E0,-1.011000037E0,6.454050541E0,7.063751898E0
7.343939540E-1,2.533950090E0,-1.011000037E0,6.262050152E0,6.830541431E0
7.363575310E-1,2.341950178E0,-1.011000037E0,6.070950508E0,6.585081001E0
7.383211080E-1,2.149950027E0,-1.011000037E0,5.802000046E0,6.269578194E0
7.402847740E-1,1.959000111E0,-1.048950076E0,5.572050095E0,5.998809878E0
7.422484140E-1,1.729050040E0,-1.048950076E0,5.380950451E0,5.748437880E0
7.442121150E-1,1.614000082E0,-1.087950110E0,5.151000023E0,5.506490075E0
7.461757980E-1,1.422000051E0,-1.048950076E0,4.959000111E0,5.264414735E0
7.481395220E-1,1.269000053E0,-1.048950076E0,4.690950394E0,4.971485995E0
7.501032450E-1,1.153950095E0,-1.087950110E0,4.423050404E0,4.698788263E0
7.520674720E-1,1.000050068E0,-1.011000037E0,4.153950214E0,4.390617678E0
7.540315520E-1,7.320000529E-1,-9.730500579E-1,3.847950220E0,4.036009340E0
7.559947740E-1,3.870000243E-1,-8.190000653E-1,3.618000269E0,3.729672381E0
7.579582470E-1,1.960500032E-1,-6.660000086E-1,3.349050045E0,3.420252596E0
7.599219750E-1,-7.200000435E-2,-5.509500504E-1,3.118950129E0,3.168056165E0
7.618856290E-1,-2.629500031E-1,-5.130000114E-1,2.851050138E0,2.908745195E0
7.638495090E-1,-4.549500346E-1,-5.509500504E-1,2.698050022E0,2.791057042E0
7.658133220E-1,-5.700000525E-1,-5.509500504E-1,2.430000067E0,2.556041146E0
7.677768600E-1,-6.850500107E-1,-5.130000114E-1,2.085000038E0,2.253816250E0
7.697404780E-1,-7.999500632E-1,-5.890500546E-1,1.777950048E0,2.036665521E0
7.717041810E-1,-8.770500422E-1,-5.890500546E-1,1.471050024E0,1.811128078E0
7.736678590E-1,-9.529500604E-1,-5.130000114E-1,1.279950023E0,1.676172691E0
7.756315540E-1,-1.030050039E0,-5.890500546E-1,9.349500537E-1,1.510666956E0
7.775952440E-1,-1.068000078E0,-5.509500504E-1,5.899500251E-1,1.338734909E0
7.795596120E-1,-1.030050039E0,-5.509500504E-1,3.220500052E-1,1.211719954E0
7.815237820E-1,-1.068000078E0,-5.509500504E-1,1.300500035E-1,1.208752716E0
7.834872580E-1,-9.919500351E-1,-5.890500546E-1,-2.140500098E-1,1.173355123E0
7.854509380E-1,-9.529500604E-1,-5.509500504E-1,-4.819500148E-1,1.201638711E0
7.874147660E-1,-9.529500604E-1,-4.740000367E-1,-8.659500480E-1,1.372100338E0
7.893785510E-1,-9.529500604E-1,-4.740000367E-1,-1.287000060E0,1.670077545E0
7.913422740E-1,-9.150000215E-1,-3.979500234E-1,-1.708950043E0,1.978913719E0
7.933060150E-1,-9.150000215E-1,-4.360500276E-1,-2.092050076E0,2.324658724E0
7.952696590E-1,-9.919500351E-1,-3.589500189E-1,-2.551950216E0,2.761387313E0
7.972333280E-1,-9.919500351E-1,-2.830500007E-1,-3.088950157E0,3.256638643E0
7.991968440E-1,-9.919500351E-1,-1.680000126E-1,-3.586950064E0,3.725372416E0
8.011604050E-1,-1.068000078E0,-1.290000081E-1,-4.084949970E0,4.224225542E0
8.031234430E-1,-1.106999993E0,-1.290000081E-1,-4.621950150E0,4.754420382E0
8.050866350E-1,-1.106999993E0,-9.105000645E-2,-5.119950294E0,5.239048588E0
8.070493320E-1,-1.183050036E0,2.295000106E-2,-5.464950085E0,5.591584169E0
8.090121740E-1,-1.106999993E0,9.900000691E-2,-5.656950474E0,5.765096586E0
8.109763260E-1,-9.529500604E-1,1.759500057E-1,-5.809950352E0,5.890211822E0
8.129400950E-1,-9.919500351E-1,2.910000086E-1,-5.848050117E0,5.938715017E0
8.149036400E-1,-1.030050039E0,5.209500194E-1,-5.733000278E0,5.848049606E0
8.168672510E-1,-1.106999993E0,6.360000372E-1,-5.503050327E0,5.649204186E0
8.188309510E-1,-1.183050036E0,7.890000343E-1,-5.005050182E0,5.203139030E0
8.207946280E-1,-1.144950032E0,9.040500522E-1,-4.392000198E0,4.627945853E0
8.227582790E-1,-1.183050036E0,1.057950020E0,-3.702000141E0,4.027861800E0
8.247219380E-1,-1.144950032E0,1.134000063E0,-2.935050249E0,3.348340885E0
8.266854560E-1,-1.144950032E0,1.288050056E0,-2.206950188E0,2.800109400E0
8.286490150E-1,-1.222050071E0,1.441050053E0,-1.402050018E0,2.352822961E0
8.306125500E-1,-1.260000110E0,1.594050050E0,-5.970000029E-1,2.117783001E0
8.325760920E-1,-1.144950032E0,1.708950043E0,1.680000126E-1,2.063890702E0
8.345387730E-1,-1.030050039E0,1.671000123E0,8.959500194E-1,2.157769898E0
8.365017070E-1,-7.230000496E-1,1.594050050E0,1.510050058E0,2.311704093E0
8.384658440E-1,-3.780000210E-1,1.402950048E0,1.740000129E0,2.266881846E0
8.404296290E-1,-7.200000435E-2,1.210950017E0,1.930950046E0,2.280384183E0
8.423935260E-1,8.100000024E-2,1.134000063E0,2.046000004E0,2.340648021E0
8.443573930E-1,2.719500065E-1,1.018950105E0,2.046000004E0,2.301810622E0
8.463221370E-1,5.020500422E-1,9.810000658E-1,1.930950046E0,2.223282135E0
8.482866240E-1,6.940500140E-1,1.057950020E0,1.930950046E0,2.308577862E0
8.502505420E-1,9.240000248E-1,1.173000097E0,1.893000126E0,2.411048475E0
8.522146260E-1,1.039050102E0,1.288050056E0,1.777950048E0,2.428951304E0
8.541784310E-1,1.077000022E0,1.363950014E0,1.510050058E0,2.302290135E0
8.561423180E-1,1.000050068E0,1.594050050E0,1.050000072E0,2.154900427E0
8.581071920E-1,9.240000248E-1,1.708950043E0,5.295000225E-2,1.943473693E0
8.600717770E-1,9.240000248E-1,1.747950077E0,-1.479000092E0,2.469118626E0
8.620353630E-1,9.619500637E-1,1.633050084E0,-3.931950092E0,4.364909166E0
8.639992410E-1,1.077000022E0,1.210950017E0,-7.305000305E0,7.482603721E0
8.659628610E-1,9.619500637E-1,5.980500579E-1,-1.083105087E1,1.089011822E1
8.679265540E-1,5.410500169E-1,-1.290000081E-1,-1.259400082E1,1.260627751E1
8.698902900E-1,1.960500032E-1,-7.039500475E-1,-1.328400040E1,1.330408388E1
8.718540130E-1,-2.629500031E-1,-1.318050027E0,-1.286205101E1,1.293208238E1
8.738178360E-1,-9.919500351E-1,-2.008050203E0,-1.113705063E1,1.136002320E1
8.757816290E-1,-1.834950089E0,-2.851050138E0,-8.722949982E0,9.358706380E0
8.777455440E-1,-2.485950232E0,-3.924000263E0,-6.346950531E0,7.865208685E0
8.797094130E-1,-2.985000134E0,-5.304000378E0,-4.276950359E0,7.438746546E0
8.816732560E-1,-3.291000128E0,-7.066950321E0,-2.437050104E0,8.167721953E0
8.836371070E-1,-3.751050234E0,-9.136050224E0,-1.249050021E0,9.954793695E0
8.856009080E-1,-4.479000092E0,-1.147395039E1,-1.134000063E0,1.236927384E1
8.875647230E-1,-5.208000183E0,-1.411905098E1,-1.900950074E0,1.516853578E1
8.895284670E-1,-6.088950157E0,-1.672500038E1,-1.824000120E0,1.789211917E1
8.914922120E-1,-7.047000408E0,-1.898700142E1,-1.671000123E0,2.032138477E1
8.934558500E-1,-8.044050217E0,-2.082600021E1,-2.743950129E0,2.249351665E1
8.954195200E-1,-9.193950653E0,-2.274300194E1,-4.621950150E0,2.496267792E1
8.973832600E-1,-1.030500031E1,-2.496600151E1,-6.460950375E0,2.777117467E1
8.993469790E-1,-1.141695023E1,-2.772495079E1,-7.995000362E0,3.103126938E1
9.013108090E-1,-1.264305019E1,-3.082995224E1,-8.377950668E0,3.435873587E1
9.032746340E-1,-1.352505112E1,-3.408795166E1,-7.342950344E0,3.740099432E1
9.052384400E-1,-1.360095024E1,-3.749895096E1,-5.580000401E0,4.027770568E1
9.072022510E-1,-1.310295105E1,-4.102500153E1,-3.088950157E0,4.317730526E1
9.091650220E-1,-1.180005074E1,-4.432095337E1,-5.209500194E-1,4.586784815E1
9.111280970E-1,-9.654000282E0,-4.734900284E1,1.816050053E0,4.835727276E1
9.130915400E-1,-6.433950424E0,-4.976400375E1,3.733050108E0,5.031687044E1
9.150549020E-1,-2.524950027E0,-5.145000076E1,5.151000023E0,5.176882027E1
9.170197330E-1,1.384050012E0,-5.260005188E1,4.690950394E0,5.282694452E1
9.189841330E-1,4.795050144E0,-5.332800293E1,3.349050045E0,5.364778223E1
9.209487860E-1,7.171050549E0,-5.329005432E1,9.349500537E-1,5.377850860E1
9.229133640E-1,8.818950653E0,-5.256195068E1,-2.782050133E0,5.336920791E1
9.248770520E-1,9.816000938E0,-5.171805191E1,-7.495950222E0,5.317236159E1
9.268410250E-1,1.077405071E1,-5.110500336E1,-1.228695011E1,5.365417672E1
9.288046690E-1,1.177005100E1,-5.053005219E1,-1.657995033E1,5.446755940E1
9.307684100E-1,1.261395073E1,-4.968705368E1,-1.930095100E1,5.477628836E1
9.327322280E-1,1.391700077E1,-4.903605270E1,-2.125605011E1,5.522714044E1
9.346960230E-1,1.522005081E1,-4.811595154E1,-2.133300018E1,5.478952122E1
9.366593730E-1,1.656105042E1,-4.669800186E1,-1.926300049E1,5.316046422E1
9.386228610E-1,1.740495110E1,-4.474305344E1,-1.516200066E1,5.034639428E1
9.405867680E-1,1.809495163E1,-4.271100235E1,-1.075395012E1,4.761622034E1
9.425505520E-1,1.832505035E1,-4.079505157E1,-6.346950531E0,4.516998433E1
9.445141840E-1,1.832505035E1,-3.910905075E1,-2.704950094E0,4.327403466E1
9.464778610E-1,1.809495163E1,-3.749895096E1,-6.739500165E-1,4.164195968E1
9.484414110E-1,1.782600021E1,-3.608100128E1,-2.140500098E-1,4.024488482E1
9.504050050E-1,1.721295166E1,-3.458595276E1,-7.510500550E-1,3.863984872E1
9.523684890E-1,1.575705051E1,-3.297600174E1,-2.782050133E0,3.665298261E1
9.543320050E-1,1.207695103E1,-3.075300217E1,-6.346950531E0,3.364347885E1
9.562954130E-1,8.512949944E0,-2.864505196E1,-9.144000053E0,3.125095287E1
9.582588520E-1,5.599950314E0,-2.707395172E1,-1.086900043E1,2.970679174E1
9.602224110E-1,3.070050240E0,-2.592405128E1,-1.121400070E1,2.841188933E1
9.621859310E-1,8.089500666E-1,-2.523405075E1,-1.075395012E1,2.744192341E1
9.641487080E-1,-1.260000110E0,-2.473605156E1,-9.604050636E0,2.656497009E1
9.661117030E-1,-3.100050211E0,-2.431395149E1,-8.110050201E0,2.581765796E1
9.680753340E-1,-4.633050442E0,-2.393100166E1,-6.499950409E0,2.522711542E1
9.700387780E-1,-5.974050522E0,-2.347095108E1,-4.774950027E0,2.468552151E1
9.720021390E-1,-6.894000530E0,-2.289600182E1,-3.280050039E0,2.413530341E1
9.739655350E-1,-7.584000587E0,-2.212995148E1,-1.977000117E0,2.347680444E1
9.759290970E-1,-8.082000732E0,-2.113305092E1,-9.810000658E-1,2.264700727E1
9.778926100E-1,-8.503950119E0,-1.994505119E1,-2.520000041E-1,2.168376671E1
9.798552520E-1,-8.848950386E0,-1.883295059E1,2.449500114E-1,2.080970811E1
9.818181500E-1,-8.964000702E0,-1.779900169E1,8.200500607E-1,1.994568254E1
9.837819970E-1,-9.117000580E0,-1.687905121E1,1.165050030E0,1.921924584E1
9.857455520E-1,-9.154950142E0,-1.615005112E1,1.395000100E0,1.861674753E1
9.877094480E-1,-9.001950264E0,-1.565205097E1,1.471050024E0,1.811589899E1
9.896732440E-1,-9.079050064E0,-1.515405083E1,1.471050024E0,1.772677057E1
9.916369200E-1,-9.001950264E0,-1.473195076E1,1.471050024E0,1.732713104E1
9.936006310E-1,-8.925000191E0,-1.454100037E1,1.432950020E0,1.712161400E1
9.955643880E-1,-8.925000191E0,-1.423395061E1,1.395000100E0,1.685844014E1
9.975281140E-1,-8.964000702E0,-1.415700054E1,1.279950023E0,1.680512556E1
9.994917570E-1,-9.001950264E0,-1.411905098E1,1.203000069E0,1.678779075E1
1.001455424E0,-8.964000702E0,-1.411905098E1,1.240950108E0,1.677023752E1
1.003418940E0,-8.887050629E0,-1.427205086E1,1.203000069E0,1.685580949E1
1.005382501E0,-8.809950829E0,-1.450200081E1,1.165050030E0,1.700825102E1
1.007346215E0,-8.809950829E0,-1.469400024E1,1.240950108E0,1.717756775E1
1.009309884E0,-8.619000435E0,-1.507695103E1,1.279950023E0,1.741378456E1
1.011273625E0,-8.580000877E0,-1.538400078E1,1.395000100E0,1.767002887E1
1.013237345E0,-8.350950241E0,-1.565205097E1,1.471050024E0,1.780137797E1
1.015201213E0,-8.082000732E0,-1.591995049E1,1.471050024E0,1.791445080E1
1.017165038E0,-7.813950539E0,-1.611194992E1,1.471050024E0,1.796710164E1
1.019128708E0,-7.507050514E0,-1.638000107E1,1.510050058E0,1.808149589E1
1.021092424E0,-7.123950481E0,-1.664895058E1,1.624950051E0,1.818182302E1
1.023055887E0,-6.741000175E0,-1.687905121E1,1.663050056E0,1.825127909E1
1.025019424E0,-6.319050312E0,-1.707000160E1,1.816050053E0,1.829244077E1
1.026982962E0,-5.821050167E0,-1.737705040E1,2.008050203E0,1.843580135E1
1.028946499E0,-5.245950222E0,-1.764495087E1,2.238000154E0,1.854381108E1
1.030909562E0,-4.671000004E0,-1.783695030E1,2.353049994E0,1.858794990E1
1.032872751E0,-4.173000336E0,-1.783695030E1,2.467950106E0,1.848408790E1
1.034836168E0,-3.559950113E0,-1.787505150E1,2.659050226E0,1.841904609E1
1.036799518E0,-2.985000134E0,-1.783695030E1,2.736000061E0,1.829078233E1
1.038763224E0,-2.485950232E0,-1.764495087E1,2.812950134E0,1.803987051E1
1.040726826E0,-1.987950087E0,-1.737705040E1,2.851050138E0,1.772123904E1
1.042690386E0,-1.605000019E0,-1.707000160E1,2.851050138E0,1.738072112E1
1.044653968E0,-1.260000110E0,-1.668704987E1,2.812950134E0,1.696932297E1
1.046617273E0,-8.380500674E-1,-1.626495171E1,2.851050138E0,1.653419090E1
1.048580660E0,-4.930500090E-1,-1.584405041E1,2.928000212E0,1.611987025E1
1.050544223E0,-7.200000435E-2,-1.542195034E1,3.043050051E0,1.571947486E1
1.052507735E0,3.490500152E-1,-1.507695103E1,3.043050051E0,1.538494205E1
1.054471819E0,8.850000501E-1,-1.477095032E1,3.043050051E0,1.510709608E1
1.056435735E0,1.345050097E0,-1.450200081E1,3.081000090E0,1.488656269E1
1.058398894E0,1.767000079E0,-1.431105042E1,3.081000090E0,1.474520311E1
1.060362275E0,2.380050182E0,-1.411905098E1,3.004050255E0,1.462998829E1
1.062325839E0,2.878050089E0,-1.388895035E1,2.889000177E0,1.447523527E1
1.064289350E0,3.453000069E0,-1.365900040E1,2.659050226E0,1.433743525E1
1.066252844E0,3.913050175E0,-1.342905045E1,2.275950193E0,1.417149628E1
1.068216347E0,4.258049965E0,-1.316100025E1,1.740000129E0,1.394168274E1
1.070179891E0,4.642050266E0,-1.289295101E1,1.318050027E0,1.376641102E1
1.072143422E0,4.987050056E0,-1.258605099E1,7.429500222E-1,1.355844100E1
1.074107683E0,5.254950047E0,-1.220295048E1,2.449500114E-1,1.328858536E1
1.076071730E0,5.523000240E0,-1.178100014E1,-2.140500098E-1,1.301312081E1
1.078035367E0,5.791050434E0,-1.139805031E1,-8.659500480E-1,1.281412055E1
1.079999121E0,6.097950459E0,-1.109100056E1,-1.516950130E0,1.274740879E1
1.081962847E0,6.250950336E0,-1.047795010E1,-2.014950037E0,1.236615712E1
1.083926582E0,6.328050137E0,-9.826050758E0,-2.284050226E0,1.190850022E1
1.085890087E0,6.366000175E0,-9.366000175E0,-2.284050226E0,1.155269678E1
1.087853659E0,6.250950336E0,-8.752950668E0,-2.206950188E0,1.097994329E1
1.089817580E0,6.250950336E0,-8.254950523E0,-2.092050076E0,1.056386585E1
1.091781378E0,6.289950371E0,-7.795050144E0,-2.130000114E0,1.024027260E1
1.093744693E0,6.366000175E0,-7.258050442E0,-2.053950071E0,9.870357914E0
1.095708150E0,6.481050491E0,-6.913050175E0,-2.092050076E0,9.704171871E0
1.097671836E0,6.595950127E0,-6.568950176E0,-2.092050076E0,9.541191645E0
1.099635455E0,6.595950127E0,-5.994000435E0,-2.092050076E0,9.154849688E0
1.101599210E0,6.595950127E0,-5.572050095E0,-2.359950066E0,8.951182304E0
1.103562922E0,6.595950127E0,-5.149950027E0,-2.437050104E0,8.715948403E0
1.105526567E0,6.520050526E0,-4.804950237E0,-2.667000055E0,8.527103549E0
1.107490232E0,6.481050491E0,-4.422000408E0,-2.859000206E0,8.350567960E0
1.109453973E0,6.405000210E0,-4.077000141E0,-2.974050045E0,8.154197171E0
1.111417691E0,6.213000298E0,-3.771000147E0,-3.049950123E0,7.881878618E0
1.113381520E0,5.944950104E0,-3.463950157E0,-3.241950035E0,7.606025405E0
1.115345312E0,5.752950191E0,-3.196050167E0,-3.241950035E0,7.336307832E0
1.117309348E0,5.446050167E0,-3.042000055E0,-3.549000263E0,7.176951277E0
1.119273312E0,5.178000450E0,-2.812050104E0,-3.586950064E0,6.898226236E0
1.121237318E0,4.909950256E0,-2.659050226E0,-3.664050102E0,6.678579398E0
1.123201312E0,4.603050232E0,-2.467050076E0,-3.510000229E0,6.292416795E0
1.125164852E0,4.411950111E0,-2.351999998E0,-3.472050190E0,6.087063356E0
1.127128501E0,4.066950321E0,-2.199000120E0,-3.357000113E0,5.713592232E0
1.129092335E0,3.760050297E0,-1.969050050E0,-3.088950157E0,5.249452296E0
1.131056115E0,3.529950142E0,-1.930950046E0,-2.896950245E0,4.957967003E0
1.133019613E0,3.262050152E0,-1.701000094E0,-2.704950094E0,4.566303486E0
1.134983194E0,2.917050123E0,-1.509000063E0,-2.514000177E0,4.135995588E0
1.136946424E0,2.610000134E0,-1.318050027E0,-2.398950100E0,3.782104990E0
1.138909747E0,2.341950178E0,-1.164000034E0,-2.245050192E0,3.446719757E0
1.140873637E0,1.959000111E0,-9.340500236E-1,-2.322000027E0,3.178335257E0
1.142837361E0,1.729050040E0,-7.039500475E-1,-2.359950066E0,3.009073615E0
1.144800913E0,1.422000051E0,-5.890500546E-1,-2.475000143E0,2.914565117E0
1.146764516E0,1.192050099E0,-3.979500234E-1,-2.629050016E0,2.913975231E0
1.148727313E0,7.699500322E-1,-2.830500007E-1,-2.896950245E0,3.010857200E0
1.150690353E0,4.260000288E-1,-1.680000126E-1,-3.165000200E0,3.197956581E0
1.152654111E0,1.570500135E-1,-2.059500068E-1,-3.472050190E0,3.481696804E0
1.154617658E0,-2.250000089E-1,-2.059500068E-1,-3.970050097E0,3.981750642E0
1.156581196E0,-6.850500107E-1,-2.440500110E-1,-4.507050037E0,4.565342700E0
1.158544737E0,-1.260000110E0,-2.440500110E-1,-5.119950294E0,5.278356913E0
1.160508285E0,-1.758000135E0,-2.440500110E-1,-5.848050117E0,6.111449506E0
1.162471824E0,-2.332950115E0,-2.440500110E-1,-6.538050175E0,6.946100830E0
1.164435362E0,-2.985000134E0,-2.059500068E-1,-7.189950466E0,7.787684438E0
1.166398901E0,-3.483000278E0,-2.440500110E-1,-7.879950523E0,8.618843983E0
1.168362844E0,-4.096050262E0,-3.589500189E-1,-8.569950104E0,9.505288930E0
1.170326668E0,-4.747950077E0,-3.210000098E-1,-9.106050491E0,1.027454264E1
1.172290135E0,-5.284050465E0,-3.210000098E-1,-9.565950394E0,1.093305251E1
1.174253723E0,-5.821050167E0,-2.830500007E-1,-9.949050903E0,1.153032334E1
1.176217387E0,-6.280950069E0,-2.440500110E-1,-1.029405022E1,1.206139975E1
1.178181029E0,-6.817050457E0,-2.059500068E-1,-1.037100029E1,1.241258391E1
1.180144551E0,-7.276950359E0,-1.680000126E-1,-1.037100029E1,1.267043320E1
1.182108108E0,-7.660950184E0,-1.290000081E-1,-1.021800041E1,1.277162210E1
1.184071808E0,-7.966950417E0,-1.290000081E-1,-9.834000587E0,1.265687590E1
1.186035476E0,-8.158950806E0,-1.290000081E-1,-9.259050369E0,1.234160172E1
1.187998993E0,-8.427000046E0,-1.290000081E-1,-8.683950424E0,1.210132083E1
1.189962554E0,-8.464950562E0,-1.290000081E-1,-8.032950401E0,1.167048933E1
1.191926628E0,-8.389050484E0,-9.105000645E-2,-7.266000271E0,1.109861334E1
1.193890552E0,-8.082000732E0,-9.105000645E-2,-6.307950497E0,1.025267114E1
1.195854377E0,-7.660950184E0,-9.105000645E-2,-5.272950172E0,9.300669403E0
1.197818238E0,-6.931950092E0,-1.290000081E-1,-4.429950237E0,8.227577541E0
1.199781721E0,-6.357000351E0,-1.290000081E-1,-3.664050102E0,7.338484695E0
1.201745315E0,-5.782950401E0,-1.290000081E-1,-3.049950123E0,6.539216474E0
1.203708844E0,-5.245950222E0,-1.290000081E-1,-2.322000027E0,5.738320212E0
1.205672392E0,-4.747950077E0,-1.290000081E-1,-1.671000123E0,5.035068256E0
1.207635169E0,-4.326000214E0,-5.295000225E-2,-1.018950105E0,4.444698063E0
1.209598199E0,-4.057950020E0,9.900000691E-2,-2.910000086E-1,4.069574962E0
1.211561104E0,-3.712950230E0,1.380000114E-1,5.509500504E-1,3.756140222E0
1.213524045E0,-3.445050240E0,2.530499995E-1,1.318050027E0,3.697250509E0
1.215487685E0,-3.100050211E0,3.289500177E-1,1.855050087E0,3.627634250E0
1.217451120E0,-2.793000221E0,4.830000103E-1,2.506050110E0,3.783441079E0
1.219414676E0,-2.524950027E0,6.360000372E-1,2.965950251E0,3.946736573E0
1.221378197E0,-2.332950115E0,7.129500508E-1,3.426000118E0,4.205761623E0
1.223341918E0,-1.950000048E0,7.129500508E-1,3.847950220E0,4.372358501E0
1.225305581E0,-1.528050065E0,4.060500264E-1,4.345950127E0,4.624618485E0
1.227268919E0,-1.106999993E0,2.140500098E-1,4.843950272E0,4.973441527E0
1.229232353E0,-7.230000496E-1,2.140500098E-1,5.380950451E0,5.433523188E0
1.231196873E0,-3.400500119E-1,2.295000106E-2,5.725950241E0,5.736084629E0
1.233161062E0,1.189500093E-1,-9.105000645E-2,6.147000313E0,6.148825258E0
1.235125345E0,5.790000558E-1,-1.680000126E-1,6.492000103E0,6.519933313E0
1.237089600E0,9.240000248E-1,-2.440500110E-1,6.799050331E0,6.865888279E0
1.239053242E0,1.230000019E0,-3.210000098E-1,7.105050564E0,7.217872579E0
1.241017064E0,1.384050012E0,-4.740000367E-1,7.374000549E0,7.517722698E0
1.242980744E0,1.614000082E0,-6.280500293E-1,7.680000305E0,7.872855123E0
1.244944459E0,1.804950118E0,-8.190000653E-1,7.948950291E0,8.192338907E0
1.246908147E0,2.188950062E0,-1.011000037E0,8.140049934E0,8.489642889E0
1.248871843E0,2.341950178E0,-1.126049995E0,8.254950523E0,8.654301091E0
1.250835535E0,2.494950056E0,-1.356000066E0,8.254950523E0,8.729703323E0
1.252799228E0,2.610000134E0,-1.432950020E0,8.217000008E0,8.739824688E0
1.254762901E0,2.725050211E0,-1.624050021E0,8.064000130E0,8.665537214E0
1.256726594E0,2.878050089E0,-1.777950048E0,7.834050179E0,8.533265547E0
1.258690061E0,2.955000162E0,-1.969050050E0,7.527000427E0,8.322554865E0
1.260653594E0,2.878050089E0,-2.008050203E0,7.297050476E0,8.097060182E0
1.262617132E0,2.917050123E0,-2.008050203E0,6.952050209E0,7.802079796E0
1.264580668E0,3.108000040E0,-2.083950043E0,6.568950176E0,7.560001220E0
1.266544256E0,3.223050117E0,-2.122950077E0,6.031950474E0,7.160963316E0
1.268507826E0,3.376950264E0,-2.046000004E0,5.533950329E0,6.798125870E0
1.270471494E0,3.453000069E0,-1.893000126E0,4.959000111E0,6.332325090E0
1.272435134E0,3.376950264E0,-1.777950048E0,4.308000088E0,5.755324858E0
1.274398656E0,3.568050146E0,-1.738950133E0,3.808950186E0,5.501184502E0
1.276362213E0,3.645000219E0,-1.663050056E0,3.310950041E0,5.197514046E0
1.278325753E0,3.760050297E0,-1.585950017E0,2.773950100E0,4.934370765E0
1.280289295E0,3.721950293E0,-1.471050024E0,2.275950193E0,4.604003848E0
1.282252877E0,3.760050297E0,-1.432950020E0,1.740000129E0,4.383939375E0
1.284216447E0,3.760050297E0,-1.356000066E0,1.395000100E0,4.233525681E0
1.286179756E0,3.760050297E0,-1.279050112E0,1.087950110E0,4.117958580E0
1.288143141E0,3.798000097E0,-1.126049995E0,6.660000086E-1,4.017007511E0
1.290107855E0,3.798000097E0,-1.048950076E0,2.449500114E-1,3.947797045E0
1.292072163E0,3.721950293E0,-1.011000037E0,-2.205000073E-2,3.856879731E0
1.294035525E0,3.721950293E0,-8.959500194E-1,-2.520000041E-1,3.836553717E0
1.295999165E0,3.645000219E0,-9.340500236E-1,-4.819500148E-1,3.793514447E0
1.297962731E0,3.568050146E0,-8.959500194E-1,-7.510500550E-1,3.754701648E0
1.299926319E0,3.492000103E0,-9.730500579E-1,-1.018950105E0,3.765521272E0
1.301889998E0,3.376950264E0,-1.011000037E0,-1.326000094E0,3.766190437E0
1.303853640E0,3.147000074E0,-1.011000037E0,-1.516950130E0,3.636876165E0
1.305817566E0,2.955000162E0,-1.011000037E0,-1.708950043E0,3.560148492E0
1.307781409E0,2.839950085E0,-9.730500579E-1,-1.824000120E0,3.512708262E0
1.309745032E0,2.725050211E0,-1.048950076E0,-1.861950040E0,3.463098737E0
1.311708719E0,2.457000017E0,-1.048950076E0,-2.053950071E0,3.369845136E0
1.313672386E0,2.265000105E0,-1.048950076E0,-1.977000117E0,3.184187683E0
1.315636076E0,2.074050188E0,-1.048950076E0,-2.014950037E0,3.076037077E0
1.317599635E0,1.882050037E0,-1.011000037E0,-1.939050078E0,2.885160069E0
1.319563232E0,1.690050125E0,-9.730500579E-1,-1.900950074E0,2.723363183E0
1.321526895E0,1.498950124E0,-9.340500236E-1,-1.900950074E0,2.594785560E0
1.323490538E0,1.422000051E0,-9.730500579E-1,-1.939050078E0,2.593998027E0
1.325453739E0,1.345050097E0,-9.730500579E-1,-1.861950040E0,2.494562913E0
1.327417073E0,1.306950092E0,-9.340500236E-1,-2.014950037E0,2.576934544E0
1.329380961E0,1.269000053E0,-9.340500236E-1,-2.014950037E0,2.557896447E0
1.331344687E0,1.192050099E0,-8.580000401E-1,-2.014950037E0,2.493425587E0
1.333308418E0,1.153950095E0,-8.959500194E-1,-2.014950037E0,2.488845297E0
1.335272148E0,1.039050102E0,-8.190000653E-1,-2.053950071E0,2.443173575E0
1.337235795E0,9.619500637E-1,-7.429500222E-1,-2.014950037E0,2.353156670E0
1.339199463E0,8.850000501E-1,-6.280500293E-1,-2.014950037E0,2.288601228E0
1.341163203E0,8.089500666E-1,-5.130000114E-1,-2.014950037E0,2.231051966E0
1.343126922E0,6.940500140E-1,-4.360500276E-1,-1.977000117E0,2.140180953E0
1.345089710E0,6.550500393E-1,-2.830500007E-1,-1.900950074E0,2.030472615E0
1.347052771E0,5.790000558E-1,-2.059500068E-1,-1.824000120E0,1.924742297E0
1.349016876E0,6.169500351E-1,-1.290000081E-1,-1.671000123E0,1.785919864E0
1.350980682E0,6.550500393E-1,-9.105000645E-2,-1.555950046E0,1.690668862E0
1.352943455E0,6.940500140E-1,-1.500000060E-2,-1.249050021E0,1.429005380E0
1.354906530E0,8.089500666E-1,9.900000691E-2,-9.040500522E-1,1.217172013E0
1.356870147E0,8.089500666E-1,2.140500098E-1,-4.819500148E-1,9.656569959E-1
1.358833605E0,1.000050068E0,2.910000086E-1,-6.105000153E-2,1.043315986E0
1.360796165E0,1.114950061E0,3.289500177E-1,3.600000143E-1,1.216931289E0
1.362758957E0,1.306950092E0,2.910000086E-1,7.050000429E-1,1.513216643E0
1.364722577E0,1.345050097E0,3.679500222E-1,1.011000037E0,1.722401828E0
1.366685955E0,1.345050097E0,4.440000355E-1,1.279950023E0,1.909075131E0
1.368649521E0,1.384050012E0,5.590500236E-1,1.548000097E0,2.150450107E0
1.370613032E0,1.422000051E0,7.129500508E-1,1.855050087E0,2.443684256E0
1.372576571E0,1.422000051E0,9.810000658E-1,2.353049994E0,2.919124791E0
1.374540105E0,1.384050012E0,1.288050056E0,2.812950134E0,3.389300199E0
1.376503511E0,1.459950089E0,1.708950043E0,3.310950041E0,4.001793933E0
1.378466954E0,1.614000082E0,2.092950106E0,3.618000269E0,4.480553800E0
1.380430463E0,1.804950118E0,2.284050226E0,3.234000206E0,4.351262770E0
1.382393952E0,2.227050066E0,2.437050104E0,2.161050081E0,3.945770224E0
1.384358269E0,2.419050217E0,2.245950222E0,3.979500234E-1,3.324824893E0
1.386322340E0,1.959000111E0,1.671000123E0,-2.514000177E0,3.598627480E0
1.388286148E0,1.384050012E0,1.057950020E0,-5.809950352E0,6.065507050E0
1.390250034E0,1.114950061E0,4.440000355E-1,-7.995000362E0,8.084570518E0
1.392214008E0,6.550500393E-1,-5.295000225E-2,-8.914050102E0,8.938242751E0
1.394177956E0,8.100000024E-2,-3.589500189E-1,-8.875950813E0,8.883575235E0
1.396141679E0,-4.930500090E-1,-8.580000401E-1,-8.301000595E0,8.359777106E0
1.398105448E0,-9.919500351E-1,-1.585950017E0,-7.765050411E0,7.987190383E0
1.400069441E0,-1.489950061E0,-2.467050076E0,-7.342950344E0,7.888295571E0
1.402033369E0,-2.179949999E0,-3.426000118E0,-7.189950466E0,8.257423721E0
1.403997203E0,-2.908050060E0,-4.690050125E0,-7.075050354E0,8.972717695E0
1.405961064E0,-3.828000069E0,-6.300000191E0,-7.075050354E0,1.021762812E1
1.407924573E0,-4.939050198E0,-8.254950523E0,-7.075050354E0,1.194130489E1
1.409888198E0,-6.280950069E0,-1.063095093E1,-7.305000305E0,1.434679340E1
1.411852036E0,-8.005949974E0,-1.319895077E1,-7.458000183E0,1.714436651E1
1.413815812E0,-9.883950233E0,-1.565205097E1,-6.499950409E0,1.961959549E1
1.415779715E0,-1.153200054E1,-1.779900169E1,-4.852050304E0,2.175623795E1
1.417743581E0,-1.264305019E1,-1.975305176E1,-3.394950151E0,2.369716140E1
1.419707389E0,-1.325595093E1,-2.167005157E1,-2.169000149E0,2.549541002E1
1.421671207E0,-1.367805099E1,-2.362395096E1,-1.861950040E0,2.736141436E1
1.423635102E0,-1.390800095E1,-2.573205185E1,-1.402050018E0,2.928372802E1
1.425598975E0,-1.413795090E1,-2.810895157E1,-1.326000094E0,3.149211155E1
1.427561691E0,-1.440600109E1,-3.060000229E1,-5.590500236E-1,3.382610744E1
1.429524746E0,-1.467495060E1,-3.358905029E1,3.600000143E-1,3.665662389E1
1.431488563E0,-1.463595104E1,-3.673200226E1,1.126049995E0,3.955652969E1
1.433452177E0,-1.402305031E1,-3.952995300E1,2.008050203E0,4.199161095E1
1.435416199E0,-1.306500053E1,-4.232805252E1,3.388050079E0,4.442788710E1
1.437380101E0,-1.130205059E1,-4.470405197E1,4.768050194E0,4.635647649E1
1.439344118E0,-8.542050362E0,-4.665900040E1,6.186000347E0,4.783613219E1
1.441308101E0,-5.859000206E0,-4.865205383E1,6.991050243E0,4.949974757E1
1.443271944E0,-3.636000156E0,-5.029995346E1,7.909950256E0,5.104775341E1
1.445235814E0,-1.642950058E0,-5.198700333E1,8.254950523E0,5.266395359E1
1.447200060E0,-1.480500102E-1,-5.340495300E1,8.064000130E0,5.401054547E1
1.449164196E0,1.537050128E0,-5.516805267E1,6.991050243E0,5.563048932E1
1.451128669E0,3.607050180E0,-5.700795364E1,3.886050224E0,5.725398655E1
1.453093043E0,6.175050259E0,-5.923095322E1,-7.120500207E-1,5.955622621E1
1.455056600E0,9.010950089E0,-6.072495270E1,-6.691050529E0,6.175343925E1
1.457020410E0,1.234500027E1,-6.206700134E1,-1.527705097E1,6.510069104E1
1.458984262E0,1.594800091E1,-6.260295486E1,-2.393895149E1,6.889515287E1
1.460948101E0,1.924395180E1,-6.160695267E1,-3.125895119E1,7.171379454E1
1.462911948E0,2.181195068E1,-5.926905441E1,-3.417195129E1,7.180741089E1
1.464875793E0,2.299995041E1,-5.589600372E1,-3.145095062E1,6.813606421E1
1.466839643E0,2.338395119E1,-5.194800186E1,-2.558700180E1,6.245077047E1
1.468803489E0,2.284695053E1,-4.792395401E1,-1.914795113E1,5.643875042E1
1.470767156E0,2.150595093E1,-4.405305099E1,-1.282395077E1,5.067179630E1
1.472730876E0,1.997295189E1,-4.071795273E1,-6.844950199E0,4.586636921E1
1.474693527E0,1.767300034E1,-3.761400223E1,-1.824000120E0,4.159897933E1
1.476656491E0,1.506705093E1,-3.454800034E1,1.969950080E0,3.774203299E1
1.478619957E0,1.054395008E1,-3.106005096E1,3.541050196E0,3.299152445E1
1.480583268E0,6.289950371E0,-2.784000206E1,3.234000206E0,2.872434416E1
1.482546261E0,2.992950201E0,-2.523405075E1,2.046000004E0,2.549315956E1
1.484509347E0,3.490500152E-1,-2.331795120E1,7.429500222E-1,2.333239505E1
1.486473503E0,-1.834950089E0,-2.178495026E1,-5.970000029E-1,2.187024253E1
1.488437345E0,-3.559950113E0,-2.055795097E1,-1.555950046E0,2.092184441E1
1.490401044E0,-4.863000393E0,-1.960005188E1,-2.053950071E0,2.029851023E1
1.492364795E0,-5.935950279E0,-1.875705147E1,-2.322000027E0,1.981045607E1
1.494328611E0,-6.702000141E0,-1.814295006E1,-2.437050104E0,1.949416979E1
1.496292408E0,-7.201050282E0,-1.768395042E1,-2.590050220E0,1.926877235E1
1.498255768E0,-7.392000198E0,-1.733895111E1,-2.704950094E0,1.904199694E1
1.500219256E0,-7.315950394E0,-1.714695168E1,-2.743950129E0,1.884331033E1
1.502183133E0,-6.970950127E0,-1.707000160E1,-2.820000172E0,1.865292206E1
1.504146885E0,-6.549000263E0,-1.710900116E1,-2.590050220E0,1.850177519E1
1.506110792E0,-6.204000473E0,-1.699394989E1,-2.130000114E0,1.821595057E1
1.508074654E0,-5.898000240E0,-1.687905121E1,-1.287000060E0,1.792610236E1
1.510038093E0,-5.668050289E0,-1.676399994E1,-4.819500148E-1,1.770284621E1
1.512001656E0,-5.553000450E0,-1.649505043E1,2.070000172E-1,1.740589991E1
1.513964528E0,-5.208000183E0,-1.638000107E1,5.509500504E-1,1.719683828E1
1.515927593E0,-5.016000271E0,-1.626495171E1,9.730500579E-1,1.704862866E1
1.517891752E0,-4.786050320E0,-1.615005112E1,1.279950023E0,1.689285946E1
1.519855591E0,-4.518000126E0,-1.591995049E1,1.318050027E0,1.660103625E1
1.521819079E0,-4.249050140E0,-1.572900105E1,1.432950020E0,1.635570991E1
1.523782670E0,-4.018949986E0,-1.565205097E1,1.471050024E0,1.622660306E1
1.525746194E0,-3.712950230E0,-1.557600117E1,1.510050058E0,1.608347173E1
1.527709742E0,-3.445050240E0,-1.546095085E1,1.510050058E0,1.591193337E1
1.529673818E0,-3.291000128E0,-1.542195034E1,1.585950017E0,1.584873722E1
1.531637740E0,-3.100050211E0,-1.530705070E1,1.585950017E0,1.569813206E1
1.533601530E0,-3.138000250E0,-1.523100090E1,1.663050056E0,1.563957063E1
1.535565358E0,-2.985000134E0,-1.519200039E1,1.740000129E0,1.557994551E1
1.537529226E0,-2.985000134E0,-1.503900051E1,1.855050087E0,1.544418897E1
1.539493068E0,-2.830950022E0,-1.492395115E1,1.969950080E0,1.531728759E1
1.541457095E0,-2.755050182E0,-1.473195076E1,2.008050203E0,1.512127443E1
1.543421068E0,-2.716050148E0,-1.442595100E1,1.969950080E0,1.481099909E1
1.545385073E0,-2.601000071E0,-1.419600105E1,1.893000126E0,1.455592995E1
1.547349068E0,-2.410050154E0,-1.388895035E1,1.816050053E0,1.421299832E1
1.549312930E0,-2.332950115E0,-1.362105083E1,1.740000129E0,1.392850611E1
1.551276834E0,-2.256000042E0,-1.327605057E1,1.701000094E0,1.357337306E1
1.553240849E0,-2.218050003E0,-1.285395050E1,1.663050056E0,1.314950664E1
1.555204832E0,-2.140950203E0,-1.250895023E1,1.663050056E0,1.279934526E1
1.557168791E0,-2.065050125E0,-1.216395092E1,1.624950051E0,1.244454084E1
1.559132757E0,-1.950000048E0,-1.178100014E1,1.585950017E0,1.204614884E1
1.561096601E0,-1.834950089E0,-1.143600082E1,1.624950051E0,1.169570944E1
1.563060468E0,-1.528050065E0,-1.120605087E1,1.740000129E0,1.144281930E1
1.565024176E0,-1.260000110E0,-1.097595024E1,1.855050087E0,1.120269141E1
1.566987930E0,-8.380500674E-1,-1.066995049E1,2.008050203E0,1.088955632E1
1.568951612E0,-4.170000255E-1,-1.036305046E1,2.391000032E0,1.064347617E1
1.570915315E0,4.050000105E-3,-1.009500027E1,2.698050022E0,1.044933111E1
1.572880085E0,3.490500152E-1,-9.865050316E0,2.928000212E0,1.029632162E1
1.574844543E0,8.089500666E-1,-9.634950638E0,3.081000090E0,1.014786852E1
1.576808105E0,1.077000022E0,-9.366000175E0,3.273000240E0,9.979700342E0
1.578771930E0,1.345050097E0,-9.097949982E0,3.234000206E0,9.748877421E0
1.580735959E0,1.614000082E0,-8.791950226E0,3.388050079E0,9.559407324E0
1.582699928E0,1.996950150E0,-8.599950790E0,3.349050045E0,9.442621442E0
1.584663749E0,2.304000139E0,-8.407950401E0,3.196050167E0,9.285299309E0
1.586627617E0,2.457000017E0,-8.217000008E0,2.965950251E0,9.074844302E0
1.588591460E0,2.494950056E0,-7.987050533E0,2.736000061E0,8.803604281E0
1.590555310E0,2.419050217E0,-7.680000305E0,2.467950106E0,8.421697356E0
1.592518795E0,2.188950062E0,-7.372950554E0,2.161050081E0,7.988869738E0
1.594482387E0,1.882050037E0,-7.066950321E0,1.969950080E0,7.573942336E0
1.596446109E0,1.537050128E0,-6.645000458E0,1.663050056E0,7.020277036E0
1.598409783E0,1.306950092E0,-6.184950352E0,1.510050058E0,6.499383092E0
1.600373299E0,1.114950061E0,-5.764050484E0,1.395000100E0,6.034353064E0
1.602336862E0,1.000050068E0,-5.419050217E0,1.165050030E0,5.632366018E0
1.604300171E0,9.619500637E-1,-5.112000465E0,9.730500579E-1,5.291948894E0
1.606263555E0,1.000050068E0,-4.920000076E0,8.200500607E-1,5.087138979E0
1.608227090E0,9.619500637E-1,-4.729050159E0,5.509500504E-1,4.857242972E0
1.610190601E0,8.850000501E-1,-4.461000443E0,5.130000114E-1,4.576780424E0
1.612155046E0,6.940500140E-1,-4.269000053E0,3.220500052E-1,4.337024681E0
1.614119217E0,5.790000558E-1,-4.039050102E0,2.070000172E-1,4.085586347E0
1.616082107E0,5.410500169E-1,-3.886050224E0,5.295000225E-2,3.923891585E0
1.618045373E0,3.109500110E-1,-3.616950274E0,-9.900000691E-2,3.631641529E0
1.620009186E0,8.100000024E-2,-3.349050045E0,-3.289500177E-1,3.366141013E0
1.621972836E0,-3.299999982E-2,-3.196050167E0,-5.970000029E-1,3.251497297E0
1.623936851E0,-1.099500060E-1,-2.965950251E0,-7.510500550E-1,3.061539821E0
1.625900759E0,-1.480500102E-1,-2.773950100E0,-1.018950105E0,2.958881086E0
1.627864416E0,-2.250000089E-1,-2.620950222E0,-1.326000094E0,2.945892279E0
1.629828146E0,-3.400500119E-1,-2.391000032E0,-1.747050047E0,2.980721227E0
1.631791876E0,-3.780000210E-1,-2.199000120E0,-2.014950037E0,3.006411348E0
1.633755606E0,-4.549500346E-1,-2.008050203E0,-2.284050226E0,3.075082208E0
1.635719427E0,-5.320500135E-1,-1.777950048E0,-2.590050220E0,3.186305656E0
1.637683221E0,-7.620000243E-1,-1.701000094E0,-3.127050161E0,3.640396691E0
1.639646897E0,-9.529500604E-1,-1.509000063E0,-3.510000229E0,3.937676550E0
1.641610608E0,-1.144950032E0,-1.279050112E0,-4.315050125E0,4.643978612E0
1.643574351E0,-1.375050068E0,-1.048950076E0,-5.082000256E0,5.368219961E0
1.645538077E0,-1.681950092E0,-7.429500222E-1,-6.154950142E0,6.423732723E0
1.647501765E0,-2.295000076E0,-3.979500234E-1,-7.495950222E0,7.849500577E0
1.649465464E0,-2.869950056E0,-1.290000081E-1,-9.373950005E0,9.804294621E0
1.651428254E0,-3.598050117E0,9.900000691E-2,-1.079295063E1,1.137732609E1
1.653391310E0,-4.402950287E0,3.679500222E-1,-1.213395023E1,1.291333058E1
1.655355240E0,-5.284050465E0,6.360000372E-1,-1.397400093E1,1.495320659E1
1.657318918E0,-6.051000118E0,9.040500522E-1,-1.523895073E1,1.642125234E1
1.659282434E0,-6.625950336E0,1.018950105E0,-1.612005043E1,1.745845076E1
1.661245997E0,-7.086000443E0,1.057950020E0,-1.673295021E1,1.820226039E1
1.663209351E0,-7.276950359E0,1.018950105E0,-1.711695099E1,1.862746029E1
1.665172766E0,-7.315950394E0,9.040500522E-1,-1.707795143E1,1.860099088E1
1.667136545E0,-6.970950127E0,6.360000372E-1,-1.681005096E1,1.820924093E1
1.669100221E0,-6.280950069E0,2.910000086E-1,-1.619700050E1,1.737463209E1
1.671064772E0,-5.323050022E0,-5.295000225E-2,-1.523895073E1,1.614197276E1
1.673029067E0,-4.441050053E0,-2.059500068E-1,-1.443405056E1,1.510321676E1
1.674992341E0,-3.598050117E0,-3.979500234E-1,-1.362900066E1,1.410155977E1
1.676955915E0,-2.755050182E0,-5.890500546E-1,-1.282395077E1,1.312977512E1
1.678919601E0,-2.026050091E0,-7.810500264E-1,-1.217205048E1,1.236421170E1
1.680883240E0,-1.413000107E0,-1.011000037E0,-1.148205090E1,1.161275950E1
1.682846582E0,-8.770500422E-1,-1.126049995E0,-1.075395012E1,1.084825555E1
1.684810011E0,-3.400500119E-1,-1.279050112E0,-1.006395054E1,1.015060115E1
1.686774333E0,1.189500093E-1,-1.393950105E0,-9.336000443E0,9.440241007E0
1.688738394E0,5.790000558E-1,-1.471050024E0,-8.416049957E0,8.563242734E0
1.690702159E0,1.077000022E0,-1.585950017E0,-7.420050144E0,7.663700845E0
1.692666011E0,1.384050012E0,-1.624050021E0,-6.615000248E0,6.950637466E0
1.694629360E0,1.767000079E0,-1.624050021E0,-5.464950085E0,5.968710680E0
1.696592857E0,2.149950027E0,-1.585950017E0,-4.660050392E0,5.371553987E0
1.698556402E0,2.419050217E0,-1.509000063E0,-3.778950214E0,4.733851483E0
1.700519932E0,2.649000168E0,-1.471050024E0,-2.782050133E0,4.113513462E0
1.702483404E0,2.802000046E0,-1.393950105E0,-1.861950040E0,3.641587443E0
1.704446910E0,2.955000162E0,-1.240950108E0,-8.659500480E-1,3.319917561E0
1.706409913E0,3.070050240E0,-1.126049995E0,-1.759500057E-1,3.274775637E0
1.708373064E0,3.262050152E0,-1.087950110E0,3.600000143E-1,3.457485596E0
1.710336533E0,3.415050268E0,-1.048950076E0,1.011000037E0,3.712813714E0
1.712299908E0,3.607050180E0,-1.048950076E0,1.624950051E0,4.092868180E0
1.714263480E0,3.798000097E0,-1.203000069E0,2.353049994E0,4.626970734E0
1.716226990E0,4.066950321E0,-1.393950105E0,3.118950129E0,5.311405813E0
1.718190489E0,4.219950199E0,-1.624050021E0,4.039050102E0,6.062956695E0
1.720153992E0,4.564949989E0,-1.854000092E0,4.959000111E0,6.990548393E0
1.722117941E0,4.717950344E0,-2.046000004E0,5.572050095E0,7.582408174E0
1.724081760E0,4.833000183E0,-2.122950077E0,6.031950474E0,8.015562009E0
1.726045352E0,4.795050144E0,-2.122950077E0,6.262050152E0,8.167783972E0
1.728009035E0,4.603050232E0,-2.122950077E0,6.376950264E0,8.146194396E0
1.729973088E0,4.488000393E0,-2.083950043E0,6.454050541E0,8.132635716E0
1.731937033E0,4.297049999E0,-1.854000092E0,6.454050541E0,7.972247075E0
1.733901043E0,3.990000248E0,-1.701000094E0,6.415950298E0,7.744541402E0
1.735865033E0,3.645000219E0,-1.548000097E0,6.531000137E0,7.637819957E0
1.737829042E0,3.337950230E0,-1.509000063E0,6.684000492E0,7.621998131E0
1.739793072E0,3.031950235E0,-1.509000063E0,6.721950531E0,7.526913203E0
1.741756843E0,2.764050245E0,-1.548000097E0,6.760950089E0,7.466372892E0
1.743720690E0,2.533950090E0,-1.585950017E0,6.799050331E0,7.427195024E0
1.745684040E0,2.533950090E0,-1.777950048E0,6.913950443E0,7.575270303E0
1.747647536E0,2.686950207E0,-1.893000126E0,7.335000515E0,8.037747411E0
1.749611441E0,2.878050089E0,-2.008050203E0,7.872000217E0,8.618806493E0
1.751575226E0,3.108000040E0,-2.122950077E0,8.562000275E0,9.352776592E0
1.753539037E0,3.300000191E0,-2.238000154E0,9.060000420E0,9.898598565E0
1.755502841E0,3.376950264E0,-2.314050198E0,9.634950638E0,1.046856701E1
1.757466561E0,3.415050268E0,-2.391000032E0,1.021005058E1,1.102835357E1
1.759430305E0,3.415050268E0,-2.506050110E0,1.059300041E1,1.140852809E1
1.761394127E0,3.262050152E0,-2.659050226E0,1.082295036E1,1.161239742E1
1.763357923E0,3.070050240E0,-2.812050104E0,1.074705029E1,1.152527328E1
1.765321778E0,2.802000046E0,-2.889000177E0,1.044000053E1,1.118888455E1
1.767285616E0,2.610000134E0,-2.926950216E0,1.005705070E1,1.079460083E1
1.769249284E0,2.304000139E0,-2.851050138E0,9.481950760E0,1.016583955E1
1.771213002E0,2.035050154E0,-2.773950100E0,8.907000542E0,9.548344722E0
1.773176729E0,1.843950033E0,-2.773950100E0,8.293950081E0,8.937816222E0
1.775140457E0,1.651950121E0,-2.659050226E0,7.680000305E0,8.293484913E0
1.777104099E0,1.498950124E0,-2.620950222E0,7.182000160E0,7.790850906E0
1.779067767E0,1.345050097E0,-2.506050110E0,6.760950089E0,7.334841035E0
1.781031328E0,1.269000053E0,-2.428950071E0,6.301050186E0,6.871200261E0
1.782994920E0,1.192050099E0,-2.275950193E0,5.956050396E0,6.486560648E0
1.784958259E0,1.039050102E0,-2.161050081E0,5.572050095E0,6.066094693E0
1.786921680E0,9.619500637E-1,-2.046000004E0,5.266050339E0,5.730859457E0
1.788885417E0,8.089500666E-1,-2.046000004E0,4.768050194E0,5.251173095E0
1.790849062E0,7.320000529E-1,-2.161050081E0,4.269000053E0,4.840487887E0
1.792811818E0,5.020500422E-1,-2.199000120E0,3.771000147E0,4.394098074E0
1.794774834E0,4.639500082E-1,-2.275950193E0,3.004050255E0,3.797303889E0
1.796738691E0,3.870000243E-1,-2.351999998E0,2.122950077E0,3.191957086E0
1.798702298E0,2.719500065E-1,-2.314050198E0,1.356000066E0,2.695834064E0
1.800667222E0,1.189500093E-1,-2.275950193E0,-2.205000073E-2,2.279163134E0
1.802631760E0,-7.200000435E-2,-2.161050081E0,-1.249050021E0,2.497087786E0
1.804595173E0,-2.250000089E-1,-1.969050050E0,-2.245050192E0,2.994667505E0
1.806558916E0,-3.019500077E-1,-1.816050053E0,-3.433950186E0,3.896309212E0
1.808522604E0,-3.400500119E-1,-1.624050021E0,-5.082000256E0,5.346017123E0
1.810486305E0,-1.870500147E-1,-1.471050024E0,-6.346950531E0,6.517879787E0
1.812449996E0,-1.480500102E-1,-1.432950020E0,-7.534950256E0,7.671423592E0
1.814413690E0,-3.780000210E-1,-1.279050112E0,-8.569950104E0,8.673113512E0
1.816377336E0,-5.700000525E-1,-1.087950110E0,-9.220950127E0,9.302389840E0
1.818340997E0,-8.770500422E-1,-7.810500264E-1,-9.451050758E0,9.523739620E0
1.820304204E0,-1.030050039E0,-4.740000367E-1,-1.002600002E1,1.008991356E1
1.822267541E0,-1.183050036E0,-2.830500007E-1,-8.991000175E0,9.072916226E0
1.824230573E0,-1.452000022E0,-1.680000126E-1,-7.228050232E0,7.374363581E0
1.826193695E0,-1.642950058E0,-5.295000225E-2,-6.117000103E0,6.334017592E0
1.828157484E0,-1.795950055E0,1.759500057E-1,-5.388000488E0,5.682160176E0
1.830121077E0,-2.026050091E0,4.830000103E-1,-4.890000343E0,5.315098432E0
1.832084907E0,-2.103000164E0,7.890000343E-1,-4.545000076E0,5.069729424E0
1.834048678E0,-2.256000042E0,1.096050024E0,-4.353000164E0,5.023890153E0
1.836012403E0,-2.410050154E0,1.363950014E0,-4.353000164E0,5.159196819E0
1.837976141E0,-2.601000071E0,1.633050084E0,-4.276950359E0,5.265392513E0
1.839939645E0,-2.869950056E0,1.939050078E0,-4.084949970E0,5.355683410E0
1.841903218E0,-3.061050177E0,2.169000149E0,-3.664050102E0,5.244030223E0
1.843866885E0,-3.520950079E0,2.437050104E0,-3.088950157E0,5.279954142E0
1.845830524E0,-4.057950020E0,2.743950129E0,-2.437050104E0,5.471328347E0
1.847794046E0,-4.708950043E0,3.012000084E0,-1.632000089E0,5.823210395E0
1.849757603E0,-5.169000149E0,3.166050196E0,-9.420000315E-1,6.134313363E0
1.851721318E0,-5.553000450E0,3.280950069E0,-4.440000355E-1,6.465105056E0
1.853684986E0,-5.668050289E0,3.319050074E0,-6.105000153E-2,6.568608268E0
1.855647772E0,-5.553000450E0,3.433950186E0,1.300500035E-1,6.530294088E0
1.857610824E0,-5.208000183E0,3.586950064E0,4.360500276E-1,6.338739330E0
1.859574670E0,-4.824000359E0,3.702000141E0,5.899500251E-1,6.109322838E0
1.861538283E0,-4.363950253E0,3.856050253E0,7.050000429E-1,5.866021686E0
1.863501989E0,-4.018949986E0,4.047000408E0,8.200500607E-1,5.762174363E0
1.865465668E0,-3.865950108E0,4.201050282E0,9.730500579E-1,5.791478232E0
1.867429498E0,-3.904950142E0,4.354050159E0,1.011000037E0,5.935360939E0
1.869393283E0,-4.057950020E0,4.584000111E0,1.050000072E0,6.211482555E0
1.871356780E0,-4.249050140E0,4.660050392E0,9.730500579E-1,6.381012707E0
1.873320362E0,-4.518000126E0,4.813950062E0,7.429500222E-1,6.643674817E0
1.875284297E0,-4.671000004E0,5.005050182E0,5.509500504E-1,6.868210416E0
1.877248129E0,-4.786050320E0,5.158950329E0,3.220500052E-1,7.044484535E0
1.879212699E0,-4.555950165E0,5.311950207E0,1.680000126E-1,7.000122921E0
1.881177053E0,-4.441050053E0,5.427000046E0,-1.369500011E-1,7.013844193E0
1.883140633E0,-4.441050053E0,5.389050484E0,-6.360000372E-1,7.012081484E0
1.885104439E0,-4.518000126E0,5.082000256E0,-1.171950102E0,6.900182518E0
1.887068067E0,-4.671000004E0,4.354050159E0,-1.594050050E0,6.581564357E0
1.889031747E0,-4.555950165E0,3.204000235E0,-1.747050047E0,5.837335289E0
1.890995635E0,-4.363950253E0,1.863000035E0,-1.671000123E0,5.030613516E0
1.892959452E0,-4.288050175E0,4.830000103E-1,-1.326000094E0,4.514303884E0
1.894923664E0,-4.173000336E0,-8.580000401E-1,-1.210950017E0,4.429051345E0
1.896887760E0,-4.096050262E0,-2.351999998E0,-1.326000094E0,4.905895229E0
1.898851745E0,-4.210950375E0,-3.961950302E0,-1.708950043E0,6.029068212E0
1.900815762E0,-4.747950077E0,-5.725050449E0,-2.322000027E0,7.791721036E0
1.902779424E0,-5.668050289E0,-7.833000183E0,-3.241950035E0,1.019769219E1
1.904743204E0,-6.778950214E0,-1.028595066E1,-4.392000198E0,1.307840253E1
1.906706881E0,-8.121000290E0,-1.293105030E1,-5.503050327E0,1.623102802E1
1.908670589E0,-9.691950798E0,-1.565205097E1,-5.464950085E0,1.920380924E1
1.910634458E0,-1.134000015E1,-1.802805138E1,-4.660050392E0,2.180188775E1
1.912598279E0,-1.287300014E1,-2.005995178E1,-3.894000292E0,2.415117050E1
1.914562293E0,-1.417605114E1,-2.212995148E1,-3.817050219E0,2.655682682E1
1.916526230E0,-1.528800106E1,-2.469705200E1,-4.315050125E0,2.936472393E1
1.918489882E0,-1.616895103E1,-2.806995201E1,-4.813050270E0,3.274939139E1
1.920453617E0,-1.678305054E1,-3.220995331E1,-6.001950264E0,3.681270548E1
1.922417481E0,-1.639905167E1,-3.692400360E1,-7.458000183E0,4.108445818E1
1.924381307E0,-1.494300079E1,-4.213695145E1,-8.493000031E0,4.550765869E1
1.926345385E0,-1.225995064E1,-4.734900284E1,-8.761050224E0,4.968893700E1
1.928309355E0,-8.427000046E0,-5.248500061E1,-8.455050468E0,5.382543541E1
1.930273001E0,-4.134000301E0,-5.762100220E1,-7.611000538E0,5.826832057E1
1.932236742E0,-1.099500060E-1,-6.210495377E1,-6.346950531E0,6.242852835E1
1.934201011E0,3.376950264E0,-6.563100433E1,-4.582950115E0,6.587743130E1
1.936165125E0,6.481050491E0,-6.808395386E1,-2.935050249E0,6.845468069E1
1.938128663E0,9.010950089E0,-6.954105377E1,-2.053950071E0,7.015250596E1
1.940092396E0,1.104195023E1,-7.000095367E1,-2.053950071E0,7.089624032E1
1.942056306E0,1.288200092E1,-6.984705353E1,-3.433950186E0,7.110800833E1
1.944020164E0,1.433805084E1,-6.915705109E1,-5.580000401E0,7.084782157E1
1.945984009E0,1.525800037E1,-6.704895020E1,-8.875950813E0,6.933361955E1
1.947947858E0,1.560300064E1,-6.394500351E1,-1.274700069E1,6.704403873E1
1.949911634E0,1.625505066E1,-6.091695404E1,-1.646505165E1,6.516287200E1
1.951875449E0,1.686795044E1,-5.723805237E1,-1.968495178E1,6.283486069E1
1.953839120E0,1.729005051E1,-5.336700439E1,-2.144805145E1,6.005832095E1
1.955802834E0,1.694505119E1,-4.953405380E1,-2.140905190E1,5.656062897E1
1.957766207E0,1.660004997E1,-4.604595184E1,-1.964595032E1,5.274234261E1
1.959729680E0,1.556505108E1,-4.252005386E1,-1.600500107E1,4.802484622E1
1.961693423E0,1.464495087E1,-3.914700317E1,-1.132905006E1,4.330484752E1
1.963657077E0,1.318905067E1,-3.592695236E1,-7.342950344E0,3.896942242E1
1.965620731E0,1.150200081E1,-3.289995193E1,-3.472050190E0,3.502510517E1
1.967584385E0,9.700950623E0,-3.033195114E1,-5.209500194E-1,3.184975811E1
1.969547003E0,8.206049919E0,-2.799405098E1,8.200500607E-1,2.918353350E1
1.971509925E0,6.634950161E0,-2.580900192E1,1.663050056E0,2.670005392E1
1.973473788E0,5.025000095E0,-2.373900032E1,1.548000097E0,2.431433870E1
1.975437379E0,3.529950142E0,-2.174595070E1,6.280500293E-1,2.203954098E1
1.977401585E0,1.996950150E0,-2.025105095E1,-1.134000063E0,2.038084470E1
1.979365610E0,8.470500112E-1,-1.898700142E1,-3.241950035E0,1.928040344E1
1.981328165E0,-3.019500077E-1,-1.795200157E1,-5.082000256E0,1.865991053E1
1.983291151E0,-1.489950061E0,-1.707000160E1,-6.232050419E0,1.823302932E1
1.985255023E0,-2.640000105E0,-1.638000107E1,-6.844950199E0,1.794790736E1
1.987218625E0,-3.790050268E0,-1.553700066E1,-6.805950165E0,1.738055891E1
1.989182468E0,-4.479000092E0,-1.496205044E1,-6.691050529E0,1.699101387E1
1.991146241E0,-4.824000359E0,-1.450200081E1,-6.307950497E0,1.653388177E1
1.993109785E0,-5.053950310E0,-1.411905098E1,-5.962950230E0,1.613836391E1
1.995073397E0,-5.398950100E0,-1.381200027E1,-5.925000191E0,1.596952225E1
1.997036892E0,-5.398950100E0,-1.358205032E1,-5.656950474E0,1.567232726E1
1.999000411E0,-5.169000149E0,-1.342905045E1,-4.774950027E0,1.516107207E1
2.000963817E0,-4.671000004E0,-1.335300064E1,-3.433950186E0,1.455722779E1
2.002927257E0,-4.288050175E0,-1.323795033E1,-2.014950037E0,1.406025344E1
2.004890227E0,-3.828000069E0,-1.323795033E1,-7.120500207E-1,1.379869300E1
2.006853334E0,-3.330000162E0,-1.342905045E1,2.830500007E-1,1.383865652E1
2.008816825E0,-2.830950022E0,-1.373595047E1,9.730500579E-1,1.405835836E1
2.010780193E0,-2.295000076E0,-1.404195023E1,1.432950020E0,1.430023557E1
2.012743761E0,-1.873050094E0,-1.450200081E1,1.740000129E0,1.472562204E1
2.014707270E0,-1.605000019E0,-1.496205044E1,1.893000126E0,1.516649029E1
2.016670814E0,-1.567050099E0,-1.534605026E1,1.855050087E0,1.553699184E1
2.018634347E0,-1.413000107E0,-1.580505085E1,1.624950051E0,1.595107095E1
2.020598035E0,-1.336950064E0,-1.603499985E1,1.395000100E0,1.615099628E1
2.022561668E0,-1.260000110E0,-1.630395126E1,1.087950110E0,1.638871754E1
2.024525012E0,-1.068000078E0,-1.649505043E1,1.050000072E0,1.656290473E1
2.026488440E0,-7.230000496E-1,-1.672500038E1,8.959500194E-1,1.676457853E1
2.028452041E0,-3.780000210E-1,-1.703205109E1,5.899500251E-1,1.704645679E1
2.030415591E0,-3.299999982E-2,-1.741500092E1,3.600000143E-1,1.741875271E1
2.032380666E0,1.960500032E-1,-1.783695030E1,1.300500035E-1,1.783850175E1
2.034345322E0,6.550500393E-1,-1.837305069E1,-2.205000073E-2,1.838473738E1
2.036308715E0,1.077000022E0,-1.891005135E1,-1.369500011E-1,1.894119126E1
2.038272478E0,1.384050012E0,-1.944705009E1,-1.369500011E-1,1.949672042E1
2.040236518E0,1.575000048E0,-1.990695000E1,-1.759500057E-1,1.996993344E1
2.042200476E0,1.804950118E0,-2.021295166E1,-1.759500057E-1,2.029414246E1
2.044164255E0,1.843950033E0,-2.040495110E1,-1.759500057E-1,2.048885403E1
2.046128089E0,1.767000079E0,-2.036595154E1,-6.105000153E-2,2.044255362E1
2.048091757E0,1.575000048E0,-2.029005051E1,9.195000678E-2,2.035129552E1
2.050055474E0,1.306950092E0,-2.013600159E1,9.195000678E-2,2.017858105E1
2.052018982E0,1.077000022E0,-1.986795044E1,1.300500035E-1,1.989754499E1
2.053982551E0,7.320000529E-1,-1.952295113E1,9.195000678E-2,1.953688562E1
2.055945538E0,5.020500422E-1,-1.902495003E1,-9.900000691E-2,1.903183067E1
2.057908699E0,5.410500169E-1,-1.845000076E1,-9.900000691E-2,1.845819775E1
2.059872346E0,5.410500169E-1,-1.779900169E1,-9.900000691E-2,1.780749835E1
2.061835851E0,4.639500082E-1,-1.707000160E1,1.500000060E-2,1.707631194E1
2.063799395E0,4.639500082E-1,-1.634205055E1,1.680000126E-1,1.634949815E1
2.065762928E0,5.790000558E-1,-1.569000053E1,3.600000143E-1,1.570480684E1
2.067726288E0,6.550500393E-1,-1.488600063E1,7.429500222E-1,1.491891686E1
2.069689699E0,5.410500169E-1,-1.404195023E1,1.050000072E0,1.409154361E1
2.071653213E0,5.410500169E-1,-1.327605057E1,1.318050027E0,1.335228481E1
2.073616697E0,4.260000288E-1,-1.247100067E1,1.471050024E0,1.256468551E1
2.075580470E0,3.870000243E-1,-1.181895065E1,1.548000097E0,1.192617574E1
2.077544159E0,4.639500082E-1,-1.113000011E1,1.663050056E0,1.126312069E1
2.079508162E0,5.020500422E-1,-1.059300041E1,1.740000129E0,1.074668844E1
2.081472077E0,4.639500082E-1,-9.865050316E0,1.663050056E0,1.001499889E1
2.083436317E0,6.169500351E-1,-9.289950371E0,1.624950051E0,9.451151671E0
2.085400462E0,8.470500112E-1,-8.752950668E0,1.471050024E0,8.916032038E0
2.087363852E0,1.153950095E0,-8.178000450E0,1.395000100E0,8.375996506E0
2.089327464E0,1.345050097E0,-7.642050266E0,1.165050030E0,7.846491802E0
2.091291169E0,1.843950033E0,-7.297050476E0,1.050000072E0,7.599315596E0
2.093254846E0,2.149950027E0,-6.952050209E0,1.087950110E0,7.357779738E0
2.095218541E0,1.614000082E0,-6.339000225E0,1.279950023E0,6.665297606E0
2.097182231E0,1.230000019E0,-5.649000168E0,1.395000100E0,5.947279060E0
2.099145564E0,1.000050068E0,-4.882050037E0,1.471050024E0,5.196008168E0
2.101109002E0,6.940500140E-1,-4.306950092E0,1.548000097E0,4.629020287E0
2.103072022E0,4.260000288E-1,-3.655950069E0,1.777950048E0,4.087609731E0
2.105035161E0,3.109500110E-1,-3.196050167E0,1.855050087E0,3.708454854E0
2.106998767E0,3.490500152E-1,-2.851050138E0,1.740000129E0,3.358261939E0
2.108962236E0,3.870000243E-1,-2.620950222E0,1.663050056E0,3.128080014E0
2.110925652E0,2.719500065E-1,-2.314050198E0,1.624950051E0,2.840642144E0
2.112889084E0,1.960500032E-1,-1.930950046E0,1.585950017E0,2.506439933E0
2.114852616E0,4.200000316E-2,-1.624050021E0,1.510050058E0,2.218006684E0
2.116816135E0,-7.200000435E-2,-1.393950105E0,1.395000100E0,1.973399649E0
2.118779812E0,-1.870500147E-1,-1.203000069E0,1.203000069E0,1.711550770E0
2.120743443E0,-1.099500060E-1,-9.730500579E-1,9.730500579E-1,1.380486086E0
2.122707012E0,-7.200000435E-2,-5.890500546E-1,6.660000086E-1,8.920313777E-1
2.124670599E0,-1.099500060E-1,-2.440500110E-1,3.979500234E-1,4.795973653E-1
2.126634108E0,-7.200000435E-2,-1.290000081E-1,2.449500114E-1,2.860515876E-1
2.128597623E0,4.050000105E-3,6.105000153E-2,-2.205000073E-2,6.503620315E-2
2.130561030E0,4.200000316E-2,4.060500264E-1,-1.759500057E-1,4.445211229E-1
2.132524469E0,3.109500110E-1,5.980500579E-1,-5.209500194E-1,8.519053373E-1
2.134489105E0,5.020500422E-1,8.280000687E-1,-8.269500136E-1,1.273375311E0
2.136453390E0,6.550500393E-1,1.057950020E0,-1.134000063E0,1.683539409E0
2.138416975E0,7.699500322E-1,1.173000097E0,-1.363950014E0,1.956811672E0
2.140380738E0,6.550500393E-1,1.479000092E0,-1.632000089E0,2.297815509E0
2.142344418E0,6.169500351E-1,1.747950077E0,-1.747050047E0,2.547182892E0
2.144308122E0,5.790000558E-1,2.053950071E0,-1.824000120E0,2.807299129E0
2.146271272E0,5.790000558E-1,2.284050226E0,-1.900950074E0,3.027496934E0
2.148234584E0,5.790000558E-1,2.514000177E0,-1.977000117E0,3.250225749E0
2.150197291E0,5.020500422E-1,2.706000090E0,-2.092050076E0,3.457045595E0
2.152160185E0,5.020500422E-1,2.859000206E0,-2.245050192E0,3.669630334E0
2.154124149E0,4.639500082E-1,3.012000084E0,-2.475000143E0,3.925941903E0
2.156087799E0,5.020500422E-1,3.088950157E0,-2.629050016E0,4.087244953E0
2.158052219E0,5.790000558E-1,3.127050161E0,-2.896950245E0,4.301860586E0
2.160016414E0,6.169500351E-1,3.204000235E0,-3.088950157E0,4.493090019E0
2.161978989E0,5.410500169E-1,3.241950035E0,-3.357000113E0,4.698129937E0
2.163942035E0,3.870000243E-1,3.088950157E0,-3.702000141E0,4.836960527E0
2.165905297E0,3.490500152E-1,2.896950245E0,-3.855000257E0,4.834788891E0
2.167868495E0,2.340000123E-1,2.590950012E0,-4.047000408E0,4.811027985E0
2.169832047E0,1.960500032E-1,2.284050226E0,-4.315050125E0,4.886202884E0
2.171795495E0,1.189500093E-1,1.900950074E0,-4.545000076E0,4.927959617E0
2.173758870E0,1.189500093E-1,1.479000092E0,-4.813050270E0,5.036570587E0
2.175722266E0,1.960500032E-1,1.057950020E0,-5.158050060E0,5.269077175E0
2.177685828E0,3.490500152E-1,5.590500236E-1,-5.464950085E0,5.504548326E0
2.179649341E0,5.020500422E-1,6.105000153E-2,-5.848050117E0,5.869878323E0
2.181614326E0,8.089500666E-1,-2.830500007E-1,-6.270000458E0,6.328303347E0
2.183578880E0,1.077000022E0,-7.810500264E-1,-6.576000214E0,6.709228495E0
2.185542285E0,1.230000019E0,-1.279050112E0,-6.921000481E0,7.144866471E0
2.187506030E0,1.306950092E0,-1.701000094E0,-7.150950432E0,7.465762650E0
2.189469533E0,1.384050012E0,-2.046000004E0,-7.420050144E0,7.820412687E0
2.191433107E0,1.575000048E0,-2.351999998E0,-7.573050499E0,8.084777239E0
2.193396414E0,1.651950121E0,-2.659050226E0,-7.765050411E0,8.372305250E0
2.195359800E0,1.767000079E0,-2.812050104E0,-7.803000450E0,8.480373287E0
2.197323146E0,1.804950118E0,-3.081000090E0,-7.803000450E0,8.581213347E0
2.199286531E0,1.804950118E0,-3.271950245E0,-7.650000572E0,8.513871745E0
2.201249959E0,1.804950118E0,-3.463950157E0,-7.687950134E0,8.623304059E0
2.203213375E0,1.882050037E0,-3.616950274E0,-7.534950256E0,8.567375152E0
2.205176755E0,1.690050125E0,-3.808950186E0,-7.266000271E0,8.376104756E0
2.207140146E0,1.804950118E0,-4.000950336E0,-7.036050320E0,8.292855517E0
2.209103714E0,1.843950033E0,-4.192049980E0,-6.730050087E0,8.140455082E0
2.211067226E0,1.920000076E0,-4.384050369E0,-6.346950531E0,7.949218765E0
2.213030410E0,1.996950150E0,-4.614000320E0,-6.040050507E0,7.858690666E0
2.214993690E0,1.959000111E0,-4.729050159E0,-5.580000401E0,7.572186033E0
2.216957452E0,2.188950062E0,-4.882050037E0,-5.235000134E0,7.485395203E0
2.218921072E0,2.304000139E0,-4.843950272E0,-4.813050270E0,7.206783178E0
2.220884950E0,2.341950178E0,-4.959000111E0,-4.582950115E0,7.147016475E0
2.222848726E0,2.304000139E0,-4.959000111E0,-4.276950359E0,6.942074842E0
2.224812270E0,2.341950178E0,-4.843950272E0,-4.047000408E0,6.732517893E0
2.226775882E0,2.188950062E0,-4.614000320E0,-3.817050219E0,6.375764558E0
2.228739227E0,1.996950150E0,-4.461000443E0,-3.433950186E0,5.973303000E0
2.230702651E0,1.920000076E0,-4.384050369E0,-3.012000084E0,5.654948491E0
2.232666358E0,1.996950150E0,-4.306950092E0,-2.514000177E0,5.371948053E0
2.234629972E0,2.035050154E0,-4.153950214E0,-2.092050076E0,5.076751425E0
2.236593677E0,2.111999989E0,-3.961950302E0,-1.786050081E0,4.831932226E0
2.238557356E0,2.111999989E0,-3.808950186E0,-1.402050018E0,4.575411427E0
2.240521231E0,2.149950027E0,-3.616950274E0,-1.134000063E0,4.357817177E0
2.242485048E0,2.035050154E0,-3.463950157E0,-8.659500480E-1,4.109774848E0
2.244448224E0,1.959000111E0,-3.271950245E0,-4.060500264E-1,3.835129263E0
2.246411588E0,1.729050040E0,-3.081000090E0,5.295000225E-2,3.533409019E0
2.248374390E0,1.575000048E0,-2.773950100E0,6.280500293E-1,3.251133825E0
2.250337357E0,1.384050012E0,-2.506050110E0,1.240950108E0,3.120230562E0
2.252301218E0,1.306950092E0,-2.314050198E0,1.624950051E0,3.115029619E0
2.254264817E0,1.306950092E0,-2.046000004E0,2.085000038E0,3.200228073E0
2.256228670E0,1.192050099E0,-1.854000092E0,2.583000183E0,3.395613306E0
2.258192442E0,1.114950061E0,-1.624050021E0,2.965950251E0,3.560549536E0
2.260156301E0,1.000050068E0,-1.432950020E0,3.310950041E0,3.743772973E0
2.262120134E0,9.240000248E-1,-1.279050112E0,3.579000235E0,3.911392069E0
2.264083803E0,7.320000529E-1,-1.087950110E0,3.847950220E0,4.065240512E0
2.266047521E0,6.169500351E-1,-9.730500579E-1,3.963000298E0,4.127084336E0
2.268010162E0,4.639500082E-1,-7.810500264E-1,4.039050102E0,4.139953440E0
2.269973094E0,4.260000288E-1,-6.280500293E-1,4.039050102E0,4.109726097E0
2.271936600E0,3.109500110E-1,-5.130000114E-1,4.000950336E0,4.045672072E0
2.273899938E0,2.719500065E-1,-3.979500234E-1,4.000950336E0,4.029878984E0
2.275863646E0,1.570500135E-1,-2.059500068E-1,4.000950336E0,4.009324595E0
2.277827245E0,8.100000024E-2,-9.105000645E-2,4.153950214E0,4.155737418E0
2.279790258E0,-7.200000435E-2,6.105000153E-2,4.269000053E0,4.270043625E0
2.281753425E0,-1.870500147E-1,2.140500098E-1,4.423050404E0,4.432175537E0
2.283717207E0,-3.019500077E-1,3.289500177E-1,4.614000320E0,4.635556156E0
2.285680808E0,-3.780000210E-1,4.440000355E-1,4.690950394E0,4.727053590E0
2.287644382E0,-4.549500346E-1,5.590500236E-1,4.843950272E0,4.897281970E0
2.289607964E0,-5.320500135E-1,7.129500508E-1,5.035950184E0,5.113919167E0
2.291571450E0,-6.079500318E-1,8.280000687E-1,5.151000023E0,5.252426924E0
2.293534964E0,-6.850500107E-1,9.430500269E-1,5.304000378E0,5.430566902E0
2.295498371E0,-8.380500674E-1,1.057950020E0,5.341950417E0,5.509811287E0
2.297461810E0,-9.529500604E-1,1.134000063E0,5.457000256E0,5.654460341E0
2.299425500E0,-1.030050039E0,1.210950017E0,5.572050095E0,5.794406379E0
2.301389116E0,-1.144950032E0,1.326000094E0,5.533950329E0,5.804635481E0
2.303352835E0,-1.260000110E0,1.441050053E0,5.686950207E0,6.000468997E0
2.305316514E0,-1.413000107E0,1.479000092E0,5.649000168E0,6.007929216E0
2.307279669E0,-1.528050065E0,1.555950046E0,5.533950329E0,5.948152973E0
2.309242978E0,-1.642950058E0,1.633050084E0,5.533950329E0,5.999228593E0
2.311206555E0,-1.681950092E0,1.708950043E0,5.457000256E0,5.960563577E0
2.313170053E0,-1.758000135E0,1.786050081E0,5.419050217E0,5.970481105E0
2.315133429E0,-1.873050094E0,1.824000120E0,5.266050339E0,5.879334934E0
2.317096834E0,-2.026050091E0,1.863000035E0,5.112000465E0,5.805876063E0
2.319060394E0,-2.026050091E0,1.747950077E0,4.996950150E0,5.668308323E0
2.321023909E0,-1.911000133E0,1.633050084E0,4.806000233E0,5.423689917E0
2.322987137E0,-1.911000133E0,1.479000092E0,4.614000320E0,5.208489391E0
2.324950449E0,-1.911000133E0,1.441050053E0,4.384050369E0,4.994841779E0
2.326914141E0,-1.911000133E0,1.363950014E0,4.192950249E0,4.805529413E0
2.328877735E0,-1.795950055E0,1.210950017E0,3.924000263E0,4.482143975E0
2.330841130E0,-1.567050099E0,1.018950105E0,3.502950191E0,3.970461607E0
2.332804583E0,-1.375050068E0,8.280000687E-1,3.157950163E0,3.542456215E0
2.334768451E0,-1.336950064E0,6.739500165E-1,2.698050022E0,3.085630895E0
2.336732197E0,-1.336950064E0,5.980500579E-1,2.238000154E0,2.674648395E0
2.338695697E0,-1.413000107E0,4.830000103E-1,1.816050053E0,2.351147827E0
2.340659272E0,-1.452000022E0,4.060500264E-1,1.510050058E0,2.133877191E0
2.342622804E0,-1.489950061E0,4.440000355E-1,1.318050027E0,2.038220569E0
2.344586349E0,-1.567050099E0,4.830000103E-1,9.730500579E-1,1.906767274E0
2.346549706E0,-1.681950092E0,5.590500236E-1,6.660000086E-1,1.893422577E0
2.348513118E0,-1.795950055E0,7.890000343E-1,4.360500276E-1,2.009501750E0
2.350477606E0,-1.950000048E0,9.810000658E-1,2.449500114E-1,2.196556811E0
2.352441759E0,-2.140950203E0,1.173000097E0,-2.205000073E-2,2.441328164E0
2.354405374E0,-2.065050125E0,1.363950014E0,-2.520000041E-1,2.487628522E0
2.356369146E0,-2.026050091E0,1.594050050E0,-4.060500264E-1,2.609741588E0
2.358332689E0,-1.834950089E0,1.747950077E0,-5.970000029E-1,2.603609092E0
2.360296300E0,-1.489950061E0,1.824000120E0,-6.739500165E-1,2.449721667E0
2.362259946E0,-9.150000215E-1,1.786050081E0,-6.739500165E-1,2.116933763E0
2.364223591E0,-4.549500346E-1,1.708950043E0,-6.739500165E-1,1.892537558E0
2.366186977E0,-1.480500102E-1,1.594050050E0,-6.739500165E-1,1.736986756E0
2.368150439E0,1.570500135E-1,1.671000123E0,-5.590500236E-1,1.769023190E0
2.370114170E0,3.109500110E-1,1.900950074E0,-3.670500219E-1,1.960873992E0
2.372077822E0,4.639500082E-1,2.092950106E0,-3.289500177E-1,2.168847129E0
2.374042184E0,5.410500169E-1,2.208000183E0,-3.289500177E-1,2.296999792E0
2.376006347E0,7.320000529E-1,2.245950222E0,-4.060500264E-1,2.396871524E0
2.377969824E0,1.114950061E0,2.169000149E0,-5.970000029E-1,2.510793557E0
2.379933502E0,1.269000053E0,1.978050113E0,-1.171950102E0,2.626120794E0
2.381897152E0,1.422000051E0,1.633050084E0,-2.014950037E0,2.957864157E0
2.383860810E0,1.614000082E0,1.326000094E0,-3.012000084E0,3.665435448E0
2.385825432E0,1.882050037E0,5.590500236E-1,-4.736999989E0,5.127749815E0
2.387789755E0,2.074050188E0,-8.190000653E-1,-7.687950134E0,8.004812462E0
2.389753521E0,1.882050037E0,-2.161050081E0,-9.949050903E0,1.035354353E1
2.391717450E0,1.575000048E0,-3.463950157E0,-1.148205090E1,1.209615925E1
2.393681146E0,1.306950092E0,-4.690050125E0,-1.209600067E1,1.303909203E1
2.395644911E0,8.089500666E-1,-5.764050484E0,-1.171200085E1,1.307859480E1
2.397607648E0,4.639500082E-1,-6.607050419E0,-1.075395012E1,1.262995677E1
2.399570684E0,1.570500135E-1,-7.527000427E0,-1.010295010E1,1.259960320E1
2.401534353E0,-2.250000089E-1,-8.791950226E0,-9.489000320E0,1.293793418E1
2.403497836E0,-9.150000215E-1,-1.036305046E1,-8.838000298E0,1.365065160E1
2.405461565E0,-1.720050097E0,-1.212600040E1,-7.650000572E0,1.444025508E1
2.407425221E0,-2.601000071E0,-1.396605110E1,-6.001950264E0,1.542203591E1
2.409388721E0,-3.675000191E0,-1.576695061E1,-4.200000286E0,1.672550030E1
2.411352281E0,-4.479000092E0,-1.753005028E1,-2.359950066E0,1.824646456E1
2.413315949E0,-5.016000271E0,-1.929300117E1,-1.363950014E0,1.998100380E1
2.415279586E0,-5.553000450E0,-2.105595016E1,-4.060500264E-1,2.177966317E1
2.417243469E0,-6.013050079E0,-2.312595177E1,-2.140500098E-1,2.389586227E1
2.419207279E0,-6.433950424E0,-2.531100082E1,9.195000678E-2,2.611610491E1
2.421171007E0,-6.970950127E0,-2.761005211E1,1.300500035E-1,2.847676309E1
2.423134752E0,-7.315950394E0,-3.017805099E1,1.500000060E-2,3.105218377E1
2.425098390E0,-7.276950359E0,-3.301500320E1,-3.670500219E-1,3.380945384E1
2.427062060E0,-6.894000530E0,-3.608100128E1,-6.105000153E-2,3.673376681E1
2.429025395E0,-6.319050312E0,-3.933900070E1,5.130000114E-1,3.984658758E1
2.430988829E0,-5.476050377E0,-4.252005386E1,1.395000100E0,4.289391721E1
2.432952565E0,-4.479000092E0,-4.535595322E1,2.583000183E0,4.564970782E1
2.434916212E0,-3.022950172E0,-4.769400406E1,3.349050045E0,4.790691377E1
2.436880498E0,-1.297950029E0,-4.957200241E1,4.576050282E0,4.979968206E1
2.438844597E0,8.470500112E-1,-5.110500336E1,5.112000465E0,5.136702649E1
2.440808581E0,3.300000191E0,-5.283000183E1,4.192950249E0,5.309877519E1
2.442772599E0,5.791050434E0,-5.455500412E1,2.698050022E0,5.492780911E1
2.444737065E0,7.630950451E0,-5.616405106E1,-6.360000372E-1,5.668365313E1
2.446701418E0,9.355950356E0,-5.739105225E1,-4.774950027E0,5.834438133E1
2.448665043E0,1.096605015E1,-5.842605209E1,-9.373950005E0,6.018080057E1
2.450628881E0,1.246005058E1,-5.911605453E1,-1.401195049E1,6.201850950E1
2.452592684E0,1.391700077E1,-5.926905441E1,-1.895595169E1,6.376387556E1
2.454556497E0,1.552695084E1,-5.900100327E1,-2.443695068E1,6.572190767E1
2.456520134E0,1.725105095E1,-5.777400208E1,-2.953500175E1,6.713978257E1
2.458483847E0,1.821000099E1,-5.505300140E1,-3.187305069E1,6.616893879E1
2.460447580E0,1.847805023E1,-5.125905228E1,-3.145095062E1,6.291336166E1
2.462411307E0,1.709805107E1,-4.681305313E1,-2.857695198E1,5.744952113E1
2.464374814E0,1.307400036E1,-4.190700150E1,-2.489700127E1,5.046768205E1
2.466338386E0,8.628000259E0,-3.746100235E1,-2.037405014E1,4.350713740E1
2.468302580E0,5.830050468E0,-3.374295044E1,-1.612005043E1,3.784748629E1
2.470266601E0,3.529950142E0,-3.010200119E1,-1.240200043E1,3.274752874E1
2.472229562E0,1.575000048E0,-2.692005157E1,-9.028950691E0,2.843750609E1
2.474192833E0,-1.480500102E-1,-2.419905090E1,-6.499950409E0,2.505724124E1
2.476156552E0,-1.720050097E0,-2.201505089E1,-4.582950115E0,2.255270427E1
2.478120139E0,-3.214950085E0,-2.025105095E1,-3.088950157E0,2.073602136E1
2.480083830E0,-4.326000214E0,-1.894799995E1,-1.900950074E0,1.952830231E1
2.482047504E0,-5.553000450E0,-1.768395042E1,-1.249050021E0,1.857735295E1
2.484011020E0,-6.702000141E0,-1.649505043E1,-7.510500550E-1,1.782042566E1
2.485974583E0,-8.005949974E0,-1.526895046E1,-5.970000029E-1,1.725086932E1
2.487938117E0,-9.346950531E0,-1.427205086E1,-4.060500264E-1,1.706522184E1
2.489901659E0,-1.030500031E1,-1.323795033E1,-4.440000355E-1,1.678193958E1
2.491865357E0,-1.122495079E1,-1.231800079E1,-4.060500264E-1,1.667025916E1
2.493829023E0,-1.195305061E1,-1.155105019E1,-1.369500011E-1,1.662290392E1
2.495791865E0,-1.233705044E1,-1.078500080E1,2.070000172E-1,1.638785846E1
2.497754948E0,-1.225995064E1,-1.017105007E1,4.360500276E-1,1.593570798E1
2.499719285E0,-1.199205017E1,-9.711000443E0,2.449500114E-1,1.543284800E1
2.501683254E0,-1.180005074E1,-9.405000687E0,-7.120500207E-1,1.510636457E1
2.503646364E0,-1.141695023E1,-9.328050613E0,-1.786050081E0,1.485090083E1
2.505609722E0,-1.076505089E1,-9.328050613E0,-2.322000027E0,1.443227401E1
2.507573245E0,-9.883950233E0,-9.250950813E0,-2.475000143E0,1.376220145E1
2.509536720E0,-9.040050507E0,-9.328050613E0,-2.322000027E0,1.319570860E1
2.511500450E0,-8.197050095E0,-9.711000443E0,-1.900950074E0,1.284946579E1
2.513464105E0,-7.468950272E0,-1.013295078E1,-1.516950130E0,1.267923686E1
2.515427474E0,-6.549000263E0,-1.074600029E1,-6.739500165E-1,1.260238610E1
2.517390938E0,-5.668050289E0,-1.124400043E1,2.070000172E-1,1.259353758E1
2.519353723E0,-5.245950222E0,-1.174305058E1,1.050000072E0,1.290432992E1
2.521316707E0,-5.053950310E0,-1.224105072E1,1.624950051E0,1.334264588E1
2.523280385E0,-5.361000061E0,-1.289295101E1,2.046000004E0,1.411221540E1
2.525243859E0,-5.782950401E0,-1.385100079E1,2.353049994E0,1.519307679E1
2.527207748E0,-6.013050079E0,-1.469400024E1,2.275950193E0,1.603902627E1
2.529171499E0,-5.898000240E0,-1.569000053E1,2.085000038E0,1.689111449E1
2.531134867E0,-5.743950367E0,-1.684005165E1,1.740000129E0,1.787758110E1
2.533098347E0,-5.437950134E0,-1.822005081E1,1.510050058E0,1.907411346E1
2.535061894E0,-5.245950222E0,-1.948500061E1,1.279950023E0,2.021938462E1
2.537025422E0,-4.786050320E0,-2.086500168E1,1.318050027E0,2.144742009E1
2.538989079E0,-4.134000301E0,-2.216805077E1,1.356000066E0,2.259095327E1
2.540952711E0,-3.330000162E0,-2.331795120E1,1.548000097E0,2.360533952E1
2.542916234E0,-2.295000076E0,-2.439105034E1,2.275950193E0,2.460427425E1
2.544879789E0,-1.106999993E0,-2.542605209E1,3.043050051E0,2.563142071E1
2.546844270E0,1.189500093E-1,-2.630700111E1,3.771000147E0,2.657617164E1
2.548808480E0,1.269000053E0,-2.699700165E1,4.269000053E0,2.736188628E1
2.550771914E0,2.149950027E0,-2.745705223E1,4.537950039E0,2.791245229E1
2.552735569E0,2.878050089E0,-2.749500084E1,4.576050282E0,2.802139325E1
2.554699087E0,3.453000069E0,-2.711205101E1,4.423050404E0,2.768663747E1
2.556662646E0,3.682950258E0,-2.642205048E1,4.231050014E0,2.701093590E1
2.558626315E0,3.837000132E0,-2.550195122E1,3.694050074E0,2.605221856E1
2.560589951E0,3.682950258E0,-2.442900085E1,3.234000206E0,2.491583759E1
2.562553474E0,3.376950264E0,-2.308800125E1,2.928000212E0,2.351664900E1
2.564517030E0,3.031950235E0,-2.174595070E1,2.851050138E0,2.214063190E1
2.566480790E0,2.839950085E0,-2.059605026E1,2.889000177E0,2.099068662E1
2.568444490E0,3.031950235E0,-1.975305176E1,2.812950134E0,2.018138906E1
2.570408002E0,3.607050180E0,-1.921695137E1,2.122950077E0,1.966745911E1
2.572371569E0,4.066950321E0,-1.860300064E1,1.240950108E0,1.908275858E1
2.574335938E0,4.143000126E0,-1.787505150E1,6.660000086E-1,1.836097688E1
2.576300086E0,3.874950171E0,-1.695495033E1,9.195000678E-2,1.739235563E1
2.578263747E0,3.682950258E0,-1.611194992E1,-4.819500148E-1,1.653454955E1
2.580227550E0,3.568050146E0,-1.526895046E1,-9.420000315E-1,1.570857072E1
2.582191178E0,3.529950142E0,-1.442595100E1,-1.555950046E0,1.493283600E1
2.584154857E0,3.682950258E0,-1.358205032E1,-2.053950071E0,1.422163579E1
2.586118227E0,3.798000097E0,-1.293105030E1,-2.398950100E0,1.368911349E1
2.588081694E0,3.874950171E0,-1.227900028E1,-2.551950216E0,1.312636799E1
2.590045064E0,3.760050297E0,-1.162800026E1,-2.629050016E0,1.250041088E1
2.592008463E0,3.529950142E0,-1.101495075E1,-2.475000143E0,1.182858038E1
2.593972160E0,3.223050117E0,-1.047795010E1,-2.206950188E0,1.118240222E1
2.595935769E0,3.184950113E0,-9.903000832E0,-2.130000114E0,1.061839127E1
2.597899341E0,3.108000040E0,-9.366000175E0,-2.092050076E0,1.008753176E1
2.599862924E0,3.147000074E0,-8.868000031E0,-2.206950188E0,9.665177864E0
2.601826634E0,3.031950235E0,-8.407950401E0,-1.861950040E0,9.129797924E0
2.603790307E0,2.917050123E0,-8.025000572E0,-1.555950046E0,8.679331550E0
2.605754003E0,2.955000162E0,-7.603050232E0,-1.134000063E0,8.235554318E0
2.607717692E0,2.955000162E0,-7.219950199E0,-7.510500550E-1,7.837332647E0
2.609681515E0,2.917050123E0,-6.798000336E0,-2.520000041E-1,7.401722366E0
2.611645302E0,2.725050211E0,-6.454050541E0,5.295000225E-2,7.005959659E0
2.613608979E0,2.610000134E0,-6.109050274E0,1.300500035E-1,6.644509685E0
2.615572689E0,2.494950056E0,-5.764050484E0,2.070000172E-1,6.284258331E0
2.617535657E0,2.380050182E0,-5.572050095E0,2.449500114E-1,6.064023552E0
2.619498843E0,2.188950062E0,-5.227050304E0,3.220500052E-1,5.676026204E0
2.621463036E0,2.035050154E0,-4.959000111E0,2.830500007E-1,5.367795500E0
2.623426927E0,1.804950118E0,-4.575000286E0,2.070000172E-1,4.922532027E0
2.625390406E0,1.651950121E0,-4.345950127E0,1.300500035E-1,4.651143376E0
2.627354006E0,1.575000048E0,-4.039050102E0,-1.369500011E-1,4.337430827E0
2.629317668E0,1.498950124E0,-3.771000147E0,-4.060500264E-1,4.078255780E0
2.631281312E0,1.306950092E0,-3.426000118E0,-6.360000372E-1,3.721571093E0
2.633245028E0,1.269000053E0,-3.081000090E0,-1.018950105E0,3.484419895E0
2.635208712E0,1.192050099E0,-2.736000061E0,-1.402050018E0,3.297335898E0
2.637172091E0,9.619500637E-1,-2.428950071E0,-1.708950043E0,3.121803425E0
2.639135560E0,7.699500322E-1,-2.008050203E0,-2.053950071E0,2.973852647E0
2.641098344E0,5.790000558E-1,-1.624050021E0,-2.398950100E0,2.954275058E0
2.643061329E0,4.639500082E-1,-1.126049995E0,-2.667000055E0,2.931915329E0
2.645024826E0,2.340000123E-1,-6.280500293E-1,-2.974050045E0,3.048635189E0
2.646988173E0,4.200000316E-2,-1.680000126E-1,-3.127050161E0,3.131841426E0
2.648950845E0,4.050000105E-3,9.900000691E-2,-3.280050039E0,3.281546231E0
2.650913714E0,-1.480500102E-1,7.129500508E-1,-3.472050190E0,3.547583558E0
2.652877546E0,-2.629500031E-1,1.288050056E0,-3.472050190E0,3.712593187E0
2.654841096E0,-3.780000210E-1,1.786050081E0,-3.472050190E0,3.922753042E0
2.656804629E0,-4.930500090E-1,2.208000183E0,-3.472050190E0,4.144091655E0
2.658768170E0,-4.549500346E-1,2.590950012E0,-3.472050190E0,4.356045686E0
2.660731528E0,-4.170000255E-1,2.974050045E0,-3.319050074E0,4.476042458E0
2.662694940E0,-4.549500346E-1,3.357000113E0,-3.319050074E0,4.742628246E0
2.664658679E0,-4.930500090E-1,3.702000141E0,-3.433950186E0,5.073452201E0
2.666622322E0,-5.320500135E-1,4.085999966E0,-3.625050068E0,5.488119981E0
2.668586173E0,-6.079500318E-1,4.315950394E0,-3.739950180E0,5.743192352E0
2.670549953E0,-5.700000525E-1,4.507050037E0,-3.894000292E0,5.983447031E0
2.672513676E0,-6.469500065E-1,4.660050392E0,-4.123950005E0,6.256323010E0
2.674477416E0,-8.380500674E-1,4.852050304E0,-4.468050003E0,6.648924041E0
2.676440920E0,-8.770500422E-1,4.852050304E0,-4.582950115E0,6.731644724E0
2.678404493E0,-1.068000078E0,4.813950062E0,-4.698000431E0,6.810722973E0
2.680368408E0,-1.106999993E0,4.774950027E0,-4.890000343E0,6.923705663E0
2.682332206E0,-1.260000110E0,4.699050426E0,-4.774950027E0,6.816804453E0
2.684296016E0,-1.336950064E0,4.699050426E0,-4.698000431E0,6.777884510E0
2.686259822E0,-1.489950061E0,4.621950150E0,-4.621950150E0,6.704088122E0
2.688223361E0,-1.605000019E0,4.507050037E0,-4.545000076E0,6.598981042E0
2.690186978E0,-1.720050097E0,4.239000320E0,-4.582950115E0,6.475424913E0
2.692150503E0,-1.720050097E0,3.778950214E0,-4.736999989E0,6.299063895E0
2.694114055E0,-1.720050097E0,3.319050074E0,-4.774950027E0,6.064224063E0
2.696077725E0,-1.567050099E0,2.743950129E0,-4.736999989E0,5.694214363E0
2.698041360E0,-1.336950064E0,2.245950222E0,-4.698000431E0,5.376145080E0
2.700004928E0,-1.068000078E0,1.671000123E0,-4.621950150E0,5.029442192E0
2.701968516E0,-7.999500632E-1,1.057950020E0,-4.621950150E0,4.808492647E0
2.703933126E0,-6.469500065E-1,4.060500264E-1,-4.621950150E0,4.684639166E0
2.705897437E0,-4.930500090E-1,-1.680000126E-1,-4.736999989E0,4.765552561E0
2.707860799E0,-3.019500077E-1,-5.890500546E-1,-4.890000343E0,4.934597971E0
2.709824439E0,-1.870500147E-1,-1.164000034E0,-5.119950294E0,5.253929463E0
2.711788139E0,-7.200000435E-2,-1.585950017E0,-5.388000488E0,5.617025077E0
2.713751822E0,4.200000316E-2,-1.969050050E0,-5.656950474E0,5.989992551E0
2.715715741E0,1.570500135E-1,-2.428950071E0,-6.001950264E0,6.476717543E0
2.717679591E0,3.109500110E-1,-2.736000061E0,-6.385050297E0,6.953506564E0
2.719644158E0,5.020500422E-1,-3.081000090E0,-6.730050087E0,7.418772808E0
2.721608514E0,6.940500140E-1,-3.349050045E0,-7.113000393E0,7.892567150E0
2.723572229E0,9.240000248E-1,-3.616950274E0,-7.305000305E0,8.203604987E0
2.725536132E0,1.039050102E0,-3.771000147E0,-7.458000183E0,8.421510194E0
2.727499432E0,1.077000022E0,-3.961950302E0,-7.495950222E0,8.546709833E0
2.729462906E0,1.269000053E0,-4.077000141E0,-7.228050232E0,8.395058156E0
2.731426320E0,1.345050097E0,-4.269000053E0,-6.844950199E0,8.178438998E0
2.733389752E0,1.651950121E0,-4.498950005E0,-6.154950142E0,7.800826981E0
2.735353083E0,2.074050188E0,-4.729050159E0,-5.464950085E0,7.518728551E0
2.737316444E0,2.341950178E0,-4.843950272E0,-4.736999989E0,7.168525215E0
2.739279643E0,2.457000017E0,-4.959000111E0,-4.162050247E0,6.924680024E0
2.741242896E0,2.494950056E0,-5.074050426E0,-3.664050102E0,6.737657357E0
2.743206482E0,2.649000168E0,-5.112000465E0,-3.241950035E0,6.607570709E0
2.745169971E0,2.686950207E0,-5.227050304E0,-2.820000172E0,6.518754273E0
2.747133518E0,2.917050123E0,-5.380050182E0,-2.667000055E0,6.675852806E0
2.749097048E0,3.031950235E0,-5.419050217E0,-2.398950100E0,6.656860301E0
2.751060662E0,3.070050240E0,-5.380050182E0,-2.130000114E0,6.550347237E0
2.753024231E0,3.070050240E0,-5.419050217E0,-1.861950040E0,6.500628560E0
2.754987899E0,2.992950201E0,-5.341950417E0,-1.555950046E0,6.317845021E0
2.756951538E0,2.878050089E0,-5.227050304E0,-1.057050109E0,6.059916017E0
2.758915060E0,2.878050089E0,-5.149950027E0,-6.360000372E-1,5.933772295E0
2.760878617E0,2.878050089E0,-5.035050392E0,-2.520000041E-1,5.805033055E0
2.762841265E0,3.070050240E0,-4.959000111E0,1.680000126E-1,5.834819155E0
2.764804170E0,3.147000074E0,-4.882050037E0,4.360500276E-1,5.824788551E0
2.766768176E0,3.184950113E0,-4.690050125E0,8.959500194E-1,5.739617046E0
2.768731860E0,3.262050152E0,-4.422000408E0,1.432950020E0,5.678767874E0
2.770695059E0,3.337950230E0,-4.153950214E0,1.663050056E0,5.582378490E0
2.772658400E0,3.147000074E0,-3.924000263E0,2.008050203E0,5.416055128E0
2.774621751E0,2.878050089E0,-3.541050196E0,2.314950228E0,5.116757114E0
2.776585096E0,2.380050182E0,-3.157050133E0,2.545050144E0,4.702008576E0
2.778548713E0,1.804950118E0,-2.659050226E0,2.851050138E0,4.296147102E0
2.780512250E0,1.882050037E0,-2.773950100E0,3.157950163E0,4.605383885E0
2.782475924E0,2.304000139E0,-3.004050255E0,3.579000235E0,5.209796278E0
2.784439557E0,2.227050066E0,-2.812050104E0,3.847950220E0,5.260617709E0
2.786403615E0,2.035050154E0,-2.620950222E0,3.771000147E0,5.023071899E0
2.788367552E0,1.959000111E0,-2.581950188E0,3.771000147E0,4.972382760E0
2.790331249E0,2.035050154E0,-2.581950188E0,4.039050102E0,5.207861522E0
2.792295016E0,2.074050188E0,-2.544000149E0,4.423050404E0,5.507903032E0
2.794258829E0,2.035050154E0,-2.467050076E0,4.768050194E0,5.741260128E0
2.796222629E0,2.035050154E0,-2.391000032E0,5.074050426E0,5.966933720E0
2.798186644E0,2.149950027E0,-2.238000154E0,5.419050217E0,6.244760609E0
2.800150610E0,2.149950027E0,-2.008050203E0,5.917050362E0,6.608028127E0
2.802114796E0,2.074050188E0,-1.777950048E0,6.262050152E0,6.831988192E0
2.804078918E0,1.959000111E0,-1.624050021E0,6.492000103E0,6.972896474E0
2.806042763E0,1.729050040E0,-1.393950105E0,6.721950531E0,7.079359426E0
2.808006689E0,1.575000048E0,-1.279050112E0,6.913950443E0,7.205505192E0
2.809970142E0,1.459950089E0,-1.126049995E0,7.105050564E0,7.340380533E0
2.811933747E0,1.384050012E0,-1.048950076E0,7.297050476E0,7.500855708E0
2.813897633E0,1.306950092E0,-8.580000401E-1,7.374000549E0,7.537915276E0
2.815861437E0,1.269000053E0,-6.660000086E-1,7.374000549E0,7.511977186E0
2.817825111E0,1.039050102E0,-5.509500504E-1,7.297050476E0,7.391218893E0
2.819788824E0,9.240000248E-1,-3.589500189E-1,7.144050121E0,7.212494249E0
2.821751546E0,6.169500351E-1,-2.059500068E-1,6.837000370E0,6.867868433E0
2.823714573E0,3.109500110E-1,-1.290000081E-1,6.492000103E0,6.500722748E0
2.825677523E0,4.050000105E-3,2.295000106E-2,6.070950508E0,6.070995238E0
2.827640496E0,-2.629500031E-1,2.140500098E-1,5.649000168E0,5.659166282E0
2.829604311E0,-5.320500135E-1,4.440000355E-1,5.266050339E0,5.311449841E0
2.831567879E0,-7.230000496E-1,5.980500579E-1,4.843950272E0,4.933988972E0
2.833531583E0,-9.529500604E-1,7.890000343E-1,4.345950127E0,4.518618968E0
2.835495254E0,-1.030050039E0,9.430500269E-1,3.924000263E0,4.165107982E0
2.837459085E0,-1.106999993E0,1.057950020E0,3.426000118E0,3.752623621E0
2.839422869E0,-1.183050036E0,1.134000063E0,2.851050138E0,3.288472354E0
2.841386412E0,-1.297950029E0,1.210950017E0,2.200050116E0,2.826887818E0
2.843350025E0,-1.413000107E0,1.326000094E0,1.624950051E0,2.528894664E0
2.845313561E0,-1.605000019E0,1.594050050E0,1.471050024E0,2.698334448E0
2.847277112E0,-1.795950055E0,1.747950077E0,1.203000069E0,2.779923603E0
2.849240783E0,-1.873050094E0,1.824000120E0,8.200500607E-1,2.740031969E0
2.851204418E0,-2.065050125E0,2.053950071E0,5.130000114E-1,2.957416428E0
2.853168841E0,-2.179949999E0,2.169000149E0,1.680000126E-1,3.079767466E0
2.855133033E0,-2.179949999E0,2.245950222E0,-1.759500057E-1,3.134873650E0
2.857096435E0,-2.140950203E0,2.245950222E0,-4.819500148E-1,3.140101270E0
2.859060087E0,-2.026050091E0,2.131050110E0,-7.510500550E-1,3.034852505E0
2.861023965E0,-2.026050091E0,1.939050078E0,-1.018950105E0,2.983798501E0
2.862987777E0,-1.950000048E0,1.863000035E0,-1.134000063E0,2.925615399E0
2.864950955E0,-1.834950089E0,1.708950043E0,-1.171950102E0,2.767854606E0
2.866914318E0,-1.681950092E0,1.594050050E0,-1.096050024E0,2.563450278E0
2.868878011E0,-1.567050099E0,1.555950046E0,-1.171950102E0,2.500018720E0
2.870841614E0,-1.528050065E0,1.555950046E0,-1.096050024E0,2.440746443E0
2.872805322E0,-1.642950058E0,1.555950046E0,-1.287000060E0,2.603196994E0
2.874768999E0,-1.605000019E0,1.633050084E0,-1.516950130E0,2.746637096E0
2.876732515E0,-1.605000019E0,1.786050081E0,-1.747050047E0,2.969542696E0
2.878696078E0,-1.605000019E0,1.900950074E0,-2.206950188E0,3.325697728E0
2.880659612E0,-1.642950058E0,2.131050110E0,-2.590050220E0,3.734838632E0
2.882623155E0,-1.567050099E0,2.169000149E0,-2.974050045E0,4.000647614E0
2.884587052E0,-1.528050065E0,2.284050226E0,-3.472050190E0,4.427974137E0
2.886550845E0,-1.452000022E0,2.284050226E0,-3.970050097E0,4.804839984E0
2.888514881E0,-1.413000107E0,2.245950222E0,-4.468050003E0,5.196569304E0
2.890478845E0,-1.336950064E0,2.245950222E0,-4.890000343E0,5.544712006E0
2.892442542E0,-1.375050068E0,2.245950222E0,-5.235000134E0,5.860058147E0
2.894406314E0,-1.452000022E0,2.284050226E0,-5.542050362E0,6.167617993E0
2.896369767E0,-1.605000019E0,2.361000061E0,-5.695050240E0,6.370552847E0
2.898333314E0,-1.834950089E0,2.476050138E0,-5.656950474E0,6.441968238E0
2.900296851E0,-2.103000164E0,2.476050138E0,-5.427000046E0,6.325010947E0
2.902260391E0,-2.371050119E0,2.322000027E0,-5.119950294E0,6.101430473E0
2.904224475E0,-2.716050148E0,1.900950074E0,-4.621950150E0,5.687966489E0
2.906188427E0,-2.830950022E0,5.980500579E-1,-4.162050247E0,5.068984529E0
2.908152796E0,-2.563050032E0,-9.730500579E-1,-3.778950214E0,4.668673966E0
2.910117042E0,-2.485950232E0,-2.275950193E0,-3.012000084E0,4.520181671E0
2.912080641E0,-2.485950232E0,-3.463950157E0,-2.169000149E0,4.783666051E0
2.914044429E0,-2.640000105E0,-4.614000320E0,-1.441050053E0,5.507742257E0
2.916008239E0,-2.985000134E0,-5.649000168E0,-8.659500480E-1,6.447580801E0
2.917972042E0,-3.367950201E0,-6.798000336E0,-4.060500264E-1,7.597418887E0
2.919935762E0,-3.943050146E0,-8.254950523E0,-6.105000153E-2,9.148528827E0
2.921899506E0,-4.786050320E0,-1.021005058E1,2.449500114E-1,1.127880362E1
2.923862243E0,-5.743950367E0,-1.258605099E1,6.660000086E-1,1.385081952E1
2.925825275E0,-6.970950127E0,-1.500105095E1,1.510050058E0,1.661041620E1
2.927789124E0,-8.082000732E0,-1.726200104E1,1.740000129E0,1.913956677E1
2.929752734E0,-8.964000702E0,-1.936995125E1,1.624950051E0,2.140534472E1
2.931717342E0,-9.654000282E0,-2.163105011E1,8.959500194E-1,2.370453072E1
2.933681657E0,-1.018995094E1,-2.389305115E1,-1.759500057E-1,2.597583400E1
2.935645244E0,-1.076505089E1,-2.619195175E1,-6.360000372E-1,2.832506228E1
2.937609044E0,-1.130205059E1,-2.899005127E1,-1.134000063E0,3.113591778E1
2.939572458E0,-1.172295094E1,-3.224805069E1,-1.134000063E0,3.433147693E1
2.941536010E0,-1.203000069E1,-3.581204987E1,-1.210950017E0,3.779801889E1
2.943499726E0,-1.195305061E1,-3.952995300E1,-1.134000063E0,4.131317658E1
2.945463393E0,-1.130205059E1,-4.332495117E1,-7.890000343E-1,4.478180727E1
2.947426775E0,-9.730050087E0,-4.738695145E1,-7.120500207E-1,4.838082324E1
2.949390241E0,-7.546050549E0,-5.083695221E1,-8.269500136E-1,5.140060734E1
2.951353957E0,-5.245950222E0,-5.344305420E1,-1.134000063E0,5.371187943E1
2.953317610E0,-3.138000250E0,-5.585805130E1,-3.165000200E0,5.603557947E1
2.955281849E0,-1.068000078E0,-5.781300354E1,-6.460950375E0,5.818271120E1
2.957245917E0,5.790000558E-1,-5.907705307E1,-1.060095024E1,6.002344197E1
2.959209546E0,2.265000105E0,-5.995905304E1,-1.527705097E1,6.191612515E1
2.961173304E0,4.335000038E0,-6.072495270E1,-1.991400146E1,6.405372401E1
2.963136985E0,6.634950161E0,-6.126195145E1,-2.393895149E1,6.610690325E1
2.965100688E0,9.471000671E0,-6.164505386E1,-2.734995079E1,6.810163234E1
2.967064334E0,1.249905014E1,-6.195195389E1,-2.903595161E1,6.955111308E1
2.969027996E0,1.522005081E1,-6.218205261E1,-2.872995186E1,7.016885169E1
2.970991378E0,1.709805107E1,-6.122400284E1,-2.677500153E1,6.897552160E1
2.972954842E0,1.801800156E1,-5.907705307E1,-2.313405037E1,6.595400569E1
2.974918552E0,1.843905067E1,-5.601105118E1,-1.845795059E1,6.178941968E1
2.976882172E0,1.847805023E1,-5.236995316E1,-1.339905071E1,5.712779441E1
2.978845517E0,1.828605080E1,-4.849905396E1,-7.956000328E0,5.243887708E1
2.980808943E0,1.798005104E1,-4.516395187E1,-2.514000177E0,4.867632876E1
2.982771960E0,1.752000046E1,-4.232805252E1,1.701000094E0,4.584220596E1
2.984735097E0,1.690605164E1,-3.995205307E1,3.273000240E0,4.350509921E1
2.986698903E0,1.541205120E1,-3.776700211E1,3.886050224E0,4.097534816E1
2.988662499E0,1.284405041E1,-3.569700241E1,2.506050110E0,3.802007232E1
2.990626929E0,9.661950111E0,-3.351300049E1,1.300500035E-1,3.487823669E1
2.992591114E0,6.787950516E0,-3.132795143E1,-2.437050104E0,3.214741088E1
2.994554723E0,4.335000038E0,-2.944995117E1,-4.966950417E0,3.017884103E1
2.996518501E0,2.419050217E0,-2.787900162E1,-6.960000515E0,2.883629904E1
2.998481097E0,6.169500351E-1,-2.630700111E1,-7.995000362E0,2.750198112E1
3.000444039E0,-7.620000243E-1,-2.500395203E1,-8.377950668E0,2.638121147E1
3.002407679E0,-2.218050003E0,-2.373900032E1,-8.110050201E0,2.518397896E1
3.004371114E0,-3.636000156E0,-2.243595123E1,-7.420050144E0,2.390919382E1
3.006334896E0,-4.900950432E0,-2.140095139E1,-6.499950409E0,2.289692972E1
3.008298576E0,-6.166050434E0,-2.044305038E1,-5.427000046E0,2.203158679E1
3.010262242E0,-7.354050159E0,-1.960005188E1,-4.582950115E0,2.143006111E1
3.012225901E0,-8.274000168E0,-1.891005135E1,-3.931950092E0,2.101212393E1
3.014189779E0,-9.001950264E0,-1.833495140E1,-3.549000263E0,2.073164138E1
3.016153592E0,-9.499950409E0,-1.768395042E1,-3.241950035E0,2.033424207E1
3.018117084E0,-1.003695011E1,-1.710900116E1,-2.667000055E0,2.001427434E1
3.020080671E0,-1.065000057E1,-1.676399994E1,-2.284050226E0,1.999177560E1
3.022044201E0,-1.114800072E1,-1.660995102E1,-1.977000117E0,2.010166467E1
3.024007748E0,-1.160805035E1,-1.645695114E1,-1.594050050E0,2.020195707E1
3.025971285E0,-1.199205017E1,-1.611194992E1,-1.096050024E0,2.011480855E1
3.027934825E0,-1.210695076E1,-1.572900105E1,-6.360000372E-1,1.985910941E1
3.029897642E0,-1.187700081E1,-1.523100090E1,-1.369500011E-1,1.931489819E1
3.031860671E0,-1.160805035E1,-1.454100037E1,3.979500234E-1,1.861037046E1
3.033824286E0,-1.107195091E1,-1.400400066E1,9.730500579E-1,1.787867327E1
3.035787736E0,-1.057395077E1,-1.350600052E1,1.395000100E0,1.720948896E1
3.037751650E0,-1.003695011E1,-1.304595089E1,1.624950051E0,1.654018334E1
3.039715428E0,-9.615000725E0,-1.281600094E1,1.816050053E0,1.612439632E1
3.041679151E0,-9.040050507E0,-1.258605099E1,1.663050056E0,1.558515088E1
3.043642891E0,-8.734050751E0,-1.235595036E1,1.624950051E0,1.521820010E1
3.045606724E0,-8.580000877E0,-1.197300053E1,1.585950017E0,1.481500571E1
3.047570519E0,-8.311950684E0,-1.162800026E1,1.585950017E0,1.438103444E1
3.049534240E0,-8.158950806E0,-1.139805031E1,1.471050024E0,1.409425476E1
3.051497982E0,-7.699050426E0,-1.143600082E1,1.203000069E0,1.383852237E1
3.053461845E0,-7.584000587E0,-1.116795063E1,8.580000401E-1,1.352687511E1
3.055425673E0,-7.468950272E0,-1.097595024E1,9.349500537E-1,1.330905081E1
3.057389348E0,-7.315950394E0,-1.082295036E1,9.730500579E-1,1.309985539E1
3.059353064E0,-7.162050247E0,-1.070805073E1,1.050000072E0,1.292516206E1
3.061316707E0,-6.894000530E0,-1.055505085E1,1.356000066E0,1.267971127E1
3.063280372E0,-6.741000175E0,-1.040100002E1,1.548000097E0,1.249072412E1
3.065244293E0,-6.702000141E0,-1.044000053E1,1.855050087E0,1.254398772E1
3.067208139E0,-6.433950424E0,-1.051605034E1,2.200050116E0,1.252290914E1
3.069171753E0,-6.051000118E0,-1.047795010E1,2.430000067E0,1.234126983E1
3.071135473E0,-5.668050289E0,-1.044000053E1,2.698050022E0,1.218194891E1
3.073099161E0,-5.092950344E0,-1.021005058E1,3.004050255E0,1.179862679E1
3.075062858E0,-4.326000214E0,-1.005600071E1,3.234000206E0,1.141473545E1
3.077026369E0,-3.175950050E0,-1.001805019E1,3.388050079E0,1.104205016E1
3.078989934E0,-2.103000164E0,-1.001805019E1,3.043050051E0,1.067914290E1
3.080953612E0,-1.183050036E0,-1.001805019E1,2.620950222E0,1.042258687E1
3.082917250E0,-3.400500119E-1,-9.940950394E0,2.161050081E0,1.017881458E1
3.084881718E0,5.790000558E-1,-9.750000000E0,1.701000094E0,9.914188942E0
3.086845943E0,1.498950124E0,-9.558000565E0,1.471050024E0,9.786021379E0
3.088809680E0,2.764050245E0,-9.442950249E0,1.663050056E0,9.978728308E0
3.090773560E0,2.572050095E0,-8.752950668E0,2.161050081E0,9.375485297E0
3.092737268E0,2.227050066E0,-8.025000572E0,2.698050022E0,8.754419461E0
3.094700993E0,2.227050066E0,-7.335000515E0,3.004050255E0,8.233243740E0
3.096664859E0,2.686950207E0,-6.874950409E0,2.965950251E0,7.954967343E0
3.098628683E0,3.376950264E0,-6.568950176E0,2.773950100E0,7.889847822E0
3.100592399E0,3.913050175E0,-6.147000313E0,2.583000183E0,7.731071366E0
3.102556146E0,4.219950199E0,-5.802000046E0,2.659050226E0,7.651256911E0
3.104519800E0,4.450050354E0,-5.380050182E0,3.081000090E0,7.631543073E0
3.106483502E0,4.603050232E0,-5.074050426E0,3.771000147E0,7.820134352E0
3.108447507E0,4.642050266E0,-4.729050159E0,4.308000088E0,7.903885806E0
3.110411423E0,4.756950378E0,-4.575000286E0,4.690950394E0,8.097173588E0
3.112375258E0,4.756950378E0,-4.345950127E0,4.921050072E0,8.107563951E0
3.114339117E0,4.717950344E0,-4.000950336E0,5.074050426E0,8.000790384E0
3.116302661E0,4.372950077E0,-3.387000084E0,5.188950062E0,7.584171984E0
3.118266286E0,3.913050175E0,-2.697000027E0,5.035950184E0,6.924345822E0
3.120230304E0,3.568050146E0,-2.161050081E0,4.308000088E0,5.996664411E0
3.122194207E0,3.415050268E0,-1.816050053E0,3.579000235E0,5.269710505E0
3.124157684E0,3.529950142E0,-1.624050021E0,2.851050138E0,4.819395540E0
3.126121286E0,3.760050297E0,-1.393950105E0,2.200050116E0,4.573980284E0
3.128085177E0,3.874950171E0,-1.203000069E0,1.816050053E0,4.445276795E0
3.130048981E0,3.837000132E0,-9.730500579E-1,1.471050024E0,4.222959223E0
3.132012879E0,3.721950293E0,-6.660000086E-1,1.240950108E0,3.979500868E0
3.133976750E0,3.492000103E0,-4.360500276E-1,8.959500194E-1,3.631381388E0
3.135941313E0,3.300000191E0,-2.440500110E-1,3.600000143E-1,3.328537468E0
3.137905673E0,3.147000074E0,-1.680000126E-1,9.195000678E-2,3.152822272E0
3.139868111E0,2.992950201E0,-1.290000081E-1,-3.289500177E-1,3.013735228E0
3.141831122E0,2.878050089E0,6.105000153E-2,-6.739500165E-1,2.956536494E0
3.143794975E0,2.649000168E0,1.380000114E-1,-9.420000315E-1,2.814890753E0
3.145758582E0,2.533950090E0,2.530499995E-1,-1.134000063E0,2.787632240E0
3.147722424E0,2.341950178E0,2.530499995E-1,-1.171950102E0,2.631013489E0
3.149686197E0,2.149950027E0,2.140500098E-1,-1.210950017E0,2.476792779E0
3.151649862E0,2.074050188E0,2.140500098E-1,-1.326000094E0,2.470987220E0
3.153613569E0,1.882050037E0,1.759500057E-1,-1.363950014E0,2.330971984E0
3.155577124E0,1.804950118E0,9.900000691E-2,-1.402050018E0,2.287660417E0
3.157540723E0,1.690050125E0,9.900000691E-2,-1.441050053E0,2.223217416E0
3.159504430E0,1.575000048E0,1.380000114E-1,-1.402050018E0,2.113152481E0
3.161468106E0,1.498950124E0,1.380000114E-1,-1.402050018E0,2.057094974E0
3.163431757E0,1.459950089E0,1.759500057E-1,-1.479000092E0,2.085630346E0
3.165395415E0,1.345050097E0,1.759500057E-1,-1.516950130E0,2.035007584E0
3.167359112E0,1.306950092E0,9.900000691E-2,-1.632000089E0,2.093165984E0
3.169322798E0,1.269000053E0,1.380000114E-1,-1.671000123E0,2.102771160E0
3.171287438E0,1.230000019E0,2.295000106E-2,-1.747050047E0,2.136728952E0
3.173251798E0,1.192050099E0,-1.290000081E-1,-1.900950074E0,2.247495412E0
3.175215517E0,1.114950061E0,-2.440500110E-1,-2.014950037E0,2.315749921E0
3.177179420E0,1.077000022E0,-5.130000114E-1,-2.169000149E0,2.475411017E0
3.179143257E0,1.000050068E0,-7.039500475E-1,-2.322000027E0,2.624372293E0
3.181107113E0,1.077000022E0,-1.011000037E0,-2.514000177E0,2.915861282E0
3.183070641E0,1.114950061E0,-1.318050027E0,-2.704950094E0,3.208913293E0
3.185034266E0,1.153950095E0,-1.548000097E0,-2.859000206E0,3.449896709E0
3.186997804E0,1.269000053E0,-1.663050056E0,-2.974050045E0,3.636078972E0
3.188961357E0,1.306950092E0,-1.854000092E0,-3.204000235E0,3.925691326E0
3.190925072E0,1.384050012E0,-2.046000004E0,-3.472050190E0,4.261084718E0
3.192888740E0,1.575000048E0,-2.275950193E0,-3.702000141E0,4.622269949E0
3.194852257E0,1.729050040E0,-2.391000032E0,-4.047000408E0,5.008463587E0
3.196815819E0,1.804950118E0,-2.506050110E0,-4.392000198E0,5.369152431E0
3.198779868E0,1.920000076E0,-2.773950100E0,-4.813050270E0,5.877640033E0
3.200743760E0,2.111999989E0,-2.926950216E0,-5.388000488E0,6.485224035E0
3.202707599E0,2.341950178E0,-3.196050167E0,-6.040050507E0,7.223688630E0
3.204671454E0,2.494950056E0,-3.502050161E0,-6.844950199E0,8.083469202E0
3.206635119E0,2.649000168E0,-3.847050190E0,-7.840950489E0,9.126746497E0
3.208598839E0,2.802000046E0,-4.192049980E0,-8.761050224E0,1.010843649E1
3.210562765E0,2.878050089E0,-4.537050247E0,-9.681000710E0,1.107202655E1
3.212526620E0,2.955000162E0,-4.843950272E0,-1.052400017E1,1.195618918E1
3.214490466E0,3.108000040E0,-5.188950062E0,-1.148205090E1,1.297776405E1
3.216454315E0,3.108000040E0,-5.341950417E0,-1.236405087E1,1.382265721E1
3.218417980E0,2.992950201E0,-5.419050217E0,-1.297695065E1,1.437793811E1
3.220381699E0,2.764050245E0,-5.419050217E0,-1.324500084E1,1.457518872E1
3.222345585E0,2.572050095E0,-5.494950294E0,-1.351395035E1,1.481339848E1
3.224309408E0,2.265000105E0,-5.304000378E0,-1.347495079E1,1.465731709E1
3.226273079E0,1.959000111E0,-5.149950027E0,-1.305405045E1,1.416925897E1
3.228236795E0,1.651950121E0,-4.959000111E0,-1.259400082E1,1.363559598E1
3.230200258E0,1.345050097E0,-4.729050159E0,-1.190400028E1,1.287937490E1
3.232163795E0,1.114950061E0,-4.345950127E0,-1.109895039E1,1.197151184E1
3.234126687E0,7.320000529E-1,-4.039050102E0,-1.017900085E1,1.097550947E1
3.236089747E0,4.260000288E-1,-3.655950069E0,-9.220950127E0,9.928412168E0
3.238053502E0,1.960500032E-1,-3.271950245E0,-8.110050201E0,8.747400087E0
3.240017053E0,1.570500135E-1,-2.889000177E0,-6.997950554E0,7.572469788E0
3.241980950E0,4.200000316E-2,-2.506050110E0,-5.962950230E0,6.468293948E0
3.243944745E0,-3.299999982E-2,-2.275950193E0,-4.774950027E0,5.289724572E0
3.245908260E0,-7.200000435E-2,-1.893000126E0,-3.549000263E0,4.022938770E0
3.247871843E0,-1.480500102E-1,-1.663050056E0,-2.590050220E0,3.081560390E0
3.249835553E0,-2.629500031E-1,-1.471050024E0,-1.861950040E0,2.387464938E0
3.251799226E0,-3.400500119E-1,-1.318050027E0,-1.057050109E0,1.723439821E0
3.253762607E0,-4.930500090E-1,-1.203000069E0,-4.060500264E-1,1.362051431E0
3.255726074E0,-6.079500318E-1,-1.087950110E0,2.070000172E-1,1.263363642E0
3.257689088E0,-6.850500107E-1,-9.730500579E-1,7.810500264E-1,1.423432147E0
3.259652200E0,-7.620000243E-1,-8.959500194E-1,1.318050027E0,1.766529464E0
3.261615856E0,-9.150000215E-1,-8.580000401E-1,1.624950051E0,2.052766859E0
3.263579352E0,-1.222050071E0,-7.810500264E-1,2.122950077E0,2.571062533E0
3.265543393E0,-1.452000022E0,-7.039500475E-1,2.620950222E0,3.077861238E0
3.267507275E0,-1.681950092E0,-5.509500504E-1,3.118950129E0,3.586133290E0
