"Time (s)","Acceleration x (m/s^2)","Acceleration y (m/s^2)","Acceleration z (m/s^2)","Absolute acceleration (m/s^2)"
3.408517600E-2,-5.092950344E0,-2.473605156E1,3.733050108E0,2.552931752E1
3.604699400E-2,-4.671000004E0,-2.442900085E1,3.349050045E0,2.509602478E1
3.801132900E-2,-4.173000336E0,-2.412300110E1,3.081000090E0,2.467439311E1
3.997432500E-2,-3.712950230E0,-2.381595039E1,2.773950100E0,2.426273463E1
4.193771400E-2,-3.253050089E0,-2.354805183E1,2.583000183E0,2.391160743E1
4.390058100E-2,-2.793000221E0,-2.327895164E1,2.545050144E0,2.358363246E1
4.586358400E-2,-2.256000042E0,-2.301105118E1,2.353049994E0,2.324080155E1
4.782667300E-2,-1.987950087E0,-2.278095055E1,2.238000154E0,2.297677736E1
4.978973600E-2,-1.375050068E0,-2.289600182E1,2.008050203E0,2.302498485E1
5.175227600E-2,-1.106999993E0,-2.251305199E1,1.893000126E0,2.261960230E1
5.371496900E-2,-8.770500422E-1,-2.212995148E1,1.930950046E0,2.223134133E1
5.567778000E-2,-6.850500107E-1,-2.178495026E1,1.930950046E0,2.188108588E1
5.764056700E-2,-5.700000525E-1,-2.151600075E1,1.893000126E0,2.160663411E1
5.960351300E-2,-5.700000525E-1,-2.132505035E1,1.893000126E0,2.141649183E1
6.156641300E-2,-6.079500318E-1,-2.109495163E1,1.816050053E0,2.118170497E1
6.352911600E-2,-5.700000525E-1,-2.094105148E1,1.816050053E0,2.102737680E1
6.549187700E-2,-6.469500065E-1,-2.074995041E1,1.701000094E0,2.082960364E1
6.745461200E-2,-6.850500107E-1,-2.055795097E1,1.777950048E0,2.064605890E1
6.941737900E-2,-7.230000496E-1,-2.052000046E1,1.740000129E0,2.060632787E1
7.138001500E-2,-8.380500674E-1,-2.044305038E1,1.816050053E0,2.054065906E1
7.334268900E-2,-9.919500351E-1,-2.040495110E1,1.816050053E0,2.050960828E1
7.530578900E-2,-1.144950032E0,-2.032800102E1,1.930950046E0,2.045157950E1
7.726876400E-2,-1.297950029E0,-2.032800102E1,1.969950080E0,2.046443264E1
7.923151300E-2,-1.452000022E0,-2.025105095E1,2.008050203E0,2.040209877E1
8.119431800E-2,-1.489950061E0,-2.017500114E1,2.046000004E0,2.033314384E1
8.315712500E-2,-1.642950058E0,-2.009805107E1,2.046000004E0,2.026862249E1
8.511993200E-2,-1.795950055E0,-1.990695000E1,1.969950080E0,2.008464085E1
8.708305500E-2,-1.720050097E0,-1.975305176E1,1.893000126E0,1.991795862E1
8.904608600E-2,-1.720050097E0,-1.960005188E1,1.893000126E0,1.976623524E1
9.100899200E-2,-1.720050097E0,-1.952295113E1,1.777950048E0,1.967905738E1
9.297193400E-2,-1.720050097E0,-1.929300117E1,1.777950048E0,1.945095301E1
9.493485400E-2,-1.758000135E0,-1.898700142E1,1.663050056E0,1.914059881E1
9.689778000E-2,-1.605000019E0,-1.875705147E1,1.663050056E0,1.889890844E1
9.886052300E-2,-1.567050099E0,-1.848795128E1,1.624950051E0,1.862526379E1
1.008233190E-1,-1.528050065E0,-1.814295006E1,1.510050058E0,1.826969690E1
1.027860430E-1,-1.222050071E0,-1.810500145E1,1.548000097E0,1.821210554E1
1.047487850E-1,-1.260000110E0,-1.756905174E1,1.510050058E0,1.767878476E1
1.067112430E-1,-1.222050071E0,-1.718505096E1,1.471050024E0,1.729113562E1
1.086737850E-1,-1.222050071E0,-1.684005165E1,1.356000066E0,1.693869777E1
1.106365470E-1,-1.068000078E0,-1.645695114E1,1.240950108E0,1.653819283E1
1.125992450E-1,-9.919500351E-1,-1.611194992E1,1.050000072E0,1.617656933E1
1.145620760E-1,-9.150000215E-1,-1.561395073E1,1.050000072E0,1.567594280E1
1.165248650E-1,-9.150000215E-1,-1.515405083E1,8.200500607E-1,1.520378123E1
1.184876320E-1,-9.150000215E-1,-1.461705112E1,7.810500264E-1,1.466647360E1
1.204504050E-1,-7.999500632E-1,-1.415700054E1,6.280500293E-1,1.419348552E1
1.224135330E-1,-7.230000496E-1,-1.369695091E1,5.509500504E-1,1.372708051E1
1.243765570E-1,-6.469500065E-1,-1.312305069E1,5.509500504E-1,1.315053420E1
1.263401980E-1,-6.469500065E-1,-1.262400055E1,3.220500052E-1,1.264466885E1
1.283036480E-1,-6.079500318E-1,-1.204905033E1,1.300500035E-1,1.206507895E1
1.302663020E-1,-5.700000525E-1,-1.147395039E1,-2.205000073E-2,1.148812098E1
1.322291890E-1,-4.930500090E-1,-1.093800068E1,-1.369500011E-1,1.094996404E1
1.341921170E-1,-3.780000210E-1,-1.036305046E1,-2.140500098E-1,1.037215100E1
1.361550330E-1,-3.780000210E-1,-9.711000443E0,-3.670500219E-1,9.725283509E0
1.381178980E-1,-3.400500119E-1,-9.213000298E0,-5.590500236E-1,9.236208390E0
1.400807890E-1,-3.019500077E-1,-8.562000275E0,-7.890000343E-1,8.603577370E0
1.420435830E-1,-3.400500119E-1,-7.948050499E0,-1.018950105E0,8.020311718E0
1.440064050E-1,-3.400500119E-1,-7.219950199E0,-1.287000060E0,7.341640419E0
1.459693440E-1,-3.400500119E-1,-6.568950176E0,-1.632000089E0,6.777179702E0
1.479322490E-1,-3.019500077E-1,-5.955000401E0,-1.939050078E0,6.270017447E0
1.498949960E-1,-3.780000210E-1,-5.188950062E0,-2.092050076E0,5.607562775E0
1.518577890E-1,-4.170000255E-1,-4.537050247E0,-2.322000027E0,5.113745994E0
1.538201940E-1,-4.549500346E-1,-3.924000263E0,-2.514000177E0,4.682409048E0
1.557827120E-1,-5.700000525E-1,-3.234000206E0,-2.782050133E0,4.303888978E0
1.577451640E-1,-6.079500318E-1,-2.659050226E0,-2.896950245E0,3.979003904E0
1.597076350E-1,-6.079500318E-1,-2.122950077E0,-3.012000084E0,3.734791129E0
1.616698840E-1,-6.079500318E-1,-1.509000063E0,-3.127050161E0,3.524929381E0
1.636321880E-1,-6.469500065E-1,-1.087950110E0,-3.088950157E0,3.338231991E0
1.655947210E-1,-5.320500135E-1,-5.890500546E-1,-3.088950157E0,3.189305607E0
1.675571860E-1,-4.930500090E-1,-2.059500068E-1,-2.974050045E0,3.021669636E0
1.695191070E-1,-4.170000255E-1,-1.500000060E-2,-2.782050133E0,2.813168492E0
1.714811880E-1,-3.400500119E-1,3.289500177E-1,-2.667000055E0,2.708640142E0
1.734440500E-1,-3.780000210E-1,5.980500579E-1,-2.398950100E0,2.501101651E0
1.754067000E-1,-2.250000089E-1,9.430500269E-1,-2.169000149E0,2.375821964E0
1.773694450E-1,-1.480500102E-1,1.173000097E0,-1.939050078E0,2.271070946E0
1.793321620E-1,-7.200000435E-2,1.326000094E0,-1.747050047E0,2.194457591E0
1.812949400E-1,4.050000105E-3,1.441050053E0,-1.516950130E0,2.092314354E0
1.832577000E-1,4.050000105E-3,1.594050050E0,-1.287000060E0,2.048751112E0
1.852205310E-1,1.570500135E-1,1.671000123E0,-1.057050109E0,1.983497177E0
1.871833310E-1,2.719500065E-1,1.747950077E0,-7.510500550E-1,1.921812286E0
1.891462750E-1,3.490500152E-1,1.824000120E0,-5.209500194E-1,1.928782329E0
1.911091770E-1,4.260000288E-1,1.900950074E0,-2.140500098E-1,1.959822598E0
1.930720600E-1,5.020500422E-1,1.900950074E0,1.500000060E-2,1.966186774E0
1.950349480E-1,6.550500393E-1,1.900950074E0,3.220500052E-1,2.036275508E0
1.969972100E-1,8.850000501E-1,1.900950074E0,5.130000114E-1,2.158704539E0
1.989596490E-1,1.077000022E0,1.863000035E0,7.810500264E-1,2.289265673E0
2.009224290E-1,1.269000053E0,1.786050081E0,1.165050030E0,2.481466824E0
2.028851090E-1,1.459950089E0,1.747950077E0,1.471050024E0,2.711230700E0
2.048475790E-1,1.690050125E0,1.671000123E0,1.510050058E0,2.815805749E0
2.068101110E-1,1.959000111E0,1.671000123E0,1.585950017E0,3.024096609E0
2.087725150E-1,2.304000139E0,1.594050050E0,1.855050087E0,3.360152233E0
2.107349570E-1,2.494950056E0,1.518000126E0,1.855050087E0,3.459813722E0
2.126976460E-1,2.686950207E0,1.441050053E0,1.930950046E0,3.609001904E0
2.146602630E-1,2.878050089E0,1.441050053E0,1.930950046E0,3.753447169E0
2.166228340E-1,3.108000040E0,1.479000092E0,1.969950080E0,3.965830157E0
2.185854190E-1,3.184950113E0,1.402950048E0,1.893000126E0,3.961770506E0
2.205480090E-1,3.376950264E0,1.402950048E0,1.855050087E0,4.100399096E0
2.225106180E-1,3.415050268E0,1.441050053E0,1.777950048E0,4.110997441E0
2.244731000E-1,3.607050180E0,1.441050053E0,1.624950051E0,4.210451155E0
2.264356200E-1,3.760050297E0,1.402950048E0,1.510050058E0,4.287948023E0
2.283985670E-1,3.874950171E0,1.402950048E0,1.432950020E0,4.363124273E0
2.303613880E-1,3.990000248E0,1.363950014E0,1.203000069E0,4.384936805E0
2.323241210E-1,4.105050087E0,1.479000092E0,8.580000401E-1,4.446913711E0
2.342869000E-1,4.182000160E0,1.479000092E0,4.360500276E-1,4.457208346E0
2.362505680E-1,4.258049965E0,1.479000092E0,2.070000172E-1,4.512347480E0
2.382139750E-1,4.372950077E0,1.479000092E0,-6.105000153E-2,4.616693703E0
2.401765010E-1,4.450050354E0,1.479000092E0,-4.060500264E-1,4.706938076E0
2.421392850E-1,4.564949989E0,1.479000092E0,-6.360000372E-1,4.840527422E0
2.441020110E-1,4.642050266E0,1.518000126E0,-7.890000343E-1,4.947269561E0
2.460647510E-1,4.795050144E0,1.441050053E0,-8.659500480E-1,5.081240068E0
2.480273900E-1,4.872000217E0,1.402950048E0,-9.810000658E-1,5.164011627E0
2.499900590E-1,4.948050022E0,1.363950014E0,-1.018950105E0,5.232763895E0
2.519529790E-1,5.062950134E0,1.288050056E0,-9.810000658E-1,5.315533664E0
2.539158260E-1,5.178000450E0,1.249050021E0,-8.269500136E-1,5.390330318E0
2.558786160E-1,5.215950012E0,1.173000097E0,-6.739500165E-1,5.388531561E0
2.578414000E-1,5.331000328E0,1.018950105E0,-4.819500148E-1,5.448862233E0
2.598045260E-1,5.446050167E0,8.659500480E-1,-3.289500177E-1,5.524268279E0
2.617675520E-1,5.407950401E0,7.510500550E-1,-1.369500011E-1,5.461571114E0
2.637305040E-1,5.407950401E0,5.590500236E-1,1.500000060E-2,5.436790365E0
2.656934770E-1,5.370000362E0,3.289500177E-1,2.449500114E-1,5.385639471E0
2.676567220E-1,5.254950047E0,1.380000114E-1,6.280500293E-1,5.294146847E0
2.696199070E-1,5.062950134E0,-9.105000645E-2,8.580000401E-1,5.135943753E0
2.715831010E-1,4.872000217E0,-1.680000126E-1,1.165050030E0,5.012180333E0
2.735462920E-1,4.756950378E0,-3.979500234E-1,1.432950020E0,4.984003098E0
2.755093960E-1,4.642050266E0,-5.890500546E-1,1.548000097E0,4.928682881E0
2.774725250E-1,4.488000393E0,-7.810500264E-1,1.663050056E0,4.849528035E0
2.794355630E-1,4.297049999E0,-9.730500579E-1,1.816050053E0,4.765448867E0
2.813986170E-1,4.105050087E0,-1.126049995E0,1.969950080E0,4.690429418E0
2.833615170E-1,3.952050209E0,-1.279050112E0,2.085000038E0,4.647783902E0
2.853244630E-1,3.798000097E0,-1.432950020E0,2.161050081E0,4.598726775E0
2.872872470E-1,3.568050146E0,-1.548000097E0,2.200050116E0,4.468501612E0
2.892500780E-1,3.415050268E0,-1.663050056E0,2.161050081E0,4.370176344E0
2.912131910E-1,3.262050152E0,-1.777950048E0,2.200050116E0,4.317672762E0
2.931762250E-1,3.147000074E0,-1.930950046E0,2.122950077E0,4.259001594E0
2.951393090E-1,2.955000162E0,-1.930950046E0,2.085000038E0,4.099734040E0
2.971023790E-1,2.802000046E0,-1.930950046E0,2.122950077E0,4.010821532E0
2.990656370E-1,2.686950207E0,-2.008050203E0,2.085000038E0,3.949581268E0
3.010288400E-1,2.533950090E0,-1.930950046E0,2.122950077E0,3.828366253E0
3.029916530E-1,2.380050182E0,-2.008050203E0,2.238000154E0,3.834781504E0
3.049545930E-1,2.188950062E0,-1.969050050E0,2.161050081E0,3.652231910E0
3.069178720E-1,2.074050188E0,-1.893000126E0,2.085000038E0,3.497478923E0
3.088810520E-1,1.882050037E0,-1.854000092E0,1.930950046E0,3.272307559E0
3.108441580E-1,1.804950118E0,-1.777950048E0,1.816050053E0,3.117208542E0
3.128072850E-1,1.767000079E0,-1.777950048E0,1.740000129E0,3.051392486E0
3.147701490E-1,1.690050125E0,-1.738950133E0,1.624950051E0,2.919020326E0
3.167331070E-1,1.614000082E0,-1.701000094E0,1.548000097E0,2.809751214E0
3.186956640E-1,1.498950124E0,-1.701000094E0,1.510050058E0,2.724060200E0
3.206583380E-1,1.422000051E0,-1.701000094E0,1.471050024E0,2.660728028E0
3.226213030E-1,1.345050097E0,-1.701000094E0,1.471050024E0,2.620410131E0
3.245841820E-1,1.306950092E0,-1.663050056E0,1.395000100E0,2.533748076E0
3.265471270E-1,1.230000019E0,-1.663050056E0,1.356000066E0,2.473332107E0
3.285100420E-1,1.230000019E0,-1.624050021E0,1.203000069E0,2.365934843E0
3.304732820E-1,1.153950095E0,-1.624050021E0,1.050000072E0,2.252030072E0
3.324364270E-1,1.077000022E0,-1.585950017E0,8.959500194E-1,2.116103244E0
3.343991780E-1,9.619500637E-1,-1.509000063E0,7.810500264E-1,1.952554291E0
3.363620440E-1,9.240000248E-1,-1.548000097E0,5.509500504E-1,1.885106444E0
3.383257070E-1,9.240000248E-1,-1.509000063E0,3.220500052E-1,1.798491991E0
3.402891290E-1,8.470500112E-1,-1.509000063E0,1.300500035E-1,1.735363914E0
3.422517430E-1,9.240000248E-1,-1.548000097E0,-2.205000073E-2,1.802932763E0
3.442145930E-1,9.240000248E-1,-1.471050024E0,-2.140500098E-1,1.750309009E0
3.461773480E-1,8.850000501E-1,-1.471050024E0,-3.289500177E-1,1.747976366E0
3.481401310E-1,9.240000248E-1,-1.471050024E0,-4.819500148E-1,1.802786742E0
3.501029080E-1,1.153950095E0,-1.432950020E0,-7.120500207E-1,1.972805569E0
3.520657110E-1,1.269000053E0,-1.356000066E0,-8.659500480E-1,2.049138063E0
3.540284750E-1,1.306950092E0,-1.279050112E0,-9.040500522E-1,2.039949565E0
3.559912510E-1,1.306950092E0,-1.164000034E0,-1.057050109E0,2.044595206E0
3.579540190E-1,1.306950092E0,-1.087950110E0,-1.057050109E0,2.002275935E0
3.599167900E-1,1.384050012E0,-1.048950076E0,-1.134000063E0,2.074089400E0
3.618795270E-1,1.384050012E0,-9.340500236E-1,-1.096050024E0,1.997340616E0
3.638422650E-1,1.384050012E0,-7.429500222E-1,-1.171950102E0,1.959856171E0
3.658050390E-1,1.345050097E0,-7.039500475E-1,-1.249050021E0,1.965917442E0
3.677678020E-1,1.306950092E0,-5.509500504E-1,-1.441050053E0,2.021951967E0
3.697307530E-1,1.269000053E0,-4.360500276E-1,-1.594050050E0,2.083625764E0
3.716936480E-1,1.192050099E0,-2.830500007E-1,-1.786050081E0,2.165889110E0
3.736565910E-1,1.077000022E0,-2.440500110E-1,-1.939050078E0,2.231457968E0
3.756195090E-1,9.619500637E-1,-1.680000126E-1,-2.092050076E0,2.308732433E0
3.775826130E-1,8.470500112E-1,-1.290000081E-1,-2.322000027E0,2.475039161E0
3.795456630E-1,7.699500322E-1,-1.290000081E-1,-2.590050220E0,2.705147722E0
3.815074840E-1,6.550500393E-1,-9.105000645E-2,-2.896950245E0,2.971481344E0
3.834696650E-1,6.169500351E-1,-1.500000060E-2,-3.357000113E0,3.413253888E0
3.854318390E-1,3.870000243E-1,-1.500000060E-2,-3.739950180E0,3.759949650E0
3.873939970E-1,2.719500065E-1,6.105000153E-2,-4.084949970E0,4.094447480E0
3.893568700E-1,8.100000024E-2,9.900000691E-2,-4.429950237E0,4.431796600E0
3.913195340E-1,-7.200000435E-2,1.380000114E-1,-4.736999989E0,4.739556614E0
3.932825020E-1,-3.019500077E-1,2.530499995E-1,-5.082000256E0,5.097247758E0
3.952453800E-1,-5.700000525E-1,3.679500222E-1,-5.311950207E0,5.355100585E0
3.972081910E-1,-8.380500674E-1,4.830000103E-1,-5.119950294E0,5.210518971E0
3.991710120E-1,-9.529500604E-1,4.830000103E-1,-4.736999989E0,4.855983085E0
4.011339510E-1,-1.030050039E0,5.980500579E-1,-4.315050125E0,4.476418718E0
4.030968560E-1,-1.068000078E0,5.980500579E-1,-3.817050219E0,4.008510997E0
4.050596030E-1,-1.068000078E0,5.209500194E-1,-3.394950151E0,3.596901392E0
4.070223960E-1,-7.999500632E-1,2.910000086E-1,-3.165000200E0,3.277472712E0
4.089864560E-1,-5.320500135E-1,2.295000106E-2,-3.049950123E0,3.096094261E0
4.109501200E-1,-1.480500102E-1,-2.440500110E-1,-2.935050249E0,2.948897960E0
4.129137730E-1,2.719500065E-1,-7.810500264E-1,-2.782050133E0,2.902378144E0
4.148774300E-1,6.550500393E-1,-1.240950108E0,-2.514000177E0,2.879104829E0
4.168405880E-1,1.039050102E0,-1.701000094E0,-2.053950071E0,2.862121125E0
4.188038920E-1,1.306950092E0,-2.122950077E0,-1.441050053E0,2.879524410E0
4.207672840E-1,1.498950124E0,-2.620950222E0,-8.659500480E-1,3.141035025E0
4.227306540E-1,1.729050040E0,-3.118950129E0,-2.910000086E-1,3.578008517E0
4.246936820E-1,1.959000111E0,-3.655950069E0,1.500000060E-2,4.147755700E0
4.266568100E-1,2.149950027E0,-4.153950214E0,5.295000225E-2,4.677648042E0
4.286202370E-1,2.227050066E0,-4.690050125E0,-2.205000073E-2,5.191994643E0
4.305835770E-1,2.111999989E0,-5.112000465E0,-6.105000153E-2,5.531439217E0
4.325461230E-1,2.074050188E0,-5.572050095E0,1.300500035E-1,5.946960521E0
4.345088960E-1,1.996950150E0,-5.955000401E0,5.899500251E-1,6.308556150E0
4.364723840E-1,1.996950150E0,-6.262050152E0,1.318050027E0,6.703606334E0
4.384356630E-1,1.920000076E0,-6.568950176E0,2.085000038E0,7.154350555E0
4.403993810E-1,1.575000048E0,-6.874950409E0,2.851050138E0,7.607499929E0
4.423629710E-1,1.230000019E0,-7.372950554E0,3.502950191E0,8.254935491E0
4.443256000E-1,6.169500351E-1,-8.062950134E0,3.655950069E0,8.874557066E0
4.462885110E-1,-1.480500102E-1,-8.752950668E0,3.771000147E0,9.531867934E0
4.482516150E-1,-9.919500351E-1,-9.711000443E0,3.771000147E0,1.046460399E1
4.502146630E-1,-1.911000133E0,-1.086105061E1,3.579000235E0,1.159411853E1
4.521779710E-1,-2.985000134E0,-1.212600040E1,3.310950041E0,1.291946213E1
4.541412020E-1,-4.479000092E0,-1.369695091E1,3.043050051E0,1.472847785E1
4.561042390E-1,-6.166050434E0,-1.557600117E1,2.736000061E0,1.697402977E1
4.580673430E-1,-8.082000732E0,-1.787505150E1,2.046000004E0,1.972364870E1
4.600307300E-1,-9.999000549E0,-2.040495110E1,1.548000097E0,2.277582810E1
4.619940340E-1,-1.141695023E1,-2.320305061E1,1.510050058E0,2.590383295E1
4.639571180E-1,-1.222200012E1,-2.626905060E1,1.663050056E0,2.902078637E1
4.659202660E-1,-1.241295052E1,-2.925795174E1,2.161050081E0,3.185559947E1
4.678831370E-1,-1.225995064E1,-3.201795197E1,2.430000067E0,3.437092577E1
4.698460990E-1,-1.149300098E1,-3.450900269E1,2.467950106E0,3.645615333E1
4.718093290E-1,-9.922050476E0,-3.700094986E1,2.467950106E0,3.838760417E1
4.737724810E-1,-7.737000465E0,-3.926205063E1,2.430000067E0,4.009083057E1
4.757355460E-1,-5.782950401E0,-4.106295013E1,2.314950228E0,4.153272666E1
4.776986370E-1,-4.057950020E0,-4.221300125E1,1.471050024E0,4.243310525E1
4.796633680E-1,-1.567050099E0,-4.374600220E1,4.750500321E-1,4.377663791E1
4.816276250E-1,1.537050128E0,-4.550895309E1,-2.520000041E-1,4.553559969E1
4.835905010E-1,4.527000427E0,-4.708095169E1,-1.786050081E0,4.733180453E1
4.855537810E-1,6.558000088E0,-4.807695389E1,-3.549000263E0,4.865178582E1
4.875170040E-1,8.244000435E0,-4.872900391E1,-4.927950382E0,4.966652857E1
4.894802430E-1,9.163949966E0,-4.892100143E1,-5.580000401E0,5.008371756E1
4.914433260E-1,9.853950500E0,-4.899705124E1,-5.197050095E0,5.024759397E1
4.934064300E-1,1.058205032E1,-4.903605270E1,-4.009050369E0,5.032481236E1
4.953689620E-1,1.035195065E1,-4.819200134E1,-2.590050220E0,4.935929736E1
4.973316610E-1,9.088050842E0,-4.596900177E1,-1.210950017E0,4.687438738E1
4.992949370E-1,7.363050461E0,-4.263495255E1,-4.819500148E-1,4.326876433E1
5.012580440E-1,5.101050377E0,-3.887895203E1,-3.289500177E-1,3.921354146E1
5.032204240E-1,2.764050245E0,-3.546795273E1,-5.209500194E-1,3.557930625E1
5.051829970E-1,5.410500169E-1,-3.232500076E1,-9.040500522E-1,3.234216622E1
5.071461590E-1,-1.030050039E0,-2.983305168E1,-1.171950102E0,2.987382538E1
5.091091490E-1,-1.950000048E0,-2.784000206E1,-1.210950017E0,2.793447001E1
5.110719260E-1,-2.640000105E0,-2.638395119E1,-1.134000063E0,2.653994041E1
5.130347660E-1,-3.061050177E0,-2.538705063E1,-9.420000315E-1,2.558827333E1
5.149979850E-1,-3.330000162E0,-2.488905144E1,-7.120500207E-1,2.512092351E1
5.169611160E-1,-3.751050234E0,-2.458200073E1,-6.360000372E-1,2.487467857E1
5.189244090E-1,-4.288050175E0,-2.446800041E1,-6.739500165E-1,2.485004280E1
5.208876540E-1,-4.633050442E0,-2.458200073E1,-7.120500207E-1,2.502492621E1
5.228504780E-1,-4.939050198E0,-2.473605156E1,-9.040500522E-1,2.524051842E1
5.248134250E-1,-5.016000271E0,-2.508105087E1,-9.420000315E-1,2.559505295E1
5.267765180E-1,-5.016000271E0,-2.534895134E1,-9.420000315E-1,2.585762860E1
5.287395720E-1,-4.824000359E0,-2.557905197E1,-8.269500136E-1,2.604309362E1
5.307026980E-1,-4.555950165E0,-2.584695053E1,-5.590500236E-1,2.625136321E1
5.326658030E-1,-4.134000301E0,-2.611605072E1,-4.440000355E-1,2.644494658E1
5.346288310E-1,-3.751050234E0,-2.634600067E1,-3.289500177E-1,2.661372460E1
5.365918820E-1,-3.175950050E0,-2.649900055E1,-2.140500098E-1,2.668950180E1
5.385553530E-1,-2.640000105E0,-2.665200043E1,-9.900000691E-2,2.678261616E1
5.405187110E-1,-2.026050091E0,-2.665200043E1,5.295000225E-2,2.672895077E1
5.424810200E-1,-1.567050099E0,-2.646105194E1,2.830500007E-1,2.650892365E1
5.444436360E-1,-1.106999993E0,-2.626905060E1,5.130000114E-1,2.629736940E1
5.464067910E-1,-6.850500107E-1,-2.592405128E1,7.810500264E-1,2.594486014E1
5.483697880E-1,-3.780000210E-1,-2.561700058E1,9.730500579E-1,2.563826104E1
5.503328840E-1,-3.400500119E-1,-2.519595146E1,1.011000037E0,2.521851949E1
5.522959470E-1,-3.400500119E-1,-2.469705200E1,9.730500579E-1,2.471855251E1
5.542590260E-1,-3.019500077E-1,-2.427600098E1,8.200500607E-1,2.429172450E1
5.562221010E-1,-3.400500119E-1,-2.377800179E1,4.750500321E-1,2.378517764E1
5.581862150E-1,-3.780000210E-1,-2.339400101E1,2.449500114E-1,2.339833686E1
5.601500240E-1,-4.549500346E-1,-2.301105118E1,-9.900000691E-2,2.301576105E1
5.621130080E-1,-4.930500090E-1,-2.262795067E1,-5.209500194E-1,2.263931621E1
5.640762430E-1,-6.079500318E-1,-2.232105064E1,-9.040500522E-1,2.234762206E1
5.660390670E-1,-7.230000496E-1,-2.209095192E1,-1.249050021E0,2.213804444E1
5.680020120E-1,-8.380500674E-1,-2.186100197E1,-1.632000089E0,2.193784764E1
5.699651110E-1,-9.529500604E-1,-2.159295082E1,-1.824000120E0,2.169079564E1
5.719281640E-1,-1.106999993E0,-2.136300087E1,-2.130000114E0,2.149744533E1
5.738913040E-1,-1.183050036E0,-2.109495163E1,-2.322000027E0,2.125531171E1
5.758544090E-1,-1.260000110E0,-2.082600021E1,-2.437050104E0,2.100593008E1
5.778176160E-1,-1.375050068E0,-2.055795097E1,-2.514000177E0,2.075669308E1
5.797807930E-1,-1.489950061E0,-2.032800102E1,-2.514000177E0,2.053698551E1
5.817438540E-1,-1.528050065E0,-2.009805107E1,-2.475000143E0,2.030744247E1
5.837069490E-1,-1.605000019E0,-1.986795044E1,-2.398950100E0,2.007651467E1
5.856700480E-1,-1.681950092E0,-1.960005188E1,-2.359950066E0,1.981313590E1
5.876331590E-1,-1.720050097E0,-1.933200073E1,-2.322000027E0,1.954677745E1
5.895961860E-1,-1.758000135E0,-1.910205078E1,-2.206950188E0,1.930931220E1
5.915592380E-1,-1.681950092E0,-1.879500008E1,-2.014950037E0,1.897738147E1
5.935223630E-1,-1.720050097E0,-1.841205025E1,-1.939050078E0,1.859360325E1
5.954854670E-1,-1.642950058E0,-1.798995018E1,-1.786050081E0,1.815289418E1
5.974485210E-1,-1.567050099E0,-1.760700035E1,-1.708950043E0,1.775901511E1
5.994116030E-1,-1.336950064E0,-1.729995155E1,-1.516950130E0,1.741771790E1
6.013748130E-1,-1.183050036E0,-1.684005165E1,-1.363950014E0,1.693656714E1
6.033379860E-1,-1.068000078E0,-1.645695114E1,-1.249050021E0,1.653880259E1
6.053008670E-1,-9.529500604E-1,-1.599705029E1,-1.134000063E0,1.606548125E1
6.072638340E-1,-8.770500422E-1,-1.553700066E1,-9.810000658E-1,1.559262541E1
6.092269780E-1,-8.380500674E-1,-1.519200039E1,-8.659500480E-1,1.523972025E1
6.111900670E-1,-6.850500107E-1,-1.480905056E1,-7.890000343E-1,1.484586788E1
6.131531430E-1,-5.700000525E-1,-1.423395061E1,-7.120500207E-1,1.426314360E1
6.151162230E-1,-5.320500135E-1,-1.362105083E1,-7.120500207E-1,1.365002265E1
6.170789390E-1,-2.250000089E-1,-1.319895077E1,-6.360000372E-1,1.321618033E1
6.190417610E-1,-7.200000435E-2,-1.270095062E1,-5.970000029E-1,1.271517753E1
6.210046710E-1,-3.299999982E-2,-1.216395092E1,-5.590500236E-1,1.217683571E1
6.229675760E-1,4.200000316E-2,-1.158900070E1,-5.590500236E-1,1.160255309E1
6.249305030E-1,1.570500135E-1,-1.109100056E1,-6.739500165E-1,1.111256796E1
6.268934230E-1,1.570500135E-1,-1.051605034E1,-6.360000372E-1,1.053643562E1
6.288563470E-1,3.870000243E-1,-9.979950905E0,-7.120500207E-1,1.001280202E1
6.308192690E-1,2.719500065E-1,-9.289950371E0,-6.739500165E-1,9.318333720E0
6.327825070E-1,2.719500065E-1,-8.677050591E0,-6.360000372E-1,8.704576946E0
6.347456530E-1,3.109500110E-1,-8.101950645E0,-6.739500165E-1,8.135877506E0
6.367087190E-1,2.719500065E-1,-7.488000393E0,-7.120500207E-1,7.526693957E0
6.386718090E-1,3.490500152E-1,-6.913050175E0,-7.510500550E-1,6.962483380E0
6.406357840E-1,5.410500169E-1,-6.300000191E0,-8.269500136E-1,6.377035663E0
6.425995000E-1,6.550500393E-1,-5.802000046E0,-5.590500236E-1,5.865563231E0
6.445621870E-1,7.320000529E-1,-5.227050304E0,-4.819500148E-1,5.300014602E0
6.465251510E-1,8.089500666E-1,-4.651950359E0,-2.910000086E-1,4.730721231E0
6.484882010E-1,7.320000529E-1,-3.961950302E0,-3.289500177E-1,4.042410468E0
6.504512260E-1,8.089500666E-1,-3.426000118E0,-2.520000041E-1,3.529218189E0
6.524143120E-1,8.089500666E-1,-2.812050104E0,-1.759500057E-1,2.931379266E0
6.543773800E-1,9.240000248E-1,-2.238000154E0,9.195000678E-2,2.422988968E0
6.563393920E-1,1.000050068E0,-1.738950133E0,2.449500114E-1,2.020902821E0
6.583017030E-1,1.077000022E0,-1.279050112E0,4.750500321E-1,1.738266599E0
6.602650910E-1,1.153950095E0,-8.190000653E-1,7.429500222E-1,1.598229228E0
6.622281630E-1,1.269000053E0,-4.360500276E-1,9.730500579E-1,1.657506313E0
6.641907460E-1,1.306950092E0,-1.680000126E-1,1.318050027E0,1.863759218E0
6.661534730E-1,1.498950124E0,-5.295000225E-2,1.548000097E0,2.155448788E0
6.681163930E-1,1.767000079E0,6.105000153E-2,1.740000129E0,2.480648470E0
6.700792500E-1,1.959000111E0,2.140500098E-1,2.085000038E0,2.868923840E0
6.720422300E-1,2.188950062E0,2.910000086E-1,2.659050226E0,3.456404416E0
6.740051730E-1,2.457000017E0,3.289500177E-1,2.965950251E0,3.865477731E0
6.759684080E-1,2.533950090E0,4.060500264E-1,3.043050051E0,3.980695077E0
6.779315580E-1,2.649000168E0,4.830000103E-1,3.118950129E0,4.120478225E0
6.798949350E-1,2.725050211E0,4.440000355E-1,3.043050051E0,4.108915708E0
6.818582790E-1,2.839950085E0,3.679500222E-1,3.196050167E0,4.291321518E0
6.838213560E-1,2.917050123E0,2.910000086E-1,3.118950129E0,4.280386937E0
6.857845120E-1,2.955000162E0,2.140500098E-1,3.081000090E0,4.274389420E0
6.877477090E-1,3.184950113E0,1.380000114E-1,3.004050255E0,4.380327518E0
6.897108940E-1,3.300000191E0,1.759500057E-1,2.851050138E0,4.364567167E0
6.916738080E-1,3.376950264E0,1.380000114E-1,2.812950134E0,4.397217933E0
6.936368090E-1,3.453000069E0,1.380000114E-1,2.698050022E0,4.384259048E0
6.956000330E-1,3.453000069E0,2.140500098E-1,2.353049994E0,4.184001811E0
6.975631920E-1,3.568050146E0,2.910000086E-1,2.122950077E0,4.162040351E0
6.995264350E-1,3.645000219E0,2.910000086E-1,2.046000004E0,4.190086350E0
7.014896540E-1,3.682950258E0,3.679500222E-1,1.816050053E0,4.122808220E0
7.034527860E-1,3.798000097E0,4.060500264E-1,1.701000094E0,4.181277638E0
7.054159200E-1,3.913050175E0,4.440000355E-1,1.548000097E0,4.231477520E0
7.073791210E-1,3.990000248E0,5.209500194E-1,1.471050024E0,4.284329478E0
7.093423030E-1,3.990000248E0,5.209500194E-1,1.432950020E0,4.271397507E0
7.113053630E-1,4.105050087E0,5.209500194E-1,1.318050027E0,4.342819477E0
7.132684590E-1,4.027950287E0,5.980500579E-1,1.126049995E0,4.224930293E0
7.152317370E-1,4.027950287E0,5.980500579E-1,1.087950110E0,4.214935685E0
7.171949750E-1,4.027950287E0,6.360000372E-1,1.011000037E0,4.201309395E0
7.191582060E-1,3.913050175E0,6.360000372E-1,7.810500264E-1,4.040606002E0
7.211214390E-1,3.874950171E0,6.739500165E-1,7.050000429E-1,3.995806866E0
7.230844890E-1,3.874950171E0,7.129500508E-1,6.660000086E-1,3.995884459E0
7.250475930E-1,3.837000132E0,6.739500165E-1,5.899500251E-1,3.940154777E0
7.270104740E-1,3.798000097E0,6.739500165E-1,5.509500504E-1,3.896480376E0
7.289733960E-1,3.721950293E0,7.129500508E-1,5.130000114E-1,3.824183673E0
7.309364990E-1,3.798000097E0,7.129500508E-1,4.360500276E-1,3.888861291E0
7.328995480E-1,3.760050297E0,6.739500165E-1,3.979500234E-1,3.840644618E0
7.348628100E-1,3.837000132E0,7.510500550E-1,4.360500276E-1,3.934054629E0
7.368260090E-1,3.874950171E0,7.129500508E-1,3.220500052E-1,3.953132025E0
7.387898360E-1,3.952050209E0,7.129500508E-1,2.449500114E-1,4.023306990E0
7.407534760E-1,3.952050209E0,7.129500508E-1,2.070000172E-1,4.021174908E0
7.427168180E-1,3.952050209E0,7.510500550E-1,2.449500114E-1,4.030232940E0
7.446802470E-1,4.105050087E0,7.129500508E-1,2.449500114E-1,4.173695545E0
7.466436240E-1,4.105050087E0,7.129500508E-1,2.070000172E-1,4.171640325E0
7.486070160E-1,4.143000126E0,7.129500508E-1,1.680000126E-1,4.207252289E0
7.505698680E-1,4.105050087E0,6.739500165E-1,1.300500035E-1,4.162037703E0
7.525328720E-1,4.182000160E0,6.739500165E-1,5.295000225E-2,4.236288195E0
7.544962760E-1,4.258049965E0,5.980500579E-1,1.500000060E-2,4.299869577E0
7.564595620E-1,4.219950199E0,5.209500194E-1,1.500000060E-2,4.252010537E0
7.584226040E-1,4.182000160E0,4.440000355E-1,-6.105000153E-2,4.205946799E0
7.603857180E-1,4.182000160E0,3.679500222E-1,-9.900000691E-2,4.199322988E0
7.623489530E-1,4.027950287E0,3.289500177E-1,-1.369500011E-1,4.043679875E0
7.643121630E-1,3.874950171E0,2.140500098E-1,-1.369500011E-1,3.883273301E0
7.662752630E-1,3.798000097E0,9.900000691E-2,-2.140500098E-1,3.805315118E0
7.682383960E-1,3.607050180E0,-1.500000060E-2,-1.759500057E-1,3.611370157E0
7.702021830E-1,3.415050268E0,-5.295000225E-2,-2.910000086E-1,3.427835037E0
7.721657790E-1,3.262050152E0,-1.290000081E-1,-2.910000086E-1,3.277543775E0
7.741289030E-1,3.031950235E0,-1.290000081E-1,-3.289500177E-1,3.052469713E0
7.760921650E-1,2.764050245E0,-1.680000126E-1,-3.289500177E-1,2.788620784E0
7.780556150E-1,2.572050095E0,-1.680000126E-1,-4.060500264E-1,2.609318363E0
7.800190090E-1,2.304000139E0,-1.680000126E-1,-4.060500264E-1,2.345531341E0
7.819823480E-1,2.111999989E0,-1.680000126E-1,-2.140500098E-1,2.129456589E0
7.839457040E-1,1.804950118E0,-1.290000081E-1,-9.900000691E-2,1.812260172E0
7.859087190E-1,1.690050125E0,-1.680000126E-1,9.195000678E-2,1.700866906E0
7.878718440E-1,1.498950124E0,-1.290000081E-1,2.830500007E-1,1.530885292E0
7.898349120E-1,1.306950092E0,-1.290000081E-1,3.979500234E-1,1.372269568E0
7.917979970E-1,1.269000053E0,-9.105000645E-2,5.130000114E-1,1.371794537E0
7.937612970E-1,1.153950095E0,-9.105000645E-2,6.280500293E-1,1.316942582E0
7.957245340E-1,1.000050068E0,-9.105000645E-2,7.050000429E-1,1.226953668E0
7.976873990E-1,9.619500637E-1,-5.295000225E-2,8.580000401E-1,1.290083601E0
7.996503770E-1,9.240000248E-1,-5.295000225E-2,9.730500579E-1,1.342909589E0
8.016131110E-1,8.470500112E-1,-5.295000225E-2,1.050000072E0,1.350110208E0
8.035759160E-1,8.089500666E-1,-1.500000060E-2,1.087950110E0,1.355824713E0
8.055399400E-1,7.699500322E-1,-1.500000060E-2,1.087950110E0,1.332922914E0
8.075036060E-1,8.089500666E-1,-5.295000225E-2,1.126049995E0,1.387513065E0
8.094667960E-1,8.470500112E-1,-9.105000645E-2,1.165050030E0,1.443303640E0
8.114301020E-1,8.850000501E-1,-9.105000645E-2,1.087950110E0,1.405400525E0
8.133936340E-1,8.470500112E-1,-9.105000645E-2,1.087950110E0,1.381817379E0
8.153571000E-1,8.470500112E-1,-1.290000081E-1,1.050000072E0,1.355225027E0
8.173201560E-1,9.240000248E-1,-1.680000126E-1,1.050000072E0,1.408722897E0
8.192833330E-1,9.240000248E-1,-1.290000081E-1,1.011000037E0,1.375695505E0
8.212465720E-1,1.000050068E0,-1.680000126E-1,9.730500579E-1,1.405400497E0
8.232097930E-1,1.039050102E0,-1.290000081E-1,1.011000037E0,1.455468032E0
8.251732060E-1,1.077000022E0,-1.290000081E-1,9.349500537E-1,1.432027113E0
8.271365620E-1,1.153950095E0,-1.680000126E-1,9.730500579E-1,1.518766355E0
8.291003120E-1,1.192050099E0,-1.290000081E-1,9.730500579E-1,1.544166719E0
8.310639470E-1,1.230000019E0,-1.680000126E-1,8.959500194E-1,1.530963908E0
8.330274060E-1,1.230000019E0,-1.290000081E-1,8.959500194E-1,1.527176311E0
8.349909300E-1,1.230000019E0,-1.680000126E-1,8.580000401E-1,1.509068627E0
8.369541550E-1,1.306950092E0,-1.290000081E-1,8.200500607E-1,1.548302828E0
8.389174680E-1,1.269000053E0,-1.290000081E-1,7.810500264E-1,1.495674190E0
8.408811790E-1,1.306950092E0,-1.290000081E-1,7.810500264E-1,1.528004807E0
8.428447740E-1,1.306950092E0,-1.290000081E-1,6.280500293E-1,1.455749424E0
8.448079570E-1,1.306950092E0,-1.290000081E-1,4.750500321E-1,1.396578705E0
8.467712510E-1,1.306950092E0,-9.105000645E-2,3.979500234E-1,1.369223455E0
8.487351910E-1,1.306950092E0,-9.105000645E-2,1.680000126E-1,1.320845431E0
8.506989420E-1,1.306950092E0,-1.290000081E-1,-9.900000691E-2,1.317027163E0
8.526610030E-1,1.269000053E0,-5.295000225E-2,-5.590500236E-1,1.387696569E0
8.546235590E-1,1.192050099E0,-1.500000060E-2,-1.096050024E0,1.619424001E0
8.565867240E-1,1.192050099E0,2.295000106E-2,-1.632000089E0,2.021122072E0
8.585497110E-1,1.153950095E0,2.295000106E-2,-2.130000114E0,2.422607688E0
8.605126690E-1,1.153950095E0,9.900000691E-2,-2.667000055E0,2.907626372E0
8.624756360E-1,1.077000022E0,1.380000114E-1,-3.204000235E0,3.382985450E0
8.644387310E-1,9.619500637E-1,2.530499995E-1,-3.664050102E0,3.796662400E0
8.664017880E-1,8.470500112E-1,2.910000086E-1,-4.047000408E0,4.144923043E0
8.683644980E-1,7.699500322E-1,3.289500177E-1,-4.237950325E0,4.319867373E0
8.703272850E-1,5.790000558E-1,4.060500264E-1,-4.200000286E0,4.259121986E0
8.722895560E-1,5.410500169E-1,4.830000103E-1,-4.047000408E0,4.111476187E0
8.742519780E-1,5.410500169E-1,5.590500236E-1,-3.702000141E0,3.782866254E0
8.762151660E-1,3.870000243E-1,5.590500236E-1,-3.357000113E0,3.425165062E0
8.781781300E-1,3.109500110E-1,5.980500579E-1,-2.974050045E0,3.049479866E0
8.801413510E-1,2.340000123E-1,5.980500579E-1,-2.629050016E0,2.706348807E0
8.821045040E-1,1.570500135E-1,6.739500165E-1,-2.475000143E0,2.569921991E0
8.840677480E-1,8.100000024E-2,7.129500508E-1,-2.322000027E0,2.430338022E0
8.860309660E-1,4.050000105E-3,7.890000343E-1,-2.245050192E0,2.379661283E0
8.879944240E-1,-7.200000435E-2,7.510500550E-1,-2.169000149E0,2.296480314E0
8.899578120E-1,-1.870500147E-1,8.280000687E-1,-2.169000149E0,2.329191591E0
8.919207920E-1,-2.250000089E-1,8.659500480E-1,-2.092050076E0,2.275339097E0
8.938838910E-1,-3.400500119E-1,9.040500522E-1,-2.014950037E0,2.234494162E0
8.958466480E-1,-4.930500090E-1,9.040500522E-1,-2.053950071E0,2.297632630E0
8.978095060E-1,-6.079500318E-1,9.810000658E-1,-2.053950071E0,2.355987111E0
8.997725740E-1,-7.230000496E-1,1.018950105E0,-2.053950071E0,2.404100514E0
9.017355810E-1,-8.770500422E-1,1.018950105E0,-2.206950188E0,2.584203015E0
9.036985510E-1,-9.919500351E-1,1.057950020E0,-2.359950066E0,2.769943579E0
9.056615210E-1,-1.068000078E0,1.018950105E0,-2.437050104E0,2.849227385E0
9.076245700E-1,-1.222050071E0,9.040500522E-1,-2.437050104E0,2.872268456E0
9.095875960E-1,-1.297950029E0,7.510500550E-1,-2.475000143E0,2.893851443E0
9.115507270E-1,-1.297950029E0,5.209500194E-1,-2.437050104E0,2.809853450E0
9.135138270E-1,-1.183050036E0,1.380000114E-1,-2.359950066E0,2.643485522E0
9.154779500E-1,-1.106999993E0,-1.680000126E-1,-2.206950188E0,2.474732737E0
9.174417640E-1,-9.529500604E-1,-5.509500504E-1,-2.092050076E0,2.363965586E0
9.194045800E-1,-6.850500107E-1,-1.164000034E0,-2.053950071E0,2.458231172E0
9.213676890E-1,-3.780000210E-1,-1.777950048E0,-2.169000149E0,2.829938522E0
9.233316160E-1,1.570500135E-1,-2.506050110E0,-2.359950066E0,3.445912966E0
9.252953030E-1,6.169500351E-1,-3.234000206E0,-2.704950094E0,4.261002193E0
9.272584460E-1,1.039050102E0,-4.000950336E0,-2.974050045E0,5.092367070E0
9.292217560E-1,1.192050099E0,-4.651950359E0,-3.165000200E0,5.751421724E0
9.311851970E-1,1.269000053E0,-5.227050304E0,-2.935050249E0,6.127555466E0
9.331486000E-1,1.230000019E0,-5.686950207E0,-2.359950066E0,6.278826882E0
9.351115770E-1,1.230000019E0,-6.070050240E0,-1.594050050E0,6.395264304E0
9.370746790E-1,1.077000022E0,-6.415050507E0,-6.739500165E-1,6.539649125E0
9.390366910E-1,9.619500637E-1,-6.874950409E0,-6.105000153E-2,6.942191164E0
9.409990400E-1,8.850000501E-1,-7.450050354E0,6.660000086E-1,7.531934106E0
9.429612950E-1,6.550500393E-1,-8.370000839E0,1.471050024E0,8.523496511E0
9.449235780E-1,1.960500032E-1,-9.481050491E0,1.930950046E0,9.677671316E0
9.468873760E-1,-7.200000435E-2,-1.063095093E1,2.620950222E0,1.094950600E1
9.488507300E-1,-6.469500065E-1,-1.201095104E1,3.502950191E0,1.252805449E1
9.508140760E-1,-1.642950058E0,-1.381200027E1,3.963000298E0,1.446291837E1
9.527774240E-1,-2.908050060E0,-1.630395126E1,4.345950127E0,1.712199943E1
9.547406350E-1,-4.134000301E0,-1.936995125E1,4.768050194E0,2.037202181E1
9.567038860E-1,-5.553000450E0,-2.289600182E1,4.690950394E0,2.402223405E1
9.586667980E-1,-7.047000408E0,-2.680500221E1,4.806000233E0,2.812945070E1
9.606298090E-1,-8.350950241E0,-3.090705109E1,4.882050037E0,3.238546880E1
9.625929150E-1,-9.424050331E0,-3.531405258E1,5.266050339E0,3.692731131E1
9.645559800E-1,-1.038195038E1,-3.972195053E1,5.686950207E0,4.144827681E1
9.665194190E-1,-1.091805077E1,-4.447500229E1,5.841000080E0,4.616651322E1
9.684827490E-1,-1.118700027E1,-4.915005112E1,5.725950241E0,5.073128232E1
9.704462780E-1,-1.130205059E1,-5.355795288E1,5.304000378E0,5.499384588E1
9.724097490E-1,-1.107195091E1,-5.785095215E1,3.579000235E0,5.900957553E1
9.743737200E-1,-9.577050209E0,-6.175995255E1,5.509500504E-1,6.250052140E1
9.763375330E-1,-6.586950302E0,-6.471105194E1,-4.047000408E0,6.517120814E1
9.783013410E-1,-2.140950203E0,-6.636000061E1,-8.683950424E0,6.696002049E1
9.802651510E-1,3.108000040E0,-6.666600037E1,-1.155900097E1,6.773201438E1
9.822281020E-1,8.436000824E0,-6.639795685E1,-1.405005074E1,6.839048698E1
9.841913050E-1,1.261395073E1,-6.547800446E1,-1.485495090E1,6.831654548E1
9.861543940E-1,1.556505108E1,-6.363795471E1,-1.359000111E1,6.690850637E1
9.881174930E-1,1.740495110E1,-6.053400421E1,-1.102200031E1,6.394358826E1
9.900807450E-1,1.752000046E1,-5.589600372E1,-7.918050289E0,5.911014438E1
9.920439520E-1,1.744305038E1,-5.072205353E1,-5.082000256E0,5.387776394E1
9.940072320E-1,1.652295113E1,-4.531800079E1,-2.437050104E0,4.829770515E1
9.959704910E-1,1.453005028E1,-3.995205307E1,-6.360000372E-1,4.251697780E1
9.979329770E-1,1.203900051E1,-3.512295151E1,3.220500052E-1,3.713035109E1
9.998957030E-1,9.661950111E0,-3.106005096E1,1.165050030E0,3.254899979E1
1.001858974E0,7.861050606E0,-2.799405098E1,1.432950020E0,2.911213411E1
1.003822086E0,5.905950069E0,-2.550195122E1,1.356000066E0,2.621199150E1
1.005786238E0,3.760050297E0,-2.370105171E1,8.200500607E-1,2.401146211E1
1.007750086E0,1.459950089E0,-2.239800072E1,2.070000172E-1,2.244648613E1
1.009712161E0,-4.930500090E-1,-2.167005157E1,-2.140500098E-1,2.167671679E1
1.011674766E0,-2.448000193E0,-2.132505035E1,-3.670500219E-1,2.146823708E1
1.013637878E0,-4.288050175E0,-2.147805023E1,-4.440000355E-1,2.190641806E1
1.015600841E0,-5.668050289E0,-2.201505089E1,-4.060500264E-1,2.273662544E1
1.017564118E0,-6.433950424E0,-2.281905174E1,-5.590500236E-1,2.371534055E1
1.019527303E0,-6.549000263E0,-2.373900032E1,-5.970000029E-1,2.463302559E1
1.021490427E0,-6.166050434E0,-2.442900085E1,-4.819500148E-1,2.519977255E1
1.023453555E0,-5.553000450E0,-2.511900139E1,-2.520000041E-1,2.572670886E1
1.025415902E0,-4.900950432E0,-2.557905197E1,9.195000678E-2,2.604449404E1
1.027378478E0,-4.402950287E0,-2.584695053E1,6.660000086E-1,2.622774064E1
1.029341820E0,-4.249050140E0,-2.596200180E1,1.203000069E0,2.633490410E1
1.031304937E0,-4.210950375E0,-2.600100136E1,1.585950017E0,2.638748590E1
1.033267979E0,-4.288050175E0,-2.577105141E1,2.085000038E0,2.620842784E1
1.035231064E0,-4.326000214E0,-2.542605209E1,2.773950100E0,2.594018508E1
1.037194319E0,-4.173000336E0,-2.515695190E1,3.502950191E0,2.574017912E1
1.039157524E0,-4.018949986E0,-2.462100029E1,4.192950249E0,2.529676750E1
1.041120715E0,-4.134000301E0,-2.404605103E1,4.576050282E0,2.482423744E1
1.043083910E0,-4.018949986E0,-2.350905037E1,4.921050072E0,2.435249766E1
1.045047003E0,-4.096050262E0,-2.285805130E1,5.035950184E0,2.376192188E1
1.047010132E0,-4.096050262E0,-2.220600128E1,5.074050426E0,2.314368399E1
1.048973200E0,-4.210950375E0,-2.159295082E1,5.112000465E0,2.258584019E1
1.050936286E0,-4.134000301E0,-2.098005104E1,5.112000465E0,2.198601940E1
1.052899316E0,-3.981000185E0,-2.032800102E1,5.112000465E0,2.133561663E1
1.054862363E0,-3.790050268E0,-1.979205132E1,5.074050426E0,2.078065841E1
1.056825649E0,-3.636000156E0,-1.929300117E1,4.882050037E0,2.023054137E1
1.058788879E0,-3.330000162E0,-1.887195015E1,4.653000355E0,1.972028945E1
1.060752066E0,-3.100050211E0,-1.845000076E1,4.537950039E0,1.925112542E1
1.062715266E0,-2.869950056E0,-1.806705093E1,4.423050404E0,1.882068855E1
1.064678546E0,-2.601000071E0,-1.768395042E1,4.308000088E0,1.838603189E1
1.066641802E0,-2.332950115E0,-1.733895111E1,4.269000053E0,1.800850475E1
1.068605195E0,-2.103000164E0,-1.687905121E1,4.192950249E0,1.751872744E1
1.070568558E0,-1.987950087E0,-1.645695114E1,4.078050137E0,1.707084296E1
1.072531542E0,-1.834950089E0,-1.607400131E1,4.000950336E0,1.666577822E1
1.074494637E0,-1.758000135E0,-1.569000053E1,3.886050224E0,1.625939936E1
1.076457935E0,-1.720050097E0,-1.530705070E1,3.579000235E0,1.581371608E1
1.078421173E0,-1.720050097E0,-1.500105095E1,3.310950041E0,1.545808824E1
1.080384223E0,-1.758000135E0,-1.465605068E1,3.157950163E0,1.509513283E1
1.082347329E0,-1.642950058E0,-1.423395061E1,3.043050051E0,1.464803020E1
1.084310175E0,-1.681950092E0,-1.377405071E1,2.965950251E0,1.418979528E1
1.086273098E0,-1.567050099E0,-1.335300064E1,2.851050138E0,1.374360793E1
1.088236200E0,-1.452000022E0,-1.296900082E1,2.736000061E0,1.333375351E1
1.090199250E0,-1.336950064E0,-1.243305016E1,2.659050226E0,1.278431538E1
1.092162521E0,-1.222050071E0,-1.185795021E1,2.506050110E0,1.218132492E1
1.094125720E0,-1.030050039E0,-1.143600082E1,2.275950193E0,1.170568525E1
1.096089182E0,-7.620000243E-1,-1.093800068E1,2.008050203E0,1.114687259E1
1.098052567E0,-4.930500090E-1,-1.044000053E1,1.777950048E0,1.060178362E1
1.100015907E0,-3.019500077E-1,-9.940950394E0,1.624950051E0,1.007740697E1
1.101979261E0,-1.099500060E-1,-9.405000687E0,1.471050024E0,9.519985036E0
1.103942443E0,8.100000024E-2,-8.944950104E0,1.279950023E0,9.036424371E0
1.105905695E0,1.960500032E-1,-8.523000717E0,1.087950110E0,8.594394235E0
1.107868966E0,3.109500110E-1,-7.987050533E0,7.810500264E-1,8.031170853E0
1.109832231E0,3.490500152E-1,-7.488000393E0,3.979500234E-1,7.506687020E0
1.111796898E0,4.639500082E-1,-6.990000248E0,-2.205000073E-2,7.005414997E0
1.113761154E0,6.550500393E-1,-6.607050419E0,-3.289500177E-1,6.647587074E0
1.115724364E0,8.470500112E-1,-6.184950352E0,-8.269500136E-1,6.297217711E0
1.117687867E0,9.240000248E-1,-5.802000046E0,-1.171950102E0,5.990863679E0
1.119650871E0,1.039050102E0,-5.457000256E0,-1.516950130E0,5.758438556E0
1.121614021E0,1.153950095E0,-5.074050426E0,-1.786050081E0,5.501596445E0
1.123577310E0,1.230000019E0,-4.614000320E0,-2.092050076E0,5.213307254E0
1.125540558E0,1.306950092E0,-4.269000053E0,-2.284050226E0,5.014914300E0
1.127503576E0,1.345050097E0,-3.847050190E0,-2.359950066E0,4.709386291E0
1.129466651E0,1.422000051E0,-3.541050196E0,-2.398950100E0,4.507336488E0
1.131429772E0,1.498950124E0,-3.196050167E0,-2.322000027E0,4.225313275E0
1.133392879E0,1.614000082E0,-2.851050138E0,-2.284050226E0,3.993791256E0
1.135355952E0,1.651950121E0,-2.581950188E0,-2.169000149E0,3.754992359E0
1.137319035E0,1.690050125E0,-2.351999998E0,-2.053950071E0,3.550617455E0
1.139282046E0,1.729050040E0,-2.161050081E0,-1.861950040E0,3.335657274E0
1.141245092E0,1.690050125E0,-1.969050050E0,-1.671000123E0,3.086368244E0
1.143208218E0,1.690050125E0,-1.777950048E0,-1.516950130E0,2.884183333E0
1.145171321E0,1.690050125E0,-1.663050056E0,-1.249050021E0,2.679949788E0
1.147134709E0,1.651950121E0,-1.548000097E0,-1.096050024E0,2.515267214E0
1.149098013E0,1.614000082E0,-1.471050024E0,-8.269500136E-1,2.335129710E0
1.151061233E0,1.575000048E0,-1.356000066E0,-6.360000372E-1,2.173443668E0
1.153024477E0,1.498950124E0,-1.279050112E0,-3.670500219E-1,2.004381795E0
1.154987930E0,1.422000051E0,-1.126049995E0,-1.759500057E-1,1.822369650E0
1.156951321E0,1.422000051E0,-1.048950076E0,-9.900000691E-2,1.769796996E0
1.158914300E0,1.345050097E0,-9.340500236E-1,1.500000060E-2,1.637630669E0
1.160877400E0,1.306950092E0,-8.190000653E-1,9.195000678E-2,1.545100144E0
1.162840671E0,1.269000053E0,-6.660000086E-1,5.295000225E-2,1.434127208E0
1.164803879E0,1.306950092E0,-5.509500504E-1,9.195000678E-2,1.421309011E0
1.166766979E0,1.230000019E0,-4.360500276E-1,9.195000678E-2,1.308240986E0
1.168730111E0,1.230000019E0,-3.210000098E-1,-6.105000153E-2,1.272661839E0
1.170693313E0,1.153950095E0,-2.059500068E-1,-2.520000041E-1,1.198966317E0
1.172656494E0,1.077000022E0,-1.290000081E-1,-5.209500194E-1,1.203311669E0
1.174618679E0,1.039050102E0,-1.500000060E-2,-8.269500136E-1,1.328042334E0
1.176581169E0,9.240000248E-1,1.380000114E-1,-1.210950017E0,1.529450879E0
1.178544481E0,8.850000501E-1,3.289500177E-1,-1.671000123E0,1.919290133E0
1.180507552E0,8.089500666E-1,5.590500236E-1,-2.092050076E0,2.311625112E0
1.182470496E0,7.320000529E-1,7.129500508E-1,-2.667000055E0,2.856048170E0
1.184433477E0,6.169500351E-1,9.810000658E-1,-3.357000113E0,3.551399475E0
1.186396894E0,6.550500393E-1,1.210950017E0,-4.162050247E0,4.383851361E0
1.188360176E0,5.790000558E-1,1.326000094E0,-5.043000221E0,5.246462479E0
1.190323578E0,6.169500351E-1,1.555950046E0,-6.001950264E0,6.230972224E0
1.192286945E0,5.790000558E-1,1.747950077E0,-6.921000481E0,7.161760830E0
1.194250333E0,6.940500140E-1,1.900950074E0,-7.879950523E0,8.135658354E0
1.196213715E0,8.850000501E-1,1.978050113E0,-8.683950424E0,8.950245936E0
1.198176610E0,1.192050099E0,2.016000032E0,-9.183000565E0,9.476958317E0
1.200139645E0,1.498950124E0,2.016000032E0,-9.451050758E0,9.779236578E0
1.202103043E0,1.959000111E0,1.863000035E0,-9.412950516E0,9.793471702E0
1.204066335E0,2.380050182E0,1.671000123E0,-9.183000565E0,9.632464879E0
1.206029602E0,2.802000046E0,1.479000092E0,-8.646000862E0,9.208255885E0
1.207992876E0,3.262050152E0,1.249050021E0,-8.032950401E0,8.759531340E0
1.209956233E0,3.568050146E0,1.057950020E0,-7.305000305E0,8.198369932E0
1.211919566E0,3.913050175E0,7.129500508E-1,-6.615000248E0,7.718710237E0
1.213882825E0,4.182000160E0,3.289500177E-1,-5.925000191E0,7.259680483E0
1.215846106E0,4.488000393E0,-1.500000060E-2,-5.197050095E0,6.866709708E0
1.217810364E0,4.680000305E0,-2.440500110E-1,-4.468050003E0,6.474985258E0
1.219774335E0,4.948050022E0,-5.509500504E-1,-3.855000257E0,6.296647677E0
1.221737615E0,5.101050377E0,-8.959500194E-1,-3.204000235E0,6.090078726E0
1.223701101E0,5.254950047E0,-1.203000069E0,-2.629050016E0,5.997800692E0
1.225663972E0,5.407950401E0,-1.471050024E0,-2.014950037E0,5.955664477E0
1.227627024E0,5.485050201E0,-1.585950017E0,-1.441050053E0,5.888772234E0
1.229590285E0,5.523000240E0,-1.816050053E0,-9.810000658E-1,5.896094519E0
1.231553484E0,5.599950314E0,-1.969050050E0,-5.590500236E-1,5.962309833E0
1.233516736E0,5.715000153E0,-2.122950077E0,-1.759500057E-1,6.099106671E0
1.235479961E0,5.715000153E0,-2.161050081E0,1.300500035E-1,6.111323687E0
1.237442293E0,5.715000153E0,-2.314050198E0,3.220500052E-1,6.174121093E0
1.239404886E0,5.791050434E0,-2.391000032E0,5.130000114E-1,6.286200386E0
1.241368541E0,5.599950314E0,-2.428950071E0,7.050000429E-1,6.144612846E0
1.243331884E0,5.523000240E0,-2.467050076E0,8.200500607E-1,6.104289462E0
1.245295326E0,5.407950401E0,-2.467050076E0,9.349500537E-1,6.017175020E0
1.247258735E0,5.215950012E0,-2.351999998E0,1.011000037E0,5.810349352E0
1.249222251E0,4.948050022E0,-2.275950193E0,9.730500579E-1,5.532628193E0
1.251185735E0,4.795050144E0,-2.199000120E0,1.087950110E0,5.386254994E0
1.253148608E0,4.564949989E0,-2.083950043E0,1.240950108E0,5.169291378E0
1.255111660E0,4.297049999E0,-1.969050050E0,1.432950020E0,4.939143909E0
1.257074953E0,4.066950321E0,-1.893000126E0,1.510050058E0,4.733263733E0
1.259038152E0,3.798000097E0,-1.777950048E0,1.663050056E0,4.511279929E0
1.261001569E0,3.529950142E0,-1.663050056E0,2.008050203E0,4.388456347E0
1.262964922E0,3.300000191E0,-1.585950017E0,2.314950228E0,4.331770224E0
1.264928268E0,3.147000074E0,-1.548000097E0,2.620950222E0,4.378275212E0
1.266891616E0,2.955000162E0,-1.471050024E0,2.889000177E0,4.386608731E0
1.268854632E0,2.725050211E0,-1.432950020E0,3.157950163E0,4.410430097E0
1.270817756E0,2.533950090E0,-1.356000066E0,3.388050079E0,4.442805710E0
1.272780870E0,2.341950178E0,-1.240950108E0,3.502950191E0,4.392647021E0
1.274743987E0,2.111999989E0,-1.126049995E0,3.579000235E0,4.305551675E0
1.276707416E0,1.843950033E0,-9.730500579E-1,3.579000235E0,4.142006859E0
1.278670754E0,1.575000048E0,-8.580000401E-1,3.502950191E0,3.935409669E0
1.280634077E0,1.345050097E0,-7.429500222E-1,3.388050079E0,3.720217445E0
1.282597422E0,1.269000053E0,-7.039500475E-1,3.310950041E0,3.615009955E0
1.284560635E0,1.153950095E0,-6.660000086E-1,3.196050167E0,3.462642561E0
1.286523886E0,9.240000248E-1,-6.280500293E-1,3.118950129E0,3.313015664E0
1.288486933E0,7.699500322E-1,-5.509500504E-1,3.004050255E0,3.149712200E0
1.290450040E0,5.790000558E-1,-5.130000114E-1,2.928000212E0,3.028464184E0
1.292412264E0,4.639500082E-1,-5.130000114E-1,2.812950134E0,2.896740768E0
1.294374741E0,4.260000288E-1,-5.509500504E-1,2.620950222E0,2.711900081E0
1.296337739E0,3.109500110E-1,-5.130000114E-1,2.391000032E0,2.465104476E0
1.298300585E0,1.570500135E-1,-5.130000114E-1,2.200050116E0,2.264520751E0
1.300263837E0,1.570500135E-1,-4.740000367E-1,1.930950046E0,1.994469559E0
1.302226970E0,1.189500093E-1,-3.979500234E-1,1.701000094E0,1.750975342E0
1.304190051E0,8.100000024E-2,-3.589500189E-1,1.510050058E0,1.554238494E0
1.306153170E0,4.200000316E-2,-3.589500189E-1,1.432950020E0,1.477820989E0
1.308116239E0,4.200000316E-2,-3.589500189E-1,1.279950023E0,1.329992924E0
1.310079323E0,8.100000024E-2,-2.440500110E-1,1.318050027E0,1.342898835E0
1.312042354E0,1.570500135E-1,-2.059500068E-1,1.165050030E0,1.193491384E0
1.314005400E0,1.189500093E-1,-2.059500068E-1,1.011000037E0,1.038597894E0
1.315968666E0,1.570500135E-1,-1.680000126E-1,9.730500579E-1,9.998575529E-1
1.317931864E0,1.960500032E-1,-1.680000126E-1,7.810500264E-1,8.226170140E-1
1.319894786E0,1.960500032E-1,-1.290000081E-1,7.810500264E-1,8.155462891E-1
1.321857789E0,2.340000123E-1,-9.105000645E-2,7.810500264E-1,8.204177309E-1
1.323820293E0,1.570500135E-1,-5.295000225E-2,8.580000401E-1,8.738606744E-1
1.325782943E0,1.960500032E-1,6.105000153E-2,7.050000429E-1,7.342940603E-1
1.327746333E0,2.340000123E-1,6.105000153E-2,7.429500222E-1,7.813180172E-1
1.329709495E0,2.719500065E-1,1.380000114E-1,7.810500264E-1,8.384747778E-1
1.331672738E0,3.109500110E-1,1.759500057E-1,8.580000401E-1,9.294150755E-1
1.333635957E0,3.490500152E-1,1.380000114E-1,9.730500579E-1,1.042931604E0
1.335599011E0,4.639500082E-1,1.380000114E-1,9.730500579E-1,1.086793462E0
1.337562113E0,4.639500082E-1,1.380000114E-1,1.126049995E0,1.225676224E0
1.339525706E0,5.410500169E-1,1.380000114E-1,1.203000069E0,1.326268558E0
1.341489169E0,6.169500351E-1,2.140500098E-1,1.203000069E0,1.368814786E0
1.343452180E0,6.550500393E-1,2.140500098E-1,1.165050030E0,1.353606122E0
1.345415324E0,6.550500393E-1,3.289500177E-1,1.165050030E0,1.376459313E0
1.347378164E0,6.550500393E-1,3.679500222E-1,1.203000069E0,1.418339500E0
1.349341094E0,5.790000558E-1,4.830000103E-1,1.203000069E0,1.419767319E0
1.351303475E0,5.020500422E-1,4.830000103E-1,1.203000069E0,1.390162731E0
1.353266017E0,5.020500422E-1,5.209500194E-1,1.203000069E0,1.403799249E0
1.355229004E0,3.490500152E-1,5.209500194E-1,1.240950108E0,1.390389156E0
1.357191861E0,3.109500110E-1,6.360000372E-1,1.318050027E0,1.496142316E0
1.359155156E0,2.340000123E-1,7.510500550E-1,1.240950108E0,1.469281920E0
1.361118323E0,1.189500093E-1,6.739500165E-1,1.318050027E0,1.485130837E0
1.363081036E0,8.100000024E-2,7.129500508E-1,1.240950108E0,1.433462921E0
1.365043906E0,8.100000024E-2,7.129500508E-1,1.279950023E0,1.467355048E0
1.367007333E0,4.050000105E-3,6.739500165E-1,1.395000100E0,1.549274122E0
1.368970596E0,-7.200000435E-2,6.739500165E-1,1.356000066E0,1.515958048E0
1.370933687E0,-3.299999982E-2,6.360000372E-1,1.356000066E0,1.498105879E0
1.372896829E0,-3.299999982E-2,5.980500579E-1,1.395000100E0,1.518149581E0
1.374860084E0,4.050000105E-3,5.980500579E-1,1.432950020E0,1.552747898E0
1.376823299E0,4.200000316E-2,5.590500236E-1,1.471050024E0,1.574258271E0
1.378786488E0,8.100000024E-2,4.830000103E-1,1.471050024E0,1.550431612E0
1.380749685E0,4.200000316E-2,5.209500194E-1,1.471050024E0,1.561134554E0
1.382712741E0,4.050000105E-3,4.440000355E-1,1.510050058E0,1.573977005E0
1.384675839E0,-7.200000435E-2,3.289500177E-1,1.510050058E0,1.547140360E0
1.386638921E0,-3.299999982E-2,1.759500057E-1,1.510050058E0,1.520624406E0
1.388602002E0,-1.480500102E-1,6.105000153E-2,1.510050058E0,1.518518056E0
1.390565978E0,-2.250000089E-1,-9.105000645E-2,1.510050058E0,1.529433322E0
1.392529692E0,-3.019500077E-1,-1.680000126E-1,1.471050024E0,1.511087683E0
1.394492525E0,-3.400500119E-1,-2.830500007E-1,1.471050024E0,1.536144357E0
1.396455617E0,-3.780000210E-1,-5.130000114E-1,1.395000100E0,1.533648691E0
1.398418497E0,-4.170000255E-1,-8.190000653E-1,1.356000066E0,1.638104486E0
1.400381449E0,-4.549500346E-1,-1.048950076E0,1.356000066E0,1.773700080E0
1.402344727E0,-4.930500090E-1,-1.318050027E0,1.318050027E0,1.928110489E0
1.404307909E0,-4.930500090E-1,-1.624050021E0,1.279950023E0,2.125772529E0
1.406271103E0,-6.079500318E-1,-2.046000004E0,1.318050027E0,2.508580302E0
1.408234294E0,-8.770500422E-1,-2.773950100E0,9.730500579E-1,3.067709626E0
1.410198252E0,-1.336950064E0,-4.000950336E0,1.500000060E-2,4.218443323E0
1.412161986E0,-1.987950087E0,-5.649000168E0,-1.134000063E0,6.095006529E0
1.414125131E0,-3.100050211E0,-7.987050533E0,-2.743950129E0,8.996251988E0
1.416088449E0,-4.363950253E0,-1.074600029E1,-5.119950294E0,1.267811007E1
1.418051710E0,-5.514000416E0,-1.373595047E1,-8.224950790E0,1.693311405E1
1.420014988E0,-6.817050457E0,-1.653404999E1,-1.259400082E1,2.187363350E1
1.421978390E0,-7.852050304E0,-1.898700142E1,-1.535295105E1,2.564905501E1
1.423941755E0,-8.695050240E0,-2.121000099E1,-1.566000080E1,2.776155013E1
1.425905099E0,-9.844950676E0,-2.347095108E1,-1.554495049E1,2.982371680E1
1.427868450E0,-1.103295040E1,-2.580900192E1,-1.485495090E1,3.175689124E1
1.429831660E0,-1.203000069E1,-2.830005074E1,-1.336005020E1,3.352767110E1
1.431794911E0,-1.291095066E1,-3.063795090E1,-1.129095078E1,3.511213824E1
1.433758183E0,-1.341000080E1,-3.313005066E1,-9.144000053E0,3.689229073E1
1.435721448E0,-1.360095024E1,-3.592695236E1,-7.228050232E0,3.908933951E1
1.437684674E0,-1.348605061E1,-3.880200195E1,-4.582950115E0,4.133367088E1
1.439647911E0,-1.314105034E1,-4.137000275E1,-2.245050192E0,4.346498110E1
1.441611141E0,-1.260495090E1,-4.382295227E1,-9.040500522E-1,4.560869697E1
1.443574373E0,-1.210695076E1,-4.596900177E1,-9.900000691E-2,4.753669300E1
1.445536697E0,-1.145505047E1,-4.800105286E1,6.660000086E-1,4.935344783E1
1.447499291E0,-1.018995094E1,-5.026200104E1,8.580000401E-1,5.129171485E1
1.449463306E0,-8.656949997E0,-5.233200073E1,7.050000429E-1,5.304788506E1
1.451426904E0,-6.778950214E0,-5.386500168E1,9.195000678E-2,5.428997169E1
1.453389893E0,-4.708950043E0,-5.482305145E1,-6.360000372E-1,5.502858963E1
1.455353060E0,-2.256000042E0,-5.501505280E1,-1.441050053E0,5.508014339E1
1.457316837E0,3.109500110E-1,-5.467005157E1,-1.939050078E0,5.470531185E1
1.459280438E0,2.764050245E0,-5.378805161E1,-1.977000117E0,5.389529663E1
1.461243291E0,4.258049965E0,-5.141205215E1,-1.287000060E0,5.160413225E1
1.463206363E0,4.987050056E0,-4.796205139E1,-9.040500522E-1,4.822910271E1
1.465169440E0,4.795050144E0,-4.393800354E1,-1.057050109E0,4.421151452E1
1.467132515E0,4.527000427E0,-4.037295151E1,-1.018950105E0,4.063874021E1
1.469095732E0,5.178000450E0,-3.776700211E1,-5.590500236E-1,3.812441047E1
1.471058904E0,5.983050346E0,-3.588899994E1,9.195000678E-2,3.638441511E1
1.473021966E0,7.056000233E0,-3.435600281E1,2.449500114E-1,3.507395143E1
1.474985060E0,7.438950539E0,-3.289995193E1,1.300500035E-1,3.373072391E1
1.476947999E0,8.091000557E0,-3.182595062E1,-1.096050024E0,3.285660890E1
1.478910983E0,8.167950630E0,-3.094500160E1,-2.359950066E0,3.209171086E1
1.480874250E0,8.128950119E0,-2.994795227E1,-2.935050249E0,3.117008494E1
1.482837438E0,7.899000168E0,-2.910495186E1,-2.935050249E0,3.030027964E1
1.484800452E0,7.285950184E0,-2.849205208E1,-2.704950094E0,2.953301300E1
1.486763517E0,6.060000420E0,-2.787900162E1,-2.245050192E0,2.861822123E1
1.488726280E0,4.795050144E0,-2.737995148E1,-1.594050050E0,2.784232829E1
1.490689132E0,3.529950142E0,-2.699700165E1,-7.890000343E-1,2.723822988E1
1.492651306E0,2.572050095E0,-2.676705170E1,1.680000126E-1,2.689086689E1
1.494613675E0,1.959000111E0,-2.649900055E1,1.050000072E0,2.659205166E1
1.496576738E0,1.537050128E0,-2.626905060E1,1.471050024E0,2.635506651E1
1.498539597E0,1.306950092E0,-2.623095131E1,1.663050056E0,2.631609129E1
1.500502711E0,1.269000053E0,-2.626905060E1,1.969950080E0,2.637335936E1
1.502465750E0,1.306950092E0,-2.642205048E1,2.008050203E0,2.653045675E1
1.504428784E0,1.498950124E0,-2.680500221E1,1.624950051E0,2.689601193E1
1.506391823E0,1.690050125E0,-2.707395172E1,1.395000100E0,2.716249540E1
1.508354727E0,1.996950150E0,-2.726505089E1,1.240950108E0,2.736623407E1
1.510317670E0,2.188950062E0,-2.730405045E1,1.165050030E0,2.741641871E1
1.512280590E0,2.111999989E0,-2.711205101E1,1.240950108E0,2.722248723E1
1.514243517E0,2.074050188E0,-2.676705170E1,1.318050027E0,2.687962047E1
1.516206488E0,1.920000076E0,-2.642205048E1,1.395000100E0,2.652842206E1
1.518169443E0,1.690050125E0,-2.592405128E1,1.471050024E0,2.602069739E1
1.520132721E0,1.459950089E0,-2.511900139E1,1.585950017E0,2.521132528E1
1.522095904E0,1.269000053E0,-2.439105034E1,1.777950048E0,2.448866685E1
1.524059279E0,1.114950061E0,-2.366295052E1,1.930950046E0,2.376777038E1
1.526022597E0,8.850000501E-1,-2.297295189E1,2.161050081E0,2.309133779E1
1.527984927E0,5.410500169E-1,-2.209095192E1,2.391000032E0,2.222655558E1
1.529947536E0,1.189500093E-1,-2.117100143E1,2.506050110E0,2.131914018E1
1.531910692E0,-1.480500102E-1,-2.025105095E1,2.583000183E0,2.041565265E1
1.533873688E0,-3.780000210E-1,-1.952295113E1,2.620950222E0,1.970172289E1
1.535836959E0,-6.850500107E-1,-1.867995071E1,2.736000061E0,1.889167935E1
1.537800149E0,-1.030050039E0,-1.787505150E1,2.812950134E0,1.812432503E1
1.539763432E0,-1.260000110E0,-1.718505096E1,2.851050138E0,1.746545344E1
1.541726688E0,-1.605000019E0,-1.649505043E1,2.851050138E0,1.681639678E1
1.543689870E0,-1.720050097E0,-1.591995049E1,2.812950134E0,1.625780072E1
1.545653074E0,-1.873050094E0,-1.530705070E1,2.698050022E0,1.565546524E1
1.547615949E0,-1.950000048E0,-1.484700108E1,2.583000183E0,1.519565172E1
1.549578920E0,-2.026050091E0,-1.427205086E1,2.430000067E0,1.461852301E1
1.551541724E0,-2.103000164E0,-1.381200027E1,2.275950193E0,1.415534919E1
1.553504560E0,-2.103000164E0,-1.342905045E1,2.238000154E0,1.377572685E1
1.555467452E0,-2.218050003E0,-1.304595089E1,2.161050081E0,1.340845695E1
1.557430327E0,-2.295000076E0,-1.266300106E1,2.008050203E0,1.302501005E1
1.559393484E0,-2.256000042E0,-1.235595036E1,1.777950048E0,1.268543069E1
1.561356558E0,-2.179949999E0,-1.197300053E1,1.510050058E0,1.226316333E1
1.563319396E0,-2.103000164E0,-1.166595078E1,1.471050024E0,1.194491546E1
1.565282314E0,-1.950000048E0,-1.132095051E1,1.318050027E0,1.156303059E1
1.567245417E0,-1.795950055E0,-1.101495075E1,1.087950110E0,1.121330514E1
1.569208466E0,-1.720050097E0,-1.074600029E1,8.580000401E-1,1.091655892E1
1.571171593E0,-1.528050065E0,-1.044000053E1,6.660000086E-1,1.057223270E1
1.573134697E0,-1.260000110E0,-1.009500027E1,4.360500276E-1,1.018267010E1
1.575098095E0,-1.030050039E0,-9.787950516E0,1.680000126E-1,9.843434481E0
1.577061399E0,-8.770500422E-1,-9.481050491E0,-9.900000691E-2,9.522044749E0
1.579024303E0,-6.469500065E-1,-9.136050224E0,-4.440000355E-1,9.169683421E0
1.580987324E0,-3.400500119E-1,-8.868000031E0,-8.659500480E-1,8.916665747E0
1.582949870E0,-1.480500102E-1,-8.562000275E0,-1.134000063E0,8.638039341E0
1.584912555E0,-3.299999982E-2,-8.178000450E0,-1.441050053E0,8.304059587E0
1.586875833E0,2.340000123E-1,-7.717950344E0,-1.747050047E0,7.916672116E0
1.588838937E0,5.020500422E-1,-7.297050476E0,-2.014950037E0,7.586766343E0
1.590802235E0,7.699500322E-1,-6.990000248E0,-2.284050226E0,7.393903702E0
1.592765476E0,1.114950061E0,-6.607050419E0,-2.475000143E0,7.142958392E0
1.594728120E0,1.230000019E0,-6.223950386E0,-2.667000055E0,6.882103439E0
1.596690939E0,1.345050097E0,-5.839950085E0,-2.743950129E0,6.591163711E0
1.598653948E0,1.459950089E0,-5.419050217E0,-2.896950245E0,6.315843589E0
1.600616885E0,1.804950118E0,-5.112000465E0,-2.782050133E0,6.093455229E0
1.602579940E0,1.920000076E0,-4.767000198E0,-2.743950129E0,5.825800674E0
1.604542961E0,2.149950027E0,-4.384050369E0,-2.629050016E0,5.545636731E0
1.606505914E0,2.265000105E0,-4.153950214E0,-2.398950100E0,5.304761016E0
1.608468887E0,2.341950178E0,-3.886050224E0,-2.206950188E0,5.045467879E0
1.610431756E0,2.341950178E0,-3.655950069E0,-1.977000117E0,4.770663582E0
1.612394656E0,2.341950178E0,-3.349050045E0,-1.786050081E0,4.459914992E0
1.614357807E0,2.188950062E0,-3.081000090E0,-1.632000089E0,4.116732711E0
1.616320885E0,2.111999989E0,-2.926950216E0,-1.363950014E0,3.858489492E0
1.618283557E0,1.996950150E0,-2.773950100E0,-1.171950102E0,3.613319263E0
1.620246348E0,1.882050037E0,-2.544000149E0,-1.057050109E0,3.336375883E0
1.622209352E0,1.729050040E0,-2.314050198E0,-8.269500136E-1,3.004711082E0
1.624172283E0,1.537050128E0,-2.083950043E0,-6.739500165E-1,2.675739057E0
1.626135206E0,1.459950089E0,-1.893000126E0,-5.590500236E-1,2.455084656E0
1.628098131E0,1.384050012E0,-1.663050056E0,-5.209500194E-1,2.225470477E0
1.630061413E0,1.384050012E0,-1.471050024E0,-4.060500264E-1,2.060208541E0
1.632024591E0,1.306950092E0,-1.240950108E0,-4.440000355E-1,1.856128160E0
1.633987966E0,1.306950092E0,-9.730500579E-1,-5.209500194E-1,1.710653057E0
1.635951283E0,1.306950092E0,-8.190000653E-1,-6.360000372E-1,1.668345198E0
1.637914320E0,1.192050099E0,-5.890500546E-1,-7.120500207E-1,1.508303231E0
1.639877439E0,1.153950095E0,-3.979500234E-1,-9.040500522E-1,1.518970553E0
1.641840733E0,1.153950095E0,-2.059500068E-1,-1.134000063E0,1.630942173E0
1.643803976E0,1.192050099E0,-1.680000126E-1,-1.363950014E0,1.819221560E0
1.645766084E0,1.192050099E0,-1.290000081E-1,-1.594050050E0,1.994647839E0
1.647728521E0,1.192050099E0,2.295000106E-2,-1.861950040E0,2.210965421E0
1.649691932E0,1.153950095E0,9.900000691E-2,-2.169000149E0,2.458854097E0
1.651655058E0,1.230000019E0,1.759500057E-1,-2.551950216E0,2.838363676E0
1.653618442E0,1.153950095E0,4.440000355E-1,-2.859000206E0,3.114902732E0
1.655581750E0,1.114950061E0,6.739500165E-1,-3.204000235E0,3.458748295E0
1.657545008E0,1.039050102E0,8.280000687E-1,-3.586950064E0,3.825103919E0
1.659508285E0,1.114950061E0,8.659500480E-1,-4.009050369E0,4.250349161E0
1.661471508E0,1.114950061E0,1.018950105E0,-4.392000198E0,4.644463230E0
1.663434747E0,1.114950061E0,1.134000063E0,-4.698000431E0,4.959866715E0
1.665397976E0,1.192050099E0,1.210950017E0,-5.082000256E0,5.358554841E0
1.667361208E0,1.306950092E0,1.288050056E0,-5.427000046E0,5.728832428E0
1.669324763E0,1.345050097E0,1.288050056E0,-5.656950474E0,5.955612594E0
1.671288216E0,1.537050128E0,1.288050056E0,-5.809950352E0,6.146309391E0
1.673251094E0,1.804950118E0,1.249050021E0,-6.001950264E0,6.390725926E0
1.675214141E0,2.227050066E0,1.134000063E0,-6.117000103E0,6.607828569E0
1.677177222E0,2.380050182E0,1.057950020E0,-6.078000069E0,6.612562434E0
1.679140293E0,2.686950207E0,9.810000658E-1,-6.001950264E0,6.648719389E0
1.681103482E0,3.031950235E0,8.280000687E-1,-5.925000191E0,6.707006307E0
1.683066654E0,3.300000191E0,7.510500550E-1,-5.772000313E0,6.691043645E0
1.685029940E0,3.607050180E0,6.739500165E-1,-5.580000401E0,6.678429763E0
1.686993192E0,3.798000097E0,5.209500194E-1,-5.388000488E0,6.612619974E0
1.688956240E0,4.105050087E0,4.060500264E-1,-5.043000221E0,6.515225558E0
1.690919348E0,4.335000038E0,2.140500098E-1,-4.774950027E0,6.452766112E0
1.692883440E0,4.642050266E0,2.295000106E-2,-4.429950237E0,6.416667085E0
1.694847254E0,4.833000183E0,-9.105000645E-2,-4.084949970E0,6.328743725E0
1.696810251E0,5.025000095E0,-1.290000081E-1,-3.739950180E0,6.265340718E0
1.698773487E0,5.254950047E0,-1.680000126E-1,-3.319050074E0,6.217621522E0
1.700736537E0,5.370000362E0,-3.589500189E-1,-2.896950245E0,6.112124813E0
1.702699641E0,5.407950401E0,-4.740000367E-1,-2.475000143E0,5.966257561E0
1.704662713E0,5.407950401E0,-6.280500293E-1,-1.939050078E0,5.779298365E0
1.706625795E0,5.446050167E0,-7.810500264E-1,-1.479000092E0,5.697099511E0
1.708589050E0,5.407950401E0,-9.340500236E-1,-9.420000315E-1,5.568279900E0
1.710552254E0,5.331000328E0,-1.087950110E0,-5.590500236E-1,5.469528030E0
1.712515805E0,5.215950012E0,-1.164000034E0,-1.759500057E-1,5.347147746E0
1.714479254E0,5.025000095E0,-1.279050112E0,9.195000678E-2,5.186043767E0
1.716441539E0,4.909950256E0,-1.356000066E0,3.979500234E-1,5.109277045E0
1.718404171E0,4.795050144E0,-1.393950105E0,7.810500264E-1,5.054269673E0
1.720367323E0,4.680000305E0,-1.432950020E0,1.011000037E0,4.997786479E0
1.722330322E0,4.564949989E0,-1.432950020E0,1.165050030E0,4.924373639E0
1.724293458E0,4.411950111E0,-1.471050024E0,1.395000100E0,4.855442023E0
1.726256553E0,4.219950199E0,-1.471050024E0,1.624950051E0,4.755252940E0
1.728219942E0,4.066950321E0,-1.432950020E0,2.008050203E0,4.756647590E0
1.730183245E0,3.874950171E0,-1.471050024E0,2.391000032E0,4.784987790E0
1.732146150E0,3.645000219E0,-1.432950020E0,2.736000061E0,4.777558863E0
1.734109171E0,3.337950230E0,-1.393950105E0,2.889000177E0,4.629398520E0
1.736072256E0,3.031950235E0,-1.318050027E0,2.965950251E0,4.441490627E0
1.738035322E0,2.610000134E0,-1.203000069E0,2.965950251E0,4.129911712E0
1.739998550E0,2.304000139E0,-1.164000034E0,2.928000212E0,3.903395696E0
1.741961721E0,1.920000076E0,-1.087950110E0,2.812950134E0,3.575293581E0
1.743924828E0,1.690050125E0,-1.048950076E0,2.620950222E0,3.290280498E0
1.745887954E0,1.498950124E0,-1.011000037E0,2.506050110E0,3.090187648E0
1.747851201E0,1.345050097E0,-1.011000037E0,2.353049994E0,2.892771182E0
1.749814413E0,1.269000053E0,-1.011000037E0,2.467950106E0,2.953516537E0
1.751777264E0,1.269000053E0,-9.730500579E-1,2.430000067E0,2.908966805E0
1.753740238E0,1.230000019E0,-1.048950076E0,2.391000032E0,2.886187358E0
1.755703331E0,1.114950061E0,-9.340500236E-1,2.353049994E0,2.766298494E0
1.757666389E0,1.039050102E0,-8.959500194E-1,2.353049994E0,2.723820079E0
1.759629425E0,9.240000248E-1,-8.190000653E-1,2.391000032E0,2.690988351E0
1.761592468E0,8.089500666E-1,-7.429500222E-1,2.430000067E0,2.666697446E0
1.763555701E0,6.169500351E-1,-7.810500264E-1,2.314950228E0,2.519853378E0
1.765518899E0,6.169500351E-1,-8.959500194E-1,2.200050116E0,2.454297108E0
1.767482180E0,6.550500393E-1,-9.340500236E-1,2.085000038E0,2.376713100E0
1.769445437E0,6.550500393E-1,-8.190000653E-1,2.008050203E0,2.265417683E0
1.771408665E0,5.790000558E-1,-8.580000401E-1,1.930950046E0,2.190884116E0
1.773371901E0,5.790000558E-1,-7.810500264E-1,1.740000129E0,1.993208633E0
1.775334780E0,5.790000558E-1,-7.429500222E-1,1.624950051E0,1.878211508E0
1.777297757E0,5.790000558E-1,-6.280500293E-1,1.548000097E0,1.768047569E0
1.779260805E0,6.169500351E-1,-6.280500293E-1,1.510050058E0,1.747948902E0
1.781223832E0,6.550500393E-1,-5.130000114E-1,1.471050024E0,1.690043709E0
1.783186783E0,6.169500351E-1,-3.979500234E-1,1.395000100E0,1.576393620E0
1.785149757E0,7.320000529E-1,-3.589500189E-1,1.318050027E0,1.549814527E0
1.787112781E0,6.550500393E-1,-3.210000098E-1,1.318050027E0,1.506448616E0
1.789075808E0,7.699500322E-1,-2.830500007E-1,1.203000069E0,1.456073322E0
1.791038894E0,8.089500666E-1,-2.440500110E-1,1.203000069E0,1.470091760E0
1.793001962E0,7.699500322E-1,-1.680000126E-1,1.126049995E0,1.374421933E0
1.794964906E0,6.940500140E-1,-1.680000126E-1,1.126049995E0,1.333385923E0
1.796927887E0,5.790000558E-1,-1.290000081E-1,1.126049995E0,1.272741395E0
1.798890421E0,5.410500169E-1,-1.290000081E-1,1.087950110E0,1.221888524E0
1.800853099E0,5.410500169E-1,-9.105000645E-2,1.087950110E0,1.218466523E0
1.802815837E0,4.639500082E-1,-9.105000645E-2,1.087950110E0,1.186244139E0
1.804778558E0,4.639500082E-1,-9.105000645E-2,1.087950110E0,1.186244139E0
1.806740796E0,3.870000243E-1,-1.500000060E-2,1.087950110E0,1.154828759E0
1.808703176E0,3.109500110E-1,2.295000106E-2,1.126049995E0,1.168419960E0
1.810666235E0,2.719500065E-1,6.105000153E-2,1.126049995E0,1.160031250E0
1.812629096E0,1.960500032E-1,1.380000114E-1,1.126049995E0,1.151289798E0
1.814592210E0,1.570500135E-1,2.140500098E-1,1.165050030E0,1.194915765E0
1.816555250E0,8.100000024E-2,2.140500098E-1,1.165050030E0,1.187316293E0
1.818518333E0,4.200000316E-2,2.910000086E-1,1.203000069E0,1.238407918E0
1.820481403E0,4.050000105E-3,2.530499995E-1,1.240950108E0,1.266494325E0
1.822444672E0,-7.200000435E-2,3.289500177E-1,1.279950023E0,1.323504505E0
1.824407875E0,-1.480500102E-1,3.289500177E-1,1.318050027E0,1.366522152E0
1.826371067E0,-2.250000089E-1,3.289500177E-1,1.395000100E0,1.450813013E0
1.828334262E0,-1.870500147E-1,3.289500177E-1,1.356000066E0,1.407811067E0
1.830297183E0,-1.870500147E-1,2.910000086E-1,1.395000100E0,1.437252237E0
1.832260185E0,-2.250000089E-1,3.289500177E-1,1.432950020E0,1.487339530E0
1.834223059E0,-1.870500147E-1,4.060500264E-1,1.356000066E0,1.427795682E0
1.836185964E0,-2.250000089E-1,4.830000103E-1,1.318050027E0,1.421678546E0
1.838148889E0,-1.870500147E-1,5.980500579E-1,1.395000100E0,1.529273311E0
1.840111808E0,-2.250000089E-1,5.590500236E-1,1.395000100E0,1.519601004E0
1.842074957E0,-2.250000089E-1,5.590500236E-1,1.432950020E0,1.554512043E0
1.844038039E0,-1.099500060E-1,6.360000372E-1,1.471050024E0,1.606416267E0
1.846001651E0,-1.099500060E-1,6.360000372E-1,1.471050024E0,1.606416267E0
1.847965111E0,-7.200000435E-2,6.739500165E-1,1.471050024E0,1.619685401E0
1.849928439E0,4.050000105E-3,7.510500550E-1,1.471050024E0,1.651690274E0
1.851891805E0,4.200000316E-2,7.890000343E-1,1.471050024E0,1.669812333E0
1.853855013E0,8.100000024E-2,7.510500550E-1,1.510050058E0,1.688457392E0
1.855818267E0,1.189500093E-1,7.129500508E-1,1.510050058E0,1.674126058E0
1.857781299E0,1.960500032E-1,7.129500508E-1,1.510050058E0,1.681363898E0
1.859744406E0,2.340000123E-1,7.510500550E-1,1.510050058E0,1.702669483E0
1.861707342E0,1.960500032E-1,7.129500508E-1,1.548000097E0,1.715528397E0
1.863670329E0,2.340000123E-1,7.129500508E-1,1.548000097E0,1.720278490E0
1.865633916E0,2.340000123E-1,6.739500165E-1,1.548000097E0,1.704484946E0
1.867597327E0,1.960500032E-1,6.739500165E-1,1.548000097E0,1.699690716E0
1.869560220E0,1.570500135E-1,5.980500579E-1,1.510050058E0,1.631741327E0
1.871523228E0,1.189500093E-1,5.209500194E-1,1.471050024E0,1.565096227E0
1.873486316E0,1.189500093E-1,4.060500264E-1,1.510050058E0,1.568208184E0
1.875449380E0,4.050000105E-3,2.140500098E-1,1.471050024E0,1.486547000E0
1.877413586E0,4.050000105E-3,-1.500000060E-2,1.432950020E0,1.433034250E0
1.879377457E0,-1.480500102E-1,-1.290000081E-1,1.395000100E0,1.408753026E0
1.881340413E0,-1.870500147E-1,-3.210000098E-1,1.279950023E0,1.332779342E0
1.883303627E0,-2.250000089E-1,-5.509500504E-1,1.279950023E0,1.411539239E0
1.885266635E0,-1.870500147E-1,-7.810500264E-1,1.240950108E0,1.478169145E0
1.887229704E0,-1.480500102E-1,-1.087950110E0,1.279950023E0,1.686364821E0
1.889193007E0,-1.099500060E-1,-1.393950105E0,1.356000066E0,1.947799291E0
1.891156241E0,-1.870500147E-1,-1.624050021E0,1.432950020E0,2.173907068E0
1.893119287E0,-2.629500031E-1,-1.777950048E0,1.510050058E0,2.347445475E0
1.895082392E0,-4.549500346E-1,-2.046000004E0,1.548000097E0,2.605647684E0
1.897045284E0,-6.850500107E-1,-2.351999998E0,1.701000094E0,2.982381402E0
1.899008238E0,-9.919500351E-1,-2.773950100E0,1.855050087E0,3.481375426E0
1.900971470E0,-1.489950061E0,-3.349050045E0,1.969950080E0,4.161344819E0
1.902934620E0,-2.026050091E0,-4.039050102E0,1.969950080E0,4.929453115E0
1.904897745E0,-2.908050060E0,-4.996950150E0,1.893000126E0,6.083561081E0
1.906860867E0,-3.943050146E0,-6.262050152E0,1.969950080E0,7.657781655E0
1.908824251E0,-5.131050110E0,-7.872000217E0,1.855050087E0,9.577957688E0
1.910787558E0,-6.586950302E0,-9.865050316E0,1.548000097E0,1.196258485E1
1.912751316E0,-8.350950241E0,-1.247100067E1,1.126049995E0,1.505098722E1
1.914714942E0,-1.030500031E1,-1.611194992E1,1.300500035E-1,1.912602610E1
1.916678307E0,-1.302600098E1,-2.052000046E1,-9.040500522E-1,2.432209750E1
1.918641766E0,-1.609305000E1,-2.542605209E1,-1.632000089E0,3.013525855E1
1.920604958E0,-1.927395058E1,-3.079200172E1,-2.475000143E0,3.641096218E1
1.922568228E0,-2.203305054E1,-3.684705353E1,-4.315050125E0,4.314835254E1
1.924531227E0,-2.410305023E1,-4.321005249E1,-7.075050354E0,4.998121651E1
1.926494305E0,-2.490795135E1,-4.976400375E1,-8.875950813E0,5.635285807E1
1.928457153E0,-2.464005089E1,-5.608800125E1,-9.643050194E0,6.201600123E1
1.930420103E0,-2.318295097E1,-6.137700272E1,-1.102200031E1,6.652871688E1
1.932383065E0,-2.076900101E1,-6.574605560E1,-1.194195080E1,6.997503426E1
1.934346024E0,-1.682100105E1,-6.923400116E1,-1.186605072E1,7.222946873E1
1.936309257E0,-1.191495037E1,-7.153395081E1,-1.144395065E1,7.341686568E1
1.938272409E0,-6.319050312E0,-7.226205444E1,-1.017900085E1,7.324852877E1
1.940235893E0,-7.620000243E-1,-7.210905457E1,-8.455050468E0,7.260705388E1
1.942199269E0,3.568050146E0,-7.084395599E1,-5.848050117E0,7.117441094E1
1.944161935E0,7.018050194E0,-6.827595520E1,-3.319050074E0,6.871590195E1
1.946124809E0,8.206049919E0,-6.371505356E1,-1.759500057E-1,6.424156181E1
1.948086794E0,8.128950119E0,-5.846400452E1,2.008050203E0,5.906057839E1
1.950049040E0,6.940950394E0,-5.348205185E1,3.541050196E0,5.404669924E1
1.952012112E0,5.905950069E0,-4.960995102E1,4.843950272E0,5.019453497E1
1.953974918E0,5.407950401E0,-4.635300064E1,6.070950508E0,4.706063149E1
1.955937906E0,5.599950314E0,-4.355505371E1,6.646050453E0,4.441364806E1
1.957900841E0,6.136050224E0,-4.102500153E1,5.994000435E0,4.191216892E1
1.959863897E0,7.363050461E0,-3.899400330E1,3.694050074E0,3.985464604E1
1.961826918E0,8.743050575E0,-3.719205093E1,7.050000429E-1,3.821238819E1
1.963790595E0,1.042905045E1,-3.573600006E1,-1.824000120E0,3.727135321E1
1.965754077E0,1.173195076E1,-3.450900269E1,-4.813050270E0,3.676513821E1
1.967716905E0,1.253700066E1,-3.362805176E1,-7.495950222E0,3.666349029E1
1.969679925E0,1.295895100E1,-3.305295181E1,-8.569950104E0,3.652226827E1
1.971643011E0,1.284405041E1,-3.255495071E1,-8.148000717E0,3.593305390E1
1.973606077E0,1.207695103E1,-3.178800201E1,-7.075050354E0,3.473307006E1
1.975568785E0,1.077405071E1,-3.082995224E1,-5.158050060E0,3.306314571E1
1.977531574E0,9.355950356E0,-2.994795227E1,-3.165000200E0,3.153459812E1
1.979494564E0,8.053050041E0,-2.925795174E1,-1.402050018E0,3.037836564E1
1.981457495E0,6.940950394E0,-2.860695076E1,1.500000060E-2,2.943696060E1
1.983419652E0,6.175050259E0,-2.803200150E1,6.660000086E-1,2.871180784E1
1.985382035E0,5.140050411E0,-2.730405045E1,1.356000066E0,2.781672204E1
1.987345100E0,4.372950077E0,-2.646105194E1,1.510050058E0,2.686243126E1
1.989307961E0,3.568050146E0,-2.557905197E1,1.816050053E0,2.589047932E1
1.991270716E0,2.764050245E0,-2.465895081E1,2.085000038E0,2.490082436E1
1.993233502E0,2.149950027E0,-2.377800179E1,2.046000004E0,2.396250759E1
1.995196268E0,1.614000082E0,-2.304900169E1,1.930950046E0,2.318598808E1
1.997159040E0,1.192050099E0,-2.228295135E1,1.777950048E0,2.238553128E1
1.999120843E0,6.940500140E-1,-2.155500031E1,1.624950051E0,2.162730233E1
2.001082944E0,5.020500422E-1,-2.101800156E1,1.356000066E0,2.106768093E1
2.003046773E0,6.550500393E-1,-2.098005104E1,1.087950110E0,2.101845065E1
2.005010096E0,9.240000248E-1,-2.090295029E1,7.050000429E-1,2.093523661E1
2.006972772E0,1.039050102E0,-2.078805161E1,6.280500293E-1,2.082347621E1
2.008935637E0,1.306950092E0,-2.063505173E1,5.899500251E-1,2.068481374E1
2.010898186E0,1.384050012E0,-2.044305038E1,6.660000086E-1,2.050066973E1
2.012860844E0,1.422000051E0,-2.017500114E1,8.200500607E-1,2.024167082E1
2.014823766E0,1.575000048E0,-1.994505119E1,8.959500194E-1,2.002719198E1
2.016786611E0,1.384050012E0,-1.940805054E1,1.011000037E0,1.948358646E1
2.018749368E0,1.459950089E0,-1.898700142E1,1.011000037E0,1.906986624E1
2.020712151E0,1.459950089E0,-1.848795128E1,9.730500579E-1,1.857101567E1
2.022674602E0,1.345050097E0,-1.791300011E1,1.087950110E0,1.799634318E1
2.024637151E0,1.153950095E0,-1.733895111E1,1.240950108E0,1.742156088E1
2.026599912E0,1.077000022E0,-1.684005165E1,1.165050030E0,1.691462711E1
2.028562611E0,9.240000248E-1,-1.626495171E1,1.087950110E0,1.632746353E1
2.030524312E0,6.169500351E-1,-1.565205097E1,9.730500579E-1,1.569439879E1
2.032486305E0,4.260000288E-1,-1.507695103E1,8.200500607E-1,1.510524447E1
2.034449405E0,2.719500065E-1,-1.450200081E1,7.050000429E-1,1.452167378E1
2.036412168E0,1.189500093E-1,-1.400400066E1,5.509500504E-1,1.401533908E1
2.038375164E0,8.100000024E-2,-1.342905045E1,4.750500321E-1,1.343769435E1
2.040338091E0,-7.200000435E-2,-1.285395050E1,3.600000143E-1,1.285919233E1
2.042301555E0,-4.170000255E-1,-1.224105072E1,5.295000225E-2,1.224826581E1
2.044264861E0,-3.400500119E-1,-1.178100014E1,-2.520000041E-1,1.178860052E1
2.046227679E0,-3.019500077E-1,-1.124400043E1,-5.590500236E-1,1.126193840E1
2.048190637E0,-2.629500031E-1,-1.074600029E1,-7.890000343E-1,1.077813462E1
2.050153419E0,-2.250000089E-1,-1.017105007E1,-1.171950102E0,1.024081792E1
2.052116252E0,-2.629500031E-1,-9.673050880E0,-1.402050018E0,9.777668449E0
2.054079011E0,-2.250000089E-1,-9.289950371E0,-1.555950046E0,9.422037117E0
2.056041791E0,-1.099500060E-1,-8.791950226E0,-1.900950074E0,8.995781732E0
2.058004558E0,-3.299999982E-2,-8.293050766E0,-2.169000149E0,8.572067525E0
2.059967329E0,8.100000024E-2,-7.833000183E0,-2.284050226E0,8.159616309E0
2.061929918E0,2.340000123E-1,-7.297050476E0,-2.514000177E0,7.721521777E0
2.063892560E0,3.109500110E-1,-6.874950409E0,-2.629050016E0,7.367057555E0
2.065855485E0,3.870000243E-1,-6.415050507E0,-2.629050016E0,6.943669492E0
2.067818327E0,5.410500169E-1,-5.994000435E0,-2.667000055E0,6.582831126E0
2.069781809E0,8.089500666E-1,-5.649000168E0,-2.590050220E0,6.266894227E0
2.071745100E0,1.000050068E0,-5.265000343E0,-2.514000177E0,5.919503834E0
2.073707646E0,1.114950061E0,-4.882050037E0,-2.437050104E0,5.569267404E0
2.075670410E0,1.306950092E0,-4.537050247E0,-2.245050192E0,5.228115708E0
2.077633495E0,1.459950089E0,-4.153950214E0,-2.169000149E0,4.908290771E0
2.079596485E0,1.651950121E0,-3.886050224E0,-1.861950040E0,4.614887160E0
2.081559383E0,1.843950033E0,-3.579000235E0,-1.671000123E0,4.359086580E0
2.083522318E0,2.035050154E0,-3.271950245E0,-1.402050018E0,4.100345325E0
2.085485059E0,2.111999989E0,-3.042000055E0,-1.134000063E0,3.873017484E0
2.087447857E0,2.265000105E0,-2.697000027E0,-1.057050109E0,3.677144211E0
2.089410800E0,2.265000105E0,-2.544000149E0,-9.420000315E-1,3.534052389E0
2.091373701E0,2.304000139E0,-2.314050198E0,-6.360000372E-1,3.326821457E0
2.093336789E0,2.304000139E0,-2.083950043E0,-4.819500148E-1,3.143809829E0
2.095299836E0,2.304000139E0,-1.777950048E0,-2.910000086E-1,2.924757088E0
2.097262739E0,2.188950062E0,-1.701000094E0,-9.900000691E-2,2.773933073E0
2.099225684E0,2.111999989E0,-1.509000063E0,9.195000678E-2,2.597321687E0
2.101188468E0,2.074050188E0,-1.318050027E0,2.830500007E-1,2.473672848E0
2.103151299E0,1.882050037E0,-1.164000034E0,2.830500007E-1,2.230947271E0
2.105113661E0,1.804950118E0,-9.730500579E-1,4.360500276E-1,2.096380445E0
2.107076154E0,1.690050125E0,-8.959500194E-1,4.360500276E-1,1.961921377E0
2.109039015E0,1.614000082E0,-7.429500222E-1,4.750500321E-1,1.839196437E0
2.111001768E0,1.459950089E0,-6.280500293E-1,6.660000086E-1,1.723211280E0
2.112964540E0,1.345050097E0,-5.130000114E-1,6.280500293E-1,1.570597215E0
2.114927306E0,1.306950092E0,-3.979500234E-1,7.050000429E-1,1.537370426E0
2.116890484E0,1.269000053E0,-2.830500007E-1,8.200500607E-1,1.537192421E0
2.118853508E0,1.230000019E0,-2.830500007E-1,7.810500264E-1,1.484269684E0
2.120816190E0,1.153950095E0,-2.059500068E-1,7.810500264E-1,1.408565004E0
2.122778972E0,1.077000022E0,-1.680000126E-1,7.429500222E-1,1.319139032E0
2.124741918E0,1.000050068E0,-1.680000126E-1,6.660000086E-1,1.213210680E0
2.126704816E0,9.240000248E-1,-1.290000081E-1,6.660000086E-1,1.146286639E0
2.128667758E0,8.850000501E-1,-1.290000081E-1,7.429500222E-1,1.162686899E0
2.130630677E0,8.089500666E-1,-5.295000225E-2,6.660000086E-1,1.049171065E0
2.132592701E0,8.089500666E-1,-1.500000060E-2,6.660000086E-1,1.047941421E0
2.134554987E0,8.089500666E-1,2.295000106E-2,5.899500251E-1,1.001482873E0
2.136518018E0,8.089500666E-1,-1.500000060E-2,5.130000114E-1,9.580157733E-1
2.138480831E0,8.089500666E-1,6.105000153E-2,4.360500276E-1,9.210140821E-1
2.140444505E0,7.699500322E-1,9.900000691E-2,3.600000143E-1,8.557009196E-1
2.142407951E0,7.320000529E-1,1.380000114E-1,2.830500007E-1,7.968597013E-1
2.144370785E0,6.550500393E-1,2.140500098E-1,2.449500114E-1,7.313743698E-1
2.146333799E0,6.169500351E-1,2.530499995E-1,9.195000678E-2,6.731392514E-1
2.148296166E0,5.790000558E-1,3.289500177E-1,1.500000060E-2,6.660887169E-1
2.150258722E0,5.020500422E-1,4.060500264E-1,-1.369500011E-1,6.600652783E-1
2.152222063E0,4.639500082E-1,4.440000355E-1,-2.520000041E-1,6.898475510E-1
2.154185177E0,3.870000243E-1,5.590500236E-1,-4.440000355E-1,8.120603298E-1
2.156148248E0,2.719500065E-1,6.739500165E-1,-7.120500207E-1,1.017438284E0
2.158111332E0,2.340000123E-1,7.890000343E-1,-9.810000658E-1,1.280483576E0
2.160074183E0,1.570500135E-1,9.810000658E-1,-1.326000094E0,1.656895315E0
2.162037102E0,1.570500135E-1,1.096050024E0,-1.747050047E0,2.068374779E0
2.164000051E0,1.570500135E-1,1.210950017E0,-2.206950188E0,2.522239834E0
2.165963004E0,1.570500135E-1,1.402950048E0,-2.704950094E0,3.051178224E0
2.167925878E0,1.960500032E-1,1.555950046E0,-3.280050039E0,3.635676609E0
2.169888775E0,2.719500065E-1,1.708950043E0,-3.739950180E0,4.120885148E0
2.171851882E0,3.870000243E-1,1.824000120E0,-4.162050247E0,4.560636767E0
2.173814927E0,5.410500169E-1,1.863000035E0,-4.507050037E0,4.906832409E0
2.175778785E0,6.940500140E-1,1.824000120E0,-4.660050392E0,5.052202640E0
2.177742398E0,8.850000501E-1,1.900950074E0,-4.774950027E0,5.215072774E0
2.179705519E0,1.039050102E0,1.863000035E0,-4.698000431E0,5.159612611E0
2.181668785E0,1.114950061E0,1.824000120E0,-4.429950237E0,4.918795501E0
2.183631694E0,1.269000053E0,1.786050081E0,-4.200000286E0,4.737123434E0
2.185594708E0,1.306950092E0,1.747950077E0,-3.739950180E0,4.330205003E0
2.187557634E0,1.306950092E0,1.671000123E0,-3.319050074E0,3.939092960E0
2.189520573E0,1.345050097E0,1.594050050E0,-2.896950245E0,3.569660494E0
2.191483313E0,1.384050012E0,1.518000126E0,-2.398950100E0,3.158303405E0
2.193446112E0,1.384050012E0,1.441050053E0,-1.939050078E0,2.784265594E0
2.195409370E0,1.384050012E0,1.326000094E0,-1.402050018E0,2.374787346E0
2.197372494E0,1.345050097E0,1.249050021E0,-9.040500522E-1,2.046116374E0
2.199335443E0,1.306950092E0,1.134000063E0,-4.440000355E-1,1.786396014E0
2.201298433E0,1.306950092E0,1.018950105E0,5.295000225E-2,1.658065609E0
2.203260804E0,1.306950092E0,9.430500269E-1,3.979500234E-1,1.660068106E0
2.205223357E0,1.269000053E0,8.280000687E-1,7.810500264E-1,1.704694809E0
2.207186162E0,1.153950095E0,8.280000687E-1,1.087950110E0,1.789083670E0
2.209148893E0,9.619500637E-1,7.890000343E-1,1.356000066E0,1.840273120E0
2.211111660E0,8.850000501E-1,7.129500508E-1,1.585950017E0,1.951092084E0
2.213074422E0,8.089500666E-1,5.590500236E-1,2.122950077E0,2.339626929E0
2.215037328E0,6.940500140E-1,5.209500194E-1,2.506050110E0,2.652052318E0
2.217000192E0,5.790000558E-1,3.679500222E-1,2.812950134E0,2.895395783E0
2.218962450E0,4.260000288E-1,3.289500177E-1,3.043050051E0,3.090281177E0
2.220924886E0,3.490500152E-1,2.530499995E-1,3.310950041E0,3.338901075E0
2.222887711E0,2.719500065E-1,1.380000114E-1,3.541050196E0,3.554157748E0
2.224850422E0,3.109500110E-1,2.295000106E-2,3.618000269E0,3.631410547E0
2.226814058E0,3.870000243E-1,-5.295000225E-2,3.733050108E0,3.753429875E0
2.228777423E0,3.109500110E-1,-1.290000081E-1,3.771000147E0,3.785996965E0
2.230740091E0,3.870000243E-1,-1.680000126E-1,3.808950186E0,3.832244061E0
2.232702963E0,2.719500065E-1,-1.680000126E-1,3.771000147E0,3.784524134E0
2.234665918E0,3.109500110E-1,-1.680000126E-1,3.655950069E0,3.672993986E0
2.236628831E0,3.109500110E-1,-2.059500068E-1,3.463950157E0,3.483971298E0
2.238591442E0,3.109500110E-1,-2.059500068E-1,3.388050079E0,3.408517076E0
2.240554141E0,3.109500110E-1,-2.440500110E-1,3.157950163E0,3.182593211E0
2.242516921E0,2.340000123E-1,-2.830500007E-1,2.928000212E0,2.950941976E0
2.244479677E0,1.960500032E-1,-2.440500110E-1,2.698050022E0,2.716149836E0
2.246442536E0,8.100000024E-2,-2.440500110E-1,2.467950106E0,2.481309963E0
2.248405399E0,8.100000024E-2,-2.830500007E-1,2.161050081E0,2.181012553E0
2.250368332E0,1.189500093E-1,-2.059500068E-1,1.893000126E0,1.907882068E0
2.252331245E0,1.189500093E-1,-1.680000126E-1,1.740000129E0,1.752134001E0
2.254294035E0,1.189500093E-1,-2.440500110E-1,1.548000097E0,1.571627759E0
2.256256862E0,1.570500135E-1,-1.680000126E-1,1.432950020E0,1.451287177E0
2.258219576E0,1.570500135E-1,-1.680000126E-1,1.356000066E0,1.375363548E0
2.260182324E0,2.719500065E-1,-2.059500068E-1,1.203000069E0,1.250432476E0
2.262145276E0,2.719500065E-1,-2.059500068E-1,1.011000037E0,1.067002009E0
2.264108168E0,3.109500110E-1,-1.680000126E-1,8.959500194E-1,9.631408780E-1
2.266070737E0,3.490500152E-1,-1.680000126E-1,8.200500607E-1,9.069410232E-1
2.268033401E0,4.260000288E-1,-1.680000126E-1,6.660000086E-1,8.082425628E-1
2.269996068E0,4.639500082E-1,-2.059500068E-1,5.509500504E-1,7.491401560E-1
2.271958723E0,5.410500169E-1,-2.059500068E-1,5.509500504E-1,7.991848873E-1
2.273922367E0,6.169500351E-1,-2.059500068E-1,4.360500276E-1,7.830596259E-1
2.275885721E0,6.169500351E-1,-2.059500068E-1,4.360500276E-1,7.830596259E-1
2.277848256E0,6.550500393E-1,-2.059500068E-1,3.979500234E-1,7.936436105E-1
2.279811031E0,8.089500666E-1,-2.059500068E-1,4.360500276E-1,9.417830122E-1
2.281773818E0,8.850000501E-1,-2.440500110E-1,3.600000143E-1,9.860960941E-1
2.283736588E0,1.000050068E0,-2.440500110E-1,3.979500234E-1,1.103641594E0
2.285700032E0,1.114950061E0,-2.830500007E-1,3.600000143E-1,1.205334373E0
2.287663279E0,1.230000019E0,-2.830500007E-1,2.070000172E-1,1.279009913E0
2.289625607E0,1.306950092E0,-3.589500189E-1,5.295000225E-2,1.356380243E0
2.291588204E0,1.422000051E0,-4.360500276E-1,-2.520000041E-1,1.508551548E0
2.293550836E0,1.575000048E0,-4.740000367E-1,-6.360000372E-1,1.763461718E0
2.295513447E0,1.804950118E0,-5.130000114E-1,-1.057050109E0,2.153687274E0
2.297476243E0,2.035050154E0,-5.130000114E-1,-1.287000060E0,2.461903185E0
2.299438985E0,2.227050066E0,-5.509500504E-1,-1.632000089E0,2.815443525E0
2.301401399E0,2.380050182E0,-6.660000086E-1,-1.939050078E0,3.141354817E0
2.303363910E0,2.457000017E0,-6.660000086E-1,-2.092050076E0,3.295008136E0
2.305326375E0,2.533950090E0,-6.280500293E-1,-2.169000149E0,3.394099519E0
2.307288877E0,2.610000134E0,-6.280500293E-1,-2.169000149E0,3.451247482E0
2.309251826E0,2.610000134E0,-6.280500293E-1,-1.977000117E0,3.333928164E0
2.311214644E0,2.649000168E0,-5.890500546E-1,-1.671000123E0,3.186914380E0
2.313177991E0,2.686950207E0,-5.890500546E-1,-1.210950017E0,3.005508497E0
2.315141183E0,2.649000168E0,-5.130000114E-1,-7.510500550E-1,2.800794010E0
2.317103335E0,2.572050095E0,-4.740000367E-1,-1.759500057E-1,2.621273761E0
2.319065795E0,2.610000134E0,-4.740000367E-1,3.600000143E-1,2.677008917E0
2.321028617E0,2.494950056E0,-3.589500189E-1,8.200500607E-1,2.650679724E0
2.322991332E0,2.533950090E0,-3.979500234E-1,1.165050030E0,2.817198760E0
2.324954426E0,2.457000017E0,-3.979500234E-1,1.471050024E0,2.891228368E0
2.326917409E0,2.457000017E0,-3.210000098E-1,1.548000097E0,2.921676641E0
2.328880201E0,2.457000017E0,-2.830500007E-1,1.777950048E0,3.045992902E0
2.330843040E0,2.419050217E0,-2.830500007E-1,1.969950080E0,3.132510905E0
2.332806112E0,2.457000017E0,-2.440500110E-1,2.122950077E0,3.256274946E0
2.334769115E0,2.419050217E0,-2.059500068E-1,2.046000004E0,3.174954389E0
2.336732025E0,2.457000017E0,-1.680000126E-1,1.893000126E0,3.106207103E0
2.338694963E0,2.494950056E0,-2.059500068E-1,1.548000097E0,2.943381642E0
2.340658955E0,2.686950207E0,-2.059500068E-1,1.050000072E0,2.892164755E0
2.342622645E0,2.992950201E0,-2.830500007E-1,1.500000060E-2,3.006342164E0
2.344585257E0,3.223050117E0,-2.830500007E-1,-1.057050109E0,3.403751503E0
2.346548185E0,3.568050146E0,-3.589500189E-1,-2.245050192E0,4.230848299E0
2.348510972E0,3.798000097E0,-4.740000367E-1,-3.510000229E0,5.193224661E0
2.350473800E0,3.952050209E0,-7.429500222E-1,-4.698000431E0,6.184002235E0
2.352436919E0,4.066950321E0,-1.126049995E0,-5.848050117E0,7.211640845E0
2.354399952E0,4.027950287E0,-1.624050021E0,-6.960000515E0,8.203872814E0
2.356362857E0,3.837000132E0,-2.122950077E0,-7.726050377E0,8.883768427E0
2.358325800E0,3.453000069E0,-2.736000061E0,-8.148000717E0,9.262765327E0
2.360288540E0,3.184950113E0,-3.387000084E0,-8.646000862E0,9.816771756E0
2.362251339E0,2.839950085E0,-4.153950214E0,-9.067950249E0,1.037055160E1
2.364214241E0,2.572050095E0,-4.843950272E0,-9.067950249E0,1.059750054E1
2.366177110E0,2.149950027E0,-5.457000256E0,-8.301000595E0,1.016404190E1
2.368139548E0,1.767000079E0,-5.878950119E0,-6.883050442E0,9.222837262E0
2.370102112E0,1.498950124E0,-6.109050274E0,-5.119950294E0,8.110563343E0
2.372065050E0,1.345050097E0,-6.109050274E0,-3.049950123E0,6.959299589E0
2.374027879E0,1.269000053E0,-6.031950474E0,-1.326000094E0,6.305003085E0
2.375989404E0,1.192050099E0,-5.994000435E0,-6.105000153E-2,6.111689763E0
2.377951324E0,7.699500322E-1,-6.109050274E0,7.810500264E-1,6.206718734E0
2.379913652E0,8.100000024E-2,-6.339000225E0,1.624950051E0,6.544459299E0
2.381875860E0,-7.999500632E-1,-6.760050297E0,2.314950228E0,7.190076124E0
2.383838771E0,-1.950000048E0,-7.450050354E0,2.620950222E0,8.134809803E0
2.385801476E0,-3.138000250E0,-8.523000717E0,2.812950134E0,9.507958522E0
2.387764211E0,-4.288050175E0,-1.009500027E1,3.043050051E0,1.138229143E1
2.389726937E0,-5.782950401E0,-1.224105072E1,3.463950157E0,1.397443340E1
2.391689939E0,-7.776000500E0,-1.492395115E1,3.733050108E0,1.723734796E1
2.393652860E0,-1.030500031E1,-1.841205025E1,3.808950186E0,2.144072590E1
2.395615424E0,-1.310295105E1,-2.266605186E1,4.231050014E0,2.652053954E1
2.397578093E0,-1.659105110E1,-2.745705223E1,4.537950039E0,3.239977908E1
2.399540829E0,-1.988700104E1,-3.301500320E1,5.227050304E0,3.889479788E1
2.401503548E0,-2.249295044E1,-3.876405334E1,6.147000313E0,4.523682420E1
2.403466326E0,-2.475495148E1,-4.466595078E1,7.450050354E0,5.160773228E1
2.405429086E0,-2.636400032E1,-5.076000214E1,8.754000664E0,5.786424507E1
2.407391902E0,-2.701605034E1,-5.604900360E1,1.032495022E1,6.307108987E1
2.409354702E0,-2.609595108E1,-6.026505280E1,1.162800026E1,6.669397005E1
2.411317611E0,-2.326005173E1,-6.363795471E1,1.212600040E1,6.883210858E1
2.413280481E0,-1.850699997E1,-6.570795441E1,1.212600040E1,6.933313931E1
2.415243054E0,-1.279695034E1,-6.674295044E1,1.170495033E1,6.895933029E1
2.417205714E0,-7.162050247E0,-6.716400146E1,1.074705029E1,6.839442336E1
2.419169267E0,-2.179949999E0,-6.747105408E1,9.712050438E0,6.820131409E1
2.421132558E0,2.649000168E0,-6.766305542E1,8.754000664E0,6.827839188E1
2.423095229E0,7.056000233E0,-6.770100403E1,7.219950199E0,6.844954906E1
2.425058088E0,1.161705017E1,-6.689595032E1,3.924000263E0,6.801045362E1
2.427021517E0,1.598700047E1,-6.459705353E1,-2.514000177E0,6.659342089E1
2.428984779E0,2.181195068E1,-6.114705276E1,-1.845795059E1,6.749384560E1
2.430947510E0,2.599005127E1,-5.693100357E1,-2.980305099E1,6.931698047E1
2.432910396E0,2.564505196E1,-5.183295059E1,-2.665995216E1,6.367948262E1
2.434873334E0,2.491695213E1,-4.662105179E1,-2.704305077E1,5.937763525E1
2.436836250E0,2.208105087E1,-4.110195160E1,-2.493495178E1,5.290269420E1
2.438798950E0,1.786500168E1,-3.588899994E1,-1.983795166E1,4.472944140E1
2.440761714E0,1.364895058E1,-3.171105194E1,-1.381995106E1,3.718703691E1
2.442724483E0,9.931050301E0,-2.856900215E1,-7.573050499E0,3.117955641E1
2.444687250E0,5.905950069E0,-2.626905060E1,-3.127050161E0,2.710575046E1
2.446648200E0,2.380050182E0,-2.458200073E1,-1.369500011E-1,2.469733091E1
2.448609695E0,-5.700000525E-1,-2.327895164E1,1.701000094E0,2.334797402E1
2.450572682E0,-2.640000105E0,-2.232105064E1,2.275950193E0,2.259156594E1
2.452535231E0,-4.210950375E0,-2.167005157E1,2.314950228E0,2.219644640E1
2.454497903E0,-5.245950222E0,-2.117100143E1,2.085000038E0,2.191069421E1
2.456460539E0,-5.859000206E0,-2.074995041E1,1.816050053E0,2.163761454E1
2.458423320E0,-5.821050167E0,-2.048100090E1,1.548000097E0,2.134835655E1
2.460386066E0,-5.284050465E0,-2.025105095E1,1.318050027E0,2.097053909E1
2.462348796E0,-4.671000004E0,-2.009805107E1,1.279950023E0,2.067336862E1
2.464311530E0,-3.943050146E0,-2.021295166E1,1.050000072E0,2.062070705E1
2.466275025E0,-3.138000250E0,-2.052000046E1,3.600000143E-1,2.076167297E1
2.468238297E0,-2.371050119E0,-2.101800156E1,-2.520000041E-1,2.115281948E1
2.470200485E0,-1.528050065E0,-2.151600075E1,-5.209500194E-1,2.157648289E1
2.472162991E0,-6.850500107E-1,-2.186100197E1,-7.510500550E-1,2.188462421E1
2.474126120E0,4.050000105E-3,-2.186100197E1,-7.510500550E-1,2.187389996E1
2.476089066E0,5.020500422E-1,-2.190000153E1,-5.209500194E-1,2.191194902E1
2.478052391E0,9.240000248E-1,-2.190000153E1,-3.289500177E-1,2.192195363E1
2.480015605E0,9.619500637E-1,-2.190000153E1,-1.759500057E-1,2.192182413E1
2.481976677E0,7.320000529E-1,-2.151600075E1,9.195000678E-2,2.152864527E1
2.483938376E0,2.340000123E-1,-2.101800156E1,3.220500052E-1,2.102177113E1
2.485901283E0,-1.870500147E-1,-2.052000046E1,5.509500504E-1,2.052824767E1
2.487863836E0,-7.999500632E-1,-1.986795044E1,8.580000401E-1,1.990255106E1
2.489826687E0,-1.106999993E0,-1.936995125E1,8.580000401E-1,1.942052070E1
2.491789451E0,-1.336950064E0,-1.883295059E1,1.011000037E0,1.890739497E1
2.493752026E0,-1.567050099E0,-1.825800133E1,1.165050030E0,1.836212406E1
2.495714636E0,-1.795950055E0,-1.776000023E1,1.240950108E0,1.789365815E1
2.497677296E0,-1.950000048E0,-1.737705040E1,1.395000100E0,1.754167626E1
2.499639942E0,-1.987950087E0,-1.691700172E1,1.471050024E0,1.709680909E1
2.501602732E0,-2.103000164E0,-1.653404999E1,1.585950017E0,1.674254031E1
2.503565480E0,-2.256000042E0,-1.603499985E1,1.624950051E0,1.627425018E1
2.505528204E0,-2.448000193E0,-1.561395073E1,1.663050056E0,1.589194443E1
2.507490939E0,-2.830950022E0,-1.515405083E1,1.663050056E0,1.550565284E1
2.509454073E0,-2.946000099E0,-1.488600063E1,1.816050053E0,1.528299608E1
2.511417090E0,-2.677950144E0,-1.427205086E1,1.969950080E0,1.465413102E1
2.513379863E0,-2.485950232E0,-1.381200027E1,1.930950046E0,1.416615220E1
2.515342708E0,-2.256000042E0,-1.342905045E1,1.893000126E0,1.374817739E1
2.517305454E0,-2.026050091E0,-1.300800037E1,1.777950048E0,1.328435392E1
2.519268236E0,-1.642950058E0,-1.262400055E1,1.740000129E0,1.284882388E1
2.521231317E0,-1.297950029E0,-1.227900028E1,1.624950051E0,1.245387429E1
2.523194311E0,-9.529500604E-1,-1.181895065E1,1.510050058E0,1.195307323E1
2.525157088E0,-6.850500107E-1,-1.135905075E1,1.432950020E0,1.146955419E1
2.527119929E0,-4.549500346E-1,-1.090005016E1,1.126049995E0,1.096750025E1
2.529082996E0,-1.480500102E-1,-1.036305046E1,7.429500222E-1,1.039070298E1
2.531046000E0,8.100000024E-2,-9.865050316E0,4.750500321E-1,9.876813822E0
2.533010036E0,3.109500110E-1,-9.442950249E0,1.300500035E-1,9.448963558E0
2.534973769E0,6.169500351E-1,-8.944950104E0,-1.369500011E-1,8.967246791E0
2.536936374E0,8.470500112E-1,-8.370000839E0,-3.289500177E-1,8.419181426E0
2.538899309E0,8.850000501E-1,-7.909950256E0,-6.360000372E-1,7.984674959E0
2.540862009E0,1.192050099E0,-7.411950588E0,-9.810000658E-1,7.571020809E0
2.542824775E0,1.384050012E0,-6.990000248E0,-1.057050109E0,7.203683282E0
2.544787589E0,1.575000048E0,-6.568950176E0,-1.210950017E0,6.862807845E0
2.546750388E0,1.843950033E0,-6.223950386E0,-1.326000094E0,6.625404620E0
2.548712928E0,2.074050188E0,-5.802000046E0,-1.210950017E0,6.279433785E0
2.550675544E0,2.341950178E0,-5.533950329E0,-1.057050109E0,6.101368028E0
2.552638334E0,2.572050095E0,-5.188950062E0,-1.018950105E0,5.880382959E0
2.554601076E0,2.686950207E0,-4.882050037E0,-9.420000315E-1,5.651679223E0
2.556563536E0,2.725050211E0,-4.614000320E0,-7.890000343E-1,5.416402742E0
2.558526078E0,2.917050123E0,-4.345950127E0,-5.970000029E-1,5.268099556E0
2.560489020E0,2.955000162E0,-4.039050102E0,-3.289500177E-1,5.015392288E0
2.562451845E0,3.108000040E0,-3.886050224E0,-6.105000153E-2,4.976422178E0
2.564414620E0,3.108000040E0,-3.732000113E0,9.195000678E-2,4.857565634E0
2.566377400E0,3.300000191E0,-3.616950274E0,1.680000126E-1,4.899036083E0
2.568339672E0,3.337950230E0,-3.541050196E0,3.220500052E-1,4.876952371E0
2.570302093E0,3.300000191E0,-3.426000118E0,5.509500504E-1,4.788634881E0
2.572265236E0,3.300000191E0,-3.310950041E0,6.660000086E-1,4.721858473E0
2.574228168E0,3.300000191E0,-3.196050167E0,7.810500264E-1,4.659911702E0
2.576191280E0,3.262050152E0,-3.081000090E0,8.580000401E-1,4.568336329E0
2.578154364E0,3.223050117E0,-2.851050138E0,7.810500264E-1,4.373394345E0
2.580117441E0,3.262050152E0,-2.697000027E0,8.580000401E-1,4.318673918E0
2.582080520E0,3.184950113E0,-2.467050076E0,7.810500264E-1,4.103691319E0
2.584043236E0,3.184950113E0,-2.238000154E0,7.050000429E-1,3.955954623E0
2.586006059E0,3.070050240E0,-2.008050203E0,6.280500293E-1,3.721816886E0
2.587969192E0,2.955000162E0,-1.738950133E0,4.750500321E-1,3.461451438E0
2.589932225E0,2.802000046E0,-1.509000063E0,2.830500007E-1,3.195059115E0
2.591895985E0,2.686950207E0,-1.279050112E0,2.449500114E-1,2.985912107E0
2.593859532E0,2.533950090E0,-1.048950076E0,9.195000678E-2,2.744021524E0
2.595822349E0,2.494950056E0,-8.190000653E-1,-6.105000153E-2,2.626645007E0
2.597785380E0,2.457000017E0,-5.509500504E-1,-2.910000086E-1,2.534773372E0
2.599748131E0,2.341950178E0,-3.210000098E-1,-6.360000372E-1,2.447910883E0
2.601710977E0,2.188950062E0,-1.680000126E-1,-8.659500480E-1,2.359999123E0
2.603672832E0,2.149950027E0,-9.105000645E-2,-1.171950102E0,2.450314728E0
2.605634977E0,2.074050188E0,1.759500057E-1,-1.671000123E0,2.669247834E0
2.607597807E0,1.920000076E0,3.289500177E-1,-2.014950037E0,2.802611650E0
2.609560436E0,1.920000076E0,5.209500194E-1,-2.398950100E0,3.116528645E0
2.611523220E0,1.843950033E0,7.510500550E-1,-2.820000172E0,3.452047056E0
2.613485965E0,1.882050037E0,9.430500269E-1,-3.241950035E0,3.865448968E0
2.615448919E0,1.882050037E0,1.057950020E0,-3.702000141E0,4.285577631E0
2.617411811E0,1.920000076E0,1.210950017E0,-4.123950005E0,4.707415839E0
2.619374605E0,1.996950150E0,1.326000094E0,-4.545000076E0,5.138395843E0
2.621337428E0,2.035050154E0,1.441050053E0,-4.890000343E0,5.489094437E0
2.623300193E0,2.227050066E0,1.518000126E0,-5.119950294E0,5.786014811E0
2.625262972E0,2.341950178E0,1.594050050E0,-5.388000488E0,6.087386587E0
2.627225559E0,2.457000017E0,1.708950043E0,-5.503050327E0,6.264257517E0
2.629188203E0,2.649000168E0,1.786050081E0,-5.656950474E0,6.496788856E0
2.631150992E0,2.839950085E0,1.863000035E0,-5.733000278E0,6.663585957E0
2.633113739E0,3.070050240E0,1.900950074E0,-5.617950439E0,6.678337128E0
2.635076883E0,3.223050117E0,1.863000035E0,-5.427000046E0,6.581120778E0
2.637039903E0,3.415050268E0,1.863000035E0,-5.158050060E0,6.460558636E0
2.639002630E0,3.568050146E0,1.900950074E0,-4.736999989E0,6.227661031E0
2.640965443E0,3.798000097E0,1.824000120E0,-4.468050003E0,6.141274461E0
2.642928519E0,3.952050209E0,1.824000120E0,-3.894000292E0,5.840283860E0
2.644891518E0,4.066950321E0,1.786050081E0,-3.280050039E0,5.521665335E0
2.646854799E0,4.219950199E0,1.747950077E0,-2.667000055E0,5.289253109E0
2.648817990E0,4.297049999E0,1.708950043E0,-2.053950071E0,5.060025676E0
2.650780733E0,4.411950111E0,1.594050050E0,-1.594050050E0,4.954522672E0
2.652743607E0,4.450050354E0,1.479000092E0,-1.134000063E0,4.824556515E0
2.654706493E0,4.450050354E0,1.288050056E0,-8.269500136E-1,4.705939590E0
2.656669375E0,4.335000038E0,1.057950020E0,-5.590500236E-1,4.497112463E0
2.658632350E0,4.182000160E0,8.280000687E-1,-4.060500264E-1,4.282474294E0
2.660595298E0,3.952050209E0,5.209500194E-1,-2.520000041E-1,3.994195010E0
2.662559253E0,3.760050297E0,1.759500057E-1,-1.369500011E-1,3.766655272E0
2.664522913E0,3.568050146E0,-9.105000645E-2,-6.105000153E-2,3.569733751E0
2.666485891E0,3.415050268E0,-3.210000098E-1,-9.900000691E-2,3.431531778E0
2.668449069E0,3.223050117E0,-5.890500546E-1,-9.900000691E-2,3.277931212E0
2.670412145E0,3.070050240E0,-9.340500236E-1,-6.105000153E-2,3.209577078E0
2.672375271E0,2.878050089E0,-1.087950110E0,-6.105000153E-2,3.077423412E0
2.674338699E0,2.725050211E0,-1.240950108E0,-9.900000691E-2,2.995940057E0
2.676302038E0,2.686950207E0,-1.393950105E0,-9.900000691E-2,3.028629939E0
2.678265071E0,2.610000134E0,-1.585950017E0,-1.369500011E-1,3.057138115E0
2.680228194E0,2.494950056E0,-1.624050021E0,-1.759500057E-1,2.982159060E0
2.682191083E0,2.419050217E0,-1.738950133E0,-2.520000041E-1,2.989858779E0
2.684154040E0,2.341950178E0,-1.777950048E0,-2.520000041E-1,2.951159266E0
2.686117272E0,2.265000105E0,-1.816050053E0,-2.910000086E-1,2.917695028E0
2.688080423E0,2.149950027E0,-1.854000092E0,-3.289500177E-1,2.857937993E0
2.690043353E0,2.035050154E0,-1.854000092E0,-3.670500219E-1,2.777313664E0
2.692006348E0,1.882050037E0,-1.854000092E0,-3.289500177E-1,2.662261594E0
2.693969393E0,1.804950118E0,-1.816050053E0,-3.670500219E-1,2.586621047E0
2.695932423E0,1.690050125E0,-1.738950133E0,-3.670500219E-1,2.452538014E0
2.697895508E0,1.575000048E0,-1.663050056E0,-3.289500177E-1,2.313994112E0
2.699858576E0,1.422000051E0,-1.624050021E0,-2.520000041E-1,2.173275550E0
2.701821476E0,1.306950092E0,-1.548000097E0,-1.759500057E-1,2.033563682E0
2.703784425E0,1.269000053E0,-1.471050024E0,-6.105000153E-2,1.943727453E0
2.705747403E0,1.114950061E0,-1.318050027E0,5.295000225E-2,1.727186502E0
2.707710361E0,9.619500637E-1,-1.240950108E0,2.070000172E-1,1.583715284E0
2.709672513E0,8.470500112E-1,-1.126049995E0,3.220500052E-1,1.445406005E0
2.711634901E0,6.550500393E-1,-9.340500236E-1,5.509500504E-1,1.266919871E0
2.713597060E0,5.790000558E-1,-7.039500475E-1,7.050000429E-1,1.152307162E0
2.715559286E0,4.639500082E-1,-5.890500546E-1,8.580000401E-1,1.139470774E0
2.717522180E0,3.870000243E-1,-4.740000367E-1,1.087950110E0,1.248230947E0
2.719484855E0,3.109500110E-1,-3.979500234E-1,1.240950108E0,1.339780318E0
2.721447641E0,3.490500152E-1,-3.589500189E-1,1.432950020E0,1.517902101E0
2.723410394E0,3.490500152E-1,-2.830500007E-1,1.510050058E0,1.575501315E0
2.725373346E0,3.490500152E-1,-2.059500068E-1,1.624950051E0,1.674728034E0
2.727336240E0,2.340000123E-1,-1.680000126E-1,1.740000129E0,1.763683775E0
2.729299284E0,1.570500135E-1,-1.680000126E-1,1.930950046E0,1.944596819E0
2.731262298E0,8.100000024E-2,-1.290000081E-1,2.008050203E0,2.013819163E0
2.733225071E0,4.050000105E-3,-9.105000645E-2,2.314950228E0,2.316743633E0
2.735187915E0,-3.299999982E-2,-5.295000225E-2,2.467950106E0,2.468738631E0
2.737149951E0,4.050000105E-3,2.295000106E-2,2.736000061E0,2.736099311E0
2.739112223E0,-3.299999982E-2,9.900000691E-2,2.889000177E0,2.890884298E0
2.741075577E0,-7.200000435E-2,9.900000691E-2,3.004050255E0,3.006543353E0
2.743038610E0,-7.200000435E-2,2.140500098E-1,3.118950129E0,3.127115494E0
2.745001695E0,-7.200000435E-2,1.759500057E-1,3.273000240E0,3.278516887E0
2.746964764E0,-1.099500060E-1,1.759500057E-1,3.388050079E0,3.394396964E0
2.748927888E0,-7.200000435E-2,2.140500098E-1,3.463950157E0,3.471304092E0
2.750890995E0,-7.200000435E-2,2.140500098E-1,3.541050196E0,3.548244340E0
2.752853989E0,-1.099500060E-1,1.759500057E-1,3.618000269E0,3.623944447E0
2.754817040E0,-7.200000435E-2,2.140500098E-1,3.618000269E0,3.625041704E0
2.756780346E0,-7.200000435E-2,9.900000691E-2,3.618000269E0,3.620070572E0
2.758743577E0,-1.480500102E-1,6.105000153E-2,3.618000269E0,3.621542745E0
2.760707664E0,-1.099500060E-1,-9.105000645E-2,3.733050108E0,3.735778663E0
2.762671500E0,-3.299999982E-2,-2.059500068E-1,3.886050224E0,3.891643708E0
2.764634347E0,-7.200000435E-2,-2.059500068E-1,3.924000263E0,3.930060747E0
2.766597459E0,-1.099500060E-1,-2.059500068E-1,3.963000298E0,3.969871001E0
2.768560485E0,-2.250000089E-1,-1.680000126E-1,3.924000263E0,3.934034453E0
2.770523536E0,-3.780000210E-1,-1.290000081E-1,3.886050224E0,3.906521645E0
2.772486257E0,-4.930500090E-1,-1.290000081E-1,3.847950220E0,3.881553840E0
2.774449074E0,-4.930500090E-1,-5.295000225E-2,3.694050074E0,3.727184991E0
2.776411460E0,-4.930500090E-1,-1.500000060E-2,3.618000269E0,3.651472204E0
2.778373983E0,-5.320500135E-1,6.105000153E-2,3.426000118E0,3.467604523E0
2.780336974E0,-4.930500090E-1,1.380000114E-1,3.157950163E0,3.199186076E0
2.782299827E0,-3.400500119E-1,2.140500098E-1,2.928000212E0,2.955441872E0
2.784262583E0,-1.480500102E-1,2.910000086E-1,2.736000061E0,2.755412155E0
2.786225368E0,-3.299999982E-2,3.679500222E-1,2.467950106E0,2.495446642E0
2.788188359E0,1.189500093E-1,4.440000355E-1,2.275950193E0,2.321903189E0
2.790151289E0,2.719500065E-1,5.590500236E-1,2.238000154E0,2.322743728E0
2.792114031E0,3.109500110E-1,7.510500550E-1,2.275950193E0,2.416757203E0
2.794076829E0,3.490500152E-1,9.040500522E-1,2.275950193E0,2.473679788E0
2.796039773E0,3.870000243E-1,9.810000658E-1,2.161050081E0,2.404634609E0
2.798002674E0,3.109500110E-1,1.057950020E0,1.930950046E0,2.223626819E0
2.799965547E0,3.109500110E-1,1.096050024E0,1.816050053E0,2.143840796E0
2.801928435E0,1.570500135E-1,1.134000063E0,1.740000129E0,2.082839720E0
2.803891408E0,4.200000316E-2,1.134000063E0,1.624950051E0,1.981964382E0
2.805854356E0,-7.200000435E-2,1.096050024E0,1.510050058E0,1.867287025E0
2.807817095E0,-1.870500147E-1,1.096050024E0,1.548000097E0,1.905942723E0
2.809779896E0,-3.019500077E-1,1.018950105E0,1.510050058E0,1.846533049E0
2.811742873E0,-4.549500346E-1,9.430500269E-1,1.548000097E0,1.868857188E0
2.813705775E0,-5.700000525E-1,9.040500522E-1,1.510050058E0,1.849988577E0
2.815668836E0,-6.850500107E-1,7.510500550E-1,1.510050058E0,1.820335376E0
2.817631851E0,-7.620000243E-1,6.360000372E-1,1.510050058E0,1.807039364E0
2.819594625E0,-7.999500632E-1,4.830000103E-1,1.471050024E0,1.742755659E0
2.821557469E0,-8.770500422E-1,2.910000086E-1,1.510050058E0,1.770352778E0
2.823521140E0,-9.150000215E-1,2.295000106E-2,1.432950020E0,1.700322764E0
2.825484558E0,-8.380500674E-1,-1.680000126E-1,1.395000100E0,1.636024816E0
2.827447532E0,-8.380500674E-1,-3.210000098E-1,1.356000066E0,1.626070448E0
2.829410637E0,-7.620000243E-1,-7.039500475E-1,1.356000066E0,1.707315403E0
2.831373393E0,-7.999500632E-1,-1.048950076E0,1.240950108E0,1.811124936E0
2.833336252E0,-7.999500632E-1,-1.240950108E0,1.240950108E0,1.928687233E0
2.835299506E0,-7.999500632E-1,-1.471050024E0,1.240950108E0,2.084194196E0
2.837262640E0,-7.999500632E-1,-1.777950048E0,1.240950108E0,2.311056825E0
2.839225528E0,-9.529500604E-1,-2.199000120E0,1.356000066E0,2.753625160E0
2.841188488E0,-1.183050036E0,-2.812050104E0,1.356000066E0,3.338557975E0
2.843152485E0,-1.528050065E0,-3.808950186E0,1.050000072E0,4.236217496E0
2.845116178E0,-2.179949999E0,-5.380050182E0,5.295000225E-2,5.805163707E0
2.847078970E0,-3.138000250E0,-7.335000515E0,-9.810000658E-1,8.038136553E0
2.849042026E0,-4.518000126E0,-9.826050758E0,-2.206950188E0,1.103785431E1
2.851004971E0,-5.898000240E0,-1.258605099E1,-2.974050045E0,1.421407964E1
2.852967949E0,-7.201050282E0,-1.561395073E1,-3.357000113E0,1.751913332E1
2.854930818E0,-8.734050751E0,-1.825800133E1,-3.586950064E0,2.055491342E1
2.856893719E0,-1.049700069E1,-2.071095085E1,-3.778950214E0,2.352468859E1
2.858857034E0,-1.203000069E1,-2.354805183E1,-4.009050369E0,2.674517053E1
2.860820207E0,-1.375500107E1,-2.692005157E1,-4.582950115E0,3.057601450E1
2.862783133E0,-1.528800106E1,-3.075300217E1,-5.580000401E0,3.479377133E1
2.864746132E0,-1.651395035E1,-3.500805283E1,-6.730050087E0,3.928826661E1
2.866708862E0,-1.705095100E1,-3.949200058E1,-7.381050587E0,4.364439194E1
2.868671671E0,-1.655294991E1,-4.409100342E1,-8.071050644E0,4.778240881E1
2.870634752E0,-1.532595062E1,-4.849905396E1,-8.455050468E0,5.156094331E1
2.872597750E0,-1.367805099E1,-5.236995316E1,-8.569950104E0,5.480095909E1
2.874561020E0,-1.122495079E1,-5.559000397E1,-8.301000595E0,5.731626883E1
2.876524211E0,-8.350950241E0,-5.796600342E1,-8.185950279E0,5.913379494E1
2.878487134E0,-5.245950222E0,-5.953695297E1,-7.803000450E0,6.027483371E1
2.880450136E0,-1.987950087E0,-6.022695160E1,-7.150950432E0,6.068256534E1
2.882413946E0,1.384050012E0,-6.030405426E1,-5.197050095E0,6.054340496E1
2.884377519E0,4.335000038E0,-5.976705170E1,-2.859000206E0,5.999222096E1
2.886339610E0,6.940950394E0,-5.850195312E1,-9.040500522E-1,5.891920416E1
2.888302136E0,8.473950386E0,-5.604900360E1,7.050000429E-1,5.669034896E1
2.890265261E0,9.049050331E0,-5.252295303E1,1.777950048E0,5.332641947E1
2.892228211E0,8.857950211E0,-4.846095276E1,2.506050110E0,4.932755327E1
2.894190982E0,8.857950211E0,-4.508805084E1,2.928000212E0,4.604311888E1
2.896153815E0,9.202950478E0,-4.259595108E1,3.043050051E0,4.368488869E1
2.898116888E0,9.969000816E0,-4.083300018E1,2.391000032E0,4.210025846E1
2.900079890E0,1.115700054E1,-3.926205063E1,1.279950023E0,4.083657127E1
2.902043881E0,1.230705070E1,-3.795900345E1,-3.289500177E-1,3.990560923E1
2.904007582E0,1.353405094E1,-3.719205093E1,-3.049950123E0,3.969535720E1
2.905970894E0,1.391700077E1,-3.611894989E1,-5.158050060E0,3.904954458E1
2.907934334E0,1.376400089E1,-3.519900131E1,-6.730050087E0,3.838894357E1
2.909897394E0,1.326495075E1,-3.424095154E1,-7.458000183E0,3.747030087E1
2.911860565E0,1.242195034E1,-3.358905029E1,-7.458000183E0,3.658074516E1
2.913823940E0,1.081200027E1,-3.274605179E1,-6.844950199E0,3.515759663E1
2.915787255E0,9.355950356E0,-3.198000145E1,-6.001950264E0,3.385672321E1
2.917750131E0,7.669050217E0,-3.117495155E1,-4.660050392E0,3.244083854E1
2.919713122E0,6.097950459E0,-3.037005234E1,-3.357000113E0,3.115757578E1
2.921676213E0,4.717950344E0,-2.952705193E1,-2.398950100E0,2.999768012E1
2.923639274E0,3.837000132E0,-2.883705139E1,-1.516950130E0,2.913072674E1
2.925602354E0,3.300000191E0,-2.814705086E1,-8.269500136E-1,2.835190152E1
2.927565428E0,2.992950201E0,-2.737995148E1,-5.209500194E-1,2.754797420E1
2.929528681E0,2.649000168E0,-2.665200043E1,-5.590500236E-1,2.678915575E1
2.931491885E0,2.304000139E0,-2.588595200E1,-5.590500236E-1,2.599429676E1
2.933454986E0,1.959000111E0,-2.515695190E1,-5.209500194E-1,2.523848845E1
2.935418117E0,1.804950118E0,-2.450595093E1,-5.970000029E-1,2.457958268E1
2.937381319E0,1.729050040E0,-2.393100166E1,-7.510500550E-1,2.400513551E1
2.939344500E0,1.843950033E0,-2.362395096E1,-1.018950105E0,2.371770372E1
2.941307598E0,1.959000111E0,-2.320305061E1,-9.810000658E-1,2.330625668E1
2.943270694E0,1.920000076E0,-2.274300194E1,-7.510500550E-1,2.283625656E1
2.945233947E0,1.920000076E0,-2.243595123E1,-4.440000355E-1,2.252233212E1
2.947197154E0,1.959000111E0,-2.209095192E1,-2.140500098E-1,2.217867569E1
2.949159534E0,1.575000048E0,-2.182305145E1,5.295000225E-2,2.187987668E1
2.951122156E0,1.384050012E0,-2.167005157E1,2.830500007E-1,2.171605045E1
2.953085135E0,1.269000053E0,-2.159295082E1,6.280500293E-1,2.163932377E1
2.955048005E0,8.850000501E-1,-2.147805023E1,8.200500607E-1,2.151191179E1
2.957010172E0,4.260000288E-1,-2.140095139E1,7.810500264E-1,2.141943593E1
2.958972545E0,4.200000316E-2,-2.128605080E1,8.580000401E-1,2.130337735E1
2.960935787E0,-4.170000255E-1,-2.090295029E1,8.959500194E-1,2.092629796E1
2.962898774E0,-6.850500107E-1,-2.071095085E1,1.050000072E0,2.074886211E1
2.964861701E0,-1.106999993E0,-2.032800102E1,1.087950110E0,2.038717023E1
2.966824636E0,-1.452000022E0,-1.986795044E1,1.087950110E0,1.995062390E1
2.968787691E0,-1.528050065E0,-1.948500061E1,1.087950110E0,1.957508164E1
2.970750711E0,-1.642950058E0,-1.894799995E1,1.165050030E0,1.905474557E1
2.972713618E0,-1.758000135E0,-1.856505013E1,1.165050030E0,1.868445857E1
2.974676559E0,-1.642950058E0,-1.810500145E1,1.279950023E0,1.822439668E1
2.976639854E0,-1.642950058E0,-1.768395042E1,1.279950023E0,1.780616914E1
2.978603034E0,-1.605000019E0,-1.733895111E1,1.203000069E0,1.745458278E1
2.980565959E0,-1.605000019E0,-1.684005165E1,1.165050030E0,1.695643554E1
2.982528959E0,-1.452000022E0,-1.641900063E1,1.126049995E0,1.652149734E1
2.984492183E0,-1.489950061E0,-1.591995049E1,1.087950110E0,1.602649088E1
2.986455341E0,-1.489950061E0,-1.549905109E1,1.087950110E0,1.560846474E1
2.988418779E0,-1.452000022E0,-1.507695103E1,1.087950110E0,1.518572987E1
2.990382125E0,-1.605000019E0,-1.461705112E1,1.050000072E0,1.474234407E1
2.992345382E0,-1.413000107E0,-1.408095074E1,1.011000037E0,1.418773640E1
2.994308665E0,-1.297950029E0,-1.362105083E1,9.349500537E-1,1.371465755E1
2.996272021E0,-1.183050036E0,-1.308405018E1,9.730500579E-1,1.317341273E1
2.998235355E0,-9.150000215E-1,-1.266300106E1,9.349500537E-1,1.273039483E1
3.000198356E0,-7.999500632E-1,-1.208805084E1,9.730500579E-1,1.215350648E1
3.002161478E0,-6.079500318E-1,-1.147395039E1,8.959500194E-1,1.152492374E1
3.004124412E0,-4.930500090E-1,-1.090005016E1,8.580000401E-1,1.094487807E1
3.006087401E0,-3.400500119E-1,-1.024800014E1,8.580000401E-1,1.028947545E1
3.008050492E0,-2.629500031E-1,-9.711000443E0,7.810500264E-1,9.745907420E0
3.010013553E0,-2.629500031E-1,-9.136050224E0,5.130000114E-1,9.154218995E0
3.011977524E0,-2.250000089E-1,-8.562000275E0,2.830500007E-1,8.569631906E0
3.013941236E0,-2.250000089E-1,-8.101950645E0,5.295000225E-2,8.105247249E0
3.015904025E0,-2.250000089E-1,-7.642050266E0,-2.520000041E-1,7.649513794E0
3.017867084E0,-2.629500031E-1,-7.182000160E0,-5.209500194E-1,7.205668458E0
3.019830298E0,-2.629500031E-1,-6.798000336E0,-9.420000315E-1,6.867992088E0
3.021793466E0,-2.250000089E-1,-6.415050507E0,-1.249050021E0,6.539390183E0
3.023756697E0,-1.099500060E-1,-6.031950474E0,-1.402050018E0,6.193727454E0
3.025719917E0,-3.299999982E-2,-5.725050449E0,-1.479000092E0,5.913098419E0
3.027683149E0,8.100000024E-2,-5.304000378E0,-1.479000092E0,5.506943097E0
3.029646378E0,2.719500065E-1,-4.920000076E0,-1.516950130E0,5.155724513E0
3.031610555E0,5.410500169E-1,-4.651950359E0,-1.326000094E0,4.867407268E0
3.033574455E0,7.699500322E-1,-4.345950127E0,-1.096050024E0,4.547684159E0
3.035537527E0,1.039050102E0,-4.077000141E0,-1.018950105E0,4.328950748E0
3.037500842E0,1.230000019E0,-3.808950186E0,-7.890000343E-1,4.079647365E0
3.039463743E0,1.306950092E0,-3.541050196E0,-5.970000029E-1,3.821460982E0
3.041426765E0,1.384050012E0,-3.310950041E0,-4.060500264E-1,3.611490168E0
3.043389671E0,1.422000051E0,-3.081000090E0,-3.289500177E-1,3.409230677E0
3.045352611E0,1.422000051E0,-2.889000177E0,-2.520000041E-1,3.229846772E0
3.047315526E0,1.345050097E0,-2.659050226E0,-9.900000691E-2,2.981527942E0
3.049278452E0,1.306950092E0,-2.467050076E0,1.680000126E-1,2.796905187E0
3.051240834E0,1.306950092E0,-2.275950193E0,3.220500052E-1,2.644198183E0
3.053203376E0,1.306950092E0,-2.083950043E0,5.130000114E-1,2.512794328E0
3.055166318E0,1.306950092E0,-1.854000092E0,7.429500222E-1,2.386924720E0
3.057129143E0,1.230000019E0,-1.663050056E0,8.959500194E-1,2.254187652E0
3.059091588E0,1.230000019E0,-1.393950105E0,1.087950110E0,2.153980590E0
3.061054145E0,1.114950061E0,-1.203000069E0,1.240950108E0,2.056764443E0
3.063017310E0,1.114950061E0,-9.340500236E-1,1.279950023E0,1.937481650E0
3.064980297E0,1.077000022E0,-7.039500475E-1,1.471050024E0,1.954344619E0
3.066943344E0,1.039050102E0,-4.740000367E-1,1.471050024E0,1.862334375E0
3.068906374E0,1.039050102E0,-2.830500007E-1,1.510050058E0,1.854721973E0
3.070868939E0,1.077000022E0,-2.059500068E-1,1.510050058E0,1.866171383E0
3.072831626E0,1.077000022E0,-1.290000081E-1,1.548000097E0,1.890204844E0
3.074794589E0,1.192050099E0,-1.290000081E-1,1.585950017E0,1.988180550E0
3.076757471E0,1.269000053E0,-5.295000225E-2,1.585950017E0,2.031847016E0
3.078719501E0,1.269000053E0,6.105000153E-2,1.624950051E0,2.062656275E0
3.080681780E0,1.269000053E0,1.380000114E-1,1.585950017E0,2.035839531E0
3.082644821E0,1.269000053E0,2.910000086E-1,1.548000097E0,2.022707701E0
3.084607633E0,1.306950092E0,2.910000086E-1,1.510050058E0,2.018180053E0
3.086570981E0,1.306950092E0,4.060500264E-1,1.510050058E0,2.037951507E0
3.088534172E0,1.306950092E0,4.440000355E-1,1.471050024E0,2.017236414E0
3.090497545E0,1.306950092E0,5.209500194E-1,1.471050024E0,2.035557820E0
3.092460864E0,1.306950092E0,5.590500236E-1,1.356000066E0,1.964533444E0
3.094424265E0,1.306950092E0,5.980500579E-1,1.318050027E0,1.950138018E0
3.096387638E0,1.306950092E0,6.739500165E-1,1.126049995E0,1.852111163E0
3.098351070E0,1.306950092E0,7.129500508E-1,1.087950110E0,1.843922927E0
3.100314485E0,1.306950092E0,7.510500550E-1,1.011000037E0,1.815025015E0
3.102278045E0,1.306950092E0,7.510500550E-1,7.810500264E-1,1.697714308E0
3.104241562E0,1.306950092E0,7.890000343E-1,5.899500251E-1,1.636667538E0
3.106204569E0,1.306950092E0,8.280000687E-1,4.360500276E-1,1.607433446E0
3.108167722E0,1.269000053E0,8.280000687E-1,3.220500052E-1,1.549084070E0
3.110131686E0,1.306950092E0,8.280000687E-1,1.300500035E-1,1.552615748E0
3.112095413E0,1.269000053E0,8.659500480E-1,1.500000060E-2,1.536377434E0
3.114058380E0,1.269000053E0,9.040500522E-1,-1.759500057E-1,1.568000650E0
3.116021569E0,1.306950092E0,9.810000658E-1,-4.060500264E-1,1.683851626E0
3.117984237E0,1.306950092E0,9.430500269E-1,-5.590500236E-1,1.705871867E0
3.119947078E0,1.306950092E0,1.018950105E0,-8.659500480E-1,1.869825485E0
3.121909790E0,1.384050012E0,1.018950105E0,-1.210950017E0,2.102439938E0
3.123872540E0,1.422000051E0,1.057950020E0,-1.555950046E0,2.358457744E0
3.125835356E0,1.575000048E0,1.134000063E0,-1.900950074E0,2.716650967E0
3.127798153E0,1.614000082E0,1.134000063E0,-2.130000114E0,2.903076454E0
3.129761053E0,1.690050125E0,1.134000063E0,-2.359950066E0,3.116342388E0
3.131723922E0,1.804950118E0,1.173000097E0,-2.590050220E0,3.367808531E0
3.133686899E0,1.882050037E0,1.210950017E0,-2.743950129E0,3.540872011E0
3.135649845E0,1.996950150E0,1.134000063E0,-2.743950129E0,3.578131964E0
3.137612721E0,2.035050154E0,1.134000063E0,-2.859000206E0,3.687989622E0
3.139575617E0,2.035050154E0,1.134000063E0,-2.782050133E0,3.628662042E0
3.141538544E0,1.996950150E0,1.057950020E0,-2.704950094E0,3.524744410E0
3.143501461E0,1.996950150E0,1.057950020E0,-2.551950216E0,3.408741417E0
3.145464206E0,1.996950150E0,1.018950105E0,-2.245050192E0,3.172746378E0
3.147427001E0,1.959000111E0,1.018950105E0,-1.977000117E0,2.963860694E0
3.149389810E0,1.882050037E0,1.018950105E0,-1.747050047E0,2.762708006E0
3.151352615E0,1.843950033E0,9.810000658E-1,-1.555950046E0,2.604514043E0
3.153315709E0,1.767000079E0,1.018950105E0,-1.326000094E0,2.432863507E0
3.155278739E0,1.729050040E0,9.810000658E-1,-1.096050024E0,2.270088286E0
3.157241779E0,1.614000082E0,9.430500269E-1,-9.420000315E-1,2.093251938E0
3.159204816E0,1.498950124E0,9.430500269E-1,-6.360000372E-1,1.881672361E0
3.161167541E0,1.384050012E0,9.430500269E-1,-3.289500177E-1,1.706794042E0
3.163130357E0,1.306950092E0,9.040500522E-1,-6.105000153E-2,1.590330828E0
3.165093153E0,1.269000053E0,9.040500522E-1,9.195000678E-2,1.560808264E0
3.167055962E0,1.192050099E0,9.040500522E-1,2.830500007E-1,1.522631682E0
3.169018319E0,1.114950061E0,9.430500269E-1,4.750500321E-1,1.535620241E0
3.170980808E0,1.000050068E0,9.430500269E-1,6.660000086E-1,1.527415956E0
3.172943985E0,8.470500112E-1,9.430500269E-1,8.580000401E-1,1.530686494E0
3.174906960E0,7.320000529E-1,9.040500522E-1,1.050000072E0,1.567045221E0
3.176869200E0,5.410500169E-1,8.659500480E-1,1.240950108E0,1.607035089E0
3.178831655E0,3.490500152E-1,7.129500508E-1,1.356000066E0,1.571263780E0
3.180795017E0,2.719500065E-1,5.980500579E-1,1.471050024E0,1.611089337E0
3.182758114E0,1.570500135E-1,4.440000355E-1,1.510050058E0,1.581787570E0
3.184721368E0,4.200000316E-2,4.060500264E-1,1.510050058E0,1.564254392E0
3.186684576E0,-3.299999982E-2,3.679500222E-1,1.548000097E0,1.591471181E0
3.188647606E0,-3.299999982E-2,3.289500177E-1,1.624950051E0,1.658239966E0
3.190610674E0,-1.099500060E-1,2.530499995E-1,1.701000094E0,1.723230869E0
3.192574112E0,-1.480500102E-1,1.759500057E-1,1.624950051E0,1.641139811E0
3.194537441E0,-7.200000435E-2,2.295000106E-2,1.663050056E0,1.664766107E0
3.196501240E0,-1.099500060E-1,-5.295000225E-2,1.548000097E0,1.552802952E0
3.198464902E0,-3.299999982E-2,-1.290000081E-1,1.548000097E0,1.553716288E0
3.200427840E0,-7.200000435E-2,-1.290000081E-1,1.471050024E0,1.478449585E0
3.202390986E0,-1.099500060E-1,-1.680000126E-1,1.510050058E0,1.523339813E0
3.204353736E0,-3.299999982E-2,-1.680000126E-1,1.471050024E0,1.480979803E0
3.206316602E0,-7.200000435E-2,-1.680000126E-1,1.432950020E0,1.444560059E0
3.208280029E0,-1.480500102E-1,-1.680000126E-1,1.432950020E0,1.450340846E0
3.210243292E0,-1.099500060E-1,-2.059500068E-1,1.432950020E0,1.451843714E0
3.212206164E0,-2.250000089E-1,-2.059500068E-1,1.432950020E0,1.465055005E0
3.214169146E0,-1.870500147E-1,-2.059500068E-1,1.471050024E0,1.497127679E0
3.216131924E0,-1.870500147E-1,-2.440500110E-1,1.471050024E0,1.502842736E0
3.218094762E0,-1.870500147E-1,-2.440500110E-1,1.471050024E0,1.502842736E0
3.220057474E0,-1.870500147E-1,-2.059500068E-1,1.471050024E0,1.497127679E0
3.222020223E0,-2.629500031E-1,-2.440500110E-1,1.510050058E0,1.552080633E0
3.223983165E0,-2.629500031E-1,-2.440500110E-1,1.548000097E0,1.589027191E0
3.225946057E0,-3.019500077E-1,-2.830500007E-1,1.548000097E0,1.602371808E0
3.227909031E0,-3.019500077E-1,-2.830500007E-1,1.624950051E0,1.676828488E0
3.229871980E0,-2.250000089E-1,-2.830500007E-1,1.624950051E0,1.664693658E0
3.231834900E0,-2.250000089E-1,-3.210000098E-1,1.548000097E0,1.596862646E0
3.233797829E0,-2.250000089E-1,-3.210000098E-1,1.585950017E0,1.633677896E0
3.235760871E0,-1.870500147E-1,-3.589500189E-1,1.585950017E0,1.636786571E0
3.237723889E0,-1.870500147E-1,-3.979500234E-1,1.585950017E0,1.645779264E0
3.239686842E0,-1.480500102E-1,-4.360500276E-1,1.548000097E0,1.615042641E0
3.241649815E0,-2.629500031E-1,-4.360500276E-1,1.471050024E0,1.556685743E0
3.243612908E0,-2.250000089E-1,-4.740000367E-1,1.471050024E0,1.561822401E0
3.245575966E0,-2.629500031E-1,-5.130000114E-1,1.318050027E0,1.438599176E0
3.247538642E0,-3.780000210E-1,-5.509500504E-1,1.050000072E0,1.244560213E0
3.249501430E0,-4.549500346E-1,-6.660000086E-1,7.050000429E-1,1.071242552E0
3.251465456E0,-6.079500318E-1,-7.039500475E-1,1.300500035E-1,9.391815128E-1
3.253429120E0,-7.230000496E-1,-7.810500264E-1,-5.209500194E-1,1.184971366E0
3.255392097E0,-8.380500674E-1,-8.190000653E-1,-1.018950105E0,1.552851679E0
3.257355276E0,-8.380500674E-1,-8.190000653E-1,-1.249050021E0,1.712663124E0
3.259318367E0,-9.150000215E-1,-8.580000401E-1,-1.363950014E0,1.853037708E0
3.261281493E0,-8.770500422E-1,-8.959500194E-1,-1.441050053E0,1.910122632E0
