"Time (s)","Acceleration x (m/s^2)","Acceleration y (m/s^2)","Acceleration z (m/s^2)","Absolute acceleration (m/s^2)"
3.874081000E-2,1.384050012E0,-1.509000063E0,-8.659500480E-1,2.223183553E0
4.070260700E-2,1.345050097E0,-1.393950105E0,-8.659500480E-1,2.121821421E0
4.266696400E-2,1.345050097E0,-1.203000069E0,-7.510500550E-1,1.954595895E0
4.462950600E-2,1.384050012E0,-1.011000037E0,-4.819500148E-1,1.780446946E0
4.659257900E-2,1.422000051E0,-8.190000653E-1,-1.759500057E-1,1.650395000E0
4.855466300E-2,1.459950089E0,-5.130000114E-1,9.195000678E-2,1.550186466E0
5.051707000E-2,1.575000048E0,-2.059500068E-1,3.600000143E-1,1.628692901E0
5.247904500E-2,1.767000079E0,2.295000106E-2,7.050000429E-1,1.902587986E0
5.444114700E-2,1.959000111E0,4.440000355E-1,8.959500194E-1,2.199441725E0
5.640380400E-2,2.304000139E0,8.659500480E-1,9.730500579E-1,2.646717314E0
5.836629900E-2,2.725050211E0,1.288050056E0,1.011000037E0,3.179165405E0
6.032861600E-2,3.147000074E0,1.708950043E0,8.580000401E-1,3.682429060E0
6.229098800E-2,3.453000069E0,2.245950222E0,5.509500504E-1,4.155845020E0
6.425450000E-2,3.645000219E0,2.743950129E0,3.979500234E-1,4.579700113E0
6.621767800E-2,3.760050297E0,3.280950069E0,1.680000126E-1,4.993078769E0
6.818019800E-2,4.027950287E0,3.778950214E0,5.295000225E-2,5.523373239E0
7.014291100E-2,4.297049999E0,4.392000198E0,5.295000225E-2,6.144681289E0
7.210478000E-2,4.527000427E0,5.005050182E0,2.830500007E-1,6.754581963E0
7.406690200E-2,4.717950344E0,5.619000435E0,5.509500504E-1,7.357701224E0
7.602942100E-2,4.948050022E0,6.346950531E0,8.580000401E-1,8.093401271E0
7.799182300E-2,5.178000450E0,7.113000393E0,1.203000069E0,8.879959032E0
7.995488100E-2,5.293050289E0,7.995000362E0,1.585950017E0,9.718623854E0
8.191774600E-2,5.446050167E0,8.991000175E0,1.969950080E0,1.069477676E1
8.388060000E-2,5.485050201E0,1.021800041E1,2.506050110E0,1.186480490E1
8.584348100E-2,5.407950401E0,1.182795048E1,3.004050255E0,1.334805821E1
8.780627800E-2,5.140050411E0,1.382100105E1,3.463950157E0,1.514724856E1
8.976909900E-2,4.717950344E0,1.627395058E1,3.733050108E0,1.735039440E1
9.173203800E-2,4.219950199E0,1.884195137E1,4.000950336E0,1.971889233E1
9.369494300E-2,3.721950293E0,2.164005089E1,4.078050137E0,2.233327583E1
9.565798700E-2,3.070050240E0,2.505105209E1,4.078050137E0,2.556581531E1
9.762103400E-2,2.035050154E0,2.896005058E1,3.694050074E0,2.926554228E1
9.958375600E-2,1.345050097E0,3.233295059E1,3.081000090E0,3.250725173E1
1.015465740E-1,8.470500112E-1,3.467100143E1,2.161050081E0,3.474861107E1
1.035087490E-1,-1.480500102E-1,3.766095352E1,2.008050203E0,3.771473988E1
1.054711130E-1,-1.452000022E0,4.107195282E1,1.165050030E0,4.111412110E1
1.074348130E-1,-2.908050060E0,4.452105331E1,-1.369500011E-1,4.461613720E1
1.093981490E-1,-4.402950287E0,4.820100403E1,-9.810000658E-1,4.841162176E1
1.113606860E-1,-5.668050289E0,5.176500320E1,-1.326000094E0,5.209127208E1
1.133234580E-1,-6.280950069E0,5.498505402E1,-2.782050133E0,5.541251034E1
1.152862270E-1,-6.702000141E0,5.805105209E1,-4.123950005E0,5.858198032E1
1.172489970E-1,-6.625950336E0,6.050400162E1,-3.204000235E0,6.095000449E1
1.192118660E-1,-5.706000328E0,6.196005249E1,-4.429950237E0,6.237973231E1
1.211747300E-1,-4.555950165E0,6.276495361E1,-7.342950344E0,6.335704384E1
1.231373490E-1,-3.100050211E0,6.299505234E1,-9.949050903E0,6.385115930E1
1.251000400E-1,-1.452000022E0,6.226695251E1,-1.140600014E1,6.331965349E1
1.270637230E-1,1.960500032E-1,6.084900284E1,-1.148205090E1,6.192315459E1
1.290271150E-1,1.498950124E0,5.889405441E1,-1.014105034E1,5.977957342E1
1.309897040E-1,1.804950118E0,5.655600357E1,-8.224950790E0,5.717944736E1
1.329525490E-1,8.850000501E-1,5.418000412E1,-5.962950230E0,5.451433616E1
1.349142690E-1,-1.068000078E0,5.161200333E1,-4.123950005E0,5.178751273E1
1.368763190E-1,-2.640000105E0,4.892895126E1,-2.896950245E0,4.908568216E1
1.388393460E-1,-3.981000185E0,4.643805313E1,-1.824000120E0,4.664405769E1
1.408020860E-1,-5.398950100E0,4.383105087E1,-1.134000063E0,4.417686769E1
1.427648570E-1,-6.319050312E0,4.107195282E1,-8.659500480E-1,4.156423432E1
1.447276530E-1,-6.702000141E0,3.877200317E1,-1.210950017E0,3.936561235E1
1.466904190E-1,-6.511050224E0,3.670200348E1,-1.861950040E0,3.732154461E1
1.486531940E-1,-5.935950279E0,3.501600266E1,-2.590050220E0,3.560989059E1
1.506159620E-1,-5.169000149E0,3.340605164E1,-3.319050074E0,3.396614405E1
1.525787320E-1,-4.555950165E0,3.214095306E1,-3.931950092E0,3.269950729E1
1.545415150E-1,-3.943050146E0,3.103005219E1,-4.315050125E0,3.157580467E1
1.565042850E-1,-3.445050240E0,3.007200050E1,-4.582950115E0,3.061367370E1
1.584670090E-1,-3.022950172E0,2.915205193E1,-4.774950027E0,2.969478922E1
1.604297460E-1,-2.755050182E0,2.850000191E1,-4.927950382E0,2.905383116E1
1.623922050E-1,-2.410050154E0,2.796405220E1,-5.043000221E0,2.851715989E1
1.643547460E-1,-2.103000164E0,2.738895035E1,-4.852050304E0,2.789479527E1
1.663176930E-1,-1.834950089E0,2.689005089E1,-4.660050392E0,2.735247609E1
1.682805180E-1,-1.605000019E0,2.643105125E1,-4.353000164E0,2.683514684E1
1.702435040E-1,-1.375050068E0,2.604705048E1,-3.817050219E0,2.636113567E1
1.722064420E-1,-1.183050036E0,2.558700180E1,-3.472050190E0,2.584858606E1
1.741689580E-1,-1.068000078E0,2.520405197E1,-3.012000084E0,2.540584587E1
1.761315970E-1,-9.529500604E-1,2.478195190E1,-2.629050016E0,2.493922930E1
1.780943440E-1,-8.380500674E-1,2.436105156E1,-2.169000149E0,2.447177400E1
1.800570900E-1,-6.850500107E-1,2.390100098E1,-1.708950043E0,2.397180952E1
1.820196840E-1,-5.320500135E-1,2.340300179E1,-1.326000094E0,2.344657429E1
1.839823230E-1,-3.400500119E-1,2.294295120E1,-9.810000658E-1,2.296643214E1
1.859449340E-1,-2.250000089E-1,2.236800194E1,-6.360000372E-1,2.237817311E1
1.879075530E-1,-1.099500060E-1,2.190795135E1,-2.910000086E-1,2.191015980E1
1.898701350E-1,4.200000316E-2,2.133300018E1,-1.369500011E-1,2.133348111E1
1.918327510E-1,1.189500093E-1,2.083500099E1,9.195000678E-2,2.083554344E1
1.937946450E-1,1.570500135E-1,2.029800034E1,3.220500052E-1,2.030116249E1
1.957567510E-1,2.719500065E-1,1.976205063E1,5.509500504E-1,1.977159953E1
1.977194980E-1,3.870000243E-1,1.918695068E1,7.429500222E-1,1.920522898E1
1.996820570E-1,5.020500422E-1,1.864995003E1,8.200500607E-1,1.867472014E1
2.016458750E-1,6.550500393E-1,1.803705025E1,1.011000037E0,1.807723412E1
2.036093410E-1,7.699500322E-1,1.757700157E1,1.050000072E0,1.762516120E1
2.055718110E-1,7.320000529E-1,1.688700104E1,1.240950108E0,1.694835052E1
2.075345730E-1,9.619500637E-1,1.638899994E1,1.432950020E0,1.647962417E1
2.094972080E-1,1.192050099E0,1.588995075E1,1.701000094E0,1.602513400E1
2.114598810E-1,1.384050012E0,1.539195061E1,1.969950080E0,1.557910271E1
2.134226610E-1,1.459950089E0,1.485600090E1,2.200050116E0,1.508881829E1
2.153854130E-1,1.729050040E0,1.420395088E1,2.467950106E0,1.452007619E1
2.173481850E-1,1.804950118E0,1.355205059E1,2.583000183E0,1.391358365E1
2.193109510E-1,2.074050188E0,1.297800064E1,2.659050226E0,1.340897956E1
2.212736770E-1,2.265000105E0,1.232595062E1,2.736000061E0,1.282750874E1
2.232364150E-1,2.419050217E0,1.167405033E1,2.736000061E0,1.223196433E1
2.251990680E-1,2.572050095E0,1.098495007E1,2.698050022E0,1.160017429E1
2.271617360E-1,2.686950207E0,1.037100029E1,2.583000183E0,1.102040101E1
2.291243420E-1,2.764050245E0,9.643050194E0,2.583000183E0,1.035858488E1
2.310869670E-1,2.764050245E0,8.991000175E0,2.506050110E0,9.734389815E0
2.330495360E-1,2.764050245E0,8.377950668E0,2.620950222E0,9.203228305E0
2.350121210E-1,2.725050211E0,7.765050411E0,2.659050226E0,8.648263100E0
2.369745370E-1,2.764050245E0,7.075050354E0,2.698050022E0,8.060755870E0
2.389370200E-1,2.686950207E0,6.424050331E0,2.736000061E0,7.481565371E0
2.408994780E-1,2.572050095E0,5.809950352E0,2.583000183E0,6.858779390E0
2.428619430E-1,2.533950090E0,5.235000134E0,2.506050110E0,6.332962704E0
2.448244040E-1,2.457000017E0,4.660050392E0,2.467950106E0,5.817533538E0
2.467868660E-1,2.380050182E0,4.047000408E0,2.314950228E0,5.234677233E0
2.487492930E-1,2.341950178E0,3.433950186E0,2.085000038E0,4.650158027E0
2.507117550E-1,2.380050182E0,2.859000206E0,1.930950046E0,4.191311147E0
2.526746210E-1,2.341950178E0,2.322000027E0,1.855050087E0,3.783863843E0
2.546373690E-1,2.533950090E0,1.708950043E0,1.740000129E0,3.516960869E0
2.566000980E-1,2.610000134E0,1.173000097E0,1.624950051E0,3.290667500E0
2.585628320E-1,2.839950085E0,6.360000372E-1,1.548000097E0,3.296379352E0
2.605262120E-1,3.031950235E0,9.900000691E-2,1.510050058E0,3.388624265E0
2.624893890E-1,3.262050152E0,-2.830500007E-1,1.471050024E0,3.589578899E0
2.644518640E-1,3.415050268E0,-7.039500475E-1,1.471050024E0,3.784455334E0
2.664145450E-1,3.607050180E0,-1.279050112E0,1.510050058E0,4.114247364E0
2.683771490E-1,3.682950258E0,-1.624050021E0,1.471050024E0,4.285516217E0
2.703397750E-1,3.798000097E0,-2.046000004E0,1.510050058E0,4.570686156E0
2.723022270E-1,3.874950171E0,-2.428950071E0,1.548000097E0,4.828182015E0
2.742647170E-1,2.227050066E0,-5.494950294E0,1.855050087E0,6.212522963E0
2.762271740E-1,4.987050056E0,-6.798000336E0,1.126049995E0,8.505966460E0
2.781896400E-1,3.913050175E0,-6.376950264E0,1.701000094E0,7.672734692E0
2.801522800E-1,3.952050209E0,-6.913050175E0,1.624950051E0,8.127079810E0
2.821148690E-1,4.182000160E0,-7.642050266E0,1.395000100E0,8.822476007E0
2.840773640E-1,3.990000248E0,-7.987050533E0,1.203000069E0,9.008900453E0
2.860398800E-1,3.913050175E0,-7.909950256E0,8.200500607E-1,8.862942899E0
2.880028270E-1,2.955000162E0,-8.062950134E0,6.660000086E-1,8.613172867E0
2.899656470E-1,2.992950201E0,-8.485050201E0,5.509500504E-1,9.014287203E0
2.919282740E-1,2.878050089E0,-8.944950104E0,5.509500504E-1,9.412696247E0
2.938909570E-1,2.839950085E0,-9.250950813E0,5.509500504E-1,9.692726830E0
2.958542750E-1,2.419050217E0,-9.481050491E0,4.750500321E-1,9.796315374E0
2.978173790E-1,2.341950178E0,-9.865050316E0,2.830500007E-1,1.014317828E1
2.997801370E-1,2.227050066E0,-1.001805019E1,9.195000678E-2,1.026301790E1
3.017429960E-1,2.111999989E0,-1.013295078E1,-6.105000153E-2,1.035089188E1
3.037057500E-1,1.767000079E0,-1.005600071E1,-2.140500098E-1,1.021230909E1
3.056685350E-1,1.575000048E0,-1.009500027E1,-3.289500177E-1,1.022241966E1
3.076311410E-1,1.459950089E0,-1.009500027E1,-4.060500264E-1,1.020810273E1
3.095937850E-1,1.306950092E0,-1.001805019E1,-4.060500264E-1,1.011109909E1
3.115563500E-1,1.192050099E0,-9.826050758E0,-4.060500264E-1,9.906418806E0
3.135189390E-1,1.039050102E0,-9.711000443E0,-3.289500177E-1,9.771968216E0
3.154813790E-1,9.240000248E-1,-9.405000687E0,-2.520000041E-1,9.453640461E0
3.174438620E-1,7.320000529E-1,-9.021000862E0,-1.759500057E-1,9.052360965E0
3.194056630E-1,5.790000558E-1,-8.562000275E0,-2.205000073E-2,8.581583535E0
3.213676510E-1,5.020500422E-1,-7.795050144E0,1.680000126E-1,7.813007423E0
3.233296080E-1,4.639500082E-1,-6.874950409E0,4.750500321E-1,6.906943265E0
3.252915740E-1,5.410500169E-1,-5.610000134E0,8.580000401E-1,5.700964891E0
3.272545250E-1,3.490500152E-1,-4.461000443E0,1.203000069E0,4.633526737E0
3.292171870E-1,1.960500032E-1,-3.463950157E0,1.318050027E0,3.711420505E0
3.311803240E-1,1.570500135E-1,-2.697000027E0,1.432950020E0,3.058074494E0
3.331432980E-1,1.570500135E-1,-2.046000004E0,1.432950020E0,2.502823702E0
3.351060780E-1,8.100000024E-2,-1.432950020E0,1.318050027E0,1.948630964E0
3.370689150E-1,8.100000024E-2,-8.959500194E-1,1.126049995E0,1.441275834E0
3.390314920E-1,-1.099500060E-1,-3.979500234E-1,8.580000401E-1,9.521645308E-1
3.409941460E-1,-2.629500031E-1,-1.290000081E-1,5.899500251E-1,6.586537317E-1
3.429563490E-1,-3.780000210E-1,6.105000153E-2,3.600000143E-1,5.255579215E-1
3.449186850E-1,-3.780000210E-1,3.679500222E-1,2.830500007E-1,5.986556085E-1
3.468804470E-1,-1.480500102E-1,5.209500194E-1,3.600000143E-1,6.503135694E-1
3.488423770E-1,-3.299999982E-2,7.510500550E-1,5.130000114E-1,9.101286705E-1
3.508049740E-1,4.050000105E-3,9.810000658E-1,6.280500293E-1,1.164828043E0
3.527673750E-1,1.189500093E-1,1.249050021E0,7.810500264E-1,1.477942558E0
3.547298060E-1,1.570500135E-1,1.518000126E0,8.959500194E-1,1.769665371E0
3.566922250E-1,1.189500093E-1,1.786050081E0,1.011000037E0,2.055783323E0
3.586550550E-1,1.570500135E-1,2.053950071E0,1.087950110E0,2.329594610E0
3.606177640E-1,1.570500135E-1,2.284050226E0,1.050000072E0,2.518739822E0
3.625804090E-1,1.189500093E-1,2.437050104E0,1.050000072E0,2.656287346E0
3.645430730E-1,1.570500135E-1,2.667000055E0,1.087950110E0,2.884647196E0
3.665058230E-1,8.100000024E-2,2.821050167E0,1.087950110E0,3.024652127E0
3.684685420E-1,-3.299999982E-2,2.974050045E0,1.126049995E0,3.180259622E0
3.704311410E-1,4.200000316E-2,3.051000118E0,1.203000069E0,3.279874218E0
3.723937750E-1,4.050000105E-3,3.166050196E0,1.203000069E0,3.386901151E0
3.743562520E-1,-7.200000435E-2,3.319050074E0,1.203000069E0,3.531074420E0
3.763187750E-1,-7.200000435E-2,3.396000147E0,1.279950023E0,3.629913643E0
3.782812360E-1,-1.099500060E-1,3.472050190E0,1.240950108E0,3.688790953E0
3.802437080E-1,-1.099500060E-1,3.549000263E0,1.240950108E0,3.761309485E0
3.822063470E-1,-1.480500102E-1,3.586950064E0,1.203000069E0,3.786203736E0
3.841689370E-1,-1.099500060E-1,3.625950098E0,1.126049995E0,3.798366979E0
3.861313320E-1,-7.200000435E-2,3.664050102E0,1.087950110E0,3.822836983E0
3.880937850E-1,-7.200000435E-2,3.625950098E0,9.349500537E-1,3.745240942E0
3.900564960E-1,-7.200000435E-2,3.586950064E0,8.580000401E-1,3.688842478E0
3.920191140E-1,-7.200000435E-2,3.472050190E0,6.660000086E-1,3.536081522E0
3.939819100E-1,-3.299999982E-2,3.357000113E0,6.280500293E-1,3.415404163E0
3.959446530E-1,4.050000105E-3,3.280950069E0,5.509500504E-1,3.326889797E0
3.979077870E-1,4.050000105E-3,3.166050196E0,3.600000143E-1,3.186454182E0
3.998708070E-1,8.100000024E-2,2.935950041E0,2.830500007E-1,2.950674659E0
4.018337140E-1,1.570500135E-1,2.743950129E0,2.070000172E-1,2.756224959E0
4.037966550E-1,1.960500032E-1,2.629050016E0,1.300500035E-1,2.639555378E0
4.057592150E-1,1.960500032E-1,2.476050138E0,-2.205000073E-2,2.483897360E0
4.077218860E-1,1.960500032E-1,2.322000027E0,1.500000060E-2,2.330310007E0
4.096844910E-1,1.960500032E-1,2.208000183E0,-6.105000153E-2,2.217527343E0
4.116471160E-1,2.340000123E-1,2.092950106E0,-9.900000691E-2,2.108316189E0
4.136095550E-1,2.340000123E-1,2.016000032E0,-6.105000153E-2,2.030452964E0
4.155720450E-1,3.490500152E-1,1.900950074E0,-9.900000691E-2,1.935264349E0
4.175353560E-1,5.020500422E-1,1.786050081E0,-1.759500057E-1,1.863595327E0
4.194984270E-1,7.699500322E-1,1.594050050E0,-1.759500057E-1,1.778982017E0
4.214608300E-1,1.039050102E0,1.633050084E0,-1.759500057E-1,1.943562733E0
4.234234290E-1,6.940500140E-1,1.671000123E0,-2.140500098E-1,1.822022020E0
4.253860840E-1,5.790000558E-1,1.518000126E0,-3.670500219E-1,1.665620355E0
4.273486960E-1,8.089500666E-1,1.326000094E0,-5.970000029E-1,1.664056929E0
4.293111330E-1,9.240000248E-1,1.173000097E0,-6.739500165E-1,1.638265515E0
4.312736210E-1,1.039050102E0,9.810000658E-1,-8.269500136E-1,1.651009561E0
4.332364380E-1,1.306950092E0,7.510500550E-1,-9.420000315E-1,1.777514779E0
4.351991580E-1,1.459950089E0,6.739500165E-1,-9.810000658E-1,1.883619924E0
4.371619540E-1,1.651950121E0,5.209500194E-1,-1.057050109E0,2.029207495E0
4.391247150E-1,1.882050037E0,3.679500222E-1,-9.810000658E-1,2.154033586E0
4.410879820E-1,2.074050188E0,1.759500057E-1,-9.040500522E-1,2.269349925E0
4.430511000E-1,2.227050066E0,-1.500000060E-2,-7.890000343E-1,2.362731058E0
4.450143950E-1,2.457000017E0,-1.680000126E-1,-7.510500550E-1,2.574713435E0
4.469776380E-1,2.649000168E0,-2.440500110E-1,-5.590500236E-1,2.718326549E0
4.489400780E-1,2.839950085E0,-3.589500189E-1,-5.209500194E-1,2.909561912E0
4.509027700E-1,2.917050123E0,-4.360500276E-1,-4.440000355E-1,2.982692924E0
4.528654170E-1,3.031950235E0,-5.509500504E-1,-3.289500177E-1,3.099108953E0
4.548280780E-1,3.108000040E0,-7.039500475E-1,-3.670500219E-1,3.207792954E0
4.567906850E-1,3.223050117E0,-7.810500264E-1,-2.910000086E-1,3.329079784E0
4.587533080E-1,3.262050152E0,-9.340500236E-1,-1.369500011E-1,3.395905762E0
4.607160660E-1,3.300000191E0,-1.048950076E0,-9.900000691E-2,3.464115836E0
4.626787780E-1,3.337950230E0,-1.164000034E0,-6.105000153E-2,3.535609554E0
4.646415570E-1,3.415050268E0,-1.279050112E0,-6.105000153E-2,3.647226977E0
4.666043160E-1,3.376950264E0,-1.356000066E0,-9.900000691E-2,3.640375017E0
4.685671320E-1,3.337950230E0,-1.432950020E0,-9.900000691E-2,3.633876511E0
4.705299320E-1,3.262050152E0,-1.509000063E0,-6.105000153E-2,3.594687676E0
4.724928400E-1,3.300000191E0,-1.585950017E0,-6.105000153E-2,3.661825476E0
4.744557100E-1,3.223050117E0,-1.624050021E0,-6.105000153E-2,3.609614610E0
4.764184630E-1,3.223050117E0,-1.624050021E0,-6.105000153E-2,3.609614610E0
4.783812510E-1,3.147000074E0,-1.663050056E0,-6.105000153E-2,3.559925850E0
4.803438810E-1,3.147000074E0,-1.701000094E0,-9.900000691E-2,3.578660614E0
4.823065580E-1,3.031950235E0,-1.738950133E0,-1.369500011E-1,3.497917252E0
4.842692780E-1,2.992950201E0,-1.738950133E0,-1.759500057E-1,3.465927996E0
4.862319990E-1,2.839950085E0,-1.738950133E0,-1.369500011E-1,3.332869537E0
4.881948210E-1,2.725050211E0,-1.738950133E0,-2.140500098E-1,3.239701163E0
4.901576140E-1,2.649000168E0,-1.624050021E0,-2.910000086E-1,3.120804602E0
4.921202000E-1,2.494950056E0,-1.471050024E0,-3.289500177E-1,2.914956615E0
4.940828470E-1,2.419050217E0,-1.279050112E0,-4.819500148E-1,2.778497608E0
4.960454620E-1,2.304000139E0,-1.164000034E0,-4.819500148E-1,2.625945266E0
4.980080830E-1,2.149950027E0,-8.190000653E-1,-5.209500194E-1,2.358905498E0
4.999708310E-1,2.035050154E0,-5.509500504E-1,-5.970000029E-1,2.191206081E0
5.019335420E-1,1.882050037E0,-2.830500007E-1,-7.120500207E-1,2.032054349E0
5.038952860E-1,1.690050125E0,-5.295000225E-2,-8.269500136E-1,1.882264448E0
5.058573140E-1,1.537050128E0,1.759500057E-1,-9.040500522E-1,1.791867182E0
5.078198440E-1,1.422000051E0,5.209500194E-1,-9.810000658E-1,1.804393027E0
5.097822300E-1,1.384050012E0,8.659500480E-1,-1.018950105E0,1.924505972E0
5.117450650E-1,1.384050012E0,1.249050021E0,-9.420000315E-1,2.088799763E0
5.137077680E-1,1.306950092E0,1.633050084E0,-9.810000658E-1,2.310266705E0
5.156705490E-1,1.306950092E0,2.016000032E0,-1.018950105E0,2.609719140E0
5.176333070E-1,1.230000019E0,2.437050104E0,-9.040500522E-1,2.875659881E0
5.195958490E-1,1.230000019E0,2.859000206E0,-7.510500550E-1,3.201696177E0
5.215584580E-1,1.192050099E0,3.166050196E0,-8.659500480E-1,3.492094897E0
5.235212540E-1,1.306950092E0,3.625950098E0,-7.510500550E-1,3.926793710E0
5.254839950E-1,1.306950092E0,4.239000320E0,-3.670500219E-1,4.451063691E0
5.274459140E-1,1.306950092E0,4.774950027E0,9.195000678E-2,4.951436268E0
5.294080740E-1,1.306950092E0,5.464950085E0,5.899500251E-1,5.649941504E0
5.313709460E-1,1.345050097E0,6.154950142E0,1.240950108E0,6.421255966E0
5.333336100E-1,1.345050097E0,6.997950554E0,1.701000094E0,7.326245494E0
5.352962180E-1,1.384050012E0,7.918050289E0,2.275950193E0,8.354104626E0
5.372588430E-1,1.422000051E0,9.030000687E0,2.736000061E0,9.541943873E0
5.392216360E-1,1.384050012E0,1.044795036E1,3.234000206E0,1.102424685E1
5.411843800E-1,1.384050012E0,1.201905060E1,3.502950191E0,1.259538931E1
5.431469240E-1,1.537050128E0,1.374405098E1,3.808950186E0,1.434467016E1
5.451095300E-1,1.804950118E0,1.527705097E1,4.153950214E0,1.593428485E1
5.470721460E-1,1.882050037E0,1.684905052E1,4.576050282E0,1.756054817E1
5.490347590E-1,1.882050037E0,1.830495071E1,5.151000023E0,1.910879730E1
5.509970600E-1,1.537050128E0,2.006805038E1,5.878950119E0,2.096786169E1
5.529594530E-1,1.153950095E0,2.229105186E1,6.531000137E0,2.325675293E1
5.549218760E-1,9.619500637E-1,2.482095146E1,6.913950443E0,2.578386492E1
5.568842930E-1,6.169500351E-1,2.788695145E1,6.913950443E0,2.873787395E1
5.588460420E-1,-4.549500346E-1,3.179595184E1,6.492000103E0,3.245513208E1
5.608079870E-1,-2.065050125E0,3.704700089E1,5.994000435E0,3.758553908E1
5.627707160E-1,-3.100050211E0,4.229805374E1,4.498950005E0,4.264945736E1
5.647332160E-1,-3.636000156E0,4.655295181E1,2.085000038E0,4.674125635E1
5.666969190E-1,-4.363950253E0,5.042400360E1,-7.890000343E-1,5.061864006E1
5.686602790E-1,-4.786050320E0,5.391105270E1,-4.200000286E0,5.428579818E1
5.706227670E-1,-5.169000149E0,5.724600220E1,-8.032950401E0,5.803750186E1
5.725855110E-1,-5.323050022E0,6.027405167E1,-1.071600056E1,6.145021427E1
5.745482840E-1,-5.361000061E0,6.249705124E1,-1.255605030E1,6.397090068E1
5.765110480E-1,-5.476050377E0,6.399195480E1,-1.397400093E1,6.572845738E1
5.784740030E-1,-5.974050522E0,6.445200348E1,-1.500900078E1,6.644561789E1
5.804368990E-1,-6.586950302E0,6.345495224E1,-1.554495049E1,6.566250348E1
5.823996480E-1,-7.201050282E0,6.031200409E1,-1.554495049E1,6.269799397E1
5.843624400E-1,-6.778950214E0,5.529105377E1,-1.485495090E1,5.765175071E1
5.863255640E-1,-6.549000263E0,5.069205093E1,-1.393500042E1,5.297884171E1
5.882885910E-1,-6.778950214E0,4.678305054E1,-1.224900055E1,4.883283729E1
5.902518570E-1,-6.741000175E0,4.341000366E1,-9.910950661E0,4.503439179E1
5.922150530E-1,-6.280950069E0,4.026705170E1,-7.495950222E0,4.143760437E1
5.941779300E-1,-5.743950367E0,3.743100357E1,-5.464950085E0,3.826145153E1
5.961409010E-1,-5.169000149E0,3.513105011E1,-3.894000292E0,3.572215675E1
5.981038610E-1,-4.863000393E0,3.336795044E1,-2.667000055E0,3.382575614E1
6.000668240E-1,-4.747950077E0,3.183495140E1,-1.824000120E0,3.223870557E1
6.020299090E-1,-4.363950253E0,3.053205109E1,-1.479000092E0,3.087778565E1
6.039929660E-1,-3.828000069E0,2.941995049E1,-1.555950046E0,2.970872013E1
6.059556870E-1,-3.022950172E0,2.861505127E1,-2.014950037E0,2.884474667E1
6.079185070E-1,-2.332950115E0,2.792505074E1,-2.322000027E0,2.811837120E1
6.098816260E-1,-1.681950092E0,2.734995079E1,-2.974050045E0,2.756254230E1
6.118446580E-1,-1.068000078E0,2.689005089E1,-3.739950180E0,2.716988569E1
6.138077140E-1,-5.700000525E-1,2.650695038E1,-4.507050037E0,2.689343449E1
6.157707830E-1,-1.480500102E-1,2.612400055E1,-5.119950294E0,2.662140519E1
6.177338170E-1,4.200000316E-2,2.593200111E1,-5.695050240E0,2.655002906E1
6.196968620E-1,1.189500093E-1,2.577900124E1,-6.154950142E0,2.650385755E1
6.216599430E-1,3.109500110E-1,2.566395187E1,-6.307950497E0,2.642963025E1
6.236230140E-1,4.260000288E-1,2.566395187E1,-6.346950531E0,2.644056888E1
6.255866880E-1,6.169500351E-1,2.562600136E1,-6.154950142E0,2.636201783E1
6.275501780E-1,7.320000529E-1,2.570205116E1,-5.809950352E0,2.636070525E1
6.295129600E-1,7.320000529E-1,2.570205116E1,-5.388000488E0,2.627093084E1
6.314759490E-1,6.940500140E-1,2.558700180E1,-4.698000431E0,2.602398076E1
6.334385450E-1,7.699500322E-1,2.547195053E1,-3.894000292E0,2.577937791E1
6.354012570E-1,6.169500351E-1,2.524200058E1,-3.280050039E0,2.546169572E1
6.373634540E-1,8.100000024E-2,2.493600082E1,-2.820000172E0,2.509508117E1
6.393257990E-1,1.960500032E-1,2.462895203E1,-2.475000143E0,2.475377424E1
6.412888200E-1,3.109500110E-1,2.443800163E1,-2.053950071E0,2.452613554E1
6.432516430E-1,3.490500152E-1,2.397795105E1,-1.824000120E0,2.404975985E1
6.452144500E-1,1.570500135E-1,2.370900154E1,-1.555950046E0,2.376052187E1
6.471772610E-1,4.200000316E-2,2.336400032E1,-1.326000094E0,2.340163565E1
6.491399640E-1,-1.870500147E-1,2.301900101E1,-1.134000063E0,2.304767561E1
6.511027080E-1,-3.400500119E-1,2.259795189E1,-1.018950105E0,2.262346841E1
6.530656610E-1,-4.549500346E-1,2.221500015E1,-9.810000658E-1,2.224130330E1
6.550285530E-1,-6.469500065E-1,2.190795135E1,-8.659500480E-1,2.193460158E1
6.569913020E-1,-7.620000243E-1,2.160105133E1,-6.739500165E-1,2.162499182E1
6.589540930E-1,-8.770500422E-1,2.140995026E1,-3.289500177E-1,2.143043151E1
6.609164930E-1,-8.770500422E-1,2.121795082E1,1.500000060E-2,2.123607494E1
6.628790110E-1,-7.620000243E-1,2.083500099E1,3.220500052E-1,2.085141786E1
6.648420020E-1,-4.549500346E-1,2.045100021E1,7.429500222E-1,2.046954724E1
6.668048550E-1,-2.250000089E-1,2.014500046E1,1.011000037E0,2.017160850E1
6.687677900E-1,4.200000316E-2,1.964700127E1,1.126049995E0,1.967928889E1
6.707307010E-1,2.340000123E-1,1.933995056E1,1.240950108E0,1.938113518E1
6.726938670E-1,3.109500110E-1,1.895700073E1,1.395000100E0,1.901080198E1
6.746569470E-1,5.410500169E-1,1.853505135E1,1.471050024E0,1.860120565E1
6.766207450E-1,6.550500393E-1,1.807500076E1,1.510050058E0,1.814979323E1
6.785843320E-1,6.940500140E-1,1.776900101E1,1.548000097E0,1.784980130E1
6.805473230E-1,6.940500140E-1,1.734705162E1,1.624950051E0,1.743681072E1
6.825104880E-1,7.320000529E-1,1.684905052E1,1.701000094E0,1.695050822E1
6.844735440E-1,8.470500112E-1,1.635000038E1,1.855050087E0,1.647668708E1
6.864366360E-1,9.240000248E-1,1.577505112E1,1.855050087E0,1.591060101E1
6.883997100E-1,1.039050102E0,1.516200066E1,1.816050053E0,1.530568283E1
6.903627890E-1,1.077000022E0,1.454895115E1,1.777950048E0,1.469670082E1
6.923256860E-1,1.114950061E0,1.385895061E1,1.624950051E0,1.399836021E1
6.942886360E-1,1.077000022E0,1.320795059E1,1.510050058E0,1.333754622E1
6.962517620E-1,1.192050099E0,1.247895050E1,1.510050058E0,1.262637874E1
6.982148160E-1,1.192050099E0,1.175100040E1,1.432950020E0,1.189791325E1
7.001778530E-1,1.153950095E0,1.098495007E1,1.432950020E0,1.113795648E1
7.021408950E-1,1.192050099E0,1.025595093E1,1.318050027E0,1.040878325E1
7.041039770E-1,1.192050099E0,9.565950394E0,1.318050027E0,9.729627241E0
7.060670470E-1,1.192050099E0,8.838000298E0,1.318050027E0,9.014903692E0
7.080297960E-1,1.114950061E0,8.187000275E0,1.356000066E0,8.373101177E0
7.099926500E-1,1.039050102E0,7.573050499E0,1.395000100E0,7.770247374E0
7.119559440E-1,8.850000501E-1,6.997950554E0,1.432950020E0,7.197769294E0
7.139191090E-1,8.470500112E-1,6.424050331E0,1.471050024E0,6.644539454E0
7.158819920E-1,8.089500666E-1,5.887050152E0,1.471050024E0,6.121743859E0
7.178449570E-1,8.470500112E-1,5.389050484E0,1.510050058E0,5.660354231E0
7.198080120E-1,8.089500666E-1,4.966950417E0,1.510050058E0,5.254069645E0
7.217710370E-1,8.470500112E-1,4.468950272E0,1.471050024E0,4.780480983E0
7.237339890E-1,9.619500637E-1,3.931950092E0,1.471050024E0,4.306920899E0
7.256969620E-1,1.077000022E0,3.511050224E0,1.471050024E0,3.956183881E0
7.276600560E-1,1.192050099E0,3.012000084E0,1.471050024E0,3.557684095E0
7.296231140E-1,1.306950092E0,2.514000177E0,1.318050027E0,3.124991409E0
7.315860150E-1,1.345050097E0,2.092950106E0,1.240950108E0,2.780208099E0
7.335489620E-1,1.498950124E0,1.633050084E0,1.050000072E0,2.452795181E0
7.355118810E-1,1.651950121E0,1.134000063E0,1.011000037E0,2.244329838E0
7.374748090E-1,1.843950033E0,7.129500508E-1,9.349500537E-1,2.186911316E0
7.394385860E-1,1.996950150E0,2.530499995E-1,7.810500264E-1,2.159139492E0
7.414021140E-1,2.188950062E0,-1.680000126E-1,7.429500222E-1,2.317693058E0
7.433649480E-1,2.341950178E0,-5.130000114E-1,6.660000086E-1,2.488263583E0
7.453279760E-1,2.494950056E0,-8.959500194E-1,5.130000114E-1,2.700124299E0
7.472908810E-1,2.572050095E0,-1.279050112E0,5.130000114E-1,2.917975306E0
7.492538230E-1,2.610000134E0,-1.624050021E0,4.360500276E-1,3.104799316E0
7.512175070E-1,2.649000168E0,-1.969050050E0,3.600000143E-1,3.320234931E0
7.531809740E-1,2.686950207E0,-2.275950193E0,3.220500052E-1,3.536010026E0
7.551440240E-1,2.725050211E0,-2.620950222E0,2.449500114E-1,3.788836131E0
7.571071690E-1,2.725050211E0,-2.851050138E0,2.070000172E-1,3.949333431E0
7.590687480E-1,2.572050095E0,-3.271950245E0,2.070000172E-1,4.167007212E0
7.610307850E-1,-4.549500346E-1,-6.990000248E0,8.959500194E-1,7.061855949E0
7.629949850E-1,4.066950321E0,-7.372950554E0,-3.289500177E-1,8.426665586E0
7.649585520E-1,3.376950264E0,-7.335000515E0,1.680000126E-1,8.076772229E0
7.669217210E-1,3.262050152E0,-7.756950378E0,9.195000678E-2,8.415444443E0
7.688850100E-1,2.265000105E0,-7.756950378E0,-9.900000691E-2,8.081479175E0
7.708480050E-1,2.725050211E0,-7.909950256E0,-2.910000086E-1,8.371253951E0
7.728110870E-1,2.380050182E0,-7.795050144E0,-5.209500194E-1,8.166935444E0
7.747742070E-1,1.729050040E0,-8.025000572E0,-5.590500236E-1,8.228170219E0
7.767373160E-1,1.996950150E0,-8.562000275E0,-4.060500264E-1,8.801166697E0
7.787002220E-1,2.494950056E0,-9.060000420E0,-3.289500177E-1,9.403009704E0
7.806631780E-1,2.686950207E0,-9.366000175E0,-1.759500057E-1,9.745389633E0
7.826260960E-1,2.572050095E0,-9.442950249E0,-1.369500011E-1,9.787926562E0
7.845890250E-1,2.380050182E0,-9.634950638E0,1.500000060E-2,9.924572417E0
7.865517210E-1,2.649000168E0,-9.750000000E0,3.220500052E-1,1.010858141E1
7.885144860E-1,2.533950090E0,-9.826050758E0,2.830500007E-1,1.015146757E1
7.904777920E-1,2.419050217E0,-9.787950516E0,2.449500114E-1,1.008542412E1
7.924409420E-1,2.610000134E0,-9.750000000E0,1.300500035E-1,1.009413264E1
7.944040520E-1,2.494950056E0,-9.520050049E0,1.300500035E-1,9.842410361E0
7.963671740E-1,2.188950062E0,-9.175050735E0,2.070000172E-1,9.434824184E0
7.983291620E-1,1.920000076E0,-8.944950104E0,2.449500114E-1,9.151968813E0
8.002914820E-1,1.882050037E0,-8.407950401E0,5.509500504E-1,8.633613858E0
8.022550310E-1,1.959000111E0,-7.642050266E0,1.050000072E0,7.958713078E0
8.042182000E-1,2.304000139E0,-6.798000336E0,1.240950108E0,7.284310700E0
8.061812620E-1,2.419050217E0,-5.802000046E0,1.471050024E0,6.455927250E0
8.081443560E-1,2.380050182E0,-4.804950237E0,1.585950017E0,5.591728097E0
8.101076090E-1,2.265000105E0,-3.847050190E0,1.855050087E0,4.834380153E0
8.120708160E-1,2.149950027E0,-3.042000055E0,1.969950080E0,4.213876217E0
8.140337360E-1,1.920000076E0,-2.391000032E0,2.008050203E0,3.665453187E0
8.159967410E-1,1.690050125E0,-1.777950048E0,1.930950046E0,3.121849432E0
8.179600090E-1,1.614000082E0,-1.279050112E0,1.930950046E0,2.823036226E0
8.199232000E-1,1.498950124E0,-8.580000401E-1,1.816050053E0,2.506202972E0
8.218860790E-1,1.459950089E0,-4.360500276E-1,1.663050056E0,2.255510891E0
8.238490490E-1,1.459950089E0,-1.680000126E-1,1.585950017E0,2.162155342E0
8.258112480E-1,1.384050012E0,6.105000153E-2,1.510050058E0,2.049285904E0
8.277736690E-1,1.459950089E0,3.289500177E-1,1.471050024E0,2.098487682E0
8.297368120E-1,1.459950089E0,6.360000372E-1,1.510050058E0,2.194584583E0
8.316997440E-1,1.384050012E0,8.659500480E-1,1.510050058E0,2.223896378E0
8.336623510E-1,1.345050097E0,1.096050024E0,1.471050024E0,2.274746929E0
8.356250540E-1,1.345050097E0,1.249050021E0,1.395000100E0,2.305495825E0
8.375878030E-1,1.345050097E0,1.479000092E0,1.240950108E0,2.352989206E0
8.395505280E-1,1.345050097E0,1.786050081E0,1.050000072E0,2.470148741E0
8.415136650E-1,1.306950092E0,2.016000032E0,8.959500194E-1,2.564195997E0
8.434766820E-1,1.306950092E0,2.169000149E0,7.429500222E-1,2.639063267E0
8.454397690E-1,1.306950092E0,2.437050104E0,7.050000429E-1,2.853831953E0
8.474028360E-1,1.306950092E0,2.590950012E0,5.899500251E-1,2.961280389E0
8.493657800E-1,1.306950092E0,2.821050167E0,5.509500504E-1,3.157528867E0
8.513287610E-1,1.306950092E0,3.012000084E0,4.360500276E-1,3.312159820E0
8.532923490E-1,1.306950092E0,3.204000235E0,3.600000143E-1,3.478984918E0
8.552557590E-1,1.306950092E0,3.357000113E0,3.220500052E-1,3.616805843E0
8.572189600E-1,1.306950092E0,3.586950064E0,3.600000143E-1,3.834570291E0
8.591822230E-1,1.269000053E0,3.856050253E0,2.830500007E-1,4.069349087E0
8.611452980E-1,1.114950061E0,4.009050369E0,2.449500114E-1,4.168404852E0
8.631084380E-1,1.077000022E0,4.047000408E0,1.680000126E-1,4.191224804E0
8.650713240E-1,1.192050099E0,4.162050247E0,-6.105000153E-2,4.329823646E0
8.670342840E-1,8.470500112E-1,4.354050159E0,-1.759500057E-1,4.439167142E0
8.689962550E-1,2.719500065E-1,4.354050159E0,-4.060500264E-1,4.381390900E0
8.709585150E-1,4.050000105E-3,4.276950359E0,-6.360000372E-1,4.323981594E0
8.729217360E-1,-2.250000089E-1,4.085999966E0,-6.360000372E-1,4.141318241E0
8.748846720E-1,-3.780000210E-1,3.817050219E0,-6.739500165E-1,3.894478786E0
8.768474590E-1,-3.400500119E-1,3.549000263E0,-6.739500165E-1,3.628394342E0
8.788102900E-1,-2.629500031E-1,3.127050161E0,-7.120500207E-1,3.217856530E0
8.807731830E-1,-1.480500102E-1,2.743950129E0,-7.890000343E-1,2.858968725E0
8.827360570E-1,-1.480500102E-1,2.437050104E0,-9.420000315E-1,2.616963140E0
8.846989640E-1,-2.250000089E-1,2.208000183E0,-1.018950105E0,2.442160750E0
8.866618790E-1,-2.629500031E-1,2.016000032E0,-1.096050024E0,2.309702251E0
8.886244890E-1,-3.400500119E-1,1.786050081E0,-1.210950017E0,2.184492812E0
8.905871890E-1,-4.170000255E-1,1.518000126E0,-1.326000094E0,2.058273464E0
8.925501040E-1,-5.320500135E-1,1.288050056E0,-1.363950014E0,1.950002514E0
8.945129560E-1,-5.700000525E-1,1.018950105E0,-1.441050053E0,1.854665638E0
8.964761220E-1,-5.700000525E-1,8.280000687E-1,-1.402050018E0,1.725174898E0
8.984391920E-1,-6.079500318E-1,5.980500579E-1,-1.441050053E0,1.674482716E0
9.004019100E-1,-5.320500135E-1,4.060500264E-1,-1.479000092E0,1.623390006E0
9.023647320E-1,-6.079500318E-1,2.530499995E-1,-1.479000092E0,1.618974618E0
9.043283920E-1,-6.469500065E-1,6.105000153E-2,-1.516950130E0,1.650275465E0
9.062918070E-1,-5.700000525E-1,-1.290000081E-1,-1.516950130E0,1.625631803E0
9.082548270E-1,-6.079500318E-1,-1.680000126E-1,-1.594050050E0,1.714299509E0
9.102179630E-1,-5.700000525E-1,-2.830500007E-1,-1.594050050E0,1.716395329E0
9.121808490E-1,-5.320500135E-1,-4.740000367E-1,-1.555950046E0,1.711354375E0
9.141438090E-1,-6.079500318E-1,-6.280500293E-1,-1.516950130E0,1.750767768E0
9.161067260E-1,-4.930500090E-1,-7.429500222E-1,-1.516950130E0,1.759605281E0
9.180696550E-1,-4.930500090E-1,-9.340500236E-1,-1.594050050E0,1.912209016E0
9.200325460E-1,-4.170000255E-1,-1.011000037E0,-1.516950130E0,1.870066254E0
9.219954380E-1,-3.780000210E-1,-1.164000034E0,-1.441050053E0,1.890609783E0
9.239582320E-1,-3.019500077E-1,-1.203000069E0,-1.363950014E0,1.843567903E0
9.259210540E-1,-2.250000089E-1,-1.318050027E0,-1.326000094E0,1.883124300E0
9.278838140E-1,-1.870500147E-1,-1.318050027E0,-1.249050021E0,1.825477893E0
9.298465920E-1,-1.099500060E-1,-1.356000066E0,-1.171950102E0,1.795631428E0
9.318093600E-1,-1.099500060E-1,-1.356000066E0,-1.134000063E0,1.771096080E0
9.337721310E-1,-7.200000435E-2,-1.356000066E0,-1.018950105E0,1.697698293E0
9.357350340E-1,4.050000105E-3,-1.318050027E0,-1.057050109E0,1.689564207E0
9.376978980E-1,4.200000316E-2,-1.318050027E0,-9.040500522E-1,1.598851579E0
9.396608760E-1,8.100000024E-2,-1.279050112E0,-8.269500136E-1,1.525246378E0
9.416238210E-1,1.570500135E-1,-1.203000069E0,-7.120500207E-1,1.406729933E0
9.435870720E-1,2.340000123E-1,-1.126049995E0,-5.970000029E-1,1.295821593E0
9.455502540E-1,3.109500110E-1,-1.048950076E0,-4.819500148E-1,1.195517456E0
9.475129530E-1,3.490500152E-1,-9.730500579E-1,-5.590500236E-1,1.175244339E0
9.494757940E-1,4.260000288E-1,-8.190000653E-1,-5.209500194E-1,1.060012290E0
9.514396320E-1,5.410500169E-1,-7.039500475E-1,-5.970000029E-1,1.069901768E0
9.534031770E-1,6.169500351E-1,-6.660000086E-1,-6.739500165E-1,1.130659976E0
9.553663100E-1,6.550500393E-1,-4.740000367E-1,-7.120500207E-1,1.077395851E0
9.573295630E-1,7.699500322E-1,-3.979500234E-1,-7.890000343E-1,1.172053040E0
9.592927900E-1,8.089500666E-1,-3.210000098E-1,-7.890000343E-1,1.174717954E0
9.612560250E-1,8.089500666E-1,-2.440500110E-1,-8.269500136E-1,1.182288858E0
9.632189390E-1,8.850000501E-1,-1.680000126E-1,-8.659500480E-1,1.249527342E0
9.651819480E-1,9.240000248E-1,-1.290000081E-1,-7.510500550E-1,1.197703316E0
9.671442910E-1,9.619500637E-1,2.295000106E-2,-5.209500194E-1,1.094195389E0
9.691068470E-1,9.240000248E-1,1.759500057E-1,-2.520000041E-1,9.737753603E-1
9.710690670E-1,1.039050102E0,3.679500222E-1,1.500000060E-2,1.102378036E0
9.730313860E-1,1.077000022E0,5.209500194E-1,3.600000143E-1,1.249367032E0
9.749944120E-1,1.192050099E0,6.739500165E-1,8.200500607E-1,1.596143529E0
9.769572300E-1,1.306950092E0,8.659500480E-1,1.318050027E0,2.048229456E0
9.789205310E-1,1.345050097E0,1.096050024E0,1.585950017E0,2.350685618E0
9.808836910E-1,1.459950089E0,1.363950014E0,1.930950046E0,2.778557536E0
9.828467550E-1,1.575000048E0,1.671000123E0,2.275950193E0,3.233081478E0
9.848098470E-1,1.729050040E0,1.978050113E0,2.430000067E0,3.578714380E0
9.867727410E-1,1.882050037E0,2.322000027E0,2.391000032E0,3.827620360E0
9.887356930E-1,2.074050188E0,2.667000055E0,2.545050144E0,4.229876324E0
9.906988260E-1,2.227050066E0,3.088950157E0,2.583000183E0,4.601440537E0
9.926619130E-1,2.380050182E0,3.511050224E0,2.659050226E0,5.006262144E0
9.946249890E-1,2.649000168E0,3.931950092E0,2.812950134E0,5.512723635E0
9.965880690E-1,2.802000046E0,4.392000198E0,3.043050051E0,6.033326082E0
9.985513240E-1,3.147000074E0,4.852050304E0,3.349050045E0,6.682973726E0
1.000514528E0,3.568050146E0,5.503950119E0,3.541050196E0,7.454091846E0
1.002477764E0,3.913050175E0,6.193950176E0,3.847950220E0,8.275487983E0
1.004440990E0,4.297049999E0,6.997950554E0,4.116000175E0,9.185717615E0
1.006404357E0,4.603050232E0,8.110050201E0,4.461000443E0,1.033738413E1
1.008367682E0,4.872000217E0,9.298050880E0,4.729050159E0,1.151321205E1
1.010330943E0,3.760050297E0,1.113795090E1,5.227050304E0,1.286522380E1
1.012294223E0,3.031950235E0,1.313100052E1,5.611050129E0,1.459793754E1
1.014257395E0,2.992950201E0,1.527705097E1,6.031950474E0,1.669522278E1
1.016220602E0,2.955000162E0,1.780695152E1,6.454050541E0,1.916961963E1
1.018183702E0,2.917050123E0,2.091105080E1,6.799050331E0,2.218126038E1
1.020146833E0,2.649000168E0,2.462895203E1,6.991050243E0,2.573863367E1
1.022110080E0,2.419050217E0,2.865405083E1,7.066950321E0,2.961162305E1
1.024073293E0,2.265000105E0,3.306105042E1,6.721950531E0,3.381342779E1
1.026036303E0,2.533950090E0,3.704700089E1,6.223950386E0,3.765154361E1
1.027999372E0,2.917050123E0,4.103295135E1,5.188950062E0,4.146248281E1
1.029962135E0,3.721950293E0,4.456005096E1,3.502950191E0,4.485222086E1
1.031924987E0,4.450050354E0,4.708905411E1,1.165050030E0,4.731320436E1
1.033888597E0,4.909950256E0,4.912005234E1,-2.053950071E0,4.940754865E1
1.035851985E0,4.987050056E0,5.030895233E1,-6.423000336E0,5.096191015E1
1.037814695E0,4.297049999E0,5.142000198E1,-1.052400017E1,5.266152127E1
1.039777603E0,2.839950085E0,5.230200195E1,-1.424205112E1,5.428075852E1
1.041739627E0,7.699500322E-1,5.326005173E1,-1.642695045E1,5.574110363E1
1.043701910E0,-1.030050039E0,5.429505157E1,-1.700205040E1,5.690415931E1
1.045665257E0,-1.911000133E0,5.444805145E1,-1.558305073E1,5.666633655E1
1.047628293E0,-1.987950087E0,5.418000412E1,-1.328400040E1,5.582015280E1
1.049591076E0,-1.642950058E0,5.314500427E1,-1.102200031E1,5.430078503E1
1.051553924E0,-1.375050068E0,5.153505325E1,-9.298050880E0,5.238517182E1
1.053517220E0,-1.144950032E0,4.954200363E1,-7.803000450E0,5.016580360E1
1.055480384E0,-1.260000110E0,4.774095154E1,-6.691050529E0,4.822402110E1
1.057443402E0,-1.758000135E0,4.616895294E1,-5.656950474E0,4.654743676E1
1.059406463E0,-2.371050119E0,4.463595200E1,-4.774950027E0,4.495320052E1
1.061369227E0,-3.022950172E0,4.294995117E1,-3.970050097E0,4.323884632E1
1.063332078E0,-3.790050268E0,4.145505142E1,-3.049950123E0,4.173952522E1
1.065294833E0,-4.363950253E0,4.015200043E1,-2.130000114E0,4.044458061E1
1.067257617E0,-4.900950432E0,3.884895325E1,-1.363950014E0,3.918061821E1
1.069220383E0,-4.978050232E0,3.735405350E1,-9.420000315E-1,3.769606957E1
1.071183155E0,-4.594050407E0,3.589695358E1,-8.659500480E-1,3.620008902E1
1.073146112E0,-4.096050262E0,3.470895004E1,-1.249050021E0,3.497211699E1
1.075109008E0,-3.520950079E0,3.375105286E1,-1.671000123E0,3.397532781E1
1.077071892E0,-3.291000128E0,3.317595291E1,-2.206950188E0,3.341175186E1
1.079034779E0,-3.100050211E0,3.264000320E1,-2.859000206E0,3.291130509E1
1.080997888E0,-2.946000099E0,3.214095306E1,-3.472050190E0,3.246189940E1
1.082960931E0,-2.640000105E0,3.179595184E1,-3.739950180E0,3.212381331E1
1.084923844E0,-2.332950115E0,3.148995209E1,-4.123950005E0,3.184441399E1
1.086886789E0,-1.834950089E0,3.110700226E1,-4.315050125E0,3.145842159E1
1.088849528E0,-1.375050068E0,3.068505096E1,-4.468050003E0,3.103911381E1
1.090812328E0,-1.106999993E0,3.045495224E1,-4.660050392E0,3.082929831E1
1.092775451E0,-7.999500632E-1,3.007200050E1,-4.774950027E0,3.045923968E1
1.094738480E0,-4.549500346E-1,2.957295227E1,-4.852050304E0,2.997180138E1
1.096701740E0,-1.870500147E-1,2.926695061E1,-4.774950027E0,2.965450275E1
1.098664936E0,4.050000105E-3,2.884500122E1,-4.545000076E0,2.920087563E1
1.100628578E0,2.340000123E-1,2.857695198E1,-4.084949970E0,2.886838681E1
1.102592090E0,5.790000558E-1,2.823195076E1,-3.664050102E0,2.847461234E1
1.104555274E0,1.077000022E0,2.807895088E1,-2.974050045E0,2.825654588E1
1.106518554E0,1.537050128E0,2.765700150E1,-2.590050220E0,2.782050709E1
1.108481402E0,1.920000076E0,2.715900040E1,-2.667000055E0,2.735709400E1
1.110444386E0,2.227050066E0,2.658405113E1,-2.590050220E0,2.680260970E1
1.112407658E0,2.610000134E0,2.581695175E1,-2.322000027E0,2.605223182E1
1.114370845E0,2.802000046E0,2.520405197E1,-2.014950037E0,2.543925045E1
1.116333904E0,2.955000162E0,2.455200195E1,-1.708950043E0,2.478816928E1
1.118297001E0,3.147000074E0,2.386305046E1,-1.326000094E0,2.410616235E1
1.120260078E0,3.223050117E0,2.317305183E1,-1.096050024E0,2.342177852E1
1.122223159E0,3.300000191E0,2.252100182E1,-7.890000343E-1,2.277516290E1
1.124186594E0,3.376950264E0,2.183100128E1,-4.440000355E-1,2.209510231E1
1.126149926E0,3.300000191E0,2.114100075E1,1.500000060E-2,2.139701238E1
1.128111834E0,3.337950230E0,2.064300156E1,4.360500276E-1,2.091567748E1
1.130074159E0,3.300000191E0,1.995300102E1,1.050000072E0,2.025129011E1
1.132037229E0,3.184950113E0,1.945500183E1,1.510050058E0,1.977172867E1
1.134000080E0,3.147000074E0,1.888005066E1,1.893000126E0,1.923391203E1
1.135963151E0,3.147000074E0,1.822800064E1,2.353049994E0,1.864672789E1
1.137926157E0,3.108000040E0,1.750005150E1,2.620950222E0,1.796610271E1
1.139888752E0,3.031950235E0,1.684905052E1,2.736000061E0,1.733692366E1
1.141851467E0,2.955000162E0,1.619700050E1,2.812950134E0,1.670292010E1
1.143814240E0,2.917050123E0,1.543095112E1,2.851050138E0,1.596094987E1
1.145776999E0,2.802000046E0,1.470195103E1,2.889000177E0,1.524286359E1
1.147740311E0,2.610000134E0,1.405095100E1,2.928000212E0,1.458816335E1
1.149703461E0,2.457000017E0,1.339905071E1,3.081000090E0,1.396653037E1
1.151666166E0,2.380050182E0,1.270905018E1,3.043050051E0,1.328325069E1
1.153629001E0,2.265000105E0,1.198095036E1,3.004050255E0,1.255777507E1
1.155591917E0,2.111999989E0,1.121400070E1,3.004050255E0,1.179994380E1
1.157554793E0,1.959000111E0,1.048605061E1,3.118950129E0,1.111408065E1
1.159517769E0,1.843950033E0,9.757950783E0,3.118950129E0,1.040891950E1
1.161480716E0,1.651950121E0,9.067950249E0,3.118950129E0,9.730596632E0
1.163443591E0,1.651950121E0,8.263050079E0,3.118950129E0,8.985253793E0
1.165406487E0,1.614000082E0,7.534950256E0,3.196050167E0,8.342374260E0
1.167369778E0,1.498950124E0,6.768000126E0,3.234000206E0,7.649276731E0
1.169332951E0,1.345050097E0,6.040050507E0,3.157950163E0,6.947231039E0
1.171296012E0,1.306950092E0,5.350050449E0,3.004050255E0,6.273394320E0
1.173259106E0,1.306950092E0,4.621950150E0,2.889000177E0,5.605074821E0
1.175222180E0,1.153950095E0,4.162050247E0,2.583000183E0,5.032509615E0
1.177185260E0,1.077000022E0,3.549000263E0,2.353049994E0,4.392285987E0
1.179148511E0,9.240000248E-1,2.974050045E0,2.085000038E0,3.747796002E0
1.181111715E0,9.619500637E-1,2.476050138E0,1.893000126E0,3.261843296E0
1.183074636E0,9.619500637E-1,1.939050078E0,1.740000129E0,2.777204274E0
1.185037640E0,1.000050068E0,1.479000092E0,1.548000097E0,2.363016231E0
1.187000908E0,1.077000022E0,9.810000658E-1,1.471050024E0,2.070332908E0
1.188964099E0,1.230000019E0,4.060500264E-1,1.432950020E0,1.931611356E0
1.190928179E0,1.345050097E0,-9.105000645E-2,1.318050027E0,1.885392728E0
1.192892008E0,1.306950092E0,-2.830500007E-1,1.279950023E0,1.851082901E0
1.194854461E0,1.345050097E0,-7.039500475E-1,1.203000069E0,1.936985957E0
1.196817318E0,1.345050097E0,-1.164000034E0,1.050000072E0,2.065564328E0
1.198780072E0,1.384050012E0,-1.509000063E0,1.050000072E0,2.301124893E0
1.200742857E0,1.345050097E0,-1.930950046E0,1.050000072E0,2.576863984E0
1.202706002E0,1.345050097E0,-2.238000154E0,1.126049995E0,2.843552891E0
1.204669028E0,1.384050012E0,-2.620950222E0,1.165050030E0,3.184700311E0
1.206632068E0,1.384050012E0,-2.926950216E0,1.240950108E0,3.467360548E0
1.208595104E0,1.306950092E0,-3.234000206E0,1.395000100E0,3.756714143E0
1.210558233E0,1.306950092E0,-3.426000118E0,1.432950020E0,3.936869456E0
1.212521335E0,1.269000053E0,-3.694050074E0,1.471050024E0,4.173769909E0
1.214484529E0,-2.332950115E0,-6.454050541E0,1.740000129E0,7.079902900E0
1.216447706E0,1.804950118E0,-7.527000427E0,1.011000037E0,7.806132297E0
1.218410991E0,2.111999989E0,-7.642050266E0,1.663050056E0,8.101062382E0
1.220374244E0,7.320000529E-1,-7.833000183E0,1.701000094E0,8.048920255E0
1.222337292E0,6.550500393E-1,-7.987050533E0,1.356000066E0,8.127779706E0
1.224300400E0,1.269000053E0,-8.370000839E0,1.279950023E0,8.561865874E0
1.226262945E0,1.039050102E0,-8.217000008E0,1.011000037E0,8.343910074E0
1.228225645E0,5.410500169E-1,-8.446949959E0,1.050000072E0,8.529138226E0
1.230189687E0,4.639500082E-1,-8.907000542E0,1.395000100E0,9.027509819E0
1.232153335E0,1.537050128E0,-9.711000443E0,1.585950017E0,9.958980377E0
1.234115234E0,1.920000076E0,-9.865050316E0,1.471050024E0,1.015724403E1
1.236077645E0,2.719500065E-1,-9.826050758E0,1.279950023E0,9.912794882E0
1.238041502E0,1.345050097E0,-1.024800014E1,1.318050027E0,1.041959321E1
1.240004942E0,2.572050095E0,-1.044000053E1,1.432950020E0,1.084723000E1
1.241967822E0,2.074050188E0,-1.001805019E1,1.203000069E0,1.030098165E1
1.243930867E0,1.498950124E0,-9.787950516E0,8.959500194E-1,9.942512419E0
1.245893769E0,1.384050012E0,-9.826050758E0,7.810500264E-1,9.953738347E0
1.247856713E0,1.575000048E0,-9.903000832E0,8.200500607E-1,1.006094095E1
1.249819822E0,1.804950118E0,-9.787950516E0,8.959500194E-1,9.993225038E0
1.251782875E0,1.996950150E0,-9.405000687E0,1.011000037E0,9.667676499E0
1.253745912E0,2.380050182E0,-8.752950668E0,1.279950023E0,9.160625324E0
1.255708954E0,2.533950090E0,-7.872000217E0,1.510050058E0,8.406517808E0
1.257672036E0,2.533950090E0,-6.913050175E0,1.816050053E0,7.583482285E0
1.259635106E0,2.419050217E0,-5.917050362E0,1.969950080E0,6.689095025E0
1.261598041E0,2.457000017E0,-4.996950150E0,2.046000004E0,5.932324662E0
1.263561022E0,2.457000017E0,-4.116000175E0,2.085000038E0,5.227382872E0
1.265523890E0,2.188950062E0,-3.271950245E0,2.161050081E0,4.490801513E0
1.267486791E0,2.074050188E0,-2.659050226E0,2.161050081E0,4.005292716E0
1.269449403E0,2.074050188E0,-2.161050081E0,2.238000154E0,3.739046179E0
1.271412099E0,2.035050154E0,-1.624050021E0,2.085000038E0,3.335594813E0
1.273375185E0,1.843950033E0,-1.203000069E0,2.085000038E0,3.032257583E0
1.275338164E0,1.767000079E0,-7.429500222E-1,1.969950080E0,2.748630083E0
1.277301257E0,1.651950121E0,-3.979500234E-1,1.855050087E0,2.515653841E0
1.279264317E0,1.537050128E0,-1.680000126E-1,1.777950048E0,2.356237143E0
1.281226317E0,1.537050128E0,-9.105000645E-2,1.663050056E0,2.266395527E0
1.283188627E0,1.690050125E0,6.105000153E-2,1.663050056E0,2.371862562E0
1.285151519E0,1.767000079E0,2.140500098E-1,1.585950017E0,2.383976540E0
1.287114240E0,1.804950118E0,4.830000103E-1,1.548000097E0,2.426404385E0
1.289077333E0,1.804950118E0,7.129500508E-1,1.510050058E0,2.458941618E0
1.291040317E0,1.804950118E0,1.018950105E0,1.471050024E0,2.541671186E0
1.293003276E0,1.767000079E0,1.249050021E0,1.356000066E0,2.553654521E0
1.294966242E0,1.651950121E0,1.555950046E0,1.279950023E0,2.605415861E0
1.296929098E0,1.651950121E0,1.824000120E0,1.240950108E0,2.756061104E0
1.298891997E0,1.690050125E0,2.053950071E0,1.126049995E0,2.888419795E0
1.300855283E0,1.651950121E0,2.245950222E0,1.126049995E0,3.006862184E0
1.302818456E0,1.651950121E0,2.551950216E0,1.011000037E0,3.203671360E0
1.304781202E0,1.575000048E0,2.743950129E0,1.011000037E0,3.321446753E0
1.306744074E0,1.498950124E0,2.935950041E0,9.349500537E-1,3.426482996E0
1.308707005E0,1.498950124E0,3.166050196E0,8.200500607E-1,3.597666941E0
1.310669918E0,1.690050125E0,3.280950069E0,8.200500607E-1,3.780659319E0
1.312632843E0,2.035050154E0,3.472050190E0,8.959500194E-1,4.123019293E0
1.314595764E0,1.306950092E0,4.085999966E0,1.050000072E0,4.416561379E0
1.316558463E0,1.000050068E0,4.354050159E0,8.959500194E-1,4.556377878E0
1.318521228E0,1.077000022E0,4.354050159E0,6.660000086E-1,4.534450115E0
1.320484206E0,1.114950061E0,4.354050159E0,5.509500504E-1,4.528179810E0
1.322447101E0,1.192050099E0,4.123950005E0,3.979500234E-1,4.311184443E0
1.324410750E0,1.306950092E0,3.894000292E0,2.449500114E-1,4.114773059E0
1.326374178E0,1.269000053E0,3.511050224E0,5.295000225E-2,3.733716448E0
1.328337015E0,1.077000022E0,3.472050190E0,-6.105000153E-2,3.635765211E0
1.330300026E0,8.850000501E-1,3.280950069E0,-1.759500057E-1,3.402766059E0
1.332262753E0,9.240000248E-1,3.166050196E0,-1.759500057E-1,3.302818235E0
1.334225564E0,8.850000501E-1,3.012000084E0,-2.520000041E-1,3.149424328E0
1.336188371E0,8.470500112E-1,2.859000206E0,-2.140500098E-1,2.989513891E0
1.338151180E0,7.320000529E-1,2.706000090E0,-2.140500098E-1,2.811419209E0
1.340113356E0,6.550500393E-1,2.551950216E0,-2.520000041E-1,2.646704453E0
1.342075718E0,5.020500422E-1,2.322000027E0,-2.140500098E-1,2.385278972E0
1.344038772E0,4.639500082E-1,2.131050110E0,-2.140500098E-1,2.191447373E0
1.346001630E0,4.260000288E-1,2.016000032E0,-2.140500098E-1,2.071605552E0
1.347964880E0,3.870000243E-1,1.786050081E0,-2.520000041E-1,1.844789395E0
1.349928015E0,3.490500152E-1,1.594050050E0,-2.910000086E-1,1.657562210E0
1.351890948E0,3.490500152E-1,1.363950014E0,-2.910000086E-1,1.437663576E0
1.353853940E0,3.109500110E-1,1.210950017E0,-3.289500177E-1,1.292786899E0
1.355816606E0,3.490500152E-1,1.057950020E0,-3.670500219E-1,1.172953484E0
1.357779381E0,3.490500152E-1,9.040500522E-1,-4.060500264E-1,1.050723100E0
1.359742194E0,3.109500110E-1,7.510500550E-1,-5.209500194E-1,9.654817539E-1
1.361704995E0,3.870000243E-1,5.590500236E-1,-5.970000029E-1,9.048286860E-1
1.363667714E0,3.109500110E-1,3.679500222E-1,-5.970000029E-1,7.671284975E-1
1.365630458E0,3.870000243E-1,2.530499995E-1,-5.970000029E-1,7.551240458E-1
1.367593411E0,3.870000243E-1,1.380000114E-1,-5.970000029E-1,7.247220332E-1
1.369556303E0,3.870000243E-1,6.105000153E-2,-6.739500165E-1,7.795541971E-1
1.371519772E0,3.490500152E-1,-1.500000060E-2,-7.120500207E-1,7.931432059E-1
1.373483072E0,3.870000243E-1,-9.105000645E-2,-6.739500165E-1,7.824753972E-1
1.375445751E0,3.490500152E-1,-1.290000081E-1,-6.739500165E-1,7.698607276E-1
1.377408612E0,3.490500152E-1,-1.290000081E-1,-6.739500165E-1,7.698607276E-1
1.379371440E0,3.490500152E-1,-1.290000081E-1,-7.120500207E-1,8.034252592E-1
1.381334257E0,3.490500152E-1,-1.290000081E-1,-7.120500207E-1,8.034252592E-1
1.383297197E0,2.719500065E-1,-9.105000645E-2,-7.120500207E-1,7.676341197E-1
1.385260101E0,2.340000123E-1,-1.290000081E-1,-7.120500207E-1,7.605341806E-1
1.387222848E0,2.340000123E-1,-1.290000081E-1,-7.890000343E-1,8.330174440E-1
1.389185641E0,2.340000123E-1,-9.105000645E-2,-8.659500480E-1,9.016183200E-1
1.391148747E0,1.960500032E-1,-1.290000081E-1,-9.810000658E-1,1.008681186E0
1.393111774E0,1.570500135E-1,-1.680000126E-1,-1.057050109E0,1.081778001E0
1.395074680E0,1.570500135E-1,-1.290000081E-1,-1.134000063E0,1.152068510E0
1.397037622E0,8.100000024E-2,-1.290000081E-1,-1.171950102E0,1.181807532E0
1.399000676E0,1.189500093E-1,-1.290000081E-1,-1.326000094E0,1.337559852E0
1.400963697E0,8.100000024E-2,-1.680000126E-1,-1.363950014E0,1.376642526E0
1.402926470E0,4.200000316E-2,-2.059500068E-1,-1.479000092E0,1.493860996E0
1.404889315E0,8.100000024E-2,-2.059500068E-1,-1.516950130E0,1.533008188E0
1.406851890E0,4.200000316E-2,-2.059500068E-1,-1.516950130E0,1.531442818E0
1.408814545E0,4.200000316E-2,-2.830500007E-1,-1.594050050E0,1.619529828E0
1.410777513E0,8.100000024E-2,-3.210000098E-1,-1.671000123E0,1.703479797E0
1.412740390E0,8.100000024E-2,-3.589500189E-1,-1.747050047E0,1.785382307E0
1.414703441E0,8.100000024E-2,-3.979500234E-1,-1.786050081E0,1.831638642E0
1.416666452E0,1.189500093E-1,-4.360500276E-1,-1.824000120E0,1.879166084E0
1.418629045E0,8.100000024E-2,-4.360500276E-1,-1.786050081E0,1.840292237E0
1.420591761E0,1.570500135E-1,-4.360500276E-1,-1.824000120E0,1.881961947E0
1.422554359E0,1.570500135E-1,-4.360500276E-1,-1.786050081E0,1.845204386E0
1.424516992E0,1.960500032E-1,-4.740000367E-1,-1.900950074E0,1.968939517E0
1.426479794E0,2.340000123E-1,-4.360500276E-1,-2.014950037E0,2.074829941E0
1.428442539E0,2.719500065E-1,-5.130000114E-1,-1.939050078E0,2.024114874E0
1.430405312E0,3.490500152E-1,-5.509500504E-1,-2.014950037E0,2.117877599E0
1.432368077E0,4.639500082E-1,-5.509500504E-1,-1.977000117E0,2.104120964E0
1.434330623E0,5.410500169E-1,-5.509500504E-1,-1.939050078E0,2.087150279E0
1.436293233E0,5.020500422E-1,-4.740000367E-1,-1.786050081E0,1.914864270E0
1.438256734E0,5.790000558E-1,-4.360500276E-1,-1.594050050E0,1.751107150E0
1.440219985E0,6.169500351E-1,-3.210000098E-1,-1.287000060E0,1.462886703E0
1.442182673E0,8.089500666E-1,-2.059500068E-1,-1.018950105E0,1.317222430E0
1.444145526E0,8.850000501E-1,-1.680000126E-1,-6.739500165E-1,1.125014541E0
1.446107244E0,1.039050102E0,-5.295000225E-2,-3.670500219E-1,1.103247269E0
1.448069295E0,1.114950061E0,6.105000153E-2,1.500000060E-2,1.116720977E0
1.450031115E0,1.230000019E0,2.530499995E-1,3.220500052E-1,1.296399072E0
1.451992996E0,1.306950092E0,3.289500177E-1,6.280500293E-1,1.486867007E0
1.453956232E0,1.384050012E0,5.590500236E-1,1.011000037E0,1.802845650E0
1.455919071E0,1.537050128E0,7.510500550E-1,1.279950023E0,2.136555953E0
1.457881874E0,1.729050040E0,9.430500269E-1,1.471050024E0,2.458240340E0
1.459844688E0,1.920000076E0,1.173000097E0,1.624950051E0,2.775390457E0
1.461807264E0,2.188950062E0,1.402950048E0,2.008050203E0,3.285123564E0
1.463769914E0,2.380050182E0,1.747950077E0,2.545050144E0,3.898364860E0
1.465732703E0,2.533950090E0,2.092950106E0,2.928000212E0,4.401650650E0
1.467695451E0,2.764050245E0,2.514000177E0,3.388050079E0,5.043714305E0
1.469658180E0,3.070050240E0,3.012000084E0,3.886050224E0,5.796441954E0
1.471620914E0,3.453000069E0,3.549000263E0,4.308000088E0,6.563343439E0
1.473583749E0,3.798000097E0,4.239000320E0,4.729050159E0,7.399854314E0
1.475546543E0,4.105050087E0,5.082000256E0,5.112000465E0,8.295222214E0
1.477509488E0,4.372950077E0,6.040050507E0,5.380950451E0,9.195625604E0
1.479472389E0,4.603050232E0,7.228050232E0,5.611050129E0,1.024288363E1
1.481435316E0,3.529950142E0,8.877000809E0,6.031950474E0,1.129805815E1
1.483398235E0,2.035050154E0,1.110000038E1,6.531000137E0,1.303861190E1
1.485360998E0,2.188950062E0,1.293900108E1,6.991050243E0,1.486889488E1
1.487323794E0,2.419050217E0,1.500900078E1,7.411950588E0,1.691327644E1
1.489286918E0,2.572050095E0,1.738500023E1,7.872000217E0,1.925674069E1
1.491249946E0,2.610000134E0,2.022105026E1,8.179050446E0,2.196815515E1
1.493212986E0,2.572050095E0,2.359395027E1,8.446949959E0,2.519208000E1
1.495176023E0,2.725050211E0,2.738895035E1,8.754000664E0,2.888274619E1
1.497138968E0,2.802000046E0,3.103005219E1,8.869050026E0,3.239406414E1
1.499101943E0,3.453000069E0,3.375105286E1,8.907000542E0,3.507693597E1
1.501064497E0,5.293050289E0,3.417300034E1,8.754000664E0,3.567131706E1
1.503027174E0,7.822950363E0,3.248595047E1,8.101950645E0,3.438280289E1
1.504990093E0,9.739050865E0,3.114495087E1,7.182000160E0,3.341314416E1
1.506952941E0,1.062105083E1,3.183495140E1,5.994000435E0,3.409103831E1
1.508916073E0,1.123395061E1,3.321495056E1,3.963000298E0,3.528654076E1
1.510879143E0,1.150200081E1,3.478605270E1,1.279950023E0,3.666065681E1
1.512842717E0,1.069695091E1,3.685605240E1,-2.053950071E0,3.843191471E1
1.514806143E0,8.857950211E0,3.988395309E1,-6.270000458E0,4.133407677E1
1.516768845E0,4.872000217E0,4.318005371E1,-1.025595093E1,4.464793337E1
1.518731760E0,8.850000501E-1,4.609305191E1,-1.320705032E1,4.795600940E1
1.520693738E0,1.960500032E-1,4.885200119E1,-1.573695087E1,5.132453681E1
1.522655991E0,-1.950000048E0,5.126700211E1,-1.842000008E1,5.451058987E1
1.524618848E0,-4.134000301E0,5.253195190E1,-2.045100021E1,5.652379445E1
1.526581528E0,-5.361000061E0,5.310705185E1,-2.018295097E1,5.706532036E1
1.528544178E0,-5.476050377E0,5.329800415E1,-1.807500076E1,5.654529182E1
1.530506837E0,-4.939050198E0,5.280000305E1,-1.497000027E1,5.510295316E1
1.532469800E0,-4.747950077E0,5.157300186E1,-1.152105045E1,5.305706508E1
1.534432677E0,-4.210950375E0,4.957995224E1,-8.416049957E0,5.046517278E1
1.536395429E0,-3.790050268E0,4.743405151E1,-5.962950230E0,4.795738212E1
1.538358217E0,-3.865950108E0,4.482795334E1,-4.276950359E0,4.519716003E1
1.540320758E0,-4.134000301E0,4.233600235E1,-3.165000200E0,4.265494438E1
1.542283371E0,-4.057950020E0,3.999900055E1,-2.014950037E0,4.025477645E1
1.544246226E0,-3.904950142E0,3.815895081E1,-1.287000060E0,3.837981932E1
1.546208999E0,-3.904950142E0,3.654900360E1,-9.810000658E-1,3.677010553E1
1.548171903E0,-3.865950108E0,3.520800018E1,-1.018950105E0,3.543426458E1
1.550134769E0,-3.790050268E0,3.421095276E1,-1.096050024E0,3.443769875E1
1.552097568E0,-3.790050268E0,3.359805298E1,-1.210950017E0,3.383282496E1
1.554060386E0,-3.943050146E0,3.306105042E1,-1.363950014E0,3.332328103E1
1.556023156E0,-4.018949986E0,3.260100174E1,-1.326000094E0,3.287454258E1
1.557985933E0,-3.865950108E0,3.237105179E1,-1.287000060E0,3.262647596E1
1.559948835E0,-3.559950113E0,3.183495140E1,-1.363950014E0,3.206240376E1
1.561911701E0,-3.559950113E0,3.099195099E1,-1.594050050E0,3.123644132E1
1.563874319E0,-2.755050182E0,3.041700172E1,-1.939050078E0,3.060300983E1
1.565837010E0,-1.452000022E0,2.984205055E1,-2.284050226E0,2.996453188E1
1.567799913E0,-7.999500632E-1,2.930505180E1,-2.704950094E0,2.944049484E1
1.569762764E0,-5.320500135E-1,2.892195129E1,-2.896950245E0,2.907154390E1
1.571725385E0,-1.870500147E-1,2.842395210E1,-2.743950129E0,2.855670330E1
1.573688073E0,2.340000123E-1,2.811705208E1,-2.859000206E0,2.826300153E1
1.575651756E0,5.020500422E-1,2.788695145E1,-2.896950245E0,2.804151273E1
1.577615148E0,8.089500666E-1,2.758005142E1,-2.935050249E0,2.774757929E1
1.579577816E0,1.039050102E0,2.731200218E1,-2.782050133E0,2.747298475E1
1.581540693E0,1.230000019E0,2.723505211E1,-2.475000143E0,2.737492629E1
1.583503443E0,1.306950092E0,2.708205223E1,-2.169000149E0,2.720018811E1
1.585466231E0,1.384050012E0,2.669895172E1,-2.014950037E0,2.681062553E1
1.587428997E0,1.459950089E0,2.639205170E1,-1.861950040E0,2.649790001E1
1.589391770E0,1.690050125E0,2.597100067E1,-1.671000123E0,2.607952045E1
1.591354733E0,1.996950150E0,2.551095200E1,-1.402050018E0,2.562737259E1
1.593317629E0,2.380050182E0,2.512695122E1,-9.810000658E-1,2.525847734E1
1.595280557E0,2.610000134E0,2.466705132E1,-5.970000029E-1,2.481193121E1
1.597243475E0,2.878050089E0,2.420805168E1,-1.759500057E-1,2.437916932E1
1.599205814E0,3.070050240E0,2.382405090E1,2.070000172E-1,2.402193704E1
1.601168323E0,3.223050117E0,2.351805115E1,7.429500222E-1,2.374950013E1
1.603131181E0,3.376950264E0,2.305800056E1,1.203000069E0,2.333500358E1
1.605093937E0,3.529950142E0,2.267400169E1,1.548000097E0,2.299928706E1
1.607057069E0,3.645000219E0,2.225295067E1,1.855050087E0,2.262567238E1
1.609020090E0,3.645000219E0,2.179305077E1,2.161050081E0,2.220119875E1
1.610982817E0,3.682950258E0,2.133300018E1,2.506050110E0,2.179314816E1
1.612945631E0,3.682950258E0,2.087295151E1,2.812950134E0,2.138122811E1
1.614908678E0,3.529950142E0,2.049000168E1,2.928000212E0,2.099699745E1
1.616871677E0,3.568050146E0,1.987695122E1,3.081000090E0,2.042833163E1
1.618834588E0,3.492000103E0,1.933995056E1,3.157950163E0,1.990478339E1
1.620797525E0,3.376950264E0,1.872705078E1,3.273000240E0,1.930851508E1
1.622760446E0,3.300000191E0,1.815195084E1,3.426000118E0,1.876488202E1
1.624723371E0,3.184950113E0,1.746195030E1,3.541050196E0,1.809979702E1
1.626686174E0,3.147000074E0,1.684905052E1,3.579000235E0,1.751009296E1
1.628649002E0,3.070050240E0,1.615904999E1,3.579000235E0,1.683298392E1
1.630611895E0,2.955000162E0,1.539195061E1,3.502950191E0,1.605972694E1
1.632574769E0,2.878050089E0,1.466400051E1,3.463950157E0,1.533998155E1
1.634537521E0,2.764050245E0,1.397400093E1,3.349050045E0,1.463314088E1
1.636500309E0,2.533950090E0,1.328400040E1,3.310950041E0,1.392292928E1
1.638463134E0,2.304000139E0,1.259400082E1,3.157950163E0,1.318673282E1
1.640425938E0,2.188950062E0,1.190400028E1,3.081000090E0,1.248956711E1
1.642388522E0,1.959000111E0,1.129095078E1,2.965950251E0,1.183723412E1
1.644351170E0,1.882050037E0,1.071600056E1,2.736000061E0,1.121875557E1
1.646314095E0,1.767000079E0,1.014105034E1,2.659050226E0,1.063173266E1
1.648276938E0,1.690050125E0,9.490050316E0,2.430000067E0,9.940936814E0
1.650239920E0,1.614000082E0,8.953050613E0,2.200050116E0,9.359611747E0
1.652202861E0,1.614000082E0,8.493000031E0,2.046000004E0,8.883814597E0
1.654165556E0,1.537050128E0,7.842000484E0,1.969950080E0,8.230443367E0
1.656128324E0,1.498950124E0,7.381950378E0,1.740000129E0,7.730953584E0
1.658090958E0,1.459950089E0,6.883050442E0,1.663050056E0,7.230046551E0
1.660053632E0,1.459950089E0,6.309000492E0,1.432950020E0,6.632366639E0
1.662016717E0,1.384050012E0,5.772000313E0,1.318050027E0,6.080200483E0
1.663979692E0,1.384050012E0,5.197050095E0,1.126049995E0,5.494807796E0
1.665942427E0,1.345050097E0,4.584000111E0,9.730500579E-1,4.875350571E0
1.667905232E0,1.345050097E0,4.047000408E0,8.959500194E-1,4.357763016E0
1.669867995E0,1.384050012E0,3.472050190E0,8.580000401E-1,3.834956457E0
1.671830771E0,1.384050012E0,2.935950041E0,6.660000086E-1,3.313450330E0
1.673793713E0,1.384050012E0,2.398950100E0,5.130000114E-1,2.816686889E0
1.675756610E0,1.422000051E0,1.900950074E0,3.220500052E-1,2.395706897E0
1.677720259E0,1.614000082E0,1.402950048E0,2.070000172E-1,2.148514396E0
1.679683687E0,1.843950033E0,9.430500269E-1,9.195000678E-2,2.073149749E0
1.681646705E0,2.111999989E0,4.060500264E-1,1.500000060E-2,2.150731405E0
1.683609843E0,2.265000105E0,2.295000106E-2,-1.369500011E-1,2.269252626E0
1.685573319E0,2.419050217E0,-2.440500110E-1,-2.140500098E-1,2.440733858E0
1.687536692E0,2.457000017E0,-5.890500546E-1,-2.910000086E-1,2.543326573E0
1.689499539E0,2.533950090E0,-1.011000037E0,-4.060500264E-1,2.758242332E0
1.691462540E0,2.649000168E0,-1.279050112E0,-5.209500194E-1,2.987400208E0
1.693425809E0,2.686950207E0,-1.663050056E0,-4.819500148E-1,3.196515715E0
1.695389000E0,2.839950085E0,-1.930950046E0,-5.590500236E-1,3.479428328E0
1.697352013E0,2.764050245E0,-2.275950193E0,-4.440000355E-1,3.607916168E0
1.699315079E0,2.764050245E0,-2.506050110E0,-2.910000086E-1,3.742317720E0
1.701276580E0,1.459950089E0,-3.961950302E0,-6.105000153E-2,4.222822701E0
1.703238540E0,4.200000316E-2,-6.798000336E0,3.220500052E-1,6.805754093E0
1.705202168E0,3.874950171E0,-6.492000103E0,3.600000143E-1,7.569075516E0
1.707165307E0,2.304000139E0,-6.798000336E0,9.349500537E-1,7.238463705E0
1.709128169E0,1.920000076E0,-7.182000160E0,6.280500293E-1,7.460695238E0
1.711091098E0,2.227050066E0,-7.603050232E0,4.750500321E-1,7.936737199E0
1.713054064E0,2.725050211E0,-7.756950378E0,3.979500234E-1,8.231314722E0
1.715017019E0,1.804950118E0,-7.795050144E0,3.600000143E-1,8.009385225E0
1.716979892E0,1.882050037E0,-8.293050766E0,5.509500504E-1,8.521757407E0
1.718942790E0,2.380050182E0,-8.907000542E0,8.200500607E-1,9.255905122E0
1.720905357E0,2.494950056E0,-9.289950371E0,9.730500579E-1,9.668235624E0
1.722868021E0,2.494950056E0,-9.520050049E0,1.087950110E0,9.901503126E0
1.724830807E0,2.304000139E0,-9.711000443E0,1.050000072E0,1.003565874E1
1.726793557E0,2.457000017E0,-9.979950905E0,8.959500194E-1,1.031692762E1
1.728756330E0,2.610000134E0,-1.005600071E1,7.810500264E-1,1.041850710E1
1.730719096E0,2.610000134E0,-1.005600071E1,8.959500194E-1,1.042775035E1
1.732681731E0,2.419050217E0,-1.005600071E1,8.580000401E-1,1.037839671E1
1.734644405E0,2.380050182E0,-1.009500027E1,6.280500293E-1,1.039077072E1
1.736608271E0,2.188950062E0,-9.979950905E0,3.220500052E-1,1.022226191E1
1.738571788E0,1.996950150E0,-9.750000000E0,1.300500035E-1,9.953251876E0
1.740534610E0,1.843950033E0,-9.442950249E0,-2.205000073E-2,9.621327732E0
1.742497636E0,1.614000082E0,-8.944950104E0,-1.759500057E-1,9.091099330E0
1.744460546E0,1.690050125E0,-8.217000008E0,-2.910000086E-1,8.394047865E0
1.746423487E0,1.614000082E0,-7.297050476E0,-2.910000086E-1,7.479079016E0
1.748386362E0,1.422000051E0,-6.070050240E0,-9.900000691E-2,6.235174020E0
1.750349257E0,1.345050097E0,-4.959000111E0,2.070000172E-1,5.142342936E0
1.752311464E0,1.230000019E0,-3.961950302E0,4.750500321E-1,4.175598493E0
1.754273872E0,1.077000022E0,-3.081000090E0,4.750500321E-1,3.298206048E0
1.756236567E0,8.850000501E-1,-2.391000032E0,5.130000114E-1,2.600629781E0
1.758199178E0,5.790000558E-1,-1.701000094E0,4.750500321E-1,1.858578736E0
1.760162290E0,3.870000243E-1,-1.126049995E0,3.220500052E-1,1.233480367E0
1.762125255E0,1.570500135E-1,-6.280500293E-1,2.449500114E-1,6.921792066E-1
1.764087496E0,4.200000316E-2,-2.059500068E-1,1.680000126E-1,2.690788171E-1
1.766049949E0,-3.299999982E-2,-1.500000060E-2,1.300500035E-1,1.350074199E-1
1.768012901E0,4.050000105E-3,2.530499995E-1,1.300500035E-1,2.845412240E-1
1.769975711E0,4.050000105E-3,4.830000103E-1,9.195000678E-2,4.916911797E-1
1.771938699E0,4.200000316E-2,7.890000343E-1,5.295000225E-2,7.918893592E-1
1.773901634E0,4.050000105E-3,1.018950105E0,1.500000060E-2,1.019068554E0
1.775864690E0,4.050000105E-3,1.249050021E0,-9.900000691E-2,1.252973806E0
1.777827711E0,-1.480500102E-1,1.441050053E0,-2.520000041E-1,1.470390445E0
1.779790456E0,-1.480500102E-1,1.671000123E0,-2.910000086E-1,1.702598374E0
1.781753301E0,-1.480500102E-1,1.900950074E0,-3.289500177E-1,1.934874183E0
1.783716551E0,-3.400500119E-1,2.131050110E0,-3.289500177E-1,2.182937630E0
1.785679683E0,-4.549500346E-1,2.284050226E0,-3.670500219E-1,2.357666365E0
1.787643336E0,-2.629500031E-1,2.398950100E0,-3.670500219E-1,2.441071487E0
1.789606837E0,6.169500351E-1,2.245950222E0,-3.670500219E-1,2.357890045E0
1.791569281E0,5.410500169E-1,2.284050226E0,-2.520000041E-1,2.360746610E0
1.793532017E0,3.870000243E-1,2.476050138E0,-1.369500011E-1,2.509850316E0
1.795494836E0,2.719500065E-1,2.706000090E0,-9.900000691E-2,2.721432397E0
1.797457630E0,8.100000024E-2,2.896950245E0,-6.105000153E-2,2.898725379E0
1.799420396E0,-1.099500060E-1,3.166050196E0,-2.205000073E-2,3.168035519E0
1.801383171E0,-1.870500147E-1,3.319050074E0,-6.105000153E-2,3.324877171E0
1.803346452E0,-4.170000255E-1,3.433950186E0,1.500000060E-2,3.459209144E0
1.805309572E0,-6.850500107E-1,3.586950064E0,-6.105000153E-2,3.652291251E0
1.807272643E0,-8.380500674E-1,3.702000141E0,-9.900000691E-2,3.796963782E0
1.809235728E0,-9.529500604E-1,3.817050219E0,-1.759500057E-1,3.938139738E0
1.811198668E0,-1.106999993E0,3.856050253E0,-1.759500057E-1,4.015660711E0
1.813161651E0,-1.260000110E0,3.931950092E0,-2.520000041E-1,4.136585042E0
1.815124354E0,-1.260000110E0,4.009050369E0,-2.520000041E-1,4.209939328E0
1.817087160E0,-1.297950029E0,4.009050369E0,-2.910000086E-1,4.223960244E0
1.819049923E0,-1.375050068E0,4.009050369E0,-2.520000041E-1,4.245792218E0
1.821012698E0,-1.452000022E0,3.970950127E0,-3.670500219E-1,4.243992777E0
1.822975781E0,-1.642950058E0,3.970950127E0,-5.590500236E-1,4.333620511E0
1.824938773E0,-1.795950055E0,3.970950127E0,-6.360000372E-1,4.404358927E0
1.826901370E0,-1.605000019E0,3.586950064E0,-6.739500165E-1,3.987034543E0
1.828864083E0,-1.030050039E0,3.088950157E0,-8.269500136E-1,3.359533075E0
1.830826996E0,-8.770500422E-1,2.782050133E0,-8.269500136E-1,3.031973952E0
1.832789850E0,-7.620000243E-1,2.551950216E0,-9.040500522E-1,2.812543411E0
1.834752830E0,-6.850500107E-1,2.361000061E0,-9.420000315E-1,2.632675230E0
1.836715773E0,-5.700000525E-1,2.245950222E0,-1.018950105E0,2.531294486E0
1.838678509E0,-4.930500090E-1,1.978050113E0,-1.134000063E0,2.332753031E0
1.840641309E0,-4.170000255E-1,1.824000120E0,-1.210950017E0,2.228736279E0
1.842604027E0,-3.019500077E-1,1.518000126E0,-1.210950017E0,1.965171273E0
1.844566770E0,-1.870500147E-1,1.249050021E0,-1.210950017E0,1.749718151E0
1.846529588E0,-1.480500102E-1,1.096050024E0,-1.363950014E0,1.756019391E0
1.848492384E0,-3.299999982E-2,8.659500480E-1,-1.441050053E0,1.681542072E0
1.850455109E0,4.050000105E-3,6.739500165E-1,-1.441050053E0,1.590864633E0
1.852417852E0,8.100000024E-2,4.830000103E-1,-1.441050053E0,1.521997130E0
1.854380850E0,1.960500032E-1,2.910000086E-1,-1.441050053E0,1.483152677E0
1.856343773E0,3.870000243E-1,6.105000153E-2,-1.479000092E0,1.530012220E0
1.858308499E0,4.639500082E-1,-1.290000081E-1,-1.402050018E0,1.482442197E0
1.860272696E0,6.169500351E-1,-1.680000126E-1,-1.363950014E0,1.506390053E0
1.862235537E0,6.550500393E-1,-2.830500007E-1,-1.287000060E0,1.471589960E0
1.864198775E0,7.320000529E-1,-3.589500189E-1,-1.249050021E0,1.491574721E0
1.866161869E0,8.089500666E-1,-5.130000114E-1,-1.210950017E0,1.544010740E0
1.868125006E0,8.850000501E-1,-6.280500293E-1,-1.096050024E0,1.542399943E0
1.870087847E0,8.850000501E-1,-7.039500475E-1,-1.057050109E0,1.547942405E0
1.872050775E0,9.240000248E-1,-8.580000401E-1,-9.810000658E-1,1.597592327E0
1.874013526E0,9.240000248E-1,-9.340500236E-1,-8.269500136E-1,1.552440600E0
1.875976323E0,9.619500637E-1,-1.048950076E0,-7.510500550E-1,1.609260816E0
1.877939267E0,1.000050068E0,-1.164000034E0,-6.739500165E-1,1.676068269E0
1.879902167E0,1.039050102E0,-1.203000069E0,-5.590500236E-1,1.685043385E0
1.881864780E0,1.039050102E0,-1.318050027E0,-4.060500264E-1,1.726776654E0
1.883827477E0,1.077000022E0,-1.393950105E0,-2.910000086E-1,1.785415063E0
1.885790393E0,1.077000022E0,-1.432950020E0,-1.759500057E-1,1.801175508E0
1.887753244E0,1.039050102E0,-1.432950020E0,-1.369500011E-1,1.775310164E0
1.889716360E0,1.039050102E0,-1.509000063E0,1.500000060E-2,1.832193032E0
1.891679398E0,1.077000022E0,-1.548000097E0,5.295000225E-2,1.886541028E0
1.893641807E0,1.114950061E0,-1.585950017E0,1.300500035E-1,1.943003885E0
1.895604400E0,1.114950061E0,-1.624050021E0,1.680000126E-1,1.977087786E0
1.897566955E0,1.192050099E0,-1.663050056E0,2.070000172E-1,2.056591339E0
1.899529535E0,1.192050099E0,-1.663050056E0,2.449500114E-1,2.060757005E0
1.901492200E0,1.230000019E0,-1.663050056E0,2.449500114E-1,2.082939280E0
1.903454840E0,1.269000053E0,-1.663050056E0,2.449500114E-1,2.106204437E0
1.905417767E0,1.269000053E0,-1.663050056E0,1.680000126E-1,2.098647333E0
1.907380610E0,1.306950092E0,-1.624050021E0,1.680000126E-1,2.091382562E0
1.909343737E0,1.306950092E0,-1.624050021E0,2.070000172E-1,2.094876135E0
1.911306773E0,1.384050012E0,-1.624050021E0,1.680000126E-1,2.140410454E0
1.913269857E0,1.306950092E0,-1.509000063E0,1.300500035E-1,2.000528115E0
1.915232927E0,1.306950092E0,-1.471050024E0,1.680000126E-1,1.974925498E0
1.917195691E0,1.384050012E0,-1.356000066E0,9.195000678E-2,1.939790045E0
1.919158545E0,1.459950089E0,-1.240950108E0,1.300500035E-1,1.920501090E0
1.921121234E0,1.459950089E0,-1.087950110E0,1.300500035E-1,1.825377416E0
1.923083986E0,1.614000082E0,-9.340500236E-1,2.070000172E-1,1.876244845E0
1.925045902E0,1.651950121E0,-7.039500475E-1,2.830500007E-1,1.817856478E0
1.927008063E0,1.729050040E0,-5.509500504E-1,4.750500321E-1,1.875855147E0
1.928970891E0,1.804950118E0,-3.979500234E-1,5.899500251E-1,1.940167565E0
1.930933523E0,1.959000111E0,-2.059500068E-1,7.810500264E-1,2.118994097E0
1.932895972E0,2.074050188E0,-1.290000081E-1,9.349500537E-1,2.278696291E0
1.934858496E0,2.188950062E0,-5.295000225E-2,1.126049995E0,2.462172753E0
1.936820586E0,2.304000139E0,1.380000114E-1,1.279950023E0,2.639267456E0
1.938782803E0,2.457000017E0,3.679500222E-1,1.432950020E0,2.868027556E0
1.940745621E0,2.610000134E0,6.360000372E-1,1.471050024E0,3.062774056E0
1.942708263E0,2.725050211E0,8.659500480E-1,1.548000097E0,3.251472349E0
1.944671114E0,2.917050123E0,1.096050024E0,1.777950048E0,3.587703089E0
1.946633893E0,3.223050117E0,1.363950014E0,1.930950046E0,3.997121437E0
1.948596841E0,3.492000103E0,1.708950043E0,2.200050116E0,4.467079077E0
1.950559740E0,3.760050297E0,2.053950071E0,2.506050110E0,4.963564876E0
1.952522307E0,4.066950321E0,2.398950100E0,2.773950100E0,5.476298536E0
1.954484972E0,4.488000393E0,2.859000206E0,2.965950251E0,6.092035013E0
1.956447694E0,4.795050144E0,3.319050074E0,3.157950163E0,6.631835983E0
1.958410413E0,5.101050377E0,3.931950092E0,3.273000240E0,7.224505315E0
1.960373191E0,5.370000362E0,4.621950150E0,3.426000118E0,7.869993894E0
1.962335951E0,5.599950314E0,5.427000046E0,3.694050074E0,8.628892105E0
1.964298543E0,5.905950069E0,6.309000492E0,3.924000263E0,9.491128041E0
1.966261184E0,6.097950459E0,7.342950344E0,4.192950249E0,1.042519790E1
1.968223643E0,5.944950104E0,8.569950104E0,4.576050282E0,1.138976350E1
1.970186135E0,5.025000095E0,1.033305073E1,5.188950062E0,1.260744883E1
1.972148951E0,4.603050232E0,1.232595062E1,5.802000046E0,1.437985865E1
1.974111672E0,4.488000393E0,1.458705044E1,6.339000225E0,1.652595268E1
1.976074449E0,4.450050354E0,1.746195030E1,6.837000370E0,1.927348517E1
1.978037210E0,4.488000393E0,2.098800087E1,7.258950233E0,2.265680221E1
1.980000002E0,4.680000305E0,2.489700127E1,7.489050388E0,2.641683082E1
1.981962802E0,5.025000095E0,2.911305046E1,7.795050144E0,3.055459278E1
1.983925567E0,5.523000240E0,3.329100037E1,7.834050179E0,3.464342043E1
1.985888342E0,6.250950336E0,3.704700089E1,7.411950588E0,3.829479947E1
1.987851289E0,6.865050316E0,4.072695160E1,6.415950298E0,4.179686496E1
1.989814186E0,6.940950394E0,4.425300217E1,4.959000111E0,4.506768993E1
1.991776885E0,7.210050106E0,4.689705276E1,2.851050138E0,4.753363932E1
1.993739645E0,7.095000267E0,4.965705109E1,4.360500276E-1,5.016325240E1
1.995703000E0,6.289950371E0,5.226300430E1,-3.088950157E0,5.273069986E1
1.997666181E0,5.140050411E0,5.421795273E1,-7.305000305E0,5.494879021E1
1.999628520E0,3.607050180E0,5.582805252E1,-1.094595051E1,5.700522864E1
2.001591106E0,1.345050097E0,5.716905212E1,-1.355205059E1,5.876876514E1
2.003553326E0,-7.999500632E-1,5.793600464E1,-1.485495090E1,5.981546723E1
2.005515650E0,-2.332950115E0,5.793600464E1,-1.527705097E1,5.996175094E1
2.007478359E0,-3.022950172E0,5.644095230E1,-1.443405056E1,5.833576210E1
2.009440955E0,-3.100050211E0,5.368095398E1,-1.228695011E1,5.515636205E1
2.011403574E0,-2.524950027E0,5.026995087E1,-9.373950005E0,5.119877217E1
2.013366186E0,-1.528050065E0,4.712700272E1,-6.921000481E0,4.765699917E1
2.015328969E0,-1.297950029E0,4.463595200E1,-4.852050304E0,4.491764995E1
2.017291711E0,-1.834950089E0,4.260495377E1,-3.357000113E0,4.277637873E1
2.019254620E0,-2.793000221E0,4.103295135E1,-2.206950188E0,4.118706807E1
2.021217480E0,-4.173000336E0,3.984495163E1,-1.326000094E0,4.008481481E1
2.023179874E0,-5.668050289E0,3.884895325E1,-4.819500148E-1,3.926321737E1
2.025142405E0,-6.817050457E0,3.773700333E1,1.300500035E-1,3.834801833E1
2.027105084E0,-7.507050514E0,3.654900360E1,2.070000172E-1,3.731257590E1
2.029067716E0,-7.852050304E0,3.528404999E1,-1.759500057E-1,3.614761176E1
2.031030509E0,-8.005949974E0,3.432600021E1,-8.659500480E-1,3.525789834E1
2.032993254E0,-7.966950417E0,3.363600159E1,-1.977000117E0,3.462313433E1
2.034955668E0,-7.699050426E0,3.298500061E1,-2.896950245E0,3.399526384E1
2.036918179E0,-7.047000408E0,3.237105179E1,-3.664050102E0,3.333122368E1
2.038881136E0,-6.357000351E0,3.175800133E1,-4.353000164E0,3.267920917E1
2.040843956E0,-5.668050289E0,3.114495087E1,-4.852050304E0,3.202619476E1
2.042806402E0,-5.016000271E0,3.053205109E1,-5.197050095E0,3.137476266E1
2.044768958E0,-4.671000004E0,2.995695114E1,-5.503050327E0,3.081429418E1
2.046731403E0,-4.479000092E0,2.957295227E1,-5.617950439E0,3.043324358E1
2.048693881E0,-4.173000336E0,2.911305046E1,-5.617950439E0,2.994236140E1
2.050656820E0,-3.828000069E0,2.884500122E1,-5.427000046E0,2.959966232E1
2.052619634E0,-3.406050205E0,2.853900146E1,-5.082000256E0,2.918736900E1
2.054582576E0,-3.175950050E0,2.838495064E1,-4.890000343E0,2.897764975E1
2.056545480E0,-2.869950056E0,2.807895088E1,-4.890000343E0,2.864570124E1
2.058508047E0,-2.563050032E0,2.777205086E1,-4.852050304E0,2.830898137E1
2.060470713E0,-2.371050119E0,2.754195213E1,-4.774950027E0,2.805318438E1
2.062433529E0,-2.065050125E0,2.723505211E1,-4.621950150E0,2.770153278E1
2.064396311E0,-1.720050097E0,2.696700096E1,-4.392000198E0,2.737640186E1
2.066359213E0,-1.183050036E0,2.669895172E1,-3.894000292E0,2.700734842E1
2.068322080E0,-7.999500632E-1,2.639205170E1,-3.433950186E0,2.662653426E1
2.070284834E0,-3.400500119E-1,2.612400055E1,-2.896950245E0,2.628633408E1
2.072247621E0,4.200000316E-2,2.585595131E1,-2.437050104E0,2.597058327E1
2.074211483E0,4.639500082E-1,2.558700180E1,-1.900950074E0,2.566171315E1
2.076175019E0,9.619500637E-1,2.535705185E1,-1.402050018E0,2.541399557E1
2.078137883E0,1.384050012E0,2.501205063E1,-7.890000343E-1,2.506273712E1
2.080100944E0,1.767000079E0,2.466705132E1,-3.670500219E-1,2.473298275E1
2.082063663E0,2.304000139E0,2.428395081E1,-6.105000153E-2,2.439308120E1
2.084026482E0,2.686950207E0,2.386305046E1,2.070000172E-1,2.401473980E1
2.085988341E0,2.955000162E0,2.344095039E1,2.449500114E-1,2.362774178E1
2.087950482E0,3.108000040E0,2.301900101E1,3.600000143E-1,2.323066232E1
2.089913673E0,3.223050117E0,2.255895042E1,4.360500276E-1,2.279220121E1
2.091876557E0,3.147000074E0,2.206095123E1,5.509500504E-1,2.229109070E1
2.093839532E0,3.337950230E0,2.133300018E1,5.899500251E-1,2.160062151E1
2.095802480E0,3.184950113E0,2.087295151E1,7.810500264E-1,2.112898604E1
2.097765359E0,3.070050240E0,2.029800034E1,9.730500579E-1,2.055190630E1
2.099728255E0,3.108000040E0,1.957005119E1,1.279950023E0,1.985660696E1
2.101690642E0,3.108000040E0,1.888005066E1,1.510050058E0,1.919365073E1
2.103653178E0,3.108000040E0,1.815195084E1,1.624950051E0,1.848765659E1
2.105615986E0,3.108000040E0,1.746195030E1,1.855050087E0,1.783313162E1
2.107578715E0,2.955000162E0,1.669500160E1,2.046000004E0,1.707750627E1
2.109541332E0,2.917050123E0,1.592895031E1,2.122950077E0,1.633240816E1
2.111503968E0,2.802000046E0,1.516200066E1,2.314950228E0,1.559155100E1
2.113466579E0,2.686950207E0,1.431900024E1,2.430000067E0,1.477018516E1
2.115429198E0,2.610000134E0,1.359105110E1,2.506050110E0,1.406446081E1
2.117391677E0,2.380050182E0,1.290105057E1,2.583000183E0,1.337062581E1
2.119354198E0,2.149950027E0,1.217295074E1,2.620950222E0,1.263615428E1
2.121316978E0,1.843950033E0,1.152105045E1,2.620950222E0,1.195843365E1
2.123279672E0,1.614000082E0,1.079295063E1,2.659050226E0,1.123224500E1
2.125242320E0,1.459950089E0,1.014105034E1,2.698050022E0,1.059489642E1
2.127204982E0,1.306950092E0,9.565950394E0,2.773950100E0,1.004541311E1
2.129167723E0,1.192050099E0,8.953050613E0,2.851050138E0,9.471356060E0
2.131130441E0,1.077000022E0,8.377950668E0,2.928000212E0,8.939976045E0
2.133093042E0,1.000050068E0,7.765050411E0,3.043050051E0,8.399777476E0
2.135055708E0,9.619500637E-1,7.228050232E0,3.157950163E0,7.946238564E0
2.137018629E0,8.850000501E-1,6.691950321E0,3.234000206E0,7.484930295E0
2.138981475E0,8.089500666E-1,6.154950142E0,3.349050045E0,7.053647827E0
2.140944232E0,8.089500666E-1,5.656950474E0,3.310950041E0,6.604383321E0
2.142907016E0,8.470500112E-1,5.197050095E0,3.349050045E0,6.240429441E0
2.144869680E0,7.699500322E-1,4.660050392E0,3.310950041E0,5.768126462E0
2.146832356E0,8.089500666E-1,4.239000320E0,3.273000240E0,5.416276812E0
2.148795276E0,8.470500112E-1,3.741000175E0,3.196050167E0,4.992725979E0
2.150758124E0,8.470500112E-1,3.396000147E0,3.234000206E0,4.765403241E0
2.152720745E0,9.240000248E-1,2.974050045E0,3.196050167E0,4.462452956E0
2.154683433E0,1.039050102E0,2.590950012E0,3.004050255E0,4.100849304E0
2.156645847E0,1.192050099E0,2.131050110E0,2.889000177E0,3.782681593E0
2.158608347E0,1.345050097E0,1.786050081E0,2.812950134E0,3.593302536E0
2.160570936E0,1.459950089E0,1.363950014E0,2.773950100E0,3.418568862E0
2.162533499E0,1.690050125E0,9.430500269E-1,2.620950222E0,3.258065813E0
2.164496529E0,1.882050037E0,5.980500579E-1,2.467950106E0,3.160783754E0
2.166459422E0,2.111999989E0,1.380000114E-1,2.314950228E0,3.136651481E0
2.168422695E0,2.341950178E0,-1.680000126E-1,2.161050081E0,3.191095751E0
2.170385836E0,2.533950090E0,-3.979500234E-1,2.085000038E0,3.305524533E0
2.172348768E0,2.686950207E0,-8.580000401E-1,2.085000038E0,3.507576178E0
2.174311761E0,2.917050123E0,-1.203000069E0,2.238000154E0,3.868466786E0
2.176274851E0,3.108000040E0,-1.509000063E0,2.238000154E0,4.116477879E0
2.178237913E0,3.223050117E0,-1.816050053E0,2.391000032E0,4.404880363E0
2.180201132E0,3.337950230E0,-2.122950077E0,2.506050110E0,4.682853395E0
2.182164302E0,3.453000069E0,-2.351999998E0,2.583000183E0,4.911924614E0
2.184127184E0,3.568050146E0,-2.581950188E0,2.659050226E0,5.144705698E0
2.186090150E0,3.607050180E0,-2.736000061E0,2.698050022E0,5.270292332E0
2.188052930E0,3.645000219E0,-2.965950251E0,2.698050022E0,5.418704772E0
2.190015765E0,3.568050146E0,-3.157050133E0,2.659050226E0,5.456051273E0
2.191978847E0,9.619500637E-1,-6.990000248E0,2.928000212E0,7.639282468E0
2.193941850E0,5.676000118E0,-7.564950466E0,1.701000094E0,9.609310809E0
2.195904760E0,4.872000217E0,-7.564950466E0,2.122950077E0,9.245094846E0
2.197867698E0,4.948050022E0,-7.948050499E0,1.663050056E0,9.508966360E0
2.199830484E0,3.874950171E0,-7.987050533E0,1.165050030E0,8.953522023E0
2.201793314E0,4.143000126E0,-8.025000572E0,8.580000401E-1,9.072003544E0
2.203757143E0,3.492000103E0,-7.680000305E0,1.680000126E-1,8.438287351E0
2.205720686E0,2.533950090E0,-7.987050533E0,-6.105000153E-2,8.379594643E0
2.207683684E0,2.955000162E0,-8.485050201E0,-9.900000691E-2,8.985427306E0
2.209646842E0,3.147000074E0,-9.021000862E0,-9.900000691E-2,9.554677756E0
2.211610039E0,3.184950113E0,-9.250950813E0,-1.759500057E-1,9.785446161E0
2.213573225E0,3.223050117E0,-9.520050049E0,-2.520000041E-1,1.005399965E1
2.215536149E0,3.492000103E0,-9.595950127E0,1.500000060E-2,1.021158893E1
2.217499150E0,3.108000040E0,-9.520050049E0,1.680000126E-1,1.001594934E1
2.219461699E0,3.184950113E0,-9.711000443E0,2.070000172E-1,1.022204900E1
2.221424381E0,3.492000103E0,-9.787950516E0,1.680000126E-1,1.039356840E1
2.223387344E0,3.184950113E0,-9.520050049E0,1.500000060E-2,1.003869938E1
2.225350225E0,2.764050245E0,-9.289950371E0,-9.900000691E-2,9.692933129E0
2.227313277E0,2.572050095E0,-9.097949982E0,-2.140500098E-1,9.456952626E0
2.229276288E0,2.572050095E0,-8.638050079E0,-1.759500057E-1,9.014560958E0
2.231238341E0,2.725050211E0,-7.872000217E0,5.295000225E-2,8.330491569E0
2.233200674E0,2.955000162E0,-6.874950409E0,4.360500276E-1,7.495806075E0
2.235163472E0,2.992950201E0,-5.764050484E0,7.050000429E-1,6.532920782E0
2.237126134E0,2.955000162E0,-4.767000198E0,1.050000072E0,5.706033386E0
2.239089131E0,2.802000046E0,-3.924000263E0,1.318050027E0,4.998623630E0
2.241052009E0,2.610000134E0,-3.196050167E0,1.395000100E0,4.355784963E0
2.243014626E0,2.457000017E0,-2.544000149E0,1.471050024E0,3.830505713E0
2.244977319E0,2.341950178E0,-2.008050203E0,1.395000100E0,3.385708424E0
2.246939741E0,2.035050154E0,-1.471050024E0,1.395000100E0,2.872532433E0
2.248902242E0,1.729050040E0,-9.730500579E-1,1.279950023E0,2.361082912E0
2.250865372E0,1.537050128E0,-5.130000114E-1,1.203000069E0,2.018143026E0
2.252828317E0,1.459950089E0,-1.680000126E-1,1.126049995E0,1.851395922E0
2.254790021E0,1.345050097E0,6.105000153E-2,1.087950110E0,1.731046593E0
2.256752088E0,1.230000019E0,3.679500222E-1,1.087950110E0,1.682831753E0
2.258714751E0,1.114950061E0,6.360000372E-1,9.730500579E-1,1.610725334E0
2.260677240E0,1.039050102E0,8.280000687E-1,1.050000072E0,1.693431244E0
2.262640082E0,8.850000501E-1,1.018950105E0,9.730500579E-1,1.663824155E0
2.264602835E0,8.089500666E-1,1.173000097E0,9.730500579E-1,1.725443669E0
2.266565607E0,6.550500393E-1,1.402950048E0,8.580000401E-1,1.770176110E0
2.268528374E0,5.790000558E-1,1.555950046E0,8.959500194E-1,1.886517439E0
2.270490423E0,4.639500082E-1,1.824000120E0,9.349500537E-1,2.101513181E0
2.272452683E0,3.490500152E-1,1.939050078E0,9.349500537E-1,2.180798643E0
2.274415378E0,3.490500152E-1,2.053950071E0,9.349500537E-1,2.283567037E0
2.276377932E0,2.719500065E-1,2.131050110E0,9.730500579E-1,2.358422734E0
2.278340693E0,1.960500032E-1,2.284050226E0,9.730500579E-1,2.490411102E0
2.280303394E0,1.960500032E-1,2.398950100E0,1.050000072E0,2.626004062E0
2.282266355E0,1.570500135E-1,2.514000177E0,1.011000037E0,2.714218612E0
2.284229240E0,1.189500093E-1,2.551950216E0,1.011000037E0,2.747493419E0
2.286191675E0,8.100000024E-2,2.706000090E0,1.011000037E0,2.889830196E0
2.288154242E0,8.100000024E-2,2.743950129E0,9.730500579E-1,2.912498880E0
2.290116999E0,-3.299999982E-2,2.859000206E0,8.580000401E-1,2.985152466E0
2.292079701E0,-7.200000435E-2,2.896950245E0,8.580000401E-1,3.022196021E0
2.294042167E0,-1.480500102E-1,2.935950041E0,7.810500264E-1,3.041670691E0
2.296004703E0,-2.629500031E-1,2.935950041E0,6.660000086E-1,3.022002872E0
2.297967530E0,-3.019500077E-1,2.935950041E0,5.509500504E-1,3.002419426E0
2.299930259E0,-3.780000210E-1,2.859000206E0,3.979500234E-1,2.911207724E0
2.301894072E0,-2.629500031E-1,2.782050133E0,2.449500114E-1,2.805164194E0
2.303857567E0,-3.400500119E-1,2.743950129E0,5.295000225E-2,2.765447526E0
2.305820213E0,-3.780000210E-1,2.514000177E0,-2.205000073E-2,2.542354639E0
2.307783107E0,-3.780000210E-1,2.284050226E0,1.680000126E-1,2.321205173E0
2.309746093E0,-5.320500135E-1,2.284050226E0,-9.900000691E-2,2.347288575E0
2.311709042E0,-6.469500065E-1,2.092950106E0,-4.440000355E-1,2.235200324E0
2.313672096E0,-6.469500065E-1,2.016000032E0,-7.890000343E-1,2.259495850E0
2.315635119E0,-6.850500107E-1,1.900950074E0,-1.057050109E0,2.280407778E0
2.317598071E0,-6.469500065E-1,1.747950077E0,-1.287000060E0,2.265003960E0
2.319561044E0,-6.469500065E-1,1.747950077E0,-1.516950130E0,2.403125357E0
2.321523752E0,-6.079500318E-1,1.594050050E0,-1.824000120E0,2.497513812E0
2.323486525E0,-6.079500318E-1,1.518000126E0,-1.786050081E0,2.421549610E0
2.325449337E0,-5.700000525E-1,1.518000126E0,-1.747050047E0,2.383570496E0
2.327412138E0,-4.930500090E-1,1.402950048E0,-1.632000089E0,2.207892986E0
2.329375037E0,-4.930500090E-1,1.363950014E0,-1.555950046E0,2.127072753E0
2.331337907E0,-5.320500135E-1,1.210950017E0,-1.632000089E0,2.100690708E0
2.333300345E0,-5.320500135E-1,1.134000063E0,-1.708950043E0,2.118854315E0
2.335262909E0,-5.320500135E-1,1.018950105E0,-1.671000123E0,2.028195736E0
2.337225848E0,-5.700000525E-1,9.430500269E-1,-1.555950046E0,1.906626329E0
2.339188677E0,-5.700000525E-1,7.890000343E-1,-1.441050053E0,1.738978542E0
2.341151256E0,-4.930500090E-1,6.739500165E-1,-1.287000060E0,1.534169512E0
2.343113909E0,-4.930500090E-1,4.440000355E-1,-1.210950017E0,1.380809287E0
2.345076688E0,-4.170000255E-1,2.910000086E-1,-1.018950105E0,1.138784151E0
2.347039437E0,-3.400500119E-1,1.759500057E-1,-9.420000315E-1,1.016836503E0
2.349002390E0,-3.019500077E-1,6.105000153E-2,-8.659500480E-1,9.191139186E-1
2.350965283E0,-1.870500147E-1,-5.295000225E-2,-7.510500550E-1,7.758012606E-1
2.352928437E0,-7.200000435E-2,-1.290000081E-1,-5.590500236E-1,5.782403752E-1
2.354891514E0,-1.099500060E-1,-1.680000126E-1,-2.910000086E-1,3.535449237E-1
2.356854216E0,-1.099500060E-1,-1.680000126E-1,-2.520000041E-1,3.222064712E-1
2.358817039E0,4.050000105E-3,-1.680000126E-1,-3.670500219E-1,4.036906307E-1
2.360779754E0,8.100000024E-2,-2.440500110E-1,-3.670500219E-1,4.481597109E-1
2.362742501E0,2.719500065E-1,-3.210000098E-1,-3.670500219E-1,5.583220673E-1
2.364704959E0,2.719500065E-1,-3.210000098E-1,-4.060500264E-1,5.847002961E-1
2.366667501E0,2.340000123E-1,-3.210000098E-1,-4.819500148E-1,6.245581068E-1
2.368630273E0,3.870000243E-1,-3.589500189E-1,-5.970000029E-1,7.968833907E-1
2.370592970E0,5.020500422E-1,-4.360500276E-1,-6.739500165E-1,9.467853485E-1
2.372556698E0,6.169500351E-1,-5.130000114E-1,-7.120500207E-1,1.072758868E0
2.374520124E0,7.699500322E-1,-4.740000367E-1,-8.269500136E-1,1.225294010E0
2.376482962E0,9.240000248E-1,-5.130000114E-1,-8.269500136E-1,1.341935685E0
2.378445972E0,1.077000022E0,-5.130000114E-1,-8.269500136E-1,1.451531737E0
2.380408655E0,1.153950095E0,-5.509500504E-1,-8.659500480E-1,1.544349787E0
2.382371434E0,1.230000019E0,-4.360500276E-1,-8.269500136E-1,1.544955015E0
2.384334066E0,1.306950092E0,-4.360500276E-1,-7.120500207E-1,1.550894388E0
2.386296742E0,1.384050012E0,-4.360500276E-1,-5.970000029E-1,1.569121749E0
2.388259706E0,1.537050128E0,-4.360500276E-1,-3.670500219E-1,1.639325606E0
2.390222586E0,1.767000079E0,-4.360500276E-1,-2.140500098E-1,1.832551858E0
2.392185317E0,1.959000111E0,-3.979500234E-1,-9.900000691E-2,2.001461130E0
2.394148106E0,2.111999989E0,-3.979500234E-1,5.295000225E-2,2.149816707E0
2.396109925E0,2.227050066E0,-3.210000098E-1,2.449500114E-1,2.263358900E0
2.398072029E0,2.419050217E0,-2.440500110E-1,3.979500234E-1,2.463681915E0
2.400034957E0,2.494950056E0,-1.680000126E-1,5.899500251E-1,2.569249077E0
2.401997643E0,2.686950207E0,-1.290000081E-1,7.429500222E-1,2.790755660E0
2.403959706E0,2.764050245E0,-5.295000225E-2,8.580000401E-1,2.894640138E0
2.405921952E0,2.839950085E0,9.900000691E-2,1.011000037E0,3.016162887E0
2.407884810E0,2.917050123E0,2.910000086E-1,1.203000069E0,3.168764995E0
2.409847489E0,3.031950235E0,4.830000103E-1,1.432950020E0,3.388119980E0
2.411810228E0,3.031950235E0,6.360000372E-1,1.585950017E0,3.480295351E0
2.413772950E0,3.223050117E0,8.280000687E-1,1.855050087E0,3.809835561E0
2.415735593E0,3.337950230E0,1.096050024E0,2.275950193E0,4.186070553E0
2.417698260E0,3.415050268E0,1.326000094E0,2.736000061E0,4.572367102E0
2.419660867E0,3.568050146E0,1.479000092E0,3.081000090E0,4.940747380E0
2.421623491E0,3.874950171E0,1.633050084E0,3.579000235E0,5.521895877E0
2.423586419E0,4.027950287E0,2.016000032E0,4.192950249E0,6.153817631E0
2.425549258E0,4.297049999E0,2.361000061E0,4.690950394E0,6.785571131E0
2.427511989E0,4.603050232E0,2.743950129E0,5.188950062E0,7.459392501E0
2.429474771E0,4.833000183E0,3.127050161E0,5.764050484E0,8.146202272E0
2.431437402E0,5.215950012E0,3.586950064E0,6.301050186E0,8.931717569E0
2.433400078E0,5.370000362E0,4.201050282E0,6.799050331E0,9.628749284E0
2.435363043E0,5.025000095E0,5.044050217E0,7.335000515E0,1.022229432E1
2.437325923E0,4.488000393E0,6.117000103E0,7.948950291E0,1.098843249E1
2.439288629E0,4.564949989E0,7.152000427E0,8.446949959E0,1.197250359E1
2.441251386E0,4.872000217E0,8.302050591E0,8.791950226E0,1.303682549E1
2.443214336E0,5.140050411E0,9.643050194E0,9.252000809E0,1.431810233E1
2.445177230E0,5.485050201E0,1.132905006E1,9.558000565E0,1.580469949E1
2.447140384E0,5.752950191E0,1.339905071E1,9.826950073E0,1.758408211E1
2.449103461E0,5.830050468E0,1.585200119E1,1.009500027E1,1.967700334E1
2.451066498E0,5.791050434E0,1.891800117E1,1.036305046E1,2.233427519E1
2.453029544E0,5.676000118E0,2.259795189E1,1.066995049E1,2.562678775E1
2.454992310E0,5.293050289E0,2.689005089E1,1.082295036E1,2.946569994E1
2.456955159E0,4.948050022E0,3.129795074E1,1.090005016E1,3.350904376E1
2.458918409E0,4.603050232E0,3.562905121E1,1.044000053E1,3.741137491E1
2.460881542E0,4.411950111E0,3.938505173E1,9.328050613E0,4.071437254E1
2.462844451E0,4.642050266E0,4.180005264E1,7.680000305E0,4.275249041E1
2.464807443E0,5.638050079E0,4.283505249E1,5.112000465E0,4.350588327E1
2.466771074E0,6.865050316E0,4.249005127E1,1.740000129E0,4.307622283E1
2.468734518E0,8.014050484E0,4.249005127E1,-2.206950188E0,4.329549735E1
2.470697308E0,9.088050842E0,4.206795120E1,-6.652950287E0,4.354959166E1
2.472660289E0,8.818950653E0,4.245105362E1,-1.121400070E1,4.478414514E1
2.474623367E0,7.516050339E0,4.229805374E1,-1.562205029E1,4.571285178E1
2.476586427E0,4.756950378E0,4.272000122E1,-1.922504997E1,4.708746784E1
2.478548606E0,-1.528050065E0,4.337100220E1,-2.160105133E1,4.847663548E1
2.480511044E0,-1.106999993E0,4.195305252E1,-2.144805145E1,4.713070099E1
2.482473914E0,-6.850500107E-1,4.183800125E1,-2.102595139E1,4.682924592E1
2.484436658E0,-3.828000069E0,4.164705276E1,-1.968495178E1,4.622367267E1
2.486399742E0,-5.629050255E0,4.103295135E1,-1.765305138E1,4.502243359E1
2.488362730E0,-5.208000183E0,4.030500031E1,-1.474005032E1,4.323060720E1
2.490325688E0,-5.169000149E0,3.953895187E1,-1.113705063E1,4.140146343E1
2.492288655E0,-3.904950142E0,3.846495056E1,-8.185950279E0,3.951975252E1
2.494251390E0,-2.563050032E0,3.735405350E1,-5.733000278E0,3.787825010E1
2.496214193E0,-1.681950092E0,3.658695221E1,-3.894000292E0,3.683201415E1
2.498177477E0,-1.834950089E0,3.605100250E1,-2.629050016E0,3.619328290E1
2.500140634E0,-2.256000042E0,3.582105255E1,-2.130000114E0,3.595516990E1
2.502103698E0,-3.175950050E0,3.559095001E1,-2.053950071E0,3.579135500E1
2.504066790E0,-4.441050053E0,3.528404999E1,-2.169000149E0,3.562852327E1
2.506029639E0,-5.437950134E0,3.516900253E1,-2.629050016E0,3.568391717E1
2.507992559E0,-6.088950157E0,3.497805023E1,-3.088950157E0,3.563819475E1
2.509955669E0,-7.009050369E0,3.486300278E1,-3.739950180E0,3.575671933E1
2.511918750E0,-7.891050339E0,3.482400131E1,-4.276950359E0,3.596209181E1
2.513881467E0,-8.464950562E0,3.493905258E1,-4.698000431E0,3.625553739E1
2.515844290E0,-8.809950829E0,3.505395126E1,-4.927950382E0,3.647847897E1
2.517807184E0,-9.040050507E0,3.509295273E1,-4.966950417E0,3.657743076E1
2.519770057E0,-9.154950142E0,3.516900253E1,-4.813050270E0,3.665838655E1
2.521732846E0,-9.079050064E0,3.520800018E1,-4.507050037E0,3.663803934E1
2.523695666E0,-8.772000313E0,3.513105011E1,-4.353000164E0,3.647036169E1
2.525658606E0,-8.197050095E0,3.497805023E1,-4.237950325E0,3.617479580E1
2.527621510E0,-7.276950359E0,3.447900009E1,-4.276950359E0,3.549715141E1
2.529584436E0,-6.241950512E0,3.398100281E1,-4.468050003E0,3.483724973E1
2.531547356E0,-5.131050110E0,3.336795044E1,-4.582950115E0,3.406979929E1
2.533510235E0,-3.943050146E0,3.271605301E1,-4.698000431E0,3.328601774E1
2.535473127E0,-2.908050060E0,3.202605057E1,-4.698000431E0,3.249916735E1
2.537436055E0,-1.987950087E0,3.129795074E1,-4.660050392E0,3.170535816E1
2.539398972E0,-1.260000110E0,3.079995155E1,-4.392000198E0,3.113702429E1
2.541361762E0,-6.079500318E-1,3.037800217E1,-4.047000408E0,3.065241966E1
2.543324589E0,-1.099500060E-1,2.991795158E1,-3.549000263E0,3.012791594E1
2.545288034E0,3.109500110E-1,2.957295227E1,-3.165000200E0,2.974346016E1
2.547251322E0,6.940500140E-1,2.922795105E1,-2.859000206E0,2.937564825E1
2.549214004E0,1.000050068E0,2.892195129E1,-2.475000143E0,2.904487894E1
2.551176863E0,1.269000053E0,2.857695198E1,-2.130000114E0,2.868430662E1
2.553139571E0,1.345050097E0,2.827005196E1,-1.786050081E0,2.835833162E1
2.555102324E0,1.614000082E0,2.803995132E1,-1.287000060E0,2.811583603E1
2.557064706E0,1.959000111E0,2.769495201E1,-6.739500165E-1,2.777232898E1
2.559027218E0,2.149950027E0,2.746500206E1,1.500000060E-2,2.754902627E1
2.560989310E0,2.457000017E0,2.708205223E1,7.429500222E-1,2.720342583E1
2.562951526E0,2.610000134E0,2.662200165E1,1.126049995E0,2.677332742E1
2.564914074E0,2.686950207E0,2.620095062E1,1.240950108E0,2.636758374E1
2.566876524E0,2.572050095E0,2.570205116E1,1.395000100E0,2.586806721E1
2.568839829E0,2.533950090E0,2.512695122E1,1.548000097E0,2.530179608E1
2.570802894E0,2.457000017E0,2.451405144E1,1.740000129E0,2.469824219E1
2.572766018E0,2.419050217E0,2.378595161E1,1.969950080E0,2.398966447E1
2.574729124E0,2.380050182E0,2.294295120E1,2.122950077E0,2.316356116E1
2.576691972E0,2.419050217E0,2.198505020E1,2.391000032E0,2.224659789E1
2.578654896E0,2.533950090E0,2.106495094E1,2.620950222E0,2.137808320E1
2.580617683E0,2.649000168E0,2.010600090E1,2.928000212E0,2.049003805E1
2.582580511E0,2.764050245E0,1.914795113E1,3.081000090E0,1.959021612E1
2.584543404E0,2.802000046E0,1.819005013E1,3.157950163E0,1.867355823E1
2.586506278E0,2.764050245E0,1.726995087E1,3.196050167E0,1.777936763E1
2.588469570E0,2.764050245E0,1.642695045E1,3.196050167E0,1.696170427E1
2.590432740E0,2.686950207E0,1.558395100E1,3.043050051E0,1.610401763E1
2.592395617E0,2.610000134E0,1.477905083E1,2.928000212E0,1.529070402E1
2.594358583E0,2.494950056E0,1.401195049E1,2.928000212E0,1.453040666E1
2.596321499E0,2.380050182E0,1.324605083E1,2.965950251E0,1.378112341E1
2.598284429E0,2.304000139E0,1.255605030E1,2.851050138E0,1.308018741E1
2.600247395E0,2.188950062E0,1.182795048E1,2.773950100E0,1.234450137E1
2.602210350E0,2.111999989E0,1.110000038E1,2.812950134E0,1.164402168E1
2.604173403E0,2.035050154E0,1.044795036E1,2.545050144E0,1.094433078E1
2.606136427E0,1.959000111E0,9.796050072E0,2.391000032E0,1.027215457E1
2.608099334E0,1.882050037E0,9.067950249E0,2.122950077E0,9.501407848E0
2.610062275E0,1.804950118E0,8.455050468E0,2.046000004E0,8.884359255E0
2.612025195E0,1.959000111E0,7.765050411E0,2.085000038E0,8.275319600E0
2.613988122E0,1.959000111E0,7.189950466E0,2.122950077E0,7.748547359E0
2.615951412E0,1.996950150E0,6.691950321E0,2.122950077E0,7.299104468E0
2.617914590E0,2.074050188E0,6.232050419E0,2.046000004E0,6.879407869E0
2.619877155E0,2.265000105E0,5.580000401E0,2.238000154E0,6.424583616E0
2.621839900E0,2.380050182E0,5.158950329E0,2.353049994E0,6.149491982E0
2.623802672E0,2.457000017E0,4.736999989E0,2.391000032E0,5.847469464E0
2.625765436E0,2.419050217E0,4.239000320E0,2.200050116E0,5.353610761E0
2.627728522E0,2.419050217E0,3.778950214E0,2.122950077E0,4.963787435E0
2.629691513E0,2.533950090E0,3.357000113E0,2.008050203E0,4.660752990E0
2.631654246E0,2.533950090E0,2.821050167E0,1.855050087E0,4.221426054E0
2.633617054E0,2.610000134E0,2.361000061E0,1.663050056E0,3.892577228E0
2.635579861E0,2.764050245E0,1.939050078E0,1.701000094E0,3.780646808E0
2.637542669E0,2.764050245E0,1.479000092E0,1.663050056E0,3.548682927E0
2.639505542E0,2.839950085E0,9.810000658E-1,1.701000094E0,3.452691549E0
2.641468412E0,2.878050089E0,5.980500579E-1,1.701000094E0,3.396209285E0
2.643432246E0,2.992950201E0,1.380000114E-1,1.740000129E0,3.464735972E0
2.645395797E0,3.031950235E0,-1.680000126E-1,1.740000129E0,3.499792377E0
2.647358839E0,3.070050240E0,-3.979500234E-1,1.855050087E0,3.608986495E0
2.649322030E0,3.070050240E0,-7.429500222E-1,1.969950080E0,3.722618235E0
2.651285054E0,3.147000074E0,-1.126049995E0,2.008050203E0,3.899213213E0
2.653248151E0,3.300000191E0,-1.432950020E0,2.046000004E0,4.138775548E0
2.655211539E0,3.376950264E0,-1.738950133E0,2.085000038E0,4.333008863E0
2.657174841E0,3.415050268E0,-2.046000004E0,2.085000038E0,4.493985927E0
2.659137745E0,3.453000069E0,-2.391000032E0,2.122950077E0,4.706060737E0
2.661100766E0,3.453000069E0,-2.659050226E0,2.008050203E0,4.798543862E0
2.663063847E0,3.453000069E0,-2.926950216E0,1.930950046E0,4.921261538E0
2.665026913E0,3.453000069E0,-3.196050167E0,2.008050203E0,5.115682923E0
2.666989813E0,3.529950142E0,-3.426000118E0,2.122950077E0,5.357699305E0
2.668952761E0,3.607050180E0,-3.655950069E0,2.200050116E0,5.587217771E0
2.670915499E0,2.955000162E0,-4.959000111E0,2.046000004E0,6.124526436E0
2.672878299E0,2.341950178E0,-7.219950199E0,1.011000037E0,7.657318890E0
2.674841407E0,2.955000162E0,-6.415050507E0,1.740000129E0,7.274097842E0
2.676804436E0,2.839950085E0,-6.721950531E0,1.740000129E0,7.501835500E0
2.678767521E0,2.992950201E0,-6.798000336E0,1.279950023E0,7.537163361E0
2.680730590E0,3.492000103E0,-6.529950142E0,1.356000066E0,7.528150487E0
2.682693668E0,3.837000132E0,-6.339000225E0,1.471050024E0,7.554434594E0
2.684656744E0,4.027950287E0,-5.878950119E0,2.085000038E0,7.425204588E0
2.686619602E0,4.105050087E0,-5.610000134E0,3.118950129E0,7.619146121E0
2.688582520E0,4.258049965E0,-5.610000134E0,3.808950186E0,8.006946517E0
2.690545623E0,4.372950077E0,-5.802000046E0,3.808950186E0,8.203291926E0
2.692508672E0,4.372950077E0,-5.994000435E0,2.928000212E0,7.976460294E0
2.694471440E0,4.219950199E0,-6.031950474E0,2.085000038E0,7.651119615E0
2.696434290E0,3.990000248E0,-6.070050240E0,1.471050024E0,7.411450604E0
2.698397443E0,3.721950293E0,-5.994000435E0,1.318050027E0,7.177618760E0
2.700360480E0,3.492000103E0,-5.839950085E0,1.432950020E0,6.953590977E0
2.702323385E0,3.223050117E0,-5.686950207E0,1.663050056E0,6.745012246E0
2.704286329E0,3.031950235E0,-5.533950329E0,1.930950046E0,6.598931470E0
2.706249788E0,2.839950085E0,-5.341950417E0,2.046000004E0,6.386537932E0
2.708213096E0,2.572050095E0,-5.265000343E0,2.046000004E0,6.206592166E0
2.710176323E0,2.457000017E0,-5.112000465E0,1.893000126E0,5.979368472E0
2.712139568E0,2.265000105E0,-5.074050426E0,1.624950051E0,5.789358848E0
2.714102571E0,2.074050188E0,-4.959000111E0,1.510050058E0,5.583333902E0
2.716065645E0,1.920000076E0,-4.920000076E0,1.510050058E0,5.493000293E0
2.718028407E0,1.882050037E0,-4.804950237E0,1.510050058E0,5.376793683E0
2.719991261E0,1.804950118E0,-4.729050159E0,1.585950017E0,5.304431901E0
2.721954200E0,1.804950118E0,-4.651950359E0,1.701000094E0,5.271801248E0
2.723917110E0,1.651950121E0,-4.537050247E0,1.663050056E0,5.106809144E0
2.725879991E0,1.537050128E0,-4.422000408E0,1.585950017E0,4.942858299E0
2.727842881E0,1.459950089E0,-4.345950127E0,1.510050058E0,4.826902521E0
2.729805674E0,1.422000051E0,-4.231050014E0,1.510050058E0,4.712124738E0
2.731768496E0,1.345050097E0,-3.886050224E0,1.510050058E0,4.380730223E0
2.733731410E0,1.230000019E0,-3.271950245E0,1.510050058E0,3.807730247E0
2.735694283E0,9.240000248E-1,-2.083950043E0,1.510050058E0,2.734387501E0
2.737657260E0,8.850000501E-1,-1.087950110E0,1.663050056E0,2.175453061E0
2.739620206E0,1.306950092E0,-2.440500110E-1,1.663050056E0,2.129181636E0
2.741582405E0,1.384050012E0,3.679500222E-1,1.510050058E0,2.081161414E0
2.743544823E0,1.306950092E0,9.430500269E-1,1.318050027E0,2.081998504E0
2.745507786E0,1.269000053E0,1.363950014E0,8.580000401E-1,2.051069196E0
2.747470590E0,1.230000019E0,1.863000035E0,3.979500234E-1,2.267605212E0
2.749434120E0,1.114950061E0,2.245950222E0,1.500000060E-2,2.507514913E0
2.751397437E0,1.039050102E0,2.514000177E0,-2.140500098E-1,2.728669898E0
2.753360293E0,1.039050102E0,2.859000206E0,-4.440000355E-1,3.074189865E0
2.755323285E0,8.470500112E-1,3.088950157E0,-6.739500165E-1,3.273120135E0
2.757285852E0,7.320000529E-1,3.319050074E0,-8.269500136E-1,3.497965665E0
2.759248532E0,6.550500393E-1,3.472050190E0,-8.269500136E-1,3.628783460E0
2.761210370E0,5.790000558E-1,3.511050224E0,-9.810000658E-1,3.691216042E0
2.763172455E0,5.020500422E-1,3.549000263E0,-9.810000658E-1,3.716156380E0
2.765135521E0,4.260000288E-1,3.549000263E0,-9.810000658E-1,3.706648084E0
2.767098299E0,3.870000243E-1,3.511050224E0,-9.420000315E-1,3.655763498E0
2.769061251E0,2.719500065E-1,3.433950186E0,-7.510500550E-1,3.525627160E0
2.771024149E0,2.340000123E-1,3.280950069E0,-5.209500194E-1,3.330282013E0
2.772987076E0,1.570500135E-1,3.204000235E0,-2.910000086E-1,3.221018972E0
2.774949995E0,1.189500093E-1,2.974050045E0,-2.140500098E-1,2.984114640E0
2.776912964E0,1.189500093E-1,2.629050016E0,-1.759500057E-1,2.637614736E0
2.778875918E0,8.100000024E-2,2.398950100E0,-2.520000041E-1,2.413509185E0
2.780839152E0,4.050000105E-3,2.053950071E0,-4.060500264E-1,2.093705787E0
2.782802303E0,4.050000105E-3,1.786050081E0,-5.590500236E-1,1.871504268E0
2.784765008E0,-3.299999982E-2,1.479000092E0,-8.269500136E-1,1.694808720E0
2.786727843E0,-3.299999982E-2,1.288050056E0,-1.057050109E0,1.666588395E0
2.788690780E0,4.050000105E-3,1.173000097E0,-1.134000063E0,1.631533565E0
2.790653687E0,-7.200000435E-2,1.018950105E0,-1.249050021E0,1.613557954E0
2.792616669E0,-2.250000089E-1,7.890000343E-1,-1.249050021E0,1.494413602E0
2.794579621E0,-3.400500119E-1,5.209500194E-1,-1.249050021E0,1.395402769E0
2.796542719E0,-4.170000255E-1,3.289500177E-1,-1.210950017E0,1.322307483E0
2.798505774E0,-4.930500090E-1,2.140500098E-1,-1.249050021E0,1.359794717E0
2.800468450E0,-5.320500135E-1,9.900000691E-2,-1.287000060E0,1.396154495E0
2.802431238E0,-6.079500318E-1,-1.500000060E-2,-1.287000060E0,1.423445607E0
2.804395094E0,-6.079500318E-1,-9.105000645E-2,-1.249050021E0,1.392127616E0
2.806358630E0,-7.230000496E-1,-9.105000645E-2,-1.171950102E0,1.380031238E0
2.808321449E0,-7.230000496E-1,-1.290000081E-1,-1.134000063E0,1.351046341E0
2.810284478E0,-7.620000243E-1,-1.290000081E-1,-1.096050024E0,1.341122923E0
2.812247383E0,-7.620000243E-1,-1.290000081E-1,-1.134000063E0,1.372312349E0
2.814210324E0,-7.620000243E-1,-2.059500068E-1,-1.096050024E0,1.350698004E0
2.816173230E0,-7.230000496E-1,-2.059500068E-1,-1.096050024E0,1.329086202E0
2.818136156E0,-7.230000496E-1,-2.059500068E-1,-1.018950105E0,1.266255817E0
2.820099258E0,-7.620000243E-1,-2.830500007E-1,-1.018950105E0,1.303464866E0
2.822062308E0,-7.620000243E-1,-2.830500007E-1,-8.659500480E-1,1.187699804E0
2.824025210E0,-7.999500632E-1,-3.589500189E-1,-7.120500207E-1,1.129504516E0
2.825988156E0,-7.620000243E-1,-3.210000098E-1,-5.590500236E-1,9.981091985E-1
2.827950914E0,-7.999500632E-1,-3.210000098E-1,-4.440000355E-1,9.695860671E-1
2.829913714E0,-7.620000243E-1,-3.589500189E-1,-3.670500219E-1,9.188116628E-1
2.831876657E0,-7.230000496E-1,-3.210000098E-1,-2.520000041E-1,8.302253188E-1
2.833839558E0,-6.850500107E-1,-3.210000098E-1,-2.520000041E-1,7.973948366E-1
2.835802305E0,-5.700000525E-1,-3.210000098E-1,-1.369500011E-1,6.683534760E-1
2.837765098E0,-5.320500135E-1,-2.830500007E-1,-1.369500011E-1,6.180208917E-1
2.839727757E0,-6.079500318E-1,-3.210000098E-1,-9.900000691E-2,6.945827875E-1
2.841690435E0,-5.700000525E-1,-3.210000098E-1,-6.105000153E-2,6.570145879E-1
2.843653354E0,-5.700000525E-1,-2.830500007E-1,-2.205000073E-2,6.367916184E-1
2.845616202E0,-4.930500090E-1,-2.830500007E-1,-2.205000073E-2,5.689479913E-1
2.847578959E0,-4.170000255E-1,-2.059500068E-1,-2.205000073E-2,4.656078061E-1
2.849541743E0,-2.629500031E-1,-2.059500068E-1,-2.205000073E-2,3.347302078E-1
2.851504553E0,-2.629500031E-1,-3.210000098E-1,-9.900000691E-2,4.265966617E-1
2.853467356E0,-3.019500077E-1,-2.830500007E-1,-1.369500011E-1,4.359431303E-1
2.855430480E0,-3.400500119E-1,-3.210000098E-1,-1.369500011E-1,4.872682215E-1
2.857393510E0,-3.400500119E-1,-3.210000098E-1,-1.369500011E-1,4.872682215E-1
2.859356190E0,-3.400500119E-1,-3.979500234E-1,-1.369500011E-1,5.410670333E-1
2.861318973E0,-3.019500077E-1,-4.360500276E-1,-2.140500098E-1,5.719535300E-1
2.863282265E0,-3.400500119E-1,-4.740000367E-1,-1.759500057E-1,6.093180203E-1
2.865245418E0,-2.629500031E-1,-4.740000367E-1,-1.369500011E-1,5.590832154E-1
2.867208483E0,-2.250000089E-1,-5.509500504E-1,-2.140500098E-1,6.324463366E-1
2.869171574E0,-2.629500031E-1,-5.890500546E-1,-2.520000041E-1,6.925508450E-1
2.871134649E0,-2.250000089E-1,-5.509500504E-1,-2.140500098E-1,6.324463366E-1
2.873097728E0,-2.250000089E-1,-5.890500546E-1,-1.759500057E-1,6.546475199E-1
2.875060669E0,-1.099500060E-1,-5.890500546E-1,-1.759500057E-1,6.245217171E-1
2.877023651E0,4.050000105E-3,-5.890500546E-1,-1.369500011E-1,6.047740670E-1
2.878986338E0,8.100000024E-2,-6.280500293E-1,-1.759500057E-1,6.572413893E-1
2.880949112E0,1.570500135E-1,-6.280500293E-1,-1.759500057E-1,6.708725293E-1
2.882912059E0,2.340000123E-1,-6.280500293E-1,-1.759500057E-1,6.929366851E-1
2.884874956E0,3.490500152E-1,-6.660000086E-1,-2.140500098E-1,7.817987793E-1
2.886839007E0,4.639500082E-1,-7.039500475E-1,-1.759500057E-1,8.612512316E-1
2.888802722E0,5.790000558E-1,-7.039500475E-1,-1.369500011E-1,9.217060468E-1
2.890765691E0,7.320000529E-1,-6.280500293E-1,-9.900000691E-2,9.695730597E-1
2.892728878E0,7.699500322E-1,-6.280500293E-1,-2.205000073E-2,9.938591922E-1
2.894691756E0,9.619500637E-1,-5.890500546E-1,5.295000225E-2,1.129217249E0
2.896654724E0,1.114950061E0,-5.890500546E-1,1.680000126E-1,1.272131129E0
2.898616884E0,1.269000053E0,-5.509500504E-1,3.979500234E-1,1.439538577E0
2.900579305E0,1.345050097E0,-5.509500504E-1,5.130000114E-1,1.541387275E0
2.902542268E0,1.422000051E0,-5.130000114E-1,7.429500222E-1,1.684407282E0
2.904505072E0,1.537050128E0,-5.130000114E-1,1.050000072E0,1.930852728E0
2.906468016E0,1.651950121E0,-4.360500276E-1,1.279950023E0,2.134795280E0
2.908430918E0,1.804950118E0,-3.589500189E-1,1.510050058E0,2.380533811E0
2.910393466E0,1.959000111E0,-2.059500068E-1,1.663050056E0,2.577951188E0
2.912356132E0,2.149950027E0,-1.290000081E-1,1.930950046E0,2.892662131E0
2.914317883E0,2.341950178E0,-1.500000060E-2,2.122950077E0,3.160992355E0
2.916279902E0,2.533950090E0,1.380000114E-1,2.314950228E0,3.434958751E0
2.918242573E0,2.764050245E0,4.060500264E-1,2.391000032E0,3.677190713E0
2.920205053E0,2.992950201E0,7.510500550E-1,2.506050110E0,3.975187322E0
2.922168082E0,3.184950113E0,9.430500269E-1,2.467950106E0,4.138118933E0
2.924130961E0,3.492000103E0,1.018950105E0,2.238000154E0,4.270944711E0
2.926094027E0,3.798000097E0,1.363950014E0,2.238000154E0,4.614521543E0
2.928057038E0,4.027950287E0,1.671000123E0,2.238000154E0,4.901557876E0
2.930019992E0,4.182000160E0,2.016000032E0,2.046000004E0,5.073410834E0
2.931982963E0,4.450050354E0,2.322000027E0,1.855050087E0,5.351246874E0
2.933946071E0,4.717950344E0,2.743950129E0,1.701000094E0,5.716792727E0
2.935909129E0,4.909950256E0,3.127050161E0,1.548000097E0,6.023483920E0
2.937871805E0,5.062950134E0,3.549000263E0,1.471050024E0,6.355537358E0
2.939834593E0,5.254950047E0,4.047000408E0,1.432950020E0,6.785724578E0
2.941797224E0,5.446050167E0,4.660050392E0,1.432950020E0,7.309505991E0
2.943759901E0,5.523000240E0,5.389050484E0,1.471050024E0,7.855532124E0
2.945722625E0,5.676000118E0,6.154950142E0,1.548000097E0,8.514498981E0
2.947685345E0,5.752950191E0,7.267050266E0,1.855050087E0,9.452389449E0
2.949648168E0,5.752950191E0,8.493000031E0,2.238000154E0,1.049933951E1
2.951610961E0,5.752950191E0,1.006500053E1,2.736000061E0,1.191160644E1
2.953573682E0,5.752950191E0,1.198095036E1,2.928000212E0,1.360929067E1
2.955536424E0,5.676000118E0,1.435695076E1,3.196050167E0,1.576558750E1
2.957499028E0,5.523000240E0,1.711695099E1,3.426000118E0,1.830931511E1
2.959461665E0,5.676000118E0,1.960800171E1,3.579000235E0,2.072438059E1
2.961424321E0,5.868000507E0,2.194605064E1,3.808950186E0,2.303411970E1
2.963386971E0,5.868000507E0,2.401605034E1,3.963000298E0,2.503816038E1
2.965349761E0,5.676000118E0,2.562600136E1,4.000950336E0,2.655026415E1
2.967312509E0,4.909950256E0,2.781000137E1,3.081000090E0,2.840768117E1
2.969275421E0,3.952050209E0,3.053205109E1,2.353049994E0,3.087655565E1
2.971238282E0,2.839950085E0,3.344400024E1,2.238000154E0,3.363889287E1
2.973201037E0,1.384050012E0,3.708600235E1,9.349500537E-1,3.712359487E1
2.975163823E0,4.050000105E-3,4.111005020E1,-9.040500522E-1,4.111998967E1
2.977126409E0,-1.795950055E0,4.559400177E1,-2.551950216E0,4.570066612E1
2.979089054E0,-4.018949986E0,5.034705353E1,-4.047000408E0,5.066908298E1
2.981051689E0,-5.706000328E0,5.529105377E1,-4.890000343E0,5.579938324E1
2.983014340E0,-6.664050102E0,5.900895309E1,-5.656950474E0,5.965288927E1
2.984977490E0,-6.856050491E0,6.257295227E1,-6.538050175E0,6.328606390E1
2.986940494E0,-6.549000263E0,6.514095306E1,-7.803000450E0,6.593269285E1
2.988903404E0,-6.127950191E0,6.575505066E1,-7.765050411E0,6.649492062E1
2.990866342E0,-5.398950100E0,6.567795563E1,-7.189950466E0,6.629055668E1
2.992828897E0,-4.249050140E0,6.475800323E1,-7.381050587E0,6.531564375E1
2.994791568E0,-3.367950201E0,6.353205490E1,-8.761050224E0,6.422165592E1
2.996754488E0,-3.138000250E0,6.222900391E1,-9.144000053E0,6.297546117E1
2.998717335E0,-2.869950056E0,6.038895416E1,-8.838000298E0,6.109969433E1
3.000680137E0,-3.175950050E0,5.858700180E1,-8.110050201E0,5.923087331E1
3.002642953E0,-3.790050268E0,5.670900345E1,-7.342950344E0,5.730789189E1
3.004606025E0,-4.863000393E0,5.525295258E1,-6.346950531E0,5.582849919E1
3.006569024E0,-6.319050312E0,5.375805283E1,-5.082000256E0,5.436621531E1
3.008531755E0,-7.392000198E0,5.168805313E1,-5.082000256E0,5.246068271E1
3.010494564E0,-7.699050426E0,4.881405258E1,-5.427000046E0,4.971457972E1
3.012457191E0,-6.970950127E0,4.551795197E1,-5.043000221E0,4.632396732E1
3.014419872E0,-5.743950367E0,4.218300247E1,-4.276950359E0,4.278657462E1
3.016382820E0,-4.824000359E0,3.934695053E1,-3.586950064E0,3.980351374E1
3.018345701E0,-4.249050140E0,3.693195343E1,-3.012000084E0,3.729739610E1
3.020308452E0,-3.943050146E0,3.478605270E1,-2.859000206E0,3.512536106E1
3.022271241E0,-3.559950113E0,3.275505066E1,-3.049950123E0,3.308880149E1
3.024233962E0,-3.138000250E0,3.106800079E1,-3.394950151E0,3.141008445E1
3.026196703E0,-2.563050032E0,2.949705124E1,-3.586950064E0,2.982467884E1
3.028159661E0,-1.950000048E0,2.819400215E1,-3.931950092E0,2.853356776E1
3.030122552E0,-1.297950029E0,2.704395103E1,-4.276950359E0,2.741080565E1
3.032085166E0,-6.850500107E-1,2.608605194E1,-4.582950115E0,2.649443019E1
3.034047862E0,-3.299999982E-2,2.539605141E1,-4.736999989E0,2.583407991E1
3.036011544E0,2.719500065E-1,2.462895203E1,-5.082000256E0,2.514927357E1
3.037974937E0,9.240000248E-1,2.420805168E1,-5.427000046E0,2.482611270E1
3.039937966E0,1.306950092E0,2.382405090E1,-5.235000134E0,2.442741792E1
3.041901098E0,1.498950124E0,2.355600166E1,-5.350050449E0,2.420237810E1
3.043863940E0,1.767000079E0,2.340300179E1,-5.272950172E0,2.405466245E1
3.045826867E0,1.996950150E0,2.324895096E1,-5.005050182E0,2.386528981E1
3.047789833E0,2.304000139E0,2.313405037E1,-4.507050037E0,2.368134716E1
3.049752788E0,2.419050217E0,2.294295120E1,-4.009050369E0,2.341587706E1
3.051715716E0,2.494950056E0,2.275095177E1,-3.739950180E0,2.319089928E1
3.053678645E0,2.610000134E0,2.263605118E1,-3.433950186E0,2.304332718E1
3.055641387E0,2.917050123E0,2.232900047E1,-3.204000235E0,2.274552837E1
3.057604184E0,3.031950235E0,2.202300072E1,-2.974050045E0,2.242878188E1
3.059566903E0,3.108000040E0,2.171595192E1,-2.743950129E0,2.210817709E1
3.061529645E0,2.955000162E0,2.140995026E1,-2.629050016E0,2.177222772E1
3.063492773E0,2.839950085E0,2.106495094E1,-2.398950100E0,2.139047536E1
3.065455792E0,2.764050245E0,2.068095016E1,-2.169000149E0,2.097727902E1
3.067418879E0,2.572050095E0,2.033595085E1,-1.786050081E0,2.057562426E1
3.069381946E0,2.533950090E0,1.987695122E1,-1.210950017E0,2.007437403E1
3.071344890E0,2.419050217E0,1.945500183E1,-7.120500207E-1,1.961774491E1
3.073307871E0,2.380050182E0,1.899495125E1,-2.140500098E-1,1.914467626E1
3.075270558E0,2.304000139E0,1.845795059E1,5.295000225E-2,1.860126771E1
3.077233332E0,2.227050066E0,1.799805069E1,2.830500007E-1,1.813752182E1
3.079195244E0,2.188950062E0,1.753905106E1,5.899500251E-1,1.768496128E1
3.081157409E0,2.074050188E0,1.707900047E1,8.580000401E-1,1.722585572E1
3.083120596E0,2.035050154E0,1.642695045E1,1.203000069E0,1.659618449E1
3.085083484E0,1.996950150E0,1.585200119E1,1.432950020E0,1.604141819E1
3.087046654E0,1.920000076E0,1.516200066E1,1.510050058E0,1.535750355E1
3.089009730E0,1.767000079E0,1.447200108E1,1.701000094E0,1.467836863E1
3.090972763E0,1.614000082E0,1.385895061E1,1.893000126E0,1.408044594E1
3.092935809E0,1.345050097E0,1.316895103E1,2.085000038E0,1.340065880E1
3.094898396E0,1.269000053E0,1.247895050E1,2.353049994E0,1.276210841E1
3.096861117E0,1.039050102E0,1.178895092E1,2.506050110E0,1.209707717E1
3.098824403E0,1.192050099E0,1.117605019E1,2.659050226E0,1.154970256E1
3.100787513E0,1.077000022E0,1.044795036E1,2.851050138E0,1.088338563E1
3.102750406E0,9.240000248E-1,9.835050583E0,2.928000212E0,1.030316365E1
3.104713362E0,8.470500112E-1,9.067950249E0,3.004050255E0,9.590074732E0
3.106675242E0,6.169500351E-1,8.455050468E0,3.043050051E0,9.007144907E0
3.108637438E0,4.639500082E-1,7.879950523E0,3.004050255E0,8.445897690E0
3.110600635E0,3.109500110E-1,7.228050232E0,2.928000212E0,7.804779645E0
3.112563528E0,8.100000024E-2,6.654000282E0,2.773950100E0,7.209513154E0
3.114526277E0,8.100000024E-2,6.079050064E0,2.736000061E0,6.666866357E0
3.116489069E0,-3.299999982E-2,5.427000046E0,2.659050226E0,6.043506151E0
3.118452058E0,-3.299999982E-2,4.813950062E0,2.620950222E0,5.481294032E0
3.120414990E0,-3.299999982E-2,4.239000320E0,2.583000183E0,4.964081251E0
3.122378236E0,1.189500093E-1,3.702000141E0,2.583000183E0,4.515622227E0
3.124341384E0,2.719500065E-1,3.204000235E0,2.545050144E0,4.100835835E0
3.126305034E0,5.790000558E-1,2.706000090E0,2.506050110E0,3.733358368E0
3.128268537E0,7.320000529E-1,2.169000149E0,2.698050022E0,3.538341369E0
3.130231317E0,1.000050068E0,1.708950043E0,2.812950134E0,3.439956227E0
3.132194309E0,1.192050099E0,1.210950017E0,2.889000177E0,3.351672032E0
3.134157050E0,1.345050097E0,7.510500550E-1,3.081000090E0,3.444676690E0
3.136119857E0,1.537050128E0,1.759500057E-1,3.234000206E0,3.585001929E0
3.138083520E0,1.690050125E0,-1.680000126E-1,3.388050079E0,3.789904586E0
3.140046932E0,1.920000076E0,-4.360500276E-1,3.733050108E0,4.220450572E0
3.142009637E0,2.149950027E0,-8.580000401E-1,3.924000263E0,4.555900268E0
3.143972549E0,2.380050182E0,-1.203000069E0,4.078050137E0,4.872611307E0
3.145935608E0,2.533950090E0,-1.509000063E0,4.192950249E0,5.126286769E0
3.147898624E0,2.649000168E0,-1.816050053E0,4.269000053E0,5.342246825E0
3.149861577E0,2.839950085E0,-2.083950043E0,4.308000088E0,5.564802694E0
3.151824549E0,2.992950201E0,-2.351999998E0,4.269000053E0,5.719616801E0
3.153787643E0,3.108000040E0,-2.544000149E0,4.269000053E0,5.861395948E0
3.155750701E0,3.184950113E0,-2.736000061E0,4.269000053E0,5.987818051E0
3.157713767E0,3.223050117E0,-2.965950251E0,4.153950214E0,6.036573145E0
3.159676841E0,3.262050152E0,-3.118950129E0,4.000950336E0,6.031287151E0
3.161640054E0,3.223050117E0,-3.349050045E0,4.000950336E0,6.132845331E0
3.163603226E0,3.184950113E0,-3.426000118E0,3.808950186E0,6.032369812E0
3.165566152E0,1.230000019E0,-6.874950409E0,3.043050051E0,7.618267308E0
3.167529151E0,3.070050240E0,-7.603050232E0,2.430000067E0,8.551986999E0
3.169492070E0,2.341950178E0,-6.568950176E0,2.889000177E0,7.548652799E0
3.171455006E0,1.882050037E0,-7.105050564E0,2.275950193E0,7.694400895E0
3.173418241E0,2.035050154E0,-7.335000515E0,1.432950020E0,7.745773521E0
3.175381389E0,2.341950178E0,-7.411950588E0,1.432950020E0,7.904118415E0
3.177344499E0,2.649000168E0,-7.603050232E0,1.318050027E0,8.158482125E0
3.179307621E0,2.802000046E0,-7.948050499E0,1.395000100E0,8.542173978E0
3.181270326E0,2.764050245E0,-7.680000305E0,1.471050024E0,8.293754676E0
3.183233156E0,3.070050240E0,-6.645000458E0,1.318050027E0,7.437640448E0
3.185196274E0,3.568050146E0,-6.184950352E0,1.395000100E0,7.275343152E0
3.187159308E0,3.952050209E0,-5.610000134E0,1.816050053E0,7.098509713E0
3.189122753E0,4.105050087E0,-5.074050426E0,2.773950100E0,7.091701002E0
3.191086077E0,4.182000160E0,-4.996950150E0,3.004050255E0,7.175162303E0
3.193049072E0,4.105050087E0,-5.112000465E0,2.773950100E0,7.118903296E0
3.195012160E0,4.027950287E0,-5.074050426E0,2.238000154E0,6.854124009E0
3.196975100E0,3.760050297E0,-5.112000465E0,1.510050058E0,6.523095751E0
3.198938083E0,3.492000103E0,-5.112000465E0,9.730500579E-1,6.266852471E0
3.200901671E0,3.300000191E0,-5.035050392E0,5.509500504E-1,6.045269197E0
3.202865081E0,2.992950201E0,-4.882050037E0,2.070000172E-1,5.730184332E0
3.204827761E0,2.725050211E0,-4.843950272E0,1.300500035E-1,5.559376394E0
3.206790641E0,2.533950090E0,-4.651950359E0,1.300500035E-1,5.298911040E0
3.208752850E0,2.457000017E0,-4.537050247E0,2.449500114E-1,5.165430721E0
3.210715256E0,2.341950178E0,-4.422000408E0,4.360500276E-1,5.022843604E0
3.212678312E0,2.304000139E0,-4.269000053E0,5.899500251E-1,4.886800500E0
3.214641177E0,2.265000105E0,-4.116000175E0,7.810500264E-1,4.762533156E0
3.216604046E0,2.188950062E0,-4.116000175E0,8.200500607E-1,4.733438699E0
3.218566927E0,2.149950027E0,-4.000950336E0,8.200500607E-1,4.615449146E0
3.220529724E0,2.074050188E0,-3.886050224E0,8.580000401E-1,4.487675857E0
3.222492545E0,1.882050037E0,-3.655950069E0,9.349500537E-1,4.216896354E0
3.224455439E0,1.729050040E0,-3.271950245E0,1.126049995E0,3.868237459E0
3.226418312E0,1.384050012E0,-2.697000027E0,1.318050027E0,3.305549796E0
3.228380880E0,1.114950061E0,-1.893000126E0,1.471050024E0,2.643965069E0
3.230343541E0,8.850000501E-1,-1.164000034E0,1.548000097E0,2.129419045E0
3.232306013E0,8.850000501E-1,-4.740000367E-1,1.624950051E0,1.910069054E0
3.234268541E0,1.153950095E0,-5.295000225E-2,1.585950017E0,1.962050453E0
3.236230405E0,1.269000053E0,3.289500177E-1,1.471050024E0,1.970420621E0
3.238192464E0,1.114950061E0,7.890000343E-1,1.318050027E0,1.898128174E0
3.240155339E0,1.000050068E0,1.096050024E0,9.730500579E-1,1.774331482E0
3.242117985E0,8.850000501E-1,1.363950014E0,5.899500251E-1,1.729631684E0
3.244081722E0,7.699500322E-1,1.518000126E0,3.600000143E-1,1.739754996E0
3.246045139E0,6.940500140E-1,1.671000123E0,2.070000172E-1,1.821207248E0
3.248007573E0,6.550500393E-1,1.747950077E0,2.070000172E-1,1.878102509E0
3.249970295E0,6.550500393E-1,1.824000120E0,2.070000172E-1,1.949080809E0
3.251932157E0,5.790000558E-1,1.863000035E0,1.680000126E-1,1.958120068E0
3.253894281E0,5.020500422E-1,1.900950074E0,2.449500114E-1,1.981329336E0
3.255857025E0,4.639500082E-1,1.863000035E0,2.449500114E-1,1.935463575E0
3.257819587E0,3.490500152E-1,1.786050081E0,2.830500007E-1,1.841718792E0
3.259782346E0,2.340000123E-1,1.747950077E0,2.070000172E-1,1.775650440E0
3.261745048E0,1.960500032E-1,1.633050084E0,2.449500114E-1,1.662915719E0
3.263707690E0,1.570500135E-1,1.594050050E0,2.070000172E-1,1.615088008E0
3.265670353E0,4.200000316E-2,1.479000092E0,1.300500035E-1,1.485300735E0
3.267633094E0,4.050000105E-3,1.402950048E0,5.295000225E-2,1.403954751E0
3.269595812E0,-7.200000435E-2,1.363950014E0,-9.900000691E-2,1.369432234E0
3.271558771E0,-1.870500147E-1,1.288050056E0,-2.520000041E-1,1.325731743E0
3.273521659E0,-3.400500119E-1,1.249050021E0,-4.440000355E-1,1.368537905E0
3.275484399E0,-4.930500090E-1,1.173000097E0,-5.590500236E-1,1.389807349E0
3.277447189E0,-5.320500135E-1,1.173000097E0,-7.120500207E-1,1.471741036E0
3.279409820E0,-6.469500065E-1,1.173000097E0,-7.890000343E-1,1.554668644E0
3.281372497E0,-7.230000496E-1,1.096050024E0,-7.890000343E-1,1.531853707E0
3.283335102E0,-7.620000243E-1,1.057950020E0,-8.659500480E-1,1.565174676E0
3.285297728E0,-8.380500674E-1,9.810000658E-1,-9.810000658E-1,1.620817748E0
3.287260511E0,-8.380500674E-1,9.040500522E-1,-1.057050109E0,1.623880952E0
3.289223255E0,-9.150000215E-1,8.280000687E-1,-1.096050024E0,1.650495322E0
3.291185850E0,-9.919500351E-1,7.129500508E-1,-1.171950102E0,1.692846623E0
3.293148488E0,-1.068000078E0,7.129500508E-1,-1.210950017E0,1.765027446E0
