"Time (s)","Acceleration x (m/s^2)","Acceleration y (m/s^2)","Acceleration z (m/s^2)","Absolute acceleration (m/s^2)"
2.698127600E-2,9.394050598E0,-6.110895157E1,1.289295101E1,6.315679167E1
2.894241000E-2,1.318905067E1,-6.294795227E1,8.869050026E0,6.492346110E1
3.090619900E-2,1.752000046E1,-6.459705353E1,2.085000038E0,6.696325086E1
3.286897300E-2,2.284695053E1,-6.632100677E1,-1.002600002E1,7.085887217E1
3.483204500E-2,2.917095184E1,-6.827595520E1,-2.148600197E1,7.729294127E1
3.679436200E-2,3.319605255E1,-6.842895508E1,-2.754195213E1,8.088917681E1
3.875689600E-2,3.522705078E1,-6.674295044E1,-3.053100204E1,8.141074024E1
4.071903000E-2,3.488205338E1,-6.287205124E1,-2.961105156E1,7.775903066E1
4.268128100E-2,3.131805229E1,-5.708400345E1,-2.386200142E1,6.934550426E1
4.464355200E-2,2.491695213E1,-5.060700226E1,-1.604295158E1,5.864554098E1
4.660581700E-2,1.851600075E1,-4.527900314E1,-8.875950813E0,4.971733010E1
4.856731100E-2,1.215405083E1,-4.083300018E1,-3.394950151E0,4.273851357E1
5.052900700E-2,7.285950184E0,-3.738405228E1,7.050000429E-1,3.809395569E1
5.249159900E-2,3.798000097E0,-3.443295288E1,3.196050167E0,3.478890319E1
5.445392800E-2,1.459950089E0,-3.201795197E1,4.729050159E0,3.239821936E1
5.641546700E-2,4.200000316E-2,-2.994795227E1,5.496000290E0,3.044811371E1
5.837723800E-2,-5.700000525E-1,-2.833905220E1,5.764050484E0,2.892492105E1
6.033982100E-2,-8.770500422E-1,-2.692005157E1,5.841000080E0,2.756040050E1
6.230216300E-2,-9.529500604E-1,-2.569395065E1,5.956050396E0,2.639245631E1
6.426482600E-2,-9.150000215E-1,-2.462100029E1,5.878950119E0,2.532968485E1
6.622739400E-2,-8.770500422E-1,-2.373900032E1,5.457000256E0,2.437392469E1
6.819019800E-2,-7.620000243E-1,-2.316405106E1,4.843950272E0,2.367736809E1
7.015293200E-2,-7.230000496E-1,-2.274300194E1,4.000950336E0,2.310355968E1
7.211576800E-2,-5.700000525E-1,-2.239800072E1,3.004050255E0,2.260574383E1
7.407856300E-2,-4.930500090E-1,-2.212995148E1,1.855050087E0,2.221303810E1
7.604200400E-2,-4.930500090E-1,-2.205300140E1,9.349500537E-1,2.207831744E1
7.800525500E-2,-6.850500107E-1,-2.190000153E1,1.500000060E-2,2.191071850E1
7.996762700E-2,-7.620000243E-1,-2.182305145E1,-4.440000355E-1,2.184086433E1
8.193025700E-2,-9.150000215E-1,-2.182305145E1,-7.890000343E-1,2.185647091E1
8.389269400E-2,-8.770500422E-1,-2.190000153E1,-1.018950105E0,2.194122929E1
8.585518400E-2,-7.999500632E-1,-2.205300140E1,-1.057050109E0,2.209280756E1
8.781741500E-2,-7.620000243E-1,-2.228295135E1,-8.659500480E-1,2.231278635E1
8.977972200E-2,-8.380500674E-1,-2.255100060E1,-5.590500236E-1,2.257349093E1
9.174243400E-2,-9.919500351E-1,-2.278095055E1,-1.759500057E-1,2.280321537E1
9.370502800E-2,-9.919500351E-1,-2.308800125E1,2.070000172E-1,2.311022751E1
9.566674200E-2,-1.144950032E0,-2.339400101E1,5.899500251E-1,2.342943095E1
9.762871700E-2,-1.183050036E0,-2.354805183E1,1.126049995E0,2.360462542E1
9.959144100E-2,-1.106999993E0,-2.362395096E1,1.471050024E0,2.369557967E1
1.015539460E-1,-1.106999993E0,-2.362395096E1,1.624950051E0,2.370563162E1
1.035164010E-1,-1.068000078E0,-2.350905037E1,2.085000038E0,2.362547986E1
1.054788710E-1,-1.030050039E0,-2.331795120E1,2.506050110E0,2.347484054E1
1.074413020E-1,-1.068000078E0,-2.308800125E1,2.812950134E0,2.328323677E1
1.094037650E-1,-1.068000078E0,-2.281905174E1,2.965950251E0,2.303576800E1
1.113663600E-1,-1.144950032E0,-2.255100060E1,3.118950129E0,2.279443766E1
1.133289170E-1,-1.336950064E0,-2.220600128E1,3.081000090E0,2.245855049E1
1.152917680E-1,-1.260000110E0,-2.193795013E1,3.043050051E0,2.218380964E1
1.172545330E-1,-1.183050036E0,-2.170800018E1,3.043050051E0,2.195215326E1
1.192171090E-1,-1.068000078E0,-2.143995094E1,3.004050255E0,2.167571080E1
1.211797510E-1,-9.919500351E-1,-2.113305092E1,3.081000090E0,2.137948474E1
1.231423620E-1,-9.529500604E-1,-2.086500168E1,3.004050255E0,2.110167592E1
1.251049820E-1,-8.380500674E-1,-2.052000046E1,2.889000177E0,2.073931216E1
1.270673710E-1,-8.380500674E-1,-2.029005051E1,2.736000061E0,2.049083146E1
1.290298280E-1,-7.230000496E-1,-1.979205132E1,2.620950222E0,1.997792293E1
1.309925340E-1,-4.549500346E-1,-1.944705009E1,2.506050110E0,1.961313397E1
1.329551530E-1,-3.400500119E-1,-1.902495003E1,2.353049994E0,1.917292888E1
1.349177240E-1,-1.480500102E-1,-1.856505013E1,2.275950193E0,1.870462387E1
1.368803090E-1,8.100000024E-2,-1.810500145E1,2.200050116E0,1.823836229E1
1.388426140E-1,1.570500135E-1,-1.764495087E1,2.238000154E0,1.778700651E1
1.408050010E-1,3.109500110E-1,-1.707000160E1,2.314950228E0,1.722906379E1
1.427677800E-1,4.639500082E-1,-1.657200050E1,2.314950228E0,1.673933824E1
1.447304510E-1,4.260000288E-1,-1.595895100E1,2.391000032E0,1.614269104E1
1.466941840E-1,6.550500393E-1,-1.542195034E1,2.583000183E0,1.565048027E1
1.486576050E-1,8.089500666E-1,-1.492395115E1,2.659050226E0,1.518055553E1
1.506200830E-1,1.000050068E0,-1.446405029E1,2.812950134E0,1.476893833E1
1.525828370E-1,1.192050099E0,-1.396605110E1,2.736000061E0,1.428136069E1
1.545455790E-1,1.306950092E0,-1.346700096E1,2.545050144E0,1.376755293E1
1.565083450E-1,1.306950092E0,-1.289295101E1,2.506050110E0,1.319911328E1
1.584708910E-1,1.345050097E0,-1.224105072E1,2.238000154E0,1.251643428E1
1.604335010E-1,1.384050012E0,-1.155105019E1,1.930950046E0,1.179283354E1
1.623961160E-1,1.537050128E0,-1.097595024E1,1.816050053E0,1.123085235E1
1.643587300E-1,1.614000082E0,-1.032495022E1,1.777950048E0,1.060050469E1
1.663211520E-1,1.651950121E0,-9.673050880E0,1.701000094E0,9.959430398E0
1.682836410E-1,1.575000048E0,-8.868000031E0,1.510050058E0,9.132486018E0
1.702462770E-1,1.459950089E0,-8.140049934E0,1.471050024E0,8.399753292E0
1.722088690E-1,1.306950092E0,-7.335000515E0,1.240950108E0,7.553165447E0
1.741716690E-1,1.269000053E0,-6.529950142E0,9.349500537E-1,6.717495188E0
1.761344080E-1,1.077000022E0,-5.725050449E0,3.220500052E-1,5.834367824E0
1.780977330E-1,8.470500112E-1,-4.959000111E0,-9.900000691E-2,5.031796580E0
1.800608790E-1,6.550500393E-1,-4.153950214E0,-5.209500194E-1,4.237426325E0
1.820228640E-1,5.410500169E-1,-3.463950157E0,-8.269500136E-1,3.602156595E0
1.839851890E-1,4.260000288E-1,-2.773950100E0,-1.096050024E0,3.012905713E0
1.859480340E-1,3.490500152E-1,-2.199000120E0,-1.249050021E0,2.552951899E0
1.879107260E-1,5.020500422E-1,-1.701000094E0,-1.479000092E0,2.309306571E0
1.898735200E-1,4.260000288E-1,-1.240950108E0,-1.516950130E0,2.005634785E0
1.918363080E-1,5.020500422E-1,-8.959500194E-1,-1.632000089E0,1.928264757E0
1.937995700E-1,7.320000529E-1,-6.280500293E-1,-1.479000092E0,1.765704445E0
1.957626930E-1,8.470500112E-1,-3.210000098E-1,-1.287000060E0,1.573818249E0
1.977252220E-1,9.240000248E-1,-1.680000126E-1,-1.096050024E0,1.443373031E0
1.996879250E-1,1.114950061E0,-5.295000225E-2,-8.269500136E-1,1.389159338E0
2.016497990E-1,1.114950061E0,9.900000691E-2,-6.360000372E-1,1.287404632E0
2.036119200E-1,1.269000053E0,3.289500177E-1,-3.670500219E-1,1.361357766E0
2.055746190E-1,1.345050097E0,4.830000103E-1,-9.900000691E-2,1.432567546E0
2.075371490E-1,1.498950124E0,5.980500579E-1,9.195000678E-2,1.616468419E0
2.094989240E-1,1.537050128E0,8.280000687E-1,2.449500114E-1,1.762982620E0
2.114609200E-1,1.690050125E0,9.430500269E-1,5.130000114E-1,2.002194244E0
2.134236220E-1,1.843950033E0,1.057950020E0,6.660000086E-1,2.227771528E0
2.153861300E-1,2.035050154E0,1.210950017E0,7.050000429E-1,2.470800302E0
2.173485400E-1,2.074050188E0,1.288050056E0,7.050000429E-1,2.541216675E0
2.193109780E-1,2.111999989E0,1.402950048E0,7.810500264E-1,2.653083477E0
2.212736230E-1,2.149950027E0,1.555950046E0,7.050000429E-1,2.745958981E0
2.232362070E-1,2.188950062E0,1.594050050E0,5.899500251E-1,2.771378532E0
2.251998900E-1,2.188950062E0,1.594050050E0,3.220500052E-1,2.726942269E0
2.271632650E-1,2.188950062E0,1.633050084E0,1.300500035E-1,2.734093626E0
2.291257510E-1,2.341950178E0,1.633050084E0,-9.900000691E-2,2.856813647E0
2.310884980E-1,2.380050182E0,1.671000123E0,-3.670500219E-1,2.931144145E0
2.330512700E-1,2.419050217E0,1.708950043E0,-6.739500165E-1,3.037519189E0
2.350140340E-1,2.419050217E0,1.824000120E0,-1.018950105E0,3.196410441E0
2.369771360E-1,2.457000017E0,1.786050081E0,-1.287000060E0,3.298968495E0
2.389401590E-1,2.419050217E0,1.863000035E0,-1.516950130E0,3.409356359E0
2.409029310E-1,2.457000017E0,1.978050113E0,-1.747050047E0,3.605789123E0
2.428657770E-1,2.380050182E0,2.016000032E0,-1.977000117E0,3.692888363E0
2.448283520E-1,2.341950178E0,2.016000032E0,-2.130000114E0,3.753117005E0
2.467910070E-1,2.341950178E0,2.092950106E0,-2.245050192E0,3.860753961E0
2.487534490E-1,2.304000139E0,2.131050110E0,-2.398950100E0,3.950285154E0
2.507159440E-1,2.304000139E0,2.169000149E0,-2.590050220E0,4.089173319E0
2.526787140E-1,2.265000105E0,2.131050110E0,-2.667000055E0,4.096887763E0
2.546414040E-1,2.304000139E0,2.169000149E0,-2.704950094E0,4.162899626E0
2.566041870E-1,2.227050066E0,2.208000183E0,-2.743950129E0,4.167046810E0
2.585669420E-1,2.188950062E0,2.169000149E0,-2.820000172E0,4.177135979E0
2.605295250E-1,2.188950062E0,2.131050110E0,-2.743950129E0,4.106353523E0
2.624921650E-1,2.227050066E0,2.092950106E0,-2.667000055E0,4.056239815E0
2.644547760E-1,2.227050066E0,2.016000032E0,-2.514000177E0,3.917167985E0
2.664173960E-1,2.341950178E0,1.978050113E0,-2.322000027E0,3.845659503E0
2.683798750E-1,2.304000139E0,1.939050078E0,-2.130000114E0,3.688527123E0
2.703423960E-1,2.419050217E0,1.900950074E0,-1.900950074E0,3.616493650E0
2.723051580E-1,2.572050095E0,1.863000035E0,-1.516950130E0,3.519566524E0
2.742678520E-1,2.572050095E0,1.747950077E0,-1.096050024E0,3.297286281E0
2.762306340E-1,2.725050211E0,1.633050084E0,-6.739500165E-1,3.247608328E0
2.781933900E-1,2.802000046E0,1.518000126E0,-1.759500057E-1,3.191627648E0
2.801551260E-1,2.955000162E0,1.363950014E0,2.449500114E-1,3.263799336E0
2.821171610E-1,2.992950201E0,1.249050021E0,6.660000086E-1,3.310805472E0
2.840800640E-1,3.108000040E0,1.096050024E0,1.126049995E0,3.482668301E0
2.860427070E-1,3.184950113E0,9.810000658E-1,1.510050058E0,3.658759289E0
2.880052740E-1,3.262050152E0,8.280000687E-1,1.930950046E0,3.880093219E0
2.899678630E-1,3.262050152E0,7.129500508E-1,2.391000032E0,4.106841867E0
2.919306620E-1,3.337950230E0,5.209500194E-1,2.812950134E0,4.396133428E0
2.938933990E-1,3.415050268E0,3.679500222E-1,3.196050167E0,4.691768560E0
2.958561840E-1,3.453000069E0,2.140500098E-1,3.579000235E0,4.977777572E0
2.978189480E-1,3.492000103E0,6.105000153E-2,4.000950336E0,5.310875203E0
2.997824390E-1,3.492000103E0,-9.105000645E-2,4.269000053E0,5.516041722E0
3.017457170E-1,3.453000069E0,-1.680000126E-1,4.498950005E0,5.673798077E0
3.037080850E-1,3.262050152E0,-2.059500068E-1,4.653000355E0,5.686281641E0
3.056707190E-1,3.108000040E0,-3.210000098E-1,4.729050159E0,5.668034992E0
3.076336250E-1,2.878050089E0,-3.589500189E-1,4.614000320E0,5.449863887E0
3.095964660E-1,2.686950207E0,-4.360500276E-1,4.461000443E0,5.225932069E0
3.115590440E-1,2.533950090E0,-4.360500276E-1,4.269000053E0,4.983513233E0
3.135216990E-1,2.457000017E0,-5.509500504E-1,4.039050102E0,4.759655531E0
3.154841270E-1,2.419050217E0,-6.280500293E-1,3.847950220E0,4.588351740E0
3.174466220E-1,2.265000105E0,-6.660000086E-1,3.579000235E0,4.287542905E0
3.194090400E-1,2.149950027E0,-7.810500264E-1,3.388050079E0,4.087934393E0
3.213715070E-1,2.074050188E0,-8.580000401E-1,3.157950163E0,3.874338328E0
3.233341470E-1,1.920000076E0,-8.580000401E-1,2.965950251E0,3.635852754E0
3.252967360E-1,1.767000079E0,-8.959500194E-1,2.659050226E0,3.315955944E0
3.272591770E-1,1.651950121E0,-8.580000401E-1,2.430000067E0,3.061046160E0
3.292216610E-1,1.614000082E0,-7.810500264E-1,2.200050116E0,2.838178275E0
3.311842930E-1,1.498950124E0,-7.429500222E-1,1.930950046E0,2.554876570E0
3.331468850E-1,1.422000051E0,-7.429500222E-1,1.663050056E0,2.310799508E0
3.351095040E-1,1.306950092E0,-7.039500475E-1,1.471050024E0,2.089892913E0
3.370721150E-1,1.306950092E0,-6.280500293E-1,1.279950023E0,1.934124464E0
3.390345970E-1,1.230000019E0,-5.509500504E-1,1.087950110E0,1.732074319E0
3.409971170E-1,1.153950095E0,-5.130000114E-1,8.580000401E-1,1.526739632E0
3.429599140E-1,1.077000022E0,-4.360500276E-1,5.899500251E-1,1.303115385E0
3.449226400E-1,1.000050068E0,-3.979500234E-1,3.600000143E-1,1.134929236E0
3.468860920E-1,8.850000501E-1,-2.830500007E-1,2.449500114E-1,9.609073314E-1
3.488493320E-1,8.089500666E-1,-2.059500068E-1,5.295000225E-2,8.364324947E-1
3.508120220E-1,7.320000529E-1,-1.680000126E-1,-9.900000691E-2,7.575282721E-1
3.527748730E-1,6.550500393E-1,-1.290000081E-1,-2.520000041E-1,7.136074258E-1
3.547370820E-1,5.790000558E-1,-1.680000126E-1,-2.910000086E-1,6.694371321E-1
3.566994830E-1,5.790000558E-1,-1.290000081E-1,-4.440000355E-1,7.409575550E-1
3.586627200E-1,5.410500169E-1,-1.290000081E-1,-5.209500194E-1,7.620794221E-1
3.606257120E-1,5.410500169E-1,-1.290000081E-1,-5.590500236E-1,7.886146408E-1
3.625879030E-1,4.639500082E-1,-9.105000645E-2,-5.590500236E-1,7.321725497E-1
3.645503290E-1,3.870000243E-1,-1.290000081E-1,-5.209500194E-1,6.616637693E-1
3.665127660E-1,3.870000243E-1,-1.290000081E-1,-5.590500236E-1,6.920599322E-1
3.684752200E-1,3.870000243E-1,-9.105000645E-2,-5.590500236E-1,6.860000374E-1
3.704379990E-1,3.490500152E-1,-9.105000645E-2,-5.590500236E-1,6.653292009E-1
3.724006820E-1,3.490500152E-1,-9.105000645E-2,-4.819500148E-1,6.019982007E-1
3.743634660E-1,3.109500110E-1,-1.290000081E-1,-4.440000355E-1,5.571956057E-1
3.763262200E-1,3.490500152E-1,-9.105000645E-2,-4.060500264E-1,5.431414556E-1
3.782884580E-1,3.109500110E-1,-9.105000645E-2,-3.670500219E-1,4.895975200E-1
3.802508430E-1,2.719500065E-1,-9.105000645E-2,-3.670500219E-1,4.658032077E-1
3.822135410E-1,2.719500065E-1,-1.290000081E-1,-2.910000086E-1,4.186631260E-1
3.841761480E-1,2.340000123E-1,-1.290000081E-1,-2.520000041E-1,3.672887282E-1
3.861385860E-1,2.719500065E-1,-1.680000126E-1,-2.140500098E-1,3.847053639E-1
3.881010730E-1,1.960500032E-1,-1.680000126E-1,-1.759500057E-1,3.124388140E-1
3.900634920E-1,1.960500032E-1,-1.680000126E-1,-2.140500098E-1,3.353759304E-1
3.920259580E-1,1.570500135E-1,-1.680000126E-1,-2.140500098E-1,3.141752977E-1
3.939887780E-1,1.960500032E-1,-2.440500110E-1,-2.520000041E-1,4.018706430E-1
3.959514940E-1,1.960500032E-1,-2.830500007E-1,-3.289500177E-1,4.761943099E-1
3.979142280E-1,1.570500135E-1,-3.210000098E-1,-3.289500177E-1,4.857096120E-1
3.998769560E-1,1.570500135E-1,-3.210000098E-1,-4.060500264E-1,5.409088065E-1
4.018396170E-1,1.570500135E-1,-4.360500276E-1,-5.209500194E-1,6.972755954E-1
4.038022840E-1,1.189500093E-1,-4.740000367E-1,-6.739500165E-1,8.324864949E-1
4.057652500E-1,1.570500135E-1,-5.509500504E-1,-7.120500207E-1,9.139069409E-1
4.077281280E-1,1.960500032E-1,-6.280500293E-1,-8.269500136E-1,1.056753882E0
4.096907000E-1,2.719500065E-1,-7.039500475E-1,-9.810000658E-1,1.237684776E0
4.116533610E-1,2.340000123E-1,-8.580000401E-1,-1.134000063E0,1.441137126E0
4.136163380E-1,3.109500110E-1,-8.959500194E-1,-1.287000060E0,1.598682427E0
4.155792150E-1,3.870000243E-1,-9.340500236E-1,-1.516950130E0,1.823007450E0
4.175421010E-1,4.260000288E-1,-1.011000037E0,-1.594050050E0,1.935095001E0
4.195049850E-1,5.410500169E-1,-1.048950076E0,-1.708950043E0,2.076906746E0
4.214684550E-1,6.550500393E-1,-1.126049995E0,-1.747050047E0,2.179280389E0
4.234317540E-1,7.699500322E-1,-1.048950076E0,-1.786050081E0,2.209772433E0
4.253940830E-1,8.470500112E-1,-1.011000037E0,-1.708950043E0,2.158732277E0
4.273566890E-1,8.850000501E-1,-9.730500579E-1,-1.671000123E0,2.126568342E0
4.293187650E-1,8.470500112E-1,-8.959500194E-1,-1.671000123E0,2.076646713E0
4.312809970E-1,9.619500637E-1,-8.959500194E-1,-1.594050050E0,2.066172772E0
4.332435420E-1,8.470500112E-1,-7.039500475E-1,-1.516950130E0,1.874613851E0
4.352059950E-1,8.850000501E-1,-6.280500293E-1,-1.402050018E0,1.772968184E0
4.371686180E-1,7.699500322E-1,-5.130000114E-1,-1.171950102E0,1.493137336E0
4.391312050E-1,6.940500140E-1,-3.979500234E-1,-8.269500136E-1,1.150615474E0
4.410928800E-1,5.410500169E-1,-2.830500007E-1,-3.670500219E-1,7.124451854E-1
4.430548230E-1,3.870000243E-1,-2.440500110E-1,1.680000126E-1,4.873945332E-1
4.450168320E-1,3.109500110E-1,-1.680000126E-1,7.429500222E-1,8.227324286E-1
4.469788210E-1,1.189500093E-1,-1.290000081E-1,1.356000066E0,1.367306215E0
4.489411980E-1,4.200000316E-2,-5.295000225E-2,1.624950051E0,1.626354934E0
4.509034510E-1,-3.299999982E-2,-1.500000060E-2,2.046000004E0,2.046321093E0
4.528657690E-1,-7.200000435E-2,9.900000691E-2,2.545050144E0,2.547992394E0
4.548280670E-1,-1.480500102E-1,9.900000691E-2,2.928000212E0,2.933411844E0
4.567906020E-1,-1.099500060E-1,2.140500098E-1,3.196050167E0,3.205096423E0
4.587530670E-1,-1.480500102E-1,2.910000086E-1,3.463950157E0,3.479303163E0
4.607157080E-1,-1.480500102E-1,3.289500177E-1,3.694050074E0,3.711621326E0
4.626782970E-1,-1.480500102E-1,4.060500264E-1,3.771000147E0,3.795686702E0
4.646414580E-1,-1.480500102E-1,4.830000103E-1,3.886050224E0,3.918749056E0
4.666044510E-1,-3.299999982E-2,5.590500236E-1,3.924000263E0,3.963761344E0
4.685673190E-1,4.200000316E-2,5.590500236E-1,3.847950220E0,3.888575809E0
4.705302230E-1,1.570500135E-1,5.980500579E-1,3.733050108E0,3.783912220E0
4.724928070E-1,1.960500032E-1,5.590500236E-1,3.579000235E0,3.627701092E0
4.744554720E-1,3.490500152E-1,6.360000372E-1,3.388050079E0,3.464854297E0
4.764186190E-1,5.020500422E-1,6.739500165E-1,3.157950163E0,3.267860478E0
4.783816240E-1,6.940500140E-1,5.980500579E-1,3.118950129E0,3.250725949E0
4.803442190E-1,7.320000529E-1,6.360000372E-1,3.043050051E0,3.193818050E0
4.823069340E-1,7.320000529E-1,5.590500236E-1,3.081000090E0,3.215730486E0
4.842693520E-1,7.320000529E-1,5.590500236E-1,3.043050051E0,3.179389032E0
4.862318570E-1,5.790000558E-1,4.830000103E-1,2.889000177E0,2.985774958E0
4.881937700E-1,5.020500422E-1,3.679500222E-1,2.620950222E0,2.693848832E0
4.901558570E-1,5.410500169E-1,1.759500057E-1,2.275950193E0,2.345984401E0
4.921200040E-1,6.940500140E-1,-9.105000645E-2,1.893000126E0,2.018277732E0
4.940835470E-1,1.000050068E0,-2.830500007E-1,1.548000097E0,1.864543307E0
4.960462090E-1,1.192050099E0,-6.280500293E-1,1.356000066E0,1.911587418E0
4.980091120E-1,1.345050097E0,-1.011000037E0,9.730500579E-1,1.943735386E0
4.999723980E-1,1.614000082E0,-1.318050027E0,2.449500114E-1,2.098154581E0
5.019355710E-1,1.996950150E0,-1.624050021E0,-3.670500219E-1,2.600014248E0
5.038980470E-1,2.304000139E0,-1.930950046E0,-1.134000063E0,3.212933374E0
5.058607270E-1,2.686950207E0,-2.275950193E0,-2.245050192E0,4.176110758E0
5.078235540E-1,3.031950235E0,-2.697000027E0,-3.931950092E0,5.650377235E0
5.097863070E-1,3.337950230E0,-3.310950041E0,-5.809950352E0,7.473943069E0
5.117491240E-1,3.645000219E0,-3.924000263E0,-8.032950401E0,9.654641206E0
5.137119220E-1,3.837000132E0,-4.729050159E0,-1.033305073E1,1.199409950E1
5.156746430E-1,4.027950287E0,-5.494950294E0,-1.178895092E1,1.361610172E1
5.176373860E-1,4.027950287E0,-6.031950474E0,-1.155900097E1,1.364621975E1
5.196000050E-1,3.798000097E0,-6.607050419E0,-9.681000710E0,1.232070188E1
5.215626740E-1,3.529950142E0,-7.872000217E0,-7.458000183E0,1.140397747E1
5.235252350E-1,2.494950056E0,-9.826050758E0,-5.772000313E0,1.166584917E1
5.254878280E-1,7.699500322E-1,-1.243305016E1,-4.315050125E0,1.318306553E1
5.274497710E-1,-7.620000243E-1,-1.500105095E1,-2.398950100E0,1.521075722E1
5.294119050E-1,-2.563050032E0,-1.741500092E1,-9.810000658E-1,1.762991331E1
5.313738510E-1,-4.288050175E0,-2.017500114E1,2.449500114E-1,2.062711919E1
5.333358420E-1,-6.241950512E0,-2.381595039E1,1.701000094E0,2.467903646E1
5.352986090E-1,-8.005949974E0,-2.806995201E1,3.694050074E0,2.942215911E1
5.372611480E-1,-9.615000725E0,-3.228600311E1,5.188950062E0,3.408459239E1
5.392232370E-1,-1.091805077E1,-3.611894989E1,5.917050362E0,3.819416001E1
5.411854580E-1,-1.149300098E1,-3.968400192E1,6.568950176E0,4.183372069E1
5.431479600E-1,-1.122495079E1,-4.271100235E1,7.603950500E0,4.481126315E1
5.451103790E-1,-1.057395077E1,-4.527900314E1,8.983950615E0,4.735723735E1
5.470730280E-1,-9.654000282E0,-4.727205276E1,9.903000832E0,4.925358992E1
5.490356090E-1,-8.350950241E0,-4.903605270E1,1.005705070E1,5.074856750E1
5.509978260E-1,-6.894000530E0,-5.072205353E1,9.597000122E0,5.208028772E1
5.529601500E-1,-4.978050232E0,-5.202495193E1,8.254950523E0,5.291049817E1
5.549228560E-1,-2.677950144E0,-5.290695190E1,5.841000080E0,5.329572458E1
5.568854520E-1,4.050000105E-3,-5.352000427E1,2.467950106E0,5.357687609E1
5.588495130E-1,2.419050217E0,-5.367300415E1,-1.171950102E0,5.374027024E1
5.608131440E-1,5.025000095E0,-5.355795288E1,-5.082000256E0,5.403269075E1
5.627753610E-1,7.708050251E0,-5.336700439E1,-9.106050491E0,5.468428798E1
5.647379920E-1,1.016100025E1,-5.302200317E1,-1.286205101E1,5.549784773E1
5.667002890E-1,1.276695061E1,-5.260005188E1,-1.516200066E1,5.621073518E1
5.686626840E-1,1.518195057E1,-5.240805435E1,-1.608195114E1,5.688343288E1
5.706247510E-1,1.729005051E1,-5.206305313E1,-1.523895073E1,5.693621841E1
5.725869150E-1,1.893795013E1,-5.145000076E1,-1.290105057E1,5.632215940E1
5.745492470E-1,1.978095055E1,-5.026200104E1,-9.681000710E0,5.487509934E1
5.765115290E-1,2.001105118E1,-4.807695389E1,-6.652950287E0,5.249854676E1
5.784737060E-1,1.863105011E1,-4.485795212E1,-4.429950237E0,4.877475121E1
5.804359140E-1,1.625505066E1,-4.198305130E1,-3.319050074E0,4.514221264E1
5.823982380E-1,1.330395031E1,-3.949200058E1,-3.088950157E0,4.178701732E1
5.843605280E-1,1.039095020E1,-3.707700348E1,-2.284050226E0,3.857321504E1
5.863228390E-1,8.014050484E0,-3.500805283E1,-1.363950014E0,3.593952041E1
5.882851430E-1,5.791050434E0,-3.366600037E1,-1.363950014E0,3.418766160E1
5.902475870E-1,4.182000160E0,-3.270795059E1,-9.040500522E-1,3.298661037E1
5.922099890E-1,3.607050180E0,-3.205605316E1,-2.140500098E-1,3.225906342E1
5.941719660E-1,2.380050182E0,-3.140505219E1,-1.134000063E0,3.151551836E1
5.961340680E-1,2.419050217E0,-3.102195168E1,-9.420000315E-1,3.113038152E1
5.980965450E-1,2.764050245E0,-3.060000229E1,-8.269500136E-1,3.073571148E1
6.000589120E-1,3.031950235E0,-3.010200119E1,-1.096050024E0,3.027415603E1
6.020212160E-1,3.337950230E0,-2.952705193E1,-1.441050053E0,2.975004760E1
6.039835350E-1,3.568050146E0,-2.910495186E1,-1.479000092E0,2.936011999E1
6.059458400E-1,3.645000219E0,-2.875995064E1,-1.210950017E0,2.901529230E1
6.079081500E-1,3.415050268E0,-2.837700081E1,-8.269500136E-1,2.859371591E1
6.098696010E-1,3.184950113E0,-2.787900162E1,-1.369500011E-1,2.806067344E1
6.118313040E-1,2.878050089E0,-2.734200096E1,5.509500504E-1,2.749857696E1
6.137936740E-1,2.764050245E0,-2.672895050E1,1.126049995E0,2.689506938E1
6.157558450E-1,2.457000017E0,-2.607705116E1,1.471050024E0,2.623382234E1
6.177183560E-1,2.074050188E0,-2.546400070E1,1.585950017E0,2.559750483E1
6.196807680E-1,1.614000082E0,-2.496600151E1,1.624950051E0,2.507083346E1
6.216434190E-1,1.306950092E0,-2.458200073E1,1.777950048E0,2.468084247E1
6.236059990E-1,1.077000022E0,-2.439105034E1,2.008050203E0,2.449725559E1
6.255673950E-1,8.470500112E-1,-2.423805046E1,2.391000032E0,2.437042193E1
6.275291450E-1,4.639500082E-1,-2.416095161E1,2.698050022E0,2.431555688E1
6.294915470E-1,2.340000123E-1,-2.427600098E1,2.965950251E0,2.445763358E1
6.314537580E-1,-3.299999982E-2,-2.431395149E1,3.081000090E0,2.450840443E1
6.334162180E-1,-2.629500031E-1,-2.431395149E1,3.157950163E0,2.451958460E1
6.353786050E-1,-4.170000255E-1,-2.431395149E1,3.157950163E0,2.452172048E1
6.373409310E-1,-6.079500318E-1,-2.404605103E1,3.157950163E0,2.426014885E1
6.393032850E-1,-9.150000215E-1,-2.373900032E1,3.234000206E0,2.397574021E1
6.412657640E-1,-1.068000078E0,-2.343300056E1,3.273000240E0,2.368456608E1
6.432282060E-1,-1.336950064E0,-2.312595177E1,3.234000206E0,2.338922483E1
6.451906270E-1,-1.605000019E0,-2.270400047E1,3.157950163E0,2.297869256E1
6.471530540E-1,-1.834950089E0,-2.224500084E1,3.043050051E0,2.252703393E1
6.491152060E-1,-2.026050091E0,-2.190000153E1,2.965950251E0,2.219260703E1
6.510774390E-1,-2.218050003E0,-2.147805023E1,3.043050051E0,2.180565388E1
6.530399390E-1,-2.256000042E0,-2.098005104E1,3.081000090E0,2.132474242E1
6.550023600E-1,-2.410050154E0,-2.048100090E1,2.928000212E0,2.082913644E1
6.569648290E-1,-2.410050154E0,-1.994505119E1,2.928000212E0,2.030237903E1
6.589272830E-1,-2.524950027E0,-1.940805054E1,2.928000212E0,1.978941595E1
6.608893820E-1,-2.371050119E0,-1.894799995E1,3.004050255E0,1.933062076E1
6.628515880E-1,-2.218050003E0,-1.845000076E1,3.081000090E0,1.883652929E1
6.648142280E-1,-2.103000164E0,-1.795200157E1,3.118950129E0,1.834188704E1
6.667767400E-1,-1.987950087E0,-1.749195099E1,3.118950129E0,1.787870646E1
6.687393730E-1,-1.834950089E0,-1.707000160E1,3.118950129E0,1.744935089E1
6.707019700E-1,-1.834950089E0,-1.664895058E1,3.157950163E0,1.704485982E1
6.726647500E-1,-1.375050068E0,-1.630395126E1,3.081000090E0,1.664938891E1
6.746274900E-1,-1.068000078E0,-1.591995049E1,3.157950163E0,1.626524199E1
6.765897690E-1,-7.230000496E-1,-1.553700066E1,3.273000240E0,1.589445340E1
6.785521840E-1,-4.549500346E-1,-1.523100090E1,3.157950163E0,1.556158787E1
6.805146070E-1,-1.480500102E-1,-1.488600063E1,3.157950163E0,1.521800193E1
6.824770280E-1,-3.299999982E-2,-1.454100037E1,3.118950129E0,1.487177295E1
6.844392790E-1,8.100000024E-2,-1.411905098E1,3.004050255E0,1.443532055E1
6.864016070E-1,2.340000123E-1,-1.362105083E1,2.965950251E0,1.394218931E1
6.883634150E-1,2.719500065E-1,-1.312305069E1,2.928000212E0,1.344847952E1
6.903253760E-1,4.639500082E-1,-1.266300106E1,2.889000177E0,1.299665986E1
6.922877420E-1,4.639500082E-1,-1.216395092E1,2.773950100E0,1.248486086E1
6.942499890E-1,4.260000288E-1,-1.166595078E1,2.620950222E0,1.196433298E1
6.962124280E-1,3.870000243E-1,-1.109100056E1,2.430000067E0,1.136067615E1
6.981748210E-1,3.490500152E-1,-1.055505085E1,2.161050081E0,1.077966010E1
7.001371160E-1,2.340000123E-1,-9.979950905E0,1.624950051E0,1.011408121E1
7.020994390E-1,1.570500135E-1,-9.366000175E0,1.395000100E0,9.470620321E0
7.040619680E-1,1.189500093E-1,-8.715000153E0,1.126049995E0,8.788251553E0
7.060244370E-1,8.100000024E-2,-8.062950134E0,7.050000429E-1,8.094118292E0
7.079874570E-1,-3.299999982E-2,-7.450050354E0,2.449500114E-1,7.454149166E0
7.099503020E-1,-3.299999982E-2,-6.798000336E0,-1.759500057E-1,6.800357047E0
7.119125180E-1,-1.480500102E-1,-6.109050274E0,-5.970000029E-1,6.139936731E0
7.138749190E-1,-1.099500060E-1,-5.419050217E0,-1.018950105E0,5.515111383E0
7.158370310E-1,-7.200000435E-2,-4.804950237E0,-1.363950014E0,4.995306840E0
7.177992270E-1,-3.299999982E-2,-4.231050014E0,-1.708950043E0,4.563264563E0
7.197615630E-1,1.570500135E-1,-3.579000235E0,-2.014950037E0,4.110222748E0
7.217238510E-1,4.639500082E-1,-3.081000090E0,-2.169000149E0,3.796363103E0
7.236868380E-1,7.699500322E-1,-2.659050226E0,-2.130000114E0,3.492888725E0
7.256496200E-1,1.114950061E0,-2.199000120E0,-2.169000149E0,3.283790007E0
7.276118470E-1,1.230000019E0,-1.663050056E0,-2.092050076E0,2.941990662E0
7.295742370E-1,1.384050012E0,-1.432950020E0,-2.014950037E0,2.833542632E0
7.315365940E-1,1.384050012E0,-1.087950110E0,-1.824000120E0,2.534996315E0
7.334989480E-1,1.384050012E0,-7.810500264E-1,-1.594050050E0,2.250917400E0
7.354616070E-1,1.422000051E0,-4.740000367E-1,-1.287000060E0,1.975633907E0
7.374241770E-1,1.384050012E0,-2.440500110E-1,-1.171950102E0,1.829924010E0
7.393856750E-1,1.459950089E0,-9.105000645E-2,-8.269500136E-1,1.680354335E0
7.413474870E-1,1.537050128E0,2.295000106E-2,-4.440000355E-1,1.600058071E0
7.433101580E-1,1.614000082E0,2.140500098E-1,-1.759500057E-1,1.637611699E0
7.452725390E-1,1.690050125E0,4.060500264E-1,9.195000678E-2,1.740574863E0
7.472340690E-1,1.767000079E0,5.209500194E-1,3.600000143E-1,1.877039747E0
7.491958490E-1,1.843950033E0,6.360000372E-1,6.280500293E-1,2.049169249E0
7.511584260E-1,1.767000079E0,7.510500550E-1,9.730500579E-1,2.152485048E0
7.531207700E-1,1.767000079E0,8.659500480E-1,1.240950108E0,2.326395481E0
7.550832370E-1,1.804950118E0,9.430500269E-1,1.240950108E0,2.384773669E0
7.570456780E-1,1.729050040E0,1.018950105E0,1.203000069E0,2.339889425E0
7.590079640E-1,1.729050040E0,1.057950020E0,1.318050027E0,2.417876788E0
7.609702950E-1,1.729050040E0,1.134000063E0,1.432950020E0,2.515733679E0
7.629324640E-1,1.767000079E0,1.134000063E0,1.356000066E0,2.499396247E0
7.648946800E-1,1.767000079E0,1.096050024E0,1.279950023E0,2.441697564E0
7.668573230E-1,1.804950118E0,1.134000063E0,1.050000072E0,2.376194694E0
7.688198370E-1,1.767000079E0,1.134000063E0,7.429500222E-1,2.227155172E0
7.707830550E-1,1.767000079E0,1.173000097E0,3.979500234E-1,2.157911659E0
7.727460670E-1,1.729050040E0,1.210950017E0,1.500000060E-2,2.110980574E0
7.747083910E-1,1.767000079E0,1.326000094E0,-4.060500264E-1,2.246206169E0
7.766709160E-1,1.651950121E0,1.326000094E0,-7.890000343E-1,2.260472629E0
7.786333380E-1,1.614000082E0,1.479000092E0,-1.287000060E0,2.539450076E0
7.805958100E-1,1.459950089E0,1.555950046E0,-1.671000123E0,2.710106311E0
7.825584490E-1,1.537050128E0,1.594050050E0,-2.206950188E0,3.126363349E0
7.845210390E-1,1.459950089E0,1.671000123E0,-2.820000172E0,3.588327834E0
7.864835250E-1,1.575000048E0,1.786050081E0,-3.357000113E0,4.115829175E0
7.884460410E-1,1.614000082E0,1.900950074E0,-3.931950092E0,4.656054014E0
7.904088070E-1,1.690050125E0,1.978050113E0,-4.621950150E0,5.303901852E0
7.923715000E-1,1.882050037E0,2.092950106E0,-5.235000134E0,5.943717598E0
7.943341480E-1,2.035050154E0,2.131050110E0,-5.848050117E0,6.548472637E0
7.962968100E-1,2.265000105E0,2.208000183E0,-6.232050419E0,6.988844161E0
7.982595510E-1,2.457000017E0,2.245950222E0,-6.499950409E0,7.302773227E0
8.002222690E-1,2.764050245E0,2.284050226E0,-6.691050529E0,7.591246036E0
8.021846690E-1,3.031950235E0,2.245950222E0,-6.768000126E0,7.748731531E0
8.041471750E-1,3.300000191E0,2.245950222E0,-6.768000126E0,7.857488108E0
8.061096740E-1,3.492000103E0,2.245950222E0,-6.576000214E0,7.777026162E0
8.080721750E-1,3.721950293E0,2.245950222E0,-6.193050385E0,7.566444307E0
8.100347640E-1,3.952050209E0,2.208000183E0,-5.848050117E0,7.395515928E0
8.119973270E-1,4.066950321E0,2.208000183E0,-5.427000046E0,7.132158104E0
8.139596060E-1,4.143000126E0,2.169000149E0,-4.813050270E0,6.710772280E0
8.159219590E-1,4.219950199E0,2.092950106E0,-4.200000286E0,6.310976329E0
8.178841230E-1,4.219950199E0,2.053950071E0,-3.510000229E0,5.860613636E0
8.198463430E-1,4.219950199E0,1.978050113E0,-2.743950129E0,5.408319909E0
8.218088450E-1,4.182000160E0,1.824000120E0,-2.053950071E0,5.003480056E0
8.237712640E-1,4.143000126E0,1.708950043E0,-1.210950017E0,4.642344261E0
8.257331620E-1,4.105050087E0,1.633050084E0,-3.670500219E-1,4.433172060E0
8.276952030E-1,4.143000126E0,1.441050053E0,3.979500234E-1,4.404479483E0
8.296576010E-1,3.990000248E0,1.363950014E0,1.203000069E0,4.384936805E0
8.316198940E-1,3.913050175E0,1.249050021E0,1.663050056E0,4.431458351E0
8.335825650E-1,3.837000132E0,1.057950020E0,2.314950228E0,4.604435124E0
8.355451250E-1,3.798000097E0,8.659500480E-1,2.889000177E0,4.849844972E0
8.375078850E-1,3.645000219E0,6.360000372E-1,3.273000240E0,4.939944658E0
8.394705860E-1,3.415050268E0,3.679500222E-1,3.579000235E0,4.960564306E0
8.414330070E-1,3.031950235E0,2.140500098E-1,3.771000147E0,4.843447300E0
8.433955110E-1,2.764050245E0,2.295000106E-2,3.886050224E0,4.768845438E0
8.453588660E-1,2.572050095E0,-1.290000081E-1,4.116000175E0,4.855259018E0
8.473219710E-1,2.457000017E0,-1.680000126E-1,4.345950127E0,4.995233287E0
8.492845340E-1,2.457000017E0,-3.210000098E-1,4.614000320E0,5.237259689E0
8.512472660E-1,2.457000017E0,-4.360500276E-1,4.690950394E0,5.313379744E0
8.532098610E-1,2.341950178E0,-5.890500546E-1,4.690950394E0,5.276052141E0
8.551724970E-1,2.265000105E0,-6.660000086E-1,4.576050282E0,5.149176407E0
8.571352430E-1,2.074050188E0,-7.039500475E-1,4.384050369E0,4.900727241E0
8.590979570E-1,1.959000111E0,-7.810500264E-1,4.078050137E0,4.591101556E0
8.610604310E-1,1.804950118E0,-8.959500194E-1,3.808950186E0,4.309138299E0
8.630229690E-1,1.690050125E0,-1.048950076E0,3.541050196E0,4.061477832E0
8.649854170E-1,1.651950121E0,-1.087950110E0,3.310950041E0,3.856807594E0
8.669478920E-1,1.498950124E0,-1.126049995E0,3.118950129E0,3.639050696E0
8.689103060E-1,1.384050012E0,-1.126049995E0,2.851050138E0,3.363342076E0
8.708727380E-1,1.345050097E0,-1.164000034E0,2.620950222E0,3.167559930E0
8.728350980E-1,1.269000053E0,-1.087950110E0,2.467950106E0,2.980733853E0
8.747974590E-1,1.192050099E0,-1.087950110E0,2.122950077E0,2.666746316E0
8.767598920E-1,1.114950061E0,-1.011000037E0,1.930950046E0,2.448224416E0
8.787223040E-1,1.039050102E0,-9.730500579E-1,1.701000094E0,2.218074131E0
8.806849990E-1,9.240000248E-1,-9.340500236E-1,1.585950017E0,2.059481233E0
8.826476110E-1,8.089500666E-1,-8.959500194E-1,1.471050024E0,1.902922705E0
8.846090920E-1,6.550500393E-1,-8.190000653E-1,1.395000100E0,1.745244092E0
8.865709110E-1,5.410500169E-1,-7.429500222E-1,1.165050030E0,1.483931073E0
8.885334820E-1,4.639500082E-1,-6.660000086E-1,1.050000072E0,1.327141956E0
8.904958320E-1,3.870000243E-1,-6.280500293E-1,9.730500579E-1,1.221082419E0
8.924579530E-1,2.719500065E-1,-5.130000114E-1,8.200500607E-1,1.004792476E0
8.944201420E-1,3.490500152E-1,-5.509500504E-1,6.660000086E-1,9.321683767E-1
8.963824780E-1,3.109500110E-1,-5.509500504E-1,5.899500251E-1,8.650299991E-1
8.983447640E-1,2.719500065E-1,-4.740000367E-1,4.750500321E-1,7.240893411E-1
9.003069420E-1,2.719500065E-1,-4.740000367E-1,4.750500321E-1,7.240893411E-1
9.022691510E-1,1.570500135E-1,-4.360500276E-1,4.360500276E-1,6.363520723E-1
9.042316100E-1,1.570500135E-1,-4.360500276E-1,5.130000114E-1,6.913561637E-1
9.061939950E-1,1.570500135E-1,-3.979500234E-1,5.130000114E-1,6.679804934E-1
9.081564750E-1,1.570500135E-1,-4.360500276E-1,5.509500504E-1,7.199654793E-1
9.101189230E-1,1.189500093E-1,-3.589500189E-1,6.280500293E-1,7.331037171E-1
9.120815670E-1,4.200000316E-2,-3.589500189E-1,7.429500222E-1,8.261863300E-1
9.140441540E-1,4.050000105E-3,-3.210000098E-1,8.580000401E-1,9.160903217E-1
9.160066400E-1,-3.299999982E-2,-2.830500007E-1,8.959500194E-1,9.401769727E-1
9.179691560E-1,-7.200000435E-2,-2.830500007E-1,1.011000037E0,1.052341379E0
9.199315630E-1,-1.099500060E-1,-2.440500110E-1,1.126049995E0,1.157427321E0
9.218940020E-1,-1.480500102E-1,-2.440500110E-1,1.279950023E0,1.311392876E0
9.238566470E-1,-1.870500147E-1,-2.440500110E-1,1.395000100E0,1.428486400E0
9.258192310E-1,-2.250000089E-1,-2.440500110E-1,1.471050024E0,1.508036334E0
9.277813570E-1,-2.250000089E-1,-2.440500110E-1,1.471050024E0,1.508036334E0
9.297436170E-1,-2.250000089E-1,-3.210000098E-1,1.471050024E0,1.522384374E0
9.317062180E-1,-1.870500147E-1,-3.210000098E-1,1.510050058E0,1.555081957E0
9.336687400E-1,-1.480500102E-1,-3.589500189E-1,1.548000097E0,1.595953703E0
9.356311920E-1,-1.099500060E-1,-3.979500234E-1,1.510050058E0,1.565472582E0
9.375936650E-1,-1.099500060E-1,-4.360500276E-1,1.510050058E0,1.575588718E0
9.395557640E-1,-3.299999982E-2,-4.740000367E-1,1.510050058E0,1.583040181E0
9.415179730E-1,8.100000024E-2,-5.130000114E-1,1.510050058E0,1.596866053E0
9.434803110E-1,1.570500135E-1,-6.280500293E-1,1.510050058E0,1.642973744E0
9.454426010E-1,3.109500110E-1,-7.039500475E-1,1.471050024E0,1.660187866E0
9.474056780E-1,4.639500082E-1,-7.429500222E-1,1.432950020E0,1.679455300E0
9.493685240E-1,6.550500393E-1,-7.810500264E-1,1.203000069E0,1.576812881E0
9.513308760E-1,8.850000501E-1,-8.959500194E-1,1.126049995E0,1.689360861E0
9.532933730E-1,1.039050102E0,-8.959500194E-1,9.349500537E-1,1.660265989E0
9.552560260E-1,1.230000019E0,-8.959500194E-1,7.050000429E-1,1.677096164E0
9.572186200E-1,1.306950092E0,-9.730500579E-1,3.600000143E-1,1.668695589E0
9.591817800E-1,1.384050012E0,-1.011000037E0,2.449500114E-1,1.731391353E0
9.611447740E-1,1.537050128E0,-1.011000037E0,1.500000060E-2,1.839801394E0
9.631068300E-1,1.804950118E0,-1.048950076E0,-3.670500219E-1,2.119638391E0
9.650691610E-1,2.035050154E0,-1.087950110E0,-1.018950105E0,2.522562960E0
9.670316280E-1,2.304000139E0,-1.126049995E0,-1.516950130E0,2.979520588E0
9.689940340E-1,2.533950090E0,-1.279050112E0,-2.130000114E0,3.548770595E0
9.709565500E-1,2.725050211E0,-1.318050027E0,-2.514000177E0,3.934888997E0
9.729190340E-1,2.955000162E0,-1.318050027E0,-2.704950094E0,4.217349505E0
9.748813120E-1,3.108000040E0,-1.356000066E0,-2.743950129E0,4.362070923E0
9.768436510E-1,3.300000191E0,-1.356000066E0,-2.667000055E0,4.454394093E0
9.788057080E-1,3.376950264E0,-1.356000066E0,-2.437050104E0,4.379696619E0
9.807678620E-1,3.300000191E0,-1.203000069E0,-2.053950071E0,4.068896818E0
9.827300160E-1,3.184950113E0,-1.087950110E0,-1.594050050E0,3.724048634E0
9.846921700E-1,2.917050123E0,-9.340500236E-1,-1.134000063E0,3.266127219E0
9.866550430E-1,2.649000168E0,-7.039500475E-1,-7.510500550E-1,2.841975324E0
9.886177060E-1,2.419050217E0,-5.509500504E-1,-2.910000086E-1,2.498005387E0
9.905800140E-1,2.111999989E0,-3.210000098E-1,1.500000060E-2,2.136307552E0
9.925424160E-1,1.537050128E0,-1.680000126E-1,1.680000126E-1,1.555304184E0
9.945035810E-1,1.192050099E0,-1.500000060E-2,2.449500114E-1,1.217049279E0
9.964651080E-1,7.699500322E-1,1.759500057E-1,3.220500052E-1,8.529347352E-1
9.984275480E-1,4.639500082E-1,3.679500222E-1,3.220500052E-1,6.740571450E-1
1.000389721E0,1.570500135E-1,4.830000103E-1,1.680000126E-1,5.349558121E-1
1.002352047E0,-1.870500147E-1,7.129500508E-1,-6.105000153E-2,7.396029919E-1
1.004314332E0,-5.320500135E-1,8.280000687E-1,-4.819500148E-1,1.095872779E0
1.006276689E0,-7.999500632E-1,9.810000658E-1,-1.018950105E0,1.624974015E0
1.008239024E0,-7.620000243E-1,9.810000658E-1,-1.594050050E0,2.020891073E0
1.010201462E0,-7.620000243E-1,9.430500269E-1,-2.206950188E0,2.518058085E0
1.012163870E0,-8.380500674E-1,9.040500522E-1,-2.820000172E0,3.077667198E0
1.014126143E0,-7.230000496E-1,7.510500550E-1,-3.241950035E0,3.405443479E0
1.016088469E0,-3.019500077E-1,4.440000355E-1,-3.204000235E0,3.248680862E0
1.018052394E0,2.719500065E-1,2.140500098E-1,-2.859000206E0,2.879870898E0
1.020015851E0,8.089500666E-1,-9.105000645E-2,-2.284050226E0,2.424783650E0
1.021978188E0,1.230000019E0,-2.440500110E-1,-1.632000089E0,2.058126513E0
1.023940853E0,1.498950124E0,-5.130000114E-1,-1.171950102E0,1.970656623E0
1.025902874E0,1.804950118E0,-8.959500194E-1,-5.590500236E-1,2.091197813E0
1.027865084E0,2.149950027E0,-1.240950108E0,-2.140500098E-1,2.491597820E0
1.029826507E0,2.304000139E0,-1.471050024E0,1.300500035E-1,2.736661802E0
1.031788161E0,2.341950178E0,-1.624050021E0,4.750500321E-1,2.889280471E0
1.033750805E0,2.227050066E0,-1.738950133E0,7.429500222E-1,2.921587633E0
1.035713159E0,2.227050066E0,-1.893000126E0,9.730500579E-1,3.080588887E0
1.037675783E0,2.188950062E0,-2.008050203E0,1.087950110E0,3.163448029E0
1.039638322E0,2.035050154E0,-2.083950043E0,1.318050027E0,3.197113195E0
1.041600816E0,1.959000111E0,-2.161050081E0,1.318050027E0,3.200792833E0
1.043563324E0,1.959000111E0,-2.238000154E0,1.318050027E0,3.253241768E0
1.045525552E0,1.920000076E0,-2.351999998E0,1.165050030E0,3.252021810E0
1.047487862E0,1.882050037E0,-2.506050110E0,8.580000401E-1,3.249394338E0
1.049450404E0,1.804950118E0,-2.659050226E0,6.280500293E-1,3.274574762E0
1.051412870E0,1.690050125E0,-2.736000061E0,9.730500579E-1,3.359879786E0
1.053375152E0,1.575000048E0,-2.812050104E0,1.395000100E0,3.512018824E0
1.055337488E0,1.498950124E0,-2.773950100E0,1.740000129E0,3.601284643E0
1.057300105E0,1.422000051E0,-2.773950100E0,2.122950077E0,3.771445390E0
1.059262640E0,1.345050097E0,-2.773950100E0,2.467950106E0,3.949017174E0
1.061225254E0,1.345050097E0,-2.889000177E0,2.583000183E0,4.102117957E0
1.063187855E0,1.269000053E0,-3.271950245E0,2.620950222E0,4.380114109E0
1.065149438E0,1.192050099E0,-4.843950272E0,2.698050022E0,5.671358884E0
1.067111319E0,1.960500032E-1,-8.293050766E0,3.118950129E0,8.862334710E0
1.069073474E0,-1.834950089E0,-1.247100067E1,3.196050167E0,1.300413920E1
1.071035548E0,-5.169000149E0,-1.722405052E1,3.234000206E0,1.827143224E1
1.072997775E0,-8.809950829E0,-2.297295189E1,3.004050255E0,2.478701414E1
1.074959947E0,-1.199205017E1,-2.875995064E1,2.659050226E0,3.127322459E1
1.076922639E0,-1.456005096E1,-3.416400146E1,3.081000090E0,3.726481775E1
1.078885178E0,-1.597800064E1,-3.926205063E1,3.694050074E0,4.254939635E1
1.080847447E0,-1.655294991E1,-4.344000244E1,4.690950394E0,4.672300267E1
1.082809796E0,-1.628400040E1,-4.731105042E1,5.112000465E0,5.029549392E1
1.084772202E0,-1.563300037E1,-5.102895355E1,4.921050072E0,5.359628285E1
1.086734611E0,-1.394595051E1,-5.432505417E1,4.690950394E0,5.628237790E1
1.088696947E0,-1.134000015E1,-5.712300110E1,4.345950127E0,5.839965874E1
1.090659305E0,-7.852050304E0,-5.946105194E1,2.773950100E0,6.004137066E1
1.092623045E0,-3.559950113E0,-6.164505386E1,-9.900000691E-2,6.174783973E1
1.094586380E0,1.269000053E0,-6.409799957E1,-3.549000263E0,6.420871680E1
1.096548448E0,5.676000118E0,-6.616800690E1,-7.611000538E0,6.684571372E1
1.098510901E0,9.892050743E0,-6.777795410E1,-1.132905006E1,6.942658789E1
1.100473229E0,1.387905025E1,-6.892800140E1,-1.332195091E1,7.156236294E1
1.102435594E0,1.744305038E1,-6.965595245E1,-1.401195049E1,7.316109947E1
1.104398026E0,2.031795120E1,-6.938700104E1,-1.301595020E1,7.346284785E1
1.106360438E0,2.257905197E1,-6.785400391E1,-1.048605061E1,7.227680604E1
1.108322893E0,2.449500084E1,-6.505605316E1,-7.075050354E0,6.987382526E1
1.110285346E0,2.503200150E1,-6.034200287E1,-3.702000141E0,6.543289092E1
1.112247495E0,2.376705170E1,-5.409495163E1,-1.287000060E0,5.909985539E1
1.114209733E0,2.081595039E1,-4.823100281E1,2.449500114E-1,5.253183247E1
1.116171151E0,1.633095169E1,-4.324800110E1,6.280500293E-1,4.623293230E1
1.118132810E0,1.203900051E1,-3.918495178E1,1.240950108E0,4.101143666E1
1.120094822E0,8.473950386E0,-3.573600006E1,1.432950020E0,3.675490282E1
1.122056731E0,5.523000240E0,-3.297600174E1,1.471050024E0,3.346765917E1
1.124019152E0,3.337950230E0,-3.098295212E1,1.011000037E0,3.117863619E1
1.125981423E0,1.498950124E0,-2.895195198E1,1.087950110E0,2.901113597E1
1.127943017E0,6.169500351E-1,-2.737995148E1,1.011000037E0,2.740555585E1
1.129904810E0,2.340000123E-1,-2.649900055E1,6.280500293E-1,2.650747504E1
1.131868222E0,7.699500322E-1,-2.596200180E1,6.660000086E-1,2.598195367E1
1.133831173E0,1.498950124E0,-2.569395065E1,8.580000401E-1,2.575193421E1
1.135793417E0,2.188950062E0,-2.538705063E1,1.011000037E0,2.550129336E1
1.137755868E0,2.955000162E0,-2.515695190E1,1.165050030E0,2.535668741E1
1.139718106E0,3.415050268E0,-2.485095024E1,1.279950023E0,2.511713694E1
1.141680406E0,3.682950258E0,-2.465895081E1,1.240950108E0,2.496333180E1
1.143642709E0,3.645000219E0,-2.435295105E1,1.356000066E0,2.466152849E1
1.145605014E0,3.682950258E0,-2.400795174E1,1.318050027E0,2.432453751E1
1.147567323E0,3.453000069E0,-2.362395096E1,1.318050027E0,2.391132627E1
1.149529630E0,3.223050117E0,-2.320305061E1,1.279950023E0,2.346077326E1
1.151491758E0,2.992950201E0,-2.278095055E1,1.126049995E0,2.300429193E1
1.153453939E0,2.878050089E0,-2.239800072E1,8.959500194E-1,2.259991891E1
1.155416282E0,2.878050089E0,-2.197605133E1,7.050000429E-1,2.217491893E1
1.157378567E0,2.764050245E0,-2.163105011E1,4.750500321E-1,2.181210616E1
1.159341780E0,2.572050095E0,-2.140095139E1,3.220500052E-1,2.155736250E1
1.161304721E0,2.380050182E0,-2.117100143E1,2.449500114E-1,2.130577248E1
1.163266966E0,2.149950027E0,-2.117100143E1,2.070000172E-1,2.128089368E1
1.165229415E0,1.920000076E0,-2.132505035E1,2.449500114E-1,2.141271056E1
1.167190632E0,1.651950121E0,-2.159295082E1,3.979500234E-1,2.165970518E1
1.169152199E0,1.459950089E0,-2.193795013E1,5.509500504E-1,2.199337756E1
1.171114633E0,1.306950092E0,-2.224500084E1,7.050000429E-1,2.229451067E1
1.173076813E0,1.153950095E0,-2.243595123E1,8.580000401E-1,2.248198551E1
1.175039458E0,8.850000501E-1,-2.251305199E1,8.959500194E-1,2.254824741E1
1.177001967E0,6.940500140E-1,-2.255100060E1,8.200500607E-1,2.257657670E1
1.178963324E0,3.870000243E-1,-2.255100060E1,9.730500579E-1,2.257530118E1
1.180925030E0,8.100000024E-2,-2.239800072E1,1.050000072E0,2.242274509E1
1.182887621E0,-1.870500147E-1,-2.228295135E1,1.087950110E0,2.231027889E1
1.184849952E0,-3.400500119E-1,-2.212995148E1,1.240950108E0,2.216732604E1
1.186812121E0,-4.549500346E-1,-2.193795013E1,1.356000066E0,2.198452574E1
1.188774338E0,-6.469500065E-1,-2.170800018E1,1.432950020E0,2.176486072E1
1.190736661E0,-9.150000215E-1,-2.143995094E1,1.471050024E0,2.150982821E1
1.192698952E0,-9.919500351E-1,-2.109495163E1,1.510050058E0,2.117217987E1
1.194661038E0,-1.030050039E0,-2.082600021E1,1.585950017E0,2.091168395E1
1.196623184E0,-1.183050036E0,-2.048100090E1,1.624950051E0,2.057939426E1
1.198585383E0,-1.030050039E0,-2.021295166E1,1.663050056E0,2.030739159E1
1.200547567E0,-1.144950032E0,-1.983000183E1,1.777950048E0,1.994244192E1
1.202510041E0,-1.183050036E0,-1.944705009E1,1.816050053E0,1.956745774E1
1.204472423E0,-1.222050071E0,-1.910205078E1,1.816050053E0,1.922705875E1
1.206434539E0,-1.068000078E0,-1.871805000E1,1.740000129E0,1.882906319E1
1.208396733E0,-1.183050036E0,-1.829700089E1,1.663050056E0,1.841047485E1
1.210359059E0,-1.144950032E0,-1.783695030E1,1.585950017E0,1.794388319E1
1.212321346E0,-1.030050039E0,-1.749195099E1,1.510050058E0,1.758719999E1
1.214283357E0,-1.106999993E0,-1.707000160E1,1.471050024E0,1.716899507E1
1.216245439E0,-8.380500674E-1,-1.668704987E1,1.471050024E0,1.677271443E1
1.218207740E0,-7.999500632E-1,-1.611194992E1,1.432950020E0,1.619531402E1
1.220169976E0,-5.320500135E-1,-1.576695061E1,1.432950020E0,1.584086975E1
1.222131982E0,-4.549500346E-1,-1.526895046E1,1.395000100E0,1.533929115E1
1.224094055E0,-2.250000089E-1,-1.469400024E1,1.279950023E0,1.475135723E1
1.226056362E0,-1.099500060E-1,-1.423395061E1,1.203000069E0,1.428511982E1
1.228018596E0,-7.200000435E-2,-1.365900040E1,1.203000069E0,1.371206348E1
1.229980557E0,-3.299999982E-2,-1.308405018E1,1.011000037E0,1.312309335E1
1.231942598E0,-3.299999982E-2,-1.254795074E1,9.730500579E-1,1.258566579E1
1.233904815E0,4.200000316E-2,-1.193400097E1,8.200500607E-1,1.196221657E1
1.235866981E0,4.200000316E-2,-1.139805031E1,6.660000086E-1,1.141756852E1
1.237829453E0,4.200000316E-2,-1.074600029E1,4.360500276E-1,1.075492566E1
1.239791832E0,1.189500093E-1,-1.017105007E1,3.220500052E-1,1.017684258E1
1.241754668E0,1.570500135E-1,-9.520050049E0,9.195000678E-2,9.521789351E0
1.243717370E0,2.719500065E-1,-8.907000542E0,-6.105000153E-2,8.911360309E0
1.245680151E0,3.490500152E-1,-8.332050323E0,-3.670500219E-1,8.347432193E0
1.247642909E0,3.490500152E-1,-7.680000305E0,-5.209500194E-1,7.705558352E0
1.249605555E0,3.490500152E-1,-7.066950321E0,-6.360000372E-1,7.104091694E0
1.251568227E0,4.260000288E-1,-6.415050507E0,-7.120500207E-1,6.468490107E0
1.253531688E0,6.550500393E-1,-5.839950085E0,-7.890000343E-1,5.929302539E0
1.255494918E0,8.089500666E-1,-5.341950417E0,-7.890000343E-1,5.460160759E0
1.257456933E0,9.240000248E-1,-4.882050037E0,-9.420000315E-1,5.057227766E0
1.259419304E0,9.619500637E-1,-4.306950092E0,-9.810000658E-1,4.520788444E0
1.261381750E0,1.153950095E0,-3.847050190E0,-9.810000658E-1,4.134459713E0
1.263344164E0,1.192050099E0,-3.426000118E0,-9.810000658E-1,3.757768138E0
1.265306499E0,1.306950092E0,-3.081000090E0,-9.040500522E-1,3.466696784E0
1.267268858E0,1.384050012E0,-2.736000061E0,-7.510500550E-1,3.156796945E0
1.269231336E0,1.422000051E0,-2.391000032E0,-6.360000372E-1,2.853675060E0
1.271193779E0,1.614000082E0,-2.122950077E0,-5.590500236E-1,2.724784436E0
1.273156083E0,1.804950118E0,-1.816050053E0,-4.060500264E-1,2.592442737E0
1.275118415E0,1.920000076E0,-1.509000063E0,-2.910000086E-1,2.459301219E0
1.277081078E0,2.074050188E0,-1.164000034E0,-1.759500057E-1,2.384856110E0
1.279043644E0,2.149950027E0,-7.810500264E-1,-6.105000153E-2,2.288241982E0
1.281005864E0,2.227050066E0,-4.740000367E-1,5.295000225E-2,2.277549502E0
1.282968185E0,2.188950062E0,-2.059500068E-1,9.195000678E-2,2.200539157E0
1.284929629E0,2.111999989E0,-1.500000060E-2,-6.105000153E-2,2.112935412E0
1.286891333E0,1.920000076E0,2.140500098E-1,-9.900000691E-2,1.934429813E0
1.288854104E0,1.920000076E0,4.440000355E-1,-1.759500057E-1,1.978508208E0
1.290816562E0,1.767000079E0,7.129500508E-1,-2.140500098E-1,1.917395228E0
1.292779160E0,1.767000079E0,8.659500480E-1,-2.140500098E-1,1.979387828E0
1.294741716E0,1.690050125E0,1.096050024E0,-2.140500098E-1,2.025688152E0
1.296704392E0,1.690050125E0,1.210950017E0,-2.520000041E-1,2.094319310E0
1.298667029E0,1.651950121E0,1.326000094E0,-4.060500264E-1,2.156870899E0
1.300629416E0,1.729050040E0,1.441050053E0,-3.670500219E-1,2.280562434E0
1.302591877E0,1.767000079E0,1.633050084E0,-4.060500264E-1,2.440085753E0
1.304554023E0,1.843950033E0,1.708950043E0,-2.520000041E-1,2.526690716E0
1.306516262E0,1.996950150E0,1.824000120E0,-2.520000041E-1,2.716300856E0
1.308478529E0,2.111999989E0,1.900950074E0,-4.819500148E-1,2.882087950E0
1.310440792E0,2.265000105E0,1.939050078E0,-6.360000372E-1,3.048710667E0
1.312403288E0,2.341950178E0,2.092950106E0,-9.810000658E-1,3.290521526E0
1.314365715E0,2.304000139E0,2.245950222E0,-1.210950017E0,3.437893103E0
1.316328183E0,2.380050182E0,2.361000061E0,-1.402050018E0,3.633827791E0
1.318290638E0,2.341950178E0,2.437050104E0,-1.594050050E0,3.736969281E0
1.320252941E0,2.341950178E0,2.590950012E0,-1.861950040E0,3.957854287E0
1.322215275E0,2.341950178E0,2.743950129E0,-2.014950037E0,4.132071708E0
1.324177443E0,2.265000105E0,2.859000206E0,-2.130000114E0,4.223861757E0
1.326139659E0,2.265000105E0,3.012000084E0,-2.169000149E0,4.348210164E0
1.328101937E0,2.304000139E0,3.088950157E0,-2.053950071E0,4.366776913E0
1.330064196E0,2.341950178E0,3.204000235E0,-2.014950037E0,4.450884383E0
1.332026144E0,2.419050217E0,3.241950035E0,-1.786050081E0,4.421766488E0
1.333988189E0,2.419050217E0,3.319050074E0,-1.479000092E0,4.365242102E0
1.335950540E0,2.533950090E0,3.357000113E0,-1.171950102E0,4.366213446E0
1.337912802E0,2.649000168E0,3.396000147E0,-7.890000343E-1,4.378645903E0
1.339875162E0,2.839950085E0,3.357000113E0,-4.819500148E-1,4.423464938E0
1.341837494E0,3.031950235E0,3.319050074E0,-9.900000691E-2,4.496511606E0
1.343799078E0,3.300000191E0,3.241950035E0,3.220500052E-1,4.637235976E0
1.345760881E0,3.492000103E0,3.204000235E0,8.200500607E-1,4.809590869E0
1.347723229E0,3.760050297E0,3.051000118E0,1.240950108E0,4.998653531E0
1.349685418E0,4.027950287E0,2.935950041E0,1.548000097E0,5.219242326E0
1.351647611E0,4.372950077E0,2.743950129E0,1.777950048E0,5.460133795E0
1.353609802E0,4.603050232E0,2.629050016E0,2.085000038E0,5.696244428E0
1.355572445E0,4.872000217E0,2.437050104E0,2.430000067E0,5.964939199E0
1.357534956E0,5.025000095E0,2.245950222E0,2.583000183E0,6.080033578E0
1.359497050E0,5.215950012E0,1.978050113E0,2.773950100E0,6.230057458E0
1.361459266E0,5.331000328E0,1.708950043E0,2.889000177E0,6.299714023E0
1.363421409E0,5.407950401E0,1.518000126E0,2.928000212E0,6.334306368E0
1.365383573E0,5.446050167E0,1.210950017E0,2.889000177E0,6.282689264E0
1.367345788E0,5.407950401E0,1.018950105E0,2.889000177E0,6.215344631E0
1.369307975E0,5.293050289E0,8.280000687E-1,2.698050022E0,5.998453084E0
1.371270619E0,4.987050056E0,5.209500194E-1,2.430000067E0,5.571979676E0
1.373233129E0,4.564949989E0,1.380000114E-1,1.855050087E0,4.929403943E0
1.375196123E0,4.258049965E0,-1.290000081E-1,1.510050058E0,4.519721417E0
1.377158975E0,3.913050175E0,-2.440500110E-1,1.432950020E0,4.174310462E0
1.379121426E0,3.645000219E0,-4.360500276E-1,1.279950023E0,3.887729194E0
1.381083987E0,3.337950230E0,-6.660000086E-1,1.011000037E0,3.550716663E0
1.383046746E0,3.108000040E0,-7.429500222E-1,7.810500264E-1,3.289631914E0
1.385009447E0,2.917050123E0,-8.959500194E-1,7.050000429E-1,3.131921602E0
1.386971868E0,2.917050123E0,-1.087950110E0,7.429500222E-1,3.200748600E0
1.388934372E0,2.725050211E0,-1.087950110E0,6.660000086E-1,3.008835341E0
1.390896700E0,2.494950056E0,-1.087950110E0,7.810500264E-1,2.831686842E0
1.392859073E0,2.304000139E0,-1.087950110E0,6.660000086E-1,2.633554271E0
1.394821864E0,2.035050154E0,-1.011000037E0,5.899500251E-1,2.347677839E0
1.396784533E0,1.804950118E0,-8.580000401E-1,4.750500321E-1,2.054186343E0
1.398747905E0,1.575000048E0,-7.810500264E-1,2.830500007E-1,1.780668862E0
1.400711071E0,1.345050097E0,-7.039500475E-1,9.195000678E-2,1.520907701E0
1.402673709E0,1.269000053E0,-6.280500293E-1,5.295000225E-2,1.416902141E0
1.404636516E0,1.192050099E0,-6.660000086E-1,-6.105000153E-2,1.366845475E0
1.406599323E0,1.114950061E0,-6.280500293E-1,-1.759500057E-1,1.291711609E0
1.408562130E0,1.039050102E0,-7.039500475E-1,-3.289500177E-1,1.297450923E0
1.410524668E0,9.240000248E-1,-6.660000086E-1,-4.060500264E-1,1.209218211E0
1.412487285E0,8.850000501E-1,-6.660000086E-1,-4.440000355E-1,1.193279989E0
1.414449770E0,8.089500666E-1,-7.039500475E-1,-4.819500148E-1,1.175679249E0
1.416412290E0,6.940500140E-1,-7.039500475E-1,-4.819500148E-1,1.099784937E0
1.418375056E0,6.940500140E-1,-6.660000086E-1,-5.209500194E-1,1.093915150E0
1.420337749E0,6.550500393E-1,-7.039500475E-1,-5.590500236E-1,1.112282856E0
1.422299496E0,5.790000558E-1,-7.039500475E-1,-5.970000029E-1,1.089585122E0
1.424261521E0,5.410500169E-1,-7.429500222E-1,-5.970000029E-1,1.095955683E0
1.426224376E0,5.020500422E-1,-7.429500222E-1,-5.590500236E-1,1.056676823E0
1.428186985E0,4.260000288E-1,-7.039500475E-1,-5.590500236E-1,9.947656120E-1
1.430149602E0,3.109500110E-1,-7.039500475E-1,-5.209500194E-1,9.293139950E-1
1.432112216E0,3.490500152E-1,-7.810500264E-1,-4.819500148E-1,9.819118462E-1
1.434075237E0,2.719500065E-1,-7.810500264E-1,-4.440000355E-1,9.386863061E-1
1.436038139E0,1.960500032E-1,-8.190000653E-1,-4.819500148E-1,9.702950724E-1
1.438000720E0,1.960500032E-1,-7.810500264E-1,-3.670500219E-1,8.849861389E-1
1.439963386E0,1.189500093E-1,-8.580000401E-1,-3.670500219E-1,9.407650568E-1
1.441926307E0,4.200000316E-2,-9.340500236E-1,-3.289500177E-1,9.911718120E-1
1.443889153E0,4.200000316E-2,-1.011000037E0,-3.289500177E-1,1.063998679E0
1.445851730E0,-3.299999982E-2,-9.730500579E-1,-1.759500057E-1,9.893805232E-1
1.447814386E0,-7.200000435E-2,-1.048950076E0,-1.369500011E-1,1.060299753E0
1.449776830E0,-1.480500102E-1,-1.048950076E0,-6.105000153E-2,1.061104222E0
1.451739357E0,-1.480500102E-1,-1.164000034E0,1.500000060E-2,1.173473428E0
1.453701941E0,-2.250000089E-1,-1.164000034E0,1.300500035E-1,1.192658412E0
1.455664509E0,-3.019500077E-1,-1.240950108E0,2.070000172E-1,1.293823784E0
1.457626458E0,-2.629500031E-1,-1.279050112E0,2.449500114E-1,1.328575327E0
1.459588588E0,-2.250000089E-1,-1.356000066E0,2.830500007E-1,1.403381091E0
1.461551826E0,-3.019500077E-1,-1.356000066E0,2.449500114E-1,1.410641873E0
1.463514740E0,-3.400500119E-1,-1.393950105E0,2.070000172E-1,1.449682694E0
1.465477125E0,-1.870500147E-1,-1.471050024E0,9.195000678E-2,1.485742469E0
1.467439665E0,-7.200000435E-2,-1.471050024E0,1.300500035E-1,1.478541571E0
1.469401933E0,4.050000105E-3,-1.509000063E0,9.195000678E-2,1.511804351E0
1.471364280E0,8.100000024E-2,-1.471050024E0,9.195000678E-2,1.476144972E0
1.473326605E0,1.570500135E-1,-1.393950105E0,1.300500035E-1,1.408784797E0
1.475288919E0,2.340000123E-1,-1.318050027E0,1.680000126E-1,1.349161178E0
1.477251540E0,4.260000288E-1,-1.279050112E0,3.220500052E-1,1.386059674E0
1.479214071E0,6.940500140E-1,-1.240950108E0,3.600000143E-1,1.466718310E0
1.481176207E0,8.470500112E-1,-1.126049995E0,3.979500234E-1,1.464188012E0
1.483138458E0,1.000050068E0,-1.011000037E0,4.750500321E-1,1.499297751E0
1.485100904E0,1.192050099E0,-8.959500194E-1,5.509500504E-1,1.589734517E0
1.487063297E0,1.306950092E0,-7.429500222E-1,5.130000114E-1,1.588477979E0
1.489025636E0,1.345050097E0,-6.280500293E-1,5.899500251E-1,1.597387753E0
1.490987991E0,1.384050012E0,-5.509500504E-1,7.050000429E-1,1.648079322E0
1.492950425E0,1.422000051E0,-4.740000367E-1,8.200500607E-1,1.708579024E0
1.494912836E0,1.422000051E0,-4.740000367E-1,1.011000037E0,1.808004771E0
1.496875197E0,1.384050012E0,-2.830500007E-1,1.240950108E0,1.880337445E0
1.498837555E0,1.345050097E0,-2.059500068E-1,1.471050024E0,2.003887058E0
1.500800168E0,1.306950092E0,-1.680000126E-1,1.701000094E0,2.151683961E0
1.502762707E0,1.306950092E0,-1.290000081E-1,2.085000038E0,2.464139749E0
1.504725021E0,1.230000019E0,-1.290000081E-1,2.659050226E0,2.932590860E0
1.506687401E0,1.077000022E0,-1.680000126E-1,2.965950251E0,3.159907268E0
1.508650051E0,9.619500637E-1,-1.290000081E-1,3.349050045E0,3.486850317E0
1.510612625E0,8.470500112E-1,-9.105000645E-2,3.733050108E0,3.829026891E0
1.512574167E0,7.699500322E-1,-5.295000225E-2,4.000950336E0,4.074706167E0
1.514536011E0,6.940500140E-1,-1.500000060E-2,4.231050014E0,4.287623426E0
1.516498172E0,6.550500393E-1,-1.500000060E-2,4.461000443E0,4.508862440E0
1.518460240E0,7.320000529E-1,-1.500000060E-2,4.614000320E0,4.671728592E0
1.520422584E0,8.850000501E-1,2.295000106E-2,4.729050159E0,4.811202262E0
1.522384851E0,1.039050102E0,9.900000691E-2,4.690950394E0,4.805667666E0
1.524347211E0,1.153950095E0,9.900000691E-2,4.576050282E0,4.720342996E0
1.526309543E0,1.269000053E0,9.900000691E-2,4.384050369E0,4.565091431E0
1.528272027E0,1.306950092E0,1.380000114E-1,4.153950214E0,4.356887069E0
1.530234466E0,1.345050097E0,6.105000153E-2,3.771000147E0,4.004163954E0
1.532196859E0,1.384050012E0,6.105000153E-2,3.273000240E0,3.554131696E0
1.534159286E0,1.537050128E0,1.380000114E-1,2.812950134E0,3.208466231E0
1.536121933E0,1.537050128E0,9.900000691E-2,2.238000154E0,2.716793844E0
1.538084515E0,1.575000048E0,9.900000691E-2,1.701000094E0,2.320307625E0
1.540047002E0,1.614000082E0,1.380000114E-1,1.240950108E0,2.040587523E0
1.542009517E0,1.651950121E0,2.140500098E-1,6.280500293E-1,1.780225673E0
1.543972873E0,1.690050125E0,2.910000086E-1,9.195000678E-2,1.717383252E0
1.545935980E0,1.690050125E0,2.530499995E-1,-5.209500194E-1,1.786530898E0
1.547898287E0,1.767000079E0,2.910000086E-1,-1.096050024E0,2.099594232E0
1.549860829E0,1.920000076E0,2.910000086E-1,-1.479000092E0,2.441008515E0
1.551823322E0,1.920000076E0,3.679500222E-1,-1.861950040E0,2.699749148E0
1.553785829E0,1.882050037E0,3.679500222E-1,-2.053950071E0,2.810019654E0
1.555748457E0,1.882050037E0,3.679500222E-1,-2.359950066E0,3.040865646E0
1.557711053E0,1.690050125E0,3.289500177E-1,-2.667000055E0,3.174486862E0
1.559673448E0,1.498950124E0,3.289500177E-1,-3.049950123E0,3.414272300E0
1.561635902E0,1.345050097E0,1.759500057E-1,-3.664050102E0,3.907093718E0
1.563599310E0,1.306950092E0,6.105000153E-2,-4.392000198E0,4.582740598E0
1.565562438E0,1.306950092E0,-9.105000645E-2,-5.197050095E0,5.359639758E0
1.567524582E0,1.269000053E0,-2.440500110E-1,-6.154950142E0,6.289144043E0
1.569487031E0,1.192050099E0,-5.509500504E-1,-7.036050320E0,7.157550803E0
1.571449315E0,1.114950061E0,-1.011000037E0,-7.879950523E0,8.022397083E0
1.573411647E0,1.077000022E0,-1.471050024E0,-8.608050346E0,8.799002670E0
1.575374130E0,1.039050102E0,-1.930950046E0,-8.991000175E0,9.254527397E0
1.577336568E0,9.240000248E-1,-2.275950193E0,-8.991000175E0,9.320504787E0
1.579298849E0,9.240000248E-1,-2.659050226E0,-8.953050613E0,9.385171252E0
1.581261180E0,8.470500112E-1,-3.118950129E0,-9.106050491E0,9.662582428E0
1.583223618E0,8.470500112E-1,-3.694050074E0,-9.565950394E0,1.028935890E1
1.585186025E0,6.550500393E-1,-4.153950214E0,-8.914050102E0,9.856200189E0
1.587147641E0,2.719500065E-1,-4.306950092E0,-6.307950497E0,7.642906212E0
1.589109488E0,4.050000105E-3,-4.269000053E0,-2.629050016E0,5.013609662E0
1.591071139E0,-3.019500077E-1,-4.116000175E0,6.280500293E-1,4.174575199E0
1.593032858E0,-7.230000496E-1,-4.039050102E0,3.043050051E0,5.108503539E0
1.594995446E0,-1.106999993E0,-4.422000408E0,4.461000443E0,6.378092312E0
1.596957779E0,-1.681950092E0,-5.457000256E0,5.074050426E0,7.638965613E0
1.598920263E0,-2.830950022E0,-7.143000126E0,5.572050095E0,9.491283953E0
1.600882702E0,-4.441050053E0,-9.442950249E0,5.841000080E0,1.195865866E1
1.602845294E0,-6.511050224E0,-1.258605099E1,6.454050541E0,1.557103795E1
1.604807847E0,-8.925000191E0,-1.630395126E1,6.952050209E0,1.984453218E1
1.606770339E0,-1.183800030E1,-2.067300034E1,7.219950199E0,2.489254657E1
1.608732849E0,-1.459800053E1,-2.531100082E1,7.066950321E0,3.006143990E1
1.610695481E0,-1.674405098E1,-2.968005180E1,7.297050476E0,3.484990192E1
1.612658077E0,-1.808595085E1,-3.427905273E1,7.834050179E0,3.954146452E1
1.614620672E0,-1.854600143E1,-3.926205063E1,9.098999977E0,4.436501538E1
1.616583284E0,-1.843095016E1,-4.393800354E1,1.086195087E1,4.886952072E1
1.618546036E0,-1.808595085E1,-4.807695389E1,1.277805042E1,5.293178332E1
1.620508746E0,-1.666800117E1,-5.214000320E1,1.465605068E1,5.666746879E1
1.622471391E0,-1.394595051E1,-5.581905365E1,1.657200050E1,5.987392994E1
1.624434056E0,-9.922050476E0,-5.892405319E1,1.891005135E1,6.267440604E1
1.626396652E0,-4.708950043E0,-6.179895401E1,2.005995178E1,6.514358443E1
1.628359276E0,4.200000316E-2,-6.402194977E1,1.963905144E1,6.696644053E1
1.630322745E0,4.795050144E0,-6.586095428E1,1.760700035E1,6.834225828E1
1.632285967E0,9.700950623E0,-6.747105408E1,1.442595100E1,6.967467003E1
1.634249065E0,1.433805084E1,-6.858300018E1,9.098999977E0,7.065408280E1
1.636212199E0,2.058600044E1,-7.000095367E1,-3.702000141E0,7.305902911E1
1.638175036E0,2.986095047E1,-7.180200195E1,-2.581695175E1,8.193728605E1
1.640137964E0,3.541905212E1,-7.145700073E1,-3.363600159E1,8.655629850E1
1.642100390E0,3.955800247E1,-7.042200470E1,-3.938505173E1,8.986254284E1
1.644062964E0,4.120605087E1,-6.785400391E1,-3.854205322E1,8.824734750E1
1.646025406E0,3.928995132E1,-6.379200363E1,-2.915100098E1,8.039216915E1
1.647987887E0,3.557205200E1,-5.911605453E1,-1.750005150E1,7.117816091E1
1.649950115E0,2.951595116E1,-5.386500168E1,-7.189950466E0,6.184112844E1
1.651912420E0,2.004900169E1,-4.826895142E1,-9.810000658E-1,5.227634743E1
1.653874007E0,1.069695091E1,-4.317105103E1,1.510050058E0,4.450218710E1
1.655835805E0,4.219950199E0,-3.907005310E1,2.391000032E0,3.936996203E1
1.657797884E0,-3.299999982E-2,-3.565904999E1,2.698050022E0,3.576099004E1
1.659759880E0,-2.830950022E0,-3.274605179E1,1.969950080E0,3.292717554E1
1.661722519E0,-4.288050175E0,-3.040800095E1,1.203000069E0,3.073241131E1
1.663684996E0,-5.016000271E0,-2.853000069E1,3.220500052E-1,2.896937890E1
1.665647996E0,-5.553000450E0,-2.715000153E1,-6.739500165E-1,2.772025623E1
1.667610842E0,-5.898000240E0,-2.596200180E1,-1.363950014E0,2.665843776E1
1.669572878E0,-5.859000206E0,-2.523405075E1,-1.516950130E0,2.594968860E1
1.671535151E0,-5.514000416E0,-2.477400208E1,-1.479000092E0,2.542327321E1
1.673497449E0,-5.398950100E0,-2.427600098E1,-1.249050021E0,2.490046208E1
1.675459750E0,-5.553000450E0,-2.400795174E1,-7.120500207E-1,2.465207042E1
1.677421159E0,-5.782950401E0,-2.377800179E1,-1.369500011E-1,2.447150669E1
1.679382829E0,-5.706000328E0,-2.373900032E1,5.509500504E-1,2.442134562E1
1.681345425E0,-5.668050289E0,-2.370105171E1,1.356000066E0,2.440707648E1
1.683307750E0,-5.553000450E0,-2.373900032E1,1.893000126E0,2.445320837E1
1.685270017E0,-5.284050465E0,-2.393100166E1,2.620950222E0,2.464717854E1
1.687232328E0,-5.131050110E0,-2.373900032E1,3.004050255E0,2.447227266E1
1.689194814E0,-4.863000393E0,-2.358600044E1,3.234000206E0,2.429829103E1
1.691157249E0,-4.518000126E0,-2.358600044E1,3.426000118E0,2.425797227E1
1.693119536E0,-4.134000301E0,-2.350905037E1,3.618000269E0,2.414239702E1
1.695081867E0,-3.865950108E0,-2.331795120E1,3.694050074E0,2.392317756E1
1.697044004E0,-3.559950113E0,-2.316405106E1,3.541050196E0,2.370201558E1
1.699006188E0,-3.253050089E0,-2.281905174E1,3.426000118E0,2.330298123E1
1.700968337E0,-3.061050177E0,-2.258895111E1,3.157950163E0,2.301311343E1
1.702930496E0,-2.946000099E0,-2.239800072E1,2.928000212E0,2.277987133E1
1.704892693E0,-2.793000221E0,-2.224500084E1,2.620950222E0,2.257233467E1
1.706854879E0,-2.640000105E0,-2.201505089E1,2.314950228E0,2.229329632E1
1.708816988E0,-2.332950115E0,-2.170800018E1,2.161050081E0,2.193969156E1
1.710779117E0,-2.065050125E0,-2.143995094E1,2.046000004E0,2.163612822E1
1.712741319E0,-1.795950055E0,-2.121000099E1,1.930950046E0,2.137330454E1
1.714703499E0,-1.567050099E0,-2.094105148E1,1.816050053E0,2.107798190E1
1.716665964E0,-1.183050036E0,-2.067300034E1,1.777950048E0,2.078301366E1
1.718628345E0,-1.144950032E0,-2.055795097E1,1.930950046E0,2.068015539E1
1.720590180E0,-4.930500090E-1,-2.013600159E1,2.161050081E0,2.025763549E1
1.722552151E0,-1.480500102E-1,-1.983000183E1,2.467950106E0,1.998353495E1
1.724514515E0,1.570500135E-1,-1.952295113E1,2.659050226E0,1.970382789E1
1.726476764E0,4.639500082E-1,-1.914000130E1,2.812950134E0,1.935116502E1
1.728439983E0,5.790000558E-1,-1.871805000E1,3.004050255E0,1.896641650E1
1.730402918E0,8.850000501E-1,-1.833495140E1,3.196050167E0,1.863245568E1
1.732365123E0,1.039050102E0,-1.791300011E1,3.349050045E0,1.825298151E1
1.734327539E0,1.269000053E0,-1.745400047E1,3.463950157E0,1.783960326E1
1.736289783E0,1.384050012E0,-1.699394989E1,3.541050196E0,1.741404502E1
1.738252078E0,1.614000082E0,-1.657200050E1,3.694050074E0,1.705526907E1
1.740214252E0,1.882050037E0,-1.622700119E1,3.771000147E0,1.676538464E1
1.742176462E0,2.035050154E0,-1.576695061E1,3.733050108E0,1.633015076E1
1.744138606E0,2.188950062E0,-1.534605026E1,3.886050224E0,1.598105589E1
1.746100770E0,2.304000139E0,-1.492395115E1,3.886050224E0,1.559275860E1
1.748062922E0,2.494950056E0,-1.457895088E1,3.963000298E0,1.531260775E1
1.750025078E0,2.533950090E0,-1.411905098E1,3.924000263E0,1.487166035E1
1.751987546E0,2.649000168E0,-1.373595047E1,3.924000263E0,1.452898191E1
1.753949922E0,2.610000134E0,-1.323795033E1,3.924000263E0,1.405180442E1
1.755911864E0,2.686950207E0,-1.281600094E1,3.771000147E0,1.362681267E1
1.757873929E0,2.610000134E0,-1.227900028E1,3.655950069E0,1.307485830E1
1.759836142E0,2.533950090E0,-1.174305058E1,3.463950157E0,1.250276332E1
1.761798312E0,2.533950090E0,-1.124400043E1,3.273000240E0,1.198169351E1
1.763760598E0,2.457000017E0,-1.070805073E1,3.081000090E0,1.141016043E1
1.765722850E0,2.380050182E0,-1.013295078E1,2.965950251E0,1.082303984E1
1.767684974E0,2.380050182E0,-9.595950127E0,2.773950100E0,1.026848075E1
1.769647146E0,2.341950178E0,-8.983050346E0,2.506050110E0,9.615623293E0
1.771609476E0,2.380050182E0,-8.370000839E0,2.161050081E0,8.966141331E0
1.773571759E0,2.341950178E0,-7.717950344E0,1.893000126E0,8.284620548E0
1.775533937E0,2.227050066E0,-7.027950287E0,1.624950051E0,7.549324466E0
1.777496146E0,2.188950062E0,-6.376950264E0,1.471050024E0,6.900795984E0
1.779458438E0,2.227050066E0,-5.725050449E0,1.203000069E0,6.259645662E0
1.781420696E0,2.188950062E0,-5.112000465E0,8.580000401E-1,5.626741082E0
1.783383733E0,2.227050066E0,-4.422000408E0,4.750500321E-1,4.973883004E0
1.785346542E0,2.111999989E0,-3.771000147E0,1.300500035E-1,4.324106736E0
1.787308630E0,1.767000079E0,-3.118950129E0,-1.369500011E-1,3.587324140E0
1.789270929E0,1.537050128E0,-2.428950071E0,-4.440000355E-1,2.908514668E0
1.791233227E0,1.269000053E0,-1.701000094E0,-8.659500480E-1,2.292080265E0
1.793195532E0,1.039050102E0,-1.126049995E0,-1.326000094E0,2.026299573E0
1.795156895E0,8.089500666E-1,-5.509500504E-1,-1.555950046E0,1.838185712E0
1.797118534E0,3.870000243E-1,-5.295000225E-2,-1.861950040E0,1.902480137E0
1.799080235E0,1.189500093E-1,4.830000103E-1,-2.092050076E0,2.150374766E0
1.801041917E0,-7.200000435E-2,9.430500269E-1,-2.169000149E0,2.366239421E0
1.803004197E0,-2.629500031E-1,1.288050056E0,-2.245050192E0,2.601627570E0
1.804966302E0,-2.629500031E-1,1.594050050E0,-2.245050192E0,2.765933591E0
1.806928464E0,-3.400500119E-1,1.824000120E0,-2.169000149E0,2.854325156E0
1.808890609E0,-4.170000255E-1,2.016000032E0,-2.092050076E0,2.935101135E0
1.810852945E0,-5.320500135E-1,2.131050110E0,-2.014950037E0,2.980683720E0
1.812815225E0,-4.170000255E-1,2.245950222E0,-1.900950074E0,2.971833206E0
1.814777898E0,-3.019500077E-1,2.245950222E0,-1.824000120E0,2.909027784E0
1.816740456E0,-2.250000089E-1,2.322000027E0,-1.708950043E0,2.891853969E0
1.818702722E0,-3.299999982E-2,2.361000061E0,-1.786050081E0,2.960639320E0
1.820665073E0,-3.299999982E-2,2.361000061E0,-1.861950040E0,3.007036455E0
1.822627552E0,4.050000105E-3,2.398950100E0,-2.053950071E0,3.158114767E0
1.824589994E0,1.570500135E-1,2.476050138E0,-2.284050226E0,3.372295128E0
1.826552285E0,1.960500032E-1,2.476050138E0,-2.629050016E0,3.616789167E0
1.828514616E0,2.719500065E-1,2.590950012E0,-2.743950129E0,3.783680890E0
1.830477054E0,3.870000243E-1,2.629050016E0,-3.088950157E0,4.074713006E0
1.832439461E0,3.870000243E-1,2.706000090E0,-3.472050190E0,4.418974771E0
1.834401617E0,4.260000288E-1,2.706000090E0,-3.739950180E0,4.635853736E0
1.836363847E0,4.639500082E-1,2.782050133E0,-4.084949970E0,4.964057696E0
1.838327073E0,6.940500140E-1,2.896950245E0,-4.315050125E0,5.243441973E0
1.840290004E0,8.089500666E-1,2.935950041E0,-4.582950115E0,5.502511664E0
1.842251981E0,1.000050068E0,2.974050045E0,-4.736999989E0,5.681922448E0
1.844214237E0,1.114950061E0,3.012000084E0,-4.813050270E0,5.786251900E0
1.846176373E0,1.306950092E0,2.974050045E0,-4.736999989E0,5.743889023E0
1.848138545E0,1.345050097E0,2.935950041E0,-4.582950115E0,5.606460038E0
1.850100579E0,1.459950089E0,2.974050045E0,-4.429950237E0,5.531806851E0
1.852062640E0,1.614000082E0,2.974050045E0,-4.047000408E0,5.275242387E0
1.854024809E0,1.767000079E0,2.896950245E0,-3.586950064E0,4.937693871E0
1.855986946E0,1.996950150E0,2.859000206E0,-3.165000200E0,4.709449898E0
1.857949238E0,2.111999989E0,2.782050133E0,-2.551950216E0,4.325829030E0
1.859911485E0,2.227050066E0,2.667000055E0,-1.900950074E0,3.960587390E0
1.861873659E0,2.341950178E0,2.590950012E0,-1.210950017E0,3.696505451E0
1.863835861E0,2.457000017E0,2.551950216E0,-5.209500194E-1,3.580598821E0
1.865797466E0,2.494950056E0,2.398950100E0,1.300500035E-1,3.463618104E0
1.867759246E0,2.572050095E0,2.322000027E0,7.810500264E-1,3.552064886E0
1.869721643E0,2.686950207E0,2.169000149E0,1.318050027E0,3.696149203E0
1.871683859E0,2.764050245E0,2.092950106E0,1.740000129E0,3.879177020E0
1.873646343E0,2.764050245E0,2.092950106E0,2.275950193E0,4.147332056E0
1.875608730E0,2.764050245E0,1.978050113E0,2.773950100E0,4.387192173E0
1.877571205E0,2.725050211E0,1.900950074E0,3.118950129E0,4.557121870E0
1.879533654E0,2.686950207E0,1.900950074E0,3.463950157E0,4.778311761E0
1.881495758E0,2.572050095E0,1.824000120E0,3.847950220E0,4.974850653E0
1.883457963E0,2.494950056E0,1.786050081E0,4.116000175E0,5.133829771E0
1.885420094E0,2.341950178E0,1.786050081E0,4.269000053E0,5.186431045E0
1.887382257E0,2.227050066E0,1.708950043E0,4.384050369E0,5.205781390E0
1.889344588E0,1.996950150E0,1.708950043E0,4.345950127E0,5.078937158E0
1.891306870E0,1.804950118E0,1.633050084E0,4.308000088E0,4.948086727E0
1.893269362E0,1.498950124E0,1.671000123E0,4.231050014E0,4.789663570E0
1.895231793E0,1.230000019E0,1.555950046E0,4.078050137E0,4.534795862E0
1.897194514E0,9.619500637E-1,1.363950014E0,3.924000263E0,4.264209848E0
1.899157130E0,6.550500393E-1,1.173000097E0,3.618000269E0,3.859397068E0
1.901118980E0,5.020500422E-1,9.430500269E-1,3.463950157E0,3.624961833E0
1.903081055E0,5.410500169E-1,5.980500579E-1,3.426000118E0,3.519641431E0
1.905043221E0,4.639500082E-1,4.060500264E-1,3.388050079E0,3.443691272E0
1.907005361E0,4.260000288E-1,2.140500098E-1,3.234000206E0,3.268952548E0
1.908968594E0,3.870000243E-1,9.900000691E-2,3.157950163E0,3.183114709E0
1.910931510E0,3.870000243E-1,-5.295000225E-2,3.043050051E0,3.068016677E0
1.912894075E0,3.870000243E-1,-1.290000081E-1,2.965950251E0,2.993872227E0
1.914856743E0,4.639500082E-1,-1.290000081E-1,3.004050255E0,3.042401773E0
1.916819394E0,5.020500422E-1,-1.680000126E-1,3.043050051E0,3.088758951E0
1.918782050E0,5.020500422E-1,-2.059500068E-1,3.043050051E0,3.091055364E0
1.920744983E0,5.790000558E-1,-2.830500007E-1,3.118950129E0,3.184840384E0
1.922707827E0,5.790000558E-1,-4.360500276E-1,3.234000206E0,3.314232645E0
1.924670225E0,5.790000558E-1,-4.740000367E-1,3.273000240E0,3.357446600E0
1.926632753E0,6.550500393E-1,-6.280500293E-1,3.388050079E0,3.507480682E0
1.928594887E0,7.699500322E-1,-7.810500264E-1,3.502950191E0,3.670629679E0
1.930557137E0,8.089500666E-1,-9.340500236E-1,3.541050196E0,3.750451459E0
1.932519434E0,7.320000529E-1,-1.048950076E0,3.579000235E0,3.800705595E0
1.934481731E0,6.940500140E-1,-1.164000034E0,3.733050108E0,3.971431053E0
1.936444176E0,6.550500393E-1,-1.240950108E0,3.847950220E0,4.095823314E0
1.938406577E0,6.169500351E-1,-1.279050112E0,3.886050224E0,4.137388413E0
1.940368194E0,5.790000558E-1,-1.318050027E0,3.963000298E0,4.216380948E0
1.942330040E0,4.639500082E-1,-1.356000066E0,4.039050102E0,4.285780153E0
1.944292381E0,3.490500152E-1,-1.356000066E0,4.000950336E0,4.238888497E0
1.946254577E0,3.109500110E-1,-1.356000066E0,3.963000298E0,4.200094933E0
1.948216949E0,2.719500065E-1,-1.356000066E0,3.963000298E0,4.197387800E0
1.950179269E0,2.719500065E-1,-1.393950105E0,3.808950186E0,4.065114416E0
1.952141710E0,1.570500135E-1,-1.318050027E0,3.618000269E0,3.853809353E0
1.954104115E0,1.189500093E-1,-1.356000066E0,3.349050045E0,3.615110163E0
1.956066458E0,1.189500093E-1,-1.356000066E0,3.196050167E0,3.473848292E0
1.958028815E0,8.100000024E-2,-1.318050027E0,2.965950251E0,3.246640997E0
1.959991069E0,4.200000316E-2,-1.279050112E0,2.698050022E0,2.986169304E0
1.961953353E0,4.050000105E-3,-1.279050112E0,2.467950106E0,2.779705617E0
1.963915844E0,4.050000105E-3,-1.279050112E0,2.314950228E0,2.644802478E0
1.965878274E0,4.200000316E-2,-1.318050027E0,2.046000004E0,2.434160202E0
1.967840741E0,4.050000105E-3,-1.356000066E0,1.893000126E0,2.328562230E0
1.969803197E0,4.050000105E-3,-1.393950105E0,1.585950017E0,2.111480702E0
1.971765481E0,-3.299999982E-2,-1.393950105E0,1.395000100E0,1.972361826E0
1.973727815E0,4.200000316E-2,-1.471050024E0,8.959500194E-1,1.722927338E0
1.975690703E0,4.050000105E-3,-1.509000063E0,1.680000126E-1,1.518328554E0
1.977653428E0,8.100000024E-2,-1.585950017E0,-6.360000372E-1,1.710641547E0
1.979615635E0,1.189500093E-1,-1.663050056E0,-1.786050081E0,2.443329590E0
1.981577983E0,2.719500065E-1,-1.738950133E0,-3.280050039E0,3.722449816E0
1.983541004E0,5.410500169E-1,-1.893000126E0,-4.621950150E0,5.023804115E0
1.985503828E0,7.699500322E-1,-2.046000004E0,-6.040050507E0,6.423484194E0
1.987465552E0,1.114950061E0,-2.199000120E0,-7.113000393E0,7.528179711E0
1.989427599E0,1.269000053E0,-2.314050198E0,-7.726050377E0,8.164376515E0
1.991389969E0,1.306950092E0,-2.351999998E0,-8.148000717E0,8.580788904E0
1.993352231E0,1.306950092E0,-2.391000032E0,-8.377950668E0,8.809940811E0
1.995315088E0,1.306950092E0,-2.391000032E0,-8.301000595E0,8.736796357E0
1.997277770E0,1.306950092E0,-2.314050198E0,-8.340000153E0,8.753202237E0
1.999239969E0,1.422000051E0,-2.314050198E0,-8.148000717E0,8.588761735E0
2.001202310E0,1.384050012E0,-2.275950193E0,-7.611000538E0,8.063676141E0
2.003164840E0,1.345050097E0,-2.199000120E0,-6.997950554E0,7.457618470E0
2.005127312E0,1.384050012E0,-2.008050203E0,-6.193050385E0,6.655954711E0
2.007089728E0,1.422000051E0,-1.893000126E0,-5.311950207E0,5.815698464E0
2.009052160E0,1.459950089E0,-1.701000094E0,-4.545000076E0,5.067729401E0
2.011014625E0,1.498950124E0,-1.509000063E0,-3.894000292E0,4.437022756E0
2.012977081E0,1.614000082E0,-1.393950105E0,-3.165000200E0,3.816453776E0
2.014939554E0,1.804950118E0,-1.203000069E0,-2.551950216E0,3.349254245E0
2.016902015E0,1.996950150E0,-1.011000037E0,-1.939050078E0,2.961392608E0
2.018864342E0,2.227050066E0,-7.810500264E-1,-1.363950014E0,2.725830292E0
2.020826709E0,2.419050217E0,-5.890500546E-1,-7.890000343E-1,2.611762809E0
2.022789366E0,2.725050211E0,-5.130000114E-1,-3.670500219E-1,2.797104464E0
2.024751938E0,2.917050123E0,-3.979500234E-1,9.195000678E-2,2.945505126E0
2.026713782E0,3.031950235E0,-2.830500007E-1,5.509500504E-1,3.094573556E0
2.028675849E0,2.878050089E0,-9.105000645E-2,1.050000072E0,3.064957189E0
2.030637883E0,2.802000046E0,1.380000114E-1,1.471050024E0,3.167686290E0
2.032599926E0,2.839950085E0,3.289500177E-1,1.930950046E0,3.449940967E0
2.034562773E0,2.839950085E0,4.440000355E-1,2.506050110E0,3.813494417E0
2.036525385E0,2.878050089E0,4.830000103E-1,2.812950134E0,4.053288761E0
2.038487715E0,2.917050123E0,5.209500194E-1,2.928000212E0,4.165783910E0
2.040450108E0,2.917050123E0,5.209500194E-1,3.081000090E0,4.274708399E0
2.042412715E0,2.992950201E0,4.830000103E-1,3.157950163E0,4.377635109E0
2.044375259E0,3.108000040E0,4.060500264E-1,3.273000240E0,4.531784576E0
2.046337753E0,3.147000074E0,4.060500264E-1,3.388050079E0,4.641914415E0
2.048300261E0,3.223050117E0,4.060500264E-1,3.426000118E0,4.721271597E0
2.050262914E0,3.223050117E0,3.679500222E-1,3.463950157E0,4.745776013E0
2.052225510E0,3.262050152E0,3.679500222E-1,3.426000118E0,4.744874627E0
2.054187725E0,3.300000191E0,2.910000086E-1,3.388050079E0,4.738519347E0
2.056150051E0,3.223050117E0,2.530499995E-1,3.196050167E0,4.546077764E0
2.058112580E0,3.300000191E0,2.530499995E-1,3.081000090E0,4.521791361E0
2.060075049E0,3.300000191E0,2.910000086E-1,2.851050138E0,4.370717236E0
2.062037489E0,3.300000191E0,2.910000086E-1,2.620950222E0,4.224223281E0
2.063999953E0,3.262050152E0,2.530499995E-1,2.238000154E0,3.964044675E0
2.065962728E0,3.223050117E0,2.530499995E-1,1.816050053E0,3.708115985E0
2.067925412E0,3.147000074E0,2.530499995E-1,1.432950020E0,3.467129869E0
2.069888557E0,3.223050117E0,2.140500098E-1,9.349500537E-1,3.362737140E0
2.071851566E0,3.223050117E0,2.530499995E-1,1.680000126E-1,3.237330747E0
2.073813980E0,3.376950264E0,2.140500098E-1,-6.739500165E-1,3.450191171E0
2.075776568E0,3.682950258E0,2.140500098E-1,-1.747050047E0,4.081926491E0
2.077739143E0,3.990000248E0,9.900000691E-2,-2.782050133E0,4.865152199E0
2.079701722E0,4.488000393E0,-1.500000060E-2,-3.702000141E0,5.817832721E0
2.081664883E0,4.872000217E0,-2.059500068E-1,-4.507050037E0,6.640203428E0
2.083627874E0,5.215950012E0,-3.979500234E-1,-5.272950172E0,7.427550220E0
2.085590232E0,5.178000450E0,-8.190000653E-1,-5.733000278E0,7.768509636E0
2.087552785E0,5.062950134E0,-1.126049995E0,-5.887050152E0,7.845942400E0
2.089515410E0,4.909950256E0,-1.471050024E0,-5.695050240E0,7.661931671E0
2.091478014E0,4.756950378E0,-1.816050053E0,-5.388000488E0,7.413309919E0
2.093440452E0,4.450050354E0,-2.238000154E0,-5.043000221E0,7.088261005E0
2.095402939E0,4.258049965E0,-2.697000027E0,-4.966950417E0,7.076397041E0
2.097365606E0,4.027950287E0,-3.196050167E0,-5.082000256E0,7.229512209E0
2.099328230E0,3.837000132E0,-3.655950069E0,-5.235000134E0,7.449413891E0
2.101290304E0,3.376950264E0,-4.116000175E0,-5.043000221E0,7.333287241E0
2.103252539E0,2.917050123E0,-4.575000286E0,-4.237950325E0,6.884768115E0
2.105214679E0,2.341950178E0,-4.804950237E0,-2.896950245E0,6.079851819E0
2.107176847E0,1.804950118E0,-4.882050037E0,-1.171950102E0,5.335327969E0
2.109138258E0,1.345050097E0,-4.767000198E0,7.810500264E-1,5.014328449E0
2.111099905E0,1.153950095E0,-4.614000320E0,2.506050110E0,5.375954514E0
2.113062145E0,9.240000248E-1,-4.345950127E0,3.963000298E0,5.953690444E0
2.115024211E0,7.699500322E-1,-4.231050014E0,4.959000111E0,6.564014730E0
2.116986334E0,7.320000529E-1,-4.116000175E0,5.572050095E0,6.965990510E0
2.118948441E0,6.169500351E-1,-4.306950092E0,5.841000080E0,7.283387150E0
2.120910068E0,4.639500082E-1,-5.074050426E0,5.917050362E0,7.808503206E0
2.122871833E0,-2.629500031E-1,-7.795050144E0,6.070950508E0,9.883743700E0
2.124834232E0,-2.524950027E0,-1.189605045E1,5.956050396E0,1.354126749E1
2.126796446E0,-5.935950279E0,-1.526895046E1,6.186000347E0,1.751122366E1
2.128758770E0,-9.999000549E0,-1.810500145E1,6.301050186E0,2.162115452E1
2.130721062E0,-1.456005096E1,-2.186100197E1,6.415950298E0,2.703817504E1
2.132683553E0,-1.923600006E1,-2.711205101E1,5.802000046E0,3.374537321E1
2.134645985E0,-2.233995056E1,-3.293805313E1,4.959000111E0,4.010711180E1
2.136608812E0,-2.356695175E1,-3.803505325E1,5.035950184E0,4.502696176E1
2.138571523E0,-2.280000114E1,-4.294095230E1,7.144050121E0,4.914064396E1
2.140533988E0,-2.122905159E1,-4.742595291E1,9.712050438E0,5.286035910E1
2.142496525E0,-1.889100075E1,-5.183295059E1,1.266300106E1,5.660279385E1
2.144458987E0,-1.574805069E1,-5.608800125E1,1.519305038E1,6.020542970E1
2.146421462E0,-1.183800030E1,-5.946105194E1,1.672605133E1,6.289289103E1
2.148383877E0,-7.546050549E0,-6.210495377E1,1.791405106E1,6.507596627E1
2.150346309E0,-3.943050146E0,-6.402194977E1,1.829700089E1,6.670185858E1
2.152309856E0,-9.919500351E-1,-6.570795441E1,1.833495140E1,6.822528622E1
2.154273076E0,4.488000393E0,-6.839100647E1,1.576800060E1,7.032852733E1
2.156236480E0,1.023705006E1,-7.115100098E1,9.750000000E0,7.254188193E1
2.158199836E0,1.671495056E1,-7.506000519E1,-6.001950264E0,7.713246630E1
2.160162010E0,2.506995201E1,-7.850895691E1,-2.206095123E1,8.531614371E1
2.162124530E0,3.001395226E1,-7.850895691E1,-2.646795082E1,8.811949878E1
2.164086802E0,3.438405228E1,-7.850895691E1,-3.267795181E1,9.172659320E1
2.166049146E0,3.595500183E1,-7.847100067E1,-3.409605026E1,9.280625381E1
2.168011571E0,3.254400253E1,-7.356495667E1,-2.754195213E1,8.502631403E1
2.169973980E0,2.499405098E1,-6.279495239E1,-1.826595116E1,7.001109628E1
2.171936136E0,1.725105095E1,-5.313705063E1,-1.056300068E1,5.685703028E1
2.173898367E0,9.586050034E0,-4.543305206E1,-5.733000278E0,4.678591527E1
2.175859200E0,3.607050180E0,-3.976005173E1,-2.475000143E0,3.999997688E1
2.177820443E0,-3.019500077E-1,-3.558300018E1,3.220500052E-1,3.558573860E1
2.179782933E0,-2.524950027E0,-3.232500076E1,2.122950077E0,3.249289098E1
2.181745057E0,-3.598050117E0,-2.968005180E1,3.234000206E0,3.007175081E1
2.183707396E0,-4.018949986E0,-2.745705223E1,4.153950214E0,2.805881285E1
2.185669672E0,-4.134000301E0,-2.565600204E1,4.729050159E0,2.641371452E1
2.187631626E0,-3.981000185E0,-2.416095161E1,4.959000111E0,2.498382732E1
2.189593674E0,-3.598050117E0,-2.312595177E1,4.921050072E0,2.391594329E1
2.191556205E0,-3.061050177E0,-2.220600128E1,4.843950272E0,2.293338997E1
2.193518595E0,-2.485950232E0,-2.155500031E1,4.768050194E0,2.221558663E1
2.195481475E0,-2.026050091E0,-2.113305092E1,4.461000443E0,2.169357612E1
2.197444211E0,-1.720050097E0,-2.082600021E1,4.153950214E0,2.130577761E1
2.199406762E0,-1.413000107E0,-2.067300034E1,3.886050224E0,2.108247847E1
2.201369367E0,-1.260000110E0,-2.044305038E1,3.618000269E0,2.079893832E1
2.203331974E0,-1.144950032E0,-2.032800102E1,3.310950041E0,2.062767380E1
2.205294586E0,-1.297950029E0,-2.017500114E1,3.081000090E0,2.045013220E1
2.207257247E0,-1.375050068E0,-2.017500114E1,2.965950251E0,2.043815781E1
2.209219894E0,-1.452000022E0,-2.009805107E1,2.889000177E0,2.035648012E1
2.211182280E0,-1.528050065E0,-2.005995178E1,2.812950134E0,2.031377097E1
2.213144742E0,-1.528050065E0,-2.021295166E1,2.773950100E0,2.045954914E1
2.215107403E0,-1.605000019E0,-2.021295166E1,2.620950222E0,2.044526400E1
2.217070023E0,-1.413000107E0,-2.032800102E1,2.506050110E0,2.053057432E1
2.219032773E0,-1.222050071E0,-2.040495110E1,2.391000032E0,2.058087259E1
2.220995484E0,-9.919500351E-1,-2.063505173E1,2.314950228E0,2.078817739E1
2.222958084E0,-7.620000243E-1,-2.090295029E1,2.200050116E0,2.103221803E1
2.224920717E0,-6.469500065E-1,-2.132505035E1,2.200050116E0,2.144799612E1
2.226883500E0,-3.780000210E-1,-2.178495026E1,2.353049994E0,2.191492154E1
2.228846245E0,4.200000316E-2,-2.209095192E1,2.545050144E0,2.223711314E1
2.230809784E0,3.109500110E-1,-2.251305199E1,2.736000061E0,2.268082662E1
2.232773091E0,6.940500140E-1,-2.274300194E1,2.928000212E0,2.294120807E1
2.234736085E0,1.192050099E0,-2.289600182E1,3.081000090E0,2.313310278E1
2.236699170E0,1.384050012E0,-2.293395042E1,3.234000206E0,2.320216442E1
2.238662050E0,1.729050040E0,-2.293395042E1,3.618000269E0,2.328187325E1
2.240625001E0,1.996950150E0,-2.278095055E1,3.771000147E0,2.317714305E1
2.242587559E0,2.227050066E0,-2.247405052E1,3.886050224E0,2.291602246E1
2.244550232E0,2.341950178E0,-2.224500084E1,4.116000175E0,2.274348809E1
2.246512657E0,2.457000017E0,-2.170800018E1,4.192950249E0,2.224533553E1
2.248475155E0,2.572050095E0,-2.124795151E1,4.231050014E0,2.181725622E1
2.250437806E0,2.878050089E0,-2.094105148E1,4.498950005E0,2.161137110E1
2.252400400E0,3.147000074E0,-2.040495110E1,4.690950394E0,2.117240313E1
2.254363019E0,3.184950113E0,-1.979205132E1,4.729050159E0,2.059692011E1
2.256325630E0,3.415050268E0,-1.925505066E1,4.843950272E0,2.014654805E1
2.258288112E0,3.568050146E0,-1.864200020E1,4.882050037E0,1.959820313E1
2.260250632E0,3.645000219E0,-1.806705093E1,4.959000111E0,1.908654076E1
2.262213633E0,3.798000097E0,-1.745400047E1,5.074050426E0,1.856913905E1
2.264176486E0,3.952050209E0,-1.691700172E1,5.151000023E0,1.812005655E1
2.266138881E0,4.105050087E0,-1.634205055E1,5.112000465E0,1.760814020E1
2.268101411E0,4.143000126E0,-1.569000053E1,5.074050426E0,1.700254553E1
2.270063816E0,4.258049965E0,-1.515405083E1,4.882050037E0,1.648061463E1
2.272026257E0,4.372950077E0,-1.469400024E1,4.653000355E0,1.602144650E1
2.273988707E0,4.335000038E0,-1.415700054E1,4.384050369E0,1.544126897E1
2.275951164E0,4.411950111E0,-1.362105083E1,4.153950214E0,1.490817333E1
2.277913987E0,4.335000038E0,-1.316100025E1,3.847950220E0,1.438092048E1
2.279876702E0,4.258049965E0,-1.258605099E1,3.541050196E0,1.375058928E1
2.281838806E0,3.990000248E0,-1.193400097E1,3.196050167E0,1.298288172E1
2.283801089E0,3.837000132E0,-1.128300095E1,2.851050138E0,1.225386336E1
2.285763395E0,3.682950258E0,-1.066995049E1,2.545050144E0,1.157105208E1
2.287725697E0,3.492000103E0,-1.005600071E1,2.046000004E0,1.083989534E1
2.289687962E0,3.262050152E0,-9.366000175E0,1.816050053E0,1.008270640E1
2.291650238E0,3.070050240E0,-8.677050591E0,1.471050024E0,9.320965808E0
2.293612595E0,2.917050123E0,-7.987050533E0,1.279950023E0,8.598862117E0
2.295574928E0,2.725050211E0,-7.258050442E0,1.050000072E0,7.823534688E0
2.297537566E0,2.839950085E0,-6.645000458E0,8.580000401E-1,7.277191191E0
2.299500101E0,3.031950235E0,-6.070050240E0,5.899500251E-1,6.810746888E0
2.301463271E0,2.917050123E0,-5.419050217E0,3.979500234E-1,6.167142847E0
2.303426255E0,2.839950085E0,-4.804950237E0,2.449500114E-1,5.586847391E0
2.305388673E0,2.725050211E0,-4.192049980E0,1.300500035E-1,5.001609210E0
2.307351257E0,2.419050217E0,-3.655950069E0,5.295000225E-2,4.384128028E0
2.309313833E0,2.188950062E0,-3.081000090E0,5.295000225E-2,3.779797300E0
2.311276411E0,1.920000076E0,-2.581950188E0,1.500000060E-2,3.217622113E0
2.313238672E0,1.767000079E0,-2.122950077E0,-2.205000073E-2,2.762189804E0
2.315201026E0,1.729050040E0,-1.585950017E0,-2.205000073E-2,2.346345606E0
2.317163505E0,1.690050125E0,-1.240950108E0,1.500000060E-2,2.096771708E0
2.319125947E0,1.767000079E0,-8.959500194E-1,2.070000172E-1,1.991949980E0
2.321087372E0,1.804950118E0,-5.130000114E-1,2.449500114E-1,1.892356850E0
2.323049098E0,1.767000079E0,-2.059500068E-1,3.600000143E-1,1.815021955E0
2.325010424E0,1.804950118E0,-1.500000060E-2,3.979500234E-1,1.848359854E0
2.326971867E0,1.729050040E0,1.759500057E-1,3.979500234E-1,1.782957281E0
2.328934277E0,1.729050040E0,4.830000103E-1,4.360500276E-1,1.847442199E0
2.330896404E0,1.690050125E0,6.739500165E-1,3.220500052E-1,1.847753841E0
2.332859509E0,1.690050125E0,8.280000687E-1,2.070000172E-1,1.893331071E0
2.334822327E0,1.614000082E0,1.057950020E0,9.195000678E-2,1.932022079E0
2.336784503E0,1.537050128E0,1.134000063E0,-6.105000153E-2,1.911074656E0
2.338746867E0,1.459950089E0,1.249050021E0,-2.140500098E-1,1.933235016E0
2.340709344E0,1.384050012E0,1.363950014E0,-5.209500194E-1,2.011800934E0
2.342671788E0,1.306950092E0,1.479000092E0,-7.510500550E-1,2.111785027E0
2.344634253E0,1.306950092E0,1.555950046E0,-1.057050109E0,2.290513921E0
2.346596712E0,1.269000053E0,1.594050050E0,-1.441050053E0,2.495592505E0
2.348558814E0,1.114950061E0,1.671000123E0,-1.747050047E0,2.662243211E0
2.350521021E0,1.077000022E0,1.863000035E0,-2.169000149E0,3.055365743E0
2.352483570E0,1.039050102E0,1.939050078E0,-2.667000055E0,3.457228603E0
2.354446019E0,1.039050102E0,2.053950071E0,-3.241950035E0,3.976000005E0
2.356408608E0,1.039050102E0,2.131050110E0,-3.931950092E0,4.591430193E0
2.358371163E0,9.619500637E-1,2.208000183E0,-4.660050392E0,5.245634603E0
2.360333834E0,1.039050102E0,2.322000027E0,-5.311950207E0,5.889662489E0
2.362296471E0,1.039050102E0,2.437050104E0,-5.887050152E0,6.455710481E0
2.364259039E0,1.000050068E0,2.476050138E0,-6.307950497E0,6.849902473E0
2.366221627E0,1.039050102E0,2.551950216E0,-6.538050175E0,7.094940106E0
2.368183867E0,1.077000022E0,2.551950216E0,-6.691050529E0,7.241721904E0
2.370146223E0,1.192050099E0,2.590950012E0,-6.652950287E0,7.238491067E0
2.372108567E0,1.306950092E0,2.514000177E0,-6.499950409E0,7.090674915E0
2.374070915E0,1.345050097E0,2.476050138E0,-6.154950142E0,6.769297992E0
2.376033216E0,1.459950089E0,2.437050104E0,-5.656950474E0,6.330225599E0
2.377995531E0,1.575000048E0,2.322000027E0,-4.890000343E0,5.637766635E0
2.379957837E0,1.804950118E0,2.245950222E0,-4.237950325E0,5.124681481E0
2.381920146E0,1.920000076E0,2.208000183E0,-3.472050190E0,4.540572389E0
2.383882768E0,2.111999989E0,2.131050110E0,-2.704950094E0,4.039637797E0
2.385845298E0,2.304000139E0,2.131050110E0,-1.900950074E0,3.669250931E0
2.387807928E0,2.419050217E0,2.131050110E0,-1.057050109E0,3.392717709E0
2.389770529E0,2.494950056E0,2.092950106E0,-1.759500057E-1,3.261314816E0
2.391732242E0,2.610000134E0,2.131050110E0,5.509500504E-1,3.414238015E0
2.393694218E0,2.686950207E0,2.053950071E0,1.318050027E0,3.629830324E0
2.395656807E0,2.725050211E0,2.016000032E0,1.701000094E0,3.792565900E0
2.397619216E0,2.764050245E0,2.016000032E0,2.238000154E0,4.088138278E0
2.399581508E0,2.764050245E0,1.900950074E0,2.773950100E0,4.352974167E0
2.401543834E0,2.725050211E0,1.786050081E0,3.310950041E0,4.645240975E0
2.403505797E0,2.725050211E0,1.786050081E0,3.694050074E0,4.925634933E0
2.405467853E0,2.649000168E0,1.708950043E0,4.116000175E0,5.184512473E0
2.407430563E0,2.610000134E0,1.633050084E0,4.308000088E0,5.295074884E0
2.409393081E0,2.494950056E0,1.594050050E0,4.461000443E0,5.354091547E0
2.411355668E0,2.457000017E0,1.518000126E0,4.537950039E0,5.379048617E0
2.413318235E0,2.341950178E0,1.441050053E0,4.537950039E0,5.306066947E0
2.415280876E0,2.188950062E0,1.402950048E0,4.537950039E0,5.229986785E0
2.417243515E0,2.074050188E0,1.363950014E0,4.461000443E0,5.105151200E0
2.419206128E0,1.882050037E0,1.288050056E0,4.308000088E0,4.874428176E0
2.421168748E0,1.651950121E0,1.288050056E0,4.078050137E0,4.584594318E0
2.423131362E0,1.498950124E0,1.249050021E0,3.847950220E0,4.314359550E0
2.425093978E0,1.345050097E0,1.210950017E0,3.541050196E0,3.976756995E0
2.427056437E0,1.230000019E0,1.210950017E0,3.310950041E0,3.733857277E0
2.429018926E0,1.077000022E0,1.173000097E0,3.118950129E0,3.501957764E0
2.430981383E0,8.850000501E-1,1.134000063E0,2.851050138E0,3.193378794E0
2.432943849E0,7.320000529E-1,1.057950020E0,2.620950222E0,2.919668198E0
2.434905589E0,5.790000558E-1,1.096050024E0,2.430000067E0,2.727905248E0
2.436867541E0,4.639500082E-1,1.018950105E0,2.085000038E0,2.366587012E0
2.438830023E0,3.109500110E-1,1.018950105E0,1.816050053E0,2.105465986E0
2.440792364E0,2.719500065E-1,9.430500269E-1,1.585950017E0,1.865083809E0
2.442755207E0,1.960500032E-1,9.040500522E-1,1.395000100E0,1.673848076E0
2.444717903E0,1.189500093E-1,8.659500480E-1,1.240950108E0,1.517885292E0
2.446680505E0,1.189500093E-1,7.890000343E-1,1.011000037E0,1.287940695E0
2.448643135E0,1.189500093E-1,7.890000343E-1,8.200500607E-1,1.144181918E0
2.450606513E0,8.100000024E-2,7.510500550E-1,3.979500234E-1,8.538157918E-1
2.452569672E0,8.100000024E-2,7.129500508E-1,9.195000678E-2,7.234041600E-1
2.454532015E0,8.100000024E-2,7.510500550E-1,-2.205000073E-2,7.557270590E-1
2.456494597E0,1.960500032E-1,7.129500508E-1,-1.369500011E-1,7.519898148E-1
2.458457173E0,1.189500093E-1,6.739500165E-1,-2.910000086E-1,7.436657411E-1
2.460419751E0,1.960500032E-1,7.129500508E-1,-4.819500148E-1,8.826149758E-1
2.462381906E0,8.100000024E-2,6.739500165E-1,-5.970000029E-1,9.039793295E-1
2.464344164E0,1.570500135E-1,5.980500579E-1,-6.739500165E-1,9.146240775E-1
2.466306795E0,1.570500135E-1,6.360000372E-1,-7.890000343E-1,1.025515387E0
2.468269316E0,1.570500135E-1,5.980500579E-1,-7.510500550E-1,9.728333689E-1
2.470231813E0,1.570500135E-1,5.980500579E-1,-8.269500136E-1,1.032557458E0
2.472194318E0,1.189500093E-1,5.980500579E-1,-7.510500550E-1,9.674136456E-1
2.474156732E0,1.189500093E-1,5.590500236E-1,-7.890000343E-1,9.742725942E-1
2.476119169E0,4.200000316E-2,5.209500194E-1,-7.890000343E-1,9.464005374E-1
2.478081500E0,4.200000316E-2,4.830000103E-1,-6.360000372E-1,7.997181113E-1
2.480043862E0,4.200000316E-2,4.440000355E-1,-6.360000372E-1,7.767857357E-1
2.482006655E0,8.100000024E-2,4.830000103E-1,-5.209500194E-1,7.150097430E-1
2.483969321E0,4.200000316E-2,4.060500264E-1,-4.819500148E-1,6.315983225E-1
2.485931733E0,4.200000316E-2,3.679500222E-1,-4.440000355E-1,5.781757956E-1
2.487894231E0,4.200000316E-2,3.289500177E-1,-3.289500177E-1,4.670976649E-1
2.489856911E0,4.050000105E-3,3.289500177E-1,-2.520000041E-1,4.144013980E-1
2.491819537E0,4.050000105E-3,2.910000086E-1,-1.759500057E-1,3.400820665E-1
2.493782107E0,-3.299999982E-2,2.530499995E-1,-6.105000153E-2,2.623936068E-1
2.495744693E0,-7.200000435E-2,1.759500057E-1,1.500000060E-2,1.907023994E-1
2.497707697E0,-1.099500060E-1,9.900000691E-2,1.500000060E-2,1.487111469E-1
2.499670561E0,-1.870500147E-1,2.295000106E-2,1.300500035E-1,2.289703343E-1
2.501633720E0,-2.250000089E-1,-1.500000060E-2,2.070000172E-1,3.061029421E-1
2.503596792E0,-2.629500031E-1,-5.295000225E-2,2.449500114E-1,3.632449793E-1
2.505558744E0,-3.019500077E-1,-1.290000081E-1,3.979500234E-1,5.159254116E-1
2.507521025E0,-3.780000210E-1,-1.290000081E-1,4.750500321E-1,6.206428530E-1
2.509483902E0,-4.170000255E-1,-1.680000126E-1,7.050000429E-1,8.361447758E-1
2.511446586E0,-4.930500090E-1,-1.680000126E-1,7.810500264E-1,9.388085318E-1
2.513409236E0,-4.930500090E-1,-2.059500068E-1,9.349500537E-1,1.076868293E0
2.515371896E0,-4.549500346E-1,-2.440500110E-1,1.050000072E0,1.170059867E0
2.517334863E0,-4.549500346E-1,-3.210000098E-1,1.165050030E0,1.291263766E0
2.519297740E0,-4.930500090E-1,-3.979500234E-1,1.279950023E0,1.428192772E0
2.521260477E0,-4.549500346E-1,-4.360500276E-1,1.432950020E0,1.565396090E0
2.523223265E0,-4.170000255E-1,-4.740000367E-1,1.471050024E0,1.600797685E0
2.525185806E0,-4.549500346E-1,-4.740000367E-1,1.471050024E0,1.611100165E0
2.527148419E0,-4.930500090E-1,-4.740000367E-1,1.510050058E0,1.657716962E0
2.529110720E0,-5.320500135E-1,-5.130000114E-1,1.585950017E0,1.749709600E0
2.531073112E0,-5.320500135E-1,-4.740000367E-1,1.624950051E0,1.774321256E0
2.533035743E0,-5.320500135E-1,-4.740000367E-1,1.740000129E0,1.880253626E0
2.534998287E0,-5.700000525E-1,-5.130000114E-1,1.816050053E0,1.971321096E0
2.536961095E0,-6.850500107E-1,-5.130000114E-1,1.930950046E0,2.112115197E0
2.538923826E0,-6.850500107E-1,-5.509500504E-1,1.969950080E0,2.157207174E0
2.540886287E0,-6.850500107E-1,-4.740000367E-1,2.046000004E0,2.209091571E0
2.542848828E0,-7.230000496E-1,-5.130000114E-1,2.008050203E0,2.195031595E0
2.544811290E0,-7.230000496E-1,-4.740000367E-1,1.969950080E0,2.151303889E0
2.546773765E0,-7.620000243E-1,-4.740000367E-1,2.008050203E0,2.199451225E0
2.548736044E0,-7.999500632E-1,-4.360500276E-1,2.008050203E0,2.205068105E0
2.550698380E0,-8.380500674E-1,-4.360500276E-1,1.969950080E0,2.184758765E0
2.552660997E0,-8.380500674E-1,-3.589500189E-1,1.893000126E0,2.101100309E0
2.554623532E0,-8.380500674E-1,-3.979500234E-1,1.855050087E0,2.074102929E0
2.556585833E0,-8.380500674E-1,-3.210000098E-1,1.740000129E0,1.957797071E0
2.558548213E0,-8.380500674E-1,-2.830500007E-1,1.624950051E0,1.850110237E0
2.560510463E0,-7.999500632E-1,-2.830500007E-1,1.510050058E0,1.732134113E0
2.562472751E0,-7.620000243E-1,-2.440500110E-1,1.510050058E0,1.708934061E0
2.564435106E0,-8.380500674E-1,-2.440500110E-1,1.471050024E0,1.710519365E0
2.566397441E0,-7.999500632E-1,-2.440500110E-1,1.432950020E0,1.659164329E0
2.568359875E0,-7.620000243E-1,-1.680000126E-1,1.395000100E0,1.598403366E0
2.570322283E0,-7.999500632E-1,-1.680000126E-1,1.318050027E0,1.550935196E0
2.572284439E0,-7.230000496E-1,-1.680000126E-1,1.279950023E0,1.479603033E0
2.574246669E0,-6.469500065E-1,-1.290000081E-1,1.240950108E0,1.405397624E0
2.576209530E0,-6.079500318E-1,-1.290000081E-1,1.240950108E0,1.387876584E0
2.578172206E0,-4.549500346E-1,-1.680000126E-1,1.318050027E0,1.404442741E0
2.580134592E0,-3.780000210E-1,-1.290000081E-1,1.240950108E0,1.303641894E0
2.582097059E0,-3.400500119E-1,-1.290000081E-1,1.240950108E0,1.293148167E0
2.584059699E0,-2.629500031E-1,-1.680000126E-1,1.126049995E0,1.168484189E0
2.586022288E0,-2.250000089E-1,-1.290000081E-1,1.087950110E0,1.118437056E0
2.587984729E0,-1.870500147E-1,-1.290000081E-1,9.730500579E-1,9.992272641E-1
2.589947213E0,-2.250000089E-1,-1.290000081E-1,8.959500194E-1,9.327338545E-1
2.591909854E0,-2.250000089E-1,-1.290000081E-1,8.200500607E-1,8.600861051E-1
2.593872446E0,-2.629500031E-1,-1.680000126E-1,8.200500607E-1,8.774102863E-1
2.595834706E0,-2.629500031E-1,-1.290000081E-1,1.011000037E0,1.052570559E0
2.597797064E0,-1.870500147E-1,-1.680000126E-1,8.200500607E-1,8.577259553E-1
2.599760443E0,4.050000105E-3,-1.680000126E-1,-1.369500011E-1,2.167849385E-1
2.601723523E0,3.490500152E-1,-2.059500068E-1,-2.014950037E0,2.055304106E0
2.603686634E0,1.114950061E0,-3.979500234E-1,-4.392000198E0,4.548751873E0
2.605649712E0,1.690050125E0,-6.280500293E-1,-5.695050240E0,5.973634865E0
2.607611933E0,2.188950062E0,-8.580000401E-1,-5.848050117E0,6.302964114E0
2.609574405E0,2.227050066E0,-9.730500579E-1,-5.388000488E0,5.910763713E0
2.611536998E0,1.996950150E0,-1.087950110E0,-5.005050182E0,5.497451470E0
2.613499556E0,1.767000079E0,-1.203000069E0,-4.582950115E0,5.056968480E0
2.615462177E0,1.537050128E0,-1.356000066E0,-4.315050125E0,4.777124329E0
2.617424783E0,1.459950089E0,-1.548000097E0,-4.084949970E0,4.605928226E0
2.619387266E0,1.422000051E0,-1.816050053E0,-4.123950005E0,4.725154556E0
2.621349785E0,1.422000051E0,-2.122950077E0,-4.392000198E0,5.081207230E0
2.623312551E0,1.384050012E0,-2.391000032E0,-4.468050003E0,5.253184408E0
2.625275245E0,1.306950092E0,-2.620950222E0,-4.353000164E0,5.246533049E0
2.627237487E0,1.306950092E0,-2.773950100E0,-3.817050219E0,4.896201596E0
2.629199862E0,1.192050099E0,-2.736000061E0,-2.896950245E0,4.159206715E0
2.631162337E0,1.039050102E0,-2.581950188E0,-1.747050047E0,3.286072999E0
2.633124783E0,8.850000501E-1,-2.351999998E0,-3.670500219E-1,2.539656433E0
2.635086392E0,7.699500322E-1,-2.199000120E0,8.580000401E-1,2.482858967E0
2.637048247E0,7.320000529E-1,-2.083950043E0,1.663050056E0,2.764852138E0
2.639010791E0,6.550500393E-1,-2.008050203E0,2.238000154E0,3.077336651E0
2.640973148E0,6.550500393E-1,-2.083950043E0,2.506050110E0,3.324488756E0
2.642935448E0,6.550500393E-1,-2.161050081E0,2.506050110E0,3.373353696E0
2.644897765E0,6.169500351E-1,-2.314050198E0,2.659050226E0,3.578547718E0
2.646859350E0,5.020500422E-1,-2.391000032E0,2.659050226E0,3.611022501E0
2.648821150E0,3.870000243E-1,-2.620950222E0,2.812950134E0,3.864173591E0
2.650783524E0,3.490500152E-1,-2.889000177E0,3.349050045E0,4.436698563E0
2.652745744E0,2.340000123E-1,-3.118950129E0,3.771000147E0,4.899290563E0
2.654708202E0,1.189500093E-1,-3.616950274E0,4.269000053E0,5.596502465E0
2.656670590E0,1.960500032E-1,-4.345950127E0,4.653000355E0,6.369939592E0
2.658632930E0,-9.150000215E-1,-8.332050323E0,3.157950163E0,8.957284012E0
2.660595285E0,-5.706000328E0,-1.948500061E1,2.467950106E0,2.045273738E1
2.662557565E0,-1.275795078E1,-3.155805206E1,3.541050196E0,3.422301849E1
2.664519881E0,-1.973400116E1,-3.956895065E1,4.461000443E0,4.444134542E1
2.666482188E0,-2.360505104E1,-4.838400269E1,3.924000263E0,5.397784665E1
2.668444497E0,-2.425605202E1,-5.647095108E1,6.301050186E0,6.178209780E1
2.670406759E0,-2.245500183E1,-6.237405396E1,9.787950516E0,6.701159369E1
2.672369035E0,-2.088405037E1,-6.597600555E1,1.070805073E1,7.002598960E1
2.674331734E0,-1.866105080E1,-6.904305267E1,1.109205055E1,7.237548981E1
2.676294322E0,-1.586295033E1,-7.145700073E1,1.185795021E1,7.415084039E1
2.678256537E0,-1.168500042E1,-7.364205170E1,1.212600040E1,7.554290767E1
2.680218862E0,-5.821050167E0,-7.670805359E1,1.109205055E1,7.772415130E1
2.682182653E0,1.575000048E0,-7.850895691E1,5.686950207E0,7.873041561E1
2.684146014E0,1.238400078E1,-7.850895691E1,-8.569950104E0,7.994037675E1
2.686108433E0,2.307705116E1,-7.850895691E1,-2.505000114E1,8.557867236E1
2.688071145E0,3.212205124E1,-7.850895691E1,-3.559005356E1,9.198986033E1
2.690033609E0,3.760305023E1,-7.850895691E1,-3.459405136E1,9.367173582E1
2.691996145E0,4.063095093E1,-7.850895691E1,-2.830800056E1,9.282172905E1
2.693958413E0,4.270095062E1,-7.850895691E1,-1.884105110E1,9.133461943E1
2.695920760E0,4.304595184E1,-7.850895691E1,-6.997950554E0,8.980858309E1
2.697882665E0,3.806295013E1,-7.732095337E1,9.349500537E-1,8.618696035E1
2.699844693E0,2.855805206E1,-6.589995575E1,2.965950251E0,7.188298384E1
2.701807453E0,1.928295135E1,-5.474595261E1,1.203000069E0,5.805513542E1
2.703769999E0,1.000695038E1,-4.581600189E1,7.050000429E-1,4.690140840E1
2.705732762E0,2.725050211E0,-3.895500183E1,-7.120500207E-1,3.905669061E1
2.707695461E0,-3.022950172E0,-3.378105164E1,-2.053950071E0,3.397817518E1
2.709657716E0,-7.201050282E0,-2.960295105E1,-1.747050047E0,3.051625829E1
2.711620092E0,-1.007505035E1,-2.619195175E1,-1.018950105E0,2.808136812E1
2.713582433E0,-1.172295094E1,-2.343300056E1,-9.420000315E-1,2.621870436E1
2.715544784E0,-1.233705044E1,-2.132505035E1,-1.594050050E0,2.468808582E1
2.717507444E0,-1.206795025E1,-2.002200127E1,-1.441050053E0,2.342205335E1
2.719470013E0,-1.130205059E1,-1.921695137E1,-8.269500136E-1,2.230944674E1
2.721431732E0,-1.072695065E1,-1.856505013E1,-9.900000691E-2,2.144151015E1
2.723393703E0,-1.011405087E1,-1.841205025E1,8.959500194E-1,2.102618238E1
2.725356428E0,-9.385050774E0,-1.841205025E1,2.046000004E0,2.076701443E1
2.727318932E0,-8.772000313E0,-1.848795128E1,3.310950041E0,2.072956155E1
2.729281342E0,-7.813950539E0,-1.860300064E1,4.653000355E0,2.070700046E1
2.731243780E0,-7.047000408E0,-1.848795128E1,5.686950207E0,2.058654803E1
2.733206285E0,-6.472050190E0,-1.833495140E1,6.376950264E0,2.046273127E1
2.735168773E0,-5.782950401E0,-1.837305069E1,6.760950089E0,2.041376871E1
2.737131365E0,-5.092950344E0,-1.841205025E1,6.913950443E0,2.031611302E1
2.739093927E0,-4.555950165E0,-1.852695084E1,7.182000160E0,2.038591954E1
2.741056238E0,-4.134000301E0,-1.864200020E1,7.144050121E0,2.038753497E1
2.743018622E0,-3.904950142E0,-1.856505013E1,7.066950321E0,2.024478967E1
2.744980935E0,-3.712950230E0,-1.856505013E1,7.029000282E0,2.019539379E1
2.746943256E0,-3.445050240E0,-1.845000076E1,6.952050209E0,2.001504188E1
2.748905876E0,-3.406050205E0,-1.829700089E1,6.952050209E0,1.986737077E1
2.750868408E0,-3.483000278E0,-1.814295006E1,6.721950531E0,1.965915936E1
2.752831218E0,-3.483000278E0,-1.791300011E1,6.301050186E0,1.930570116E1
2.754793946E0,-3.406050205E0,-1.779900169E1,5.878950119E0,1.905171105E1
2.756756728E0,-3.330000162E0,-1.753005028E1,5.496000290E0,1.867076814E1
2.758719490E0,-3.100050211E0,-1.729995155E1,5.151000023E0,1.831478737E1
2.760682260E0,-2.869950056E0,-1.714695168E1,4.959000111E0,1.807888955E1
2.762645028E0,-2.830950022E0,-1.684005165E1,4.498950005E0,1.765905345E1
2.764607618E0,-2.755050182E0,-1.668704987E1,4.231050014E0,1.743415381E1
2.766570261E0,-2.563050032E0,-1.653404999E1,4.269000053E0,1.726755327E1
2.768533110E0,-2.410050154E0,-1.634205055E1,4.345950127E0,1.708093207E1
2.770495888E0,-2.256000042E0,-1.611194992E1,4.384050369E0,1.684946183E1
2.772459016E0,-2.218050003E0,-1.588200092E1,4.423050404E0,1.663493535E1
2.774422042E0,-2.065050125E0,-1.561395073E1,4.423050404E0,1.635919510E1
2.776384723E0,-1.834950089E0,-1.538400078E1,4.461000443E0,1.612250126E1
2.778347506E0,-1.452000022E0,-1.507695103E1,4.498950005E0,1.580073756E1
2.780309981E0,-1.030050039E0,-1.473195076E1,4.576050282E0,1.546064722E1
2.782272530E0,-6.469500065E-1,-1.438695049E1,4.690950394E0,1.514621749E1
2.784235111E0,-2.629500031E-1,-1.396605110E1,4.614000320E0,1.471083699E1
2.786197682E0,8.100000024E-2,-1.358205032E1,4.576050282E0,1.433244181E1
2.788161026E0,5.020500422E-1,-1.323795033E1,4.498950005E0,1.399056590E1
2.790124143E0,8.850000501E-1,-1.281600094E1,4.269000053E0,1.353726215E1
2.792086474E0,1.192050099E0,-1.239405060E1,4.000950336E0,1.307826736E1
2.794049049E0,1.459950089E0,-1.197300053E1,3.694050074E0,1.261468199E1
2.796011670E0,1.843950033E0,-1.158900070E1,3.388050079E0,1.221408909E1
2.797974278E0,2.188950062E0,-1.116795063E1,3.043050051E0,1.178027068E1
2.799936715E0,2.494950056E0,-1.074600029E1,2.698050022E0,1.135697019E1
2.801899203E0,2.878050089E0,-1.032495022E1,2.391000032E0,1.098201486E1
2.803861660E0,3.262050152E0,-9.865050316E0,1.969950080E0,1.057548544E1
2.805824126E0,3.645000219E0,-9.442950249E0,1.548000097E0,1.023970899E1
2.807786766E0,4.027950287E0,-9.021000862E0,1.240950108E0,9.957047617E0
2.809749355E0,4.411950111E0,-8.562000275E0,6.280500293E-1,9.652336470E0
2.811712200E0,4.717950344E0,-7.948050499E0,-1.369500011E-1,9.243880002E0
2.813674970E0,4.987050056E0,-7.411950588E0,-1.096050024E0,9.000500288E0
2.815637560E0,5.062950134E0,-6.760050297E0,-2.092050076E0,8.701058418E0
2.817600203E0,5.215950012E0,-6.147000313E0,-3.433950186E0,8.762634379E0
2.819562633E0,5.215950012E0,-5.572050095E0,-4.660050392E0,8.942591707E0
2.821525126E0,5.215950012E0,-4.882050037E0,-5.617950439E0,9.088559525E0
2.823487897E0,5.062950134E0,-4.384050369E0,-6.307950497E0,9.200195714E0
2.825450586E0,5.101050377E0,-3.886050224E0,-6.652950287E0,9.240338133E0
2.827413069E0,4.987050056E0,-3.349050045E0,-6.805950165E0,9.077872114E0
2.829375602E0,4.872000217E0,-2.889000177E0,-6.691050529E0,8.766576603E0
2.831338231E0,4.795050144E0,-2.467050076E0,-6.460950375E0,8.415623667E0
2.833300831E0,4.603050232E0,-2.008050203E0,-6.193050385E0,7.973343723E0
2.835263584E0,4.488000393E0,-1.624050021E0,-5.656950474E0,7.401403560E0
2.837226292E0,4.411950111E0,-1.318050027E0,-5.235000134E0,6.971928432E0
2.839188563E0,4.182000160E0,-8.959500194E-1,-4.774950027E0,6.410304169E0
2.841150972E0,4.027950287E0,-5.509500504E-1,-4.237950325E0,5.872661443E0
2.843113577E0,3.837000132E0,-3.210000098E-1,-3.664050102E0,5.315155141E0
2.845076124E0,3.645000219E0,-1.290000081E-1,-3.165000200E0,4.829067598E0
2.847037851E0,3.453000069E0,-1.500000060E-2,-2.629050016E0,4.339969869E0
2.848999819E0,3.300000191E0,1.759500057E-1,-2.206950188E0,3.973863208E0
2.850962378E0,3.108000040E0,2.530499995E-1,-1.632000089E0,3.519534464E0
2.852924754E0,2.917050123E0,3.679500222E-1,-1.249050021E0,3.194478767E0
2.854887230E0,2.725050211E0,3.289500177E-1,-8.269500136E-1,2.866697244E0
2.856849677E0,2.686950207E0,3.679500222E-1,-5.590500236E-1,2.769047772E0
2.858812141E0,2.610000134E0,3.289500177E-1,-3.289500177E-1,2.651135026E0
2.860774600E0,2.457000017E0,2.910000086E-1,-1.759500057E-1,2.480421032E0
2.862736869E0,2.341950178E0,2.530499995E-1,-9.900000691E-2,2.357661117E0
2.864699203E0,2.188950062E0,2.530499995E-1,1.500000060E-2,2.203579287E0
2.866661866E0,1.959000111E0,3.289500177E-1,5.295000225E-2,1.987131916E0
2.868624432E0,1.767000079E0,3.679500222E-1,1.500000060E-2,1.804965789E0
2.870586922E0,1.614000082E0,5.209500194E-1,-9.900000691E-2,1.698877921E0
2.872549434E0,1.422000051E0,5.980500579E-1,-1.759500057E-1,1.552644976E0
2.874512051E0,1.345050097E0,7.129500508E-1,-4.819500148E-1,1.596788450E0
2.876474648E0,1.269000053E0,9.040500522E-1,-8.269500136E-1,1.763948400E0
2.878437087E0,1.269000053E0,1.057950020E0,-1.210950017E0,2.048418737E0
2.880399573E0,1.114950061E0,1.173000097E0,-1.708950043E0,2.353625526E0
2.882362030E0,1.114950061E0,1.326000094E0,-2.359950066E0,2.927585046E0
2.884324496E0,1.114950061E0,1.518000126E0,-3.012000084E0,3.552405175E0
2.886287072E0,1.192050099E0,1.671000123E0,-3.702000141E0,4.232969395E0
2.888249629E0,1.345050097E0,1.786050081E0,-4.392000198E0,4.928366910E0
2.890212434E0,1.537050128E0,1.900950074E0,-5.158050060E0,5.708030720E0
2.892175167E0,1.843950033E0,1.978050113E0,-5.809950352E0,6.408459804E0
2.894137809E0,2.341950178E0,1.978050113E0,-6.499950409E0,7.186568597E0
2.896100477E0,2.764050245E0,1.978050113E0,-6.844950199E0,7.642381778E0
2.898063213E0,3.147000074E0,1.824000120E0,-7.036050320E0,7.920643282E0
2.900025932E0,3.607050180E0,1.708950043E0,-6.844950199E0,7.923677459E0
2.901988396E0,3.990000248E0,1.555950046E0,-6.385050297E0,7.688299540E0
2.903950934E0,4.335000038E0,1.402950048E0,-5.733000278E0,7.323099505E0
2.905913696E0,4.450050354E0,1.326000094E0,-4.736999989E0,6.633279226E0
2.907876393E0,4.717950344E0,1.096050024E0,-3.739950180E0,6.119445110E0
2.909839017E0,4.833000183E0,9.810000658E-1,-2.514000177E0,5.535381540E0
2.911801679E0,5.025000095E0,7.890000343E-1,-1.363950014E0,5.266261165E0
2.913763520E0,5.215950012E0,5.980500579E-1,-2.140500098E-1,5.254485304E0
2.915725602E0,5.293050289E0,4.440000355E-1,9.730500579E-1,5.400031834E0
2.917688173E0,5.254950047E0,2.140500098E-1,1.624950051E0,5.504614434E0
2.919650600E0,4.909950256E0,1.380000114E-1,1.969950080E0,5.292197922E0
2.921613948E0,4.488000393E0,6.105000153E-2,2.430000067E0,5.103995979E0
2.923577009E0,4.027950287E0,-5.295000225E-2,2.659050226E0,4.826772765E0
2.925539729E0,3.607050180E0,-1.680000126E-1,2.773950100E0,4.553442013E0
2.927502549E0,3.337950230E0,-2.830500007E-1,2.928000212E0,4.449181304E0
2.929464994E0,3.070050240E0,-4.360500276E-1,3.196050167E0,4.453098334E0
2.931427549E0,2.725050211E0,-6.660000086E-1,3.349050045E0,4.368705857E0
2.933390304E0,2.494950056E0,-7.429500222E-1,3.463950157E0,4.333093723E0
2.935353004E0,2.227050066E0,-7.810500264E-1,3.463950157E0,4.191508300E0
2.937315426E0,2.111999989E0,-7.810500264E-1,3.502950191E0,4.164281828E0
2.939277929E0,1.690050125E0,-8.190000653E-1,3.463950157E0,3.940302174E0
2.941240563E0,1.306950092E0,-8.959500194E-1,3.502950191E0,3.844672291E0
2.943203158E0,1.114950061E0,-8.959500194E-1,3.463950157E0,3.747638025E0
2.945164937E0,7.699500322E-1,-8.959500194E-1,3.310950041E0,3.515386133E0
2.947126944E0,3.109500110E-1,-7.810500264E-1,3.081000090E0,3.193632823E0
2.949090023E0,4.200000316E-2,-7.429500222E-1,3.004050255E0,3.094843561E0
2.951052788E0,-1.480500102E-1,-5.890500546E-1,3.004050255E0,3.064835510E0
2.953015514E0,-1.099500060E-1,-6.280500293E-1,3.004050255E0,3.070969517E0
2.954978251E0,-2.629500031E-1,-5.890500546E-1,2.965950251E0,3.035289700E0
2.956941025E0,-2.250000089E-1,-5.509500504E-1,2.965950251E0,3.025067247E0
2.958903788E0,-2.250000089E-1,-5.890500546E-1,2.928000212E0,2.995127745E0
2.960866603E0,-1.870500147E-1,-5.890500546E-1,2.928000212E0,2.992516151E0
2.962829403E0,-2.250000089E-1,-6.280500293E-1,2.851050138E0,2.928063991E0
2.964792168E0,-2.629500031E-1,-6.280500293E-1,2.736000061E0,2.819447797E0
2.966754944E0,-2.629500031E-1,-5.890500546E-1,2.773950100E0,2.847968017E0
2.968717458E0,-2.629500031E-1,-5.509500504E-1,2.659050226E0,2.728229603E0
2.970680069E0,-1.480500102E-1,-5.890500546E-1,2.583000183E0,2.653448458E0
2.972642684E0,-3.299999982E-2,-6.280500293E-1,2.506050110E0,2.583761404E0
2.974605297E0,-3.299999982E-2,-6.660000086E-1,2.545050144E0,2.630955197E0
2.976567913E0,4.050000105E-3,-6.660000086E-1,2.467950106E0,2.556237496E0
2.978530528E0,4.200000316E-2,-7.429500222E-1,2.430000067E0,2.541385264E0
2.980493198E0,4.200000316E-2,-7.429500222E-1,2.467950106E0,2.577695960E0
2.982455845E0,1.189500093E-1,-7.039500475E-1,2.506050110E0,2.605759376E0
2.984418411E0,1.570500135E-1,-7.810500264E-1,2.620950222E0,2.739358304E0
2.986381001E0,1.960500032E-1,-8.190000653E-1,2.736000061E0,2.862672361E0
2.988343305E0,1.960500032E-1,-7.810500264E-1,2.812950134E0,2.925946549E0
2.990305693E0,2.719500065E-1,-8.190000653E-1,2.889000177E0,3.015135144E0
2.992268297E0,3.109500110E-1,-8.959500194E-1,3.118950129E0,3.259948811E0
2.994230841E0,2.719500065E-1,-8.959500194E-1,3.196050167E0,3.330378344E0
2.996193289E0,2.719500065E-1,-8.580000401E-1,3.273000240E0,3.394503122E0
2.998155766E0,4.639500082E-1,-8.959500194E-1,3.463950157E0,3.607897828E0
3.000119305E0,5.790000558E-1,-8.959500194E-1,3.733050108E0,3.882477381E0
3.002082533E0,7.699500322E-1,-1.011000037E0,3.847950220E0,4.052365362E0
3.004045245E0,8.089500666E-1,-1.048950076E0,4.039050102E0,4.250720198E0
3.006008094E0,1.000050068E0,-1.087950110E0,4.116000175E0,4.373235990E0
3.007970714E0,1.114950061E0,-1.164000034E0,4.153950214E0,4.455705567E0
3.009933401E0,1.039050102E0,-1.126049995E0,4.231050014E0,4.499933103E0
3.011896138E0,9.240000248E-1,-1.164000034E0,4.192950249E0,4.448539526E0
3.013858861E0,8.089500666E-1,-1.164000034E0,4.039050102E0,4.280563283E0
3.015821489E0,7.699500322E-1,-1.203000069E0,3.924000263E0,4.175860424E0
3.017784156E0,6.169500351E-1,-1.279050112E0,3.886050224E0,4.137388413E0
3.019746041E0,6.169500351E-1,-1.279050112E0,3.655950069E0,3.922061632E0
3.021708156E0,5.410500169E-1,-1.318050027E0,3.426000118E0,3.710453854E0
3.023670811E0,3.870000243E-1,-1.203000069E0,3.157950163E0,3.401415502E0
3.025633308E0,2.719500065E-1,-1.126049995E0,2.773950100E0,3.006117855E0
3.027596007E0,2.340000123E-1,-1.087950110E0,2.314950228E0,2.568537717E0
3.029558634E0,3.490500152E-1,-1.087950110E0,1.777950048E0,2.113427957E0
3.031522149E0,4.639500082E-1,-1.087950110E0,1.279950023E0,1.742744133E0
3.033485403E0,5.790000558E-1,-1.087950110E0,5.899500251E-1,1.366351909E0
3.035448765E0,8.089500666E-1,-1.087950110E0,-6.739500165E-1,1.514015944E0
3.037412096E0,1.345050097E0,-1.011000037E0,-2.820000172E0,3.283851672E0
3.039374431E0,2.188950062E0,-1.164000034E0,-6.154950142E0,6.635496191E0
3.041337074E0,3.184950113E0,-1.240950108E0,-1.029405022E1,1.084671998E1
3.043299640E0,4.027950287E0,-1.356000066E0,-1.439505100E1,1.500935085E1
3.045262228E0,4.335000038E0,-1.393950105E0,-1.458705044E1,1.528127490E1
3.047224668E0,4.335000038E0,-1.356000066E0,-1.282395077E1,1.360458286E1
3.049187151E0,4.027950287E0,-1.240950108E0,-1.148205090E1,1.223118283E1
3.051149682E0,3.645000219E0,-1.048950076E0,-1.025595093E1,1.093484578E1
3.053112178E0,3.147000074E0,-7.810500264E-1,-8.914050102E0,9.485459284E0
3.055074814E0,2.533950090E0,-3.589500189E-1,-7.381050587E0,7.812147972E0
3.057037409E0,1.882050037E0,-1.290000081E-1,-6.117000103E0,6.401284528E0
3.058998947E0,1.306950092E0,2.295000106E-2,-4.927950382E0,5.098366426E0
3.060960795E0,9.619500637E-1,2.530499995E-1,-3.664050102E0,3.796662400E0
3.062922625E0,3.109500110E-1,4.060500264E-1,-2.820000172E0,2.866002007E0
3.064884440E0,1.189500093E-1,3.679500222E-1,-2.053950071E0,2.090035220E0
3.066847011E0,-1.099500060E-1,4.060500264E-1,-1.249050021E0,1.317987702E0
3.068809361E0,-3.780000210E-1,4.830000103E-1,-6.739500165E-1,9.112527918E-1
3.070770986E0,-7.230000496E-1,5.980500579E-1,-1.369500011E-1,9.482342781E-1
3.072732824E0,-8.770500422E-1,6.360000372E-1,3.600000143E-1,1.141627275E0
3.074695351E0,-8.770500422E-1,6.739500165E-1,7.810500264E-1,1.354054853E0
3.076657673E0,-7.999500632E-1,6.739500165E-1,1.126049995E0,1.536918124E0
3.078620024E0,-7.620000243E-1,7.129500508E-1,1.356000066E0,1.711045876E0
3.080582366E0,-7.230000496E-1,7.510500550E-1,1.471050024E0,1.802995682E0
3.082544803E0,-5.700000525E-1,6.739500165E-1,1.510050058E0,1.749102588E0
3.084507212E0,-4.930500090E-1,6.360000372E-1,1.548000097E0,1.744677237E0
3.086469109E0,-4.170000255E-1,5.209500194E-1,1.395000100E0,1.546383918E0
3.088431180E0,-2.629500031E-1,3.679500222E-1,1.050000072E0,1.143254159E0
3.090394608E0,-1.870500147E-1,2.530499995E-1,4.360500276E-1,5.377375167E-1
3.092357639E0,-1.480500102E-1,1.759500057E-1,1.500000060E-2,2.304391677E-1
3.094320049E0,-1.099500060E-1,1.759500057E-1,-4.440000355E-1,4.900851353E-1
3.096282641E0,-2.250000089E-1,2.140500098E-1,-8.659500480E-1,9.199521163E-1
3.098245081E0,-2.250000089E-1,2.530499995E-1,-1.326000094E0,1.368552358E0
3.100207565E0,-2.250000089E-1,3.679500222E-1,-1.708950043E0,1.762532970E0
3.102170023E0,-1.480500102E-1,5.590500236E-1,-1.977000117E0,2.059850771E0
3.104132488E0,-1.480500102E-1,7.510500550E-1,-2.092050076E0,2.227704763E0
3.106095083E0,-1.870500147E-1,1.018950105E0,-2.092050076E0,2.334506488E0
3.108057639E0,-2.250000089E-1,1.173000097E0,-1.861950040E0,2.212105825E0
3.110019868E0,-1.099500060E-1,1.210950017E0,-1.516950130E0,1.944126191E0
3.111982219E0,-1.099500060E-1,1.326000094E0,-1.441050053E0,1.961374648E0
3.113944519E0,-7.200000435E-2,1.210950017E0,-1.326000094E0,1.797181180E0
3.115906834E0,-7.200000435E-2,1.057950020E0,-1.441050053E0,1.789152732E0
3.117869320E0,8.100000024E-2,7.890000343E-1,-1.824000120E0,1.988984287E0
3.119831755E0,1.960500032E-1,4.060500264E-1,-2.284050226E0,2.328131797E0
3.121794942E0,3.109500110E-1,2.295000106E-2,-2.782050133E0,2.799467727E0
3.123757909E0,3.870000243E-1,-2.440500110E-1,-3.204000235E0,3.236502268E0
3.125720150E0,5.020500422E-1,-6.280500293E-1,-3.241950035E0,3.340170821E0
3.127682603E0,5.410500169E-1,-1.164000034E0,-3.012000084E0,3.274106856E0
3.129645021E0,5.410500169E-1,-1.624050021E0,-2.704950094E0,3.201098031E0
3.131607450E0,4.639500082E-1,-2.083950043E0,-2.398950100E0,3.211395175E0
3.133570256E0,4.260000288E-1,-2.467050076E0,-2.284050226E0,3.388908015E0
3.135532966E0,3.490500152E-1,-2.851050138E0,-2.359950066E0,3.717483977E0
3.137495251E0,2.340000123E-1,-3.310950041E0,-2.590050220E0,4.210167018E0
3.139457660E0,8.100000024E-2,-3.924000263E0,-3.127050161E0,5.018244890E0
3.141420085E0,-2.250000089E-1,-4.804950237E0,-4.084949970E0,6.310704243E0
3.143382505E0,-7.999500632E-1,-5.955000401E0,-4.545000076E0,7.533855292E0
3.145345140E0,-1.605000019E0,-7.297050476E0,-4.123950005E0,8.534045603E0
3.147307721E0,-2.563050032E0,-8.715000153E0,-2.859000206E0,9.523357355E0
3.149269668E0,-3.675000191E0,-1.028595066E1,-1.287000060E0,1.099830789E1
3.151231800E0,-4.900950432E0,-1.181895065E1,1.300500035E-1,1.279546102E1
3.153193417E0,-6.013050079E0,-1.316100025E1,9.349500537E-1,1.449975277E1
3.155155185E0,-7.047000408E0,-1.473195076E1,1.548000097E0,1.640386821E1
3.157117558E0,-8.274000168E0,-1.664895058E1,2.085000038E0,1.870812281E1
3.159079740E0,-9.730050087E0,-1.921695137E1,2.928000212E0,2.173794562E1
3.161041934E0,-1.122495079E1,-2.224500084E1,3.694050074E0,2.518899737E1
3.163004125E0,-1.245195103E1,-2.550195122E1,4.768050194E0,2.877733314E1
3.164966453E0,-1.314105034E1,-2.906700134E1,5.380950451E0,3.235015300E1
3.166928740E0,-1.360095024E1,-3.286095047E1,5.725950241E0,3.602241551E1
3.168891398E0,-1.383105087E1,-3.688605118E1,7.066950321E0,4.002275011E1
3.170853957E0,-1.394595051E1,-4.056495285E1,8.791950226E0,4.378702233E1
3.172816897E0,-1.375500107E1,-4.390005112E1,1.024800014E1,4.713211272E1
3.174779726E0,-1.279695034E1,-4.715700150E1,1.143705082E1,5.018317307E1
3.176741946E0,-1.114800072E1,-5.049195099E1,1.254795074E1,5.320870326E1
3.178704344E0,-9.154950142E0,-5.352000427E1,1.327605057E1,5.589684685E1
3.180666330E0,-6.204000473E0,-5.685405350E1,1.312305069E1,5.867782784E1
3.182628430E0,-2.985000134E0,-5.965200424E1,1.143705082E1,6.081182424E1
3.184591628E0,1.269000053E0,-6.264195251E1,9.673050880E0,6.339710158E1
3.186554505E0,5.830050468E0,-6.478800201E1,6.531000137E0,6.537682048E1
3.188518157E0,1.054395008E1,-6.628305054E1,1.585950017E0,6.713518384E1
3.190481582E0,1.606305122E1,-6.804600525E1,-4.392000198E0,7.005405135E1
3.192444064E0,2.127600098E1,-6.946395111E1,-8.493000031E0,7.314396606E1
3.194406819E0,2.622000122E1,-7.003905487E1,-1.098405075E1,7.558840547E1
3.196369635E0,3.024405098E1,-6.950205231E1,-1.389705086E1,7.706079364E1
3.198332433E0,3.285105133E1,-6.701100159E1,-1.470195103E1,7.606453360E1
3.200295153E0,3.239100266E1,-6.191400146E1,-1.362900066E1,7.119178527E1
3.202257896E0,2.970795059E1,-5.601105118E1,-1.136700058E1,6.441280063E1
3.204220500E0,2.495505142E1,-4.987905121E1,-8.761050224E0,5.645733205E1
3.206183137E0,1.859295082E1,-4.413000107E1,-6.460950375E0,4.832078946E1
3.208145928E0,1.246005058E1,-3.933900070E1,-4.966950417E0,4.156296949E1
3.210108674E0,7.210050106E0,-3.523800278E1,-4.123950005E0,3.620371011E1
3.212071268E0,3.453000069E0,-3.190305138E1,-3.664050102E0,3.229788166E1
3.214033906E0,8.470500112E-1,-2.914305115E1,-3.241950035E0,2.933505009E1
3.215995776E0,-5.700000525E-1,-2.695905113E1,-2.782050133E0,2.710821169E1
3.217957886E0,-1.260000110E0,-2.515695190E1,-2.359950066E0,2.529879827E1
3.219920407E0,-1.413000107E0,-2.370105171E1,-1.900950074E0,2.381911066E1
3.221882807E0,-1.336950064E0,-2.262795067E1,-1.402050018E0,2.271073163E1
3.223845324E0,-1.030050039E0,-2.186100197E1,-9.040500522E-1,2.190392012E1
3.225807807E0,-9.150000215E-1,-2.124795151E1,-4.060500264E-1,2.127151957E1
3.227770596E0,-9.919500351E-1,-2.074995041E1,-6.105000153E-2,2.077373664E1
3.229733284E0,-1.106999993E0,-2.032800102E1,9.195000678E-2,2.035832826E1
3.231695032E0,-1.183050036E0,-2.017500114E1,3.600000143E-1,2.021286419E1
3.233657055E0,-1.260000110E0,-2.002200127E1,8.959500194E-1,2.008160505E1
3.235619906E0,-1.375050068E0,-1.986795044E1,1.395000100E0,1.996427416E1
3.237582515E0,-1.452000022E0,-1.975305176E1,1.740000129E0,1.988262956E1
3.239544937E0,-1.375050068E0,-1.975305176E1,2.122950077E0,1.991433487E1
3.241507425E0,-1.144950032E0,-1.983000183E1,2.506050110E0,2.002049376E1
3.243470241E0,-7.999500632E-1,-1.994505119E1,2.659050226E0,2.013741630E1
3.245432961E0,-5.700000525E-1,-1.998300171E1,2.812950134E0,2.018806444E1
3.247395605E0,-2.250000089E-1,-2.009805107E1,2.812950134E0,2.029519574E1
3.249358271E0,-3.299999982E-2,-2.013600159E1,2.965950251E0,2.035329236E1
3.251321062E0,2.340000123E-1,-2.029005051E1,2.965950251E0,2.050701749E1
3.253283813E0,3.870000243E-1,-2.052000046E1,2.965950251E0,2.073685243E1
3.255247442E0,5.790000558E-1,-2.067300034E1,3.004050255E0,2.089814590E1
3.257210813E0,7.320000529E-1,-2.094105148E1,2.965950251E0,2.116271065E1
3.259173120E0,7.699500322E-1,-2.109495163E1,2.812950134E0,2.129559804E1
3.261135738E0,9.240000248E-1,-2.143995094E1,2.736000061E0,2.163356117E1
