"Time (s)","Acceleration x (m/s^2)","Acceleration y (m/s^2)","Acceleration z (m/s^2)","Absolute acceleration (m/s^2)"
3.290731500E-2,-3.299999982E-2,1.249050021E0,-2.743950129E0,3.015041834E0
3.487098500E-2,3.109500110E-1,1.173000097E0,-2.935050249E0,3.176025677E0
3.683685300E-2,7.699500322E-1,1.096050024E0,-3.049950123E0,3.331117599E0
3.880053200E-2,1.077000022E0,1.018950105E0,-3.012000084E0,3.357131643E0
4.076485300E-2,1.345050097E0,1.057950020E0,-2.896950245E0,3.364630549E0
4.272842300E-2,1.614000082E0,1.057950020E0,-2.782050133E0,3.385861404E0
4.469222300E-2,1.996950150E0,1.018950105E0,-2.704950094E0,3.513235578E0
4.665585200E-2,2.380050182E0,9.040500522E-1,-2.896950245E0,3.856717009E0
4.861953100E-2,2.764050245E0,5.590500236E-1,-3.549000263E0,4.532980648E0
5.058435100E-2,3.031950235E0,6.105000153E-2,-4.660050392E0,5.559902786E0
5.254883600E-2,3.108000040E0,-3.589500189E-1,-6.117000103E0,6.870676795E0
5.451252900E-2,2.955000162E0,-1.087950110E0,-8.224950790E0,8.807126484E0
5.647645400E-2,2.649000168E0,-1.930950046E0,-1.113705063E1,1.160946453E1
5.843997100E-2,2.533950090E0,-2.812050104E0,-1.474005032E1,1.521833145E1
6.040360800E-2,2.610000134E0,-3.847050190E0,-1.761495018E1,1.821807799E1
6.236730800E-2,2.610000134E0,-4.920000076E0,-1.933995056E1,2.012590841E1
6.433099000E-2,2.419050217E0,-6.031950474E0,-2.022105026E1,2.123975292E1
6.629500000E-2,1.959000111E0,-7.182000160E0,-2.006805038E1,2.140433260E1
6.825891300E-2,1.230000019E0,-8.254950523E0,-1.876500130E1,2.053734116E1
7.022171200E-2,4.260000288E-1,-9.442950249E0,-1.642695045E1,1.895245332E1
7.218483800E-2,-6.850500107E-1,-1.063095093E1,-1.316895103E1,1.693834946E1
7.414840100E-2,-1.489950061E0,-1.185795021E1,-9.259050369E0,1.511823231E1
7.611183600E-2,-2.065050125E0,-1.327605057E1,-4.890000343E0,1.429790383E1
7.807472600E-2,-2.410050154E0,-1.511595058E1,-9.420000315E-1,1.533582955E1
8.003777000E-2,-2.869950056E0,-1.729995155E1,2.659050226E0,1.773683977E1
8.200139200E-2,-3.406050205E0,-1.986795044E1,5.188950062E0,2.081494260E1
8.396484500E-2,-3.981000185E0,-2.251305199E1,6.186000347E0,2.368443524E1
8.592889400E-2,-4.518000126E0,-2.531100082E1,5.380950451E0,2.626811214E1
8.789276800E-2,-5.131050110E0,-2.822400093E1,2.545050144E0,2.879929138E1
8.985756600E-2,-5.782950401E0,-3.132795143E1,-5.590500236E-1,3.186213416E1
9.182208600E-2,-6.166050434E0,-3.477795029E1,-4.813050270E0,3.564675942E1
9.378563800E-2,-6.625950336E0,-3.784395218E1,-8.493000031E0,3.934715979E1
9.574947300E-2,-6.433950424E0,-4.090995026E1,-1.136700058E1,4.294448102E1
9.771327600E-2,-6.241950512E0,-4.321005249E1,-1.247895050E1,4.540699052E1
9.967708800E-2,-5.553000450E0,-4.470405197E1,-1.224900055E1,4.668325279E1
1.016407800E-1,-4.210950375E0,-4.554795074E1,-1.144395065E1,4.715200872E1
1.036044930E-1,-2.755050182E0,-4.512600327E1,-9.528000832E0,4.620313054E1
1.055689010E-1,-9.919500351E-1,-4.374600220E1,-7.765050411E0,4.444088974E1
1.075331060E-1,1.077000022E0,-4.186800385E1,-6.460950375E0,4.237727640E1
1.094968920E-1,2.955000162E0,-3.976005173E1,-5.197050095E0,4.020700274E1
1.114608010E-1,4.642050266E0,-3.753705215E1,-4.468050003E0,3.808598674E1
1.134241550E-1,6.328050137E0,-3.554400253E1,-3.931950092E0,3.631639528E1
1.153876610E-1,7.477950573E0,-3.347400284E1,-3.241950035E0,3.445197891E1
1.173510250E-1,7.899000168E0,-3.167295074E1,-2.704950094E0,3.275495028E1
1.193144300E-1,7.630950451E0,-3.006300163E1,-2.092050076E0,3.108684843E1
1.212783050E-1,6.903000355E0,-2.906700134E1,-1.555950046E0,2.991593157E1
1.232420430E-1,6.021000385E0,-2.845395088E1,-1.171950102E0,2.910761470E1
1.252055340E-1,4.756950378E0,-2.830005074E1,-9.420000315E-1,2.871252014E1
1.271691080E-1,3.568050146E0,-2.845395088E1,-7.890000343E-1,2.868764235E1
1.291330000E-1,2.649000168E0,-2.899005127E1,-6.739500165E-1,2.911862777E1
1.310967990E-1,1.690050125E0,-2.956500053E1,-4.819500148E-1,2.961718761E1
1.330601130E-1,1.077000022E0,-3.021705055E1,-1.369500011E-1,3.023654789E1
1.350235700E-1,3.870000243E-1,-3.082995224E1,2.070000172E-1,3.083307596E1
1.369862950E-1,4.050000105E-3,-3.148095131E1,4.360500276E-1,3.148397134E1
1.389492140E-1,-2.629500031E-1,-3.220995331E1,4.360500276E-1,3.221397794E1
1.409137590E-1,-3.400500119E-1,-3.320595169E1,-2.205000073E-2,3.320770013E1
1.428778280E-1,-4.930500090E-1,-3.404895020E1,-7.120500207E-1,3.405996364E1
1.448414560E-1,-7.230000496E-1,-3.477795029E1,-1.861950040E0,3.483526106E1
1.468052140E-1,-7.230000496E-1,-3.539100266E1,-3.510000229E0,3.557198195E1
1.487686840E-1,-9.150000215E-1,-3.546795273E1,-5.043000221E0,3.583636068E1
1.507322280E-1,-1.413000107E0,-3.504600143E1,-6.385050297E0,3.565091378E1
1.526958100E-1,-2.448000193E0,-3.401100159E1,-7.228050232E0,3.485664419E1
1.546593800E-1,-3.751050234E0,-3.263100052E1,-7.687950134E0,3.373362047E1
1.566232730E-1,-5.208000183E0,-3.082995224E1,-7.803000450E0,3.222570460E1
1.585870720E-1,-6.433950424E0,-2.895195198E1,-7.458000183E0,3.058157956E1
1.605508820E-1,-7.354050159E0,-2.722695160E1,-6.768000126E0,2.900335796E1
1.625146880E-1,-8.158950806E0,-2.569395065E1,-5.925000191E0,2.760168846E1
1.644776860E-1,-8.809950829E0,-2.419905090E1,-5.043000221E0,2.624197305E1
1.664409210E-1,-9.270000458E0,-2.285805130E1,-4.123950005E0,2.500860615E1
1.684050510E-1,-9.577050209E0,-2.170800018E1,-3.319050074E0,2.395773896E1
1.703689190E-1,-9.807000160E0,-2.063505173E1,-2.743950129E0,2.301112501E1
1.723327210E-1,-9.883950233E0,-1.956195068E1,-2.245050192E0,2.203185505E1
1.742965400E-1,-9.960000038E0,-1.871805000E1,-1.977000117E0,2.129496481E1
1.762602560E-1,-9.922050476E0,-1.791300011E1,-1.861950040E0,2.056184613E1
1.782240020E-1,-9.769050598E0,-1.749195099E1,-1.939050078E0,2.012865157E1
1.801878640E-1,-9.615000725E0,-1.714695168E1,-2.014950037E0,1.976173612E1
1.821516920E-1,-9.193950653E0,-1.699394989E1,-2.284050226E0,1.945610308E1
1.841154970E-1,-8.809950829E0,-1.703205109E1,-2.514000177E0,1.933975684E1
1.860793090E-1,-8.503950119E0,-1.722405052E1,-3.241950035E0,1.948063972E1
1.880428460E-1,-8.311950684E0,-1.760700035E1,-7.803000450E0,2.097574317E1
1.900064630E-1,-7.086000443E0,-1.822005081E1,-9.528000832E0,2.174774595E1
1.919703020E-1,-5.821050167E0,-1.910205078E1,-4.200000286E0,2.040619934E1
1.939340760E-1,-5.208000183E0,-2.040495110E1,-1.287000060E0,2.109838061E1
1.958975710E-1,-4.900950432E0,-2.366295052E1,-5.809950352E0,2.485377366E1
1.978611510E-1,-4.555950165E0,-2.427600098E1,-7.342950344E0,2.576819406E1
1.998245480E-1,-4.671000004E0,-2.209095192E1,2.070000172E-1,2.258032876E1
2.017879980E-1,-5.476050377E0,-2.239800072E1,-4.736999989E0,2.353925939E1
2.037507850E-1,-4.479000092E0,-2.117100143E1,-2.974050045E0,2.184302445E1
2.057137670E-1,-4.096050262E0,-2.090295029E1,4.690950394E0,2.181091410E1
2.076777550E-1,-4.096050262E0,-2.074995041E1,5.035950184E0,2.174163894E1
2.096414520E-1,-4.173000336E0,-2.143995094E1,3.234000206E0,2.208040275E1
2.116057300E-1,-4.249050140E0,-2.216805077E1,1.680000126E-1,2.257222022E1
2.135698370E-1,-4.326000214E0,-2.258895111E1,-2.475000143E0,2.313224191E1
2.155335940E-1,-4.210950375E0,-2.327895164E1,-3.970050097E0,2.398755908E1
2.174974540E-1,-4.096050262E0,-2.370105171E1,-4.698000431E0,2.450691103E1
2.194611480E-1,-3.406050205E0,-2.370105171E1,-4.429950237E0,2.435088272E1
2.214249010E-1,-2.485950232E0,-2.316405106E1,-3.088950157E0,2.350095366E1
2.233883580E-1,-1.642950058E0,-2.266605186E1,-1.326000094E0,2.276417071E1
2.253519010E-1,-1.068000078E0,-2.209095192E1,5.295000225E-2,2.211681678E1
2.273147630E-1,-7.620000243E-1,-2.163105011E1,6.660000086E-1,2.165471147E1
2.292778240E-1,-4.549500346E-1,-2.113305092E1,5.130000114E-1,2.114417153E1
2.312425040E-1,-1.099500060E-1,-2.082600021E1,5.295000225E-2,2.082635776E1
2.332066920E-1,-1.099500060E-1,-2.009805107E1,1.680000126E-1,2.009905395E1
2.351695790E-1,1.189500093E-1,-1.929300117E1,6.660000086E-1,1.930485948E1
2.371328480E-1,4.260000288E-1,-1.871805000E1,8.580000401E-1,1.874254615E1
2.390970170E-1,5.790000558E-1,-1.806705093E1,1.011000037E0,1.810457654E1
2.410609230E-1,6.940500140E-1,-1.756905174E1,7.810500264E-1,1.760009442E1
2.430244090E-1,8.850000501E-1,-1.695495033E1,4.360500276E-1,1.698363052E1
2.449880110E-1,1.192050099E0,-1.615005112E1,3.220500052E-1,1.619718651E1
2.469526190E-1,1.306950092E0,-1.561395073E1,2.449500114E-1,1.567046829E1
2.489169320E-1,1.269000053E0,-1.507695103E1,2.830500007E-1,1.513290886E1
2.508805190E-1,1.345050097E0,-1.438695049E1,1.300500035E-1,1.445027395E1
2.528443180E-1,1.537050128E0,-1.438695049E1,-6.739500165E-1,1.448451160E1
2.548081490E-1,1.306950092E0,-1.377405071E1,-6.360000372E-1,1.385052662E1
2.567719860E-1,1.384050012E0,-1.273905087E1,-2.520000041E-1,1.281649388E1
2.587354740E-1,1.651950121E0,-1.231800079E1,-4.819500148E-1,1.243761869E1
2.606990650E-1,1.690050125E0,-1.201095104E1,-4.440000355E-1,1.213739471E1
2.626627730E-1,1.729050040E0,-1.162800026E1,-1.326000094E0,1.183039646E1
2.646264470E-1,1.767000079E0,-1.143600082E1,-2.014950037E0,1.174582597E1
2.665897980E-1,1.767000079E0,-1.105305099E1,-2.475000143E0,1.146376253E1
2.685532330E-1,1.843950033E0,-1.055505085E1,-2.935050249E0,1.110962511E1
2.705166090E-1,2.035050154E0,-1.009500027E1,-3.165000200E0,1.077347139E1
2.724800020E-1,2.149950027E0,-9.558000565E0,-3.165000200E0,1.029538179E1
2.744436990E-1,2.265000105E0,-8.868000031E0,-3.088950157E0,9.659879041E0
2.764073070E-1,2.457000017E0,-8.293050766E0,-2.896950245E0,9.121615033E0
2.783710400E-1,2.610000134E0,-7.872000217E0,-2.704950094E0,8.723373380E0
2.803347500E-1,2.839950085E0,-7.527000427E0,-2.514000177E0,8.428597084E0
2.822984410E-1,2.992950201E0,-6.952050209E0,-2.206950188E0,7.884122154E0
2.842621370E-1,3.031950235E0,-6.415050507E0,-2.053950071E0,7.386765607E0
2.862260080E-1,3.147000074E0,-5.994000435E0,-1.824000120E0,7.011321353E0
2.881898270E-1,3.262050152E0,-5.572050095E0,-1.516950130E0,6.632484538E0
2.901533070E-1,3.415050268E0,-5.227050304E0,-1.249050021E0,6.367475887E0
2.921168950E-1,3.453000069E0,-4.804950237E0,-1.057050109E0,6.010666451E0
2.940802440E-1,3.453000069E0,-4.345950127E0,-8.659500480E-1,5.617860933E0
2.960436640E-1,3.453000069E0,-3.924000263E0,-6.360000372E-1,5.265499367E0
2.980074020E-1,3.376950264E0,-3.579000235E0,-3.670500219E-1,4.934345092E0
2.999710470E-1,3.300000191E0,-3.196050167E0,-2.205000073E-2,4.594042243E0
3.019340280E-1,3.147000074E0,-2.773950100E0,4.360500276E-1,4.217647241E0
3.038972030E-1,2.917050123E0,-2.391000032E0,7.429500222E-1,3.844221288E0
3.058608030E-1,2.686950207E0,-1.969050050E0,1.087950110E0,3.504353714E0
3.078242780E-1,2.533950090E0,-1.663050056E0,1.203000069E0,3.260958097E0
3.097877820E-1,2.304000139E0,-1.318050027E0,1.510050058E0,3.053837536E0
3.117512780E-1,2.074050188E0,-8.959500194E-1,1.701000094E0,2.828040300E0
3.137146680E-1,1.996950150E0,-5.509500504E-1,1.893000126E0,2.806208355E0
3.156780730E-1,1.996950150E0,-3.589500189E-1,1.855050087E0,2.749157297E0
3.176410940E-1,2.035050154E0,-1.680000126E-1,1.816050053E0,2.732707618E0
3.196042270E-1,2.035050154E0,-1.500000060E-2,1.548000097E0,2.556943181E0
3.215678340E-1,2.035050154E0,1.759500057E-1,1.510050058E0,2.540204463E0
3.235313020E-1,2.227050066E0,4.440000355E-1,1.279950023E0,2.606752786E0
3.254950380E-1,2.419050217E0,5.980500579E-1,1.203000069E0,2.767070109E0
3.274586910E-1,2.494950056E0,7.890000343E-1,1.126049995E0,2.848734005E0
3.294222560E-1,2.572050095E0,1.018950105E0,1.050000072E0,2.959087892E0
3.313858470E-1,2.494950056E0,1.134000063E0,9.730500579E-1,2.908188154E0
3.333495110E-1,2.457000017E0,1.363950014E0,9.730500579E-1,2.973892254E0
3.353131530E-1,2.380050182E0,1.518000126E0,9.730500579E-1,2.985931960E0
3.372766460E-1,2.341950178E0,1.555950046E0,8.200500607E-1,2.928855286E0
3.392402030E-1,2.341950178E0,1.594050050E0,7.429500222E-1,2.928771233E0
3.412042780E-1,2.380050182E0,1.594050050E0,3.979500234E-1,2.892057858E0
3.431682010E-1,2.457000017E0,1.555950046E0,2.830500007E-1,2.921976545E0
3.451318540E-1,2.457000017E0,1.518000126E0,3.220500052E-1,2.906009235E0
3.470955870E-1,2.419050217E0,1.518000126E0,1.680000126E-1,2.860830708E0
3.490589170E-1,2.494950056E0,1.326000094E0,9.195000678E-2,2.826925333E0
3.510223620E-1,2.572050095E0,1.173000097E0,-1.369500011E-1,2.830216638E0
3.529857360E-1,2.533950090E0,1.018950105E0,-3.289500177E-1,2.750885401E0
3.549491310E-1,2.533950090E0,8.659500480E-1,-5.590500236E-1,2.735563831E0
3.569125140E-1,2.572050095E0,7.510500550E-1,-7.890000343E-1,2.793213012E0
3.588759000E-1,2.572050095E0,5.209500194E-1,-8.659500480E-1,2.763457996E0
3.608389550E-1,2.572050095E0,4.440000355E-1,-1.171950102E0,2.861126485E0
3.628021170E-1,2.610000134E0,4.060500264E-1,-1.287000060E0,2.938255686E0
3.647655390E-1,2.649000168E0,2.910000086E-1,-1.441050053E0,3.029605279E0
3.667288840E-1,2.610000134E0,2.910000086E-1,-1.479000092E0,3.014004475E0
3.686925910E-1,2.610000134E0,1.759500057E-1,-1.516950130E0,3.023937301E0
3.706561920E-1,2.610000134E0,2.295000106E-2,-1.747050047E0,3.140829710E0
3.726204680E-1,2.610000134E0,-1.290000081E-1,-1.900950074E0,3.231462963E0
3.745845270E-1,2.572050095E0,-2.830500007E-1,-2.014950037E0,3.279570497E0
3.765480220E-1,2.533950090E0,-4.740000367E-1,-2.092050076E0,3.319977803E0
3.785116830E-1,2.610000134E0,-7.429500222E-1,-2.169000149E0,3.473994398E0
3.804751550E-1,2.649000168E0,-1.048950076E0,-2.245050192E0,3.627361095E0
3.824386830E-1,2.686950207E0,-1.318050027E0,-2.245050192E0,3.741284225E0
3.844024530E-1,2.764050245E0,-1.509000063E0,-2.284050226E0,3.890236546E0
3.863661480E-1,2.839950085E0,-1.854000092E0,-2.359950066E0,4.131827336E0
3.883296610E-1,2.878050089E0,-2.161050081E0,-2.514000177E0,4.390160209E0
3.902932270E-1,2.955000162E0,-2.506050110E0,-2.704950094E0,4.725364338E0
3.922565800E-1,2.992950201E0,-2.851050138E0,-3.012000084E0,5.114526596E0
3.942199960E-1,3.070050240E0,-3.234000206E0,-3.472050190E0,5.651468688E0
3.961835540E-1,3.184950113E0,-3.579000235E0,-4.315050125E0,6.447697844E0
3.981470710E-1,3.337950230E0,-3.961950302E0,-5.464950085E0,7.530248426E0
4.001106130E-1,3.568050146E0,-4.345950127E0,-7.113000393E0,9.067140615E0
4.020741480E-1,3.682950258E0,-4.729050159E0,-8.799000740E0,1.064661693E1
4.040378680E-1,3.760050297E0,-5.035050392E0,-9.834000587E0,1.167035896E1
4.060015330E-1,3.798000097E0,-5.419050217E0,-1.125195026E1,1.305363148E1
4.079648990E-1,3.721950293E0,-5.494950294E0,-1.198095036E1,1.369637047E1
4.099283330E-1,3.376950264E0,-5.419050217E0,-1.194195080E1,1.354179040E1
4.118917090E-1,3.031950235E0,-5.304000378E0,-1.194195080E1,1.341399758E1
4.138551020E-1,2.533950090E0,-5.035050392E0,-1.144395065E1,1.275682727E1
4.158184850E-1,1.959000111E0,-4.767000198E0,-1.083105087E1,1.199473365E1
4.177818710E-1,1.459950089E0,-4.384050369E0,-1.025595093E1,1.124881689E1
4.197445160E-1,1.077000022E0,-4.000950336E0,-9.528000832E0,1.038991494E1
4.217073910E-1,5.410500169E-1,-3.463950157E0,-8.799000740E0,9.471752733E0
4.236708170E-1,1.960500032E-1,-3.004050255E0,-8.110050201E0,8.650761111E0
4.256340810E-1,8.100000024E-2,-2.620950222E0,-7.420050144E0,7.869757633E0
4.275975310E-1,8.100000024E-2,-2.391000032E0,-6.691050529E0,7.105884839E0
4.295609270E-1,1.570500135E-1,-2.161050081E0,-5.887050152E0,6.273130132E0
4.315244800E-1,1.960500032E-1,-2.008050203E0,-5.119950294E0,5.503143851E0
4.334879940E-1,3.109500110E-1,-1.816050053E0,-4.315050125E0,4.691948986E0
4.354514930E-1,3.870000243E-1,-1.663050056E0,-3.510000229E0,3.903281454E0
4.374149960E-1,5.410500169E-1,-1.585950017E0,-2.667000055E0,3.149739969E0
4.393792610E-1,6.550500393E-1,-1.585950017E0,-1.861950040E0,2.532031983E0
4.413433020E-1,7.699500322E-1,-1.509000063E0,-1.134000063E0,2.038592746E0
4.433068240E-1,7.699500322E-1,-1.471050024E0,-4.819500148E-1,1.728897638E0
4.452704820E-1,8.089500666E-1,-1.509000063E0,9.195000678E-2,1.714624217E0
4.472332340E-1,8.850000501E-1,-1.509000063E0,5.509500504E-1,1.834080761E0
4.491962510E-1,8.850000501E-1,-1.471050024E0,9.730500579E-1,1.973332125E0
4.511600580E-1,8.470500112E-1,-1.356000066E0,1.318050027E0,2.072072820E0
4.531236340E-1,7.699500322E-1,-1.240950108E0,1.510050058E0,2.100721638E0
4.550864770E-1,6.940500140E-1,-1.048950076E0,1.777950048E0,2.177867778E0
4.570495450E-1,5.410500169E-1,-8.190000653E-1,2.122950077E0,2.338891459E0
4.590129380E-1,4.639500082E-1,-6.280500293E-1,2.430000067E0,2.552370814E0
4.609762350E-1,3.870000243E-1,-4.740000367E-1,2.736000061E0,2.803594369E0
4.629398150E-1,3.870000243E-1,-3.210000098E-1,2.889000177E0,2.932427672E0
4.649033120E-1,4.260000288E-1,-2.440500110E-1,3.043050051E0,3.082400046E0
4.668676480E-1,5.410500169E-1,-1.680000126E-1,3.196050167E0,3.245873657E0
4.688317210E-1,6.550500393E-1,-1.680000126E-1,3.310950041E0,3.379305362E0
4.707951680E-1,7.699500322E-1,-1.680000126E-1,3.388050079E0,3.478495421E0
4.727587990E-1,8.089500666E-1,-1.290000081E-1,3.463950157E0,3.559493209E0
4.747210600E-1,7.699500322E-1,-9.105000645E-2,3.463950157E0,3.549656863E0
4.766837230E-1,5.790000558E-1,2.295000106E-2,3.694050074E0,3.739221004E0
4.786470650E-1,2.719500065E-1,1.759500057E-1,4.000950336E0,4.014040210E0
4.806101970E-1,-1.099500060E-1,4.060500264E-1,4.384050369E0,4.404187016E0
4.825738050E-1,-4.930500090E-1,5.209500194E-1,4.843950272E0,4.896768472E0
4.845372740E-1,-6.850500107E-1,6.360000372E-1,5.341950417E0,5.423119381E0
4.865008250E-1,-9.919500351E-1,7.890000343E-1,5.764050484E0,5.901759391E0
4.884643510E-1,-1.375050068E0,8.659500480E-1,6.186000347E0,6.395876208E0
4.904278920E-1,-1.720050097E0,1.018950105E0,6.531000137E0,6.830138684E0
4.923914280E-1,-1.873050094E0,1.057950020E0,6.799050331E0,7.131245354E0
4.943549230E-1,-1.911000133E0,1.057950020E0,7.105050564E0,7.433231011E0
4.963184300E-1,-1.950000048E0,1.134000063E0,7.219950199E0,7.564134928E0
4.982819730E-1,-2.026050091E0,1.210950017E0,7.297050476E0,7.669304047E0
5.002455050E-1,-2.026050091E0,1.288050056E0,7.258950233E0,7.645672659E0
5.022092010E-1,-2.103000164E0,1.363950014E0,7.297050476E0,7.715563167E0
5.041728650E-1,-2.065050125E0,1.326000094E0,7.182000160E0,7.589719005E0
5.061362030E-1,-2.103000164E0,1.210950017E0,7.029000282E0,7.436118248E0
5.080996370E-1,-2.026050091E0,1.018950105E0,6.837000370E0,7.203312595E0
5.100633720E-1,-1.987950087E0,9.040500522E-1,6.721950531E0,7.067805245E0
5.120270190E-1,-1.873050094E0,7.890000343E-1,6.568950176E0,6.876186743E0
5.139901850E-1,-1.834950089E0,6.739500165E-1,6.415950298E0,6.707135654E0
5.159534880E-1,-1.758000135E0,5.980500579E-1,6.186000347E0,6.458701777E0
5.179163910E-1,-1.795950055E0,6.360000372E-1,5.956050396E0,6.253356616E0
5.198794110E-1,-1.834950089E0,5.980500579E-1,5.686950207E0,6.005506503E0
5.218429920E-1,-1.950000048E0,7.129500508E-1,5.419050217E0,5.803180439E0
5.238064090E-1,-2.065050125E0,7.129500508E-1,5.227050304E0,5.665225916E0
5.257699820E-1,-2.179949999E0,8.659500480E-1,5.035950184E0,5.555433893E0
5.277335000E-1,-2.256000042E0,9.040500522E-1,4.843950272E0,5.419473860E0
5.296965020E-1,-2.371050119E0,1.018950105E0,4.576050282E0,5.253605825E0
5.316596560E-1,-2.485950232E0,1.173000097E0,4.269000053E0,5.077424469E0
5.336227650E-1,-2.485950232E0,1.288050056E0,3.886050224E0,4.789614582E0
5.355858870E-1,-2.563050032E0,1.402950048E0,3.502950191E0,4.561595592E0
5.375494710E-1,-2.524950027E0,1.555950046E0,3.004050255E0,4.221453674E0
5.395129370E-1,-2.410050154E0,1.671000123E0,2.430000067E0,3.808606501E0
5.414762640E-1,-2.256000042E0,1.708950043E0,1.816050053E0,3.362749505E0
5.434396320E-1,-2.179949999E0,1.863000035E0,1.356000066E0,3.172016284E0
5.454039640E-1,-1.873050094E0,1.900950074E0,8.200500607E-1,2.791847048E0
5.473680140E-1,-1.605000019E0,2.016000032E0,2.830500007E-1,2.592373140E0
5.493314210E-1,-1.375050068E0,2.016000032E0,-2.910000086E-1,2.457580075E0
5.512950160E-1,-1.144950032E0,2.016000032E0,-9.040500522E-1,2.488468044E0
5.532584100E-1,-9.529500604E-1,2.016000032E0,-1.516950130E0,2.696944131E0
5.552218630E-1,-7.999500632E-1,2.016000032E0,-2.130000114E0,3.039913933E0
5.571853700E-1,-4.930500090E-1,1.900950074E0,-2.704950094E0,3.342673258E0
5.591488610E-1,-3.019500077E-1,1.824000120E0,-3.319050074E0,3.799242508E0
5.611124080E-1,-7.200000435E-2,1.708950043E0,-3.778950214E0,4.148030734E0
5.630759380E-1,8.100000024E-2,1.594050050E0,-4.084949970E0,4.385700950E0
5.650395230E-1,1.570500135E-1,1.594050050E0,-4.315050125E0,4.602751118E0
5.670030910E-1,1.960500032E-1,1.518000126E0,-4.353000164E0,4.614257298E0
5.689666260E-1,2.340000123E-1,1.479000092E0,-4.237950325E0,4.494710250E0
5.709301700E-1,5.410500169E-1,1.479000092E0,-4.009050369E0,4.307280030E0
5.728944230E-1,8.470500112E-1,1.402950048E0,-3.702000141E0,4.048526597E0
5.748584710E-1,1.114950061E0,1.288050056E0,-3.433950186E0,3.833301509E0
5.768219230E-1,1.306950092E0,1.173000097E0,-3.088950157E0,3.553260594E0
5.787855500E-1,1.345050097E0,1.018950105E0,-2.859000206E0,3.319834522E0
5.807488480E-1,1.498950124E0,6.739500165E-1,-2.667000055E0,3.132722361E0
5.827122420E-1,1.767000079E0,2.140500098E-1,-2.629050016E0,3.174903254E0
5.846765350E-1,2.035050154E0,-2.440500110E-1,-3.165000200E0,3.770704948E0
5.866405580E-1,2.341950178E0,-8.959500194E-1,-4.009050369E0,4.728630028E0
5.886038790E-1,2.494950056E0,-1.738950133E0,-5.542050362E0,6.321633140E0
5.905674060E-1,2.686950207E0,-2.620950222E0,-7.534950256E0,8.418108864E0
5.925312610E-1,2.878050089E0,-3.655950069E0,-9.796050072E0,1.084489466E1
5.944950200E-1,2.917050123E0,-4.575000286E0,-1.136700058E1,1.259557507E1
5.964585420E-1,2.649000168E0,-5.533950329E0,-1.209600067E1,1.356300263E1
5.984221510E-1,2.341950178E0,-6.492000103E0,-1.236405087E1,1.415982167E1
6.003854970E-1,1.767000079E0,-7.488000393E0,-1.240200043E1,1.459458988E1
6.023489210E-1,1.192050099E0,-8.523000717E0,-1.186605072E1,1.465829746E1
6.043111720E-1,5.790000558E-1,-9.787950516E0,-1.102200031E1,1.475207468E1
6.062737670E-1,-2.629500031E-1,-1.101495075E1,-9.373950005E0,1.446614052E1
6.082373050E-1,-9.150000215E-1,-1.243305016E1,-7.573050499E0,1.458660533E1
6.102005530E-1,-1.605000019E0,-1.408095074E1,-5.848050117E0,1.533130421E1
6.121640060E-1,-2.103000164E0,-1.618905067E1,-4.890000343E0,1.704171572E1
6.141273990E-1,-2.485950232E0,-1.867995071E1,-4.582950115E0,1.939391500E1
6.160909630E-1,-3.022950172E0,-2.143995094E1,-4.660050392E0,2.214781691E1
6.180544760E-1,-3.445050240E0,-2.446800041E1,-5.043000221E0,2.521870866E1
6.200180000E-1,-4.018949986E0,-2.764905167E1,-5.311950207E0,2.844009198E1
6.219815340E-1,-4.708950043E0,-3.106005096E1,-5.311950207E0,3.186091322E1
6.239444890E-1,-5.208000183E0,-3.439395142E1,-5.005050182E0,3.514424117E1
6.259076130E-1,-5.743950367E0,-3.761400223E1,-4.315050125E0,3.829393930E1
6.278712220E-1,-6.204000473E0,-4.048800278E1,-3.394950151E0,4.110101796E1
6.298346880E-1,-6.088950157E0,-4.297995377E1,-2.475000143E0,4.347962012E1
6.317980690E-1,-5.668050289E0,-4.501095200E1,-2.437050104E0,4.543183693E1
6.337614680E-1,-4.900950432E0,-4.639095306E1,-1.594050050E0,4.667634130E1
6.357250290E-1,-3.675000191E0,-4.723395157E1,-2.092050076E0,4.742286875E1
6.376885430E-1,-2.256000042E0,-4.723395157E1,-2.743950129E0,4.736734085E1
6.396526720E-1,-6.469500065E-1,-4.658295059E1,-3.931950092E0,4.675307543E1
6.416166200E-1,8.470500112E-1,-4.527900314E1,-4.890000343E0,4.555016710E1
6.435806040E-1,2.111999989E0,-4.359300232E1,-5.542050362E0,4.399459873E1
6.455445630E-1,3.184950113E0,-4.163805008E1,-5.962950230E0,4.218326560E1
6.475080300E-1,3.798000097E0,-3.933900070E1,-5.656950474E0,3.992471502E1
6.494716420E-1,4.105050087E0,-3.719205093E1,-4.927950382E0,3.774102256E1
6.514351680E-1,4.027950287E0,-3.565904999E1,-3.855000257E0,3.609228805E1
6.533987190E-1,3.913050175E0,-3.477795029E1,-2.820000172E0,3.511082723E1
6.553622400E-1,4.027950287E0,-3.447105026E1,-1.594050050E0,3.474217445E1
6.573257810E-1,4.027950287E0,-3.450900269E1,-5.590500236E-1,3.474777960E1
6.592884170E-1,4.105050087E0,-3.493095016E1,1.680000126E-1,3.517173495E1
6.612513190E-1,4.219950199E0,-3.546795273E1,7.429500222E-1,3.572583974E1
6.632150110E-1,4.411950111E0,-3.623400116E1,1.240950108E0,3.652270665E1
6.651784710E-1,4.833000183E0,-3.696195221E1,1.356000066E0,3.730124044E1
6.671421880E-1,5.370000362E0,-3.761400223E1,1.240950108E0,3.801565499E1
6.691058410E-1,5.715000153E0,-3.807405090E1,7.810500264E-1,3.850850060E1
6.710702160E-1,5.905950069E0,-3.830400085E1,9.195000678E-2,3.875674370E1
6.730343790E-1,5.791050434E0,-3.811200333E1,-8.269500136E-1,3.855833125E1
6.749974510E-1,5.407950401E0,-3.776700211E1,-2.284050226E0,3.822053455E1
6.769608430E-1,4.297049999E0,-3.715395355E1,-4.009050369E0,3.761586618E1
6.789235640E-1,2.380050182E0,-3.600405121E1,-5.503050327E0,3.649986171E1
6.808864720E-1,5.410500169E-1,-3.450900269E1,-6.652950287E0,3.514862371E1
6.828495320E-1,-1.183050036E0,-3.289995193E1,-7.381050587E0,3.373849956E1
6.848125470E-1,-2.869950056E0,-3.136605072E1,-7.726050377E0,3.243081259E1
6.867760400E-1,-4.288050175E0,-2.979495049E1,-7.611000538E0,3.104921542E1
6.887393930E-1,-5.590950489E0,-2.826195145E1,-7.150950432E0,2.968387978E1
6.907028990E-1,-6.625950336E0,-2.692005157E1,-6.270000458E0,2.842367500E1
6.926663740E-1,-7.468950272E0,-2.561700058E1,-5.272950172E0,2.719963125E1
6.946295640E-1,-8.158950806E0,-2.435295105E1,-4.237950325E0,2.603065358E1
6.965928380E-1,-8.734050751E0,-2.316405106E1,-3.394950151E0,2.498764876E1
6.985567810E-1,-9.154950142E0,-2.193795013E1,-2.820000172E0,2.393823655E1
7.005205280E-1,-9.424050331E0,-2.078805161E1,-2.359950066E0,2.294613646E1
7.024839740E-1,-9.654000282E0,-1.971495056E1,-2.092050076E0,2.205120565E1
7.044475490E-1,-9.730050087E0,-1.864200020E1,-1.708950043E0,2.109783298E1
7.064110810E-1,-9.691950798E0,-1.764495087E1,-1.326000094E0,2.017514505E1
7.083746260E-1,-9.424050331E0,-1.684005165E1,-1.018950105E0,1.932455235E1
7.103382070E-1,-9.001950264E0,-1.626495171E1,-6.360000372E-1,1.860075962E1
7.123017780E-1,-8.542050362E0,-1.591995049E1,-5.970000029E-1,1.807672141E1
7.142652670E-1,-8.121000290E0,-1.584405041E1,-4.819500148E-1,1.781058266E1
7.162287800E-1,-7.660950184E0,-1.584405041E1,-2.910000086E-1,1.760138551E1
7.181925020E-1,-7.047000408E0,-1.599705029E1,-6.105000153E-2,1.748054804E1
7.201561630E-1,-6.433950424E0,-1.645695114E1,9.195000678E-2,1.767018432E1
7.221195460E-1,-5.782950401E0,-1.699394989E1,1.500000060E-2,1.795096302E1
7.240830110E-1,-5.169000149E0,-1.749195099E1,-6.105000153E-2,1.823980918E1
7.260468910E-1,-4.633050442E0,-1.814295006E1,-1.369500011E-1,1.872566550E1
7.280106390E-1,-4.249050140E0,-1.864200020E1,-2.910000086E-1,1.912232411E1
7.299743680E-1,-4.018949986E0,-1.917795181E1,-4.060500264E-1,1.959874158E1
7.319381030E-1,-3.828000069E0,-1.963800049E1,-5.209500194E-1,2.001439573E1
7.339015630E-1,-3.751050234E0,-2.017500114E1,-5.970000029E-1,2.052942907E1
7.358651030E-1,-3.712950230E0,-2.067300034E1,-6.360000372E-1,2.101341092E1
7.378286990E-1,-3.712950230E0,-2.105595016E1,-6.739500165E-1,2.139142925E1
7.397922690E-1,-3.636000156E0,-2.143995094E1,-6.360000372E-1,2.175537841E1
7.417558030E-1,-3.445050240E0,-2.182305145E1,-5.970000029E-1,2.210136545E1
7.437193470E-1,-3.138000250E0,-2.212995148E1,-5.209500194E-1,2.235739669E1
7.456826600E-1,-2.793000221E0,-2.239800072E1,-5.209500194E-1,2.257748160E1
7.476460400E-1,-2.410050154E0,-2.255100060E1,-6.360000372E-1,2.268833325E1
7.496096000E-1,-1.987950087E0,-2.262795067E1,-7.120500207E-1,2.272626481E1
7.515731100E-1,-1.567050099E0,-2.262795067E1,-7.890000343E-1,2.269586567E1
7.535363390E-1,-1.183050036E0,-2.239800072E1,-7.890000343E-1,2.244309614E1
7.554996500E-1,-9.150000215E-1,-2.212995148E1,-7.890000343E-1,2.216290817E1
7.574633620E-1,-4.170000255E-1,-2.170800018E1,-9.810000658E-1,2.173415566E1
7.594269560E-1,-3.299999982E-2,-2.124795151E1,-1.096050024E0,2.127622753E1
7.613910710E-1,3.870000243E-1,-2.063505173E1,-1.210950017E0,2.067417541E1
7.633550330E-1,8.470500112E-1,-1.998300171E1,-1.326000094E0,2.004485289E1
7.653184550E-1,1.153950095E0,-1.921695137E1,-1.479000092E0,1.930829516E1
7.672820350E-1,1.306950092E0,-1.837305069E1,-1.632000089E0,1.849163418E1
7.692454310E-1,1.384050012E0,-1.768395042E1,-1.747050047E0,1.782385707E1
7.712088810E-1,1.575000048E0,-1.687905121E1,-1.824000120E0,1.705021910E1
7.731725450E-1,1.843950033E0,-1.611194992E1,-1.747050047E0,1.631095539E1
7.751361630E-1,2.111999989E0,-1.546095085E1,-1.786050081E0,1.570641653E1
7.770993730E-1,2.304000139E0,-1.473195076E1,-1.708950043E0,1.500864085E1
7.790627030E-1,2.610000134E0,-1.404195023E1,-1.632000089E0,1.437539186E1
7.810260960E-1,2.878050089E0,-1.339095020E1,-1.516950130E0,1.378048828E1
7.829894700E-1,3.147000074E0,-1.273905087E1,-1.441050053E0,1.320089587E1
7.849530130E-1,3.300000191E0,-1.208805084E1,-1.441050053E0,1.261299329E1
7.869165230E-1,3.376950264E0,-1.151295090E1,-1.441050053E0,1.208422346E1
7.888798880E-1,3.415050268E0,-1.097595024E1,-1.441050053E0,1.158493320E1
7.908432950E-1,3.337950230E0,-1.047795010E1,-1.402050018E0,1.108580598E1
7.928070350E-1,3.262050152E0,-9.940950394E0,-1.441050053E0,1.056125424E1
7.947706770E-1,3.300000191E0,-9.558000565E0,-1.363950014E0,1.020322183E1
7.967343190E-1,3.223050117E0,-9.060000420E0,-1.287000060E0,9.701960050E0
7.986979710E-1,2.992950201E0,-8.677050591E0,-1.249050021E0,9.263319265E0
8.006614910E-1,2.839950085E0,-8.178000450E0,-1.134000063E0,8.731034531E0
8.026250500E-1,2.686950207E0,-7.756950378E0,-1.057050109E0,8.276915822E0
8.045885850E-1,2.686950207E0,-7.372950554E0,-9.420000315E-1,7.903636210E0
8.065521270E-1,2.572050095E0,-7.027950287E0,-1.018950105E0,7.552866094E0
8.085153490E-1,2.572050095E0,-6.492000103E0,-9.420000315E-1,7.046195504E0
8.104786650E-1,2.572050095E0,-6.109050274E0,-9.420000315E-1,6.695020612E0
8.124420160E-1,2.572050095E0,-5.649000168E0,-7.890000343E-1,6.256929410E0
8.144053560E-1,2.494950056E0,-5.188950062E0,-6.360000372E-1,5.792622426E0
8.163687480E-1,2.380050182E0,-4.651950359E0,-4.440000355E-1,5.244274692E0
8.183321250E-1,2.341950178E0,-4.269000053E0,-3.289500177E-1,4.880297143E0
8.202955460E-1,2.227050066E0,-3.847050190E0,-1.759500057E-1,4.448652107E0
8.222589610E-1,2.149950027E0,-3.463950157E0,-6.105000153E-2,4.077372060E0
8.242225210E-1,1.959000111E0,-3.004050255E0,1.300500035E-1,3.588720158E0
8.261860380E-1,1.767000079E0,-2.697000027E0,1.680000126E-1,3.228671929E0
8.281489950E-1,1.422000051E0,-2.275950193E0,2.830500007E-1,2.698546040E0
8.301121170E-1,1.192050099E0,-1.930950046E0,3.600000143E-1,2.297640426E0
8.320757070E-1,9.619500637E-1,-1.624050021E0,3.600000143E-1,1.921584348E0
8.340391730E-1,6.169500351E-1,-1.279050112E0,3.220500052E-1,1.456129369E0
8.360023640E-1,3.490500152E-1,-9.340500236E-1,3.220500052E-1,1.047855699E0
8.379656360E-1,1.189500093E-1,-6.280500293E-1,3.220500052E-1,7.157598409E-1
8.399301660E-1,4.050000105E-3,-3.979500234E-1,2.070000172E-1,4.485862579E-1
8.418943270E-1,-3.299999982E-2,-1.680000126E-1,2.070000172E-1,2.686298780E-1
8.438570370E-1,-3.299999982E-2,-9.105000645E-2,9.195000678E-2,1.335436536E-1
8.458201410E-1,-7.200000435E-2,2.530499995E-1,5.295000225E-2,2.683691592E-1
8.477837530E-1,-1.480500102E-1,6.360000372E-1,-9.900000691E-2,6.604663914E-1
8.497472160E-1,-2.250000089E-1,1.018950105E0,-6.105000153E-2,1.045280547E0
8.517107680E-1,-1.870500147E-1,1.249050021E0,-2.520000041E-1,1.287873311E0
8.536742930E-1,-1.480500102E-1,1.479000092E0,-5.209500194E-1,1.575039364E0
8.556378340E-1,-1.870500147E-1,1.671000123E0,-7.120500207E-1,1.825991334E0
8.576013700E-1,-1.870500147E-1,1.939050078E0,-7.510500550E-1,2.087816826E0
8.595650890E-1,-2.250000089E-1,2.131050110E0,-8.659500480E-1,2.311248377E0
8.615287540E-1,-2.250000089E-1,2.284050226E0,-9.420000315E-1,2.480901953E0
8.634922720E-1,-1.099500060E-1,2.476050138E0,-9.810000658E-1,2.665572063E0
8.654558330E-1,-1.870500147E-1,2.667000055E0,-1.096050024E0,2.889498686E0
8.674193340E-1,-1.480500102E-1,2.782050133E0,-1.171950102E0,3.022447483E0
8.693828760E-1,-1.870500147E-1,2.896950245E0,-1.171950102E0,3.130619024E0
8.713464140E-1,-1.480500102E-1,2.896950245E0,-1.287000060E0,3.173422235E0
8.733099530E-1,-2.250000089E-1,2.935950041E0,-1.249050021E0,3.198523660E0
8.752734910E-1,-3.019500077E-1,3.051000118E0,-1.249050021E0,3.310574193E0
8.772370300E-1,-4.930500090E-1,3.051000118E0,-1.441050053E0,3.410033033E0
8.792004760E-1,-6.079500318E-1,3.051000118E0,-1.479000092E0,3.444654734E0
8.811639190E-1,-7.230000496E-1,2.974050045E0,-1.441050053E0,3.382946644E0
8.831278340E-1,-7.999500632E-1,2.821050167E0,-1.594050050E0,3.337549956E0
8.850916100E-1,-9.529500604E-1,2.667000055E0,-1.671000123E0,3.288349818E0
8.870552440E-1,-1.106999993E0,2.398950100E0,-1.824000120E0,3.210511954E0
8.890189190E-1,-1.183050036E0,2.131050110E0,-1.939050078E0,3.114626328E0
8.909826660E-1,-1.183050036E0,1.824000120E0,-2.053950071E0,2.990868557E0
8.929463550E-1,-1.183050036E0,1.441050053E0,-2.053950071E0,2.773976124E0
8.949099140E-1,-1.106999993E0,1.134000063E0,-2.130000114E0,2.654864519E0
8.968735110E-1,-1.030050039E0,7.890000343E-1,-2.245050192E0,2.593024200E0
8.988375340E-1,-9.150000215E-1,4.060500264E-1,-2.322000027E0,2.528593638E0
9.008014320E-1,-7.230000496E-1,-1.500000060E-2,-2.398950100E0,2.505576910E0
9.027652560E-1,-6.079500318E-1,-3.589500189E-1,-2.398950100E0,2.500681895E0
9.047291120E-1,-3.400500119E-1,-7.810500264E-1,-2.437050104E0,2.581644120E0
9.066928210E-1,-1.480500102E-1,-1.203000069E0,-2.514000177E0,2.790936198E0
9.086565740E-1,4.200000316E-2,-1.509000063E0,-2.398950100E0,2.834397074E0
9.106207500E-1,2.719500065E-1,-1.816050053E0,-2.475000143E0,3.081820940E0
9.125848020E-1,5.020500422E-1,-2.008050203E0,-2.551950216E0,3.285843844E0
9.145492080E-1,7.699500322E-1,-2.238000154E0,-2.667000055E0,3.565719708E0
9.165135040E-1,9.240000248E-1,-2.428950071E0,-2.896950245E0,3.891772760E0
9.184772290E-1,1.077000022E0,-2.620950222E0,-3.204000235E0,4.277256903E0
9.204411210E-1,1.269000053E0,-2.812050104E0,-3.549000263E0,4.702487617E0
9.224047790E-1,1.384050012E0,-2.965950251E0,-4.009050369E0,5.175416910E0
9.243685060E-1,1.537050128E0,-3.157050133E0,-4.621950150E0,5.804473432E0
9.263324160E-1,1.729050040E0,-3.349050045E0,-5.235000134E0,6.450657071E0
9.282962730E-1,2.035050154E0,-3.502050161E0,-6.001950264E0,7.240800469E0
9.302600730E-1,2.227050066E0,-3.541050196E0,-6.615000248E0,7.826686193E0
9.322238900E-1,2.341950178E0,-3.655950069E0,-7.036050320E0,8.267811418E0
9.341872460E-1,2.419050217E0,-3.694050074E0,-7.305000305E0,8.535856100E0
9.361507370E-1,2.494950056E0,-3.732000113E0,-7.611000538E0,8.836284842E0
9.381144080E-1,2.610000134E0,-3.694050074E0,-7.726050377E0,8.952651064E0
9.400780330E-1,2.686950207E0,-3.694050074E0,-7.687950134E0,8.942610616E0
9.420417820E-1,2.802000046E0,-3.616950274E0,-7.266000271E0,8.586518123E0
9.440054950E-1,2.839950085E0,-3.463950157E0,-6.499950409E0,7.893897801E0
9.459689600E-1,2.992950201E0,-3.387000084E0,-5.542050362E0,7.151492340E0
9.479324970E-1,3.108000040E0,-3.271950245E0,-4.392000198E0,6.297220688E0
9.498960890E-1,3.300000191E0,-3.157050133E0,-3.319050074E0,5.645623100E0
9.518596580E-1,3.415050268E0,-3.004050255E0,-2.437050104E0,5.160048399E0
9.538229670E-1,3.415050268E0,-2.812050104E0,-1.786050081E0,4.770761890E0
9.557863520E-1,3.415050268E0,-2.620950222E0,-1.287000060E0,4.493141168E0
9.577499610E-1,3.337950230E0,-2.506050110E0,-7.890000343E-1,4.247907714E0
9.597135040E-1,3.184950113E0,-2.351999998E0,-4.060500264E-1,3.980036161E0
9.616770630E-1,2.955000162E0,-2.238000154E0,-6.105000153E-2,3.707343760E0
9.636406030E-1,2.725050211E0,-2.083950043E0,2.830500007E-1,3.442217851E0
9.656033750E-1,2.572050095E0,-1.893000126E0,5.899500251E-1,3.247604070E0
9.675663720E-1,2.380050182E0,-1.663050056E0,8.959500194E-1,3.038601783E0
9.695298220E-1,2.304000139E0,-1.663050056E0,1.126049995E0,3.056491571E0
9.714931390E-1,2.227050066E0,-1.471050024E0,1.395000100E0,3.011605128E0
9.734567490E-1,2.227050066E0,-1.356000066E0,1.510050058E0,3.013094647E0
9.754202490E-1,2.265000105E0,-1.279050112E0,1.624950051E0,3.067027442E0
9.773839750E-1,2.149950027E0,-1.164000034E0,1.855050087E0,3.068939886E0
9.793476340E-1,2.265000105E0,-1.011000037E0,2.122950077E0,3.264852765E0
9.813108370E-1,2.304000139E0,-9.340500236E-1,2.391000032E0,3.449311126E0
9.832741740E-1,2.380050182E0,-7.810500264E-1,2.620950222E0,3.625473497E0
9.852379050E-1,2.419050217E0,-6.660000086E-1,2.736000061E0,3.712284512E0
9.872015040E-1,2.419050217E0,-5.130000114E-1,2.851050138E0,3.774050855E0
9.891650330E-1,2.419050217E0,-4.740000367E-1,2.965950251E0,3.856597059E0
9.911285830E-1,2.304000139E0,-3.589500189E-1,3.043050051E0,3.833720826E0
9.930921190E-1,2.341950178E0,-2.830500007E-1,3.081000090E0,3.880387802E0
9.950556600E-1,2.188950062E0,-2.059500068E-1,3.043050051E0,3.754207159E0
9.970190820E-1,1.996950150E0,-1.680000126E-1,3.004050255E0,3.611142733E0
9.989825250E-1,1.767000079E0,-1.290000081E-1,3.081000090E0,3.554081011E0
1.000945314E0,1.537050128E0,-9.105000645E-2,3.081000090E0,3.444325007E0
1.002908294E0,1.306950092E0,6.105000153E-2,3.157950163E0,3.418259042E0
1.004871972E0,1.230000019E0,2.140500098E-1,3.234000206E0,3.466622966E0
1.006835446E0,1.077000022E0,2.530499995E-1,3.426000118E0,3.600200017E0
1.008798811E0,8.470500112E-1,4.060500264E-1,3.579000235E0,3.700217970E0
1.010762212E0,6.169500351E-1,5.209500194E-1,3.694050074E0,3.781272566E0
1.012725008E0,3.109500110E-1,5.590500236E-1,3.847950220E0,3.900762456E0
1.014687982E0,8.100000024E-2,6.360000372E-1,4.039050102E0,4.089618903E0
1.016651436E0,-7.200000435E-2,6.360000372E-1,4.116000175E0,4.165469660E0
1.018614749E0,-3.400500119E-1,6.739500165E-1,4.345950127E0,4.411023140E0
1.020578031E0,-4.930500090E-1,7.129500508E-1,4.423050404E0,4.507191028E0
1.022541308E0,-6.850500107E-1,7.510500550E-1,4.498950005E0,4.612366079E0
1.024505251E0,-7.620000243E-1,7.890000343E-1,4.576050282E0,4.705677557E0
1.026468999E0,-8.770500422E-1,8.280000687E-1,4.576050282E0,4.732339492E0
1.028432997E0,-9.919500351E-1,7.890000343E-1,4.614000320E0,4.784922662E0
1.030396922E0,-1.144950032E0,7.890000343E-1,4.653000355E0,4.856319999E0
1.032360381E0,-1.260000110E0,9.040500522E-1,4.653000355E0,4.904622215E0
1.034323987E0,-1.336950064E0,9.040500522E-1,4.537950039E0,4.816402446E0
1.036287333E0,-1.452000022E0,8.659500480E-1,4.423050404E0,4.735139747E0
1.038250756E0,-1.567050099E0,8.659500480E-1,4.345950127E0,4.700297650E0
1.040213819E0,-1.642950058E0,9.430500269E-1,4.231050014E0,4.635775283E0
1.042176987E0,-1.720050097E0,9.810000658E-1,3.963000298E0,4.430158555E0
1.044140048E0,-1.758000135E0,9.810000658E-1,3.808950186E0,4.308251052E0
1.046103141E0,-1.834950089E0,1.057950020E0,3.655950069E0,4.225194787E0
1.048066394E0,-1.834950089E0,1.134000063E0,3.541050196E0,4.146327829E0
1.050029600E0,-1.873050094E0,1.210950017E0,3.426000118E0,4.088054966E0
1.051993376E0,-1.911000133E0,1.249050021E0,3.388050079E0,4.085453561E0
1.053956985E0,-1.950000048E0,1.326000094E0,3.273000240E0,4.034018717E0
1.055920332E0,-1.911000133E0,1.402950048E0,3.118950129E0,3.917657495E0
1.057883756E0,-1.950000048E0,1.518000126E0,2.965950251E0,3.860529168E0
1.059847628E0,-1.950000048E0,1.518000126E0,2.851050138E0,3.772971171E0
1.061811369E0,-1.987950087E0,1.633050084E0,2.620950222E0,3.672625517E0
1.063774919E0,-1.950000048E0,1.671000123E0,2.391000032E0,3.508792207E0
1.065738525E0,-1.873050094E0,1.671000123E0,2.008050203E0,3.214470980E0
1.067702362E0,-1.834950089E0,1.671000123E0,1.548000097E0,2.924993597E0
1.069666134E0,-1.681950092E0,1.633050084E0,1.087950110E0,2.584462059E0
1.071630398E0,-1.567050099E0,1.518000126E0,3.220500052E-1,2.205376748E0
1.073594518E0,-1.413000107E0,1.479000092E0,-4.440000355E-1,2.093118870E0
1.075557733E0,-1.222050071E0,1.326000094E0,-1.287000060E0,2.215412327E0
1.077521213E0,-1.106999993E0,1.288050056E0,-2.206950188E0,2.784807186E0
1.079484607E0,-9.529500604E-1,1.210950017E0,-3.319050074E0,3.659317853E0
1.081448040E0,-6.850500107E-1,1.134000063E0,-4.315050125E0,4.513857247E0
1.083411550E0,-4.549500346E-1,1.018950105E0,-5.043000221E0,5.164986939E0
1.085375038E0,-1.870500147E-1,1.018950105E0,-5.695050240E0,5.788509675E0
1.087338810E0,1.570500135E-1,1.057950020E0,-6.193050385E0,6.284727203E0
1.089302499E0,5.410500169E-1,1.057950020E0,-6.499950409E0,6.607673470E0
1.091266733E0,9.240000248E-1,1.057950020E0,-6.652950287E0,6.799616299E0
1.093230807E0,1.192050099E0,1.057950020E0,-6.730050087E0,6.916199524E0
1.095194255E0,1.345050097E0,1.018950105E0,-6.730050087E0,6.938371081E0
1.097157886E0,1.459950089E0,9.040500522E-1,-6.538050175E0,6.759797397E0
1.099121228E0,1.767000079E0,7.890000343E-1,-6.499950409E0,6.781899856E0
1.101084655E0,2.074050188E0,4.060500264E-1,-6.307950497E0,6.652578468E0
1.103049044E0,2.419050217E0,-1.680000126E-1,-6.154950142E0,6.615394108E0
1.105013168E0,2.610000134E0,-1.011000037E0,-6.040050507E0,6.657058802E0
1.106976652E0,2.457000017E0,-1.893000126E0,-6.001950264E0,6.756012547E0
1.108940323E0,2.304000139E0,-2.773950100E0,-6.154950142E0,7.133486318E0
1.110903974E0,2.074050188E0,-3.732000113E0,-6.307950497E0,7.617069547E0
1.112867631E0,1.804950118E0,-4.651950359E0,-6.576000214E0,8.254832880E0
1.114831314E0,1.767000079E0,-5.686950207E0,-7.150950432E0,9.305900494E0
1.116794999E0,1.804950118E0,-6.645000458E0,-7.995000362E0,1.055148837E1
1.118758692E0,1.804950118E0,-7.756950378E0,-9.106050491E0,1.209744930E1
1.120722383E0,1.767000079E0,-9.136050224E0,-1.029405022E1,1.387649714E1
1.122686121E0,1.537050128E0,-1.066995049E1,-1.125195026E1,1.558257845E1
1.124649845E0,1.039050102E0,-1.231800079E1,-1.144395065E1,1.684567527E1
1.126612767E0,1.189500093E-1,-1.411905098E1,-1.083105087E1,1.779531997E1
1.128575924E0,-8.770500422E-1,-1.595895100E1,-9.106050491E0,1.839503980E1
1.130539572E0,-1.642950058E0,-1.776000023E1,-6.652950287E0,1.903624544E1
1.132503076E0,-2.563050032E0,-1.952295113E1,-4.237950325E0,2.014137704E1
1.134466936E0,-3.100050211E0,-2.132505035E1,-2.590050220E0,2.170429552E1
1.136430691E0,-3.636000156E0,-2.331795120E1,-1.671000123E0,2.365881626E1
1.138394054E0,-4.210950375E0,-2.542605209E1,-9.420000315E-1,2.578960240E1
1.140357535E0,-4.824000359E0,-2.776395226E1,-9.810000658E-1,2.819699249E1
1.142321218E0,-5.437950134E0,-3.010200119E1,-1.441050053E0,3.062316774E1
1.144284841E0,-6.127950191E0,-3.255495071E1,-1.824000120E0,3.317685286E1
1.146248186E0,-6.433950424E0,-3.516105270E1,-2.245050192E0,3.581529835E1
1.148211612E0,-6.856050491E0,-3.749895096E1,-2.014950037E0,3.817377077E1
1.150174804E0,-6.817050457E0,-3.964500046E1,-1.861950040E0,4.026990311E1
1.152138069E0,-6.664050102E0,-4.140795135E1,-1.402050018E0,4.196419597E1
1.154101653E0,-5.898000240E0,-4.313295364E1,-1.249050021E0,4.355224705E1
1.156065144E0,-4.594050407E0,-4.420605087E1,-9.040500522E-1,4.445331865E1
1.158028511E0,-2.830950022E0,-4.501095200E1,-1.249050021E0,4.511718302E1
1.159991915E0,-6.469500065E-1,-4.516395187E1,-2.859000206E0,4.525897674E1
1.161956417E0,1.920000076E0,-4.459005356E1,-5.043000221E0,4.491537741E1
1.163920600E0,4.411950111E0,-4.370805359E1,-7.495950222E0,4.456510431E1
1.165883984E0,6.826050282E0,-4.282605362E1,-9.834000587E0,4.446766689E1
1.167847602E0,9.126000404E0,-4.179195023E1,-1.148205090E1,4.429095257E1
1.169811127E0,1.123395061E1,-4.083300018E1,-1.209600067E1,4.404371445E1
1.171774679E0,1.280505085E1,-3.991395187E1,-1.140600014E1,4.344179693E1
1.173738205E0,1.364895058E1,-3.907005310E1,-1.010295010E1,4.260085095E1
1.175701746E0,1.403205109E1,-3.849495316E1,-8.377950668E0,4.182044875E1
1.177665284E0,1.441500092E1,-3.822705078E1,-6.423000336E0,4.135643355E1
1.179628823E0,1.407000065E1,-3.784395218E1,-4.468050003E0,4.062133806E1
1.181592181E0,1.384005070E1,-3.746100235E1,-2.437050104E0,4.001016013E1
1.183555592E0,1.315005016E1,-3.700094986E1,-8.269500136E-1,3.927693924E1
1.185518818E0,1.261395073E1,-3.654104996E1,9.195000678E-2,3.865706326E1
1.187482112E0,1.184700012E1,-3.600405121E1,2.830500007E-1,3.790413213E1
1.189445871E0,1.039095020E1,-3.527595139E1,-1.369500011E-1,3.677476509E1
1.191409494E0,8.320950508E0,-3.427905273E1,-1.287000060E0,3.529798922E1
1.193373019E0,5.599950314E0,-3.286095047E1,-2.704950094E0,3.344425607E1
1.195336573E0,2.380050182E0,-3.098295212E1,-3.855000257E0,3.131244142E1
1.197299199E0,-4.549500346E-1,-2.902800179E1,-4.698000431E0,2.940923452E1
1.199262103E0,-2.946000099E0,-2.741895103E1,-5.158050060E0,2.805500442E1
1.201225885E0,-4.978050232E0,-2.607705116E1,-5.311950207E0,2.707416474E1
1.203189409E0,-6.817050457E0,-2.492700195E1,-5.197050095E0,2.635975973E1
1.205153355E0,-8.311950684E0,-2.385405159E1,-4.890000343E0,2.572967945E1
1.207117178E0,-9.499950409E0,-2.289600182E1,-4.237950325E0,2.514828384E1
1.209080649E0,-1.045905018E1,-2.212995148E1,-3.433950186E0,2.471676550E1
1.211044237E0,-1.130205059E1,-2.128605080E1,-2.590050220E0,2.423923815E1
1.213007722E0,-1.187700081E1,-2.059605026E1,-1.900950074E0,2.385108060E1
1.214971237E0,-1.229805088E1,-1.975305176E1,-1.326000094E0,2.330629497E1
1.216934778E0,-1.245195103E1,-1.902495003E1,-8.269500136E-1,2.275266257E1
1.218898312E0,-1.252800083E1,-1.833495140E1,-4.440000355E-1,2.221077180E1
1.220861858E0,-1.249005032E1,-1.756905174E1,-2.140500098E-1,2.155733642E1
1.222825427E0,-1.245195103E1,-1.691700172E1,-2.205000073E-2,2.100563062E1
1.224789276E0,-1.214505100E1,-1.641900063E1,-2.205000073E-2,2.042269159E1
1.226753043E0,-1.191495037E1,-1.607400131E1,-2.205000073E-2,2.000849936E1
1.228716363E0,-1.156995010E1,-1.588200092E1,-9.900000691E-2,1.964972009E1
1.230679814E0,-1.114800072E1,-1.580505085E1,-2.140500098E-1,1.934226899E1
1.232643381E0,-1.045905018E1,-1.595895100E1,-2.520000041E-1,1.908254049E1
1.234606904E0,-9.769050598E0,-1.618905067E1,-2.910000086E-1,1.891043078E1
1.236570626E0,-8.964000702E0,-1.641900063E1,-2.910000086E-1,1.870886344E1
1.238534289E0,-8.197050095E0,-1.660995102E1,-1.759500057E-1,1.852331130E1
1.240497491E0,-7.546050549E0,-1.672500038E1,-6.105000153E-2,1.834863057E1
1.242460829E0,-7.047000408E0,-1.687905121E1,-9.900000691E-2,1.829131995E1
1.244424565E0,-6.664050102E0,-1.691700172E1,-2.205000073E-2,1.818227151E1
1.246388164E0,-6.319050312E0,-1.695495033E1,9.195000678E-2,1.809445198E1
1.248350972E0,-6.166050434E0,-1.699394989E1,1.680000126E-1,1.807879241E1
1.250314012E0,-5.974050522E0,-1.707000160E1,3.220500052E-1,1.808806099E1
1.252277680E0,-5.743950367E0,-1.722405052E1,4.360500276E-1,1.816180117E1
1.254241164E0,-5.706000328E0,-1.737705040E1,5.509500504E-1,1.829819298E1
1.256205027E0,-5.553000450E0,-1.753005028E1,7.050000429E-1,1.840205156E1
1.258168779E0,-5.361000061E0,-1.776000023E1,1.050000072E0,1.858118484E1
1.260132327E0,-5.092950344E0,-1.806705093E1,1.240950108E0,1.881213517E1
1.262095935E0,-4.824000359E0,-1.837305069E1,1.432950020E0,1.904975897E1
1.264059596E0,-4.363950253E0,-1.867995071E1,1.548000097E0,1.924528318E1
1.266023241E0,-3.865950108E0,-1.906305122E1,1.701000094E0,1.952533978E1
1.267986812E0,-3.214950085E0,-1.936995125E1,1.930950046E0,1.972965999E1
1.269950402E0,-2.601000071E0,-1.960005188E1,2.085000038E0,1.988151051E1
1.271914426E0,-1.911000133E0,-1.971495056E1,2.161050081E0,1.992489234E1
1.273878323E0,-1.183050036E0,-1.986795044E1,2.122950077E0,2.001604304E1
1.275842161E0,-5.700000525E-1,-1.983000183E1,2.008050203E0,1.993956214E1
1.277806017E0,8.100000024E-2,-1.971495056E1,1.816050053E0,1.979858264E1
1.279770275E0,7.699500322E-1,-1.952295113E1,1.548000097E0,1.959935581E1
1.281734409E0,1.230000019E0,-1.929300117E1,1.279950023E0,1.937449526E1
1.283698566E0,1.537050128E0,-1.898700142E1,7.810500264E-1,1.906511959E1
1.285662716E0,1.882050037E0,-1.864200020E1,2.449500114E-1,1.873836397E1
1.287626286E0,2.074050188E0,-1.810500145E1,-2.140500098E-1,1.822466952E1
1.289590026E0,2.341950178E0,-1.768395042E1,-6.739500165E-1,1.785107957E1
1.291553729E0,2.457000017E0,-1.718505096E1,-1.057050109E0,1.739195736E1
1.293517430E0,2.572050095E0,-1.664895058E1,-1.402050018E0,1.690469583E1
1.295480760E0,2.839950085E0,-1.611194992E1,-1.708950043E0,1.644933910E1
1.297444199E0,2.955000162E0,-1.561395073E1,-1.939050078E0,1.600897869E1
1.299407619E0,3.108000040E0,-1.515405083E1,-2.092050076E0,1.561030410E1
1.301371045E0,3.108000040E0,-1.465605068E1,-2.284050226E0,1.515507741E1
1.303334747E0,3.031950235E0,-1.419600105E1,-2.475000143E0,1.472565088E1
1.305298361E0,2.878050089E0,-1.373595047E1,-2.704950094E0,1.429252471E1
1.307261888E0,2.649000168E0,-1.331400108E1,-2.935050249E0,1.388864092E1
1.309225440E0,2.533950090E0,-1.285395050E1,-3.127050161E0,1.346934999E1
1.311189155E0,2.419050217E0,-1.247100067E1,-3.049950123E0,1.306445014E1
1.313152822E0,2.419050217E0,-1.201095104E1,-3.012000084E0,1.261692884E1
1.315116340E0,2.380050182E0,-1.155105019E1,-2.974050045E0,1.216290972E1
1.317079901E0,2.265000105E0,-1.105305099E1,-2.782050133E0,1.162066972E1
1.319043480E0,2.227050066E0,-1.055505085E1,-2.704950094E0,1.112140303E1
1.321007053E0,2.149950027E0,-1.009500027E1,-2.475000143E0,1.061399742E1
1.322970721E0,2.074050188E0,-9.558000565E0,-2.398950100E0,1.007035355E1
1.324934361E0,1.996950150E0,-9.060000420E0,-2.284050226E0,9.554491244E0
1.326897581E0,1.767000079E0,-8.599950790E0,-2.130000114E0,9.034287098E0
1.328860915E0,1.729050040E0,-8.062950134E0,-2.014950037E0,8.488863443E0
1.330824263E0,1.690050125E0,-7.564950466E0,-1.977000117E0,7.999579642E0
1.332787606E0,1.498950124E0,-7.143000126E0,-1.861950040E0,7.532340952E0
1.334751178E0,1.384050012E0,-6.568950176E0,-1.786050081E0,6.946702509E0
1.336714683E0,1.306950092E0,-6.184950352E0,-1.786050081E0,6.568995683E0
1.338678272E0,1.306950092E0,-5.725050449E0,-1.671000123E0,6.105453513E0
1.340641836E0,1.230000019E0,-5.265000343E0,-1.747050047E0,5.682016590E0
1.342605551E0,1.114950061E0,-4.843950272E0,-1.747050047E0,5.268695449E0
1.344569221E0,9.619500637E-1,-4.384050369E0,-1.747050047E0,4.816370982E0
1.346532693E0,8.850000501E-1,-3.924000263E0,-1.900950074E0,4.449113882E0
1.348496223E0,7.699500322E-1,-3.426000118E0,-1.900950074E0,3.992982726E0
1.350459628E0,6.940500140E-1,-2.965950251E0,-1.977000117E0,3.631404105E0
1.352423069E0,7.699500322E-1,-2.506050110E0,-2.092050076E0,3.354069726E0
1.354386578E0,8.089500666E-1,-2.046000004E0,-1.977000117E0,2.957878579E0
1.356350067E0,7.699500322E-1,-1.585950017E0,-1.900950074E0,2.592618694E0
1.358313659E0,8.850000501E-1,-1.126049995E0,-1.824000120E0,2.319092521E0
1.360277221E0,8.850000501E-1,-7.429500222E-1,-1.786050081E0,2.127245805E0
1.362240531E0,8.850000501E-1,-3.210000098E-1,-1.747050047E0,1.984552837E0
1.364203915E0,9.240000248E-1,-5.295000225E-2,-1.708950043E0,1.943473693E0
1.366166759E0,9.619500637E-1,2.530499995E-1,-1.747050047E0,2.010364667E0
1.368129762E0,1.039050102E0,6.739500165E-1,-1.824000120E0,2.204724513E0
1.370093571E0,1.077000022E0,9.810000658E-1,-1.824000120E0,2.334366427E0
1.372057144E0,1.114950061E0,1.326000094E0,-1.861950040E0,2.543275022E0
1.374020683E0,1.153950095E0,1.633050084E0,-2.014950037E0,2.838745683E0
1.375984228E0,1.269000053E0,1.900950074E0,-2.169000149E0,3.150957627E0
1.377947765E0,1.384050012E0,2.092950106E0,-2.322000027E0,3.418730569E0
1.379911305E0,1.651950121E0,2.169000149E0,-2.514000177E0,3.708597813E0
1.381875023E0,1.920000076E0,2.322000027E0,-2.667000055E0,4.023800904E0
1.383838688E0,2.188950062E0,2.361000061E0,-2.935050249E0,4.356643619E0
1.385802201E0,2.380050182E0,2.398950100E0,-3.088950157E0,4.578341788E0
1.387765762E0,2.494950056E0,2.551950216E0,-3.127050161E0,4.745067797E0
1.389729116E0,2.572050095E0,2.551950216E0,-3.204000235E0,4.836683688E0
1.391692531E0,2.572050095E0,2.590950012E0,-3.394950151E0,4.985393684E0
1.393655775E0,2.686950207E0,2.551950216E0,-3.433950186E0,5.052144614E0
1.395619069E0,2.725050211E0,2.551950216E0,-3.510000229E0,5.124299968E0
1.397582848E0,2.764050245E0,2.551950216E0,-3.664050102E0,5.251446164E0
1.399546471E0,2.725050211E0,2.590950012E0,-3.586950064E0,5.196646166E0
1.401509996E0,2.686950207E0,2.551950216E0,-3.739950180E0,5.264919626E0
1.403473550E0,2.610000134E0,2.476050138E0,-3.739950180E0,5.189426976E0
1.405437041E0,2.572050095E0,2.437050104E0,-3.817050219E0,5.208121280E0
1.407400550E0,2.419050217E0,2.361000061E0,-3.855000257E0,5.127099787E0
1.409363937E0,2.227050066E0,2.322000027E0,-3.894000292E0,5.051205242E0
1.411327343E0,2.035050154E0,2.169000149E0,-4.047000408E0,5.022370265E0
1.413290544E0,1.843950033E0,2.053950071E0,-4.237950325E0,5.057577046E0
1.415253805E0,1.690050125E0,1.786050081E0,-4.429950237E0,5.066626434E0
1.417217030E0,1.614000082E0,1.363950014E0,-4.736999989E0,5.186957181E0
1.419180266E0,1.690050125E0,9.430500269E-1,-5.235000134E0,5.581293683E0
1.421144576E0,1.729050040E0,3.679500222E-1,-5.733000278E0,5.999357753E0
1.423108572E0,1.882050037E0,-1.680000126E-1,-6.691050529E0,6.952732811E0
1.425071853E0,1.996950150E0,-7.039500475E-1,-7.995000362E0,8.270633976E0
1.427035343E0,2.265000105E0,-1.356000066E0,-9.373950005E0,9.738577942E0
1.428998934E0,2.494950056E0,-1.930950046E0,-1.048605061E1,1.095036991E1
1.430962495E0,2.839950085E0,-2.506050110E0,-1.159695053E1,1.219978956E1
1.432926177E0,3.108000040E0,-2.965950251E0,-1.228695011E1,1.301636156E1
1.434889847E0,3.337950230E0,-3.426000118E0,-1.278600025E1,1.365141718E1
1.436853543E0,3.529950142E0,-3.732000113E0,-1.263195038E1,1.363651507E1
1.438817231E0,3.529950142E0,-3.961950302E0,-1.155900097E1,1.271880897E1
1.440780880E0,3.453000069E0,-4.153950214E0,-1.037100029E1,1.169342374E1
1.442744541E0,3.453000069E0,-4.306950092E0,-9.373950005E0,1.087860135E1
1.444708242E0,3.492000103E0,-4.384050369E0,-8.608050346E0,1.027192743E1
1.446671928E0,3.568050146E0,-4.498950005E0,-7.956000328E0,9.811700883E0
1.448635081E0,3.760050297E0,-4.575000286E0,-7.228050232E0,9.344159460E0
1.450598391E0,4.105050087E0,-4.804950237E0,-6.499950409E0,9.065778418E0
1.452562013E0,4.411950111E0,-4.882050037E0,-5.925000191E0,8.854679193E0
1.454525543E0,4.450050354E0,-4.767000198E0,-5.503050327E0,8.532924584E0
1.456489098E0,4.411950111E0,-4.614000320E0,-5.005050182E0,8.112017633E0
1.458452635E0,4.450050354E0,-4.461000443E0,-4.545000076E0,7.769201941E0
1.460415994E0,4.411950111E0,-4.384050369E0,-4.162050247E0,7.483840170E0
1.462379406E0,4.564949989E0,-4.306950092E0,-3.778950214E0,7.325916477E0
1.464342606E0,4.717950344E0,-4.269000053E0,-3.433950186E0,7.230175017E0
1.466305868E0,4.795050144E0,-4.116000175E0,-3.012000084E0,7.000436260E0
1.468269097E0,4.795050144E0,-4.000950336E0,-2.322000027E0,6.662716683E0
1.470232333E0,4.833000183E0,-3.961950302E0,-1.555950046E0,6.440180239E0
1.472195742E0,4.909950256E0,-3.886050224E0,-9.040500522E-1,6.326634521E0
1.474159101E0,4.872000217E0,-3.771000147E0,-6.105000153E-2,6.161213787E0
1.476121770E0,4.795050144E0,-3.732000113E0,7.050000429E-1,6.116972763E0
1.478084641E0,4.642050266E0,-3.579000235E0,1.432950020E0,6.034170955E0
1.480048263E0,4.450050354E0,-3.426000118E0,2.085000038E0,5.990630194E0
1.482011654E0,4.219950199E0,-3.234000206E0,2.812950134E0,6.014933539E0
1.483975038E0,3.874950171E0,-3.042000055E0,3.541050196E0,6.066962967E0
1.485938425E0,3.529950142E0,-2.812050104E0,4.231050014E0,6.186271738E0
1.487901268E0,3.262050152E0,-2.506050110E0,4.921050072E0,6.413890563E0
1.489864271E0,2.917050123E0,-2.238000154E0,5.457000256E0,6.580021117E0
1.491827527E0,2.419050217E0,-1.893000126E0,5.956050396E0,6.701476684E0
1.493790750E0,1.996950150E0,-1.624050021E0,6.301050186E0,6.806510253E0
1.495754162E0,1.459950089E0,-1.393950105E0,6.531000137E0,6.835825770E0
1.497717519E0,1.230000019E0,-1.048950076E0,6.799050331E0,6.988582239E0
1.499680864E0,9.240000248E-1,-7.429500222E-1,6.837000370E0,6.939043511E0
1.501644213E0,6.169500351E-1,-4.740000367E-1,6.837000370E0,6.881124722E0
1.503606538E0,4.639500082E-1,-2.440500110E-1,6.799050331E0,6.819229826E0
1.505569152E0,3.870000243E-1,-1.290000081E-1,6.721950531E0,6.734317260E0
1.507531587E0,3.109500110E-1,-1.500000060E-2,6.607050419E0,6.614380557E0
1.509494075E0,2.719500065E-1,1.380000114E-1,6.454050541E0,6.461251364E0
1.511457657E0,3.109500110E-1,2.910000086E-1,6.262050152E0,6.276515197E0
1.513420919E0,2.340000123E-1,4.060500264E-1,6.070950508E0,6.089012457E0
1.515384505E0,2.340000123E-1,7.129500508E-1,5.994000435E0,6.040785958E0
1.517347996E0,1.570500135E-1,8.280000687E-1,5.841000080E0,5.901485470E0
1.519311543E0,-3.299999982E-2,9.810000658E-1,5.649000168E0,5.733642213E0
1.521275073E0,-2.629500031E-1,1.057950020E0,5.419050217E0,5.527613065E0
1.523238253E0,-6.079500318E-1,1.096050024E0,5.266050339E0,5.413152045E0
1.525201536E0,-9.529500604E-1,1.173000097E0,5.035950184E0,5.257835800E0
1.527164896E0,-1.260000110E0,1.249050021E0,4.843950272E0,5.158641339E0
1.529128231E0,-1.528050065E0,1.210950017E0,4.729050159E0,5.115198174E0
1.531091445E0,-1.795950055E0,1.210950017E0,4.690950394E0,5.166899664E0
1.533054694E0,-1.950000048E0,1.249050021E0,4.576050282E0,5.128631623E0
1.535017966E0,-2.026050091E0,1.210950017E0,4.576050282E0,5.148933394E0
1.536981231E0,-2.065050125E0,1.326000094E0,4.576050282E0,5.192585526E0
1.538944438E0,-2.140950203E0,1.363950014E0,4.653000355E0,5.300418824E0
1.540907675E0,-2.256000042E0,1.441050053E0,4.537950039E0,5.268695474E0
1.542870905E0,-2.218050003E0,1.555950046E0,4.614000320E0,5.350675221E0
1.544834137E0,-2.256000042E0,1.594050050E0,4.614000320E0,5.377688231E0
1.546797367E0,-2.218050003E0,1.633050084E0,4.576050282E0,5.341051823E0
1.548760598E0,-2.179949999E0,1.633050084E0,4.576050282E0,5.325342313E0
1.550724169E0,-2.256000042E0,1.708950043E0,4.576050282E0,5.380546684E0
1.552687654E0,-2.332950115E0,1.786050081E0,4.614000320E0,5.470066735E0
1.554651157E0,-2.332950115E0,1.863000035E0,4.653000355E0,5.528457079E0
1.556614654E0,-2.256000042E0,1.900950074E0,4.690950394E0,5.541494651E0
1.558578245E0,-2.218050003E0,1.900950074E0,4.729050159E0,5.558531498E0
1.560541808E0,-2.140950203E0,1.939050078E0,4.729050159E0,5.541434687E0
1.562505533E0,-1.987950087E0,1.939050078E0,4.843950272E0,5.583521737E0
1.564469203E0,-1.950000048E0,2.016000032E0,4.882050037E0,5.630379107E0
1.566433034E0,-1.834950089E0,2.092950106E0,4.959000111E0,5.686753386E0
1.568396818E0,-1.795950055E0,2.169000149E0,5.188950062E0,5.903829350E0
1.570360496E0,-1.642950058E0,2.169000149E0,5.304000378E0,5.961230288E0
1.572324205E0,-1.489950061E0,2.284050226E0,5.419050217E0,6.066542827E0
1.574288077E0,-1.375050068E0,2.322000027E0,5.572050095E0,6.191137946E0
1.576251899E0,-1.336950064E0,2.437050104E0,5.686950207E0,6.329932965E0
1.578215390E0,-1.375050068E0,2.590950012E0,5.686950207E0,6.398842654E0
1.580178978E0,-1.375050068E0,2.667000055E0,5.611050129E0,6.362981654E0
1.582142687E0,-1.452000022E0,2.706000090E0,5.380950451E0,6.195592652E0
1.584106360E0,-1.567050099E0,2.743950129E0,4.729050159E0,5.687602635E0
1.586069678E0,-1.720050097E0,2.667000055E0,3.733050108E0,4.899706597E0
1.588033113E0,-1.834950089E0,2.590950012E0,2.773950100E0,4.216024544E0
1.589996534E0,-1.911000133E0,2.476050138E0,1.816050053E0,3.616736594E0
1.591959959E0,-2.026050091E0,2.437050104E0,1.087950110E0,3.350780151E0
1.593924057E0,-2.140950203E0,2.284050226E0,3.600000143E-1,3.151214562E0
1.595887957E0,-2.179949999E0,2.208000183E0,-2.140500098E-1,3.110187167E0
1.597851556E0,-2.371050119E0,2.131050110E0,-6.360000372E-1,3.250807482E0
1.599815253E0,-2.563050032E0,2.016000032E0,-7.510500550E-1,3.346275210E0
1.601778584E0,-2.793000221E0,1.978050113E0,-9.810000658E-1,3.560322122E0
1.603742022E0,-3.061050177E0,1.824000120E0,-1.096050024E0,3.728046442E0
1.605705622E0,-3.330000162E0,1.708950043E0,-1.134000063E0,3.910929234E0
1.607669174E0,-3.751050234E0,1.441050053E0,-1.171950102E0,4.185746069E0
1.609632691E0,-4.173000336E0,1.096050024E0,-1.249050021E0,4.491701617E0
1.611596233E0,-4.555950165E0,5.980500579E-1,-1.326000094E0,4.782533014E0
1.613560626E0,-4.978050232E0,-1.500000060E-2,-1.708950043E0,5.263242286E0
1.615524769E0,-5.476050377E0,-5.130000114E-1,-2.245050192E0,5.940584744E0
1.617488430E0,-5.974050522E0,-1.509000063E0,-3.280050039E0,6.980335886E0
1.619452233E0,-6.280950069E0,-2.773950100E0,-6.805950165E0,9.667786229E0
1.621415870E0,-6.357000351E0,-4.767000198E0,-4.237950325E0,9.005329939E0
1.623379549E0,-6.586950302E0,-6.568950176E0,-3.894000292E0,1.008475379E1
1.625343108E0,-6.970950127E0,-8.638050079E0,-4.545000076E0,1.199446041E1
1.627306703E0,-7.813950539E0,-1.162800026E1,-4.468050003E0,1.470481839E1
1.629270232E0,-8.964000702E0,-1.542195034E1,-4.353000164E0,1.836133087E1
1.631233780E0,-1.018995094E1,-1.952295113E1,-4.582950115E0,2.249409151E1
1.633197446E0,-1.114800072E1,-2.316405106E1,-4.890000343E0,2.616798205E1
1.635161081E0,-1.195305061E1,-2.665200043E1,-4.890000343E0,2.961615520E1
1.637124828E0,-1.245195103E1,-3.075300217E1,-4.429950237E0,3.347271554E1
1.639088542E0,-1.264305019E1,-3.519900131E1,-3.778950214E0,3.759118083E1
1.641052187E0,-1.237500095E1,-3.949200058E1,-3.049950123E0,4.149772228E1
1.643015852E0,-1.153200054E1,-4.344000244E1,-2.896950245E0,4.503790814E1
1.644979778E0,-9.730050087E0,-4.700400162E1,-2.322000027E0,4.805665122E1
1.646943624E0,-7.201050282E0,-4.980195236E1,-1.326000094E0,5.033734062E1
1.648907246E0,-4.441050053E0,-5.210205078E1,-5.209500194E-1,5.229357523E1
1.650870934E0,-1.605000019E0,-5.386500168E1,1.300500035E-1,5.388906516E1
1.652835527E0,9.240000248E-1,-5.551305389E1,1.500000060E-2,5.552074526E1
1.654799855E0,2.725050211E0,-5.677800369E1,-4.440000355E-1,5.684509423E1
1.656763266E0,4.411950111E0,-5.777400208E1,-2.130000114E0,5.798135493E1
1.658726973E0,5.944950104E0,-5.838705444E1,-4.890000343E0,5.889229713E1
1.660690302E0,8.206049919E0,-5.934600449E1,-9.451050758E0,6.065154461E1
1.662653742E0,1.154100037E1,-6.026505280E1,-1.577505112E1,6.335553264E1
1.664617612E0,1.495200062E1,-6.095505142E1,-2.347905159E1,6.701004760E1
1.666581356E0,1.794105148E1,-6.141495132E1,-3.010995102E1,7.071270554E1
1.668544516E0,1.993395042E1,-6.122400284E1,-3.447900009E1,7.303795144E1
1.670507867E0,2.104605103E1,-6.053400421E1,-3.566699982E1,7.334464401E1
1.672471256E0,2.085405159E1,-5.907705307E1,-3.256305313E1,7.060695501E1
1.674434634E0,2.043300056E1,-5.727600098E1,-2.715795135E1,6.660031623E1
1.676397976E0,1.974300003E1,-5.470800400E1,-2.029800034E1,6.160162798E1
1.678361329E0,1.893795013E1,-5.202495193E1,-1.378200054E1,5.705422962E1
1.680324806E0,1.813305092E1,-4.991700363E1,-7.840950489E0,5.368421827E1
1.682288216E0,1.744305038E1,-4.780905151E1,-2.974050045E0,5.097852869E1
1.684251732E0,1.629300117E1,-4.570095062E1,5.295000225E-2,4.851846637E1
1.686215216E0,1.399305058E1,-4.294095230E1,5.295000225E-2,4.516341055E1
1.688178585E0,1.100400066E1,-3.979905319E1,-2.551950216E0,4.137106616E1
1.690141987E0,8.128950119E0,-3.669405365E1,-6.040050507E0,3.806593771E1
1.692105509E0,5.215950012E0,-3.374295044E1,-9.604050636E0,3.546872746E1
1.694069023E0,2.533950090E0,-3.125100136E1,-1.286205101E1,3.388920691E1
1.696031531E0,-3.019500077E-1,-2.891400146E1,-1.454895115E1,3.236947071E1
1.697994333E0,-2.985000134E0,-2.676705170E1,-1.512405109E1,3.088886861E1
1.699957771E0,-5.131050110E0,-2.523405075E1,-1.450995064E1,2.955712537E1
1.701921023E0,-6.970950127E0,-2.396895027E1,-1.316895103E1,2.822279210E1
1.703884626E0,-8.236050606E0,-2.293395042E1,-1.106100082E1,2.676087351E1
1.705848115E0,-9.079050064E0,-2.182305145E1,-8.455050468E0,2.510303972E1
1.707811662E0,-1.003695011E1,-2.052000046E1,-5.656950474E0,2.353320792E1
1.709775192E0,-1.072695065E1,-1.902495003E1,-3.165000200E0,2.206883368E1
1.711738057E0,-1.130205059E1,-1.768395042E1,-1.171950102E0,2.101979822E1
1.713701117E0,-1.180005074E1,-1.653404999E1,3.979500234E-1,2.031684943E1
1.715664657E0,-1.210695076E1,-1.549905109E1,1.356000066E0,1.971389301E1
1.717628081E0,-1.214505100E1,-1.454100037E1,1.777950048E0,1.902903208E1
1.719591460E0,-1.218300056E1,-1.385100079E1,2.353049994E0,1.859603640E1
1.721554852E0,-1.214505100E1,-1.308405018E1,3.043050051E0,1.810952199E1
1.723518460E0,-1.183800030E1,-1.247100067E1,3.655950069E0,1.757925140E1
1.725482004E0,-1.153200054E1,-1.204905033E1,3.771000147E0,1.709933018E1
1.727445687E0,-1.099500084E1,-1.170405102E1,3.463950157E0,1.642783627E1
1.729409322E0,-1.053495026E1,-1.147395039E1,3.118950129E0,1.588598641E1
1.731372665E0,-9.999000549E0,-1.139805031E1,2.812950134E0,1.542103276E1
1.733336093E0,-9.654000282E0,-1.139805031E1,2.545050144E0,1.515231179E1
1.735299515E0,-9.385050774E0,-1.143600082E1,2.161050081E0,1.495096754E1
1.737262939E0,-9.232050896E0,-1.158900070E1,1.893000126E0,1.493717344E1
1.739226631E0,-9.193950653E0,-1.170405102E1,1.701000094E0,1.498021829E1
1.741190245E0,-9.193950653E0,-1.189605045E1,1.471050024E0,1.510657914E1
1.743153817E0,-9.270000458E0,-1.204905033E1,1.395000100E0,1.526625519E1
1.745117401E0,-9.154950142E0,-1.224105072E1,1.203000069E0,1.533308984E1
1.747080706E0,-9.193950653E0,-1.227900028E1,1.011000037E0,1.537285587E1
1.749044093E0,-9.117000580E0,-1.250895023E1,6.660000086E-1,1.549313046E1
1.751007687E0,-9.154950142E0,-1.281600094E1,5.899500251E-1,1.576106066E1
1.752971230E0,-9.385050774E0,-1.312305069E1,3.600000143E-1,1.613763420E1
1.754934724E0,-9.499950409E0,-1.354395103E1,4.750500321E-1,1.655032749E1
1.756898232E0,-9.232050896E0,-1.404195023E1,7.429500222E-1,1.682138831E1
1.758861820E0,-8.656949997E0,-1.454100037E1,7.810500264E-1,1.694088292E1
1.760825384E0,-7.431000233E0,-1.538400078E1,7.810500264E-1,1.710255196E1
1.762788689E0,-6.319050312E0,-1.618905067E1,7.050000429E-1,1.739289463E1
1.764752073E0,-5.437950134E0,-1.672500038E1,7.050000429E-1,1.760096487E1
1.766715323E0,-4.633050442E0,-1.691700172E1,8.580000401E-1,1.756093015E1
1.768678612E0,-3.865950108E0,-1.699394989E1,1.165050030E0,1.746703308E1
1.770642012E0,-3.214950085E0,-1.695495033E1,1.395000100E0,1.731335525E1
1.772605379E0,-2.677950144E0,-1.676399994E1,1.510050058E0,1.704357246E1
1.774568786E0,-2.065050125E0,-1.664895058E1,1.624950051E0,1.685504227E1
1.776532167E0,-1.144950032E0,-1.645695114E1,1.624950051E0,1.657656822E1
1.778496273E0,-2.250000089E-1,-1.615005112E1,1.777950048E0,1.624918098E1
1.780460167E0,6.169500351E-1,-1.572900105E1,1.777950048E0,1.584118706E1
1.782423961E0,1.306950092E0,-1.519200039E1,1.930950046E0,1.536989143E1
1.784387784E0,1.959000111E0,-1.465605068E1,2.085000038E0,1.493267318E1
1.786350913E0,2.764050245E0,-1.411905098E1,2.430000067E0,1.459083530E1
1.788314246E0,3.453000069E0,-1.365900040E1,2.889000177E0,1.438185744E1
1.790277864E0,4.335000038E0,-1.316100025E1,3.310950041E0,1.424663269E1
1.792241398E0,5.062950134E0,-1.266300106E1,3.808950186E0,1.415956078E1
1.794205073E0,5.560950279E0,-1.216395092E1,4.039050102E0,1.397139205E1
1.796168706E0,6.097950459E0,-1.174305058E1,3.963000298E0,1.381266115E1
1.798132610E0,6.634950161E0,-1.132095051E1,3.963000298E0,1.370736501E1
1.800096419E0,6.865050316E0,-1.086105061E1,3.963000298E0,1.344606662E1
1.802059957E0,6.903000355E0,-1.036305046E1,3.963000298E0,1.306711904E1
1.804023575E0,6.673050404E0,-9.826050758E0,3.963000298E0,1.252143149E1
1.805987414E0,6.405000210E0,-9.250950813E0,3.963000298E0,1.192935413E1
1.807951188E0,6.136050224E0,-8.715000153E0,3.655950069E0,1.126802161E1
1.809914732E0,5.752950191E0,-8.140049934E0,3.388050079E0,1.052785506E1
1.811878344E0,5.331000328E0,-7.527000427E0,3.118950129E0,9.736690908E0
1.813841825E0,4.987050056E0,-6.952050209E0,3.004050255E0,9.067854670E0
1.815805344E0,4.717950344E0,-6.492000103E0,2.965950251E0,8.555815664E0
1.817768930E0,4.527000427E0,-6.031950474E0,2.851050138E0,8.062669922E0
1.819732496E0,4.335000038E0,-5.649000168E0,2.659050226E0,7.600919440E0
1.821696141E0,4.182000160E0,-5.265000343E0,2.275950193E0,7.098542332E0
1.823659780E0,4.105050087E0,-4.920000076E0,1.701000094E0,6.629573010E0
1.825623122E0,3.952050209E0,-4.614000320E0,1.318050027E0,6.216506711E0
1.827586551E0,3.798000097E0,-4.192049980E0,5.899500251E-1,5.687365718E0
1.829550828E0,3.682950258E0,-3.771000147E0,1.500000060E-2,5.271127936E0
1.831514856E0,3.645000219E0,-3.426000118E0,-4.819500148E-1,5.025512832E0
1.833477986E0,3.568050146E0,-3.042000055E0,-1.134000063E0,4.823971634E0
1.835441387E0,3.492000103E0,-2.659050226E0,-1.402050018E0,4.607641162E0
1.837404588E0,3.453000069E0,-2.391000032E0,-1.824000120E0,4.578981008E0
1.839367848E0,3.568050146E0,-1.969050050E0,-2.169000149E0,4.616568161E0
1.841331253E0,3.568050146E0,-1.585950017E0,-2.398950100E0,4.582704538E0
1.843294616E0,3.645000219E0,-1.318050027E0,-2.590050220E0,4.661720993E0
1.845258372E0,3.721950293E0,-1.011000037E0,-2.896950245E0,4.823624755E0
1.847221976E0,3.798000097E0,-6.280500293E-1,-3.165000200E0,4.983620957E0
1.849184829E0,3.913050175E0,-3.210000098E-1,-3.394950151E0,5.190442101E0
1.851147902E0,3.990000248E0,-1.290000081E-1,-3.586950064E0,5.366838337E0
1.853110619E0,3.990000248E0,6.105000153E-2,-3.970050097E0,5.628954330E0
1.855073440E0,4.066950321E0,2.910000086E-1,-4.237950325E0,5.880900346E0
1.857037060E0,4.105050087E0,6.360000372E-1,-4.582950115E0,6.185415428E0
1.859000443E0,4.105050087E0,8.659500480E-1,-4.966950417E0,6.501684562E0
1.860964008E0,4.066950321E0,1.057950020E0,-5.272950172E0,6.742651309E0
1.862927520E0,3.990000248E0,1.249050021E0,-5.580000401E0,6.972562829E0
1.864891063E0,3.837000132E0,1.363950014E0,-5.925000191E0,7.189475427E0
1.866854597E0,3.568050146E0,1.479000092E0,-6.117000103E0,7.234370282E0
1.868818136E0,3.337950230E0,1.479000092E0,-6.460950375E0,7.421134196E0
1.870781674E0,2.917050123E0,1.441050053E0,-6.652950287E0,7.405913461E0
1.872745393E0,2.419050217E0,1.249050021E0,-6.768000126E0,7.295050076E0
1.874709058E0,1.767000079E0,9.430500269E-1,-6.883050442E0,7.168543507E0
1.876672441E0,1.269000053E0,7.129500508E-1,-6.997950554E0,7.147724873E0
1.878635907E0,7.320000529E-1,3.289500177E-1,-7.150950432E0,7.195840762E0
1.880599810E0,1.570500135E-1,6.105000153E-2,-7.266000271E0,7.267953752E0
1.882563558E0,-3.400500119E-1,-1.680000126E-1,-7.266000271E0,7.275892932E0
1.884527242E0,-7.620000243E-1,-3.210000098E-1,-7.305000305E0,7.351647060E0
1.886490945E0,-1.068000078E0,-6.280500293E-1,-7.228050232E0,7.333469926E0
1.888454455E0,-1.260000110E0,-8.959500194E-1,-7.113000393E0,7.279086571E0
1.890418022E0,-1.336950064E0,-1.203000069E0,-6.805950165E0,7.039574013E0
1.892381720E0,-1.297950029E0,-1.509000063E0,-6.423000336E0,6.724335564E0
1.894345390E0,-1.260000110E0,-1.701000094E0,-6.117000103E0,6.472919887E0
1.896309132E0,-1.183050036E0,-1.854000092E0,-5.733000278E0,6.140375878E0
1.898272852E0,-1.222050071E0,-1.969050050E0,-5.272950172E0,5.759736799E0
1.900236675E0,-1.222050071E0,-2.083950043E0,-4.774950027E0,5.351299087E0
1.902200467E0,-1.260000110E0,-2.083950043E0,-4.353000164E0,4.987891186E0
1.904164177E0,-1.297950029E0,-2.008050203E0,-3.894000292E0,4.569483359E0
1.906127887E0,-1.336950064E0,-2.046000004E0,-3.394950151E0,4.183209058E0
1.908091080E0,-1.336950064E0,-1.969050050E0,-2.935050249E0,3.778771432E0
1.910054425E0,-1.375050068E0,-1.930950046E0,-2.398950100E0,3.372579480E0
1.912017951E0,-1.413000107E0,-1.854000092E0,-1.939050078E0,3.032128105E0
1.913981423E0,-1.375050068E0,-1.893000126E0,-1.479000092E0,2.767969190E0
1.915944679E0,-1.413000107E0,-1.777950048E0,-9.420000315E-1,2.458666251E0
1.917907984E0,-1.413000107E0,-1.624050021E0,-5.590500236E-1,2.224105371E0
1.919871336E0,-1.336950064E0,-1.585950017E0,-1.369500011E-1,2.078804520E0
1.921834674E0,-1.336950064E0,-1.548000097E0,2.449500114E-1,2.060034049E0
1.923797346E0,-1.297950029E0,-1.548000097E0,6.280500293E-1,2.115520130E0
1.925760214E0,-1.260000110E0,-1.471050024E0,1.011000037E0,2.184882039E0
1.927723931E0,-1.222050071E0,-1.509000063E0,1.356000066E0,2.368379983E0
1.929687385E0,-1.144950032E0,-1.509000063E0,1.510050058E0,2.422445654E0
1.931650938E0,-1.106999993E0,-1.548000097E0,1.701000094E0,2.552480090E0
1.933614462E0,-1.068000078E0,-1.509000063E0,1.930950046E0,2.673251473E0
1.935577779E0,-9.529500604E-1,-1.509000063E0,2.200050116E0,2.832916433E0
1.937541157E0,-9.529500604E-1,-1.548000097E0,2.467950106E0,3.065158372E0
1.939504542E0,-8.380500674E-1,-1.585950017E0,2.659050226E0,3.207508921E0
1.941467924E0,-7.620000243E-1,-1.624050021E0,2.965950251E0,3.466272262E0
1.943431535E0,-7.230000496E-1,-1.624050021E0,3.157950163E0,3.623936640E0
1.945395078E0,-6.469500065E-1,-1.663050056E0,3.310950041E0,3.761205920E0
1.947358796E0,-5.700000525E-1,-1.663050056E0,3.579000235E0,3.987465138E0
1.949322462E0,-4.549500346E-1,-1.663050056E0,3.886050224E0,4.251364648E0
1.951286148E0,-3.400500119E-1,-1.663050056E0,4.078050137E0,4.417223383E0
1.953249805E0,-2.629500031E-1,-1.624050021E0,4.345950127E0,4.646930565E0
1.955213323E0,-1.870500147E-1,-1.585950017E0,4.614000320E0,4.882542793E0
1.957176882E0,4.050000105E-3,-1.585950017E0,4.806000233E0,5.060918108E0
1.959140101E0,4.050000105E-3,-1.548000097E0,5.035950184E0,5.268502155E0
1.961103420E0,4.050000105E-3,-1.509000063E0,5.266050339E0,5.477990851E0
1.963067101E0,4.200000316E-2,-1.432950020E0,5.496000290E0,5.679888110E0
1.965030697E0,1.570500135E-1,-1.356000066E0,5.686950207E0,5.848487286E0
1.966994091E0,2.340000123E-1,-1.318050027E0,5.802000046E0,5.954428303E0
1.968957545E0,2.340000123E-1,-1.240950108E0,5.917050362E0,6.050305625E0
1.970920738E0,2.719500065E-1,-1.164000034E0,5.956050396E0,6.074815981E0
1.972884007E0,3.109500110E-1,-1.048950076E0,5.994000435E0,6.093031051E0
1.974847731E0,2.719500065E-1,-8.959500194E-1,5.917050362E0,5.990673437E0
1.976811318E0,3.490500152E-1,-7.810500264E-1,5.917050362E0,5.978575084E0
1.978774849E0,3.490500152E-1,-5.890500546E-1,5.764050484E0,5.804575252E0
1.980738396E0,2.340000123E-1,-4.360500276E-1,5.649000168E0,5.670634755E0
1.982701753E0,1.189500093E-1,-2.440500110E-1,5.419050217E0,5.425846917E0
1.984665166E0,4.200000316E-2,-1.290000081E-1,5.112000465E0,5.113800325E0
1.986628005E0,-7.200000435E-2,-1.500000060E-2,4.806000233E0,4.806562934E0
1.988591012E0,-3.019500077E-1,2.910000086E-1,4.461000443E0,4.480667334E0
1.990554641E0,-4.549500346E-1,5.590500236E-1,4.039050102E0,4.102857808E0
1.992518087E0,-5.700000525E-1,8.659500480E-1,3.733050108E0,3.874329962E0
1.994481462E0,-7.230000496E-1,1.134000063E0,3.310950041E0,3.573664140E0
1.996444858E0,-7.620000243E-1,1.363950014E0,2.889000177E0,3.284406446E0
1.998408420E0,-7.620000243E-1,1.594050050E0,2.391000032E0,2.972964977E0
2.000371933E0,-7.999500632E-1,1.824000120E0,1.855050087E0,2.721783858E0
2.002335521E0,-7.620000243E-1,1.978050113E0,1.510050058E0,2.602609741E0
2.004299087E0,-7.230000496E-1,2.131050110E0,1.165050030E0,2.534057066E0
2.006263342E0,-6.079500318E-1,2.245950222E0,6.280500293E-1,2.410050307E0
2.008227395E0,-3.780000210E-1,2.245950222E0,1.300500035E-1,2.281247338E0
2.010190856E0,-2.629500031E-1,2.322000027E0,-2.910000086E-1,2.354890196E0
2.012154483E0,-1.870500147E-1,2.322000027E0,-7.120500207E-1,2.435916063E0
2.014118141E0,-1.099500060E-1,2.398950100E0,-1.171950102E0,2.672174700E0
2.016081789E0,-3.299999982E-2,2.398950100E0,-1.516950130E0,2.838518677E0
2.018045174E0,1.189500093E-1,2.361000061E0,-1.900950074E0,3.033493296E0
2.020008637E0,2.340000123E-1,2.284050226E0,-2.245050192E0,3.211213448E0
2.021972172E0,3.109500110E-1,2.245950222E0,-2.590050220E0,3.442287387E0
2.023935697E0,4.260000288E-1,2.322000027E0,-2.935050249E0,3.766653702E0
2.025900139E0,5.790000558E-1,2.245950222E0,-3.165000200E0,3.923870504E0
2.027864313E0,7.320000529E-1,2.208000183E0,-3.319050074E0,4.053046049E0
2.029827744E0,9.619500637E-1,2.131050110E0,-3.433950186E0,4.154363534E0
2.031791392E0,1.192050099E0,2.053950071E0,-3.586950064E0,4.301849032E0
2.033754537E0,1.345050097E0,1.900950074E0,-3.739950180E0,4.405677961E0
2.035717839E0,1.459950089E0,1.786050081E0,-3.778950214E0,4.427402611E0
2.037681372E0,1.767000079E0,1.747950077E0,-3.778950214E0,4.523061295E0
2.039644837E0,2.149950027E0,1.594050050E0,-3.778950214E0,4.630739186E0
2.041608433E0,2.494950056E0,1.441050053E0,-3.664050102E0,4.661186993E0
2.043571991E0,2.878050089E0,1.363950014E0,-3.625050068E0,4.825403605E0
2.045535357E0,3.108000040E0,1.249050021E0,-3.549000263E0,4.880081257E0
2.047498772E0,3.376950264E0,1.210950017E0,-3.433950186E0,4.966105809E0
2.049462511E0,3.645000219E0,1.096050024E0,-3.280050039E0,5.024547792E0
2.051426155E0,3.874950171E0,1.057950020E0,-3.127050161E0,5.090475398E0
2.053389991E0,3.990000248E0,1.057950020E0,-2.820000172E0,4.999176051E0
2.055353770E0,4.143000126E0,9.810000658E-1,-2.590050220E0,4.983489873E0
2.057317647E0,4.219950199E0,8.659500480E-1,-2.322000027E0,4.893826038E0
2.059281482E0,4.182000160E0,7.890000343E-1,-1.939050078E0,4.676704139E0
2.061245330E0,4.066950321E0,6.739500165E-1,-1.632000089E0,4.433702497E0
2.063209174E0,3.913050175E0,6.739500165E-1,-1.171950102E0,4.140004509E0
2.065172706E0,3.798000097E0,6.739500165E-1,-7.510500550E-1,3.929769656E0
2.067136330E0,3.721950293E0,7.129500508E-1,-2.140500098E-1,3.795659253E0
2.069099284E0,3.760050297E0,7.510500550E-1,3.220500052E-1,3.847826741E0
2.071062455E0,3.760050297E0,8.659500480E-1,8.959500194E-1,3.961132939E0
2.073025695E0,3.837000132E0,9.040500522E-1,1.395000100E0,4.181614734E0
2.074988914E0,3.874950171E0,1.018950105E0,1.740000129E0,4.368191684E0
2.076952462E0,3.952050209E0,1.096050024E0,2.122950077E0,4.618110386E0
2.078915914E0,3.990000248E0,1.134000063E0,2.467950106E0,4.826679588E0
2.080879103E0,4.143000126E0,1.173000097E0,2.851050138E0,5.164190756E0
2.082842373E0,4.488000393E0,1.173000097E0,2.812950134E0,5.425012923E0
2.084805821E0,6.903000355E0,1.708950043E0,2.046000004E0,7.399867577E0
2.086769217E0,5.638050079E0,1.555950046E0,2.812950134E0,6.490090731E0
2.088732420E0,4.872000217E0,1.326000094E0,3.234000206E0,5.996117052E0
2.090695680E0,4.987050056E0,1.402950048E0,2.928000212E0,5.950808545E0
2.092659270E0,4.795050144E0,1.402950048E0,2.583000183E0,5.624292371E0
2.094622760E0,4.564949989E0,1.173000097E0,2.122950077E0,5.169295374E0
2.096586128E0,4.182000160E0,1.018950105E0,1.585950017E0,4.587223791E0
2.098549532E0,3.262050152E0,9.040500522E-1,1.240950108E0,3.605306486E0
2.100513633E0,2.035050154E0,6.360000372E-1,4.360500276E-1,2.176250170E0
2.102477530E0,1.114950061E0,2.140500098E-1,-7.120500207E-1,1.340129202E0
2.104440808E0,4.260000288E-1,-2.830500007E-1,-2.053950071E0,2.116672914E0
2.106404281E0,4.200000316E-2,-8.959500194E-1,-3.472050190E0,3.586031645E0
2.108367470E0,-2.250000089E-1,-1.624050021E0,-4.774950027E0,5.048594977E0
2.110330742E0,-4.170000255E-1,-2.391000032E0,-5.925000191E0,6.402842918E0
2.112294145E0,-5.700000525E-1,-3.042000055E0,-6.576000214E0,7.267905008E0
2.114257510E0,-9.529500604E-1,-3.808950186E0,-6.921000481E0,7.957164255E0
2.116220884E0,-1.413000107E0,-4.651950359E0,-7.075050354E0,8.584494683E0
2.118184265E0,-2.103000164E0,-5.686950207E0,-7.189950466E0,9.405285751E0
2.120147650E0,-2.830950022E0,-6.874950409E0,-7.113000393E0,1.028950901E1
2.122111034E0,-3.790050268E0,-8.523000717E0,-6.960000515E0,1.163819700E1
2.124074780E0,-4.900950432E0,-1.070805073E1,-7.150950432E0,1.377743654E1
2.126038419E0,-6.433950424E0,-1.327605057E1,-7.879950523E0,1.672551515E1
2.128002094E0,-8.236050606E0,-1.599705029E1,-8.148000717E0,1.975165976E1
2.129965745E0,-1.022895050E1,-1.891005135E1,-7.956000328E0,2.292421016E1
2.131929131E0,-1.195305061E1,-2.197605133E1,-7.150950432E0,2.601842315E1
2.133892594E0,-1.329495049E1,-2.515695190E1,-6.844950199E0,2.926570144E1
2.135856099E0,-1.410000038E1,-2.810895157E1,-6.538050175E0,3.211960879E1
2.137819592E0,-1.459800053E1,-3.067695236E1,-6.423000336E0,3.457501929E1
2.139782945E0,-1.532595062E1,-3.293805313E1,-6.040050507E0,3.682773841E1
2.141746349E0,-1.563300037E1,-3.527595139E1,-5.043000221E0,3.891291942E1
2.143710134E0,-1.547895050E1,-3.749895096E1,-3.778950214E0,4.074370744E1
2.145673808E0,-1.517295074E1,-3.952995300E1,-1.708950043E0,4.237636286E1
2.147636378E0,-1.421505070E1,-4.140795135E1,-1.369500011E-1,4.378018795E1
2.149599272E0,-1.272000027E1,-4.297995377E1,9.349500537E-1,4.483245436E1
2.151562785E0,-1.126305008E1,-4.424505234E1,1.548000097E0,4.568235171E1
2.153526116E0,-9.346950531E0,-4.508805084E1,2.046000004E0,4.609212437E1
2.155489645E0,-7.123950481E0,-4.550895309E1,2.467950106E0,4.612923433E1
2.157453116E0,-5.053950310E0,-4.558605194E1,2.545050144E0,4.593590998E1
2.159416892E0,-3.214950085E0,-4.547100067E1,2.583000183E0,4.565763568E1
2.161380578E0,-1.758000135E0,-4.497300339E1,1.969950080E0,4.505044175E1
2.163344987E0,-7.620000243E-1,-4.443600082E1,1.126049995E0,4.445679703E1
2.165309188E0,1.189500093E-1,-4.413000107E1,-7.120500207E-1,4.413590555E1
2.167273335E0,1.077000022E0,-4.405305099E1,-2.820000172E0,4.415635438E1
2.169237498E0,1.920000076E0,-4.424505234E1,-5.272950172E0,4.459949619E1
2.171200884E0,3.031950235E0,-4.470405197E1,-8.110050201E0,4.553479877E1
2.173164498E0,4.335000038E0,-4.543305206E1,-1.098405075E1,4.694255869E1
2.175128181E0,5.944950104E0,-4.604595184E1,-1.328400040E1,4.829116668E1
2.177091859E0,7.477950573E0,-4.639095306E1,-1.477905083E1,4.925911707E1
2.179055195E0,8.934000015E0,-4.639095306E1,-1.554495049E1,4.973512208E1
2.181018631E0,1.012200069E1,-4.593105316E1,-1.500900078E1,4.936989616E1
2.182982411E0,1.104195023E1,-4.501095200E1,-1.366695023E1,4.831869196E1
2.184946090E0,1.154100037E1,-4.393800354E1,-1.155900097E1,4.687593570E1
2.186909795E0,1.180905056E1,-4.278795242E1,-8.608050346E0,4.521461134E1
2.188873485E0,1.142595100E1,-4.140795135E1,-5.772000313E0,4.334151335E1
2.190836999E0,1.088895035E1,-4.002900314E1,-2.896950245E0,4.158464444E1
2.192800564E0,1.016100025E1,-3.849495316E1,-1.096050024E0,3.982849068E1
2.194763917E0,9.471000671E0,-3.692400360E1,-1.369500011E-1,3.811955733E1
2.196727333E0,7.938000202E0,-3.512295151E1,-4.819500148E-1,3.601202363E1
2.198691017E0,5.791050434E0,-3.320595169E1,-2.398950100E0,3.379240232E1
2.200654629E0,3.376950264E0,-3.106005096E1,-5.005050182E0,3.164144571E1
2.202617074E0,1.384050012E0,-2.895195198E1,-7.228050232E0,2.987266021E1
2.204579861E0,-3.019500077E-1,-2.688195038E1,-8.799000740E0,2.828697304E1
2.206543348E0,-1.873050094E0,-2.504205132E1,-9.451050758E0,2.683160471E1
2.208506629E0,-3.367950201E0,-2.331795120E1,-9.489000320E0,2.539903667E1
2.210470421E0,-4.671000004E0,-2.190000153E1,-9.183000565E0,2.420239259E1
2.212434042E0,-5.782950401E0,-2.063505173E1,-8.646000862E0,2.310846611E1
2.214397567E0,-6.778950214E0,-1.963800049E1,-7.995000362E0,2.226039667E1
2.216361121E0,-7.660950184E0,-1.875705147E1,-7.381050587E0,2.156379014E1
2.218324701E0,-8.236050606E0,-1.802805138E1,-6.768000126E0,2.094394881E1
2.220288273E0,-8.580000877E0,-1.756905174E1,-6.117000103E0,2.048671971E1
2.222251743E0,-8.580000877E0,-1.726200104E1,-5.464950085E0,2.003643617E1
2.224215256E0,-8.503950119E0,-1.703205109E1,-4.852050304E0,1.964561844E1
2.226178843E0,-8.389050484E0,-1.684005165E1,-4.315050125E0,1.930241346E1
2.228142408E0,-8.082000732E0,-1.672500038E1,-3.931950092E0,1.898695882E1
2.230105763E0,-7.852050304E0,-1.672500038E1,-3.472050190E0,1.879987937E1
2.232069179E0,-7.468950272E0,-1.684005165E1,-3.088950157E0,1.867924439E1
2.234032751E0,-7.162050247E0,-1.699394989E1,-2.782050133E0,1.865017693E1
2.235996268E0,-6.817050457E0,-1.726200104E1,-2.437050104E0,1.871865567E1
2.237959451E0,-6.549000263E0,-1.745400047E1,-2.053950071E0,1.875500594E1
2.239922732E0,-6.396000385E0,-1.764495087E1,-1.824000120E0,1.885683135E1
2.241886268E0,-6.166050434E0,-1.795200157E1,-1.555950046E0,1.904509173E1
2.243849730E0,-5.974050522E0,-1.822005081E1,-1.441050053E0,1.922852455E1
2.245812742E0,-5.743950367E0,-1.845000076E1,-1.287000060E0,1.936625578E1
2.247775886E0,-5.629050255E0,-1.879500008E1,-1.326000094E0,1.966460045E1
2.249738951E0,-5.553000450E0,-1.902495003E1,-1.516950130E0,1.987676219E1
2.251702039E0,-5.398950100E0,-1.914000130E1,-1.671000123E0,1.995696754E1
2.253665474E0,-5.131050110E0,-1.906305122E1,-1.671000123E0,1.981211343E1
2.255628807E0,-4.939050198E0,-1.883295059E1,-1.671000123E0,1.954140441E1
2.257592381E0,-4.671000004E0,-1.856505013E1,-1.900950074E0,1.923779973E1
2.259555884E0,-4.363950253E0,-1.825800133E1,-2.206950188E0,1.890156881E1
2.261519294E0,-4.096050262E0,-1.787505150E1,-2.359950066E0,1.848957701E1
2.263482732E0,-3.865950108E0,-1.737705040E1,-2.398950100E0,1.796280636E1
2.265446242E0,-3.598050117E0,-1.687905121E1,-2.437050104E0,1.742950222E1
2.267409730E0,-3.367950201E0,-1.630395126E1,-2.398950100E0,1.682013308E1
2.269373148E0,-3.100050211E0,-1.576695061E1,-2.437050104E0,1.625257690E1
2.271336583E0,-2.869950056E0,-1.538400078E1,-2.551950216E0,1.585612005E1
2.273299778E0,-2.524950027E0,-1.492395115E1,-2.322000027E0,1.531311120E1
2.275263044E0,-1.873050094E0,-1.446405029E1,-2.206950188E0,1.475085410E1
2.277226448E0,-1.297950029E0,-1.404195023E1,-2.053950071E0,1.425060530E1
2.279189812E0,-7.999500632E-1,-1.354395103E1,-1.824000120E0,1.368961308E1
2.281153127E0,-2.629500031E-1,-1.327605057E1,-1.708950043E0,1.338817283E1
2.283116477E0,1.570500135E-1,-1.304595089E1,-1.516950130E0,1.313478728E1
2.285080633E0,5.020500422E-1,-1.281600094E1,-1.326000094E0,1.289419290E1
2.287044552E0,7.320000529E-1,-1.258605099E1,-1.171950102E0,1.266167329E1
2.289007801E0,8.850000501E-1,-1.231800079E1,-1.057050109E0,1.239490716E1
2.290971246E0,1.114950061E0,-1.193400097E1,-8.269500136E-1,1.201446375E1
2.292934665E0,1.306950092E0,-1.162800026E1,-6.360000372E-1,1.171848986E1
2.294898092E0,1.690050125E0,-1.143600082E1,-4.819500148E-1,1.157024892E1
2.296861289E0,2.188950062E0,-1.113000011E1,-3.289500177E-1,1.134797837E1
2.298824554E0,2.649000168E0,-1.086105061E1,-1.759500057E-1,1.118081305E1
2.300787958E0,3.184950113E0,-1.059300041E1,-1.759500057E-1,1.106284427E1
2.302751321E0,3.568050146E0,-1.036305046E1,-2.140500098E-1,1.096219021E1
2.304714545E0,3.990000248E0,-1.005600071E1,-2.140500098E-1,1.082077029E1
2.306677800E0,4.450050354E0,-9.750000000E0,-3.670500219E-1,1.072381340E1
2.308641026E0,4.795050144E0,-9.366000175E0,-3.670500219E-1,1.052849424E1
2.310604261E0,5.101050377E0,-8.830050468E0,-3.289500177E-1,1.020287775E1
2.312567626E0,5.293050289E0,-8.332050323E0,-1.369500011E-1,9.872091939E0
2.314530952E0,5.446050167E0,-7.795050144E0,5.295000225E-2,9.509209898E0
2.316493291E0,5.331000328E0,-7.219950199E0,2.449500114E-1,8.978153813E0
2.318455934E0,5.254950047E0,-6.721950531E0,5.130000114E-1,8.547648094E0
2.320419445E0,5.140050411E0,-6.109050274E0,7.050000429E-1,8.014838647E0
2.322382701E0,4.948050022E0,-5.686950207E0,9.730500579E-1,7.600751811E0
2.324346108E0,4.795050144E0,-5.188950062E0,1.126049995E0,7.154418021E0
2.326309470E0,4.717950344E0,-4.767000198E0,1.011000037E0,6.782733034E0
2.328272635E0,4.603050232E0,-4.384050369E0,9.730500579E-1,6.430769432E0
2.330235857E0,4.527000427E0,-3.886050224E0,1.087950110E0,6.064549007E0
2.332199268E0,4.450050354E0,-3.426000118E0,1.471050024E0,5.805550201E0
2.334162624E0,4.335000038E0,-3.118950129E0,1.548000097E0,5.560249953E0
2.336125835E0,4.372950077E0,-2.812050104E0,1.816050053E0,5.507118662E0
2.338089088E0,4.411950111E0,-2.544000149E0,1.816050053E0,5.406965724E0
2.340052535E0,4.527000427E0,-2.314050198E0,1.855050087E0,5.412002588E0
2.342015928E0,4.527000427E0,-2.008050203E0,1.855050087E0,5.288403286E0
2.343979446E0,4.564949989E0,-1.816050053E0,2.008050203E0,5.307454363E0
2.345942928E0,4.642050266E0,-1.509000063E0,1.930950046E0,5.249217079E0
2.347906297E0,4.756950378E0,-1.318050027E0,1.816050053E0,5.259645479E0
2.349869699E0,4.948050022E0,-1.087950110E0,1.740000129E0,5.356718670E0
2.351832909E0,5.062950134E0,-8.190000653E-1,1.663050056E0,5.391656578E0
2.353796169E0,5.140050411E0,-6.660000086E-1,1.663050056E0,5.443290340E0
2.355759395E0,5.140050411E0,-4.360500276E-1,1.585950017E0,5.396804176E0
2.357722631E0,5.140050411E0,-2.830500007E-1,1.585950017E0,5.386601247E0
2.359685545E0,5.101050377E0,-1.680000126E-1,1.510050058E0,5.322517274E0
2.361648554E0,5.140050411E0,-1.290000081E-1,1.471050024E0,5.347966661E0
2.363610941E0,5.178000450E0,-9.105000645E-2,1.356000066E0,5.353383504E0
2.365573497E0,5.140050411E0,-1.500000060E-2,1.126049995E0,5.261970336E0
2.367536978E0,5.101050377E0,1.380000114E-1,9.349500537E-1,5.187859920E0
2.369500188E0,4.948050022E0,2.910000086E-1,6.280500293E-1,4.996231266E0
2.371464503E0,4.872000217E0,4.060500264E-1,1.300500035E-1,4.890621202E0
2.373428495E0,4.756950378E0,5.209500194E-1,-2.910000086E-1,4.794230578E0
2.375391602E0,4.642050266E0,6.360000372E-1,-7.510500550E-1,4.745229489E0
2.377354964E0,4.527000427E0,7.129500508E-1,-1.249050021E0,4.749963852E0
2.379318351E0,4.450050354E0,8.280000687E-1,-1.824000120E0,4.880113596E0
2.381281731E0,4.297049999E0,9.430500269E-1,-2.359950066E0,4.992328751E0
2.383245116E0,4.182000160E0,9.810000658E-1,-2.859000206E0,5.159977582E0
2.385208500E0,4.105050087E0,1.018950105E0,-3.280050039E0,5.352422236E0
2.387171890E0,4.027950287E0,1.057950020E0,-3.778950214E0,5.623531495E0
2.389135274E0,3.952050209E0,1.018950105E0,-4.200000286E0,5.856360864E0
2.391098525E0,3.952050209E0,9.040500522E-1,-4.621950150E0,6.148042822E0
2.393061815E0,3.798000097E0,7.510500550E-1,-4.966950417E0,6.297577103E0
2.395025215E0,3.721950293E0,5.980500579E-1,-5.311950207E0,6.513631311E0
2.396988582E0,3.682950258E0,3.679500222E-1,-5.617950439E0,6.727620453E0
2.398952251E0,3.492000103E0,6.105000153E-2,-5.848050117E0,6.811569716E0
2.400915856E0,3.300000191E0,-1.680000126E-1,-6.154950142E0,6.985816811E0
2.402878708E0,3.031950235E0,-3.979500234E-1,-6.232050419E0,6.941868543E0
2.404841781E0,2.839950085E0,-7.039500475E-1,-6.193050385E0,6.849433204E0
2.406804993E0,2.533950090E0,-9.730500579E-1,-6.346950531E0,6.903007353E0
2.408768164E0,2.188950062E0,-1.240950108E0,-6.193050385E0,6.684708865E0
2.410731240E0,1.690050125E0,-1.432950020E0,-6.040050507E0,6.433647900E0
2.412694334E0,1.230000019E0,-1.585950017E0,-5.733000278E0,6.074160822E0
2.414656732E0,6.940500140E-1,-1.701000094E0,-5.464950085E0,5.765482302E0
2.416619334E0,8.100000024E-2,-1.777950048E0,-5.158050060E0,5.456477600E0
2.418582627E0,-4.170000255E-1,-1.854000092E0,-4.966950417E0,5.318063727E0
2.420545717E0,-9.529500604E-1,-1.854000092E0,-4.660050392E0,5.105046505E0
2.422509132E0,-1.489950061E0,-1.816050053E0,-4.276950359E0,4.879579219E0
2.424472466E0,-1.987950087E0,-1.701000094E0,-3.931950092E0,4.722878190E0
2.426435860E0,-2.448000193E0,-1.585950017E0,-3.510000229E0,4.563775192E0
2.428399236E0,-2.869950056E0,-1.432950020E0,-3.088950157E0,4.453265336E0
2.430362307E0,-3.175950050E0,-1.318050027E0,-2.704950094E0,4.375005098E0
2.432325468E0,-3.330000162E0,-1.203000069E0,-2.322000027E0,4.234122621E0
2.434288661E0,-3.406050205E0,-1.164000034E0,-1.824000120E0,4.035226204E0
2.436251847E0,-3.291000128E0,-1.164000034E0,-1.402050018E0,3.761824315E0
2.438214951E0,-2.985000134E0,-1.240950108E0,-9.420000315E-1,3.367127415E0
2.440178080E0,-2.755050182E0,-1.318050027E0,-5.590500236E-1,3.104850127E0
2.442141822E0,-2.601000071E0,-1.356000066E0,-2.910000086E-1,2.947646273E0
2.444105385E0,-2.371050119E0,-1.356000066E0,1.500000060E-2,2.731453797E0
2.446067538E0,-2.179949999E0,-1.393950105E0,2.830500007E-1,2.602959123E0
2.448030094E0,-1.911000133E0,-1.432950020E0,4.750500321E-1,2.435352089E0
2.449993439E0,-1.681950092E0,-1.548000097E0,6.660000086E-1,2.380927640E0
2.451956553E0,-1.452000022E0,-1.624050021E0,9.349500537E-1,2.370648464E0
2.453919759E0,-1.260000110E0,-1.701000094E0,1.165050030E0,2.416266370E0
2.455882938E0,-1.144950032E0,-1.777950048E0,1.318050027E0,2.491841252E0
2.457846403E0,-9.529500604E-1,-1.777950048E0,1.471050024E0,2.496639414E0
2.459809784E0,-7.999500632E-1,-1.854000092E0,1.585950017E0,2.567581333E0
2.461773350E0,-6.469500065E-1,-1.893000126E0,1.777950048E0,2.676396862E0
2.463736861E0,-4.549500346E-1,-1.930950046E0,1.969950080E0,2.795755878E0
2.465700225E0,-3.019500077E-1,-1.930950046E0,2.200050116E0,2.942781405E0
2.467663632E0,-1.870500147E-1,-1.893000126E0,2.391000032E0,3.055375319E0
2.469627037E0,-7.200000435E-2,-1.930950046E0,2.583000183E0,3.225777740E0
2.471590426E0,-3.299999982E-2,-1.930950046E0,2.773950100E0,3.380008319E0
2.473553944E0,8.100000024E-2,-1.969050050E0,2.928000212E0,3.529433997E0
2.475517424E0,1.189500093E-1,-1.930950046E0,3.157950163E0,3.703426307E0
2.477480838E0,1.570500135E-1,-1.969050050E0,3.349050045E0,3.888181967E0
2.479444272E0,1.189500093E-1,-1.854000092E0,3.463950157E0,3.930701736E0
2.481407422E0,1.189500093E-1,-1.816050053E0,3.694050074E0,4.118032643E0
2.483370656E0,4.200000316E-2,-1.701000094E0,3.847950220E0,4.207360956E0
2.485333751E0,4.050000105E-3,-1.663050056E0,3.963000298E0,4.297804468E0
2.487296887E0,-7.200000435E-2,-1.548000097E0,4.153950214E0,4.433597939E0
2.489260268E0,-7.200000435E-2,-1.471050024E0,4.384050369E0,4.624831869E0
2.491223577E0,-7.200000435E-2,-1.393950105E0,4.537950039E0,4.747764890E0
2.493186791E0,-1.480500102E-1,-1.240950108E0,4.729050159E0,4.891399737E0
2.495150036E0,-2.250000089E-1,-1.087950110E0,4.921050072E0,5.044897844E0
2.497113129E0,-3.019500077E-1,-9.730500579E-1,5.035950184E0,5.137975718E0
2.499076267E0,-1.870500147E-1,-8.580000401E-1,5.151000023E0,5.225318460E0
2.501039467E0,-1.870500147E-1,-7.429500222E-1,5.151000023E0,5.207663937E0
2.503002649E0,-1.099500060E-1,-5.890500546E-1,5.112000465E0,5.147000848E0
2.504965413E0,4.050000105E-3,-4.740000367E-1,5.112000465E0,5.133930385E0
2.506928286E0,8.100000024E-2,-3.589500189E-1,4.882050037E0,4.895898149E0
2.508891352E0,1.189500093E-1,-1.680000126E-1,4.614000320E0,4.618589835E0
2.510854361E0,1.189500093E-1,-9.105000645E-2,4.345950127E0,4.348530983E0
2.512816775E0,1.570500135E-1,6.105000153E-2,4.000950336E0,4.004496898E0
2.514779363E0,8.100000024E-2,2.910000086E-1,3.618000269E0,3.630587824E0
2.516742644E0,1.960500032E-1,4.440000355E-1,3.273000240E0,3.308791654E0
2.518705731E0,1.570500135E-1,6.360000372E-1,2.889000177E0,2.962344136E0
2.520668807E0,1.960500032E-1,8.280000687E-1,2.583000183E0,2.719542179E0
2.522631887E0,2.340000123E-1,1.057950020E0,2.238000154E0,2.486495313E0
2.524595143E0,2.719500065E-1,1.173000097E0,1.893000126E0,2.243509641E0
2.526558347E0,3.109500110E-1,1.249050021E0,1.663050056E0,2.102986294E0
2.528521061E0,3.490500152E-1,1.363950014E0,1.432950020E0,2.008865678E0
2.530483906E0,4.260000288E-1,1.402950048E0,1.165050030E0,1.872721665E0
2.532446886E0,4.639500082E-1,1.594050050E0,8.959500194E-1,1.886523684E0
2.534409827E0,5.410500169E-1,1.633050084E0,5.509500504E-1,1.806414586E0
2.536374549E0,5.410500169E-1,1.708950043E0,3.600000143E-1,1.828344984E0
2.538338750E0,6.550500393E-1,1.786050081E0,1.680000126E-1,1.909787803E0
2.540301761E0,6.940500140E-1,1.824000120E0,1.500000060E-2,1.951642093E0
2.542265127E0,7.699500322E-1,1.863000035E0,-1.369500011E-1,2.020481994E0
2.544228154E0,8.850000501E-1,1.900950074E0,-2.910000086E-1,2.116959442E0
2.546191281E0,9.619500637E-1,1.939050078E0,-4.060500264E-1,2.202303284E0
2.548154034E0,1.000050068E0,1.939050078E0,-5.590500236E-1,2.252232731E0
2.550116896E0,1.077000022E0,1.978050113E0,-6.739500165E-1,2.350918952E0
2.552079989E0,1.153950095E0,1.939050078E0,-9.040500522E-1,2.430806970E0
2.554043028E0,1.230000019E0,2.016000032E0,-1.096050024E0,2.603551773E0
2.556006247E0,1.306950092E0,2.053950071E0,-1.249050021E0,2.736230143E0
2.557969413E0,1.306950092E0,2.092950106E0,-1.516950130E0,2.896497262E0
2.559932880E0,1.345050097E0,2.092950106E0,-1.786050081E0,3.062609149E0
2.561896259E0,1.459950089E0,2.131050110E0,-2.014950037E0,3.276103247E0
2.563859640E0,1.575000048E0,2.208000183E0,-2.169000149E0,3.472816091E0
2.565823023E0,1.690050125E0,2.169000149E0,-2.359950066E0,3.623561147E0
2.567786364E0,1.804950118E0,2.208000183E0,-2.475000143E0,3.776074078E0
2.569749717E0,1.882050037E0,2.361000061E0,-2.743950129E0,4.079913717E0
2.571712747E0,1.959000111E0,2.398950100E0,-2.820000172E0,4.188680459E0
2.573675871E0,2.074050188E0,2.398950100E0,-3.049950123E0,4.399868352E0
2.575638820E0,2.149950027E0,2.398950100E0,-3.357000113E0,4.652601042E0
2.577601809E0,2.457000017E0,2.208000183E0,-3.664050102E0,4.933292718E0
2.579565035E0,2.610000134E0,2.169000149E0,-4.123950005E0,5.340751444E0
2.581528192E0,2.764050245E0,2.016000032E0,-4.392000198E0,5.567216147E0
2.583491301E0,3.147000074E0,1.786050081E0,-4.698000431E0,5.929990928E0
2.585454425E0,3.415050268E0,1.594050050E0,-4.966950417E0,6.234914621E0
2.587417337E0,3.568050146E0,1.441050053E0,-5.235000134E0,6.497140409E0
2.589380295E0,3.837000132E0,1.210950017E0,-5.272950172E0,6.632719915E0
2.591343752E0,4.105050087E0,1.096050024E0,-5.464950085E0,6.922314736E0
2.593307062E0,4.411950111E0,1.018950105E0,-5.464950085E0,7.097129175E0
2.595270640E0,4.603050232E0,9.430500269E-1,-5.119950294E0,6.949194616E0
2.597234139E0,4.833000183E0,9.810000658E-1,-4.545000076E0,6.706510090E0
2.599197440E0,4.872000217E0,1.057950020E0,-3.894000292E0,6.326047948E0
2.601160813E0,4.987050056E0,1.134000063E0,-3.204000235E0,6.035084251E0
2.603123704E0,5.905950069E0,1.863000035E0,-5.427000046E0,8.234278648E0
2.605086737E0,6.442950249E0,2.169000149E0,-3.664050102E0,7.722786589E0
2.607048875E0,5.715000153E0,1.441050053E0,-1.369500011E-1,5.895473459E0
2.609011275E0,5.062950134E0,6.360000372E-1,1.395000100E0,5.289989167E0
2.610975024E0,4.488000393E0,-1.500000060E-2,1.740000129E0,4.813519811E0
2.612938398E0,3.837000132E0,-4.360500276E-1,1.701000094E0,4.219728778E0
2.614902460E0,3.147000074E0,-1.356000066E0,9.730500579E-1,3.562186416E0
2.616866321E0,2.725050211E0,-2.391000032E0,-2.205000073E-2,3.625364259E0
2.618829265E0,1.996950150E0,-3.157050133E0,-7.120500207E-1,3.802866113E0
2.620792477E0,1.575000048E0,-4.077000141E0,-1.402050018E0,4.590021738E0
2.622755536E0,1.306950092E0,-4.996950150E0,-2.284050226E0,5.647522889E0
2.624718636E0,1.000050068E0,-5.994000435E0,-3.549000263E0,7.037296656E0
2.626680988E0,6.940500140E-1,-7.066950321E0,-5.542050362E0,9.007653106E0
2.628643559E0,4.260000288E-1,-8.523000717E0,-7.765050411E0,1.153772183E1
2.630607262E0,-2.250000089E-1,-1.044000053E1,-9.796050072E0,1.431805969E1
2.632570634E0,-1.489950061E0,-1.285395050E1,-1.121400070E1,1.712301978E1
2.634534066E0,-3.100050211E0,-1.534605026E1,-1.278600025E1,2.021369270E1
2.636497480E0,-4.249050140E0,-1.818195152E1,-1.481700039E1,2.383655363E1
2.638460635E0,-5.208000183E0,-2.063505173E1,-1.646505165E1,2.690774148E1
2.640423866E0,-6.088950157E0,-2.270400047E1,-1.707795143E1,2.905517814E1
2.642387321E0,-7.047000408E0,-2.465895081E1,-1.623495102E1,3.035288626E1
2.644350711E0,-7.929000378E0,-2.661405182E1,-1.497000027E1,3.154802227E1
2.646313536E0,-8.925000191E0,-2.841495132E1,-1.278600025E1,3.241214108E1
2.648276540E0,-9.424050331E0,-3.040800095E1,-1.010295010E1,3.339953363E1
2.650239449E0,-9.844950676E0,-3.228600311E1,-6.499950409E0,3.437380407E1
2.652202386E0,-1.018995094E1,-3.435600281E1,-2.359950066E0,3.591294187E1
2.654164901E0,-1.026705074E1,-3.650205231E1,1.318050027E0,3.794139441E1
2.656127540E0,-1.018995094E1,-3.880200195E1,4.921050072E0,4.041840162E1
2.658090700E0,-9.346950531E0,-4.094805145E1,7.374000549E0,4.264368987E1
2.660053701E0,-7.966950417E0,-4.263495255E1,8.944950104E0,4.428570435E1
2.662016836E0,-6.280950069E0,-4.336305237E1,9.022050858E0,4.473479682E1
2.663979931E0,-4.824000359E0,-4.340100098E1,8.754000664E0,4.453706763E1
2.665943006E0,-3.253050089E0,-4.255800247E1,7.834050179E0,4.339514087E1
2.667906087E0,-1.911000133E0,-4.102500153E1,5.994000435E0,4.150458665E1
2.669869538E0,-1.030050039E0,-3.914700317E1,3.924000263E0,3.935665939E1
2.671832870E0,-1.870500147E-1,-3.749895096E1,1.203000069E0,3.751870893E1
2.673797660E0,5.020500422E-1,-3.611894989E1,-1.516950130E0,3.615427683E1
2.675762023E0,1.459950089E0,-3.523800278E1,-4.276950359E0,3.552661817E1
2.677725241E0,2.494950056E0,-3.496905136E1,-6.460950375E0,3.564832687E1
2.679688795E0,3.645000219E0,-3.493095016E1,-8.032950401E0,3.602756720E1
2.681651840E0,4.948050022E0,-3.519900131E1,-9.451050758E0,3.678009316E1
2.683615030E0,5.715000153E0,-3.554400253E1,-1.025595093E1,3.743289826E1
2.685578088E0,6.673050404E0,-3.600405121E1,-1.060095024E1,3.812087946E1
2.687541184E0,7.593000412E0,-3.642600250E1,-1.044795036E1,3.864798805E1
2.689504077E0,8.551050186E0,-3.692400360E1,-9.643050194E0,3.910870643E1
2.691467030E0,9.049050331E0,-3.726900101E1,-8.301000595E0,3.923990773E1
2.693430308E0,8.973000526E0,-3.761400223E1,-6.270000458E0,3.917449180E1
2.695393490E0,9.088050842E0,-3.792000198E1,-4.123950005E0,3.921130172E1
2.697356864E0,8.282999992E0,-3.803505325E1,-1.977000117E0,3.897668398E1
2.699320182E0,7.477950573E0,-3.814995193E1,-6.739500165E-1,3.888177961E1
2.701283758E0,6.289950371E0,-3.811200333E1,9.195000678E-2,3.862766791E1
2.703247259E0,4.680000305E0,-3.799695206E1,-2.205000073E-2,3.828408618E1
2.705209944E0,2.686950207E0,-3.738405228E1,-8.269500136E-1,3.748961073E1
2.707172872E0,1.189500093E-1,-3.577395248E1,-1.824000120E0,3.582061979E1
2.709136469E0,-2.563050032E0,-3.347400284E1,-2.782050133E0,3.368705826E1
2.711099870E0,-4.747950077E0,-3.136605072E1,-3.357000113E0,3.190049557E1
2.713062937E0,-6.433950424E0,-2.944995117E1,-3.510000229E0,3.034823625E1
2.715026102E0,-7.852050304E0,-2.772495079E1,-3.625050068E0,2.904253051E1
2.716989149E0,-9.040050507E0,-2.615400124E1,-3.549000263E0,2.789891927E1
2.718952241E0,-9.883950233E0,-2.465895081E1,-3.280050039E0,2.676779885E1
2.720915270E0,-1.042005062E1,-2.335605049E1,-2.974050045E0,2.574737896E1
2.722878318E0,-1.068795013E1,-2.232105064E1,-2.704950094E0,2.489534766E1
2.724841579E0,-1.068795013E1,-2.140095139E1,-2.169000149E0,2.401952456E1
2.726804778E0,-1.042005062E1,-2.052000046E1,-1.516950130E0,2.306401985E1
2.728768069E0,-9.999000549E0,-1.994505119E1,-8.269500136E-1,2.232641766E1
2.730731326E0,-9.462000847E0,-1.956195068E1,-2.520000041E-1,2.173161012E1
2.732693787E0,-9.040050507E0,-1.933200073E1,3.220500052E-1,2.134367545E1
2.734656482E0,-8.389050484E0,-1.933200073E1,8.200500607E-1,2.108968711E1
2.736620029E0,-7.621950150E0,-1.960005188E1,1.203000069E0,2.106426754E1
2.738583326E0,-6.931950092E0,-1.998300171E1,1.356000066E0,2.119459897E1
2.740546686E0,-6.280950069E0,-2.036595154E1,1.356000066E0,2.135558597E1
2.742510024E0,-5.668050289E0,-2.071095085E1,1.395000100E0,2.151781366E1
2.744473462E0,-5.016000271E0,-2.098005104E1,1.432950020E0,2.161888402E1
2.746436870E0,-4.363950253E0,-2.128605080E1,1.432950020E0,2.177598140E1
2.748400252E0,-3.751050234E0,-2.163105011E1,1.432950020E0,2.200059209E1
2.750363641E0,-3.214950085E0,-2.170800018E1,1.471050024E0,2.199402565E1
2.752327159E0,-2.716050148E0,-2.178495026E1,1.471050024E0,2.200284014E1
2.754290639E0,-2.371050119E0,-2.186100197E1,1.240950108E0,2.202419676E1
2.756254053E0,-1.987950087E0,-2.186100197E1,1.087950110E0,2.197814797E1
2.758217487E0,-1.720050097E0,-2.178495026E1,9.730500579E-1,2.187440185E1
2.760180997E0,-1.375050068E0,-2.174595070E1,7.429500222E-1,2.180204369E1
2.762144485E0,-1.222050071E0,-2.167005157E1,3.600000143E-1,2.170746742E1
2.764108788E0,-9.150000215E-1,-2.155500031E1,3.600000143E-1,2.157741558E1
2.766072860E0,-7.230000496E-1,-2.143995094E1,1.300500035E-1,2.145253222E1
2.768036083E0,-5.320500135E-1,-2.132505035E1,5.295000225E-2,2.133175224E1
2.769999554E0,-3.019500077E-1,-2.109495163E1,2.449500114E-1,2.109853451E1
2.771963148E0,-7.200000435E-2,-2.094105148E1,3.220500052E-1,2.094365148E1
2.773926706E0,8.100000024E-2,-2.082600021E1,2.070000172E-1,2.082718644E1
2.775889291E0,1.570500135E-1,-2.063505173E1,2.070000172E-1,2.063668756E1
2.777852164E0,2.340000123E-1,-2.048100090E1,4.750500321E-1,2.048784582E1
2.779815816E0,3.870000243E-1,-2.025105095E1,4.750500321E-1,2.026031851E1
2.781779239E0,5.410500169E-1,-2.009805107E1,5.130000114E-1,2.011187612E1
2.783743383E0,6.169500351E-1,-1.979205132E1,6.660000086E-1,1.981286144E1
2.785707316E0,9.619500637E-1,-1.936995125E1,5.130000114E-1,1.940060639E1
2.787671648E0,1.192050099E0,-1.898700142E1,3.600000143E-1,1.902779037E1
2.789635860E0,1.345050097E0,-1.852695084E1,1.680000126E-1,1.857647144E1
2.791599104E0,1.345050097E0,-1.802805138E1,1.500000060E-2,1.807816421E1
2.793562631E0,1.422000051E0,-1.753005028E1,-2.140500098E-1,1.758893301E1
2.795526215E0,1.537050128E0,-1.695495033E1,-4.819500148E-1,1.703129883E1
2.797489783E0,1.614000082E0,-1.634205055E1,-7.510500550E-1,1.643872528E1
2.799453352E0,1.729050040E0,-1.561395073E1,-1.057050109E0,1.574491748E1
2.801416896E0,1.843950033E0,-1.492395115E1,-1.210950017E0,1.508611513E1
2.803380253E0,1.843950033E0,-1.423395061E1,-1.363950014E0,1.441755394E1
2.805343665E0,1.882050037E0,-1.362105083E1,-1.441050053E0,1.382576448E1
2.807307224E0,1.959000111E0,-1.304595089E1,-1.479000092E0,1.327486186E1
2.809270740E0,1.882050037E0,-1.243305016E1,-1.479000092E0,1.266136998E1
2.811234238E0,1.804950118E0,-1.178100014E1,-1.402050018E0,1.200064804E1
2.813197742E0,1.882050037E0,-1.105305099E1,-1.287000060E0,1.128576173E1
2.815161285E0,1.920000076E0,-1.047795010E1,-1.171950102E0,1.071668351E1
2.817124817E0,1.843950033E0,-9.865050316E0,-9.810000658E-1,1.008373594E1
2.819088402E0,1.614000082E0,-9.250950813E0,-8.659500480E-1,9.430533214E0
2.821051971E0,1.459950089E0,-8.791950226E0,-7.120500207E-1,8.940741483E0
2.823015505E0,1.384050012E0,-8.254950523E0,-7.120500207E-1,8.400405812E0
2.824979050E0,1.306950092E0,-7.833000183E0,-7.120500207E-1,7.973144025E0
2.826942362E0,1.384050012E0,-7.411950588E0,-6.739500165E-1,7.570126457E0
2.828905742E0,1.384050012E0,-7.066950321E0,-6.739500165E-1,7.232675155E0
2.830868992E0,1.422000051E0,-6.721950531E0,-5.970000029E-1,6.896601488E0
2.832832281E0,1.384050012E0,-6.339000225E0,-5.590500236E-1,6.512377079E0
2.834795640E0,1.384050012E0,-5.955000401E0,-4.060500264E-1,6.127193552E0
2.836758975E0,1.345050097E0,-5.610000134E0,-2.520000041E-1,5.774492641E0
2.838722413E0,1.384050012E0,-5.149950027E0,-1.369500011E-1,5.334447959E0
2.840685821E0,1.306950092E0,-4.767000198E0,1.500000060E-2,4.942937834E0
2.842648121E0,1.306950092E0,-4.384050369E0,2.070000172E-1,4.579395723E0
2.844610746E0,1.306950092E0,-3.961950302E0,4.360500276E-1,4.194676193E0
2.846574191E0,1.306950092E0,-3.616950274E0,6.280500293E-1,3.896780038E0
2.848537412E0,1.306950092E0,-3.271950245E0,9.730500579E-1,3.655215912E0
2.850501050E0,1.269000053E0,-2.889000177E0,1.050000072E0,3.325535041E0
2.852464566E0,1.114950061E0,-2.506050110E0,1.087950110E0,2.950768753E0
2.854428064E0,1.000050068E0,-2.161050081E0,1.087950110E0,2.617990266E0
2.856391568E0,8.850000501E-1,-1.893000126E0,1.203000069E0,2.411199645E0
2.858354436E0,7.320000529E-1,-1.509000063E0,1.203000069E0,2.064004465E0
2.860317491E0,5.790000558E-1,-1.203000069E0,1.165050030E0,1.771945767E0
2.862280347E0,4.260000288E-1,-7.429500222E-1,1.126049995E0,1.414722359E0
2.864243261E0,3.490500152E-1,-3.979500234E-1,9.730500579E-1,1.107712304E0
2.866205870E0,3.870000243E-1,-1.290000081E-1,1.126049995E0,1.197663815E0
2.868168568E0,3.109500110E-1,6.105000153E-2,7.810500264E-1,8.428856125E-1
2.870132805E0,2.719500065E-1,4.060500264E-1,4.750500321E-1,6.815467431E-1
2.872096581E0,1.960500032E-1,7.510500550E-1,2.070000172E-1,8.033435106E-1
2.874059539E0,1.570500135E-1,9.430500269E-1,-2.520000041E-1,9.886920967E-1
2.876022737E0,1.570500135E-1,1.134000063E0,-5.209500194E-1,1.257779699E0
2.877985928E0,1.960500032E-1,1.249050021E0,-9.040500522E-1,1.554306294E0
2.879949122E0,1.960500032E-1,1.402950048E0,-1.326000094E0,1.940355816E0
2.881913055E0,4.260000288E-1,1.594050050E0,-1.861950040E0,2.487836316E0
2.883876788E0,6.169500351E-1,1.708950043E0,-2.359950066E0,2.978338783E0
2.885840159E0,7.699500322E-1,1.900950074E0,-2.667000055E0,3.364420237E0
2.887803636E0,9.240000248E-1,2.092950106E0,-2.974050045E0,3.752224655E0
2.889767139E0,1.000050068E0,2.092950106E0,-3.049950123E0,3.831805845E0
2.891730634E0,1.114950061E0,2.208000183E0,-3.241950035E0,4.077820310E0
2.893694010E0,1.153950095E0,2.208000183E0,-3.433950186E0,4.242508634E0
2.895657415E0,1.306950092E0,2.169000149E0,-3.549000263E0,4.359826035E0
2.897620840E0,1.306950092E0,2.131050110E0,-3.586950064E0,4.372150944E0
2.899584259E0,1.384050012E0,1.978050113E0,-3.739950180E0,4.451460887E0
2.901547953E0,1.459950089E0,1.900950074E0,-3.586950064E0,4.314078837E0
2.903511566E0,1.575000048E0,1.786050081E0,-3.586950064E0,4.305439676E0
2.905474968E0,1.690050125E0,1.633050084E0,-3.625050068E0,4.320197912E0
2.907438425E0,1.843950033E0,1.555950046E0,-3.510000229E0,4.259252737E0
2.909401797E0,2.035050154E0,1.479000092E0,-3.433950186E0,4.256863197E0
2.911365194E0,2.149950027E0,1.249050021E0,-3.433950186E0,4.239625568E0
2.913328936E0,2.304000139E0,9.810000658E-1,-3.319050074E0,4.157748328E0
2.915292576E0,2.457000017E0,6.360000372E-1,-3.241950035E0,4.117230278E0
2.917256999E0,2.610000134E0,3.289500177E-1,-3.012000084E0,3.999056553E0
2.919221192E0,2.725050211E0,-5.295000225E-2,-2.896950245E0,3.977564968E0
2.921184799E0,2.802000046E0,-2.830500007E-1,-2.820000172E0,3.985438812E0
2.923148578E0,2.917050123E0,-8.190000653E-1,-2.743950129E0,4.087689425E0
2.925112210E0,2.955000162E0,-1.240950108E0,-2.629050016E0,4.145345235E0
2.927075886E0,3.031950235E0,-1.701000094E0,-2.667000055E0,4.381667816E0
2.929039441E0,3.031950235E0,-2.275950193E0,-2.704950094E0,4.657190841E0
2.931003035E0,3.070050240E0,-2.812050104E0,-2.820000172E0,5.028442625E0
2.932966564E0,2.992950201E0,-3.310950041E0,-3.127050161E0,5.449640703E0
2.934930112E0,2.917050123E0,-3.847050190E0,-3.855000257E0,6.178187725E0
2.936893828E0,2.878050089E0,-4.306950092E0,-5.119950294E0,7.283329076E0
2.938857495E0,2.917050123E0,-4.690050125E0,-6.768000126E0,8.735649793E0
2.940821196E0,2.802000046E0,-5.074050426E0,-8.455050468E0,1.025110094E1
2.942784884E0,2.802000046E0,-5.419050217E0,-1.079295063E1,1.239778580E1
2.944748353E0,2.802000046E0,-5.725050449E0,-1.305405045E1,1.452706577E1
2.946711886E0,2.725050211E0,-5.955000401E0,-1.450995064E1,1.591937800E1
2.948675424E0,2.572050095E0,-6.070050240E0,-1.519995117E1,1.656802545E1
2.950638961E0,2.380050182E0,-6.031950474E0,-1.527705097E1,1.659630537E1
2.952602559E0,2.074050188E0,-5.917050362E0,-1.450995064E1,1.580670227E1
2.954566129E0,1.651950121E0,-5.610000134E0,-1.324500084E1,1.447864248E1
2.956529663E0,1.345050097E0,-5.419050217E0,-1.194195080E1,1.318277110E1
2.958493208E0,1.114950061E0,-5.188950062E0,-1.083105087E1,1.206150817E1
2.960456520E0,1.000050068E0,-4.920000076E0,-9.949050903E0,1.114406186E1
2.962419900E0,8.470500112E-1,-4.690050125E0,-9.259050369E0,1.041364862E1
2.964383348E0,8.089500666E-1,-4.422000408E0,-8.608050346E0,9.711180082E0
2.966346763E0,8.850000501E-1,-4.153950214E0,-7.803000450E0,8.883993668E0
2.968310099E0,1.077000022E0,-3.924000263E0,-7.113000393E0,8.194661781E0
2.970273458E0,1.192050099E0,-3.655950069E0,-6.001950264E0,7.128138700E0
2.972237071E0,1.422000051E0,-3.463950157E0,-4.582950115E0,5.918147226E0
2.974200610E0,1.959000111E0,-3.349050045E0,-3.319050074E0,5.105870252E0
2.976163939E0,2.419050217E0,-3.271950245E0,-2.704950094E0,4.886124985E0
2.978127319E0,2.533950090E0,-3.042000055E0,-2.514000177E0,4.689868259E0
2.980090703E0,2.610000134E0,-2.851050138E0,-2.437050104E0,4.569442067E0
2.982054086E0,2.494950056E0,-2.659050226E0,-2.475000143E0,4.406920648E0
2.984017832E0,2.419050217E0,-2.506050110E0,-2.398950100E0,4.229308772E0
2.985981471E0,2.341950178E0,-2.275950193E0,-2.092050076E0,3.878318378E0
2.987944959E0,2.227050066E0,-2.122950077E0,-1.671000123E0,3.501272688E0
2.989908516E0,2.074050188E0,-1.930950046E0,-1.134000063E0,3.052246452E0
2.991872275E0,1.959000111E0,-1.701000094E0,-4.060500264E-1,2.626015876E0
2.993835975E0,1.882050037E0,-1.548000097E0,3.220500052E-1,2.458075029E0
2.995798721E0,1.959000111E0,-1.393950105E0,1.203000069E0,2.688491676E0
2.997761746E0,1.996950150E0,-1.432950020E0,1.740000129E0,3.011437548E0
2.999725218E0,1.882050037E0,-1.356000066E0,2.353049994E0,3.304193214E0
3.001688572E0,1.843950033E0,-1.279050112E0,2.812950134E0,3.598445410E0
3.003652142E0,1.690050125E0,-1.048950076E0,3.118950129E0,3.699245273E0
3.005615649E0,1.422000051E0,-7.429500222E-1,3.273000240E0,3.645077427E0
3.007579014E0,1.306950092E0,-4.740000367E-1,3.426000118E0,3.697333010E0
3.009542420E0,1.306950092E0,-2.059500068E-1,3.694050074E0,3.923842491E0
3.011504855E0,1.306950092E0,-1.500000060E-2,3.886050224E0,4.099967060E0
3.013467574E0,1.306950092E0,3.289500177E-1,4.192950249E0,4.404220527E0
3.015431432E0,1.230000019E0,6.360000372E-1,4.345950127E0,4.561214597E0
3.017394956E0,1.306950092E0,7.510500550E-1,4.537950039E0,4.781755461E0
3.019358318E0,1.306950092E0,9.040500522E-1,4.729050159E0,4.988921772E0
3.021321728E0,1.306950092E0,1.057950020E0,4.996950150E0,5.272275371E0
3.023284978E0,1.384050012E0,1.173000097E0,5.419050217E0,5.714685373E0
3.025248271E0,1.459950089E0,1.173000097E0,5.686950207E0,5.987385585E0
3.027211670E0,1.614000082E0,1.173000097E0,6.186000347E0,6.499809673E0
3.029175038E0,1.459950089E0,1.173000097E0,6.799050331E0,7.052266933E0
3.031138606E0,1.384050012E0,1.173000097E0,7.411950588E0,7.630762425E0
3.033102115E0,1.306950092E0,1.173000097E0,7.795050144E0,7.990422675E0
3.035065479E0,1.306950092E0,1.173000097E0,8.370000839E0,8.552248934E0
3.037028886E0,1.269000053E0,1.173000097E0,8.677050591E0,8.847457110E0
3.038992087E0,1.230000019E0,1.173000097E0,9.060000420E0,9.218049516E0
3.040955348E0,1.269000053E0,1.134000063E0,9.289950371E0,9.444548437E0
3.042919068E0,1.269000053E0,1.057950020E0,9.367050171E0,9.511637519E0
3.044882654E0,1.230000019E0,9.040500522E-1,9.214050293E0,9.339642892E0
3.046845674E0,1.114950061E0,7.890000343E-1,8.907000542E0,9.011120538E0
3.048808871E0,7.699500322E-1,7.890000343E-1,8.409000397E0,8.480957008E0
3.050771747E0,1.189500093E-1,9.810000658E-1,7.909950256E0,7.971437969E0
3.052734718E0,-7.230000496E-1,1.134000063E0,7.564950466E0,7.683564327E0
3.054697992E0,-1.452000022E0,1.402950048E0,7.297050476E0,7.571229659E0
3.056661177E0,-2.140950203E0,1.633050084E0,7.029000282E0,7.527108696E0
3.058624702E0,-2.485950232E0,1.708950043E0,6.760950089E0,7.403438721E0
3.060588148E0,-2.716050148E0,1.708950043E0,6.415950298E0,7.173691998E0
3.062551388E0,-2.830950022E0,1.479000092E0,6.031950474E0,6.825404443E0
3.064514689E0,-3.022950172E0,1.479000092E0,5.611050129E0,6.542900929E0
3.066478087E0,-3.022950172E0,1.402950048E0,5.380950451E0,6.329385779E0
3.068441456E0,-3.061050177E0,1.326000094E0,5.151000023E0,6.136864482E0
3.070404669E0,-3.100050211E0,1.326000094E0,4.843950272E0,5.901901541E0
3.072367924E0,-3.100050211E0,1.249050021E0,4.461000443E0,5.574133315E0
3.074331510E0,-3.138000250E0,1.249050021E0,4.116000175E0,5.324343055E0
3.076294999E0,-3.100050211E0,1.210950017E0,3.771000147E0,5.029627557E0
3.078258501E0,-3.061050177E0,1.173000097E0,3.349050045E0,4.686373184E0
3.080221999E0,-3.022950172E0,1.210950017E0,3.004050255E0,4.430456593E0
3.082185180E0,-2.946000099E0,1.173000097E0,2.467950106E0,4.018161711E0
3.084148458E0,-2.793000221E0,1.173000097E0,2.085000038E0,3.677499779E0
3.086111860E0,-2.601000071E0,1.288050056E0,1.663050056E0,3.345147202E0
3.088075225E0,-2.524950027E0,1.402950048E0,1.318050027E0,3.175042890E0
3.090039514E0,-2.371050119E0,1.402950048E0,7.429500222E-1,2.853440422E0
3.092003533E0,-2.140950203E0,1.441050053E0,2.070000172E-1,2.589042687E0
3.093966845E0,-1.795950055E0,1.555950046E0,-2.520000041E-1,2.389544130E0
3.095930371E0,-1.528050065E0,1.555950046E0,-7.120500207E-1,2.294108275E0
3.097894091E0,-1.183050036E0,1.555950046E0,-1.096050024E0,2.240962648E0
3.099857754E0,-9.919500351E-1,1.671000123E0,-1.402050018E0,2.396236745E0
3.101821092E0,-7.230000496E-1,1.671000123E0,-1.632000089E0,2.445075617E0
3.103784525E0,-5.700000525E-1,1.747950077E0,-1.861950040E0,2.616693999E0
3.105748252E0,-4.170000255E-1,1.786050081E0,-2.053950071E0,2.753647546E0
3.107711899E0,-3.019500077E-1,1.747950077E0,-2.206950188E0,2.831454116E0
3.109675734E0,-1.870500147E-1,1.747950077E0,-2.322000027E0,2.912387561E0
3.111639514E0,-1.480500102E-1,1.671000123E0,-2.437050104E0,2.958610050E0
3.113602696E0,4.050000105E-3,1.633050084E0,-2.437050104E0,2.933612481E0
3.115566054E0,4.050000105E-3,1.594050050E0,-2.437050104E0,2.912082618E0
3.117529933E0,1.189500093E-1,1.594050050E0,-2.475000143E0,2.946314711E0
3.119493663E0,1.570500135E-1,1.594050050E0,-2.322000027E0,2.820876529E0
3.121457350E0,1.960500032E-1,1.518000126E0,-2.206950188E0,2.685775329E0
3.123421049E0,3.109500110E-1,1.518000126E0,-2.130000114E0,2.633992175E0
3.125384380E0,3.870000243E-1,1.402950048E0,-2.169000149E0,2.612010625E0
3.127347819E0,4.260000288E-1,1.363950014E0,-2.551950216E0,2.924771029E0
3.129311354E0,4.639500082E-1,1.173000097E0,-3.088950157E0,3.336583869E0
3.131274875E0,3.490500152E-1,9.040500522E-1,-3.970050097E0,4.086617205E0
3.133239137E0,1.570500135E-1,2.530499995E-1,-5.388000488E0,5.396225372E0
3.135203182E0,-1.480500102E-1,-5.130000114E-1,-6.997950554E0,7.018290374E0
3.137166815E0,-5.320500135E-1,-1.585950017E0,-8.455050468E0,8.618943850E0
3.139130569E0,-7.620000243E-1,-2.620950222E0,-9.336000443E0,9.726814914E0
3.141093890E0,-8.770500422E-1,-3.616950274E0,-9.528000832E0,1.022909311E1
3.143057338E0,-1.106999993E0,-4.690050125E0,-9.067950249E0,1.026887242E1
3.145021116E0,-1.336950064E0,-5.917050362E0,-8.185950279E0,1.018865558E1
3.146984798E0,-1.720050097E0,-7.335000515E0,-7.036050320E0,1.030857939E1
3.148948268E0,-2.256000042E0,-8.907000542E0,-5.848050117E0,1.089145927E1
3.150911800E0,-2.830950022E0,-1.055505085E1,-4.890000343E0,1.197227964E1
3.152875503E0,-3.520950079E0,-1.262400055E1,-3.817050219E0,1.365036086E1
3.154839167E0,-4.210950375E0,-1.519200039E1,-2.475000143E0,1.595790101E1
3.156802505E0,-4.939050198E0,-1.802805138E1,-1.516950130E0,1.875382604E1
3.158765939E0,-5.514000416E0,-2.082600021E1,-9.810000658E-1,2.156591864E1
3.160729674E0,-6.088950157E0,-2.362395096E1,-9.810000658E-1,2.441574766E1
3.162693321E0,-6.549000263E0,-2.626905060E1,-9.420000315E-1,2.708947744E1
3.164656842E0,-6.970950127E0,-2.914305115E1,-4.060500264E-1,2.996792373E1
3.166620400E0,-7.315950394E0,-3.228600311E1,1.680000126E-1,3.310494451E1
3.168583214E0,-7.621950150E0,-3.565904999E1,1.126049995E0,3.648191276E1
3.170546246E0,-7.660950184E0,-3.903195190E1,1.777950048E0,3.981638524E1
3.172509735E0,-7.507050514E0,-4.225200272E1,2.506050110E0,4.298683319E1
3.174473090E0,-7.047000408E0,-4.478100204E1,3.118950129E0,4.543925845E1
3.176436644E0,-6.280950069E0,-4.681305313E1,3.043050051E0,4.733045986E1
3.178400119E0,-5.016000271E0,-4.819200134E1,2.812950134E0,4.853392567E1
3.180364029E0,-3.406050205E0,-4.934205246E1,1.624950051E0,4.948615747E1
3.182327812E0,-1.758000135E0,-4.991700363E1,3.979500234E-1,4.994953634E1
3.184292750E0,1.960500032E-1,-5.026200104E1,-1.708950043E0,5.029142764E1
3.186257350E0,1.882050037E0,-5.060700226E1,-4.047000408E0,5.080343495E1
3.188220726E0,3.415050268E0,-5.087505341E1,-6.385050297E0,5.138776600E1
3.190184448E0,4.795050144E0,-5.098995209E1,-8.838000298E0,5.197189595E1
3.192147820E0,6.289950371E0,-5.145000076E1,-1.171200085E1,5.313978752E1
3.194111294E0,7.822950363E0,-5.187195206E1,-1.435695076E1,5.438768241E1
3.196074797E0,9.508950233E0,-5.233200073E1,-1.661805153E1,5.572448359E1
3.198038292E0,1.123395061E1,-5.294505310E1,-1.842000008E1,5.717234206E1
3.200001704E0,1.288200092E1,-5.329005432E1,-1.907100105E1,5.804721284E1
3.201965141E0,1.403205109E1,-5.336700439E1,-1.838100052E1,5.816181562E1
3.203928695E0,1.502805042E1,-5.290695190E1,-1.681005096E1,5.751143949E1
3.205892215E0,1.579500103E1,-5.214000320E1,-1.431900024E1,5.633023841E1
3.207855172E0,1.629300117E1,-5.068395233E1,-1.132905006E1,5.443043530E1
3.209818294E0,1.602495003E1,-4.876695251E1,-7.803000450E0,5.192207139E1
3.211781778E0,1.564200115E1,-4.662105179E1,-4.429950237E0,4.937427598E1
3.213745149E0,1.445295048E1,-4.416795349E1,-1.363950014E0,4.649253975E1
3.215707816E0,1.311195087E1,-4.163805008E1,5.130000114E-1,4.365677083E1
3.217670689E0,1.111905098E1,-3.907005310E1,1.432950020E0,4.064671807E1
3.219634881E0,7.669050217E0,-3.638700104E1,5.295000225E-2,3.718643542E1
3.221598687E0,4.987050056E0,-3.412605286E1,-3.088950157E0,3.462657599E1
3.223562131E0,3.070050240E0,-3.220995331E1,-6.154950142E0,3.293614598E1
3.225525684E0,1.384050012E0,-3.060000229E1,-8.646000862E0,3.182811753E1
3.227488499E0,-3.780000210E-1,-2.910495186E1,-1.079295063E1,3.104398315E1
3.229451530E0,-2.332950115E0,-2.761005211E1,-1.194195080E1,3.017230224E1
3.231415200E0,-4.210950375E0,-2.638395119E1,-1.190400028E1,2.924978985E1
3.233378682E0,-6.166050434E0,-2.527200127E1,-1.102200031E1,2.825205686E1
3.235342230E0,-7.891050339E0,-2.412300110E1,-9.873000145E0,2.723350858E1
3.237305759E0,-9.346950531E0,-2.293395042E1,-8.569950104E0,2.620640401E1
3.239269614E0,-1.030500031E1,-2.190000153E1,-7.342950344E0,2.529272658E1
3.241233374E0,-1.103295040E1,-2.082600021E1,-6.423000336E0,2.442750934E1
3.243196921E0,-1.153200054E1,-1.979205132E1,-5.580000401E0,2.357644452E1
3.245160530E0,-1.149300098E1,-1.898700142E1,-4.927950382E0,2.273499482E1
3.247124030E0,-1.126305008E1,-1.852695084E1,-4.162050247E0,2.207774596E1
3.249087549E0,-1.114800072E1,-1.814295006E1,-3.586950064E0,2.159422996E1
3.251051090E0,-1.068795013E1,-1.806705093E1,-3.088950157E0,2.121773363E1
3.253014624E0,-1.030500031E1,-1.825800133E1,-2.629050016E0,2.112958939E1
3.254978029E0,-9.960000038E0,-1.852695084E1,-2.169000149E0,2.114601782E1
3.256941472E0,-9.730050087E0,-1.887195015E1,-1.861950040E0,2.131410883E1
3.258905195E0,-9.424050331E0,-1.910205078E1,-1.671000123E0,2.136570406E1
3.260868812E0,-8.925000191E0,-1.917795181E1,-1.363950014E0,2.119692958E1
3.262832203E0,-8.772000313E0,-1.921695137E1,-1.096050024E0,2.115279024E1
3.264795660E0,-8.580000877E0,-1.894799995E1,-9.420000315E-1,2.082139480E1
3.266759032E0,-8.350950241E0,-1.852695084E1,-5.970000029E-1,2.033083093E1
3.268722429E0,-8.311950684E0,-1.825800133E1,-2.910000086E-1,2.006309591E1
3.270685772E0,-8.236050606E0,-1.810500145E1,-2.140500098E-1,1.989144099E1
