"Time (s)","Acceleration x (m/s^2)","Acceleration y (m/s^2)","Acceleration z (m/s^2)","Absolute acceleration (m/s^2)"
3.328746400E-2,-6.280950069E0,-2.396895027E1,-6.615000248E0,2.564603555E1
3.524939900E-2,-7.276950359E0,-2.308800125E1,-6.193050385E0,2.498727039E1
3.721392600E-2,-7.966950417E0,-2.232105064E1,-5.772000313E0,2.439298236E1
3.917693400E-2,-8.350950241E0,-2.163105011E1,-5.427000046E0,2.381371513E1
4.114038700E-2,-8.427000046E0,-2.098005104E1,-5.197050095E0,2.319884051E1
4.310326900E-2,-8.350950241E0,-2.048100090E1,-4.813050270E0,2.263570676E1
4.506631500E-2,-8.082000732E0,-2.017500114E1,-4.507050037E0,2.219601106E1
4.702989200E-2,-7.776000500E0,-1.998300171E1,-4.276950359E0,2.186501419E1
4.899331300E-2,-7.507050514E0,-1.979205132E1,-4.123950005E0,2.156590055E1
5.095669200E-2,-7.239000320E0,-1.960005188E1,-3.664050102E0,2.121297769E1
5.292008400E-2,-6.894000530E0,-1.960005188E1,-3.472050190E0,2.106524174E1
5.488310700E-2,-6.549000263E0,-1.960005188E1,-3.319050074E0,2.093006287E1
5.684623800E-2,-6.280950069E0,-1.971495056E1,-3.088950157E0,2.092059326E1
5.880917000E-2,-5.974050522E0,-1.979205132E1,-2.782050133E0,2.086035421E1
6.077216100E-2,-5.821050167E0,-1.986795044E1,-2.667000055E0,2.087421781E1
6.273538700E-2,-5.590950489E0,-1.990695000E1,-2.667000055E0,2.084845977E1
6.469854400E-2,-5.323050022E0,-2.009805107E1,-2.551950216E0,2.094705154E1
6.666142300E-2,-5.245950222E0,-2.013600159E1,-2.359950066E0,2.094153571E1
6.862438700E-2,-5.092950344E0,-2.005995178E1,-2.359950066E0,2.083048662E1
7.058766300E-2,-4.939050198E0,-1.998300171E1,-2.206950188E0,2.070229947E1
7.255084700E-2,-4.863000393E0,-1.986795044E1,-2.130000114E0,2.056504627E1
7.451372600E-2,-4.633050442E0,-1.971495056E1,-2.092050076E0,2.035979139E1
7.647669500E-2,-4.402950287E0,-1.956195068E1,-1.977000117E0,2.014855864E1
7.843994900E-2,-4.096050262E0,-1.936995125E1,-1.786050081E0,1.987869749E1
8.040313400E-2,-3.790050268E0,-1.914000130E1,-1.555950046E0,1.957358197E1
8.236619400E-2,-3.520950079E0,-1.879500008E1,-1.210950017E0,1.916025880E1
8.432929000E-2,-3.406050205E0,-1.852695084E1,-9.420000315E-1,1.886097689E1
8.629240800E-2,-3.214950085E0,-1.829700089E1,-7.890000343E-1,1.859404922E1
8.825551900E-2,-2.908050060E0,-1.798995018E1,-7.120500207E-1,1.823738133E1
9.021894200E-2,-2.485950232E0,-1.787505150E1,-5.590500236E-1,1.805574567E1
9.218227900E-2,-2.103000164E0,-1.760700035E1,-4.440000355E-1,1.773770580E1
9.414549300E-2,-1.834950089E0,-1.718505096E1,-1.369500011E-1,1.728328018E1
9.610874300E-2,-1.605000019E0,-1.664895058E1,1.300500035E-1,1.672664023E1
9.807120400E-2,-1.260000110E0,-1.611194992E1,4.750500321E-1,1.616812305E1
1.000338970E-1,-9.529500604E-1,-1.561395073E1,8.580000401E-1,1.566651637E1
1.019969070E-1,-6.469500065E-1,-1.515405083E1,1.050000072E0,1.520415407E1
1.039598220E-1,-3.780000210E-1,-1.465605068E1,1.165050030E0,1.470714273E1
1.059231070E-1,-1.870500147E-1,-1.423395061E1,1.240950108E0,1.428916705E1
1.078862830E-1,1.960500032E-1,-1.369695091E1,1.395000100E0,1.376920205E1
1.098503790E-1,5.020500422E-1,-1.319895077E1,1.471050024E0,1.329015966E1
1.118142060E-1,8.089500666E-1,-1.266300106E1,1.548000097E0,1.278289092E1
1.137773860E-1,1.192050099E0,-1.212600040E1,1.701000094E0,1.230261235E1
1.157407520E-1,1.422000051E0,-1.170405102E1,1.740000129E0,1.191782257E1
1.177039590E-1,1.690050125E0,-1.132095051E1,1.740000129E0,1.157790094E1
1.196672130E-1,1.959000111E0,-1.093800068E1,1.701000094E0,1.124148307E1
1.216306190E-1,2.149950027E0,-1.059300041E1,1.624950051E0,1.093043483E1
1.235939810E-1,2.304000139E0,-1.021005058E1,1.663050056E0,1.059807931E1
1.255575100E-1,2.304000139E0,-9.826050758E0,1.624950051E0,1.022253162E1
1.275209860E-1,2.304000139E0,-9.405000687E0,1.471050024E0,9.794204548E0
1.294843560E-1,2.265000105E0,-9.021000862E0,1.471050024E0,9.416616707E0
1.314477570E-1,2.341950178E0,-8.562000275E0,1.471050024E0,8.997586761E0
1.334111830E-1,2.457000017E0,-8.101950645E0,1.471050024E0,8.593162486E0
1.353746010E-1,2.494950056E0,-7.756950378E0,1.471050024E0,8.280038836E0
1.373378210E-1,2.610000134E0,-7.372950554E0,1.510050058E0,7.965723554E0
1.393010850E-1,2.839950085E0,-6.913050175E0,1.548000097E0,7.632292153E0
1.412643100E-1,3.070050240E0,-6.529950142E0,1.510050058E0,7.371954185E0
1.432275460E-1,3.415050268E0,-6.147000313E0,1.510050058E0,7.192248074E0
1.451905960E-1,3.682950258E0,-5.878950119E0,1.585950017E0,7.116278140E0
1.471537000E-1,3.952050209E0,-5.533950329E0,1.701000094E0,7.009758086E0
1.491170950E-1,4.219950199E0,-5.188950062E0,1.663050056E0,6.891945873E0
1.510803990E-1,4.450050354E0,-4.882050037E0,1.701000094E0,6.821346058E0
1.530436640E-1,4.564949989E0,-4.498950005E0,1.663050056E0,6.621559864E0
1.550069400E-1,4.717950344E0,-4.153950214E0,1.701000094E0,6.512124012E0
1.569698020E-1,4.603050232E0,-3.732000113E0,1.777950048E0,6.186841088E0
1.589327860E-1,4.527000427E0,-3.387000084E0,1.777950048E0,5.926770521E0
1.608959020E-1,4.372950077E0,-2.965950251E0,1.777950048E0,5.575003107E0
1.628589620E-1,3.913050175E0,-2.544000149E0,1.816050053E0,5.008186919E0
1.648216820E-1,3.300000191E0,-2.161050081E0,2.085000038E0,4.461766900E0
1.667845020E-1,2.802000046E0,-1.816050053E0,2.275950193E0,4.040939412E0
1.687476220E-1,2.533950090E0,-1.509000063E0,2.467950106E0,3.845615942E0
1.707106540E-1,2.419050217E0,-1.240950108E0,2.620950222E0,3.776392616E0
1.726738840E-1,2.457000017E0,-1.126049995E0,2.620950222E0,3.764866232E0
1.746370490E-1,2.380050182E0,-1.011000037E0,2.698050022E0,3.737142474E0
1.766003360E-1,2.304000139E0,-8.190000653E-1,2.659050226E0,3.612440429E0
1.785635870E-1,2.227050066E0,-7.429500222E-1,2.583000183E0,3.490503786E0
1.805268160E-1,2.149950027E0,-6.280500293E-1,2.583000183E0,3.418862663E0
1.824900510E-1,2.149950027E0,-4.740000367E-1,2.620950222E0,3.422914142E0
1.844530770E-1,2.035050154E0,-3.210000098E-1,2.545050144E0,3.274408400E0
1.864161810E-1,2.035050154E0,-2.059500068E-1,2.430000067E0,3.176278460E0
1.883788920E-1,1.996950150E0,-1.680000126E-1,2.353049994E0,3.090773071E0
1.903417190E-1,2.074050188E0,-9.105000645E-2,2.161050081E0,2.996683457E0
1.923038930E-1,1.996950150E0,2.295000106E-2,1.893000126E0,2.751687860E0
1.942662580E-1,1.959000111E0,1.380000114E-1,1.701000094E0,2.598100606E0
1.962293050E-1,1.882050037E0,2.910000086E-1,1.471050024E0,2.406404272E0
1.981921310E-1,1.882050037E0,3.679500222E-1,1.240950108E0,2.284175285E0
2.001554760E-1,1.729050040E0,4.830000103E-1,8.580000401E-1,1.989740466E0
2.021186690E-1,1.614000082E0,7.510500550E-1,6.660000086E-1,1.900691574E0
2.040826280E-1,1.575000048E0,8.659500480E-1,3.979500234E-1,1.840885346E0
2.060463620E-1,1.537050128E0,9.040500522E-1,5.295000225E-2,1.783993637E0
2.080091320E-1,1.498950124E0,1.057950020E0,-2.140500098E-1,1.847140256E0
2.099721950E-1,1.422000051E0,1.173000097E0,-6.739500165E-1,1.962707823E0
2.119349130E-1,1.345050097E0,1.249050021E0,-1.018950105E0,2.099415403E0
2.138977330E-1,1.306950092E0,1.402950048E0,-1.402050018E0,2.375317165E0
2.158608530E-1,1.269000053E0,1.441050053E0,-1.861950040E0,2.674667146E0
2.178238850E-1,1.153950095E0,1.479000092E0,-2.398950100E0,3.045324888E0
2.197871050E-1,1.153950095E0,1.518000126E0,-2.820000172E0,3.404163065E0
2.217502700E-1,1.153950095E0,1.479000092E0,-3.394950151E0,3.878753488E0
2.237135570E-1,1.153950095E0,1.363950014E0,-3.931950092E0,4.318818356E0
2.256768080E-1,1.153950095E0,1.326000094E0,-4.429950237E0,4.765955956E0
2.276400370E-1,1.230000019E0,1.210950017E0,-5.005050182E0,5.294320289E0
2.296032720E-1,1.269000053E0,1.057950020E0,-5.656950474E0,5.893276512E0
2.315667970E-1,1.269000053E0,9.040500522E-1,-6.270000458E0,6.460694496E0
2.335302510E-1,1.306950092E0,4.830000103E-1,-6.844950199E0,6.985323957E0
2.354943450E-1,1.306950092E0,1.759500057E-1,-7.420050144E0,7.536326764E0
2.374582510E-1,1.306950092E0,-1.680000126E-1,-7.879950523E0,7.989365607E0
2.394208710E-1,1.269000053E0,-5.130000114E-1,-8.224950790E0,8.338066062E0
2.413838680E-1,1.230000019E0,-1.048950076E0,-8.569950104E0,8.721080271E0
2.433469430E-1,1.039050102E0,-1.432950020E0,-8.799000740E0,8.975265171E0
2.453100050E-1,8.470500112E-1,-1.816050053E0,-8.761050224E0,8.987298401E0
2.472726800E-1,5.790000558E-1,-2.083950043E0,-8.340000153E0,8.615897596E0
2.492354690E-1,2.719500065E-1,-2.428950071E0,-7.765050411E0,8.140624248E0
2.511986390E-1,1.570500135E-1,-2.659050226E0,-7.266000271E0,7.738861205E0
2.531616970E-1,-3.299999982E-2,-2.889000177E0,-6.615000248E0,7.218423603E0
2.551249820E-1,-1.870500147E-1,-3.081000090E0,-6.040050507E0,6.783049416E0
2.570881830E-1,-3.400500119E-1,-3.196050167E0,-5.388000488E0,6.273828173E0
2.590515540E-1,-4.549500346E-1,-3.234000206E0,-4.774950027E0,5.784970582E0
2.610148750E-1,-5.320500135E-1,-3.234000206E0,-4.276950359E0,5.388333594E0
2.629779560E-1,-7.999500632E-1,-3.234000206E0,-3.739950180E0,5.008583112E0
2.649411080E-1,-1.144950032E0,-3.310950041E0,-3.012000084E0,4.620113121E0
2.669041720E-1,-1.336950064E0,-3.310950041E0,-2.398950100E0,4.301719101E0
2.688672620E-1,-1.452000022E0,-3.234000206E0,-1.786050081E0,3.969513357E0
2.708304700E-1,-1.642950058E0,-3.157050133E0,-1.210950017E0,3.759341748E0
2.727936440E-1,-1.681950092E0,-3.118950129E0,-5.970000029E-1,3.593496211E0
2.747561650E-1,-1.758000135E0,-3.042000055E0,-2.205000073E-2,3.513518894E0
2.767188770E-1,-1.795950055E0,-2.851050138E0,5.899500251E-1,3.420813430E0
2.786822160E-1,-1.681950092E0,-2.812050104E0,1.203000069E0,3.490528766E0
2.806453570E-1,-1.605000019E0,-2.773950100E0,1.585950017E0,3.575760293E0
2.826086030E-1,-1.489950061E0,-2.659050226E0,1.969950080E0,3.629215150E0
2.845718180E-1,-1.413000107E0,-2.544000149E0,2.430000067E0,3.791227556E0
2.865352320E-1,-1.260000110E0,-2.467050076E0,2.928000212E0,4.030771836E0
2.884985880E-1,-1.144950032E0,-2.351999998E0,3.234000206E0,4.159515825E0
2.904619720E-1,-9.529500604E-1,-2.314050198E0,3.618000269E0,4.399189480E0
2.924253520E-1,-7.999500632E-1,-2.238000154E0,3.924000263E0,4.587629329E0
2.943887820E-1,-6.079500318E-1,-2.122950077E0,4.192950249E0,4.738918870E0
2.963521980E-1,-4.930500090E-1,-2.046000004E0,4.461000443E0,4.932518553E0
2.983155780E-1,-4.170000255E-1,-2.008050203E0,4.729050159E0,5.154616383E0
3.002789690E-1,-2.629500031E-1,-1.893000126E0,4.959000111E0,5.314534248E0
3.022424630E-1,-2.250000089E-1,-1.816050053E0,5.151000023E0,5.466394061E0
3.042059430E-1,-3.780000210E-1,-1.738950133E0,5.419050217E0,5.703765145E0
3.061691770E-1,-5.700000525E-1,-1.624050021E0,5.686950207E0,5.941703559E0
3.081324840E-1,-5.700000525E-1,-1.471050024E0,5.878950119E0,6.086948557E0
3.100958360E-1,-5.320500135E-1,-1.393950105E0,5.994000435E0,6.176909852E0
3.120591740E-1,-4.549500346E-1,-1.279050112E0,6.186000347E0,6.333210009E0
3.140225710E-1,-4.170000255E-1,-1.126049995E0,6.262050152E0,6.376139092E0
3.159859470E-1,-3.780000210E-1,-1.048950076E0,6.376950264E0,6.473690983E0
3.179491540E-1,-4.170000255E-1,-8.190000653E-1,6.531000137E0,6.595347824E0
3.199124110E-1,-4.549500346E-1,-7.810500264E-1,6.607050419E0,6.668593099E0
3.218752770E-1,-4.170000255E-1,-6.280500293E-1,6.646050453E0,6.688671205E0
3.238382570E-1,-4.549500346E-1,-5.509500504E-1,6.607050419E0,6.645573017E0
3.258015350E-1,-4.170000255E-1,-4.360500276E-1,6.531000137E0,6.558810215E0
3.277647220E-1,-4.930500090E-1,-2.830500007E-1,6.376950264E0,6.402242598E0
3.297280050E-1,-4.549500346E-1,-1.680000126E-1,6.186000347E0,6.204982178E0
3.316912600E-1,-4.930500090E-1,-1.290000081E-1,5.956050396E0,5.977815289E0
3.336535410E-1,-4.930500090E-1,-9.105000645E-2,5.611050129E0,5.633406781E0
3.356161080E-1,-5.700000525E-1,2.295000106E-2,5.266050339E0,5.296858780E0
3.375793320E-1,-6.469500065E-1,1.380000114E-1,4.806000233E0,4.851311838E0
3.395423520E-1,-6.469500065E-1,3.289500177E-1,4.423050404E0,4.482201167E0
3.415055740E-1,-6.469500065E-1,4.830000103E-1,3.924000263E0,4.006196624E0
3.434687370E-1,-6.079500318E-1,5.980500579E-1,3.463950157E0,3.567382486E0
3.454319790E-1,-5.700000525E-1,7.129500508E-1,3.004050255E0,3.139668098E0
3.473951980E-1,-4.930500090E-1,8.659500480E-1,2.583000183E0,2.768547948E0
3.493582130E-1,-4.549500346E-1,1.057950020E0,2.085000038E0,2.381903218E0
3.513213150E-1,-3.019500077E-1,1.173000097E0,1.548000097E0,1.965555223E0
3.532843880E-1,-1.480500102E-1,1.288050056E0,1.318050027E0,1.848850352E0
3.552474690E-1,-3.299999982E-2,1.441050053E0,7.810500264E-1,1.639436915E0
3.572114450E-1,1.960500032E-1,1.555950046E0,1.680000126E-1,1.577225460E0
3.591751590E-1,3.490500152E-1,1.594050050E0,-1.759500057E-1,1.641276905E0
3.611388880E-1,6.940500140E-1,1.555950046E0,-5.209500194E-1,1.781593357E0
3.631026160E-1,1.000050068E0,1.479000092E0,-1.171950102E0,2.135651762E0
3.650657170E-1,1.269000053E0,1.363950014E0,-1.708950043E0,2.528088413E0
3.670290020E-1,1.537050128E0,1.210950017E0,-2.322000027E0,3.036545268E0
3.689920880E-1,1.882050037E0,9.810000658E-1,-3.049950123E0,3.715732663E0
3.709552330E-1,2.341950178E0,8.280000687E-1,-3.586950064E0,4.363086695E0
3.729185020E-1,2.686950207E0,5.209500194E-1,-3.931950092E0,4.790753789E0
3.748817170E-1,3.070050240E0,2.530499995E-1,-4.429950237E0,5.395711434E0
3.768459870E-1,3.453000069E0,-9.105000645E-2,-4.927950382E0,6.017989245E0
3.788099470E-1,3.874950171E0,-2.059500068E-1,-5.388000488E0,6.639894840E0
3.807730990E-1,4.258049965E0,-4.360500276E-1,-5.925000191E0,7.309360874E0
3.827364880E-1,4.527000427E0,-8.190000653E-1,-6.154950142E0,7.684263480E0
3.846998480E-1,4.833000183E0,-1.011000037E0,-6.385050297E0,8.071485560E0
3.866632330E-1,5.101050377E0,-1.318050027E0,-6.385050297E0,8.278093870E0
3.886263920E-1,5.293050289E0,-1.471050024E0,-6.117000103E0,8.221803926E0
3.905896180E-1,5.485050201E0,-1.663050056E0,-5.848050117E0,8.188479796E0
3.925530290E-1,5.715000153E0,-1.893000126E0,-5.311950207E0,8.028791392E0
3.945163850E-1,5.791050434E0,-1.893000126E0,-4.736999989E0,7.717440217E0
3.964796150E-1,5.752950191E0,-1.777950048E0,-4.315050125E0,7.407914677E0
3.984428680E-1,5.676000118E0,-1.663050056E0,-3.931950092E0,7.102319646E0
4.004059140E-1,5.523000240E0,-1.548000097E0,-3.549000263E0,6.745015851E0
4.023690210E-1,5.446050167E0,-1.432950020E0,-3.241950035E0,6.497926455E0
4.043319570E-1,5.331000328E0,-1.356000066E0,-2.974050045E0,6.253261097E0
4.062949440E-1,5.140050411E0,-1.279050112E0,-2.743950129E0,5.965345734E0
4.082582120E-1,5.025000095E0,-1.279050112E0,-2.667000055E0,5.830907686E0
4.102214000E-1,4.833000183E0,-1.203000069E0,-2.590050220E0,5.613685071E0
4.121844590E-1,4.527000427E0,-1.126049995E0,-2.322000027E0,5.210892974E0
4.141475560E-1,4.143000126E0,-9.730500579E-1,-1.939050078E0,4.676664588E0
4.161107630E-1,3.837000132E0,-8.959500194E-1,-1.479000092E0,4.208650344E0
4.180739380E-1,3.376950264E0,-7.429500222E-1,-8.269500136E-1,3.555223502E0
4.200360980E-1,2.992950201E0,-6.280500293E-1,-9.900000691E-2,3.059738346E0
4.219985560E-1,2.610000134E0,-5.130000114E-1,8.200500607E-1,2.783478365E0
4.239619180E-1,2.265000105E0,-3.210000098E-1,1.930950046E0,2.993632335E0
4.259250150E-1,1.804950118E0,-1.680000126E-1,3.388050079E0,3.842519001E0
4.278875940E-1,1.422000051E0,-5.295000225E-2,4.690950394E0,4.902030543E0
4.298503250E-1,1.230000019E0,2.140500098E-1,5.764050484E0,5.897711033E0
4.318136400E-1,1.077000022E0,5.590500236E-1,6.492000103E0,6.604432702E0
4.337767840E-1,8.850000501E-1,7.890000343E-1,6.684000492E0,6.788343592E0
4.357398050E-1,6.940500140E-1,9.430500269E-1,6.262050152E0,6.370582460E0
4.377028630E-1,5.790000558E-1,9.810000658E-1,5.419050217E0,5.537482049E0
4.396652670E-1,2.719500065E-1,1.057950020E0,4.231050014E0,4.369782520E0
4.416278630E-1,2.340000123E-1,8.659500480E-1,2.314950228E0,2.482663902E0
4.435923990E-1,1.570500135E-1,4.830000103E-1,3.979500234E-1,6.452270436E-1
4.455563800E-1,4.050000105E-3,6.105000153E-2,-1.594050050E0,1.595223830E0
4.475200690E-1,-1.870500147E-1,-2.059500068E-1,-3.549000263E0,3.559888479E0
4.494838440E-1,-5.700000525E-1,-5.130000114E-1,-5.617950439E0,5.670047285E0
4.514467560E-1,-7.620000243E-1,-9.340500236E-1,-7.687950134E0,7.781880926E0
4.534099210E-1,-1.068000078E0,-1.432950020E0,-9.528000832E0,9.694161633E0
4.553731280E-1,-1.642950058E0,-1.930950046E0,-1.052400017E1,1.082508349E1
4.573363460E-1,-2.218050003E0,-2.620950222E0,-1.056300068E1,1.110702972E1
4.592996240E-1,-2.830950022E0,-3.655950069E0,-9.796050072E0,1.083249029E1
4.612628850E-1,-3.483000278E0,-4.804950237E0,-8.530950546E0,1.039211023E1
4.632261110E-1,-3.943050146E0,-6.223950386E0,-7.189950466E0,1.029468749E1
4.651893480E-1,-4.441050053E0,-8.025000572E0,-6.232050419E0,1.108882375E1
4.671525640E-1,-5.131050110E0,-1.017105007E1,-5.733000278E0,1.275324378E1
4.691157960E-1,-6.088950157E0,-1.270095062E1,-5.503050327E0,1.512193849E1
4.710791600E-1,-7.123950481E0,-1.565205097E1,-6.154950142E0,1.826528898E1
4.730424860E-1,-7.929000378E0,-1.852695084E1,-6.538050175E0,2.118638842E1
4.750057460E-1,-8.503950119E0,-2.098005104E1,-5.733000278E0,2.335266583E1
4.769690260E-1,-8.925000191E0,-2.297295189E1,-3.586950064E0,2.490538813E1
4.789313380E-1,-9.193950653E0,-2.485095024E1,-9.040500522E-1,2.651255859E1
4.808939400E-1,-9.615000725E0,-2.657595062E1,1.432950020E0,2.829810482E1
4.828570970E-1,-9.883950233E0,-2.803200150E1,3.273000240E0,2.990314550E1
4.848200910E-1,-1.022895050E1,-2.925795174E1,3.541050196E0,3.119612483E1
4.867834980E-1,-1.068795013E1,-3.029295158E1,3.081000090E0,3.227054005E1
4.887467840E-1,-1.084200096E1,-3.136605072E1,2.430000067E0,3.327586247E1
4.907100560E-1,-1.061205006E1,-3.251595306E1,2.122950077E0,3.426966191E1
4.926733290E-1,-1.018995094E1,-3.374295044E1,2.430000067E0,3.533166717E1
4.946368670E-1,-9.385050774E0,-3.489300156E1,3.157950163E0,3.627083380E1
4.966003270E-1,-7.813950539E0,-3.650205231E1,4.153950214E0,3.755945884E1
4.985635200E-1,-6.166050434E0,-3.814995193E1,5.572050095E0,3.904467637E1
5.005267910E-1,-4.479000092E0,-3.991395187E1,6.952050209E0,4.076169768E1
5.024899950E-1,-2.640000105E0,-4.190700150E1,8.332050323E0,4.280875422E1
5.044532330E-1,-1.030050039E0,-4.405305099E1,9.214050293E0,4.501811888E1
5.064175430E-1,8.470500112E-1,-4.639095306E1,9.481950760E0,4.735763307E1
5.083815390E-1,2.839950085E0,-4.911195374E1,8.409000397E0,4.990752051E1
5.103457200E-1,4.564949989E0,-5.187195206E1,4.461000443E0,5.226316775E1
5.123098470E-1,6.634950161E0,-5.447805405E1,-2.704950094E0,5.494722642E1
5.142731000E-1,9.279000282E0,-5.693100357E1,-1.324500084E1,5.918335121E1
5.162366130E-1,1.230705070E1,-5.900100327E1,-2.363205147E1,6.473836374E1
5.182001550E-1,1.433805084E1,-5.988195419E1,-3.156600189E1,6.919422386E1
5.201636880E-1,1.629300117E1,-5.976705170E1,-3.505395126E1,7.117824004E1
5.221272280E-1,1.686795044E1,-5.873205185E1,-3.321405029E1,6.954965710E1
5.240907650E-1,1.663800049E1,-5.662395096E1,-2.765700150E1,6.517671834E1
5.260541240E-1,1.594800091E1,-5.405595398E1,-2.064300156E1,6.002098305E1
5.280175360E-1,1.479795074E1,-5.091405106E1,-1.443405056E1,5.495053919E1
5.299807360E-1,1.303500080E1,-4.727205276E1,-9.489000320E0,4.994596426E1
5.319439980E-1,8.743050575E0,-4.263495255E1,-6.385050297E0,4.398805496E1
5.339065470E-1,2.917050123E0,-3.765195084E1,-5.082000256E0,3.810518744E1
5.358693050E-1,-1.297950029E0,-3.358905029E1,-4.468050003E0,3.390976916E1
5.378327700E-1,-3.865950108E0,-3.025500107E1,-4.200000286E0,3.078880742E1
5.397960150E-1,-5.398950100E0,-2.745705223E1,-3.894000292E0,2.825246215E1
5.417594240E-1,-6.051000118E0,-2.511900139E1,-3.549000263E0,2.608015023E1
5.437227840E-1,-6.241950512E0,-2.312595177E1,-3.012000084E0,2.414215682E1
5.456863530E-1,-6.357000351E0,-2.136300087E1,-2.437050104E0,2.242160728E1
5.476498610E-1,-6.280950069E0,-1.998300171E1,-1.671000123E0,2.101339888E1
5.496132850E-1,-5.898000240E0,-1.887195015E1,-1.096050024E0,1.980248052E1
5.515767230E-1,-5.629050255E0,-1.806705093E1,-5.590500236E-1,1.893190622E1
5.535393330E-1,-5.245950222E0,-1.756905174E1,-2.205000073E-2,1.833554087E1
5.555021850E-1,-4.747950077E0,-1.745400047E1,3.220500052E-1,1.809112707E1
5.574651640E-1,-4.326000214E0,-1.745400047E1,5.130000114E-1,1.798942966E1
5.594281060E-1,-3.790050268E0,-1.756905174E1,7.050000429E-1,1.798702547E1
5.613915820E-1,-3.061050177E0,-1.783695030E1,6.660000086E-1,1.810995252E1
5.633548900E-1,-2.371050119E0,-1.822005081E1,7.810500264E-1,1.839027377E1
5.653180630E-1,-1.528050065E0,-1.867995071E1,7.810500264E-1,1.875861228E1
5.672812760E-1,-7.620000243E-1,-1.910205078E1,7.429500222E-1,1.913167433E1
5.692457710E-1,4.050000105E-3,-1.960005188E1,5.899500251E-1,1.960892886E1
5.712098900E-1,3.870000243E-1,-2.002200127E1,1.300500035E-1,2.002616331E1
5.731737490E-1,5.790000558E-1,-2.059605026E1,-3.670500219E-1,2.060745625E1
5.751376750E-1,6.940500140E-1,-2.113305092E1,-6.360000372E-1,2.115400772E1
5.771009210E-1,9.619500637E-1,-2.178495026E1,-7.120500207E-1,2.181780055E1
5.790643670E-1,1.153950095E0,-2.243595123E1,-9.420000315E-1,2.248534795E1
5.810276060E-1,1.230000019E0,-2.301105118E1,-1.096050024E0,2.306995236E1
5.829909060E-1,1.114950061E0,-2.343300056E1,-9.810000658E-1,2.348001257E1
5.849539450E-1,9.240000248E-1,-2.370105171E1,-7.120500207E-1,2.372974175E1
5.869170600E-1,7.320000529E-1,-2.396895027E1,-4.060500264E-1,2.398356266E1
5.888788240E-1,2.719500065E-1,-2.408400154E1,-2.205000073E-2,2.408554698E1
5.908409830E-1,-1.099500060E-1,-2.416095161E1,3.600000143E-1,2.416388363E1
5.928042160E-1,-5.700000525E-1,-2.427600098E1,9.730500579E-1,2.430217994E1
5.947671350E-1,-9.919500351E-1,-2.423805046E1,1.510050058E0,2.430529379E1
5.967301040E-1,-1.567050099E0,-2.408400154E1,1.969950080E0,2.421519109E1
5.986930580E-1,-2.026050091E0,-2.381595039E1,2.506050110E0,2.403299106E1
6.006562910E-1,-2.332950115E0,-2.358600044E1,2.851050138E0,2.387196180E1
6.026194420E-1,-2.448000193E0,-2.331795120E1,2.928000212E0,2.362821911E1
6.045825070E-1,-2.640000105E0,-2.281905174E1,3.043050051E0,2.317194158E1
6.065455980E-1,-2.677950144E0,-2.224500084E1,3.118950129E0,2.262165620E1
6.085087360E-1,-2.640000105E0,-2.163105011E1,3.234000206E0,2.203022212E1
6.104718460E-1,-2.448000193E0,-2.086500168E1,3.310950041E0,2.126742556E1
6.124350980E-1,-2.371050119E0,-2.005995178E1,3.310950041E0,2.046914591E1
6.143983080E-1,-2.179949999E0,-1.929300117E1,3.273000240E0,1.968970815E1
6.163617230E-1,-1.950000048E0,-1.845000076E1,3.234000206E0,1.883251937E1
6.183250770E-1,-1.567050099E0,-1.749195099E1,3.157950163E0,1.784367240E1
6.202882420E-1,-1.260000110E0,-1.668704987E1,3.081000090E0,1.701581015E1
6.222514630E-1,-1.068000078E0,-1.588200092E1,3.004050255E0,1.619885476E1
6.242145150E-1,-9.150000215E-1,-1.511595058E1,2.928000212E0,1.542408417E1
6.261776170E-1,-7.620000243E-1,-1.434900093E1,3.043050051E0,1.468790745E1
6.281408690E-1,-5.700000525E-1,-1.358205032E1,3.043050051E0,1.393043950E1
6.301040770E-1,-4.549500346E-1,-1.277805042E1,3.273000240E0,1.319841213E1
6.320669970E-1,-1.480500102E-1,-1.204905033E1,3.273000240E0,1.248655530E1
6.340300020E-1,4.200000316E-2,-1.143600082E1,3.310950041E0,1.190572421E1
6.359930900E-1,2.340000123E-1,-1.082295036E1,3.273000240E0,1.130944478E1
6.379561540E-1,4.639500082E-1,-1.024800014E1,3.349050045E0,1.079133415E1
6.399200890E-1,7.699500322E-1,-9.787950516E0,3.310950041E0,1.036142792E1
6.418837690E-1,1.039050102E0,-9.289950371E0,3.234000206E0,9.891489288E0
6.438469530E-1,1.269000053E0,-8.868000031E0,3.196050167E0,9.511389086E0
6.458102620E-1,1.384050012E0,-8.370000839E0,3.081000090E0,9.025800244E0
6.477731640E-1,1.614000082E0,-7.833000183E0,2.965950251E0,8.529815298E0
6.497361850E-1,1.843950033E0,-7.488000393E0,2.773950100E0,8.195431701E0
6.516992710E-1,2.111999989E0,-7.066950321E0,2.698050022E0,7.853776462E0
6.536623370E-1,2.188950062E0,-6.568950176E0,2.620950222E0,7.403511927E0
6.556256160E-1,2.380050182E0,-6.223950386E0,2.391000032E0,7.079482921E0
6.575888180E-1,2.494950056E0,-5.802000046E0,2.122950077E0,6.662949598E0
6.595522340E-1,2.686950207E0,-5.380050182E0,1.930950046E0,6.316107144E0
6.615155870E-1,2.839950085E0,-4.882050037E0,1.663050056E0,5.887738491E0
6.634787530E-1,2.917050123E0,-4.422000408E0,1.510050058E0,5.508495276E0
6.654419740E-1,2.839950085E0,-3.847050190E0,1.471050024E0,5.002909136E0
6.674050750E-1,2.610000134E0,-3.157050133E0,1.432950020E0,4.339632703E0
6.693682090E-1,2.341950178E0,-2.620950222E0,1.395000100E0,3.781552060E0
6.713310960E-1,2.227050066E0,-2.008050203E0,1.471050024E0,3.340060746E0
6.732940550E-1,2.188950062E0,-1.663050056E0,1.432950020E0,3.100094131E0
6.752571060E-1,2.035050154E0,-1.126049995E0,1.548000097E0,2.793872227E0
6.772201300E-1,2.035050154E0,-6.660000086E-1,1.663050056E0,2.711221243E0
6.791825160E-1,1.882050037E0,-2.059500068E-1,1.816050053E0,2.623464416E0
6.811450750E-1,1.690050125E0,2.140500098E-1,1.969950080E0,2.604379033E0
6.831081040E-1,1.614000082E0,7.129500508E-1,1.969950080E0,2.644616675E0
6.850709960E-1,1.498950124E0,1.096050024E0,1.969950080E0,2.707190508E0
6.870341050E-1,1.422000051E0,1.441050053E0,1.855050087E0,2.745891517E0
6.889971500E-1,1.422000051E0,1.708950043E0,1.663050056E0,2.776387919E0
6.909605720E-1,1.498950124E0,1.863000035E0,1.510050058E0,2.828050881E0
6.929238660E-1,1.575000048E0,2.016000032E0,1.471050024E0,2.951079371E0
6.948869520E-1,1.498950124E0,2.169000149E0,1.318050027E0,2.947654829E0
6.968500990E-1,1.498950124E0,2.208000183E0,9.730500579E-1,2.840588442E0
6.988140190E-1,1.537050128E0,2.245950222E0,4.750500321E-1,2.762695790E0
7.007777120E-1,1.537050128E0,2.245950222E0,2.449500114E-1,2.732547530E0
7.027408890E-1,1.614000082E0,2.284050226E0,-1.759500057E-1,2.802291938E0
7.047042320E-1,1.651950121E0,2.284050226E0,-7.120500207E-1,2.907376802E0
7.066673990E-1,1.575000048E0,2.361000061E0,-1.210950017E0,3.085667899E0
7.086306170E-1,1.422000051E0,2.476050138E0,-1.632000089E0,3.288819351E0
7.105940740E-1,1.384050012E0,2.514000177E0,-2.284050226E0,3.667789084E0
7.125574610E-1,1.384050012E0,2.590950012E0,-3.012000084E0,4.207227223E0
7.145208460E-1,1.345050097E0,2.743950129E0,-3.778950214E0,4.859926624E0
7.164842320E-1,1.306950092E0,2.896950245E0,-4.660050392E0,5.640612460E0
7.184477500E-1,1.230000019E0,3.051000118E0,-6.040050507E0,6.877769398E0
7.204112300E-1,8.850000501E-1,3.319050074E0,-7.995000362E0,8.701686576E0
7.223737430E-1,5.020500422E-1,3.472050190E0,-9.834000587E0,1.044101309E1
7.243365400E-1,-3.299999982E-2,3.472050190E0,-1.152105045E1,1.203290593E1
7.262999790E-1,-4.930500090E-1,3.280950069E0,-1.339905071E1,1.380370572E1
7.282632300E-1,-8.380500674E-1,2.551950216E0,-1.500900078E1,1.524745494E1
7.302262780E-1,-1.030050039E0,1.708950043E0,-1.588995075E1,1.601474471E1
7.321893860E-1,-1.297950029E0,8.659500480E-1,-1.623495102E1,1.630975715E1
7.341532220E-1,-1.567050099E0,2.295000106E-2,-1.615800095E1,1.623382787E1
7.361168450E-1,-1.873050094E0,-4.360500276E-1,-1.566000080E1,1.577764499E1
7.380799860E-1,-2.179949999E0,-9.730500579E-1,-1.481700039E1,1.500808145E1
7.400432850E-1,-2.410050154E0,-1.318050027E0,-1.378200054E1,1.405308281E1
7.420065040E-1,-2.640000105E0,-1.585950017E0,-1.263195038E1,1.300196171E1
7.439697470E-1,-2.755050182E0,-1.738950133E0,-1.144395065E1,1.189866613E1
7.459331100E-1,-2.677950144E0,-1.930950046E0,-1.037100029E1,1.088382433E1
7.478964370E-1,-2.410050154E0,-2.008050203E0,-9.183000565E0,9.704025285E0
7.498596380E-1,-1.834950089E0,-2.083950043E0,-8.110050201E0,8.572211143E0
7.518228860E-1,-1.260000110E0,-2.199000120E0,-6.960000515E0,7.407078302E0
7.537863390E-1,-7.230000496E-1,-2.238000154E0,-5.887050152E0,6.339458435E0
7.557497310E-1,-2.250000089E-1,-2.275950193E0,-4.927950382E0,5.432795713E0
7.577134750E-1,1.960500032E-1,-2.275950193E0,-4.009050369E0,4.614203046E0
7.596771150E-1,5.410500169E-1,-2.275950193E0,-3.241950035E0,3.997864984E0
7.616405870E-1,9.240000248E-1,-2.199000120E0,-2.514000177E0,3.465483295E0
7.636041120E-1,1.192050099E0,-2.161050081E0,-1.939050078E0,3.138636025E0
7.655671120E-1,1.345050097E0,-2.122950077E0,-1.326000094E0,2.841540611E0
7.675302660E-1,1.575000048E0,-2.083950043E0,-6.360000372E-1,2.688488233E0
7.694927890E-1,1.767000079E0,-2.083950043E0,5.295000225E-2,2.732753330E0
7.714554970E-1,1.920000076E0,-2.046000004E0,6.280500293E-1,2.875232712E0
7.734193570E-1,1.996950150E0,-2.083950043E0,1.165050030E0,3.112555100E0
7.753828790E-1,2.074050188E0,-2.008050203E0,1.548000097E0,3.275706657E0
7.773462870E-1,2.111999989E0,-1.969050050E0,1.969950080E0,3.495483567E0
7.793097280E-1,2.111999989E0,-2.046000004E0,2.467950106E0,3.838937052E0
7.812725170E-1,1.996950150E0,-2.122950077E0,2.889000177E0,4.103784711E0
7.832354970E-1,1.959000111E0,-2.161050081E0,3.234000206E0,4.355063285E0
7.851985950E-1,1.882050037E0,-2.083950043E0,3.655950069E0,4.609873212E0
7.871616540E-1,1.767000079E0,-2.083950043E0,4.153950214E0,4.971965350E0
7.891247790E-1,1.767000079E0,-2.122950077E0,4.614000320E0,5.377564994E0
7.910878840E-1,1.767000079E0,-2.083950043E0,4.996950150E0,5.695142479E0
7.930510920E-1,1.882050037E0,-2.083950043E0,5.341950417E0,6.035014033E0
7.950142690E-1,1.996950150E0,-1.969050050E0,5.533950329E0,6.203996634E0
7.969775490E-1,1.996950150E0,-1.930950046E0,5.764050484E0,6.398488568E0
7.989408030E-1,1.996950150E0,-1.893000126E0,5.956050396E0,6.560929484E0
8.009043900E-1,1.843950033E0,-1.777950048E0,6.070950508E0,6.589210740E0
8.028678790E-1,1.729050040E0,-1.663050056E0,5.994000435E0,6.456267555E0
8.048310670E-1,1.614000082E0,-1.548000097E0,5.994000435E0,6.397604378E0
8.067943430E-1,1.422000051E0,-1.509000063E0,5.917050362E0,6.269820597E0
8.087578990E-1,1.306950092E0,-1.393950105E0,5.878950119E0,6.181688276E0
8.107213600E-1,1.269000053E0,-1.279050112E0,5.917050362E0,6.185290236E0
8.126847320E-1,1.114950061E0,-1.126049995E0,5.956050396E0,6.163249025E0
8.146481310E-1,1.000050068E0,-1.011000037E0,5.956050396E0,6.123459605E0
8.166113780E-1,8.850000501E-1,-9.340500236E-1,5.956050396E0,6.093456396E0
8.185746700E-1,8.089500666E-1,-8.580000401E-1,5.917050362E0,6.033411080E0
8.205371050E-1,6.550500393E-1,-7.810500264E-1,5.725950241E0,5.815981075E0
8.224998050E-1,5.020500422E-1,-7.039500475E-1,5.611050129E0,5.677277822E0
8.244633060E-1,3.109500110E-1,-6.660000086E-1,5.496000290E0,5.544931479E0
8.264265720E-1,1.189500093E-1,-6.280500293E-1,5.266050339E0,5.304703773E0
8.283898420E-1,-1.099500060E-1,-6.280500293E-1,5.035950184E0,5.076153081E0
8.303531100E-1,-3.019500077E-1,-5.890500546E-1,4.690950394E0,4.737422228E0
8.323162300E-1,-4.930500090E-1,-6.280500293E-1,4.461000443E0,4.531894758E0
8.342794680E-1,-6.850500107E-1,-5.509500504E-1,4.192950249E0,4.284118493E0
8.362430120E-1,-7.620000243E-1,-5.509500504E-1,3.886050224E0,3.998196636E0
8.382064660E-1,-9.529500604E-1,-4.740000367E-1,3.579000235E0,3.733903123E0
8.401697040E-1,-1.068000078E0,-4.740000367E-1,3.234000206E0,3.438612734E0
8.421330060E-1,-1.183050036E0,-4.360500276E-1,2.889000177E0,3.152153080E0
8.440961610E-1,-1.183050036E0,-4.360500276E-1,2.545050144E0,2.840251266E0
8.460593720E-1,-1.106999993E0,-3.589500189E-1,2.008050203E0,2.320896318E0
8.480224710E-1,-1.144950032E0,-2.830500007E-1,1.510050058E0,1.916058208E0
8.499856030E-1,-1.336950064E0,-2.440500110E-1,1.203000069E0,1.814994503E0
8.519490300E-1,-1.567050099E0,-1.680000126E-1,8.200500607E-1,1.776612541E0
8.539123700E-1,-1.681950092E0,-2.059500068E-1,5.130000114E-1,1.770463366E0
8.558761320E-1,-1.720050097E0,-2.440500110E-1,2.449500114E-1,1.754460957E0
8.578397640E-1,-1.720050097E0,-2.830500007E-1,-9.900000691E-2,1.745992737E0
8.598030620E-1,-1.642950058E0,-3.210000098E-1,-3.289500177E-1,1.706028726E0
8.617664580E-1,-1.413000107E0,-3.589500189E-1,-6.360000372E-1,1.590569227E0
8.637296600E-1,-1.260000110E0,-4.740000367E-1,-8.659500480E-1,1.600670421E0
8.656929190E-1,-1.068000078E0,-5.890500546E-1,-1.134000063E0,1.665400936E0
8.676562040E-1,-9.529500604E-1,-6.660000086E-1,-1.363950014E0,1.792213567E0
8.696194710E-1,-8.770500422E-1,-6.660000086E-1,-1.594050050E0,1.937464412E0
8.715826970E-1,-8.380500674E-1,-7.039500475E-1,-1.671000123E0,1.997527220E0
8.735459350E-1,-7.999500632E-1,-7.039500475E-1,-1.900950074E0,2.179237701E0
8.755089390E-1,-6.469500065E-1,-6.660000086E-1,-1.939050078E0,2.149887329E0
8.774720110E-1,-6.469500065E-1,-7.429500222E-1,-2.014950037E0,2.242887134E0
8.794347290E-1,-6.079500318E-1,-6.280500293E-1,-2.092050076E0,2.267316387E0
8.813975500E-1,-5.320500135E-1,-6.280500293E-1,-2.130000114E0,2.283511450E0
8.833608950E-1,-5.320500135E-1,-6.280500293E-1,-2.053950071E0,2.212743761E0
8.853240860E-1,-4.930500090E-1,-5.130000114E-1,-2.014950037E0,2.136888152E0
8.872875040E-1,-4.170000255E-1,-4.740000367E-1,-1.861950040E0,1.966067905E0
8.892508560E-1,-3.019500077E-1,-4.360500276E-1,-1.786050081E0,1.863139374E0
8.912140670E-1,-2.250000089E-1,-3.210000098E-1,-1.632000089E0,1.678418988E0
8.931773190E-1,-2.250000089E-1,-2.830500007E-1,-1.402050018E0,1.447924915E0
8.951407250E-1,-2.250000089E-1,-2.059500068E-1,-1.057050109E0,1.100179686E0
8.971040860E-1,-3.400500119E-1,-1.680000126E-1,-7.510500550E-1,8.413882576E-1
8.990676100E-1,-3.400500119E-1,-1.290000081E-1,-3.289500177E-1,4.903907899E-1
9.010310860E-1,-3.780000210E-1,-9.105000645E-2,1.500000060E-2,3.891003978E-1
9.029925190E-1,-3.780000210E-1,-1.500000060E-2,2.070000172E-1,4.312285044E-1
9.049545500E-1,-4.549500346E-1,2.295000106E-2,3.979500234E-1,6.048722656E-1
9.069181660E-1,-4.170000255E-1,1.380000114E-1,8.200500607E-1,9.302769085E-1
9.088813170E-1,-4.930500090E-1,1.759500057E-1,1.165050030E0,1.277262028E0
9.108445620E-1,-5.320500135E-1,1.759500057E-1,1.395000100E0,1.503349893E0
9.128077790E-1,-5.700000525E-1,2.140500098E-1,1.510050058E0,1.628179549E0
9.147706480E-1,-6.079500318E-1,2.530499995E-1,1.816050053E0,1.931754471E0
9.167336220E-1,-6.850500107E-1,3.289500177E-1,2.085000038E0,2.219172546E0
9.186968950E-1,-7.620000243E-1,2.910000086E-1,2.314950228E0,2.454448940E0
9.206600810E-1,-8.380500674E-1,2.530499995E-1,2.545050144E0,2.691401578E0
9.226235000E-1,-9.150000215E-1,2.530499995E-1,2.698050022E0,2.860198116E0
9.245868510E-1,-1.106999993E0,2.140500098E-1,2.736000061E0,2.959216573E0
9.265504150E-1,-1.336950064E0,2.530499995E-1,2.928000212E0,3.228723434E0
9.285138890E-1,-1.567050099E0,2.530499995E-1,3.043050051E0,3.432176267E0
9.304770790E-1,-1.720050097E0,2.910000086E-1,3.234000206E0,3.674508222E0
9.324403520E-1,-1.950000048E0,3.679500222E-1,3.463950157E0,3.992096955E0
9.344033950E-1,-2.065050125E0,4.060500264E-1,3.655950069E0,4.218445158E0
9.363665060E-1,-2.179949999E0,5.590500236E-1,3.771000147E0,4.391487337E0
9.383299170E-1,-2.218050003E0,6.739500165E-1,3.847950220E0,4.492290656E0
9.402932540E-1,-2.218050003E0,8.280000687E-1,3.808950186E0,4.484800045E0
9.422566470E-1,-2.140950203E0,9.430500269E-1,3.771000147E0,4.437730640E0
9.442200240E-1,-1.987950087E0,1.057950020E0,3.694050074E0,4.326339069E0
9.461832300E-1,-1.795950055E0,1.210950017E0,3.541050196E0,4.151008677E0
9.481464870E-1,-1.642950058E0,1.363950014E0,3.426000118E0,4.036969327E0
9.501095830E-1,-1.452000022E0,1.441050053E0,3.273000240E0,3.859722774E0
9.520727230E-1,-1.260000110E0,1.671000123E0,3.426000118E0,4.014638028E0
9.540357440E-1,-1.068000078E0,1.786050081E0,3.463950157E0,4.040983760E0
9.559988000E-1,-7.620000243E-1,1.863000035E0,3.196050167E0,3.777055710E0
9.579619250E-1,-4.170000255E-1,1.863000035E0,2.851050138E0,3.431201691E0
9.599250290E-1,4.200000316E-2,1.900950074E0,2.583000183E0,3.207376674E0
9.618893370E-1,5.020500422E-1,2.053950071E0,2.391000032E0,3.191809251E0
9.638532780E-1,8.470500112E-1,2.169000149E0,2.467950106E0,3.393056600E0
9.658162530E-1,1.077000022E0,2.476050138E0,2.545050144E0,3.710530093E0
9.677795110E-1,1.039050102E0,2.743950129E0,2.698050022E0,3.986020741E0
9.697425120E-1,9.240000248E-1,3.012000084E0,2.659050226E0,4.122677365E0
9.717055880E-1,7.699500322E-1,3.204000235E0,2.275950193E0,4.004795855E0
9.736688900E-1,4.260000288E-1,3.319050074E0,1.510050058E0,3.671215139E0
9.756321250E-1,1.189500093E-1,3.319050074E0,2.449500114E-1,3.330201646E0
9.775956710E-1,-3.299999982E-2,3.204000235E0,-1.786050081E0,3.668334962E0
9.795591250E-1,-1.480500102E-1,2.743950129E0,-4.353000164E0,5.147794823E0
9.815227230E-1,-7.620000243E-1,1.824000120E0,-6.232050419E0,6.538048095E0
9.834862780E-1,-1.068000078E0,-1.500000060E-2,-8.377950668E0,8.445762640E0
9.854497460E-1,-8.380500674E-1,-1.738950133E0,-1.033305073E1,1.051181301E1
9.874132560E-1,-4.549500346E-1,-3.349050045E0,-1.075395012E1,1.127255778E1
9.893763040E-1,-1.480500102E-1,-4.843950272E0,-1.021800041E1,1.130899224E1
9.913394870E-1,-7.200000435E-2,-6.415050507E0,-9.643050194E0,1.158216189E1
9.933026800E-1,-2.629500031E-1,-8.101950645E0,-9.183000565E0,1.224901001E1
9.952658700E-1,-9.150000215E-1,-9.711000443E0,-8.646000862E0,1.303434254E1
9.972289690E-1,-1.681950092E0,-1.166595078E1,-7.765050411E0,1.411450925E1
9.991920980E-1,-2.601000071E0,-1.385100079E1,-7.036050320E0,1.575187063E1
1.001155661E0,-3.675000191E0,-1.626495171E1,-7.036050320E0,1.809862659E1
1.003119096E0,-4.900950432E0,-1.864200020E1,-7.611000538E0,2.072367766E1
1.005082157E0,-6.127950191E0,-2.090295029E1,-7.918050289E0,2.317715739E1
1.007045328E0,-7.086000443E0,-2.335605049E1,-7.803000450E0,2.562427195E1
1.009008538E0,-8.158950806E0,-2.603895187E1,-7.765050411E0,2.837060981E1
1.010971726E0,-9.270000458E0,-2.895195198E1,-6.921000481E0,3.117769523E1
1.012934964E0,-1.022895050E1,-3.224805069E1,-6.154950142E0,3.438679416E1
1.014898188E0,-1.103295040E1,-3.600405121E1,-5.272950172E0,3.802396220E1
1.016861420E0,-1.118700027E1,-4.006695175E1,-5.043000221E0,4.190395505E1
1.018824649E0,-1.065000057E1,-4.428300095E1,-4.774950027E0,4.579527086E1
1.020787676E0,-9.346950531E0,-4.830705261E1,-4.084949970E0,4.937229621E1
1.022750684E0,-7.699050426E0,-5.183295059E1,-2.782050133E0,5.247542232E1
1.024713772E0,-4.863000393E0,-5.467005157E1,-1.402050018E0,5.490381641E1
1.026676836E0,-1.987950087E0,-5.673900223E1,-8.269500136E-1,5.677983943E1
1.028640771E0,6.940500140E-1,-5.792805099E1,-1.096050024E0,5.794257608E1
1.030604451E0,2.992950201E0,-5.819595337E1,-1.786050081E0,5.830022911E1
1.032567129E0,4.948050022E0,-5.831100464E1,-3.319050074E0,5.861461042E1
1.034530088E0,6.520050526E0,-5.785095215E1,-5.119950294E0,5.844191659E1
1.036493364E0,7.899000168E0,-5.754405212E1,-7.918050289E0,5.862088074E1
1.038456547E0,8.781000137E0,-5.696895218E1,-1.102200031E1,5.868604576E1
1.040419562E0,9.318000793E0,-5.647095108E1,-1.362900066E1,5.883488008E1
1.042382626E0,1.004595089E1,-5.551305389E1,-1.458705044E1,5.827008085E1
1.044345871E0,1.100400066E1,-5.417100143E1,-1.408905029E1,5.704460330E1
1.046309072E0,1.253700066E1,-5.248500061E1,-1.209600067E1,5.530067727E1
1.048272174E0,1.395495033E1,-5.068395233E1,-9.412950516E0,5.340606052E1
1.050235305E0,1.456800079E1,-4.907400131E1,-7.075050354E0,5.167727343E1
1.052198687E0,1.525800037E1,-4.773195267E1,-5.005050182E0,5.036066330E1
1.054161995E0,1.579500103E1,-4.658295059E1,-3.549000263E0,4.931580625E1
1.056125418E0,1.594800091E1,-4.554795074E1,-2.935050249E0,4.834841331E1
1.058088821E0,1.594800091E1,-4.470405197E1,-3.433950186E0,4.758763505E1
1.060052203E0,1.518195057E1,-4.359300232E1,-4.392000198E0,4.636950658E1
1.062015592E0,1.441500092E1,-4.263495255E1,-6.117000103E0,4.541969969E1
1.063978796E0,1.322700024E1,-4.129305267E1,-8.301000595E0,4.414721220E1
1.065942054E0,1.016100025E1,-3.899400330E1,-1.075395012E1,4.170642232E1
1.067905055E0,5.905950069E0,-3.623400116E1,-1.297695065E1,3.893821175E1
1.069868131E0,2.572050095E0,-3.389595032E1,-1.405005074E1,3.678253411E1
1.071830532E0,1.189500093E-1,-3.198000145E1,-1.401195049E1,3.491517433E1
1.073793131E0,-1.873050094E0,-3.029295158E1,-1.332195091E1,3.314582339E1
1.075756424E0,-3.520950079E0,-2.887500191E1,-1.244100094E1,3.163765682E1
1.077719514E0,-5.169000149E0,-2.734200096E1,-1.140600014E1,3.007325088E1
1.079682594E0,-6.702000141E0,-2.577105141E1,-1.037100029E1,2.857659083E1
1.081645674E0,-7.891050339E0,-2.431395149E1,-9.796050072E0,2.737516228E1
1.083608930E0,-8.925000191E0,-2.293395042E1,-9.373950005E0,2.633424860E1
1.085572134E0,-9.769050598E0,-2.151600075E1,-8.875950813E0,2.524193219E1
1.087535235E0,-1.011405087E1,-2.036595154E1,-8.340000153E0,2.422027270E1
1.089498367E0,-1.057395077E1,-1.917795181E1,-7.803000450E0,2.324842116E1
1.091461608E0,-1.068795013E1,-1.802805138E1,-6.768000126E0,2.202382211E1
1.093424821E0,-1.076505089E1,-1.695495033E1,-5.695050240E0,2.087559002E1
1.095388235E0,-1.038195038E1,-1.641900063E1,-5.197050095E0,2.010914729E1
1.097351590E0,-9.807000160E0,-1.615005112E1,-4.813050270E0,1.949786799E1
1.099314756E0,-9.462000847E0,-1.557600117E1,-3.855000257E0,1.862799773E1
1.101277977E0,-9.270000458E0,-1.503900051E1,-2.359950066E0,1.782340622E1
1.103241200E0,-8.772000313E0,-1.538400078E1,-2.820000172E0,1.793231358E1
1.105204428E0,-8.464950562E0,-1.503900051E1,-1.594050050E0,1.733112576E1
1.107167119E0,-8.121000290E0,-1.465605068E1,2.070000172E-1,1.675688862E1
1.109129968E0,-7.276950359E0,-1.484700108E1,-9.900000691E-2,1.653472856E1
1.111092183E0,-6.586950302E0,-1.488600063E1,8.959500194E-1,1.630287262E1
1.113054584E0,-5.590950489E0,-1.515405083E1,7.429500222E-1,1.616959983E1
1.115017727E0,-4.594050407E0,-1.553700066E1,8.959500194E-1,1.622671917E1
1.116980687E0,-3.790050268E0,-1.565205097E1,1.087950110E0,1.614109092E1
1.118943829E0,-2.985000134E0,-1.576695061E1,1.050000072E0,1.608133879E1
1.120906918E0,-2.332950115E0,-1.591995049E1,8.580000401E-1,1.611284096E1
1.122869994E0,-1.758000135E0,-1.599705029E1,7.810500264E-1,1.611230032E1
1.124833074E0,-1.452000022E0,-1.595895100E1,8.580000401E-1,1.604782182E1
1.126796363E0,-1.144950032E0,-1.591995049E1,8.580000401E-1,1.598411393E1
1.128759567E0,-7.230000496E-1,-1.595895100E1,7.429500222E-1,1.599258643E1
1.130722623E0,-4.549500346E-1,-1.584405041E1,7.050000429E-1,1.586625154E1
1.132685722E0,-1.099500060E-1,-1.588200092E1,7.050000429E-1,1.589802086E1
1.134648929E0,8.100000024E-2,-1.584405041E1,7.429500222E-1,1.586166665E1
1.136612105E0,3.870000243E-1,-1.580505085E1,7.429500222E-1,1.582723526E1
1.138576081E0,5.790000558E-1,-1.576695061E1,9.349500537E-1,1.580525559E1
1.140539812E0,1.039050102E0,-1.572900105E1,1.011000037E0,1.579567093E1
1.142502778E0,1.269000053E0,-1.572900105E1,1.011000037E0,1.581246205E1
1.144465968E0,1.422000051E0,-1.572900105E1,9.730500579E-1,1.582309655E1
1.146429205E0,1.804950118E0,-1.576695061E1,1.087950110E0,1.590717485E1
1.148392428E0,2.149950027E0,-1.569000053E1,1.165050030E0,1.587941257E1
1.150355655E0,2.419050217E0,-1.549905109E1,1.356000066E0,1.574519371E1
1.152318884E0,2.802000046E0,-1.523100090E1,1.471050024E0,1.555630357E1
1.154282161E0,3.262050152E0,-1.503900051E1,1.471050024E0,1.545886463E1
1.156245423E0,3.607050180E0,-1.469400024E1,1.510050058E0,1.520541697E1
1.158208649E0,3.798000097E0,-1.434900093E1,1.548000097E0,1.492363685E1
1.160171886E0,4.182000160E0,-1.408095074E1,1.663050056E0,1.478269375E1
1.162135250E0,4.411950111E0,-1.381200027E1,1.701000094E0,1.459897451E1
1.164098577E0,4.948050022E0,-1.335300064E1,1.740000129E0,1.434619899E1
1.166061477E0,5.293050289E0,-1.300800037E1,1.663050056E0,1.414178880E1
1.168024502E0,5.676000118E0,-1.243305016E1,1.663050056E0,1.376820428E1
1.169987542E0,5.868000507E0,-1.174305058E1,1.855050087E0,1.325797411E1
1.171950577E0,6.021000385E0,-1.101495075E1,1.816050053E0,1.268383316E1
1.173913511E0,6.021000385E0,-1.021005058E1,1.930950046E0,1.200941908E1
1.175876454E0,5.868000507E0,-9.481050491E0,2.046000004E0,1.133621914E1
1.177839373E0,5.715000153E0,-8.715000153E0,2.314950228E0,1.067574114E1
1.179802300E0,6.060000420E0,-8.178000450E0,2.430000067E0,1.046461642E1
1.181765447E0,6.250950336E0,-7.680000305E0,2.851050138E0,1.030462380E1
1.183728529E0,6.673050404E0,-7.143000126E0,3.157950163E0,1.027252168E1
1.185691950E0,7.056000233E0,-6.684000492E0,3.502950191E0,1.033119847E1
1.187655283E0,7.210050106E0,-6.109050274E0,3.771000147E0,1.017476093E1
1.189618631E0,7.248000145E0,-5.533950329E0,4.078050137E0,9.989424671E0
1.191581975E0,7.248000145E0,-5.074050426E0,4.231050014E0,9.807205415E0
1.193545007E0,7.095000267E0,-4.498950005E0,4.461000443E0,9.512103073E0
1.195508131E0,6.865050316E0,-4.000950336E0,4.498950005E0,9.131104565E0
1.197471413E0,6.558000088E0,-3.502050161E0,4.498950005E0,8.689779723E0
1.199434625E0,6.328050137E0,-3.118950129E0,4.498950005E0,8.367354395E0
1.201397859E0,5.944950104E0,-2.697000027E0,4.192950249E0,7.758677250E0
1.203361086E0,5.599950314E0,-2.428950071E0,3.963000298E0,7.277679116E0
1.205324498E0,5.215950012E0,-2.199000120E0,3.808950186E0,6.822744138E0
1.207287856E0,4.756950378E0,-1.854000092E0,3.694050074E0,6.301737791E0
1.209251071E0,4.372950077E0,-1.548000097E0,3.426000118E0,5.766842593E0
1.211214324E0,3.990000248E0,-1.318050027E0,3.234000206E0,5.302463124E0
1.213177551E0,3.682950258E0,-1.203000069E0,3.081000090E0,4.950140738E0
1.215140786E0,3.415050268E0,-9.340500236E-1,2.965950251E0,4.618644679E0
1.217103880E0,3.070050240E0,-7.810500264E-1,2.851050138E0,4.261893301E0
1.219067016E0,2.764050245E0,-5.130000114E-1,2.736000061E0,3.922861087E0
1.221030238E0,2.457000017E0,-3.979500234E-1,2.545050144E0,3.559844595E0
1.222993452E0,2.188950062E0,-2.830500007E-1,2.467950106E0,3.310951132E0
1.224956326E0,1.690050125E0,-1.680000126E-1,2.314950228E0,2.871147503E0
1.226919300E0,1.230000019E0,-5.295000225E-2,2.122950077E0,2.454102846E0
1.228882214E0,8.470500112E-1,-1.500000060E-2,1.893000126E0,2.073925794E0
1.230845146E0,3.490500152E-1,-9.105000645E-2,1.510050058E0,1.552538951E0
1.232807551E0,8.100000024E-2,-9.105000645E-2,1.126049995E0,1.132625135E0
1.234770093E0,-2.629500031E-1,-5.295000225E-2,7.810500264E-1,8.258241645E-1
1.236735018E0,-4.930500090E-1,-1.290000081E-1,3.600000143E-1,6.239706113E-1
1.238699245E0,-6.079500318E-1,-1.290000081E-1,5.295000225E-2,6.237370808E-1
1.240662351E0,-7.230000496E-1,-1.290000081E-1,-1.369500011E-1,7.470778919E-1
1.242625786E0,-8.770500422E-1,-1.290000081E-1,-2.520000041E-1,9.216082577E-1
1.244589296E0,-9.919500351E-1,-1.680000126E-1,-4.440000355E-1,1.099693097E0
1.246552784E0,-1.144950032E0,-1.290000081E-1,-5.590500236E-1,1.280659403E0
1.248516197E0,-1.297950029E0,-1.290000081E-1,-7.120500207E-1,1.486045259E0
1.250479632E0,-1.413000107E0,-5.295000225E-2,-7.510500550E-1,1.601077509E0
1.252441881E0,-1.567050099E0,-1.500000060E-2,-8.269500136E-1,1.771924755E0
1.254404478E0,-1.758000135E0,9.900000691E-2,-9.040500522E-1,1.979310985E0
1.256367297E0,-1.873050094E0,2.140500098E-1,-1.096050024E0,2.180701657E0
1.258330067E0,-2.026050091E0,2.910000086E-1,-1.287000060E0,2.417835629E0
1.260293332E0,-2.218050003E0,2.910000086E-1,-1.516950130E0,2.702880782E0
1.262256452E0,-2.410050154E0,3.679500222E-1,-1.786050081E0,3.022201822E0
1.264219523E0,-2.524950027E0,4.440000355E-1,-2.130000114E0,3.333078031E0
1.266182608E0,-2.640000105E0,4.830000103E-1,-2.514000177E0,3.677374941E0
1.268145877E0,-2.755050182E0,5.590500236E-1,-2.782050133E0,3.955077923E0
1.270109082E0,-2.869950056E0,5.980500579E-1,-3.280050039E0,4.399205094E0
1.272072498E0,-2.908050060E0,5.590500236E-1,-3.702000141E0,4.740685301E0
1.274035852E0,-3.022950172E0,4.440000355E-1,-4.200000286E0,5.193781491E0
1.276000008E0,-3.138000250E0,2.530499995E-1,-4.813050270E0,5.751220112E0
1.277963929E0,-3.253050089E0,-5.295000225E-2,-5.427000046E0,6.327516739E0
1.279927367E0,-3.330000162E0,-2.440500110E-1,-6.117000103E0,6.968941939E0
1.281890940E0,-3.406050205E0,-4.740000367E-1,-6.883050442E0,7.694299021E0
1.283854337E0,-3.520950079E0,-7.429500222E-1,-7.765050411E0,8.558333487E0
1.285817786E0,-3.559950113E0,-1.048950076E0,-8.722949982E0,9.479630660E0
1.287781339E0,-3.445050240E0,-1.318050027E0,-9.489000320E0,1.018070499E1
1.289744861E0,-3.445050240E0,-1.548000097E0,-1.029405022E1,1.096504197E1
1.291708238E0,-3.445050240E0,-1.701000094E0,-1.106100082E1,1.170929168E1
1.293671647E0,-3.406050205E0,-1.816050053E0,-1.155900097E1,1.218645638E1
1.295634847E0,-3.367950201E0,-1.893000126E0,-1.190400028E1,1.251526111E1
1.297598109E0,-3.483000278E0,-1.893000126E0,-1.186605072E1,1.251071142E1
1.299561829E0,-3.406050205E0,-1.893000126E0,-1.175100040E1,1.238025194E1
1.301525414E0,-3.367950201E0,-1.738950133E0,-1.148205090E1,1.209150648E1
1.303488663E0,-3.330000162E0,-1.624050021E0,-1.083105087E1,1.144718754E1
1.305451988E0,-3.330000162E0,-1.432950020E0,-9.796050072E0,1.044532641E1
1.307415337E0,-3.175950050E0,-1.279050112E0,-8.646000862E0,9.299245067E0
1.309378678E0,-3.022950172E0,-1.240950108E0,-7.650000572E0,8.318695431E0
1.311341891E0,-2.830950022E0,-1.240950108E0,-6.576000214E0,7.266224192E0
1.313305142E0,-2.563050032E0,-1.240950108E0,-5.350050449E0,6.060711381E0
1.315268220E0,-2.295000076E0,-1.240950108E0,-4.276950359E0,5.009918851E0
1.317231358E0,-2.026050091E0,-1.279050112E0,-3.165000200E0,3.969644118E0
1.319194379E0,-1.873050094E0,-1.318050027E0,-2.130000114E0,3.127694521E0
1.321157435E0,-1.720050097E0,-1.240950108E0,-1.057050109E0,2.369785736E0
1.323119975E0,-1.642950058E0,-1.203000069E0,-6.105000153E-2,2.037209160E0
1.325082666E0,-1.605000019E0,-1.126049995E0,9.349500537E-1,2.172129199E0
1.327046020E0,-1.489950061E0,-1.011000037E0,1.855050087E0,2.585204650E0
1.329009189E0,-1.528050065E0,-8.959500194E-1,2.812950134E0,3.324206958E0
1.330972430E0,-1.528050065E0,-8.190000653E-1,3.771000147E0,4.150438557E0
1.332935650E0,-1.489950061E0,-7.039500475E-1,4.498950005E0,4.791247019E0
1.334899018E0,-1.567050099E0,-5.890500546E-1,5.188950062E0,5.452323241E0
1.336862342E0,-1.605000019E0,-4.740000367E-1,5.841000080E0,6.076017037E0
1.338825738E0,-1.567050099E0,-4.740000367E-1,6.415950298E0,6.621536097E0
1.340789112E0,-1.567050099E0,-3.979500234E-1,6.913950443E0,7.100473292E0
1.342752184E0,-1.489950061E0,-3.210000098E-1,7.297050476E0,7.454524656E0
1.344715344E0,-1.452000022E0,-3.210000098E-1,7.680000305E0,7.822643400E0
1.346678767E0,-1.336950064E0,-3.210000098E-1,7.834050179E0,7.953792723E0
1.348642112E0,-1.297950029E0,-2.830500007E-1,7.948950291E0,8.059193651E0
1.350605634E0,-1.260000110E0,-2.830500007E-1,8.064000130E0,8.166750619E0
1.352569107E0,-1.030050039E0,-2.830500007E-1,8.140049934E0,8.209843684E0
1.354532477E0,-8.770500422E-1,-3.210000098E-1,8.101950645E0,8.155603107E0
1.356495878E0,-7.999500632E-1,-3.210000098E-1,8.025000572E0,8.071158237E0
1.358459304E0,-5.320500135E-1,-3.589500189E-1,7.872000217E0,7.898120647E0
1.360422722E0,-3.019500077E-1,-3.979500234E-1,7.795050144E0,7.811039929E0
1.362386221E0,-1.480500102E-1,-4.740000367E-1,7.603950500E0,7.620148165E0
1.364349707E0,8.100000024E-2,-5.890500546E-1,7.450050354E0,7.473740111E0
1.366312760E0,2.340000123E-1,-6.660000086E-1,7.219950199E0,7.254377499E0
1.368275940E0,4.639500082E-1,-7.429500222E-1,7.066950321E0,7.121025993E0
1.370240260E0,6.550500393E-1,-7.810500264E-1,6.991050243E0,7.064977934E0
1.372204246E0,8.850000501E-1,-7.810500264E-1,6.913950443E0,7.013984243E0
1.374167640E0,1.039050102E0,-8.580000401E-1,6.837000370E0,6.968526619E0
1.376131224E0,1.192050099E0,-8.959500194E-1,6.684000492E0,6.848326252E0
1.378094754E0,1.269000053E0,-9.730500579E-1,6.568950176E0,6.760790928E0
1.380058300E0,1.422000051E0,-9.730500579E-1,6.376950264E0,6.605634355E0
1.382021342E0,1.614000082E0,-1.048950076E0,6.147000313E0,6.441343445E0
1.383984531E0,1.767000079E0,-1.048950076E0,5.878950119E0,6.227731533E0
1.385947874E0,1.882050037E0,-9.730500579E-1,5.649000168E0,6.033252991E0
1.387911193E0,2.149950027E0,-9.730500579E-1,5.304000378E0,5.805302020E0
1.389874409E0,2.227050066E0,-8.959500194E-1,4.959000111E0,5.509461002E0
1.391837656E0,2.304000139E0,-7.810500264E-1,4.461000443E0,5.081238110E0
1.393800568E0,2.341950178E0,-7.039500475E-1,3.963000298E0,4.656785121E0
1.395763579E0,2.341950178E0,-5.509500504E-1,3.426000118E0,4.186377122E0
1.397726666E0,2.341950178E0,-4.740000367E-1,2.965950251E0,3.808709435E0
1.399689731E0,2.304000139E0,-3.589500189E-1,2.430000067E0,3.367812655E0
1.401652945E0,2.265000105E0,-2.440500110E-1,1.893000126E0,2.961964780E0
1.403616116E0,2.074050188E0,-1.680000126E-1,1.432950020E0,2.526510231E0
1.405579537E0,1.920000076E0,-1.290000081E-1,9.349500537E-1,2.139432845E0
1.407542885E0,1.804950118E0,-1.680000126E-1,3.979500234E-1,1.855918413E0
1.409506686E0,1.843950033E0,-1.290000081E-1,1.500000060E-2,1.848517711E0
1.411470351E0,1.843950033E0,-1.290000081E-1,-4.819500148E-1,1.910253529E0
1.413433689E0,1.767000079E0,-1.680000126E-1,-8.269500136E-1,1.958152090E0
1.415397123E0,1.804950118E0,-1.680000126E-1,-1.210950017E0,2.180015797E0
1.417360273E0,1.804950118E0,-1.680000126E-1,-1.555950046E0,2.388943172E0
1.419323507E0,1.843950033E0,-2.440500110E-1,-1.824000120E0,2.605127362E0
1.421287092E0,1.920000076E0,-2.830500007E-1,-2.053950071E0,2.825814660E0
1.423250577E0,1.690050125E0,-3.210000098E-1,-2.206950188E0,2.798202917E0
1.425214125E0,1.651950121E0,-3.979500234E-1,-2.359950066E0,2.908035030E0
1.427177654E0,1.614000082E0,-4.740000367E-1,-2.514000177E0,3.024875070E0
1.429141015E0,1.498950124E0,-4.740000367E-1,-2.629050016E0,3.063238727E0
1.431104425E0,1.459950089E0,-5.130000114E-1,-2.743950129E0,3.150219926E0
1.433068040E0,1.459950089E0,-5.890500546E-1,-2.896950245E0,3.297082794E0
1.435031587E0,1.459950089E0,-5.890500546E-1,-3.127050161E0,3.500982282E0
1.436995125E0,1.422000051E0,-6.660000086E-1,-3.357000113E0,3.706088222E0
1.438958666E0,1.345050097E0,-7.810500264E-1,-3.549000263E0,3.874867969E0
1.440921979E0,1.384050012E0,-8.190000653E-1,-3.931950092E0,4.248127478E0
1.442885359E0,1.306950092E0,-8.959500194E-1,-4.162050247E0,4.453482597E0
1.444848928E0,1.306950092E0,-9.340500236E-1,-4.392000198E0,4.676562170E0
1.446812438E0,1.269000053E0,-1.011000037E0,-4.621950150E0,4.898459492E0
1.448776162E0,1.269000053E0,-8.959500194E-1,-4.698000431E0,4.948160832E0
1.450739823E0,1.114950061E0,-8.190000653E-1,-4.545000076E0,4.750884174E0
1.452703387E0,1.114950061E0,-8.190000653E-1,-4.774950027E0,4.971319997E0
1.454666979E0,1.114950061E0,-7.429500222E-1,-4.890000343E0,5.070226004E0
1.456630817E0,1.000050068E0,-5.509500504E-1,-4.660050392E0,4.797886592E0
1.458594587E0,1.000050068E0,-4.740000367E-1,-4.698000431E0,4.826591367E0
1.460558447E0,9.619500637E-1,-3.210000098E-1,-4.813050270E0,4.918723598E0
1.462522280E0,7.699500322E-1,-1.290000081E-1,-4.736999989E0,4.800899181E0
1.464484732E0,8.850000501E-1,-1.500000060E-2,-4.890000343E0,4.969462088E0
1.466447589E0,9.619500637E-1,1.759500057E-1,-5.197050095E0,5.288254534E0
1.468411379E0,1.077000022E0,2.910000086E-1,-5.350050449E0,5.465130361E0
1.470374895E0,1.345050097E0,3.679500222E-1,-5.311950207E0,5.491936087E0
1.472338618E0,1.767000079E0,4.440000355E-1,-5.272950172E0,5.578837588E0
1.474302280E0,2.419050217E0,4.440000355E-1,-5.272950172E0,5.818328240E0
1.476265663E0,3.147000074E0,3.679500222E-1,-5.580000401E0,6.416806149E0
1.478229128E0,3.760050297E0,4.060500264E-1,-5.925000191E0,7.029116738E0
1.480192954E0,4.335000038E0,3.289500177E-1,-6.270000458E0,7.629766653E0
1.482156702E0,4.717950344E0,2.530499995E-1,-6.691050529E0,8.191046755E0
1.484120745E0,5.140050411E0,2.295000106E-2,-7.573050499E0,9.152690249E0
1.486084702E0,5.485050201E0,-2.059500068E-1,-8.799000740E0,1.037066079E1
1.488048034E0,5.638050079E0,-4.360500276E-1,-1.044795036E1,1.188012690E1
1.490011550E0,6.097950459E0,-3.589500189E-1,-1.171200085E1,1.320926980E1
1.491974833E0,9.126000404E0,9.810000658E-1,-1.355205059E1,1.636778298E1
1.493938209E0,9.969000816E0,-3.210000098E-1,-1.010295010E1,1.419695809E1
1.495901594E0,8.473950386E0,-2.238000154E0,-5.733000278E0,1.047300205E1
1.497864976E0,7.171050549E0,-3.081000090E0,-3.549000263E0,8.573909866E0
1.499828182E0,5.599950314E0,-3.961950302E0,-1.861950040E0,7.107978029E0
1.501791440E0,3.837000132E0,-5.188950062E0,-1.018950105E0,6.533454834E0
1.503753751E0,1.882050037E0,-6.684000492E0,-4.440000355E-1,6.958096791E0
1.505716349E0,8.100000024E-2,-8.370000839E0,5.295000225E-2,8.370560241E0
1.507678832E0,-1.336950064E0,-1.021005058E1,3.220500052E-1,1.030224658E1
1.509641349E0,-2.601000071E0,-1.197300053E1,7.429500222E-1,1.227476752E1
1.511604701E0,-3.712950230E0,-1.385100079E1,8.580000401E-1,1.436566693E1
1.513567808E0,-4.786050320E0,-1.565205097E1,3.600000143E-1,1.637139509E1
1.515531887E0,-5.898000240E0,-1.726200104E1,-2.520000041E-1,1.824353559E1
1.517495702E0,-6.970950127E0,-1.887195015E1,-9.040500522E-1,2.013856883E1
1.519458834E0,-8.082000732E0,-2.055795097E1,-6.739500165E-1,2.209982563E1
1.521422166E0,-9.193950653E0,-2.239800072E1,-2.205000073E-2,2.421156027E1
1.523384478E0,-1.022895050E1,-2.462100029E1,1.471050024E0,2.670185521E1
1.525347089E0,-1.130205059E1,-2.715000153E1,3.196050167E0,2.958164409E1
1.527310631E0,-1.218300056E1,-3.021705055E1,4.614000320E0,3.290569321E1
1.529273914E0,-1.294995022E1,-3.362805176E1,5.956050396E0,3.652426059E1
1.531237451E0,-1.344795036E1,-3.696195221E1,6.262050152E0,3.982771086E1
1.533200914E0,-1.356300068E1,-4.002900314E1,6.799050331E0,4.280774656E1
1.535164646E0,-1.310295105E1,-4.282605362E1,7.411950588E0,4.539488084E1
1.537128299E0,-1.191495037E1,-4.524105072E1,7.411950588E0,4.736724316E1
1.539092183E0,-1.042005062E1,-4.723395157E1,6.913950443E0,4.886129702E1
1.541055996E0,-8.656949997E0,-4.880595398E1,5.917050362E0,4.991968962E1
1.543019893E0,-6.549000263E0,-5.018505096E1,4.078050137E0,5.077459244E1
1.544983765E0,-4.326000214E0,-5.148795319E1,1.240950108E0,5.168426800E1
1.546948689E0,-1.795950055E0,-5.263800430E1,-2.398950100E0,5.272323866E1
1.548913304E0,1.039050102E0,-5.340495300E1,-6.193050385E0,5.377287888E1
1.550876839E0,3.952050209E0,-5.390295410E1,-1.056300068E1,5.507017473E1
1.552840690E0,6.711000443E0,-5.405595398E1,-1.531500053E1,5.658297384E1
1.554803995E0,9.471000671E0,-5.332800293E1,-1.926300049E1,5.748598906E1
1.556767460E0,1.188495064E1,-5.141205215E1,-2.217600060E1,5.723832773E1
1.558730605E0,1.326495075E1,-4.884405136E1,-2.248200035E1,5.538177147E1
1.560693844E0,1.410795021E1,-4.646805191E1,-2.041305161E1,5.267833315E1
1.562657112E0,1.429995060E1,-4.455105209E1,-1.615800095E1,4.950116993E1
1.564620344E0,1.399305058E1,-4.278795242E1,-1.067805004E1,4.626699785E1
1.566583799E0,1.368705082E1,-4.156200027E1,-5.656950474E0,4.412183491E1
1.568547188E0,1.269000053E1,-4.006695175E1,-9.420000315E-1,4.203907825E1
1.570510167E0,1.161705017E1,-3.868695068E1,2.506050110E0,4.047117857E1
1.572473267E0,1.042905045E1,-3.761400223E1,4.153950214E0,3.925345283E1
1.574436880E0,8.857950211E0,-3.642600250E1,3.886050224E0,3.768843757E1
1.576400342E0,5.752950191E0,-3.473895264E1,1.356000066E0,3.523818954E1
1.578363534E0,2.419050217E0,-3.263100052E1,-2.092050076E0,3.278735537E1
1.580326805E0,-1.870500147E-1,-3.082995224E1,-4.621950150E0,3.117504396E1
1.582290254E0,-2.410050154E0,-2.918205070E1,-6.270000458E0,2.994517208E1
1.584253650E0,-4.402950287E0,-2.772495079E1,-7.266000271E0,2.899747623E1
1.586217020E0,-6.127950191E0,-2.642205048E1,-7.420050144E0,2.811998700E1
1.588180407E0,-7.621950150E0,-2.538705063E1,-7.113000393E0,2.744432980E1
1.590143791E0,-8.809950829E0,-2.442900085E1,-6.385050297E0,2.674247901E1
1.592107176E0,-9.730050087E0,-2.354805183E1,-5.542050362E0,2.607487185E1
1.594070875E0,-1.022895050E1,-2.281905174E1,-4.813050270E0,2.546578103E1
1.596034482E0,-1.038195038E1,-2.209095192E1,-4.123950005E0,2.475483819E1
1.597997694E0,-1.011405087E1,-2.147805023E1,-3.280050039E0,2.396579635E1
1.599961022E0,-9.577050209E0,-2.098005104E1,-2.551950216E0,2.320333774E1
1.601924596E0,-8.809950829E0,-2.055795097E1,-1.786050081E0,2.243734736E1
1.603888097E0,-8.044050217E0,-2.013600159E1,-9.420000315E-1,2.170374778E1
1.605851598E0,-7.315950394E0,-1.983000183E1,-3.670500219E-1,2.113969793E1
1.607815099E0,-6.586950302E0,-1.948500061E1,2.449500114E-1,2.056971472E1
1.609777898E0,-5.898000240E0,-1.921695137E1,7.050000429E-1,2.011404116E1
1.611740920E0,-5.437950134E0,-1.906305122E1,1.050000072E0,1.985129023E1
1.613704591E0,-5.016000271E0,-1.894799995E1,1.279950023E0,1.964243450E1
1.615668072E0,-4.518000126E0,-1.894799995E1,1.432950020E0,1.953182974E1
1.617631756E0,-4.249050140E0,-1.898700142E1,1.471050024E0,1.951216641E1
1.619595380E0,-3.981000185E0,-1.902495003E1,1.510050058E0,1.949557225E1
1.621558540E0,-3.790050268E0,-1.906305122E1,1.548000097E0,1.949771031E1
1.623521839E0,-3.790050268E0,-1.914000130E1,1.510050058E0,1.956998676E1
1.625485103E0,-3.865950108E0,-1.914000130E1,1.510050058E0,1.958482757E1
1.627448378E0,-3.828000069E0,-1.929300117E1,1.471050024E0,1.972403273E1
1.629411421E0,-3.675000191E0,-1.936995125E1,1.432950020E0,1.976749816E1
1.631374532E0,-3.598050117E0,-1.952295113E1,1.279950023E0,1.989296000E1
1.633338122E0,-3.598050117E0,-1.963800049E1,1.165050030E0,1.999885920E1
1.635301554E0,-3.520950079E0,-1.960005188E1,1.165050030E0,1.994784361E1
1.637264751E0,-3.559950113E0,-1.956195068E1,1.240950108E0,1.992192552E1
1.639228017E0,-3.483000278E0,-1.940805054E1,1.395000100E0,1.976739087E1
1.641191286E0,-3.367950201E0,-1.917795181E1,1.510050058E0,1.952990465E1
1.643154554E0,-3.138000250E0,-1.902495003E1,1.548000097E0,1.934404491E1
1.645117723E0,-2.830950022E0,-1.887195015E1,1.663050056E0,1.915543046E1
1.647080929E0,-2.563050032E0,-1.867995071E1,1.663050056E0,1.892816736E1
1.649044208E0,-2.332950115E0,-1.825800133E1,1.701000094E0,1.848487679E1
1.651007466E0,-2.179949999E0,-1.795200157E1,1.701000094E0,1.816369852E1
1.652970827E0,-1.911000133E0,-1.745400047E1,1.624950051E0,1.763333538E1
1.654934158E0,-1.642950058E0,-1.699394989E1,1.585950017E0,1.714668642E1
1.656897413E0,-1.297950029E0,-1.638000107E1,1.510050058E0,1.650058667E1
1.658860694E0,-8.380500674E-1,-1.569000053E1,1.471050024E0,1.578107832E1
1.660824276E0,-5.700000525E-1,-1.484700108E1,1.432950020E0,1.492687800E1
1.662787769E0,-3.019500077E-1,-1.408095074E1,1.356000066E0,1.414931389E1
1.664751136E0,4.050000105E-3,-1.319895077E1,1.240950108E0,1.325715938E1
1.666714540E0,3.109500110E-1,-1.254795074E1,1.165050030E0,1.260575660E1
1.668678810E0,4.260000288E-1,-1.185795021E1,1.087950110E0,1.191537220E1
1.670642803E0,5.790000558E-1,-1.124400043E1,9.730500579E-1,1.130086781E1
1.672605949E0,6.940500140E-1,-1.063095093E1,7.810500264E-1,1.068217497E1
1.674569343E0,7.699500322E-1,-9.979950905E0,6.280500293E-1,1.002929160E1
1.676532726E0,9.240000248E-1,-9.481050491E0,5.509500504E-1,9.541888724E0
1.678496112E0,1.114950061E0,-8.983050346E0,3.600000143E-1,9.059133909E0
1.680460069E0,1.269000053E0,-8.485050201E0,2.449500114E-1,8.582915505E0
1.682423836E0,1.422000051E0,-8.101950645E0,1.300500035E-1,8.226822072E0
1.684386751E0,1.651950121E0,-7.756950378E0,1.500000060E-2,7.930916932E0
1.686349915E0,1.959000111E0,-7.450050354E0,-1.369500011E-1,7.704523802E0
1.688312797E0,2.304000139E0,-7.105050564E0,-2.910000086E-1,7.474947569E0
1.690275761E0,2.533950090E0,-6.721950531E0,-3.670500219E-1,7.193069423E0
1.692239081E0,2.725050211E0,-6.415050507E0,-5.970000029E-1,6.995368515E0
1.694202297E0,2.878050089E0,-6.109050274E0,-7.890000343E-1,6.798984381E0
1.696165531E0,2.917050123E0,-5.839950085E0,-8.659500480E-1,6.585139930E0
1.698128759E0,2.917050123E0,-5.572050095E0,-9.810000658E-1,6.365476008E0
1.700092306E0,2.878050089E0,-5.304000378E0,-1.210950017E0,6.154834869E0
1.702055759E0,2.764050245E0,-4.920000076E0,-1.249050021E0,5.779835678E0
1.704018998E0,2.572050095E0,-4.537050247E0,-1.441050053E0,5.410812498E0
1.705982299E0,2.494950056E0,-4.116000175E0,-1.441050053E0,5.024227153E0
1.707945473E0,2.419050217E0,-3.655950069E0,-1.441050053E0,4.614585584E0
1.709908684E0,2.304000139E0,-3.196050167E0,-1.479000092E0,4.208395726E0
1.711871962E0,2.074050188E0,-2.773950100E0,-1.479000092E0,3.766155150E0
1.713835220E0,1.843950033E0,-2.275950193E0,-1.363950014E0,3.231170167E0
1.715798597E0,1.614000082E0,-1.816050053E0,-1.326000094E0,2.767907207E0
1.717761928E0,1.384050012E0,-1.432950020E0,-1.287000060E0,2.371773461E0
1.719725142E0,1.153950095E0,-1.011000037E0,-1.287000060E0,2.002521174E0
1.721688391E0,7.320000529E-1,-5.509500504E-1,-1.402050018E0,1.674847542E0
1.723650762E0,2.719500065E-1,-2.059500068E-1,-1.555950046E0,1.592907014E0
1.725613391E0,-7.200000435E-2,-5.295000225E-2,-1.479000092E0,1.481698004E0
1.727575989E0,-3.780000210E-1,1.759500057E-1,-1.671000123E0,1.722232223E0
1.729538607E0,-6.079500318E-1,5.209500194E-1,-1.861950040E0,2.026783194E0
1.731501897E0,-5.700000525E-1,7.510500550E-1,-2.092050076E0,2.294700365E0
1.733464990E0,-3.400500119E-1,9.810000658E-1,-2.206950188E0,2.438980170E0
1.735428425E0,4.050000105E-3,1.173000097E0,-2.359950066E0,2.635395595E0
1.737391759E0,3.870000243E-1,1.249050021E0,-2.514000177E0,2.833741672E0
1.739355938E0,8.089500666E-1,1.288050056E0,-2.667000055E0,3.070238175E0
1.741319856E0,1.114950061E0,1.288050056E0,-2.859000206E0,3.328072830E0
1.743283105E0,1.384050012E0,1.326000094E0,-2.859000206E0,3.442056487E0
1.745246550E0,1.690050125E0,1.326000094E0,-2.859000206E0,3.576091142E0
1.747210103E0,1.920000076E0,1.402950048E0,-2.859000206E0,3.718676016E0
1.749173625E0,2.111999989E0,1.555950046E0,-2.704950094E0,3.768060444E0
1.751137327E0,2.227050066E0,1.708950043E0,-2.514000177E0,3.768349657E0
1.753100990E0,2.380050182E0,1.863000035E0,-2.206950188E0,3.742464046E0
1.755064373E0,2.419050217E0,1.978050113E0,-2.245050192E0,3.847692369E0
1.757027838E0,2.572050095E0,2.092950106E0,-1.977000117E0,3.860623175E0
1.758991028E0,2.686950207E0,2.092950106E0,-1.786050081E0,3.845792045E0
1.760954299E0,2.802000046E0,2.208000183E0,-1.708950043E0,3.955626286E0
1.762917657E0,2.992950201E0,2.245950222E0,-1.632000089E0,4.082336046E0
1.764880990E0,3.108000040E0,2.208000183E0,-1.516950130E0,4.103177641E0
1.766844069E0,3.147000074E0,2.169000149E0,-1.402050018E0,4.071107388E0
1.768807222E0,3.184950113E0,2.016000032E0,-1.363950014E0,4.008556223E0
1.770770601E0,3.070050240E0,1.786050081E0,-1.363950014E0,3.804673837E0
1.772733913E0,2.917050123E0,1.518000126E0,-1.441050053E0,3.590282866E0
1.774697191E0,2.686950207E0,1.210950017E0,-1.441050053E0,3.280659478E0
1.776660468E0,2.572050095E0,1.018950105E0,-1.555950046E0,3.174063886E0
1.778623825E0,2.494950056E0,7.890000343E-1,-1.671000123E0,3.104760578E0
1.780587159E0,2.457000017E0,5.590500236E-1,-1.786050081E0,3.088585583E0
1.782550552E0,2.494950056E0,2.530499995E-1,-1.977000117E0,3.193327348E0
1.784513928E0,2.572050095E0,-1.500000060E-2,-2.206950188E0,3.389143818E0
1.786477855E0,2.649000168E0,-4.360500276E-1,-2.437050104E0,3.625817801E0
1.788441620E0,2.802000046E0,-1.240950108E0,-2.820000172E0,4.164560288E0
1.790404580E0,2.955000162E0,-2.008050203E0,-3.241950035E0,4.824368519E0
1.792367776E0,3.184950113E0,-2.812050104E0,-3.931950092E0,5.788934664E0
1.794331237E0,3.492000103E0,-3.541050196E0,-4.736999989E0,6.868207197E0
1.796294620E0,3.721950293E0,-4.269000053E0,-5.887050152E0,8.169126938E0
1.798258014E0,4.105050087E0,-4.959000111E0,-7.150950432E0,9.621809102E0
1.800221398E0,4.527000427E0,-5.572050095E0,-8.722949982E0,1.129740375E1
1.802184559E0,4.795050144E0,-6.109050274E0,-9.183000565E0,1.202665791E1
1.804147785E0,4.987050056E0,-6.454050541E0,-9.412950516E0,1.245508226E1
1.806111016E0,5.293050289E0,-6.837000370E0,-9.489000320E0,1.283752634E1
1.808074245E0,5.523000240E0,-7.066950321E0,-9.298050880E0,1.291894224E1
1.810037502E0,5.715000153E0,-7.335000515E0,-8.799000740E0,1.280179180E1
1.812000764E0,5.868000507E0,-7.527000427E0,-8.301000595E0,1.264894368E1
1.813964485E0,6.060000420E0,-7.642050266E0,-7.726050377E0,1.244252353E1
1.815928072E0,6.021000385E0,-7.642050266E0,-7.305000305E0,1.216619938E1
1.817891423E0,6.060000420E0,-7.527000427E0,-6.691050529E0,1.175370145E1
1.819854843E0,6.136050224E0,-7.450050354E0,-6.078000069E0,1.140598297E1
1.821818246E0,6.136050224E0,-7.258050442E0,-5.503050327E0,1.098243923E1
1.823781668E0,6.136050224E0,-7.066950321E0,-4.927950382E0,1.057722053E1
1.825745002E0,6.175050259E0,-6.798000336E0,-4.200000286E0,1.009871559E1
1.827708362E0,6.097950459E0,-6.529950142E0,-3.625050068E0,9.641900054E0
1.829671750E0,5.905950069E0,-6.300000191E0,-3.127050161E0,9.184154362E0
1.831635130E0,5.638050079E0,-6.031950474E0,-2.743950129E0,8.700649259E0
1.833598555E0,5.370000362E0,-5.764050484E0,-2.359950066E0,8.223779313E0
1.835561971E0,5.062950134E0,-5.457000256E0,-2.053950071E0,7.722112842E0
1.837525126E0,4.833000183E0,-5.112000465E0,-1.747050047E0,7.248629070E0
1.839488357E0,4.564949989E0,-4.804950237E0,-1.441050053E0,6.782546752E0
1.841451812E0,4.297049999E0,-4.422000408E0,-1.210950017E0,6.283719142E0
1.843415202E0,4.027950287E0,-4.077000141E0,-9.420000315E-1,5.808070052E0
1.845378716E0,3.682950258E0,-3.694050074E0,-8.269500136E-1,5.281474688E0
1.847342197E0,3.453000069E0,-3.234000206E0,-7.890000343E-1,4.796299392E0
1.849305745E0,3.070050240E0,-2.851050138E0,-6.739500165E-1,4.243572079E0
1.851269274E0,2.725050211E0,-2.428950071E0,-5.209500194E-1,3.687422680E0
1.853232680E0,2.457000017E0,-2.008050203E0,-3.670500219E-1,3.194345069E0
1.855196122E0,2.111999989E0,-1.585950017E0,-2.910000086E-1,2.657153065E0
1.857159622E0,1.767000079E0,-1.240950108E0,-6.105000153E-2,2.160086469E0
1.859123111E0,1.422000051E0,-8.190000653E-1,1.300500035E-1,1.646134337E0
1.861085758E0,1.230000019E0,-4.740000367E-1,3.600000143E-1,1.366446520E0
1.863048651E0,9.240000248E-1,-1.680000126E-1,6.660000086E-1,1.151327956E0
1.865010362E0,6.169500351E-1,6.105000153E-2,1.050000072E0,1.219366474E0
1.866972420E0,3.490500152E-1,3.289500177E-1,1.395000100E0,1.475150605E0
1.868936201E0,8.100000024E-2,5.209500194E-1,1.548000097E0,1.635314717E0
1.870899485E0,-1.870500147E-1,7.510500550E-1,1.930950046E0,2.080296126E0
1.872863022E0,-3.400500119E-1,8.659500480E-1,2.391000032E0,2.565615842E0
1.874826485E0,-6.079500318E-1,1.018950105E0,2.698050022E0,2.947428791E0
1.876789722E0,-7.230000496E-1,1.096050024E0,3.081000090E0,3.349121718E0
1.878753026E0,-7.620000243E-1,1.210950017E0,3.541050196E0,3.819172747E0
1.880716734E0,-7.230000496E-1,1.210950017E0,3.886050224E0,4.134067653E0
1.882680327E0,-7.230000496E-1,1.173000097E0,4.423050404E0,4.632713370E0
1.884643722E0,-6.079500318E-1,1.173000097E0,4.882050037E0,5.057662013E0
1.886607175E0,-5.700000525E-1,1.096050024E0,5.496000290E0,5.633138104E0
1.888570862E0,-5.320500135E-1,1.134000063E0,5.994000435E0,6.123485492E0
1.890534480E0,-6.469500065E-1,1.096050024E0,6.568950176E0,6.691111745E0
1.892498228E0,-6.469500065E-1,1.057950020E0,7.219950199E0,7.325672900E0
1.894461908E0,-6.850500107E-1,1.018950105E0,7.719000340E0,7.816042418E0
1.896425243E0,-8.380500674E-1,9.430500269E-1,8.254950523E0,8.350801124E0
1.898388679E0,-9.150000215E-1,9.810000658E-1,8.754000664E0,8.856190704E0
1.900352234E0,-9.919500351E-1,9.810000658E-1,9.252000809E0,9.356593663E0
1.902315754E0,-9.529500604E-1,8.659500480E-1,9.597000122E0,9.682995128E0
1.904279361E0,-9.529500604E-1,7.890000343E-1,9.942000389E0,1.001868288E1
1.906242928E0,-9.919500351E-1,7.890000343E-1,1.013295078E1,1.021191351E1
1.908206418E0,-9.919500351E-1,7.890000343E-1,1.017195034E1,1.025061265E1
1.910169930E0,-1.106999993E0,6.739500165E-1,1.001805019E1,1.010153391E1
1.912133293E0,-1.297950029E0,7.890000343E-1,9.673050880E0,9.791583563E0
1.914096699E0,-1.413000107E0,9.040500522E-1,9.252000809E0,9.402839718E0
1.916060119E0,-1.489950061E0,1.096050024E0,8.638950348E0,8.834746174E0
1.918023538E0,-1.489950061E0,1.249050021E0,7.909950256E0,8.145390733E0
1.919987413E0,-1.375050068E0,1.363950014E0,7.066950321E0,7.327544553E0
1.921951154E0,-1.413000107E0,1.555950046E0,6.262050152E0,6.605363120E0
1.923914839E0,-1.375050068E0,1.671000123E0,5.419050217E0,5.835161467E0
1.925878540E0,-1.413000107E0,1.824000120E0,4.614000320E0,5.158734796E0
1.927842415E0,-1.528050065E0,1.900950074E0,3.924000263E0,4.620208464E0
1.929806236E0,-1.642950058E0,2.016000032E0,3.310950041E0,4.210217476E0
1.931769952E0,-1.681950092E0,2.053950071E0,2.659050226E0,3.757421338E0
1.933733699E0,-1.720050097E0,2.092950106E0,1.855050087E0,3.283325038E0
1.935697561E0,-1.720050097E0,2.092950106E0,1.356000066E0,3.029479932E0
1.937661390E0,-1.720050097E0,2.092950106E0,7.429500222E-1,2.809090104E0
1.939625919E0,-1.758000135E0,2.053950071E0,-6.105000153E-2,2.704256363E0
1.941590240E0,-1.642950058E0,2.053950071E0,-1.210950017E0,2.895582106E0
1.943553645E0,-1.413000107E0,1.978050113E0,-2.359950066E0,3.388010605E0
1.945517319E0,-1.144950032E0,1.863000035E0,-3.433950186E0,4.071080150E0
1.947481013E0,-9.529500604E-1,1.747950077E0,-4.774950027E0,5.173353946E0
1.949444701E0,-7.620000243E-1,1.747950077E0,-5.925000191E0,6.224275120E0
1.951408409E0,-6.079500318E-1,1.671000123E0,-6.423000336E0,6.664591358E0
1.953372101E0,-5.320500135E-1,1.633050084E0,-6.691050529E0,6.907972711E0
1.955335659E0,-5.700000525E-1,1.518000126E0,-7.036050320E0,7.220472875E0
1.957299257E0,-5.700000525E-1,1.402950048E0,-7.113000393E0,7.272409744E0
1.959262920E0,-6.850500107E-1,1.479000092E0,-6.730050087E0,6.924616160E0
1.961226563E0,-8.770500422E-1,1.555950046E0,-6.270000458E0,6.519440395E0
1.963189929E0,-9.919500351E-1,1.671000123E0,-5.848050117E0,6.162458638E0
1.965153391E0,-1.144950032E0,1.747950077E0,-5.311950207E0,5.708156887E0
1.967117076E0,-1.183050036E0,1.633050084E0,-4.621950150E0,5.042705935E0
1.969080696E0,-1.183050036E0,1.594050050E0,-4.009050369E0,4.473598978E0
1.971044446E0,-1.106999993E0,1.441050053E0,-3.394950151E0,3.850683156E0
1.973008158E0,-9.919500351E-1,1.210950017E0,-2.820000172E0,3.225331887E0
1.974972032E0,-8.380500674E-1,1.057950020E0,-2.398950100E0,2.752552950E0
1.976935855E0,-6.850500107E-1,7.510500550E-1,-2.092050076E0,2.325949961E0
1.978899885E0,-6.850500107E-1,5.209500194E-1,-1.900950074E0,2.086694425E0
1.980863855E0,-5.320500135E-1,6.105000153E-2,-2.092050076E0,2.159508703E0
1.982828176E0,-3.400500119E-1,-4.360500276E-1,-2.590050220E0,2.648420998E0
1.984792394E0,-3.400500119E-1,-9.730500579E-1,-3.433950186E0,3.585313697E0
1.986755697E0,-4.549500346E-1,-1.432950020E0,-4.468050003E0,4.714212142E0
1.988719257E0,-7.620000243E-1,-1.930950046E0,-5.772000313E0,6.133938354E0
1.990682926E0,-9.529500604E-1,-2.467050076E0,-7.305000305E0,7.769007617E0
1.992646563E0,-1.222050071E0,-3.042000055E0,-8.875950813E0,9.462012130E0
1.994609950E0,-1.375050068E0,-3.541050196E0,-1.006395054E1,1.075699306E1
1.996573411E0,-1.413000107E0,-4.192049980E0,-1.083105087E1,1.169963740E1
1.998536917E0,-1.375050068E0,-5.112000465E0,-1.106100082E1,1.226250589E1
2.000500409E0,-1.375050068E0,-6.184950352E0,-1.067805004E1,1.241632499E1
2.002464001E0,-1.489950061E0,-7.603050232E0,-9.451050758E0,1.222082994E1
2.004427563E0,-1.758000135E0,-9.328050613E0,-7.305000305E0,1.197773443E1
2.006391053E0,-1.987950087E0,-1.105305099E1,-4.276950359E0,1.201724537E1
2.008354565E0,-2.332950115E0,-1.258605099E1,-4.060500264E-1,1.280688144E1
2.010317576E0,-2.485950232E0,-1.438695049E1,3.463950157E0,1.500544047E1
2.012280728E0,-2.601000071E0,-1.649505043E1,7.182000160E0,1.817781660E1
2.014244557E0,-2.869950056E0,-1.898700142E1,9.405000687E0,2.138216252E1
2.016208187E0,-3.406050205E0,-2.167005157E1,9.750000000E0,2.400530802E1
2.018171711E0,-4.134000301E0,-2.408400154E1,8.677050591E0,2.593106816E1
2.020135266E0,-5.131050110E0,-2.653695107E1,6.223950386E0,2.773580728E1
2.022098797E0,-6.241950512E0,-2.887500191E1,3.310950041E0,2.972692503E1
2.024062338E0,-7.086000443E0,-3.113700104E1,9.349500537E-1,3.194680528E1
2.026026731E0,-7.737000465E0,-3.355095291E1,-8.269500136E-1,3.444142076E1
2.027990874E0,-8.197050095E0,-3.608100128E1,-2.437050104E0,3.708058113E1
2.029954490E0,-7.929000378E0,-3.872505188E1,-3.012000084E0,3.964304270E1
2.031918261E0,-6.970950127E0,-4.121700287E1,-2.782050133E0,4.189481202E1
2.033881796E0,-5.323050022E0,-4.397595215E1,-2.169000149E0,4.435001455E1
2.035845406E0,-3.367950201E0,-4.654395294E1,-2.014950037E0,4.670912831E1
2.037809472E0,-1.068000078E0,-4.876695251E1,-1.210950017E0,4.879367461E1
2.039773404E0,1.192050099E0,-5.098995209E1,-8.269500136E-1,5.101058756E1
2.041737236E0,3.874950171E0,-5.286795425E1,-1.326000094E0,5.302635290E1
2.043701098E0,7.056000233E0,-5.474595261E1,-2.014950037E0,5.523555458E1
2.045664770E0,1.027605057E1,-5.616405106E1,-3.204000235E0,5.718621743E1
2.047628492E0,1.345695019E1,-5.708400345E1,-4.276950359E0,5.880446635E1
2.049592313E0,1.694505119E1,-5.742900085E1,-6.691050529E0,6.024944030E1
2.051556105E0,1.993395042E1,-5.658600235E1,-9.451050758E0,6.073434285E1
2.053519646E0,2.211900139E1,-5.486100388E1,-1.336005020E1,6.064215456E1
2.055483261E0,2.292405128E1,-5.283000183E1,-1.558305073E1,5.966031085E1
2.057446931E0,2.365200043E1,-5.095200348E1,-1.684800148E1,5.864621843E1
2.059410577E0,2.346000099E1,-4.876695251E1,-1.650300026E1,5.657681788E1
2.061374457E0,2.311500168E1,-4.635300064E1,-1.558305073E1,5.409006786E1
2.063338269E0,2.070105171E1,-4.294095230E1,-1.397400093E1,4.967626826E1
2.065301807E0,1.510500050E1,-3.818895340E1,-1.247895050E1,4.292180573E1
2.067265425E0,6.787950516E0,-3.247800064E1,-1.155900097E1,3.513555608E1
2.069228234E0,-3.019500077E-1,-2.833905220E1,-1.037100029E1,3.017864643E1
2.071191276E0,-5.053950310E0,-2.569395065E1,-8.799000740E0,2.762505978E1
2.073155394E0,-8.389050484E0,-2.373900032E1,-7.228050232E0,2.619467531E1
2.075119197E0,-1.084200096E1,-2.220600128E1,-5.427000046E0,2.530035192E1
2.077082511E0,-1.279695034E1,-2.105595016E1,-3.394950151E0,2.487248805E1
2.079045968E0,-1.440600109E1,-2.013600159E1,-1.363950014E0,2.479620509E1
2.081008570E0,-1.540305042E1,-1.936995125E1,5.899500251E-1,2.475473722E1
2.082971458E0,-1.555605030E1,-1.898700142E1,1.855050087E0,2.461581066E1
2.084935107E0,-1.498095036E1,-1.875705147E1,2.698050022E0,2.415647589E1
2.086898533E0,-1.398495102E1,-1.852695084E1,2.928000212E0,2.339657983E1
2.088862136E0,-1.283505058E1,-1.818195152E1,2.812950134E0,2.243289043E1
2.090825687E0,-1.187700081E1,-1.798995018E1,2.659050226E0,2.172031316E1
2.092789330E0,-1.099500084E1,-1.776000023E1,2.620950222E0,2.105177027E1
2.094752966E0,-1.018995094E1,-1.779900169E1,2.506050110E0,2.066203883E1
2.096716354E0,-9.424050331E0,-1.795200157E1,2.391000032E0,2.041577738E1
2.098679815E0,-8.964000702E0,-1.810500145E1,2.314950228E0,2.033478253E1
2.100643141E0,-8.311950684E0,-1.845000076E1,2.238000154E0,2.035926563E1
2.102606507E0,-7.468950272E0,-1.906305122E1,2.238000154E0,2.059596526E1
2.104569908E0,-6.549000263E0,-1.956195068E1,2.161050081E0,2.074197330E1
2.106533288E0,-5.476050377E0,-2.036595154E1,2.085000038E0,2.119212908E1
2.108496673E0,-4.824000359E0,-2.121000099E1,1.701000094E0,2.181807789E1
2.110460057E0,-3.981000185E0,-2.212995148E1,1.395000100E0,2.252840740E1
2.112423803E0,-3.445050240E0,-2.297295189E1,9.730500579E-1,2.325019819E1
2.114387442E0,-2.946000099E0,-2.389305115E1,5.899500251E-1,2.408121365E1
2.116351660E0,-2.485950232E0,-2.465895081E1,1.680000126E-1,2.478451184E1
2.118315726E0,-2.295000076E0,-2.511900139E1,-2.140500098E-1,2.522453317E1
2.120278995E0,-2.026050091E0,-2.542605209E1,-6.105000153E-2,2.550671933E1
2.122242497E0,-1.605000019E0,-2.546400070E1,2.070000172E-1,2.551537195E1
2.124205501E0,-9.919500351E-1,-2.554095078E1,7.429500222E-1,2.557100127E1
2.126168651E0,-4.170000255E-1,-2.561700058E1,1.240950108E0,2.565043011E1
2.128132305E0,-7.200000435E-2,-2.550195122E1,1.471050024E0,2.554444535E1
2.130095808E0,3.109500110E-1,-2.515695190E1,1.624950051E0,2.521129472E1
2.132060209E0,8.089500666E-1,-2.473605156E1,1.777950048E0,2.481305611E1
2.134024346E0,1.422000051E0,-2.439105034E1,1.777950048E0,2.449707181E1
2.135987963E0,2.149950027E0,-2.435295105E1,1.930950046E0,2.452380635E1
2.137951733E0,2.725050211E0,-2.412300110E1,2.200050116E0,2.437591642E1
2.139915096E0,3.070050240E0,-2.381595039E1,2.430000067E0,2.413565002E1
2.141878579E0,3.070050240E0,-2.324100113E1,2.545050144E0,2.358064084E1
2.143841947E0,2.955000162E0,-2.247405052E1,2.583000183E0,2.281418118E1
2.145805348E0,2.725050211E0,-2.174595070E1,2.620950222E0,2.207219179E1
2.147768684E0,2.610000134E0,-2.113305092E1,2.583000183E0,2.144970470E1
2.149732040E0,2.341950178E0,-2.048100090E1,2.583000183E0,2.077565928E1
2.151695459E0,1.843950033E0,-1.967700005E1,2.545050144E0,1.992640868E1
2.153658870E0,1.384050012E0,-1.891005135E1,2.545050144E0,1.913067998E1
2.155622430E0,1.269000053E0,-1.822005081E1,2.620950222E0,1.845128702E1
2.157585947E0,1.077000022E0,-1.753005028E1,2.583000183E0,1.775202754E1
2.159549265E0,9.240000248E-1,-1.680195045E1,2.467950106E0,1.700735408E1
2.161512641E0,9.240000248E-1,-1.615005112E1,2.353049994E0,1.634670522E1
2.163476086E0,1.153950095E0,-1.557600117E1,2.238000154E0,1.577821466E1
2.165439500E0,1.269000053E0,-1.488600063E1,2.046000004E0,1.507943938E1
2.167403195E0,1.459950089E0,-1.423395061E1,1.816050053E0,1.442341299E1
2.169366808E0,1.843950033E0,-1.365900040E1,1.624950051E0,1.387836108E1
2.171330514E0,2.149950027E0,-1.316100025E1,1.510050058E0,1.342067301E1
2.173294192E0,2.419050217E0,-1.262400055E1,1.240950108E0,1.291344845E1
2.175257568E0,2.533950090E0,-1.204905033E1,1.050000072E0,1.235730622E1
2.177221036E0,2.572050095E0,-1.147395039E1,8.200500607E-1,1.178725843E1
2.179185306E0,2.764050245E0,-1.097595024E1,5.509500504E-1,1.133203439E1
2.181149341E0,2.725050211E0,-1.051605034E1,1.680000126E-1,1.086468763E1
2.183112570E0,2.802000046E0,-9.979950905E0,9.195000678E-2,1.036624711E1
2.185076036E0,2.764050245E0,-9.442950249E0,-1.369500011E-1,9.840123905E0
2.187039471E0,2.802000046E0,-8.907000542E0,-2.910000086E-1,9.341870472E0
2.189002901E0,2.764050245E0,-8.370000839E0,-5.209500194E-1,8.829964707E0
2.190966278E0,2.725050211E0,-7.795050144E0,-6.360000372E-1,8.282101270E0
2.192929670E0,2.764050245E0,-7.372950554E0,-8.269500136E-1,7.917336670E0
2.194892828E0,2.802000046E0,-6.990000248E0,-9.420000315E-1,7.589378880E0
2.196856055E0,2.764050245E0,-6.568950176E0,-9.420000315E-1,7.188772095E0
2.198819465E0,2.725050211E0,-6.109050274E0,-9.040500522E-1,6.750088918E0
2.200782822E0,2.533950090E0,-5.572050095E0,-1.096050024E0,6.218518390E0
2.202746437E0,2.380050182E0,-5.112000465E0,-1.363950014E0,5.801512498E0
2.204709976E0,2.265000105E0,-4.729050159E0,-1.594050050E0,5.480432141E0
2.206673335E0,2.149950027E0,-4.345950127E0,-1.900950074E0,5.207991821E0
2.208636747E0,2.149950027E0,-3.924000263E0,-2.092050076E0,4.939305286E0
2.210600137E0,2.035050154E0,-3.426000118E0,-2.206950188E0,4.555165757E0
2.212563526E0,2.111999989E0,-3.196050167E0,-2.398950100E0,4.519982545E0
2.214526730E0,1.996950150E0,-2.851050138E0,-2.514000177E0,4.293773828E0
2.216489988E0,1.920000076E0,-2.467050076E0,-2.743950129E0,4.159567126E0
2.218453214E0,1.843950033E0,-2.199000120E0,-3.088950157E0,4.216321421E0
2.220416449E0,1.959000111E0,-1.893000126E0,-3.204000235E0,4.205561605E0
2.222379823E0,1.843950033E0,-1.585950017E0,-3.280050039E0,4.083395333E0
2.224343149E0,1.767000079E0,-1.279050112E0,-3.394950151E0,4.035337037E0
2.226306544E0,1.690050125E0,-1.087950110E0,-3.472050190E0,4.011862085E0
2.228269918E0,1.690050125E0,-7.810500264E-1,-3.433950186E0,3.906190273E0
2.230233485E0,1.804950118E0,-5.509500504E-1,-3.510000229E0,3.985159030E0
2.232196995E0,1.767000079E0,-3.589500189E-1,-3.549000263E0,3.980770938E0
2.234159508E0,1.614000082E0,-1.290000081E-1,-3.586950064E0,3.935460332E0
2.236122309E0,1.651950121E0,6.105000153E-2,-3.778950214E0,4.124697689E0
2.238085973E0,1.614000082E0,3.289500177E-1,-3.778950214E0,4.122337820E0
2.240049384E0,1.498950124E0,5.590500236E-1,-3.778950214E0,4.103639010E0
2.242012766E0,1.459950089E0,8.280000687E-1,-4.047000408E0,4.381238487E0
2.243976156E0,1.384050012E0,1.018950105E0,-4.200000286E0,4.538045411E0
2.245939674E0,1.269000053E0,1.326000094E0,-4.621950150E0,4.973033337E0
2.247903154E0,1.153950095E0,1.555950046E0,-5.005050182E0,5.366852774E0
2.249866703E0,9.619500637E-1,1.863000035E0,-5.427000046E0,5.817941780E0
2.251830231E0,7.699500322E-1,2.053950071E0,-5.962950230E0,6.353606015E0
2.253792871E0,4.260000288E-1,2.284050226E0,-6.615000248E0,7.011176060E0
2.255755771E0,1.960500032E-1,2.398950100E0,-7.305000305E0,7.691321515E0
2.257719264E0,-7.200000435E-2,2.514000177E0,-8.071050644E0,8.453829865E0
2.259682596E0,-4.549500346E-1,2.629050016E0,-8.838000298E0,9.231962564E0
2.261646125E0,-9.919500351E-1,2.667000055E0,-9.528000832E0,9.943824919E0
2.263609596E0,-1.567050099E0,2.706000090E0,-1.010295010E1,1.057580650E1
2.265572652E0,-2.065050125E0,2.551950216E0,-1.056300068E1,1.106136815E1
2.267535829E0,-2.563050032E0,2.361000061E0,-1.094595051E1,1.148727031E1
2.269499397E0,-3.138000250E0,2.169000149E0,-1.125195026E1,1.188099289E1
2.271462841E0,-3.598050117E0,1.939050078E0,-1.140600014E1,1.211621719E1
2.273426396E0,-4.018949986E0,1.633050084E0,-1.129095078E1,1.209563479E1
2.275389918E0,-4.479000092E0,1.288050056E0,-1.113705063E1,1.207287917E1
2.277353325E0,-4.786050320E0,9.430500269E-1,-1.071600056E1,1.177405151E1
2.279316766E0,-4.900950432E0,4.830000103E-1,-1.017900085E1,1.130772579E1
2.281281036E0,-4.939050198E0,-1.500000060E-2,-9.643050194E0,1.083433703E1
2.283245067E0,-4.708950043E0,-3.589500189E-1,-8.991000175E0,1.015584264E1
2.285208477E0,-4.288050175E0,-8.190000653E-1,-8.377950668E0,9.447126167E0
2.287172069E0,-3.865950108E0,-1.356000066E0,-7.650000572E0,8.677949940E0
2.289135777E0,-3.330000162E0,-1.663050056E0,-6.997950554E0,7.926282137E0
2.291099451E0,-2.869950056E0,-2.008050203E0,-6.346950531E0,7.249321347E0
2.293063012E0,-2.371050119E0,-2.238000154E0,-5.617950439E0,6.495528500E0
2.295026607E0,-1.950000048E0,-2.428950071E0,-5.043000221E0,5.927406673E0
2.296990450E0,-1.642950058E0,-2.544000149E0,-4.582950115E0,5.493146039E0
2.298954221E0,-1.297950029E0,-2.659050226E0,-4.200000286E0,5.137628323E0
2.300917946E0,-1.106999993E0,-2.697000027E0,-3.931950092E0,4.894843170E0
2.302881684E0,-9.150000215E-1,-2.736000061E0,-3.817050219E0,4.784641444E0
2.304845153E0,-6.850500107E-1,-2.812050104E0,-3.664050102E0,4.669280722E0
2.306808694E0,-3.400500119E-1,-2.889000177E0,-3.394950151E0,4.470754138E0
2.308772411E0,-7.200000435E-2,-3.004050255E0,-3.088950157E0,4.309421656E0
2.310736077E0,1.189500093E-1,-3.081000090E0,-2.629050016E0,4.051988974E0
2.312699640E0,3.109500110E-1,-3.081000090E0,-2.169000149E0,3.780715952E0
2.314663233E0,5.410500169E-1,-3.118950129E0,-1.479000092E0,3.493998611E0
2.316626905E0,7.699500322E-1,-3.157050133E0,-5.970000029E-1,3.303966948E0
2.318590547E0,1.039050102E0,-3.271950245E0,3.600000143E-1,3.451794248E0
2.320554248E0,1.306950092E0,-3.349050045E0,1.318050027E0,3.829035208E0
2.322517932E0,1.690050125E0,-3.426000118E0,2.008050203E0,4.315786354E0
2.324481806E0,1.996950150E0,-3.463950157E0,2.812950134E0,4.888706276E0
2.326445624E0,2.304000139E0,-3.502050161E0,3.502950191E0,5.462914242E0
2.328409161E0,2.764050245E0,-3.579000235E0,4.308000088E0,6.245644978E0
2.330372780E0,3.108000040E0,-3.502050161E0,5.188950062E0,6.989221868E0
2.332336305E0,3.492000103E0,-3.541050196E0,5.956050396E0,7.759358062E0
2.334299857E0,3.913050175E0,-3.541050196E0,6.760950089E0,8.576796853E0
2.336263527E0,4.219950199E0,-3.541050196E0,7.411950588E0,9.234935175E0
2.338227163E0,4.488000393E0,-3.541050196E0,8.025000572E0,9.853010616E0
2.340190939E0,4.717950344E0,-3.579000235E0,8.715000153E0,1.053658037E1
2.342154653E0,4.909950256E0,-3.579000235E0,9.214050293E0,1.103700942E1
2.344118702E0,5.062950134E0,-3.655950069E0,9.712050438E0,1.154657346E1
2.346082653E0,5.215950012E0,-3.694050074E0,1.009500027E1,1.194827062E1
2.348046302E0,5.178000450E0,-3.694050074E0,1.028700066E1,1.209463009E1
2.350010040E0,5.178000450E0,-3.655950069E0,1.059300041E1,1.234460681E1
2.351973844E0,5.178000450E0,-3.655950069E0,1.070805073E1,1.244347258E1
2.353937639E0,5.062950134E0,-3.579000235E0,1.078500080E1,1.244021499E1
2.355900819E0,5.062950134E0,-3.463950157E0,1.059300041E1,1.224108134E1
2.357864180E0,4.987050056E0,-3.349050045E0,1.021005058E1,1.184617818E1
2.359828108E0,4.756950378E0,-3.081000090E0,9.750000000E0,1.127757237E1
2.361791870E0,4.527000427E0,-2.889000177E0,9.022050858E0,1.049940268E1
2.363755335E0,4.182000160E0,-2.544000149E0,8.293950081E0,9.630714929E0
2.365718881E0,3.837000132E0,-2.238000154E0,7.642050266E0,8.839239049E0
2.367682643E0,3.529950142E0,-1.854000092E0,6.952050209E0,8.014291388E0
2.369646341E0,3.262050152E0,-1.471050024E0,6.339000225E0,7.279277658E0
2.371609988E0,2.917050123E0,-1.087950110E0,5.725950241E0,6.517616361E0
2.373573650E0,2.686950207E0,-6.280500293E-1,5.151000023E0,5.843539124E0
2.375536852E0,2.380050182E0,-3.589500189E-1,4.576050282E0,5.170466146E0
2.377500189E0,1.996950150E0,-1.290000081E-1,4.000950336E0,4.473483486E0
2.379463176E0,1.690050125E0,9.900000691E-2,3.618000269E0,3.994495760E0
2.381426266E0,1.422000051E0,2.910000086E-1,3.004050255E0,3.336327784E0
2.383389925E0,1.269000053E0,4.830000103E-1,2.620950222E0,2.951784242E0
2.385353418E0,1.000050068E0,6.739500165E-1,2.161050081E0,2.474761851E0
2.387316559E0,7.320000529E-1,7.510500550E-1,1.701000094E0,1.998324694E0
2.389279804E0,3.109500110E-1,8.659500480E-1,1.432950020E0,1.702910789E0
2.391243617E0,-3.299999982E-2,9.430500269E-1,1.126049995E0,1.469156542E0
2.393207264E0,-4.170000255E-1,9.430500269E-1,6.660000086E-1,1.227513090E0
2.395171820E0,-7.230000496E-1,9.810000658E-1,3.220500052E-1,1.260478642E0
2.397136110E0,-1.068000078E0,9.810000658E-1,1.500000060E-2,1.450244909E0
2.399099582E0,-1.375050068E0,1.018950105E0,-2.910000086E-1,1.736002019E0
2.401063282E0,-1.642950058E0,9.810000658E-1,-6.360000372E-1,2.016467721E0
2.403027107E0,-1.911000133E0,9.040500522E-1,-1.018950105E0,2.346803639E0
2.404990895E0,-2.179949999E0,9.040500522E-1,-1.249050021E0,2.670133789E0
2.406954752E0,-2.371050119E0,9.430500269E-1,-1.516950130E0,2.968561894E0
2.408918588E0,-2.524950027E0,8.659500480E-1,-1.786050081E0,3.211731156E0
2.410881907E0,-2.640000105E0,8.659500480E-1,-1.977000117E0,3.409985264E0
2.412845402E0,-2.755050182E0,7.890000343E-1,-2.206950188E0,3.617105430E0
2.414808587E0,-2.716050148E0,7.129500508E-1,-2.514000177E0,3.769008235E0
2.416771863E0,-2.755050182E0,6.739500165E-1,-2.667000055E0,3.893250496E0
2.418735445E0,-2.677950144E0,6.739500165E-1,-2.859000206E0,3.974859466E0
2.420698938E0,-2.524950027E0,6.360000372E-1,-3.049950123E0,4.010244935E0
2.422662961E0,-2.332950115E0,5.590500236E-1,-3.204000235E0,4.002600489E0
2.424626842E0,-2.065050125E0,4.830000103E-1,-3.394950151E0,4.002924876E0
2.426590548E0,-1.834950089E0,4.060500264E-1,-3.433950186E0,3.914579458E0
2.428554306E0,-1.681950092E0,3.679500222E-1,-3.510000229E0,3.909532573E0
2.430517987E0,-1.375050068E0,2.910000086E-1,-3.433950186E0,3.710452475E0
2.432481691E0,-1.144950032E0,2.910000086E-1,-3.510000229E0,3.703470425E0
2.434445555E0,-9.529500604E-1,2.910000086E-1,-3.433950186E0,3.575585085E0
2.436409376E0,-7.620000243E-1,2.530499995E-1,-3.319050074E0,3.414787216E0
2.438373002E0,-4.930500090E-1,2.530499995E-1,-3.204000235E0,3.251576559E0
2.440336686E0,-2.629500031E-1,1.759500057E-1,-3.165000200E0,3.180774650E0
2.442300559E0,-3.299999982E-2,1.380000114E-1,-3.088950157E0,3.092207315E0
2.444264376E0,1.189500093E-1,1.380000114E-1,-3.012000084E0,3.017505197E0
2.446228407E0,1.960500032E-1,1.759500057E-1,-2.743950129E0,2.756566037E0
2.448192376E0,2.340000123E-1,1.380000114E-1,-2.475000143E0,2.489864598E0
2.450156022E0,3.870000243E-1,2.140500098E-1,-2.206950188E0,2.250825528E0
2.452119762E0,5.020500422E-1,1.380000114E-1,-1.861950040E0,1.933379476E0
2.454084166E0,5.790000558E-1,9.900000691E-2,-1.479000092E0,1.591377811E0
2.456048376E0,6.940500140E-1,6.105000153E-2,-1.057050109E0,1.266012424E0
2.458012020E0,7.320000529E-1,6.105000153E-2,-6.360000372E-1,9.716209279E-1
2.459975834E0,8.470500112E-1,1.380000114E-1,-1.369500011E-1,8.690759618E-1
2.461938560E0,8.850000501E-1,1.380000114E-1,3.979500234E-1,9.801190300E-1
2.463901604E0,8.470500112E-1,1.759500057E-1,1.011000037E0,1.330628874E0
2.465865587E0,8.089500666E-1,2.140500098E-1,1.548000097E0,1.759693700E0
2.467829294E0,8.470500112E-1,2.910000086E-1,2.085000038E0,2.269228919E0
2.469793004E0,8.089500666E-1,3.679500222E-1,2.773950100E0,2.912831369E0
2.471756700E0,8.470500112E-1,4.440000355E-1,3.234000206E0,3.372445268E0
2.473720616E0,7.699500322E-1,5.209500194E-1,3.808950186E0,3.920754199E0
2.475684467E0,6.940500140E-1,7.129500508E-1,4.384050369E0,4.495542330E0
2.477648313E0,7.699500322E-1,8.280000687E-1,4.768050194E0,4.900276504E0
2.479612161E0,8.470500112E-1,1.018950105E0,5.074050426E0,5.244210214E0
2.481575832E0,9.619500637E-1,1.134000063E0,5.266050339E0,5.471982295E0
2.483539551E0,1.114950061E0,1.288050056E0,5.419050217E0,5.680518624E0
2.485503194E0,1.306950092E0,1.326000094E0,5.188950062E0,5.512857475E0
2.487466859E0,1.459950089E0,1.363950014E0,5.074050426E0,5.453237720E0
2.489430780E0,1.729050040E0,1.441050053E0,4.882050037E0,5.375932651E0
2.491394626E0,2.035050154E0,1.518000126E0,4.729050159E0,5.367463919E0
2.493358253E0,2.265000105E0,1.633050084E0,4.576050282E0,5.360719563E0
2.495321940E0,2.494950056E0,1.824000120E0,4.423050404E0,5.395843502E0
2.497285632E0,2.802000046E0,1.939050078E0,4.000950336E0,5.255351849E0
2.499249323E0,3.031950235E0,1.939050078E0,2.928000212E0,4.639592943E0
2.501213557E0,3.262050152E0,1.824000120E0,9.730500579E-1,3.861965050E0
2.503177631E0,3.184950113E0,1.441050053E0,-2.284050226E0,4.175813443E0
2.505141280E0,2.917050123E0,9.040500522E-1,-6.997950554E0,7.635299593E0
2.507105070E0,1.920000076E0,2.140500098E-1,-1.359000111E1,1.372662915E1
2.509069646E0,1.306950092E0,-3.979500234E-1,-1.769099998E1,1.774367389E1
2.511033991E0,1.306950092E0,-1.471050024E0,-1.880295181E1,1.890563682E1
2.512996806E0,1.077000022E0,-2.581950188E0,-1.842000008E1,1.863123181E1
2.514960070E0,1.960500032E-1,-3.732000113E0,-1.619700050E1,1.662254751E1
2.516924045E0,-9.529500604E-1,-5.112000465E0,-1.347495079E1,1.444350932E1
2.518887823E0,-1.950000048E0,-6.837000370E0,-1.167405033E1,1.366859632E1
2.520851636E0,-2.985000134E0,-9.060000420E0,-1.037100029E1,1.409082966E1
2.522815438E0,-4.173000336E0,-1.189605045E1,-9.106050491E0,1.555153059E1
2.524779113E0,-5.476050377E0,-1.500105095E1,-7.534950256E0,1.765769330E1
2.526742825E0,-7.123950481E0,-1.818195152E1,-6.615000248E0,2.061776564E1
2.528706528E0,-8.848950386E0,-2.067300034E1,-5.272950172E0,2.309720479E1
2.530670224E0,-1.049700069E1,-2.289600182E1,-3.088950157E0,2.537627900E1
2.532633780E0,-1.195305061E1,-2.504205132E1,-1.287000060E0,2.777833908E1
2.534597378E0,-1.333305073E1,-2.707395172E1,-2.520000041E-1,3.018000344E1
2.536560501E0,-1.448295116E1,-2.895195198E1,8.959500194E-1,3.238478230E1
2.538523763E0,-1.559400082E1,-3.079200172E1,1.432950020E0,3.454523958E1
2.540487523E0,-1.647599983E1,-3.263100052E1,1.318050027E0,3.657838188E1
2.542451140E0,-1.705095100E1,-3.443295288E1,1.663050056E0,3.845944500E1
2.544414711E0,-1.712805176E1,-3.634905243E1,2.698050022E0,4.027285989E1
2.546378296E0,-1.620795059E1,-3.834195328E1,3.808950186E0,4.180085101E1
2.548341961E0,-1.440600109E1,-4.021995163E1,5.457000256E0,4.306920278E1
2.550305602E0,-1.203000069E1,-4.171500015E1,7.066950321E0,4.398640632E1
2.552269328E0,-9.001950264E0,-4.324800110E1,8.791950226E0,4.504134874E1
2.554233043E0,-6.241950512E0,-4.462800217E1,9.979950905E0,4.615430580E1
2.556196733E0,-3.406050205E0,-4.600800323E1,1.047795010E1,4.730882558E1
2.558160430E0,-7.999500632E-1,-4.757895279E1,1.009500027E1,4.864468829E1
2.560124841E0,1.384050012E0,-4.926495361E1,8.101950645E0,4.994589926E1
2.562089043E0,3.031950235E0,-5.068395233E1,4.498950005E0,5.097348622E1
2.564053505E0,4.680000305E0,-5.194800186E1,1.300500035E-1,5.215854880E1
2.566017890E0,6.060000420E0,-5.298300171E1,-4.429950237E0,5.351211577E1
2.567981690E0,7.438950539E0,-5.363505173E1,-8.608050346E0,5.482841681E1
2.569945661E0,9.547050476E0,-5.451600266E1,-1.351395035E1,5.697163831E1
2.571909440E0,1.169400024E1,-5.497605133E1,-1.757595062E1,5.888998134E1
2.573873276E0,1.341900063E1,-5.474595261E1,-2.060400009E1,6.001427934E1
2.575836949E0,1.460700035E1,-5.398005295E1,-2.110305023E1,5.977080646E1
2.577800666E0,1.579500103E1,-5.286795425E1,-1.930095100E1,5.845536207E1
2.579764174E0,1.648500061E1,-5.110500336E1,-1.623495102E1,5.609857617E1
2.581727743E0,1.663800049E1,-4.907400131E1,-1.217205048E1,5.322818312E1
2.583691455E0,1.644600105E1,-4.692705154E1,-8.608050346E0,5.046501410E1
2.585655125E0,1.567995071E1,-4.501095200E1,-5.925000191E0,4.803074308E1
2.587618847E0,1.399305058E1,-4.301805115E1,-4.468050003E0,4.545681093E1
2.589582567E0,1.046700096E1,-4.037295151E1,-4.660050392E0,4.196724189E1
2.591546570E0,5.560950279E0,-3.746100235E1,-6.307950497E0,3.839324295E1
2.593510490E0,2.035050154E0,-3.496905136E1,-8.148000717E0,3.596339664E1
2.595473288E0,-6.079500318E-1,-3.274605179E1,-8.991000175E0,3.396338610E1
2.597436415E0,-2.601000071E0,-3.075300217E1,-9.451050758E0,3.227746434E1
2.599400377E0,-4.249050140E0,-2.891400146E1,-9.643050194E0,3.077437773E1
2.601364067E0,-5.476050377E0,-2.715000153E1,-9.336000443E0,2.922790815E1
2.603327940E0,-6.549000263E0,-2.534895134E1,-9.106050491E0,2.771964816E1
2.605291759E0,-7.546050549E0,-2.354805183E1,-8.608050346E0,2.618305091E1
2.607255430E0,-8.158950806E0,-2.205300140E1,-7.687950134E0,2.473879396E1
2.609219145E0,-8.580000877E0,-2.071095085E1,-6.805950165E0,2.342820646E1
2.611182713E0,-8.848950386E0,-1.940805054E1,-5.962950230E0,2.214798239E1
2.613146314E0,-8.925000191E0,-1.818195152E1,-5.158050060E0,2.090082463E1
2.615110202E0,-9.040050507E0,-1.707000160E1,-4.582950115E0,1.985222657E1
2.617074005E0,-8.964000702E0,-1.622700119E1,-4.123950005E0,1.899146755E1
2.619038174E0,-8.656949997E0,-1.549905109E1,-3.586950064E0,1.811158687E1
2.621002235E0,-8.236050606E0,-1.477095032E1,-3.127050161E0,1.719860301E1
2.622965831E0,-8.082000732E0,-1.427205086E1,-2.782050133E0,1.663580399E1
2.624929588E0,-7.813950539E0,-1.377405071E1,-2.437050104E0,1.602253130E1
2.626893629E0,-7.468950272E0,-1.346700096E1,-2.206950188E0,1.555686222E1
2.628857586E0,-7.162050247E0,-1.323795033E1,-1.939050078E0,1.517557932E1
2.630821054E0,-6.778950214E0,-1.319895077E1,-1.594050050E0,1.492338644E1
2.632784665E0,-6.319050312E0,-1.327605057E1,-1.402050018E0,1.476989031E1
2.634748269E0,-5.859000206E0,-1.339095020E1,-1.249050021E0,1.466988605E1
2.636711852E0,-5.476050377E0,-1.362105083E1,-1.096050024E0,1.472146322E1
2.638675922E0,-5.016000271E0,-1.385100079E1,-1.018950105E0,1.476647354E1
2.640639850E0,-4.747950077E0,-1.419600105E1,-9.420000315E-1,1.499856126E1
2.642603817E0,-4.441050053E0,-1.469400024E1,-8.659500480E-1,1.537486384E1
2.644567773E0,-4.134000301E0,-1.507695103E1,-7.510500550E-1,1.565146916E1
2.646531441E0,-3.904950142E0,-1.546095085E1,-5.970000029E-1,1.595763284E1
2.648495180E0,-3.675000191E0,-1.576695061E1,-4.819500148E-1,1.619674763E1
2.650458909E0,-3.406050205E0,-1.618905067E1,-4.060500264E-1,1.654845662E1
2.652422641E0,-3.175950050E0,-1.641900063E1,-2.520000041E-1,1.672524273E1
2.654386505E0,-2.985000134E0,-1.664895058E1,-2.140500098E-1,1.691577957E1
2.656350331E0,-2.793000221E0,-1.684005165E1,-1.759500057E-1,1.707100314E1
2.658313821E0,-2.640000105E0,-1.691700172E1,-1.369500011E-1,1.712230426E1
2.660277410E0,-2.485950232E0,-1.710900116E1,1.500000060E-2,1.728866953E1
2.662241300E0,-2.218050003E0,-1.714695168E1,9.195000678E-2,1.729005935E1
2.664205101E0,-2.140950203E0,-1.722405052E1,2.070000172E-1,1.735783492E1
2.666168010E0,-1.950000048E0,-1.722405052E1,3.600000143E-1,1.733782041E1
2.668131180E0,-1.758000135E0,-1.718505096E1,4.750500321E-1,1.728126771E1
2.670094645E0,-1.413000107E0,-1.703205109E1,5.509500504E-1,1.709944091E1
2.672058024E0,-1.068000078E0,-1.687905121E1,6.280500293E-1,1.692446279E1
2.674021770E0,-7.230000496E-1,-1.653404999E1,6.280500293E-1,1.656176274E1
2.675985408E0,-4.170000255E-1,-1.615005112E1,5.509500504E-1,1.616482558E1
2.677948931E0,-1.099500060E-1,-1.572900105E1,5.509500504E-1,1.573903138E1
2.679912487E0,1.960500032E-1,-1.523100090E1,7.050000429E-1,1.524856876E1
2.681876771E0,4.260000288E-1,-1.465605068E1,8.200500607E-1,1.468515508E1
2.683840821E0,6.550500393E-1,-1.408095074E1,1.165050030E0,1.414424285E1
2.685804453E0,9.619500637E-1,-1.327605057E1,1.432950020E0,1.338776353E1
2.687768208E0,1.269000053E0,-1.250895023E1,1.548000097E0,1.266808989E1
2.689731889E0,1.422000051E0,-1.178100014E1,1.663050056E0,1.198247820E1
2.691695592E0,1.729050040E0,-1.113000011E1,1.777950048E0,1.140296553E1
2.693659081E0,1.959000111E0,-1.047795010E1,1.701000094E0,1.079437451E1
2.695622616E0,2.304000139E0,-9.826050758E0,1.701000094E0,1.023489577E1
2.697586199E0,2.533950090E0,-9.328050613E0,1.585950017E0,9.795339135E0
2.699549768E0,2.839950085E0,-8.868000031E0,1.548000097E0,9.439440944E0
2.701513617E0,3.031950235E0,-8.332050323E0,1.548000097E0,9.000671593E0
2.703477384E0,3.300000191E0,-7.909950256E0,1.510050058E0,8.702733220E0
2.705440520E0,3.453000069E0,-7.372950554E0,1.548000097E0,8.287334532E0
2.707403843E0,3.607050180E0,-6.952050209E0,1.585950017E0,7.991060666E0
2.709367103E0,3.645000219E0,-6.454050541E0,1.624950051E0,7.588231523E0
2.711330382E0,3.798000097E0,-6.070050240E0,1.663050056E0,7.350921720E0
2.713293964E0,3.798000097E0,-5.649000168E0,1.663050056E0,7.007263597E0
2.715257457E0,3.721950293E0,-5.188950062E0,1.663050056E0,6.598776569E0
2.717221128E0,3.645000219E0,-4.767000198E0,1.663050056E0,6.227042073E0
2.719184754E0,3.453000069E0,-4.384050369E0,1.663050056E0,5.823129966E0
2.721148098E0,3.262050152E0,-4.000950336E0,1.624950051E0,5.411934724E0
2.723111525E0,3.070050240E0,-3.655950069E0,1.585950017E0,5.030548364E0
2.725075082E0,2.839950085E0,-3.349050045E0,1.585950017E0,4.668692552E0
2.727038600E0,2.686950207E0,-3.004050255E0,1.624950051E0,4.345627920E0
2.729002161E0,2.572050095E0,-2.773950100E0,1.510050058E0,4.073142770E0
2.730965696E0,2.457000017E0,-2.506050110E0,1.510050058E0,3.820652747E0
2.732929056E0,2.457000017E0,-2.238000154E0,1.510050058E0,3.650444487E0
2.734892468E0,2.494950056E0,-1.930950046E0,1.471050024E0,3.480995839E0
2.736856072E0,2.419050217E0,-1.701000094E0,1.471050024E0,3.302906818E0
2.738819619E0,2.304000139E0,-1.393950105E0,1.471050024E0,3.068468952E0
2.740782928E0,2.265000105E0,-1.164000034E0,1.356000066E0,2.885109657E0
2.742746310E0,2.227050066E0,-9.340500236E-1,1.203000069E0,2.698038289E0
2.744709560E0,2.149950027E0,-7.039500475E-1,9.349500537E-1,2.447848523E0
2.746672848E0,2.111999989E0,-4.360500276E-1,7.810500264E-1,2.293626544E0
2.748637465E0,2.074050188E0,-3.210000098E-1,3.979500234E-1,2.136138902E0
2.750601692E0,1.959000111E0,-2.059500068E-1,9.195000678E-2,1.971941085E0
2.752564974E0,1.996950150E0,-1.680000126E-1,-1.759500057E-1,2.011713774E0
2.754528536E0,1.996950150E0,-1.290000081E-1,-3.670500219E-1,2.034496650E0
2.756491664E0,2.074050188E0,-1.290000081E-1,-5.590500236E-1,2.151943799E0
2.758454920E0,2.111999989E0,-1.500000060E-2,-6.739500165E-1,2.216974870E0
2.760418506E0,2.188950062E0,2.295000106E-2,-7.120500207E-1,2.301965314E0
2.762381995E0,2.188950062E0,6.105000153E-2,-8.659500480E-1,2.354803381E0
2.764345237E0,2.111999989E0,1.759500057E-1,-8.659500480E-1,2.289404255E0
2.766308545E0,2.227050066E0,2.140500098E-1,-8.269500136E-1,2.385249615E0
2.768272121E0,2.227050066E0,1.380000114E-1,-9.810000658E-1,2.437448898E0
2.770235619E0,2.265000105E0,2.140500098E-1,-9.040500522E-1,2.448131814E0
2.772199165E0,2.304000139E0,2.530499995E-1,-9.040500522E-1,2.487922314E0
2.774162696E0,2.304000139E0,2.140500098E-1,-1.096050024E0,2.560382726E0
2.776126057E0,2.265000105E0,2.140500098E-1,-1.057050109E0,2.508664548E0
2.778089468E0,2.265000105E0,1.759500057E-1,-1.171950102E0,2.556296329E0
2.780053388E0,2.227050066E0,1.380000114E-1,-1.249050021E0,2.557131587E0
2.782017158E0,2.188950062E0,2.140500098E-1,-1.287000060E0,2.548271754E0
2.783980793E0,2.111999989E0,1.380000114E-1,-1.363950014E0,2.517925256E0
2.785944468E0,2.074050188E0,6.105000153E-2,-1.441050053E0,2.526269293E0
2.787908342E0,1.996950150E0,1.380000114E-1,-1.479000092E0,2.488834099E0
2.789872158E0,1.996950150E0,2.295000106E-2,-1.555950046E0,2.531662921E0
2.791836550E0,1.996950150E0,-9.105000645E-2,-1.671000123E0,2.605444571E0
2.793800773E0,1.804950118E0,-1.290000081E-1,-1.747050047E0,2.515287220E0
2.795764195E0,1.690050125E0,-1.680000126E-1,-1.861950040E0,2.520188759E0
2.797727852E0,1.537050128E0,-3.210000098E-1,-1.861950040E0,2.435656391E0
2.799691555E0,1.384050012E0,-4.360500276E-1,-2.014950037E0,2.483094383E0
2.801655240E0,1.230000019E0,-6.280500293E-1,-2.130000114E0,2.538552220E0
2.803618619E0,1.039050102E0,-8.959500194E-1,-2.245050192E0,2.631083791E0
2.805582088E0,8.850000501E-1,-1.240950108E0,-2.398950100E0,2.842207565E0
2.807544692E0,6.550500393E-1,-1.624050021E0,-2.629050016E0,3.158881608E0
2.809507550E0,4.639500082E-1,-2.008050203E0,-2.820000172E0,3.492837843E0
2.811471228E0,3.109500110E-1,-2.351999998E0,-3.280050039E0,4.048125759E0
2.813434649E0,1.570500135E-1,-2.620950222E0,-3.549000263E0,4.414685452E0
2.815398208E0,-3.299999982E-2,-2.851050138E0,-4.162050247E0,5.045021125E0
2.817361726E0,-1.480500102E-1,-3.042000055E0,-4.890000343E0,5.760884177E0
2.819325448E0,-3.400500119E-1,-3.310950041E0,-6.117000103E0,6.963886447E0
2.821289110E0,-5.320500135E-1,-3.463950157E0,-7.228050232E0,8.032853669E0
2.823252655E0,-7.230000496E-1,-3.502050161E0,-8.032950401E0,8.792916271E0
2.825216247E0,-9.150000215E-1,-3.502050161E0,-9.028950691E0,9.727462719E0
2.827179956E0,-1.030050039E0,-3.541050196E0,-9.910950661E0,1.057482778E1
2.829143630E0,-1.144950032E0,-3.463950157E0,-1.040895081E1,1.102978323E1
2.831107146E0,-1.297950029E0,-3.310950041E0,-1.060095024E1,1.118155671E1
2.833070709E0,-1.489950061E0,-3.042000055E0,-1.037100029E1,1.091014952E1
2.835034562E0,-1.605000019E0,-2.773950100E0,-1.010295010E1,1.059907660E1
2.836998327E0,-1.720050097E0,-2.544000149E0,-9.718950272E0,1.019257099E1
2.838961873E0,-1.642950058E0,-2.351999998E0,-9.336000443E0,9.766887587E0
2.840925483E0,-1.642950058E0,-2.046000004E0,-8.646000862E0,9.035415420E0
2.842889143E0,-1.528050065E0,-1.816050053E0,-8.032950401E0,8.376232264E0
2.844852789E0,-1.375050068E0,-1.663050056E0,-7.150950432E0,7.469443771E0
2.846816350E0,-1.183050036E0,-1.471050024E0,-6.270000458E0,6.548015066E0
2.848779939E0,-9.919500351E-1,-1.356000066E0,-5.503050327E0,5.753804303E0
2.850743603E0,-7.999500632E-1,-1.203000069E0,-4.698000431E0,4.915113154E0
2.852707245E0,-5.700000525E-1,-1.011000037E0,-3.931950092E0,4.099664945E0
2.854670767E0,-3.400500119E-1,-9.340500236E-1,-3.204000235E0,3.354653627E0
2.856634324E0,-7.200000435E-2,-8.190000653E-1,-2.551950216E0,2.681118239E0
2.858597729E0,8.100000024E-2,-7.429500222E-1,-1.861950040E0,2.006338378E0
2.860561175E0,2.719500065E-1,-6.660000086E-1,-1.096050024E0,1.311044802E0
2.862524909E0,3.109500110E-1,-5.130000114E-1,-4.819500148E-1,7.695029161E-1
2.864488558E0,3.870000243E-1,-4.360500276E-1,1.300500035E-1,5.973455020E-1
2.866451538E0,3.490500152E-1,-3.210000098E-1,7.810500264E-1,9.137374148E-1
2.868414714E0,3.490500152E-1,-2.830500007E-1,1.356000066E0,1.428527002E0
2.870378664E0,3.490500152E-1,-2.059500068E-1,1.701000094E0,1.748614491E0
2.872342394E0,5.020500422E-1,-2.440500110E-1,2.161050081E0,2.231983895E0
2.874307297E0,5.410500169E-1,-1.680000126E-1,2.698050022E0,2.756888291E0
2.876271856E0,6.169500351E-1,-1.680000126E-1,3.157950163E0,3.222033610E0
2.878235085E0,7.320000529E-1,-1.290000081E-1,3.579000235E0,3.655366980E0
2.880198704E0,9.240000248E-1,-5.295000225E-2,3.963000298E0,4.069637712E0
2.882161868E0,1.000050068E0,9.900000691E-2,4.345950127E0,4.460625925E0
2.884125165E0,1.153950095E0,2.530499995E-1,4.768050194E0,4.912223303E0
2.886089105E0,1.306950092E0,3.679500222E-1,5.266050339E0,5.438271043E0
2.888052856E0,1.345050097E0,4.440000355E-1,5.649000168E0,5.823873169E0
2.890016539E0,1.422000051E0,5.209500194E-1,6.031950474E0,6.219155858E0
2.891980242E0,1.537050128E0,6.360000372E-1,6.415950298E0,6.628079463E0
2.893944086E0,1.690050125E0,6.360000372E-1,6.760950089E0,6.997943382E0
2.895907875E0,1.729050040E0,7.510500550E-1,7.066950321E0,7.314060231E0
2.897871597E0,1.843950033E0,7.510500550E-1,7.182000160E0,7.452875567E0
2.899835338E0,1.959000111E0,7.510500550E-1,7.297050476E0,7.592674316E0
2.901799201E0,1.996950150E0,7.510500550E-1,7.335000515E0,7.638986755E0
2.903763028E0,1.920000076E0,7.510500550E-1,7.297050476E0,7.582705462E0
2.905726459E0,1.882050037E0,7.890000343E-1,7.219950199E0,7.502820421E0
2.907690016E0,1.767000079E0,7.510500550E-1,7.029000282E0,7.286508796E0
2.909653731E0,1.690050125E0,7.890000343E-1,6.876000404E0,7.124476966E0
2.911617399E0,1.498950124E0,7.890000343E-1,6.684000492E0,6.895305295E0
2.913580961E0,1.422000051E0,7.890000343E-1,6.376950264E0,6.581040941E0
2.915544555E0,1.306950092E0,7.129500508E-1,6.109050274E0,6.287838386E0
2.917507888E0,1.306950092E0,6.739500165E-1,5.802000046E0,5.985443317E0
2.919471309E0,1.269000053E0,6.739500165E-1,5.457000256E0,5.642997568E0
2.921434821E0,1.192050099E0,6.360000372E-1,5.188950062E0,5.361966265E0
2.923398307E0,1.039050102E0,5.980500579E-1,4.806000233E0,4.953274394E0
2.925362215E0,8.470500112E-1,5.209500194E-1,4.345950127E0,4.458269300E0
2.927325999E0,7.699500322E-1,4.060500264E-1,3.963000298E0,4.057471015E0
2.929288791E0,5.790000558E-1,2.910000086E-1,3.618000269E0,3.675574515E0
2.931251863E0,3.490500152E-1,1.759500057E-1,3.349050045E0,3.371784471E0
2.933216427E0,2.340000123E-1,6.105000153E-2,3.118950129E0,3.128311527E0
2.935180553E0,4.200000316E-2,-9.105000645E-2,2.889000177E0,2.890739720E0
2.937143947E0,-7.200000435E-2,-1.680000126E-1,2.659050226E0,2.665324766E0
2.939107555E0,-1.480500102E-1,-2.059500068E-1,2.391000032E0,2.404415806E0
2.941071246E0,-3.400500119E-1,-2.440500110E-1,2.161050081E0,2.201211456E0
2.943034923E0,-3.780000210E-1,-3.979500234E-1,1.893000126E0,1.970963651E0
2.944998258E0,-4.549500346E-1,-5.130000114E-1,1.701000094E0,1.833998328E0
2.946961694E0,-5.320500135E-1,-6.660000086E-1,1.510050058E0,1.734037026E0
2.948925429E0,-6.079500318E-1,-8.190000653E-1,1.356000066E0,1.696791244E0
2.950889076E0,-5.320500135E-1,-9.730500579E-1,1.240950108E0,1.664289879E0
2.952852384E0,-4.930500090E-1,-1.126049995E0,1.011000037E0,1.591605472E0
2.954815815E0,-5.700000525E-1,-1.240950108E0,6.280500293E-1,1.503098157E0
2.956780091E0,-6.079500318E-1,-1.356000066E0,2.449500114E-1,1.506100902E0
2.958744120E0,-6.469500065E-1,-1.356000066E0,-1.369500011E-1,1.508653636E0
2.960707575E0,-6.850500107E-1,-1.432950020E0,-5.590500236E-1,1.683798149E0
2.962671199E0,-7.230000496E-1,-1.548000097E0,-9.810000658E-1,1.970125504E0
2.964634428E0,-6.469500065E-1,-1.663050056E0,-1.402050018E0,2.269366443E0
2.966597758E0,-5.700000525E-1,-1.738950133E0,-1.939050078E0,2.666226328E0
2.968561151E0,-4.930500090E-1,-1.816050053E0,-2.398950100E0,3.048950260E0
2.970524525E0,-3.780000210E-1,-1.930950046E0,-2.896950245E0,3.501966992E0
2.972488047E0,-3.400500119E-1,-2.046000004E0,-3.433950186E0,4.011703367E0
2.974451525E0,-1.870500147E-1,-2.161050081E0,-4.009050369E0,4.558246376E0
2.976414940E0,-1.099500060E-1,-2.238000154E0,-4.507050037E0,5.033312402E0
2.978378373E0,-7.200000435E-2,-2.199000120E0,-4.813050270E0,5.292092066E0
2.980341705E0,-3.299999982E-2,-2.161050081E0,-5.005050182E0,5.451766116E0
2.982305066E0,4.050000105E-3,-2.238000154E0,-5.119950294E0,5.587714391E0
2.984268814E0,4.050000105E-3,-2.161050081E0,-5.158050060E0,5.592462273E0
2.986232448E0,4.050000105E-3,-2.008050203E0,-4.966950417E0,5.357506739E0
2.988195797E0,-1.099500060E-1,-1.893000126E0,-4.736999989E0,5.102421716E0
2.990159257E0,-2.629500031E-1,-1.777950048E0,-4.392000198E0,4.745515232E0
2.992122808E0,-3.400500119E-1,-1.585950017E0,-3.931950092E0,4.253363727E0
2.994086332E0,-3.780000210E-1,-1.393950105E0,-3.510000229E0,3.795534550E0
2.996049694E0,-3.019500077E-1,-1.240950108E0,-2.859000206E0,3.131295763E0
2.998013103E0,-2.250000089E-1,-1.048950076E0,-2.206950188E0,2.453884756E0
2.999976614E0,-7.200000435E-2,-8.959500194E-1,-1.479000092E0,1.730708441E0
3.001940098E0,-3.299999982E-2,-7.039500475E-1,-7.890000343E-1,1.057901566E0
3.003902745E0,-3.299999982E-2,-5.890500546E-1,-1.369500011E-1,6.056601931E-1
3.005865638E0,-3.299999982E-2,-5.509500504E-1,5.899500251E-1,8.078836488E-1
3.007829106E0,4.050000105E-3,-5.509500504E-1,1.318050027E0,1.428572096E0
3.009792405E0,4.050000105E-3,-6.280500293E-1,1.855050087E0,1.958487699E0
3.011756025E0,4.200000316E-2,-8.959500194E-1,2.314950228E0,2.482636702E0
3.013719554E0,-7.200000435E-2,-1.048950076E0,2.545050144E0,2.753681263E0
3.015683409E0,-3.400500119E-1,-1.393950105E0,2.238000154E0,2.658453610E0
3.017647169E0,-8.380500674E-1,-2.046000004E0,1.279950023E0,2.554743821E0
3.019611752E0,-1.452000022E0,-3.118950129E0,-6.105000153E-2,3.440912825E0
3.021576093E0,-1.987950087E0,-4.231050014E0,-1.287000060E0,4.848721370E0
3.023539345E0,-2.332950115E0,-5.419050217E0,-2.130000114E0,6.272612054E0
3.025502926E0,-2.716050148E0,-6.684000492E0,-2.974050045E0,7.803701984E0
3.027466591E0,-3.175950050E0,-7.987050533E0,-3.817050219E0,9.404759822E0
3.029430231E0,-3.675000191E0,-9.405000687E0,-4.507050037E0,1.105771967E1
3.031393933E0,-4.173000336E0,-1.109100056E1,-4.774950027E0,1.277592943E1
3.033357616E0,-4.863000393E0,-1.296900082E1,-4.582950115E0,1.458928328E1
3.035320990E0,-5.514000416E0,-1.507695103E1,-3.855000257E0,1.650998728E1
3.037284459E0,-6.396000385E0,-1.737705040E1,-3.549000263E0,1.885380875E1
3.039247963E0,-7.239000320E0,-1.979205132E1,-3.817050219E0,2.141724290E1
3.041211457E0,-7.929000378E0,-2.201505089E1,-4.736999989E0,2.387405876E1
3.043174869E0,-8.619000435E0,-2.404605103E1,-6.307950497E0,2.631140395E1
3.045138305E0,-9.117000580E0,-2.573205185E1,-7.879950523E0,2.841393694E1
3.047101672E0,-9.499950409E0,-2.730405045E1,-8.608050346E0,3.016386512E1
3.049065066E0,-9.883950233E0,-2.902800179E1,-8.761050224E0,3.189158762E1
3.051028583E0,-9.960000038E0,-3.082995224E1,-8.185950279E0,3.341702168E1
3.052992064E0,-9.807000160E0,-3.251595306E1,-6.499950409E0,3.457909500E1
3.054955433E0,-9.309000015E0,-3.397305298E1,-5.119950294E0,3.559550113E1
3.056918835E0,-8.350950241E0,-3.539100266E1,-3.472050190E0,3.652829823E1
3.058882431E0,-6.856050491E0,-3.646395111E1,-1.900950074E0,3.715156484E1
3.060845977E0,-4.978050232E0,-3.692400360E1,-5.970000029E-1,3.726284255E1
3.062808433E0,-3.022950172E0,-3.696195221E1,2.830500007E-1,3.708644302E1
3.064771209E0,-1.183050036E0,-3.669405365E1,8.959500194E-1,3.672405080E1
3.066736815E0,5.020500422E-1,-3.631095123E1,5.509500504E-1,3.631860101E1
3.068701592E0,1.959000111E0,-3.596595001E1,-6.105000153E-2,3.601931383E1
3.070665145E0,3.607050180E0,-3.592695236E1,-1.555950046E0,3.614108047E1
3.072629056E0,4.450050354E0,-3.585105133E1,-3.165000200E0,3.626455647E1
3.074592846E0,5.370000362E0,-3.611894989E1,-4.276950359E0,3.676557832E1
3.076556671E0,6.060000420E0,-3.654104996E1,-4.927950382E0,3.736651753E1
3.078520341E0,6.520050526E0,-3.719205093E1,-5.197050095E0,3.811520748E1
3.080484056E0,6.787950516E0,-3.780600357E1,-5.580000401E0,3.881374219E1
3.082447526E0,7.171050549E0,-3.883995056E1,-6.193050385E0,3.997898947E1
3.084411095E0,7.401000500E0,-3.983700180E1,-6.960000515E0,4.111208007E1
3.086374493E0,7.783950329E0,-4.079505157E1,-7.342950344E0,4.217517084E1
3.088337941E0,8.359050751E0,-4.175295258E1,-7.573050499E0,4.324966904E1
3.090301494E0,8.934000015E0,-4.259595108E1,-7.458000183E0,4.415714179E1
3.092265016E0,9.088050842E0,-4.317105103E1,-7.189950466E0,4.469930315E1
3.094228576E0,9.279000282E0,-4.344000244E1,-7.150950432E0,4.499188538E1
3.096192112E0,9.624000549E0,-4.355505371E1,-7.189950466E0,4.518140633E1
3.098155426E0,9.739050865E0,-4.328595352E1,-7.573050499E0,4.500970982E1
3.100118806E0,9.661950111E0,-4.252005386E1,-8.530950546E0,4.443068059E1
3.102082371E0,8.743050575E0,-4.117800140E1,-9.949050903E0,4.325566260E1
3.104045881E0,6.634950161E0,-3.895500183E1,-1.148205090E1,4.115036117E1
3.106009438E0,4.027950287E0,-3.642600250E1,-1.251705074E1,3.872666525E1
3.107972972E0,1.537050128E0,-3.397305298E1,-1.290105057E1,3.637262649E1
3.109935791E0,-7.620000243E-1,-3.171105194E1,-1.282395077E1,3.421440008E1
3.111898820E0,-3.022950172E0,-2.956500053E1,-1.221105099E1,3.213000545E1
3.113862490E0,-4.939050198E0,-2.772495079E1,-1.113705063E1,3.028367563E1
3.115825972E0,-6.586950302E0,-2.607705116E1,-9.949050903E0,2.867724055E1
3.117789661E0,-7.891050339E0,-2.462100029E1,-8.530950546E0,2.722571299E1
3.119753285E0,-8.887050629E0,-2.339400101E1,-7.189950466E0,2.603755633E1
3.121716494E0,-9.654000282E0,-2.224500084E1,-6.040050507E0,2.499043805E1
3.123679825E0,-1.011405087E1,-2.128605080E1,-5.119950294E0,2.411646480E1
3.125643218E0,-1.038195038E1,-2.048100090E1,-4.237950325E0,2.334987183E1
3.127606592E0,-1.049700069E1,-1.967700005E1,-3.394950151E0,2.255874644E1
3.129569773E0,-1.049700069E1,-1.894799995E1,-2.667000055E0,2.182490814E1
3.131532998E0,-1.026705074E1,-1.822005081E1,-1.861950040E0,2.099641494E1
3.133496589E0,-9.769050598E0,-1.745400047E1,-9.420000315E-1,2.002408166E1
3.135460073E0,-9.193950653E0,-1.676399994E1,-2.140500098E-1,1.912083262E1
3.137422720E0,-8.503950119E0,-1.630395126E1,3.600000143E-1,1.839199811E1
3.139385613E0,-7.621950150E0,-1.595895100E1,9.730500579E-1,1.771239869E1
3.141349131E0,-6.931950092E0,-1.576695061E1,1.395000100E0,1.727989262E1
3.143312462E0,-6.357000351E0,-1.569000053E1,1.624950051E0,1.700670553E1
3.145276217E0,-5.782950401E0,-1.557600117E1,2.008050203E0,1.673578780E1
3.147239847E0,-5.245950222E0,-1.561395073E1,2.275950193E0,1.662815084E1
3.149203685E0,-4.747950077E0,-1.584405041E1,2.506050110E0,1.672893453E1
3.151167462E0,-4.402950287E0,-1.603499985E1,2.583000183E0,1.682792564E1
3.153131321E0,-4.134000301E0,-1.626495171E1,2.583000183E0,1.697970855E1
3.155095155E0,-3.981000185E0,-1.649505043E1,2.353049994E0,1.713102144E1
3.157058644E0,-3.751050234E0,-1.680195045E1,2.161050081E0,1.735067879E1
3.159022234E0,-3.483000278E0,-1.718505096E1,1.969950080E0,1.764477177E1
3.160986123E0,-3.214950085E0,-1.772205162E1,1.663050056E0,1.808791733E1
3.162949924E0,-3.138000250E0,-1.814295006E1,1.510050058E0,1.847414230E1
3.164913238E0,-2.985000134E0,-1.845000076E1,1.432950020E0,1.874476193E1
3.166876695E0,-3.100050211E0,-1.883295059E1,1.318050027E0,1.913184767E1
3.168840068E0,-2.946000099E0,-1.910205078E1,1.432950020E0,1.938093409E1
3.170803465E0,-2.563050032E0,-1.929300117E1,1.548000097E0,1.952397050E1
3.172766712E0,-2.103000164E0,-1.960005188E1,1.740000129E0,1.978919513E1
3.174730003E0,-1.758000135E0,-1.983000183E1,1.777950048E0,1.998701187E1
3.176693067E0,-1.528050065E0,-2.009805107E1,1.855050087E0,2.024124020E1
3.178656181E0,-1.297950029E0,-2.017500114E1,2.008050203E0,2.031619086E1
3.180619206E0,-1.068000078E0,-2.025105095E1,2.085000038E0,2.038609609E1
3.182582258E0,-8.380500674E-1,-2.021295166E1,2.314950228E0,2.036233624E1
3.184545698E0,-6.079500318E-1,-2.002200127E1,2.430000067E0,2.017808312E1
3.186509025E0,-3.400500119E-1,-1.979205132E1,2.545050144E0,1.995791095E1
3.188472470E0,-1.870500147E-1,-1.956195068E1,2.314950228E0,1.969933747E1
3.190435876E0,-1.099500060E-1,-1.921695137E1,2.122950077E0,1.933417249E1
3.192399258E0,4.050000105E-3,-1.867995071E1,2.122950077E0,1.880019926E1
3.194362647E0,1.189500093E-1,-1.810500145E1,1.855050087E0,1.820017685E1
3.196326165E0,2.719500065E-1,-1.760700035E1,1.663050056E0,1.768745752E1
3.198289645E0,5.020500422E-1,-1.703205109E1,1.432950020E0,1.709959544E1
3.200253393E0,6.940500140E-1,-1.649505043E1,1.165050030E0,1.655070197E1
3.202217049E0,8.850000501E-1,-1.591995049E1,8.580000401E-1,1.596759884E1
3.204181289E0,1.039050102E0,-1.542195034E1,3.600000143E-1,1.546110531E1
3.206145357E0,1.306950092E0,-1.500105095E1,-2.205000073E-2,1.505789276E1
3.208108806E0,1.498950124E0,-1.457895088E1,-4.819500148E-1,1.466372859E1
3.210072436E0,1.804950118E0,-1.415700054E1,-7.120500207E-1,1.428935004E1
3.212035973E0,1.996950150E0,-1.373595047E1,-1.057050109E0,1.392054238E1
3.213999527E0,2.227050066E0,-1.339095020E1,-1.287000060E0,1.363574965E1
3.215962747E0,2.457000017E0,-1.296900082E1,-1.479000092E0,1.328229169E1
3.217926065E0,2.610000134E0,-1.254795074E1,-1.555950046E0,1.291062156E1
3.219889595E0,2.839950085E0,-1.212600040E1,-1.555950046E0,1.255094350E1
3.221853063E0,3.031950235E0,-1.166595078E1,-1.479000092E0,1.214391086E1
3.223816291E0,2.955000162E0,-1.116795063E1,-1.363950014E0,1.163251937E1
3.225779595E0,2.878050089E0,-1.059300041E1,-1.249050021E0,1.104784848E1
3.227743128E0,2.764050245E0,-9.979950905E0,-1.057050109E0,1.040945478E1
3.229706593E0,2.572050095E0,-9.481050491E0,-8.269500136E-1,9.858478911E0
3.231670010E0,2.533950090E0,-8.983050346E0,-5.970000029E-1,9.352673713E0
3.233633441E0,2.494950056E0,-8.523000717E0,-5.209500194E-1,8.895937608E0
3.235596762E0,2.494950056E0,-8.140049934E0,-3.289500177E-1,8.520175869E0
3.237560123E0,2.494950056E0,-7.717950344E0,-2.520000041E-1,8.115111663E0
3.239523736E0,2.494950056E0,-7.335000515E0,-9.900000691E-2,7.748342361E0
3.241487275E0,2.572050095E0,-6.952050209E0,-1.369500011E-1,7.413851840E0
3.243450634E0,2.686950207E0,-6.760050297E0,-9.900000691E-2,7.275148275E0
3.245414046E0,2.725050211E0,-6.415050507E0,-6.105000153E-2,6.970114688E0
3.247377600E0,2.725050211E0,-6.031950474E0,-9.900000691E-2,6.619677195E0
3.249341116E0,2.686950207E0,-5.725050449E0,-9.900000691E-2,6.325006329E0
3.251304839E0,2.533950090E0,-5.380050182E0,-6.105000153E-2,5.947232140E0
3.253268501E0,2.380050182E0,-4.959000111E0,-1.369500011E-1,5.502279189E0
3.255232154E0,2.265000105E0,-4.651950359E0,-1.369500011E-1,5.175869292E0
3.257195810E0,2.074050188E0,-4.345950127E0,-9.900000691E-2,4.816509907E0
3.259159013E0,1.959000111E0,-4.000950336E0,-1.759500057E-1,4.458278079E0
3.261122349E0,1.804950118E0,-3.694050074E0,-1.369500011E-1,4.113709540E0
3.263085876E0,1.651950121E0,-3.349050045E0,-2.520000041E-1,3.742803683E0
