"Time (s)","Acceleration x (m/s^2)","Acceleration y (m/s^2)","Acceleration z (m/s^2)","Absolute acceleration (m/s^2)"
3.504423600E-2,5.331000328E0,1.863000035E0,1.500000060E-2,5.647172623E0
3.700515000E-2,5.407950401E0,1.824000120E0,2.449500114E-1,5.712521728E0
3.896877500E-2,5.485050201E0,1.708950043E0,3.600000143E-1,5.756377852E0
4.093162300E-2,5.485050201E0,1.671000123E0,5.899500251E-1,5.764204902E0
4.289469800E-2,5.485050201E0,1.555950046E0,6.280500293E-1,5.735957034E0
4.485756000E-2,5.523000240E0,1.402950048E0,7.050000429E-1,5.741848618E0
4.682047700E-2,5.446050167E0,1.288050056E0,7.050000429E-1,5.640528382E0
4.878322100E-2,5.407950401E0,1.057950020E0,7.810500264E-1,5.565539051E0
5.074601600E-2,5.215950012E0,8.280000687E-1,8.200500607E-1,5.344548694E0
5.270914000E-2,4.948050022E0,5.590500236E-1,7.429500222E-1,5.034650999E0
5.467216700E-2,4.642050266E0,2.530499995E-1,7.810500264E-1,4.714096321E0
5.663580700E-2,4.335000038E0,2.295000106E-2,7.429500222E-1,4.398264063E0
5.859925800E-2,4.105050087E0,-1.680000126E-1,6.660000086E-1,4.162116797E0
6.056209100E-2,3.913050175E0,-3.210000098E-1,6.660000086E-1,3.982280589E0
6.252510600E-2,3.721950293E0,-5.130000114E-1,7.050000429E-1,3.822709517E0
6.448805900E-2,3.607050180E0,-7.039500475E-1,7.810500264E-1,3.757179237E0
6.645103000E-2,3.453000069E0,-8.959500194E-1,8.200500607E-1,3.660384954E0
6.841361300E-2,3.300000191E0,-1.011000037E0,8.959500194E-1,3.565788660E0
7.037628900E-2,3.223050117E0,-1.203000069E0,1.011000037E0,3.585719217E0
7.233920900E-2,3.147000074E0,-1.318050027E0,1.165050030E0,3.605302611E0
7.430205700E-2,3.031950235E0,-1.393950105E0,1.240950108E0,3.560305646E0
7.626463300E-2,2.955000162E0,-1.471050024E0,1.318050027E0,3.554331161E0
7.822728900E-2,2.802000046E0,-1.471050024E0,1.395000100E0,3.458499344E0
8.019029100E-2,2.725050211E0,-1.509000063E0,1.432950020E0,3.428749860E0
8.215316800E-2,2.686950207E0,-1.548000097E0,1.471050024E0,3.432199570E0
8.411632400E-2,2.572050095E0,-1.585950017E0,1.471050024E0,3.360753981E0
8.607939800E-2,2.533950090E0,-1.585950017E0,1.510050058E0,3.349088189E0
8.804211600E-2,2.457000017E0,-1.585950017E0,1.585950017E0,3.326758783E0
9.000493900E-2,2.341950178E0,-1.548000097E0,1.624950051E0,3.243685806E0
9.196749300E-2,2.227050066E0,-1.548000097E0,1.663050056E0,3.181476353E0
9.393011200E-2,2.149950027E0,-1.548000097E0,1.701000094E0,3.148331422E0
9.589272600E-2,2.035050154E0,-1.509000063E0,1.740000129E0,3.073452581E0
9.785534200E-2,2.074050188E0,-1.509000063E0,1.701000094E0,3.077688531E0
9.981795700E-2,1.959000111E0,-1.393950105E0,1.701000094E0,2.945196029E0
1.017805730E-1,1.804950118E0,-1.318050027E0,1.663050056E0,2.785827757E0
1.037433440E-1,1.690050125E0,-1.240950108E0,1.471050024E0,2.561291621E0
1.057060860E-1,1.690050125E0,-1.164000034E0,1.471050024E0,2.524906667E0
1.076686800E-1,1.651950121E0,-1.164000034E0,1.395000100E0,2.455577439E0
1.096313180E-1,1.537050128E0,-1.087950110E0,1.318050027E0,2.298567905E0
1.115941540E-1,1.537050128E0,-9.340500236E-1,1.203000069E0,2.163834954E0
1.135569320E-1,1.459950089E0,-8.959500194E-1,1.126049995E0,2.049919338E0
1.155198490E-1,1.306950092E0,-7.429500222E-1,1.050000072E0,1.833737557E0
1.174827150E-1,1.306950092E0,-5.890500546E-1,9.349500537E-1,1.711499376E0
1.194454690E-1,1.269000053E0,-4.360500276E-1,7.429500222E-1,1.533778177E0
1.214082560E-1,1.269000053E0,-3.210000098E-1,5.899500251E-1,1.435772675E0
1.233719220E-1,1.192050099E0,-2.059500068E-1,3.979500234E-1,1.273484615E0
1.253353300E-1,1.077000022E0,-1.290000081E-1,2.449500114E-1,1.112011941E0
1.272968760E-1,1.039050102E0,-9.105000645E-2,1.500000060E-2,1.043139597E0
1.292589910E-1,1.039050102E0,9.900000691E-2,-1.759500057E-1,1.058482178E0
1.312216910E-1,1.000050068E0,1.380000114E-1,-4.060500264E-1,1.088127183E0
1.331842200E-1,9.240000248E-1,2.530499995E-1,-6.360000372E-1,1.149915821E0
1.351465360E-1,9.240000248E-1,3.679500222E-1,-9.420000315E-1,1.369863980E0
1.371089140E-1,8.470500112E-1,4.830000103E-1,-1.134000063E0,1.495573092E0
1.390717040E-1,6.940500140E-1,5.980500579E-1,-1.479000092E0,1.739773136E0
1.410343730E-1,6.940500140E-1,6.360000372E-1,-1.708950043E0,1.951079629E0
1.429963040E-1,6.169500351E-1,7.510500550E-1,-1.900950074E0,2.135021011E0
1.449584520E-1,5.410500169E-1,9.040500522E-1,-1.977000117E0,2.240216749E0
1.469211020E-1,3.870000243E-1,9.430500269E-1,-2.053950071E0,2.292994389E0
1.488836040E-1,3.109500110E-1,1.057950020E0,-2.130000114E0,2.398509671E0
1.508466680E-1,2.340000123E-1,1.134000063E0,-2.092050076E0,2.391105532E0
1.528095510E-1,1.570500135E-1,1.173000097E0,-2.092050076E0,2.403594694E0
1.547722570E-1,1.570500135E-1,1.210950017E0,-1.939050078E0,2.291501660E0
1.567350150E-1,1.189500093E-1,1.249050021E0,-1.747050047E0,2.150920484E0
1.586976060E-1,4.050000105E-3,1.288050056E0,-1.516950130E0,1.990031921E0
1.606602460E-1,4.050000105E-3,1.363950014E0,-1.210950017E0,1.823945171E0
1.626230030E-1,4.050000105E-3,1.288050056E0,-9.040500522E-1,1.573656838E0
1.645857490E-1,-3.299999982E-2,1.326000094E0,-4.060500264E-1,1.387170456E0
1.665478480E-1,4.050000105E-3,1.363950014E0,9.195000678E-2,1.367051882E0
1.685101360E-1,4.050000105E-3,1.326000094E0,6.280500293E-1,1.467221692E0
1.704728060E-1,4.200000316E-2,1.288050056E0,1.203000069E0,1.762965147E0
1.724353640E-1,4.200000316E-2,1.288050056E0,1.624950051E0,2.073957477E0
1.743981050E-1,4.200000316E-2,1.249050021E0,1.969950080E0,2.332936620E0
1.763608060E-1,8.100000024E-2,1.134000063E0,2.430000067E0,2.682800303E0
1.783239480E-1,4.200000316E-2,1.018950105E0,2.773950100E0,2.955473308E0
1.802869600E-1,8.100000024E-2,9.040500522E-1,3.081000090E0,3.211919839E0
1.822500930E-1,1.189500093E-1,6.739500165E-1,3.310950041E0,3.380938908E0
1.842131910E-1,1.189500093E-1,5.590500236E-1,3.310950041E0,3.359922054E0
1.861760660E-1,1.570500135E-1,3.679500222E-1,3.310950041E0,3.335032548E0
1.881390200E-1,2.340000123E-1,2.140500098E-1,3.273000240E0,3.288328449E0
1.901021170E-1,3.109500110E-1,9.900000691E-2,3.196050167E0,3.212666740E0
1.920651720E-1,2.719500065E-1,-1.500000060E-2,3.004050255E0,3.016371950E0
1.940287940E-1,3.870000243E-1,-9.105000645E-2,2.736000061E0,2.764734247E0
1.959922490E-1,4.260000288E-1,-9.105000645E-2,2.200050116E0,2.242763171E0
1.979548470E-1,3.870000243E-1,-1.290000081E-1,1.777950048E0,1.824148129E0
1.999177030E-1,3.109500110E-1,-1.680000126E-1,1.356000066E0,1.401302998E0
2.018814030E-1,2.340000123E-1,-1.290000081E-1,8.580000401E-1,8.986440211E-1
2.038448550E-1,1.189500093E-1,-1.290000081E-1,2.830500007E-1,3.330276410E-1
2.058076430E-1,4.200000316E-2,-1.680000126E-1,-2.140500098E-1,2.753278250E-1
2.077706260E-1,-3.299999982E-2,-1.680000126E-1,-7.120500207E-1,7.323443426E-1
2.097332030E-1,-7.200000435E-2,-2.059500068E-1,-1.096050024E0,1.117553158E0
2.116959140E-1,-7.200000435E-2,-3.589500189E-1,-1.363950014E0,1.412228295E0
2.136586920E-1,4.050000105E-3,-5.509500504E-1,-1.516950130E0,1.613908318E0
2.156214500E-1,8.100000024E-2,-8.580000401E-1,-1.671000123E0,1.880150654E0
2.175842220E-1,1.570500135E-1,-1.203000069E0,-1.861950040E0,2.222325769E0
2.195469890E-1,3.870000243E-1,-1.509000063E0,-2.014950037E0,2.546934208E0
2.215107950E-1,5.790000558E-1,-1.854000092E0,-2.092050076E0,2.854685784E0
2.234742970E-1,7.320000529E-1,-2.161050081E0,-2.130000114E0,3.121355798E0
2.254369860E-1,8.089500666E-1,-2.506050110E0,-2.169000149E0,3.411634360E0
2.273999140E-1,8.470500112E-1,-2.851050138E0,-2.130000114E0,3.658262033E0
2.293626560E-1,8.850000501E-1,-3.196050167E0,-2.014950037E0,3.880462010E0
2.313254520E-1,8.850000501E-1,-3.579000235E0,-1.939050078E0,4.165619159E0
2.332885120E-1,8.089500666E-1,-3.961950302E0,-1.977000117E0,4.501108738E0
2.352515080E-1,7.699500322E-1,-4.461000443E0,-2.130000114E0,5.003023934E0
2.372133830E-1,5.790000558E-1,-5.227050304E0,-2.514000177E0,5.829021602E0
2.391755870E-1,2.719500065E-1,-6.147000313E0,-3.280050039E0,6.972682261E0
2.411382270E-1,-2.629500031E-1,-7.258050442E0,-3.855000257E0,8.222497547E0
2.431007390E-1,-9.529500604E-1,-8.599950790E0,-3.855000257E0,9.472502014E0
2.450635840E-1,-1.795950055E0,-1.017105007E1,-3.319050074E0,1.084858468E1
2.470263410E-1,-2.869950056E0,-1.174305058E1,-2.359950066E0,1.231686707E1
2.489887530E-1,-3.751050234E0,-1.342905045E1,-1.287000060E0,1.400236205E1
2.509512660E-1,-4.555950165E0,-1.500105095E1,-4.819500148E-1,1.568504024E1
2.529131330E-1,-5.245950222E0,-1.680195045E1,3.600000143E-1,1.760554267E1
2.548751890E-1,-5.935950279E0,-1.887195015E1,1.087950110E0,1.981337032E1
2.568378550E-1,-6.433950424E0,-2.124795151E1,1.510050058E0,2.225199794E1
2.588003740E-1,-7.009050369E0,-2.385405159E1,1.930950046E0,2.493734413E1
2.607633660E-1,-7.546050549E0,-2.642205048E1,2.620950222E0,2.760320652E1
2.627262200E-1,-8.044050217E0,-2.902800179E1,3.118950129E0,3.028298997E1
2.646891550E-1,-8.311950684E0,-3.171105194E1,3.388050079E0,3.295691464E1
2.666520660E-1,-8.619000435E0,-3.420300293E1,3.618000269E0,3.545733357E1
2.686147780E-1,-8.503950119E0,-3.688605118E1,4.039050102E0,3.806851540E1
2.705775720E-1,-7.852050304E0,-3.968400192E1,4.231050014E0,4.067402718E1
2.725405610E-1,-7.239000320E0,-4.236600113E1,4.153950214E0,4.318027883E1
2.745034930E-1,-6.396000385E0,-4.504905319E1,4.078050137E0,4.568321910E1
2.764662360E-1,-5.245950222E0,-4.761705399E1,3.733050108E0,4.805038488E1
2.784290340E-1,-3.865950108E0,-4.987905121E1,3.388050079E0,5.014323686E1
2.803926390E-1,-1.834950089E0,-5.175705338E1,2.812950134E0,5.186590696E1
2.823560180E-1,1.000050068E0,-5.321295166E1,1.777950048E0,5.325203687E1
2.843198090E-1,4.182000160E0,-5.424795151E1,2.830500007E-1,5.440964515E1
2.862834790E-1,7.746000290E0,-5.478495407E1,-1.747050047E0,5.535741953E1
2.882464100E-1,1.123395061E1,-5.486100388E1,-3.739950180E0,5.612413581E1
2.902095580E-1,1.441500092E1,-5.436300278E1,-6.346950531E0,5.659869348E1
2.921722960E-1,1.748100090E1,-5.340495300E1,-9.220950127E0,5.694471283E1
2.941351310E-1,2.008800125E1,-5.125905228E1,-1.113705063E1,5.616985073E1
2.960980680E-1,2.070105171E1,-4.780905151E1,-1.155900097E1,5.336524573E1
2.980609750E-1,1.989600182E1,-4.435995102E1,-1.075395012E1,4.979260573E1
3.000237210E-1,1.813305092E1,-4.102500153E1,-9.298050880E0,4.580733605E1
3.019865150E-1,1.575705051E1,-3.776700211E1,-7.495950222E0,4.160312919E1
3.039494360E-1,1.326495075E1,-3.496905136E1,-5.464950085E0,3.779760774E1
3.059123360E-1,1.088895035E1,-3.270795059E1,-3.394950151E0,3.463964431E1
3.078751290E-1,8.704050064E0,-3.094500160E1,-1.824000120E0,3.219752457E1
3.098379530E-1,6.711000443E0,-2.944995117E1,-7.890000343E-1,3.021522252E1
3.118008470E-1,4.795050144E0,-2.826195145E1,-2.520000041E-1,2.866694803E1
3.137637200E-1,3.184950113E0,-2.722695160E1,-1.759500057E-1,2.741316762E1
3.157262970E-1,1.843950033E0,-2.646105194E1,-2.910000086E-1,2.652681855E1
3.176889580E-1,9.619500637E-1,-2.584695053E1,-3.670500219E-1,2.586744915E1
3.196505290E-1,3.870000243E-1,-2.542605209E1,-4.819500148E-1,2.543356385E1
3.216124200E-1,4.200000316E-2,-2.504205132E1,-7.510500550E-1,2.505334657E1
3.235752930E-1,-1.870500147E-1,-2.485095024E1,-7.120500207E-1,2.486185292E1
3.255378790E-1,-4.549500346E-1,-2.458200073E1,-5.590500236E-1,2.459256547E1
3.275005350E-1,-4.930500090E-1,-2.446800041E1,-4.440000355E-1,2.447699488E1
3.294631770E-1,-4.170000255E-1,-2.450595093E1,-4.060500264E-1,2.451286186E1
3.314259230E-1,-1.870500147E-1,-2.465895081E1,-9.900000691E-2,2.465985895E1
3.333886380E-1,-1.870500147E-1,-2.473605156E1,2.449500114E-1,2.473797152E1
3.353508770E-1,-4.170000255E-1,-2.454405022E1,7.050000429E-1,2.455771396E1
3.373132560E-1,-6.850500107E-1,-2.423805046E1,1.165050030E0,2.427570236E1
3.392759020E-1,-7.230000496E-1,-2.396895027E1,1.548000097E0,2.402976509E1
3.412384760E-1,-7.620000243E-1,-2.389305115E1,1.969950080E0,2.398623023E1
3.432010980E-1,-7.620000243E-1,-2.385405159E1,2.430000067E0,2.398960862E1
3.451637060E-1,-6.850500107E-1,-2.381595039E1,2.620950222E0,2.396952579E1
3.471265030E-1,-6.850500107E-1,-2.385405159E1,2.659050226E0,2.401157260E1
3.490892450E-1,-6.469500065E-1,-2.385405159E1,2.620950222E0,2.400632628E1
3.510518690E-1,-7.230000496E-1,-2.362395096E1,2.620950222E0,2.377988999E1
3.530145070E-1,-9.150000215E-1,-2.312595177E1,2.467950106E0,2.327525828E1
3.549769380E-1,-1.222050071E0,-2.262795067E1,2.085000038E0,2.275664261E1
3.569394300E-1,-1.375050068E0,-2.224500084E1,1.893000126E0,2.236770606E1
3.589020650E-1,-1.336950064E0,-2.220600128E1,1.585950017E0,2.230267172E1
3.608646580E-1,-1.222050071E0,-2.224500084E1,1.395000100E0,2.232217494E1
3.628272810E-1,-1.222050071E0,-2.205300140E1,1.126049995E0,2.211552093E1
3.647898930E-1,-1.068000078E0,-2.197605133E1,8.959500194E-1,2.202022213E1
3.667526900E-1,-1.106999993E0,-2.178495026E1,7.810500264E-1,2.182703704E1
3.687154320E-1,-1.068000078E0,-2.159295082E1,6.280500293E-1,2.162846726E1
3.706778920E-1,-7.999500632E-1,-2.155500031E1,6.660000086E-1,2.158011850E1
3.726404340E-1,-8.380500674E-1,-2.140095139E1,7.050000429E-1,2.142895409E1
3.746031970E-1,-8.770500422E-1,-2.109495163E1,6.660000086E-1,2.112367764E1
3.765658940E-1,-8.770500422E-1,-2.078805161E1,8.959500194E-1,2.082582610E1
3.785285420E-1,-7.999500632E-1,-2.036595154E1,1.126049995E0,2.041273844E1
3.804912040E-1,-6.469500065E-1,-2.005995178E1,1.279950023E0,2.011115317E1
3.824538110E-1,-4.930500090E-1,-1.967700005E1,1.318050027E0,1.972725741E1
3.844164350E-1,-4.549500346E-1,-1.933200073E1,1.356000066E0,1.938483861E1
3.863791780E-1,-3.019500077E-1,-1.894799995E1,1.318050027E0,1.899618730E1
3.883418890E-1,-1.099500060E-1,-1.856505013E1,1.126049995E0,1.859949364E1
3.903043090E-1,1.570500135E-1,-1.829700089E1,8.580000401E-1,1.831778016E1
3.922668140E-1,3.109500110E-1,-1.787505150E1,8.959500194E-1,1.790019225E1
3.942292680E-1,3.109500110E-1,-1.753005028E1,8.200500607E-1,1.755197524E1
3.961917370E-1,3.490500152E-1,-1.714695168E1,7.429500222E-1,1.716658855E1
3.981542450E-1,4.260000288E-1,-1.680195045E1,7.810500264E-1,1.682548823E1
4.001167390E-1,5.020500422E-1,-1.630395126E1,7.429500222E-1,1.632859013E1
4.020791510E-1,5.020500422E-1,-1.584405041E1,8.200500607E-1,1.587319973E1
4.040415880E-1,5.410500169E-1,-1.546095085E1,7.810500264E-1,1.549011864E1
4.060040530E-1,6.169500351E-1,-1.492395115E1,7.429500222E-1,1.495516366E1
4.079665090E-1,5.410500169E-1,-1.434900093E1,7.050000429E-1,1.437649428E1
4.099296740E-1,6.169500351E-1,-1.373595047E1,5.509500504E-1,1.376083241E1
4.118926440E-1,6.940500140E-1,-1.316100025E1,6.660000086E-1,1.319610507E1
4.138550190E-1,6.940500140E-1,-1.258605099E1,5.509500504E-1,1.261720773E1
4.158175690E-1,8.470500112E-1,-1.197300053E1,3.979500234E-1,1.200952120E1
4.177803740E-1,6.550500393E-1,-1.135905075E1,3.220500052E-1,1.138247955E1
4.197431050E-1,6.169500351E-1,-1.074600029E1,9.195000678E-2,1.076408865E1
4.217052400E-1,5.790000558E-1,-1.013295078E1,1.500000060E-2,1.014949051E1
4.236675260E-1,5.410500169E-1,-9.595950127E0,-9.900000691E-2,9.611700940E0
4.256294320E-1,4.260000288E-1,-8.983050346E0,-3.670500219E-1,9.000633048E0
4.275914490E-1,1.960500032E-1,-8.446949959E0,-5.970000029E-1,8.470289736E0
4.295536700E-1,1.960500032E-1,-7.948050499E0,-8.659500480E-1,7.997487845E0
4.315158310E-1,1.189500093E-1,-7.411950588E0,-1.018950105E0,7.482607830E0
4.334783540E-1,4.050000105E-3,-6.952050209E0,-1.134000063E0,7.043931761E0
4.354407640E-1,-7.200000435E-2,-6.568950176E0,-1.171950102E0,6.673062075E0
4.374035500E-1,-1.480500102E-1,-5.994000435E0,-1.287000060E0,6.132399952E0
4.393662250E-1,-1.099500060E-1,-5.572050095E0,-1.171950102E0,5.695023995E0
4.413286510E-1,-7.200000435E-2,-5.188950062E0,-1.171950102E0,5.320136632E0
4.432911500E-1,-3.299999982E-2,-4.690050125E0,-9.420000315E-1,4.783829348E0
4.452539800E-1,8.100000024E-2,-4.306950092E0,-7.890000343E-1,4.379372233E0
4.472167020E-1,2.719500065E-1,-3.924000263E0,-5.590500236E-1,3.972942461E0
4.491798400E-1,5.020500422E-1,-3.502050161E0,-2.520000041E-1,3.546817387E0
4.511428560E-1,6.550500393E-1,-3.118950129E0,-1.369500011E-1,3.189936639E0
4.531050430E-1,8.850000501E-1,-2.736000061E0,-2.205000073E-2,2.875657773E0
4.550674730E-1,1.000050068E0,-2.467050076E0,1.680000126E-1,2.667332041E0
4.570291020E-1,1.114950061E0,-2.161050081E0,3.220500052E-1,2.452950733E0
4.589909530E-1,1.114950061E0,-1.854000092E0,5.899500251E-1,2.242425252E0
4.609536530E-1,1.114950061E0,-1.624050021E0,7.429500222E-1,2.105380451E0
4.629161050E-1,1.192050099E0,-1.432950020E0,1.050000072E0,2.139352554E0
4.648787490E-1,1.306950092E0,-1.393950105E0,1.203000069E0,2.257969133E0
4.668413360E-1,1.345050097E0,-1.279050112E0,1.395000100E0,2.321885921E0
4.688039370E-1,1.384050012E0,-1.240950108E0,1.471050024E0,2.370556850E0
4.707665480E-1,1.422000051E0,-1.087950110E0,1.471050024E0,2.317262989E0
4.727292090E-1,1.459950089E0,-9.730500579E-1,1.471050024E0,2.289600151E0
4.746918560E-1,1.498950124E0,-7.810500264E-1,1.471050024E0,2.240731753E0
4.766544670E-1,1.498950124E0,-5.509500504E-1,1.510050058E0,2.197873657E0
4.786170880E-1,1.422000051E0,-3.979500234E-1,1.585950017E0,2.166953119E0
4.805795220E-1,1.422000051E0,-2.059500068E-1,1.548000097E0,2.112061517E0
4.825420110E-1,1.384050012E0,-9.105000645E-2,1.548000097E0,2.078506396E0
4.845038820E-1,1.345050097E0,2.295000106E-2,1.510050058E0,2.022359425E0
4.864659350E-1,1.345050097E0,2.530499995E-1,1.471050024E0,2.009274057E0
4.884285110E-1,1.422000051E0,3.679500222E-1,1.432950020E0,2.052027564E0
4.903909330E-1,1.422000051E0,5.590500236E-1,1.432950020E0,2.094747439E0
4.923533660E-1,1.459950089E0,7.129500508E-1,1.356000066E0,2.116243894E0
4.943157890E-1,1.575000048E0,8.659500480E-1,1.203000069E0,2.162799991E0
4.962783020E-1,1.614000082E0,1.018950105E0,1.050000072E0,2.178475552E0
4.982407890E-1,1.651950121E0,1.134000063E0,9.730500579E-1,2.227492258E0
5.002034270E-1,1.729050040E0,1.288050056E0,8.200500607E-1,2.306765937E0
5.021660200E-1,1.843950033E0,1.363950014E0,6.280500293E-1,2.378015602E0
5.041295040E-1,1.882050037E0,1.441050053E0,5.130000114E-1,2.425264235E0
5.060927210E-1,1.920000076E0,1.555950046E0,2.449500114E-1,2.483421298E0
5.080554590E-1,1.920000076E0,1.633050084E0,5.295000225E-2,2.521122086E0
5.100183380E-1,1.959000111E0,1.671000123E0,-2.520000041E-1,2.587165794E0
5.119810890E-1,1.959000111E0,1.786050081E0,-5.209500194E-1,2.701674527E0
5.139438770E-1,1.996950150E0,1.824000120E0,-6.360000372E-1,2.778359657E0
5.159064090E-1,1.920000076E0,1.824000120E0,-9.040500522E-1,2.798335796E0
5.178690220E-1,1.959000111E0,1.863000035E0,-1.096050024E0,2.917152074E0
5.198318170E-1,1.920000076E0,1.939050078E0,-1.363950014E0,3.050684372E0
5.217945580E-1,1.996950150E0,1.978050113E0,-1.632000089E0,3.250217906E0
5.237571530E-1,1.920000076E0,2.053950071E0,-1.900950074E0,3.393924332E0
5.257197910E-1,1.959000111E0,2.053950071E0,-2.206950188E0,3.595416730E0
5.276822660E-1,2.074050188E0,2.092950106E0,-2.398950100E0,3.799616548E0
5.296447900E-1,2.149950027E0,2.169000149E0,-2.629050016E0,4.029733335E0
5.316075550E-1,2.304000139E0,2.131050110E0,-2.859000206E0,4.245429706E0
5.335702490E-1,2.341950178E0,2.169000149E0,-3.088950157E0,4.441948374E0
5.355330320E-1,2.419050217E0,2.169000149E0,-3.241950035E0,4.589837211E0
5.374957880E-1,2.649000168E0,2.131050110E0,-3.357000113E0,4.777868376E0
5.394584120E-1,2.839950085E0,2.053950071E0,-3.357000113E0,4.853192468E0
5.414210840E-1,3.031950235E0,2.053950071E0,-3.394950151E0,4.993708007E0
5.433835090E-1,3.300000191E0,2.016000032E0,-3.280050039E0,5.070797339E0
5.453460070E-1,3.376950264E0,1.863000035E0,-3.088950157E0,4.941272639E0
5.473089570E-1,3.529950142E0,1.786050081E0,-2.935050249E0,4.925956035E0
5.492717740E-1,3.721950293E0,1.708950043E0,-2.704950094E0,4.908174736E0
5.512345950E-1,3.913050175E0,1.555950046E0,-2.551950216E0,4.923961019E0
5.531974050E-1,3.990000248E0,1.441050053E0,-2.284050226E0,4.818050713E0
5.551598070E-1,4.143000126E0,1.288050056E0,-1.939050078E0,4.752203509E0
5.571223280E-1,4.258049965E0,1.134000063E0,-1.671000123E0,4.712662417E0
5.590851390E-1,4.335000038E0,9.430500269E-1,-1.287000060E0,4.619300579E0
5.610478650E-1,4.450050354E0,8.280000687E-1,-9.040500522E-1,4.615824819E0
5.630106200E-1,4.527000427E0,5.209500194E-1,-5.970000029E-1,4.595816662E0
5.649733500E-1,4.603050232E0,3.289500177E-1,-2.140500098E-1,4.619750746E0
5.669359470E-1,4.527000427E0,1.380000114E-1,1.300500035E-1,4.530970081E0
5.688985830E-1,4.450050354E0,-5.295000225E-2,3.979500234E-1,4.468122209E0
5.708614190E-1,4.219950199E0,-1.680000126E-1,7.050000429E-1,4.281731980E0
5.728241970E-1,4.066950321E0,-2.440500110E-1,9.730500579E-1,4.188850885E0
5.747869850E-1,3.837000132E0,-3.210000098E-1,1.126049995E0,4.011682890E0
5.767497560E-1,3.607050180E0,-4.360500276E-1,1.279950023E0,3.852171166E0
5.787125250E-1,3.415050268E0,-5.509500504E-1,1.395000100E0,3.729898064E0
5.806752940E-1,3.262050152E0,-6.280500293E-1,1.432950020E0,3.617839658E0
5.826383780E-1,3.108000040E0,-7.039500475E-1,1.471050024E0,3.509871521E0
5.846013690E-1,2.917050123E0,-7.810500264E-1,1.510050058E0,3.376310374E0
5.865641610E-1,2.686950207E0,-7.810500264E-1,1.585950017E0,3.216360989E0
5.885270010E-1,2.610000134E0,-8.190000653E-1,1.585950017E0,3.161977113E0
5.904899370E-1,2.419050217E0,-8.580000401E-1,1.663050056E0,3.058382498E0
5.924528450E-1,2.380050182E0,-9.730500579E-1,1.701000094E0,3.082996368E0
5.944157710E-1,2.265000105E0,-1.048950076E0,1.816050053E0,3.086836492E0
5.963786910E-1,2.149950027E0,-1.048950076E0,1.855050087E0,3.027175616E0
5.983415990E-1,1.959000111E0,-1.048950076E0,1.930950046E0,2.943899756E0
6.003044910E-1,1.843950033E0,-1.087950110E0,1.930950046E0,2.883115545E0
6.022674190E-1,1.729050040E0,-1.048950076E0,1.893000126E0,2.770082992E0
6.042303360E-1,1.690050125E0,-1.011000037E0,1.893000126E0,2.731636868E0
6.061929450E-1,1.537050128E0,-9.730500579E-1,1.816050053E0,2.570483866E0
6.081556450E-1,1.422000051E0,-9.340500236E-1,1.816050053E0,2.488487771E0
6.101185900E-1,1.384050012E0,-9.340500236E-1,1.816050053E0,2.466998515E0
6.120814740E-1,1.306950092E0,-8.580000401E-1,1.816050053E0,2.396313921E0
6.140445390E-1,1.269000053E0,-8.190000653E-1,1.740000129E0,2.304066555E0
6.160075510E-1,1.192050099E0,-7.810500264E-1,1.740000129E0,2.249138286E0
6.179699640E-1,1.039050102E0,-7.039500475E-1,1.663050056E0,2.083484166E0
6.199325530E-1,9.240000248E-1,-5.890500546E-1,1.585950017E0,1.927691228E0
6.218951190E-1,7.320000529E-1,-5.130000114E-1,1.548000097E0,1.787539479E0
6.238576980E-1,5.790000558E-1,-3.979500234E-1,1.471050024E0,1.630212704E0
6.258192830E-1,5.020500422E-1,-3.589500189E-1,1.471050024E0,1.595270364E0
6.277811600E-1,3.109500110E-1,-2.440500110E-1,1.471050024E0,1.523232907E0
6.297440360E-1,2.340000123E-1,-1.680000126E-1,1.395000100E0,1.424431567E0
6.317066190E-1,8.100000024E-2,-1.290000081E-1,1.318050027E0,1.326822473E0
6.336695950E-1,4.050000105E-3,-9.105000645E-2,1.203000069E0,1.206447542E0
6.356324600E-1,4.200000316E-2,-5.295000225E-2,1.087950110E0,1.090047314E0
6.375941780E-1,4.200000316E-2,2.295000106E-2,8.959500194E-1,8.972274739E-1
6.395562320E-1,1.189500093E-1,6.105000153E-2,8.200500607E-1,8.308780353E-1
6.415191230E-1,2.340000123E-1,1.759500057E-1,7.429500222E-1,7.985544100E-1
6.434817680E-1,3.490500152E-1,2.140500098E-1,7.050000429E-1,8.152781000E-1
6.454452650E-1,4.639500082E-1,2.910000086E-1,6.660000086E-1,8.622567057E-1
6.474085230E-1,5.790000558E-1,3.289500177E-1,5.509500504E-1,8.642888040E-1
6.493717050E-1,5.790000558E-1,3.679500222E-1,5.509500504E-1,8.798717187E-1
6.513349100E-1,7.320000529E-1,4.060500264E-1,4.750500321E-1,9.624828489E-1
6.532980100E-1,8.089500666E-1,4.830000103E-1,4.360500276E-1,1.038185362E0
6.552611410E-1,8.850000501E-1,5.209500194E-1,3.600000143E-1,1.088215981E0
6.572247340E-1,8.850000501E-1,5.590500236E-1,2.830500007E-1,1.084379694E0
6.591882020E-1,8.850000501E-1,6.360000372E-1,2.449500114E-1,1.117014612E0
6.611511680E-1,8.850000501E-1,6.360000372E-1,1.680000126E-1,1.102699025E0
6.631142810E-1,8.850000501E-1,6.360000372E-1,9.195000678E-2,1.093698285E0
6.650770360E-1,8.850000501E-1,6.739500165E-1,5.295000225E-2,1.113659470E0
6.670398960E-1,9.240000248E-1,7.510500550E-1,-9.900000691E-2,1.194844439E0
6.690026100E-1,9.619500637E-1,7.890000343E-1,-1.369500011E-1,1.251648626E0
6.709653630E-1,9.619500637E-1,8.280000687E-1,-2.140500098E-1,1.287147795E0
6.729279990E-1,1.000050068E0,8.280000687E-1,-2.910000086E-1,1.330550734E0
6.748906700E-1,9.619500637E-1,8.659500480E-1,-3.289500177E-1,1.335449559E0
6.768534550E-1,9.619500637E-1,8.659500480E-1,-4.060500264E-1,1.356500658E0
6.788162070E-1,1.077000022E0,8.280000687E-1,-5.209500194E-1,1.454957760E0
6.807789830E-1,1.114950061E0,8.280000687E-1,-5.970000029E-1,1.511656957E0
6.827417490E-1,1.114950061E0,8.280000687E-1,-7.120500207E-1,1.560677091E0
6.847045190E-1,1.153950095E0,9.040500522E-1,-9.040500522E-1,1.722269960E0
6.866672880E-1,1.230000019E0,9.040500522E-1,-1.057050109E0,1.856761018E0
6.886300130E-1,1.269000053E0,9.810000658E-1,-1.171950102E0,1.986501776E0
6.905927510E-1,1.306950092E0,1.018950105E0,-1.402050018E0,2.170742296E0
6.925551700E-1,1.306950092E0,1.057950020E0,-1.516950130E0,2.264622372E0
6.945176790E-1,1.269000053E0,1.096050024E0,-1.632000089E0,2.339895528E0
6.964801320E-1,1.306950092E0,1.173000097E0,-1.747050047E0,2.477141828E0
6.984426020E-1,1.306950092E0,1.173000097E0,-1.977000117E0,2.644348168E0
7.004052860E-1,1.306950092E0,1.210950017E0,-2.206950188E0,2.836396943E0
7.023679080E-1,1.306950092E0,1.210950017E0,-2.475000143E0,3.049613778E0
7.043310520E-1,1.459950089E0,1.018950105E0,-2.704950094E0,3.238281734E0
7.062940190E-1,1.804950118E0,5.980500579E-1,-2.974050045E0,3.529940859E0
7.082573400E-1,1.959000111E0,2.140500098E-1,-3.049950123E0,3.631211174E0
7.102205580E-1,1.959000111E0,-1.290000081E-1,-3.088950157E0,3.660045834E0
7.121828910E-1,2.035050154E0,-3.979500234E-1,-2.974050045E0,3.625571268E0
7.141454830E-1,2.111999989E0,-9.340500236E-1,-2.896950245E0,3.704769105E0
7.161079220E-1,2.074050188E0,-1.356000066E0,-3.049950123E0,3.929709418E0
7.180704060E-1,2.074050188E0,-1.738950133E0,-3.241950035E0,4.223253696E0
7.200331780E-1,2.149950027E0,-2.122950077E0,-3.472050190E0,4.602644313E0
7.219958650E-1,2.149950027E0,-2.467050076E0,-3.510000229E0,4.798825148E0
7.239583340E-1,2.227050066E0,-2.773950100E0,-3.433950186E0,4.944346775E0
7.259208670E-1,2.227050066E0,-3.042000055E0,-3.204000235E0,4.947639218E0
7.278835290E-1,2.227050066E0,-3.349050045E0,-2.782050133E0,4.890367179E0
7.298461290E-1,2.111999989E0,-3.579000235E0,-2.551950216E0,4.876703450E0
7.318087470E-1,1.996950150E0,-3.847050190E0,-2.245050192E0,4.881378435E0
7.337713600E-1,1.804950118E0,-4.039050102E0,-1.747050047E0,4.756464498E0
7.357341110E-1,1.690050125E0,-4.116000175E0,-1.171950102E0,4.601216569E0
7.376968210E-1,1.537050128E0,-4.231050014E0,-5.209500194E-1,4.531632845E0
7.396585470E-1,1.422000051E0,-4.384050369E0,1.680000126E-1,4.611963333E0
7.416205740E-1,1.306950092E0,-4.575000286E0,8.959500194E-1,4.841639454E0
7.435832890E-1,1.269000053E0,-4.843950272E0,1.395000100E0,5.198099715E0
7.455458020E-1,1.077000022E0,-5.457000256E0,1.663050056E0,5.805559088E0
7.475077150E-1,5.790000558E-1,-6.415050507E0,1.816050053E0,6.692245652E0
7.494698040E-1,-1.480500102E-1,-7.756950378E0,2.238000154E0,8.074703875E0
7.514328650E-1,-9.529500604E-1,-9.213000298E0,2.583000183E0,9.615579975E0
7.533956440E-1,-2.065050125E0,-1.093800068E1,2.928000212E0,1.150988602E1
7.553583670E-1,-3.520950079E0,-1.296900082E1,3.234000206E0,1.382211377E1
7.573211070E-1,-5.053950310E0,-1.538400078E1,3.196050167E0,1.650529098E1
7.592832050E-1,-6.894000530E0,-1.822005081E1,3.310950041E0,1.976005782E1
7.612454920E-1,-8.656949997E0,-2.182305145E1,3.273000240E0,2.370444871E1
7.632081630E-1,-1.030500031E1,-2.577105141E1,3.349050045E0,2.795632769E1
7.651707210E-1,-1.145505047E1,-2.971800232E1,4.192950249E0,3.212411360E1
7.671336620E-1,-1.199205017E1,-3.355095291E1,5.341950417E0,3.602793559E1
7.690964900E-1,-1.241295052E1,-3.723105240E1,5.725950241E0,3.966130494E1
7.710590700E-1,-1.233705044E1,-4.060305023E1,5.956050396E0,4.285189655E1
7.730217230E-1,-1.149300098E1,-4.390005112E1,6.531000137E0,4.584711030E1
7.749841830E-1,-1.018995094E1,-4.669800186E1,6.913950443E0,4.829431839E1
7.769467090E-1,-8.656949997E0,-4.895895386E1,6.913950443E0,5.019685903E1
7.789093380E-1,-6.396000385E0,-5.141205215E1,6.531000137E0,5.221840567E1
7.808719370E-1,-3.636000156E0,-5.352000427E1,6.147000313E0,5.399441608E1
7.828355920E-1,-6.079500318E-1,-5.509095383E1,5.188950062E0,5.533812429E1
7.847989370E-1,2.878050089E0,-5.624100113E1,3.118950129E0,5.640089742E1
7.867623480E-1,6.060000420E0,-5.685405350E1,5.130000114E-1,5.717840653E1
7.887257260E-1,9.279000282E0,-5.704605103E1,-3.012000084E0,5.787420780E1
7.906882110E-1,1.272900105E1,-5.700795364E1,-7.803000450E0,5.893064621E1
7.926509580E-1,1.564200115E1,-5.627895355E1,-1.198095036E1,5.962831529E1
7.946132360E-1,1.755795097E1,-5.490000153E1,-1.347495079E1,5.919346340E1
7.965756510E-1,1.832505035E1,-5.267700195E1,-1.332195091E1,5.734237858E1
7.985382500E-1,1.847805023E1,-4.934205246E1,-1.282395077E1,5.422665576E1
8.005007980E-1,1.717500114E1,-4.470405197E1,-1.113705063E1,4.916774170E1
8.024632460E-1,1.491300106E1,-3.964500046E1,-8.569950104E0,4.321536424E1
8.044257230E-1,1.173195076E1,-3.512295151E1,-5.848050117E0,3.748946627E1
8.063882260E-1,8.665950775E0,-3.171105194E1,-3.165000200E0,3.302584964E1
8.083507210E-1,6.097950459E0,-2.948805046E1,-1.171950102E0,3.013475712E1
8.103135210E-1,3.760050297E0,-2.768700218E1,-2.520000041E-1,2.794229003E1
8.122762110E-1,1.614000082E0,-2.615400124E1,-2.205000073E-2,2.620376429E1
8.142377790E-1,1.960500032E-1,-2.515695190E1,-1.759500057E-1,2.515833109E1
8.161996750E-1,-9.919500351E-1,-2.454405022E1,-5.970000029E-1,2.457134052E1
8.181623680E-1,-1.758000135E0,-2.416095161E1,-8.659500480E-1,2.424029738E1
8.201248270E-1,-2.103000164E0,-2.404605103E1,-9.420000315E-1,2.415621129E1
8.220872750E-1,-2.295000076E0,-2.396895027E1,-7.890000343E-1,2.409149484E1
8.240497360E-1,-2.295000076E0,-2.400795174E1,-6.739500165E-1,2.412681041E1
8.260118380E-1,-2.065050125E0,-2.419905090E1,-6.360000372E-1,2.429532862E1
8.279740450E-1,-1.950000048E0,-2.439105034E1,-5.590500236E-1,2.447526044E1
8.299363690E-1,-1.834950089E0,-2.446800041E1,-3.670500219E-1,2.453945419E1
8.318986590E-1,-1.911000133E0,-2.446800041E1,-2.205000073E-2,2.454252334E1
8.338604300E-1,-2.103000164E0,-2.442900085E1,3.220500052E-1,2.452146832E1
8.358223530E-1,-2.332950115E0,-2.442900085E1,6.660000086E-1,2.454918115E1
8.377850860E-1,-2.485950232E0,-2.435295105E1,9.730500579E-1,2.449883670E1
8.397475820E-1,-2.524950027E0,-2.431395149E1,1.165050030E0,2.447245291E1
8.417100390E-1,-2.563050032E0,-2.423805046E1,1.240950108E0,2.440475922E1
8.436725070E-1,-2.563050032E0,-2.416095161E1,1.395000100E0,2.433653290E1
8.456348650E-1,-2.524950027E0,-2.400795174E1,1.471050024E0,2.418514229E1
8.475972320E-1,-2.371050119E0,-2.389305115E1,1.471050024E0,2.405543099E1
8.495598440E-1,-2.295000076E0,-2.373900032E1,1.548000097E0,2.389986330E1
8.515223840E-1,-2.179949999E0,-2.366295052E1,1.777950048E0,2.382957229E1
8.534848330E-1,-2.103000164E0,-2.354805183E1,1.893000126E0,2.371743672E1
8.554473090E-1,-1.950000048E0,-2.343300056E1,2.085000038E0,2.360625427E1
8.574098110E-1,-1.873050094E0,-2.320305061E1,2.161050081E0,2.337862297E1
8.593723060E-1,-1.873050094E0,-2.297295189E1,2.161050081E0,2.315026939E1
8.613349420E-1,-1.873050094E0,-2.274300194E1,2.122950077E0,2.291853771E1
8.632975370E-1,-1.758000135E0,-2.270400047E1,2.046000004E0,2.286368995E1
8.652602910E-1,-1.795950055E0,-2.235900116E1,2.008050203E0,2.252071569E1
8.672229990E-1,-1.834950089E0,-2.197605133E1,1.893000126E0,2.213362427E1
8.691852840E-1,-1.720050097E0,-2.178495026E1,1.816050053E0,2.192807944E1
8.711476930E-1,-1.489950061E0,-2.155500031E1,1.740000129E0,2.167638323E1
8.731103430E-1,-1.489950061E0,-2.128605080E1,1.624950051E0,2.139991524E1
8.750729220E-1,-1.452000022E0,-2.105595016E1,1.548000097E0,2.116264742E1
8.770354990E-1,-1.336950064E0,-2.078805161E1,1.548000097E0,2.088843769E1
8.789980770E-1,-1.222050071E0,-2.052000046E1,1.548000097E0,2.061456110E1
8.809601900E-1,-1.030050039E0,-2.025105095E1,1.510050058E0,2.033337942E1
8.829224490E-1,-8.770500422E-1,-1.986795044E1,1.510050058E0,1.994454619E1
8.848848990E-1,-7.230000496E-1,-1.952295113E1,1.510050058E0,1.959460642E1
8.868472930E-1,-4.170000255E-1,-1.917795181E1,1.510050058E0,1.924182881E1
8.888101270E-1,4.050000105E-3,-1.887195015E1,1.510050058E0,1.893226796E1
8.907728320E-1,3.870000243E-1,-1.864200020E1,1.510050058E0,1.870706261E1
8.927359580E-1,8.089500666E-1,-1.833495140E1,1.548000097E0,1.841795720E1
8.946989710E-1,1.153950095E0,-1.806705093E1,1.510050058E0,1.816673282E1
8.966612040E-1,1.384050012E0,-1.779900169E1,1.471050024E0,1.791323656E1
8.986236650E-1,1.498950124E0,-1.753005028E1,1.471050024E0,1.765541000E1
9.005859010E-1,1.651950121E0,-1.718505096E1,1.356000066E0,1.731743780E1
9.025482030E-1,1.269000053E0,-1.695495033E1,1.203000069E0,1.704487932E1
9.045107310E-1,1.498950124E0,-1.634205055E1,1.011000037E0,1.644176356E1
9.064731960E-1,1.575000048E0,-1.580505085E1,8.580000401E-1,1.590648992E1
9.084360180E-1,1.729050040E0,-1.538400078E1,7.429500222E-1,1.549867958E1
9.103987350E-1,1.959000111E0,-1.492395115E1,4.750500321E-1,1.505947117E1
9.123618740E-1,1.996950150E0,-1.442595100E1,3.600000143E-1,1.456796047E1
9.143248890E-1,2.035050154E0,-1.396605110E1,2.070000172E-1,1.411505797E1
9.162872480E-1,2.035050154E0,-1.346700096E1,9.195000678E-2,1.362020554E1
9.182498050E-1,2.074050188E0,-1.300800037E1,-6.105000153E-2,1.317245175E1
9.202125640E-1,2.035050154E0,-1.250895023E1,-2.140500098E-1,1.267521528E1
9.221752640E-1,1.996950150E0,-1.197300053E1,-4.060500264E-1,1.214518127E1
9.241375510E-1,1.959000111E0,-1.147395039E1,-4.819500148E-1,1.164995685E1
9.260999590E-1,1.996950150E0,-1.097595024E1,-5.970000029E-1,1.117209482E1
9.280624000E-1,2.111999989E0,-1.040100002E1,-6.739500165E-1,1.063463935E1
9.300248510E-1,2.111999989E0,-9.940950394E0,-8.269500136E-1,1.019641530E1
9.319874950E-1,2.035050154E0,-9.366000175E0,-9.810000658E-1,9.634612060E0
9.339500820E-1,2.074050188E0,-8.791950226E0,-9.810000658E-1,9.086387296E0
9.359127020E-1,2.149950027E0,-8.332050323E0,-1.057050109E0,8.669642590E0
9.378753120E-1,2.149950027E0,-7.795050144E0,-1.096050024E0,8.160050093E0
9.398380830E-1,2.265000105E0,-7.297050476E0,-1.134000063E0,7.724191043E0
9.418007930E-1,2.265000105E0,-6.874950409E0,-1.096050024E0,7.320962659E0
9.437633930E-1,2.188950062E0,-6.300000191E0,-1.210950017E0,6.778488380E0
9.457260260E-1,2.074050188E0,-5.839950085E0,-1.134000063E0,6.300210895E0
9.476883230E-1,2.035050154E0,-5.380050182E0,-1.134000063E0,5.862791591E0
9.496507180E-1,2.035050154E0,-4.920000076E0,-1.171950102E0,5.451724215E0
9.516135110E-1,1.920000076E0,-4.461000443E0,-1.134000063E0,4.987271938E0
9.535761830E-1,1.959000111E0,-4.116000175E0,-1.057050109E0,4.679368954E0
9.555386550E-1,1.882050037E0,-3.694050074E0,-1.018950105E0,4.269236185E0
9.575011850E-1,1.882050037E0,-3.310950041E0,-7.890000343E-1,3.889347448E0
9.594636350E-1,1.920000076E0,-2.965950251E0,-5.970000029E-1,3.583248552E0
9.614261080E-1,1.729050040E0,-2.620950222E0,-3.289500177E-1,3.157087617E0
9.633887360E-1,1.651950121E0,-2.351999998E0,-6.105000153E-2,2.874816567E0
9.653513260E-1,1.537050128E0,-2.046000004E0,2.449500114E-1,2.570727450E0
9.673133610E-1,1.422000051E0,-1.738950133E0,7.050000429E-1,2.354369718E0
9.692755590E-1,1.384050012E0,-1.548000097E0,9.349500537E-1,2.277285739E0
9.712382900E-1,1.345050097E0,-1.356000066E0,1.203000069E0,2.257233950E0
9.732008650E-1,1.345050097E0,-1.164000034E0,1.432950020E0,2.284163217E0
9.751632990E-1,1.306950092E0,-1.011000037E0,1.510050058E0,2.238412562E0
9.771257810E-1,1.306950092E0,-7.810500264E-1,1.585950017E0,2.198498384E0
9.790884180E-1,1.384050012E0,-6.280500293E-1,1.663050056E0,2.252948459E0
9.810510100E-1,1.422000051E0,-5.130000114E-1,1.816050053E0,2.362898844E0
9.830134500E-1,1.422000051E0,-3.589500189E-1,1.893000126E0,2.394656288E0
9.849759350E-1,1.537050128E0,-2.059500068E-1,1.969950080E0,2.507118230E0
9.869385760E-1,1.614000082E0,-1.290000081E-1,1.893000126E0,2.491001153E0
9.889011680E-1,1.690050125E0,-5.295000225E-2,1.930950046E0,2.566640062E0
9.908633830E-1,1.690050125E0,1.380000114E-1,1.855050087E0,2.513269634E0
9.928257080E-1,1.690050125E0,2.910000086E-1,1.740000129E0,2.443061784E0
9.947887330E-1,1.690050125E0,5.980500579E-1,1.548000097E0,2.368594013E0
9.967515520E-1,1.690050125E0,7.890000343E-1,1.471050024E0,2.375453357E0
9.987142900E-1,1.690050125E0,9.040500522E-1,1.356000066E0,2.347831361E0
1.000677069E0,1.651950121E0,1.018950105E0,1.126049995E0,2.243922260E0
1.002639836E0,1.690050125E0,1.173000097E0,8.580000401E-1,2.228982441E0
1.004602607E0,1.651950121E0,1.326000094E0,4.750500321E-1,2.170918696E0
1.006565916E0,1.690050125E0,1.402950048E0,1.300500035E-1,2.200329809E0
1.008529067E0,1.614000082E0,1.555950046E0,-2.910000086E-1,2.260676406E0
1.010491490E0,1.537050128E0,1.671000123E0,-5.970000029E-1,2.347588872E0
1.012454103E0,1.575000048E0,1.747950077E0,-8.269500136E-1,2.493952876E0
1.014416493E0,1.498950124E0,1.863000035E0,-1.249050021E0,2.697729890E0
1.016378949E0,1.422000051E0,1.900950074E0,-1.632000089E0,2.880819262E0
1.018341591E0,1.459950089E0,2.053950071E0,-2.014950037E0,3.226482421E0
1.020304178E0,1.459950089E0,2.169000149E0,-2.245050192E0,3.446195913E0
1.022266683E0,1.422000051E0,2.208000183E0,-2.590050220E0,3.688591750E0
1.024229199E0,1.459950089E0,2.245950222E0,-2.896950245E0,3.945639034E0
1.026191606E0,1.459950089E0,2.361000061E0,-3.280050039E0,4.297034304E0
1.028154045E0,1.459950089E0,2.398950100E0,-3.586950064E0,4.555505088E0
1.030116690E0,1.537050128E0,2.437050104E0,-3.894000292E0,4.844065914E0
1.032079274E0,1.575000048E0,2.476050138E0,-4.200000286E0,5.123617066E0
1.034041726E0,1.729050040E0,2.514000177E0,-4.468050003E0,5.410478885E0
1.036004209E0,1.804950118E0,2.551950216E0,-4.698000431E0,5.642827561E0
1.037966306E0,1.920000076E0,2.551950216E0,-4.927950382E0,5.872269167E0
1.039928516E0,2.188950062E0,2.551950216E0,-5.119950294E0,6.125181083E0
1.041890840E0,2.494950056E0,2.551950216E0,-5.158050060E0,6.272376433E0
1.043853130E0,2.764050245E0,2.437050104E0,-5.119950294E0,6.308175488E0
1.045815306E0,3.108000040E0,2.322000027E0,-5.043000221E0,6.362640930E0
1.047777516E0,3.415050268E0,2.208000183E0,-4.813050270E0,6.301054360E0
1.049739975E0,3.721950293E0,2.053950071E0,-4.621950150E0,6.279653498E0
1.051702361E0,4.066950321E0,1.863000035E0,-4.237950325E0,6.162067592E0
1.053665015E0,4.411950111E0,1.671000123E0,-3.894000292E0,6.117252935E0
1.055627591E0,4.717950344E0,1.363950014E0,-3.433950186E0,5.992614535E0
1.057590029E0,4.987050056E0,1.096050024E0,-3.012000084E0,5.928249187E0
1.059552511E0,5.140050411E0,7.890000343E-1,-2.551950216E0,5.792675478E0
1.061514834E0,5.370000362E0,4.060500264E-1,-2.053950071E0,5.763722010E0
1.063477204E0,5.407950401E0,2.295000106E-2,-1.632000089E0,5.648882946E0
1.065440356E0,5.293050289E0,-2.059500068E-1,-1.171950102E0,5.425151040E0
1.067403279E0,5.140050411E0,-5.130000114E-1,-7.510500550E-1,5.219900710E0
1.069365541E0,4.987050056E0,-8.580000401E-1,-3.670500219E-1,5.073613905E0
1.071327987E0,4.833000183E0,-1.126049995E0,-2.205000073E-2,4.962495901E0
1.073289730E0,4.795050144E0,-1.393950105E0,3.600000143E-1,5.006516033E0
1.075251679E0,4.603050232E0,-1.624050021E0,5.899500251E-1,4.916670717E0
1.077214408E0,4.450050354E0,-1.777950048E0,7.050000429E-1,4.843663860E0
1.079176908E0,4.297049999E0,-1.969050050E0,7.810500264E-1,4.790807441E0
1.081139369E0,4.143000126E0,-2.046000004E0,9.730500579E-1,4.722011486E0
1.083101838E0,3.874950171E0,-2.161050081E0,9.730500579E-1,4.542268452E0
1.085064118E0,3.721950293E0,-2.161050081E0,1.087950110E0,4.439221427E0
1.087026454E0,3.645000219E0,-2.275950193E0,1.165050030E0,4.452338425E0
1.088988936E0,3.415050268E0,-2.199000120E0,1.165050030E0,4.225578237E0
1.090951375E0,3.108000040E0,-2.083950043E0,1.126049995E0,3.907748792E0
1.092913845E0,2.839950085E0,-2.046000004E0,1.126049995E0,3.676876540E0
1.094876303E0,2.610000134E0,-1.969050050E0,1.203000069E0,3.483743383E0
1.096838541E0,2.304000139E0,-1.816050053E0,1.126049995E0,3.142362651E0
1.098800843E0,2.035050154E0,-1.624050021E0,1.011000037E0,2.793042906E0
1.100763376E0,1.690050125E0,-1.471050024E0,1.011000037E0,2.458125032E0
1.102725841E0,1.575000048E0,-1.279050112E0,1.087950110E0,2.302222791E0
1.104688234E0,1.422000051E0,-1.240950108E0,1.050000072E0,2.159754954E0
1.106650665E0,1.306950092E0,-1.164000034E0,1.087950110E0,2.060740174E0
1.108613356E0,1.306950092E0,-1.126049995E0,1.165050030E0,2.081693711E0
1.110575971E0,1.269000053E0,-1.087950110E0,1.240950108E0,2.081815013E0
1.112538227E0,1.230000019E0,-1.087950110E0,1.318050027E0,2.105656991E0
1.114500589E0,1.269000053E0,-1.087950110E0,1.356000066E0,2.152378395E0
1.116463382E0,1.269000053E0,-1.126049995E0,1.356000066E0,2.171885334E0
1.118426048E0,1.269000053E0,-1.011000037E0,1.395000100E0,2.139744725E0
1.120388295E0,1.306950092E0,-9.730500579E-1,1.471050024E0,2.195206854E0
1.122350665E0,1.269000053E0,-8.959500194E-1,1.471050024E0,2.139410140E0
1.124313007E0,1.306950092E0,-8.580000401E-1,1.471050024E0,2.146688330E0
1.126275358E0,1.269000053E0,-7.429500222E-1,1.510050058E0,2.107744541E0
1.128237953E0,1.269000053E0,-6.660000086E-1,1.471050024E0,2.053753958E0
1.130200490E0,1.230000019E0,-5.509500504E-1,1.510050058E0,2.024029936E0
1.132163164E0,1.192050099E0,-5.130000114E-1,1.624950051E0,2.079570898E0
1.134125797E0,1.230000019E0,-3.589500189E-1,1.663050056E0,2.099400069E0
1.136088411E0,1.230000019E0,-2.830500007E-1,1.663050056E0,2.087762639E0
1.138051030E0,1.230000019E0,-2.059500068E-1,1.740000129E0,2.140774603E0
1.140013610E0,1.153950095E0,-1.680000126E-1,1.701000094E0,2.062335120E0
1.141976194E0,1.114950061E0,-1.290000081E-1,1.701000094E0,2.037929332E0
1.143937958E0,1.039050102E0,-5.295000225E-2,1.701000094E0,1.993948379E0
1.145899963E0,1.039050102E0,9.900000691E-2,1.663050056E0,1.963456545E0
1.147862682E0,1.039050102E0,2.140500098E-1,1.663050056E0,1.972606907E0
1.149825192E0,9.619500637E-1,2.910000086E-1,1.701000094E0,1.975710063E0
1.151787625E0,9.240000248E-1,3.289500177E-1,1.624950051E0,1.898011283E0
1.153750064E0,9.619500637E-1,4.060500264E-1,1.548000097E0,1.867224906E0
1.155712754E0,9.619500637E-1,4.830000103E-1,1.548000097E0,1.885455180E0
1.157675370E0,8.850000501E-1,5.590500236E-1,1.510050058E0,1.837393043E0
1.159638120E0,9.240000248E-1,6.739500165E-1,1.471050024E0,1.863323065E0
1.161600831E0,8.850000501E-1,7.129500508E-1,1.471050024E0,1.858900491E0
1.163563106E0,8.850000501E-1,8.659500480E-1,1.432950020E0,1.893789939E0
1.165525516E0,8.470500112E-1,9.430500269E-1,1.356000066E0,1.856225539E0
1.167487985E0,9.240000248E-1,9.810000658E-1,1.203000069E0,1.806473454E0
1.169450437E0,9.619500637E-1,1.018950105E0,1.050000072E0,1.751030380E0
1.171412900E0,9.619500637E-1,1.134000063E0,8.580000401E-1,1.716819192E0
1.173375360E0,1.039050102E0,1.173000097E0,7.050000429E-1,1.718307133E0
1.175338723E0,1.039050102E0,1.288050056E0,4.360500276E-1,1.711384728E0
1.177301821E0,1.114950061E0,1.288050056E0,2.070000172E-1,1.716110600E0
1.179264310E0,1.306950092E0,1.249050021E0,1.500000060E-2,1.807890898E0
1.181226977E0,1.306950092E0,1.288050056E0,-2.140500098E-1,1.847433056E0
1.183189584E0,1.345050097E0,1.363950014E0,-4.819500148E-1,1.975296236E0
1.185152208E0,1.422000051E0,1.402950048E0,-6.360000372E-1,2.096389522E0
1.187114876E0,1.384050012E0,1.402950048E0,-7.120500207E-1,2.095442317E0
1.189077524E0,1.306950092E0,1.441050053E0,-6.360000372E-1,2.046763261E0
1.191039774E0,1.192050099E0,1.402950048E0,-3.670500219E-1,1.877226144E0
1.193002141E0,9.619500637E-1,1.441050053E0,-6.105000153E-2,1.733695556E0
1.194964033E0,7.699500322E-1,1.479000092E0,2.070000172E-1,1.680212287E0
1.196926064E0,7.320000529E-1,1.402950048E0,3.979500234E-1,1.631703753E0
1.198887548E0,6.169500351E-1,1.363950014E0,7.050000429E-1,1.654693944E0
1.200849203E0,4.260000288E-1,1.326000094E0,7.810500264E-1,1.596806632E0
1.202811937E0,3.490500152E-1,1.173000097E0,8.580000401E-1,1.494633470E0
1.204774355E0,1.960500032E-1,1.096050024E0,8.200500607E-1,1.382838877E0
1.206736690E0,1.189500093E-1,1.018950105E0,6.280500293E-1,1.202852967E0
1.208699049E0,8.100000024E-2,9.040500522E-1,4.750500321E-1,1.024470610E0
1.210662740E0,1.570500135E-1,7.129500508E-1,3.979500234E-1,8.314605841E-1
1.212626043E0,1.960500032E-1,4.830000103E-1,5.295000225E-2,5.239544984E-1
1.214589127E0,3.109500110E-1,2.140500098E-1,-2.910000086E-1,4.766427604E-1
1.216552276E0,5.020500422E-1,-9.105000645E-2,-7.120500207E-1,8.759906281E-1
1.218515655E0,7.320000529E-1,-3.210000098E-1,-1.210950017E0,1.450953144E0
1.220478966E0,8.850000501E-1,-7.810500264E-1,-1.594050050E0,1.983496860E0
1.222441512E0,1.039050102E0,-1.164000034E0,-1.977000117E0,2.518541375E0
1.224404280E0,1.153950095E0,-1.509000063E0,-2.245050192E0,2.940906727E0
1.226367049E0,1.269000053E0,-1.816050053E0,-2.437050104E0,3.293571335E0
1.228329817E0,1.384050012E0,-2.199000120E0,-2.704950094E0,3.750726726E0
1.230292586E0,1.575000048E0,-2.581950188E0,-2.974050045E0,4.241705505E0
1.232255355E0,1.804950118E0,-2.851050138E0,-3.241950035E0,4.679377293E0
1.234218119E0,2.074050188E0,-3.234000206E0,-3.549000263E0,5.230281482E0
1.236180888E0,2.304000139E0,-3.579000235E0,-3.586950064E0,5.566315665E0
1.238143298E0,2.419050217E0,-3.961950302E0,-3.664050102E0,5.913891891E0
1.240105814E0,2.494950056E0,-4.461000443E0,-3.817050219E0,6.379276848E0
1.242068580E0,2.380050182E0,-5.035050392E0,-3.817050219E0,6.751758563E0
1.244031273E0,2.265000105E0,-5.725050449E0,-3.510000229E0,7.087067781E0
1.245993760E0,2.035050154E0,-6.568950176E0,-2.551950216E0,7.335188167E0
1.247956294E0,1.614000082E0,-7.642050266E0,-1.249050021E0,7.909870700E0
1.249917436E0,1.039050102E0,-8.907000542E0,5.295000225E-2,8.967557497E0
1.251878986E0,-3.299999982E-2,-1.051605034E1,1.203000069E0,1.058468766E1
1.253841964E0,-1.222050071E0,-1.227900028E1,1.969950080E0,1.249591764E1
1.255804523E0,-2.295000076E0,-1.400400066E1,2.928000212E0,1.448972895E1
1.257767294E0,-3.138000250E0,-1.561395073E1,3.463950157E0,1.629851078E1
1.259730027E0,-3.865950108E0,-1.737705040E1,3.579000235E0,1.815810270E1
1.261692669E0,-4.671000004E0,-1.963800049E1,4.000950336E0,2.057855456E1
1.263655337E0,-5.706000328E0,-2.209095192E1,4.345950127E0,2.322618951E1
1.265618258E0,-7.009050369E0,-2.481195068E1,4.308000088E0,2.614036244E1
1.267581104E0,-8.121000290E0,-2.768700218E1,4.308000088E0,2.917326859E1
1.269543477E0,-8.887050629E0,-3.090705109E1,4.729050159E0,3.250522098E1
1.271506005E0,-8.809950829E0,-3.447105026E1,5.341950417E0,3.597784004E1
1.273468456E0,-8.619000435E0,-3.780600357E1,5.764050484E0,3.920210903E1
1.275430929E0,-8.389050484E0,-4.090995026E1,6.262050152E0,4.222811232E1
1.277393388E0,-7.852050304E0,-4.374600220E1,6.223950386E0,4.487878074E1
1.279355852E0,-6.817050457E0,-4.642905045E1,6.070950508E0,4.731791777E1
1.281317952E0,-5.437950134E0,-4.884405136E1,5.457000256E0,4.944786655E1
1.283280159E0,-3.406050205E0,-5.095200348E1,4.384050369E0,5.125356314E1
1.285244286E0,-6.850500107E-1,-5.283000183E1,2.314950228E0,5.288513384E1
1.287207850E0,2.725050211E0,-5.440095139E1,-6.105000153E-2,5.446919439E1
1.289169943E0,6.213000298E0,-5.520600128E1,-2.704950094E0,5.562032637E1
1.291132467E0,9.777000427E0,-5.532105255E1,-4.890000343E0,5.639078556E1
1.293095157E0,1.315005016E1,-5.474595261E1,-6.691050529E0,5.669932366E1
1.295057788E0,1.533495045E1,-5.313705063E1,-7.879950523E0,5.586412512E1
1.297020401E0,1.686795044E1,-5.068395233E1,-8.530950546E0,5.409406523E1
1.298983020E0,1.732800102E1,-4.727205276E1,-7.918050289E0,5.096667649E1
1.300945635E0,1.702095032E1,-4.347795105E1,-6.844950199E0,4.719002353E1
1.302908251E0,1.633095169E1,-3.976005173E1,-5.542050362E0,4.333908189E1
1.304871089E0,1.506705093E1,-3.642600250E1,-4.123950005E0,3.963428624E1
1.306833831E0,1.318905067E1,-3.355095291E1,-2.935050249E0,3.616949017E1
1.308796426E0,1.073595047E1,-3.113700104E1,-1.861950040E0,3.298848775E1
1.310759064E0,8.167950630E0,-2.910495186E1,-9.420000315E-1,3.024402427E1
1.312721450E0,6.060000420E0,-2.757195091E1,-1.759500057E-1,2.823060468E1
1.314683910E0,4.258049965E0,-2.619195175E1,2.070000172E-1,2.653661951E1
1.316646577E0,2.764050245E0,-2.500395203E1,4.360500276E-1,2.516004234E1
1.318609196E0,1.459950089E0,-2.416095161E1,1.680000126E-1,2.420560392E1
1.320571091E0,6.169500351E-1,-2.350905037E1,-3.289500177E-1,2.351944482E1
1.322533198E0,-1.480500102E-1,-2.320305061E1,-7.890000343E-1,2.321693342E1
1.324496080E0,-4.549500346E-1,-2.316405106E1,-1.287000060E0,2.320423690E1
1.326458735E0,-4.170000255E-1,-2.343300056E1,-1.900950074E0,2.351367720E1
1.328421684E0,-3.019500077E-1,-2.385405159E1,-2.398950100E0,2.397627812E1
1.330384561E0,-1.870500147E-1,-2.427600098E1,-2.359950066E0,2.439115773E1
1.332347313E0,-3.019500077E-1,-2.454405022E1,-2.206950188E0,2.464492248E1
1.334310101E0,-6.079500318E-1,-2.477400208E1,-1.861950040E0,2.485131063E1
1.336272507E0,-1.068000078E0,-2.496600151E1,-1.402050018E0,2.502813616E1
1.338235025E0,-1.528050065E0,-2.500395203E1,-9.040500522E-1,2.506690768E1
1.340197482E0,-1.873050094E0,-2.496600151E1,-4.440000355E-1,2.504010152E1
1.342159953E0,-2.179949999E0,-2.485095024E1,1.500000060E-2,2.494638521E1
1.344121511E0,-2.448000193E0,-2.462100029E1,3.220500052E-1,2.474449588E1
1.346083337E0,-2.640000105E0,-2.446800041E1,6.280500293E-1,2.461802371E1
1.348045682E0,-2.677950144E0,-2.427600098E1,9.349500537E-1,2.444114915E1
1.350007874E0,-2.677950144E0,-2.416095161E1,1.126049995E0,2.433497459E1
1.351970387E0,-2.601000071E0,-2.400795174E1,1.279950023E0,2.418233281E1
1.353932802E0,-2.640000105E0,-2.381595039E1,1.395000100E0,2.400239819E1
1.355895452E0,-2.524950027E0,-2.377800179E1,1.432950020E0,2.395458385E1
1.357858033E0,-2.485950232E0,-2.362395096E1,1.395000100E0,2.379531535E1
1.359820699E0,-2.410050154E0,-2.354805183E1,1.395000100E0,2.371213006E1
1.361783340E0,-2.371050119E0,-2.354805183E1,1.318050027E0,2.370379463E1
1.363745937E0,-2.295000076E0,-2.339400101E1,1.279950023E0,2.354112530E1
1.365708558E0,-2.295000076E0,-2.331795120E1,1.240950108E0,2.346345735E1
1.367671172E0,-2.256000042E0,-2.320305061E1,1.165050030E0,2.334156026E1
1.369633789E0,-2.218050003E0,-2.297295189E1,9.730500579E-1,2.310028335E1
1.371596404E0,-2.140950203E0,-2.278095055E1,7.429500222E-1,2.289339097E1
1.373559020E0,-2.065050125E0,-2.251305199E1,5.899500251E-1,2.261525995E1
1.375521229E0,-2.065050125E0,-2.220600128E1,4.360500276E-1,2.230607685E1
1.377483558E0,-1.987950087E0,-2.190000153E1,3.220500052E-1,2.199240161E1
1.379447123E0,-1.987950087E0,-2.151600075E1,2.070000172E-1,2.160863445E1
1.381410325E0,-1.795950055E0,-2.105595016E1,9.195000678E-2,2.113260345E1
1.383372706E0,-1.795950055E0,-2.063505173E1,5.295000225E-2,2.071312628E1
1.385335327E0,-1.795950055E0,-2.025105095E1,-2.205000073E-2,2.033054321E1
1.387297911E0,-1.758000135E0,-1.986795044E1,-6.105000153E-2,1.994566986E1
1.389260496E0,-1.642950058E0,-1.952295113E1,-6.105000153E-2,1.959205535E1
1.391222981E0,-1.642950058E0,-1.910205078E1,-2.205000073E-2,1.917258760E1
1.393185496E0,-1.489950061E0,-1.864200020E1,-2.205000073E-2,1.870146007E1
1.395148083E0,-1.222050071E0,-1.833495140E1,1.300500035E-1,1.837609214E1
1.397110648E0,-1.030050039E0,-1.798995018E1,1.680000126E-1,1.802019796E1
1.399073118E0,-8.380500674E-1,-1.760700035E1,2.070000172E-1,1.762814903E1
1.401035630E0,-6.079500318E-1,-1.718505096E1,2.449500114E-1,1.719754577E1
1.402997497E0,-3.780000210E-1,-1.687905121E1,2.449500114E-1,1.688506009E1
1.404959553E0,-1.099500060E-1,-1.649505043E1,3.600000143E-1,1.649934477E1
1.406922985E0,4.200000316E-2,-1.611194992E1,3.220500052E-1,1.611522294E1
1.408886013E0,1.960500032E-1,-1.572900105E1,2.070000172E-1,1.573158474E1
1.410847629E0,2.719500065E-1,-1.534605026E1,2.449500114E-1,1.535041420E1
1.412809679E0,3.870000243E-1,-1.500105095E1,3.600000143E-1,1.501035971E1
1.414772751E0,5.020500422E-1,-1.465605068E1,3.979500234E-1,1.467004567E1
1.416735523E0,4.639500082E-1,-1.423395061E1,3.220500052E-1,1.424515061E1
1.418698878E0,5.790000558E-1,-1.385100079E1,3.220500052E-1,1.386683742E1
1.420662062E0,6.169500351E-1,-1.346700096E1,2.830500007E-1,1.348409654E1
1.422625601E0,6.940500140E-1,-1.304595089E1,9.195000678E-2,1.306472330E1
1.424589047E0,6.550500393E-1,-1.262400055E1,9.195000678E-2,1.264131857E1
1.426551881E0,7.320000529E-1,-1.227900028E1,9.195000678E-2,1.230114331E1
1.428514895E0,8.089500666E-1,-1.185795021E1,9.195000678E-2,1.188586716E1
1.430477847E0,8.470500112E-1,-1.139805031E1,1.500000060E-2,1.142949122E1
1.432440818E0,8.850000501E-1,-1.093800068E1,1.300500035E-1,1.097451580E1
1.434403867E0,7.699500322E-1,-1.051605034E1,9.195000678E-2,1.054460016E1
1.436366893E0,7.320000529E-1,-1.009500027E1,9.195000678E-2,1.012192221E1
1.438329078E0,6.940500140E-1,-9.673050880E0,1.680000126E-1,9.699373318E0
1.440291510E0,5.020500422E-1,-9.175050735E0,1.680000126E-1,9.190311978E0
1.442254201E0,3.870000243E-1,-8.715000153E0,5.295000225E-2,8.723749216E0
1.444216816E0,3.109500110E-1,-8.217000008E0,1.680000126E-1,8.224597439E0
1.446178861E0,3.490500152E-1,-7.833000183E0,2.830500007E-1,7.845880772E0
1.448141063E0,2.719500065E-1,-7.372950554E0,3.979500234E-1,7.388688713E0
1.450104109E0,3.109500110E-1,-6.913050175E0,5.899500251E-1,6.945141731E0
1.452066907E0,2.719500065E-1,-6.454050541E0,7.810500264E-1,6.506824443E0
1.454029312E0,3.109500110E-1,-5.994000435E0,9.730500579E-1,6.080424125E0
1.455991832E0,3.870000243E-1,-5.533950329E0,1.203000069E0,5.676405943E0
1.457955393E0,4.260000288E-1,-5.112000465E0,1.432950020E0,5.326102754E0
1.459918628E0,6.169500351E-1,-4.614000320E0,1.510050058E0,4.893861204E0
1.461881319E0,8.850000501E-1,-4.116000175E0,1.740000129E0,4.555467372E0
1.463844169E0,1.077000022E0,-3.694050074E0,1.893000126E0,4.288284560E0
1.465806969E0,1.269000053E0,-3.310950041E0,2.200050116E0,4.172885311E0
1.467769784E0,1.306950092E0,-2.926950216E0,2.391000032E0,3.999004535E0
1.469732166E0,1.345050097E0,-2.506050110E0,2.467950106E0,3.765663904E0
1.471694688E0,1.498950124E0,-2.161050081E0,2.545050144E0,3.659818187E0
1.473657499E0,1.459950089E0,-1.816050053E0,2.583000183E0,3.478704070E0
1.475620225E0,1.575000048E0,-1.509000063E0,2.545050144E0,3.351863150E0
1.477582417E0,1.690050125E0,-1.318050027E0,2.430000067E0,3.240127408E0
1.479544765E0,1.804950118E0,-1.048950076E0,2.200050116E0,3.032880100E0
1.481507280E0,1.882050037E0,-8.580000401E-1,1.969950080E0,2.856392783E0
1.483469753E0,1.920000076E0,-5.890500546E-1,1.777950048E0,2.682254021E0
1.485432214E0,2.111999989E0,-3.979500234E-1,1.624950051E0,2.694321963E0
1.487394678E0,2.188950062E0,-2.059500068E-1,1.395000100E0,2.603832379E0
1.489356734E0,2.304000139E0,-1.290000081E-1,1.087950110E0,2.551214042E0
1.491318909E0,2.341950178E0,-1.500000060E-2,7.050000429E-1,2.445808802E0
1.493282536E0,2.457000017E0,1.759500057E-1,2.449500114E-1,2.475440970E0
1.495245744E0,2.533950090E0,4.060500264E-1,-6.105000153E-2,2.567003465E0
1.497208439E0,2.572050095E0,4.830000103E-1,-4.060500264E-1,2.648321605E0
1.499171285E0,2.649000168E0,7.129500508E-1,-8.269500136E-1,2.865195628E0
1.501133860E0,2.686950207E0,8.659500480E-1,-1.249050021E0,3.087020708E0
1.503096515E0,2.764050245E0,1.057950020E0,-1.632000089E0,3.379742045E0
1.505059143E0,2.802000046E0,1.173000097E0,-1.900950074E0,3.583398480E0
1.507021765E0,2.839950085E0,1.288050056E0,-2.245050192E0,3.842478340E0
1.508984559E0,2.802000046E0,1.402950048E0,-2.629050016E0,4.090400602E0
1.510947302E0,2.839950085E0,1.479000092E0,-2.935050249E0,4.343647974E0
1.512910076E0,2.839950085E0,1.555950046E0,-3.049950123E0,4.448425877E0
1.514872840E0,2.839950085E0,1.594050050E0,-3.319050074E0,4.649989832E0
1.516835256E0,2.802000046E0,1.633050084E0,-3.472050190E0,4.751125062E0
1.518797770E0,2.764050245E0,1.671000123E0,-3.586950064E0,4.826844303E0
1.520760537E0,2.878050089E0,1.708950043E0,-3.625050068E0,4.934031876E0
1.522723230E0,2.802000046E0,1.747950077E0,-3.664050102E0,4.932727124E0
1.524685833E0,2.839950085E0,1.747950077E0,-3.549000263E0,4.869912609E0
1.526648463E0,2.878050089E0,1.786050081E0,-3.510000229E0,4.877832389E0
1.528611070E0,2.839950085E0,1.863000035E0,-3.394950151E0,4.802267396E0
1.530573688E0,2.878050089E0,1.863000035E0,-3.241950035E0,4.718493560E0
1.532536528E0,2.878050089E0,1.900950074E0,-3.088950157E0,4.630161614E0
1.534499302E0,2.839950085E0,1.939050078E0,-2.935050249E0,4.521034357E0
1.536462206E0,2.955000162E0,1.978050113E0,-2.743950129E0,4.491544335E0
1.538425071E0,2.992950201E0,1.939050078E0,-2.514000177E0,4.363239966E0
1.540387626E0,2.992950201E0,2.016000032E0,-2.322000027E0,4.291117705E0
1.542350285E0,3.031950235E0,1.978050113E0,-2.130000114E0,4.200274392E0
1.544313117E0,3.070050240E0,1.978050113E0,-1.900950074E0,4.117220167E0
1.546275898E0,3.108000040E0,1.939050078E0,-1.747050047E0,4.058542019E0
1.548238667E0,3.147000074E0,1.978050113E0,-1.479000092E0,4.000466596E0
1.550201439E0,3.184950113E0,1.978050113E0,-1.249050021E0,3.951799012E0
1.552164017E0,3.223050117E0,1.863000035E0,-9.810000658E-1,3.849828869E0
1.554126659E0,3.262050152E0,1.863000035E0,-7.510500550E-1,3.830902832E0
1.556088910E0,3.376950264E0,1.824000120E0,-3.670500219E-1,3.855579754E0
1.558051275E0,3.376950264E0,1.747950077E0,-1.369500011E-1,3.804980665E0
1.560013212E0,3.376950264E0,1.786050081E0,2.070000172E-1,3.825783186E0
1.561975275E0,3.415050268E0,1.671000123E0,5.130000114E-1,3.836401798E0
1.563937925E0,3.415050268E0,1.594050050E0,8.959500194E-1,3.873795340E0
1.565900413E0,3.415050268E0,1.479000092E0,1.279950023E0,3.935515426E0
1.567862736E0,3.415050268E0,1.363950014E0,1.510050058E0,3.975321264E0
1.569825107E0,3.453000069E0,1.249050021E0,1.701000094E0,4.046818102E0
1.571787718E0,3.415050268E0,1.096050024E0,1.969950080E0,4.092016289E0
1.573750259E0,3.415050268E0,9.430500269E-1,2.200050116E0,4.170387536E0
1.575713062E0,3.415050268E0,7.890000343E-1,2.391000032E0,4.242872912E0
1.577675792E0,3.376950264E0,5.590500236E-1,2.620950222E0,4.311114714E0
1.579638254E0,3.300000191E0,3.679500222E-1,2.698050022E0,4.278418212E0
1.581600794E0,3.147000074E0,2.140500098E-1,2.851050138E0,4.251812998E0
1.583564458E0,3.070050240E0,2.295000106E-2,2.851050138E0,4.189775897E0
1.585527792E0,2.992950201E0,-5.295000225E-2,2.928000212E0,4.187330874E0
1.587490304E0,2.878050089E0,-1.680000126E-1,2.889000177E0,4.081386816E0
1.589453044E0,2.839950085E0,-2.440500110E-1,2.851050138E0,4.031546079E0
1.591415458E0,2.686950207E0,-3.589500189E-1,2.773950100E0,3.878575213E0
1.593377967E0,2.610000134E0,-4.740000367E-1,2.736000061E0,3.810836269E0
1.595340465E0,2.572050095E0,-7.039500475E-1,2.620950222E0,3.739032953E0
1.597302967E0,2.533950090E0,-8.190000653E-1,2.467950106E0,3.630763266E0
1.599265591E0,2.457000017E0,-9.340500236E-1,2.275950193E0,3.476959565E0
1.601228186E0,2.419050217E0,-9.730500579E-1,2.046000004E0,3.314324423E0
1.603190265E0,2.380050182E0,-1.048950076E0,1.930950046E0,3.239367718E0
1.605152496E0,2.341950178E0,-1.048950076E0,1.855050087E0,3.166423491E0
1.607114951E0,2.265000105E0,-1.087950110E0,1.855050087E0,3.123311022E0
1.609077340E0,2.111999989E0,-1.087950110E0,1.701000094E0,2.921913879E0
1.611039475E0,1.920000076E0,-1.011000037E0,1.510050058E0,2.643628670E0
1.613001670E0,1.882050037E0,-9.340500236E-1,1.471050024E0,2.564868410E0
1.614964221E0,1.804950118E0,-1.011000037E0,1.432950020E0,2.516607193E0
1.616926668E0,1.690050125E0,-8.959500194E-1,1.356000066E0,2.344724300E0
1.618889132E0,1.614000082E0,-8.959500194E-1,1.318050027E0,2.268254522E0
1.620851591E0,1.575000048E0,-8.580000401E-1,1.240950108E0,2.180996650E0
1.622814174E0,1.459950089E0,-8.580000401E-1,1.087950110E0,2.012772659E0
1.624776730E0,1.422000051E0,-8.190000653E-1,9.730500579E-1,1.907792354E0
1.626739356E0,1.306950092E0,-7.810500264E-1,8.580000401E-1,1.747661797E0
1.628701961E0,1.306950092E0,-6.660000086E-1,7.429500222E-1,1.644277741E0
1.630664623E0,1.269000053E0,-6.660000086E-1,5.899500251E-1,1.549825209E0
1.632627269E0,1.230000019E0,-6.280500293E-1,4.750500321E-1,1.460486022E0
1.634590799E0,1.192050099E0,-5.890500546E-1,3.979500234E-1,1.387922054E0
1.636554057E0,1.114950061E0,-4.740000367E-1,2.449500114E-1,1.236038099E0
1.638516699E0,1.077000022E0,-5.130000114E-1,1.300500035E-1,1.200004609E0
1.640479521E0,1.039050102E0,-4.360500276E-1,1.500000060E-2,1.126938215E0
1.642442146E0,1.000050068E0,-3.589500189E-1,-9.900000691E-2,1.067120544E0
1.644404828E0,9.240000248E-1,-3.210000098E-1,-1.759500057E-1,9.938689333E-1
1.646367427E0,9.619500637E-1,-2.830500007E-1,-3.289500177E-1,1.055307226E0
1.648330054E0,8.850000501E-1,-2.059500068E-1,-4.819500148E-1,1.028550587E0
1.650293027E0,8.850000501E-1,-1.290000081E-1,-6.360000372E-1,1.097434343E0
1.652255898E0,9.240000248E-1,-9.105000645E-2,-9.040500522E-1,1.295906110E0
1.654217525E0,9.240000248E-1,-1.500000060E-2,-1.018950105E0,1.375594548E0
1.656179516E0,8.850000501E-1,2.295000106E-2,-1.096050024E0,1.408927765E0
1.658142473E0,8.850000501E-1,1.759500057E-1,-1.210950017E0,1.510160070E0
1.660105139E0,8.089500666E-1,3.289500177E-1,-1.402050018E0,1.651772556E0
1.662067747E0,6.940500140E-1,4.440000355E-1,-1.479000092E0,1.693009960E0
1.664030372E0,6.550500393E-1,5.590500236E-1,-1.516950130E0,1.744352367E0
1.665992084E0,5.410500169E-1,7.129500508E-1,-1.441050053E0,1.696366160E0
1.667954064E0,5.020500422E-1,7.510500550E-1,-1.402050018E0,1.667895286E0
1.669916607E0,4.260000288E-1,7.890000343E-1,-1.249050021E0,1.537570497E0
1.671878985E0,3.109500110E-1,8.280000687E-1,-1.134000063E0,1.438134266E0
1.673841461E0,4.200000316E-2,8.280000687E-1,-1.018950105E0,1.313623778E0
1.675803908E0,-3.299999982E-2,9.040500522E-1,-8.269500136E-1,1.225659750E0
1.677766193E0,-2.629500031E-1,9.810000658E-1,-5.970000029E-1,1.178097125E0
1.679728526E0,-3.780000210E-1,1.018950105E0,-3.289500177E-1,1.135496123E0
1.681691139E0,-5.320500135E-1,1.018950105E0,-2.205000073E-2,1.149705499E0
1.683653673E0,-7.230000496E-1,1.057950020E0,2.070000172E-1,1.298012451E0
1.685615222E0,-7.620000243E-1,1.057950020E0,3.600000143E-1,1.352590955E0
1.687577059E0,-8.380500674E-1,1.018950105E0,5.509500504E-1,1.429731859E0
1.689539492E0,-9.150000215E-1,1.018950105E0,4.750500321E-1,1.449536784E0
1.691501750E0,-9.150000215E-1,9.810000658E-1,3.600000143E-1,1.388951467E0
1.693464787E0,-9.529500604E-1,9.040500522E-1,9.195000678E-2,1.316766919E0
1.695427596E0,-1.030050039E0,9.040500522E-1,-2.910000086E-1,1.401067659E0
1.697390134E0,-1.144950032E0,7.890000343E-1,-8.269500136E-1,1.617800345E0
1.699352752E0,-1.222050071E0,8.280000687E-1,-1.287000060E0,1.958407425E0
1.701315051E0,-1.297950029E0,8.280000687E-1,-1.747050047E0,2.328613806E0
1.703277444E0,-1.336950064E0,7.890000343E-1,-2.130000114E0,2.635689097E0
1.705240290E0,-1.336950064E0,6.360000372E-1,-2.359950066E0,2.785910234E0
1.707202994E0,-1.222050071E0,4.830000103E-1,-2.475000143E0,2.802199331E0
1.709165730E0,-9.150000215E-1,3.289500177E-1,-2.475000143E0,2.659146266E0
1.711128456E0,-6.469500065E-1,9.900000691E-2,-2.398950100E0,2.486625604E0
1.713092179E0,-3.400500119E-1,-9.105000645E-2,-2.130000114E0,2.158894301E0
1.715055610E0,-1.099500060E-1,-1.680000126E-1,-1.939050078E0,1.949417404E0
1.717018212E0,8.100000024E-2,-3.979500234E-1,-1.594050050E0,1.644968323E0
1.718981064E0,2.719500065E-1,-6.660000086E-1,-1.326000094E0,1.508571864E0
1.720944359E0,5.020500422E-1,-9.340500236E-1,-1.134000063E0,1.552565565E0
1.722907524E0,7.320000529E-1,-1.203000069E0,-9.040500522E-1,1.673421567E0
1.724870226E0,8.850000501E-1,-1.393950105E0,-7.120500207E-1,1.798148274E0
1.726833064E0,9.240000248E-1,-1.624050021E0,-6.739500165E-1,1.986334096E0
1.728795506E0,1.000050068E0,-1.738950133E0,-6.360000372E-1,2.104410547E0
1.730758064E0,1.039050102E0,-1.854000092E0,-4.440000355E-1,2.171192641E0
1.732721049E0,1.039050102E0,-2.008050203E0,-4.060500264E-1,2.297121537E0
1.734683909E0,1.114950061E0,-2.161050081E0,-3.289500177E-1,2.453866175E0
1.736646438E0,1.039050102E0,-2.314050198E0,-3.670500219E-1,2.563040997E0
1.738609064E0,1.039050102E0,-2.506050110E0,-6.360000372E-1,2.786468790E0
1.740571731E0,8.850000501E-1,-2.697000027E0,-9.040500522E-1,2.978983170E0
1.742534379E0,7.699500322E-1,-2.851050138E0,-9.810000658E-1,3.111859745E0
1.744496044E0,6.550500393E-1,-3.042000055E0,-7.510500550E-1,3.201082797E0
1.746457997E0,4.639500082E-1,-3.387000084E0,-4.440000355E-1,3.447340310E0
1.748420590E0,2.719500065E-1,-3.847050190E0,-1.369500011E-1,3.859081144E0
1.750382995E0,8.100000024E-2,-4.651950359E0,1.680000126E-1,4.655687613E0
1.752345116E0,-3.780000210E-1,-5.802000046E0,3.220500052E-1,5.823212580E0
1.754307314E0,-1.260000110E0,-7.258050442E0,4.360500276E-1,7.379501075E0
1.756270135E0,-2.332950115E0,-8.944950104E0,3.979500234E-1,9.252737585E0
1.758232774E0,-3.828000069E0,-1.101495075E1,4.750500321E-1,1.167083532E1
1.760196286E0,-5.629050255E0,-1.339095020E1,3.220500052E-1,1.452953786E1
1.762159543E0,-7.776000500E0,-1.641900063E1,2.070000172E-1,1.816845107E1
1.764121890E0,-9.807000160E0,-1.983000183E1,-6.105000153E-2,2.212261178E1
1.766084521E0,-1.206795025E1,-2.335605049E1,-1.759500057E-1,2.629014028E1
1.768047089E0,-1.379295063E1,-2.718900108E1,-2.205000073E-2,3.048750159E1
1.770009675E0,-1.490505028E1,-3.121305084E1,2.070000172E-1,3.458985278E1
1.771971394E0,-1.551795101E1,-3.512295151E1,1.318050027E0,3.842090293E1
1.773933367E0,-1.547895050E1,-3.914700317E1,2.620950222E0,4.217766170E1
1.775895877E0,-1.524900055E1,-4.309500122E1,3.771000147E0,4.586863406E1
1.777858254E0,-1.463595104E1,-4.677405167E1,4.461000443E0,4.921304194E1
1.779820911E0,-1.356300068E1,-5.007000351E1,4.882050037E0,5.210369134E1
1.781783485E0,-1.183800030E1,-5.302200317E1,5.227050304E0,5.457832103E1
1.783745973E0,-9.462000847E0,-5.555100250E1,5.112000465E0,5.658246979E1
1.785708487E0,-6.166050434E0,-5.769795227E1,4.116000175E0,5.817229007E1
1.787672039E0,-2.524950027E0,-5.923095322E1,2.430000067E0,5.933452698E1
1.789635273E0,1.498950124E0,-6.049500275E1,7.429500222E-1,6.051813103E1
1.791598684E0,5.178000450E0,-6.118500137E1,-1.210950017E0,6.141565339E1
1.793562043E0,8.473950386E0,-6.137700272E1,-3.241950035E0,6.204397261E1
1.795524531E0,1.165605068E1,-6.118500137E1,-5.388000488E0,6.251798509E1
1.797487275E0,1.387905025E1,-6.003600311E1,-6.844950199E0,6.199841166E1
1.799449819E0,1.617794991E1,-5.827200317E1,-7.573050499E0,6.094836758E1
1.801412425E0,1.798005104E1,-5.555100250E1,-7.266000271E0,5.883868519E1
1.803374907E0,1.897605133E1,-5.110500336E1,-5.695050240E0,5.481099789E1
1.805337425E0,1.821000099E1,-4.650600052E1,-4.392000198E0,5.013683163E1
1.807300056E0,1.594800091E1,-4.236600113E1,-2.935050249E0,4.536332555E1
1.809262654E0,1.318905067E1,-3.880200195E1,-7.890000343E-1,4.098986380E1
1.811224908E0,1.134900093E1,-3.650205231E1,1.663050056E0,3.826180054E1
1.813187266E0,9.661950111E0,-3.462405014E1,3.004050255E0,3.607218383E1
1.815150240E0,7.746000290E0,-3.278505325E1,3.081000090E0,3.382828401E1
1.817113034E0,6.060000420E0,-3.125100136E1,2.506050110E0,3.193162974E1
1.819075979E0,4.795050144E0,-3.010200119E1,1.816050053E0,3.053556974E1
1.821038880E0,4.066950321E0,-2.922000122E1,1.165050030E0,2.952466592E1
1.823002558E0,3.568050146E0,-2.856900215E1,5.295000225E-2,2.879099980E1
1.824966019E0,3.147000074E0,-2.799405098E1,-6.739500165E-1,2.817844404E1
1.826928625E0,2.725050211E0,-2.741895103E1,-1.096050024E0,2.757582456E1
1.828891482E0,2.572050095E0,-2.707395172E1,-1.287000060E0,2.722628643E1
1.830854236E0,2.380050182E0,-2.649900055E1,-1.210950017E0,2.663321364E1
1.832817021E0,2.265000105E0,-2.584695053E1,-9.810000658E-1,2.596454194E1
1.834779826E0,2.111999989E0,-2.531100082E1,-7.510500550E-1,2.541006460E1
1.836742629E0,1.729050040E0,-2.477400208E1,-2.910000086E-1,2.483597137E1
1.838705349E0,1.384050012E0,-2.423805046E1,1.500000060E-2,2.427753920E1
1.840668093E0,1.039050102E0,-2.377800179E1,2.449500114E-1,2.380195359E1
1.842629064E0,6.169500351E-1,-2.339400101E1,5.130000114E-1,2.340775682E1
1.844590554E0,4.260000288E-1,-2.316405106E1,7.429500222E-1,2.317987731E1
1.846553547E0,2.340000123E-1,-2.316405106E1,8.959500194E-1,2.318255257E1
1.848516096E0,8.100000024E-2,-2.320305061E1,1.126049995E0,2.323049951E1
1.850479083E0,4.050000105E-3,-2.331795120E1,1.510050058E0,2.336679516E1
1.852441942E0,-7.200000435E-2,-2.347095108E1,1.585950017E0,2.352458217E1
1.854404562E0,-1.099500060E-1,-2.358600044E1,1.893000126E0,2.366209956E1
1.856367252E0,-1.870500147E-1,-2.350905037E1,2.122950077E0,2.360545179E1
1.858330229E0,-1.480500102E-1,-2.347095108E1,2.238000154E0,2.357787327E1
1.860293111E0,-2.250000089E-1,-2.331795120E1,2.275950193E0,2.342984043E1
1.862255681E0,-3.019500077E-1,-2.308800125E1,2.314950228E0,2.320573141E1
1.864218343E0,-3.400500119E-1,-2.297295189E1,2.353049994E0,2.309564887E1
1.866181130E0,-4.549500346E-1,-2.270400047E1,2.314950228E0,2.282624830E1
1.868143880E0,-5.700000525E-1,-2.239800072E1,2.200050116E0,2.251300861E1
1.870106459E0,-5.700000525E-1,-2.209095192E1,2.275950193E0,2.221519764E1
1.872069098E0,-6.469500065E-1,-2.178495026E1,2.238000154E0,2.190915897E1
1.874031664E0,-7.620000243E-1,-2.140095139E1,2.122950077E0,2.151948608E1
1.875994252E0,-8.380500674E-1,-2.098005104E1,1.930950046E0,2.108538446E1
1.877956692E0,-9.150000215E-1,-2.055795097E1,1.740000129E0,2.065173537E1
1.879919175E0,-8.380500674E-1,-2.017500114E1,1.663050056E0,2.026076836E1
1.881881483E0,-8.770500422E-1,-1.963800049E1,1.585950017E0,1.972144816E1
1.883843853E0,-7.230000496E-1,-1.917795181E1,1.471050024E0,1.924787139E1
1.885806644E0,-7.230000496E-1,-1.871805000E1,1.395000100E0,1.878388006E1
1.887769312E0,-7.230000496E-1,-1.818195152E1,1.203000069E0,1.823604396E1
1.889732099E0,-6.469500065E-1,-1.756905174E1,8.959500194E-1,1.760377374E1
1.891694851E0,-6.469500065E-1,-1.699394989E1,6.660000086E-1,1.701929591E1
1.893658329E0,-4.930500090E-1,-1.657200050E1,4.750500321E-1,1.658613793E1
1.895621605E0,-2.629500031E-1,-1.618905067E1,1.680000126E-1,1.619205757E1
1.897583973E0,4.200000316E-2,-1.588200092E1,-6.105000153E-2,1.588217379E1
1.899546607E0,-7.200000435E-2,-1.542195034E1,-2.140500098E-1,1.542360378E1
1.901508994E0,-1.099500060E-1,-1.507695103E1,-1.759500057E-1,1.507837855E1
1.903471453E0,3.109500110E-1,-1.450200081E1,-2.910000086E-1,1.450825277E1
1.905435167E0,5.790000558E-1,-1.404195023E1,-3.289500177E-1,1.405773151E1
1.907398519E0,6.550500393E-1,-1.350600052E1,-4.819500148E-1,1.353046253E1
1.909361054E0,8.470500112E-1,-1.304595089E1,-4.060500264E-1,1.307972496E1
1.911323829E0,1.000050068E0,-1.250895023E1,-4.819500148E-1,1.255811339E1
1.913286417E0,1.077000022E0,-1.201095104E1,-4.819500148E-1,1.206876753E1
1.915249060E0,1.039050102E0,-1.151295090E1,-4.060500264E-1,1.156687253E1
1.917211509E0,1.000050068E0,-1.097595024E1,-4.060500264E-1,1.102889208E1
1.919174002E0,1.039050102E0,-1.051605034E1,-4.440000355E-1,1.057658148E1
1.921136413E0,1.039050102E0,-1.005600071E1,-2.910000086E-1,1.011372614E1
1.923098848E0,1.000050068E0,-9.558000565E0,-4.060500264E-1,9.618750000E0
1.925061179E0,9.619500637E-1,-9.097949982E0,-4.819500148E-1,9.161349115E0
1.927023540E0,9.240000248E-1,-8.677050591E0,-5.209500194E-1,8.741645836E0
1.928985839E0,8.850000501E-1,-8.140049934E0,-5.209500194E-1,8.204573538E0
1.930948156E0,8.470500112E-1,-7.642050266E0,-6.739500165E-1,7.718331077E0
1.932910822E0,7.699500322E-1,-7.143000126E0,-8.269500136E-1,7.231813063E0
1.934873385E0,7.320000529E-1,-6.645000458E0,-9.420000315E-1,6.751238347E0
1.936835830E0,8.089500666E-1,-6.147000313E0,-1.018950105E0,6.283173750E0
1.938798310E0,9.240000248E-1,-5.725050449E0,-9.420000315E-1,5.875146190E0
1.940760773E0,1.077000022E0,-5.304000378E0,-1.018950105E0,5.507323158E0
1.942723238E0,1.192050099E0,-4.843950272E0,-9.040500522E-1,5.069728215E0
1.944685473E0,1.269000053E0,-4.384050369E0,-7.890000343E-1,4.631714567E0
1.946647776E0,1.306950092E0,-4.000950336E0,-6.739500165E-1,4.262620176E0
1.948610128E0,1.306950092E0,-3.579000235E0,-5.970000029E-1,3.856652723E0
1.950572466E0,1.384050012E0,-3.310950041E0,-3.670500219E-1,3.607313450E0
1.952534913E0,1.306950092E0,-2.889000177E0,-2.520000041E-1,3.180871668E0
1.954497322E0,1.459950089E0,-2.620950222E0,-2.205000073E-2,3.000220081E0
1.956458757E0,1.498950124E0,-2.238000154E0,1.680000126E-1,2.698836818E0
1.958420478E0,1.690050125E0,-1.930950046E0,3.600000143E-1,2.591223170E0
1.960383245E0,1.804950118E0,-1.624050021E0,6.660000086E-1,2.517725047E0
1.962345706E0,1.920000076E0,-1.318050027E0,9.349500537E-1,2.509539354E0
1.964308004E0,1.996950150E0,-1.011000037E0,9.730500579E-1,2.440646920E0
1.966270339E0,2.111999989E0,-7.429500222E-1,1.165050030E0,2.523858209E0
1.968232956E0,2.149950027E0,-4.740000367E-1,1.318050027E0,2.565972921E0
1.970195491E0,2.227050066E0,-2.440500110E-1,1.471050024E0,2.680168013E0
1.972157941E0,2.341950178E0,-1.680000126E-1,1.510050058E0,2.791631390E0
1.974120416E0,2.341950178E0,-5.295000225E-2,1.585950017E0,2.828917071E0
1.976082204E0,2.419050217E0,9.900000691E-2,1.585950017E0,2.894277528E0
1.978044190E0,2.457000017E0,2.530499995E-1,1.548000097E0,2.914993600E0
1.980006912E0,2.457000017E0,4.440000355E-1,1.510050058E0,2.917916430E0
1.981969419E0,2.419050217E0,5.980500579E-1,1.510050058E0,2.913712237E0
1.983932188E0,2.419050217E0,7.510500550E-1,1.432950020E0,2.910193446E0
1.985894880E0,2.341950178E0,9.040500522E-1,1.279950023E0,2.817855425E0
1.987857708E0,2.265000105E0,9.810000658E-1,1.126049995E0,2.713038001E0
1.989820496E0,2.227050066E0,1.134000063E0,1.011000037E0,2.695891173E0
1.991783082E0,2.149950027E0,1.210950017E0,8.200500607E-1,2.600224445E0
1.993745728E0,2.111999989E0,1.249050021E0,6.280500293E-1,2.532808075E0
1.995708878E0,2.074050188E0,1.363950014E0,4.360500276E-1,2.520353834E0
1.997671880E0,2.074050188E0,1.479000092E0,2.070000172E-1,2.555772772E0
1.999634449E0,2.074050188E0,1.479000092E0,-2.205000073E-2,2.547471620E0
2.001597132E0,1.996950150E0,1.555950046E0,-3.289500177E-1,2.552841272E0
2.003559691E0,1.959000111E0,1.633050084E0,-4.819500148E-1,2.595536520E0
2.005522286E0,1.920000076E0,1.633050084E0,-6.739500165E-1,2.609111246E0
2.007484904E0,1.882050037E0,1.671000123E0,-7.890000343E-1,2.637588825E0
2.009447515E0,1.882050037E0,1.708950043E0,-9.810000658E-1,2.724882332E0
2.011410190E0,1.804950118E0,1.708950043E0,-1.096050024E0,2.716556797E0
2.013372836E0,1.804950118E0,1.708950043E0,-1.326000094E0,2.817202767E0
2.015335447E0,1.804950118E0,1.708950043E0,-1.479000092E0,2.892368657E0
2.017298069E0,1.882050037E0,1.708950043E0,-1.671000123E0,3.042180797E0
2.019260638E0,1.920000076E0,1.747950077E0,-1.861950040E0,3.195088061E0
2.021223223E0,1.920000076E0,1.786050081E0,-1.939050078E0,3.261332610E0
2.023185722E0,1.882050037E0,1.708950043E0,-2.206950188E0,3.366489525E0
2.025148237E0,1.959000111E0,1.824000120E0,-2.475000143E0,3.645584121E0
2.027110824E0,1.920000076E0,1.824000120E0,-2.629050016E0,3.731659245E0
2.029073389E0,2.035050154E0,1.824000120E0,-2.782050133E0,3.899770315E0
2.031035699E0,2.111999989E0,1.863000035E0,-3.049950123E0,4.151326154E0
2.032998083E0,2.188950062E0,1.863000035E0,-3.165000200E0,4.275452932E0
2.034960678E0,2.227050066E0,1.900950074E0,-3.241950035E0,4.368478363E0
2.036923221E0,2.380050182E0,1.863000035E0,-3.319050074E0,4.489042369E0
2.038885894E0,2.533950090E0,1.863000035E0,-3.241950035E0,4.516847598E0
2.040848529E0,2.610000134E0,1.824000120E0,-3.241950035E0,4.544151974E0
2.042811142E0,2.764050245E0,1.747950077E0,-3.165000200E0,4.551102009E0
2.044773761E0,2.878050089E0,1.671000123E0,-2.974050045E0,4.463226120E0
2.046736317E0,2.955000162E0,1.594050050E0,-2.704950094E0,4.311586313E0
2.048698901E0,3.031950235E0,1.518000126E0,-2.475000143E0,4.197936674E0
2.050661521E0,3.108000040E0,1.363950014E0,-2.206950188E0,4.048537146E0
2.052624130E0,3.184950113E0,1.326000094E0,-1.824000120E0,3.902455626E0
2.054586567E0,3.223050117E0,1.210950017E0,-1.479000092E0,3.747251429E0
2.056549055E0,3.262050152E0,1.096050024E0,-1.057050109E0,3.599951636E0
2.058511917E0,3.262050152E0,1.018950105E0,-6.360000372E-1,3.476165496E0
2.060474669E0,3.337950230E0,8.280000687E-1,-2.520000041E-1,3.448332909E0
2.062436721E0,3.223050117E0,7.510500550E-1,1.680000126E-1,3.313661457E0
2.064398978E0,3.223050117E0,4.830000103E-1,5.509500504E-1,3.305281687E0
2.066361970E0,3.184950113E0,4.060500264E-1,9.349500537E-1,3.344086639E0
2.068324746E0,3.108000040E0,2.910000086E-1,1.318050027E0,3.388451140E0
2.070288249E0,3.031950235E0,9.900000691E-2,1.510050058E0,3.388624265E0
2.072251529E0,2.839950085E0,-9.105000645E-2,1.701000094E0,3.311647310E0
2.074213896E0,2.649000168E0,-1.290000081E-1,1.930950046E0,3.280611371E0
2.076176531E0,2.572050095E0,-1.290000081E-1,2.085000038E0,3.313503863E0
2.078139098E0,2.419050217E0,-2.059500068E-1,2.200050116E0,3.276345505E0
2.080101685E0,2.304000139E0,-2.830500007E-1,2.275950193E0,3.250920366E0
2.082064344E0,2.265000105E0,-3.210000098E-1,2.353049994E0,3.281784690E0
2.084026985E0,2.227050066E0,-3.979500234E-1,2.430000067E0,3.320092851E0
2.085989732E0,2.149950027E0,-5.130000114E-1,2.467950106E0,3.313039670E0
2.087952447E0,2.111999989E0,-5.509500504E-1,2.430000067E0,3.266342027E0
2.089915225E0,1.996950150E0,-5.890500546E-1,2.430000067E0,3.199951592E0
2.091877985E0,1.959000111E0,-5.890500546E-1,2.391000032E0,3.146671663E0
2.093840605E0,1.804950118E0,-6.280500293E-1,2.353049994E0,3.031358778E0
2.095803246E0,1.690050125E0,-7.039500475E-1,2.238000154E0,2.891445968E0
2.097765857E0,1.651950121E0,-6.660000086E-1,2.238000154E0,2.860269201E0
2.099728477E0,1.614000082E0,-7.810500264E-1,2.122950077E0,2.778840125E0
2.101691092E0,1.537050128E0,-7.039500475E-1,2.008050203E0,2.624944644E0
2.103653708E0,1.384050012E0,-6.660000086E-1,1.893000126E0,2.437744844E0
2.105616309E0,1.345050097E0,-7.039500475E-1,1.740000129E0,2.309178616E0
2.107578924E0,1.306950092E0,-6.280500293E-1,1.701000094E0,2.235165923E0
2.109541404E0,1.306950092E0,-6.660000086E-1,1.585950017E0,2.160303685E0
2.111503924E0,1.230000019E0,-6.280500293E-1,1.510050058E0,2.046362154E0
2.113466690E0,1.114950061E0,-5.130000114E-1,1.471050024E0,1.915795089E0
2.115429384E0,1.039050102E0,-4.740000367E-1,1.471050024E0,1.862334375E0
2.117392163E0,1.039050102E0,-4.740000367E-1,1.471050024E0,1.862334375E0
2.119354919E0,9.619500637E-1,-4.740000367E-1,1.471050024E0,1.820442840E0
2.121317690E0,9.240000248E-1,-4.740000367E-1,1.471050024E0,1.800677721E0
2.123280457E0,8.470500112E-1,-3.979500234E-1,1.395000100E0,1.679846190E0
2.125243093E0,8.089500666E-1,-3.210000098E-1,1.318050027E0,1.579461012E0
2.127205767E0,7.320000529E-1,-2.830500007E-1,1.203000069E0,1.436367135E0
2.129167786E0,6.940500140E-1,-1.680000126E-1,1.165050030E0,1.366481247E0
2.131129997E0,5.410500169E-1,-1.680000126E-1,1.050000072E0,1.193088126E0
2.133092906E0,5.410500169E-1,-1.680000126E-1,9.730500579E-1,1.125959831E0
2.135055611E0,4.639500082E-1,-1.290000081E-1,8.580000401E-1,9.838976984E-1
2.137018391E0,4.639500082E-1,-9.105000645E-2,6.280500293E-1,7.861212076E-1
2.138981149E0,4.639500082E-1,-1.500000060E-2,5.509500504E-1,7.204308212E-1
2.140944226E0,3.870000243E-1,6.105000153E-2,3.600000143E-1,5.320677887E-1
2.142907216E0,4.260000288E-1,9.900000691E-2,2.070000172E-1,4.838657180E-1
2.144869949E0,4.639500082E-1,1.380000114E-1,5.295000225E-2,4.869263969E-1
2.146832757E0,5.410500169E-1,2.530499995E-1,-2.205000073E-2,5.977086460E-1
2.148796104E0,5.410500169E-1,2.530499995E-1,-1.759500057E-1,6.226779485E-1
2.150759293E0,6.550500393E-1,4.060500264E-1,-3.289500177E-1,8.379590038E-1
2.152722131E0,7.699500322E-1,4.060500264E-1,-5.209500194E-1,1.014440042E0
2.154685069E0,8.850000501E-1,4.060500264E-1,-6.739500165E-1,1.184191850E0
2.156647990E0,9.619500637E-1,4.830000103E-1,-8.269500136E-1,1.357381030E0
2.158610916E0,1.077000022E0,5.590500236E-1,-1.018950105E0,1.584526835E0
2.160573658E0,1.039050102E0,5.209500194E-1,-1.171950102E0,1.650600218E0
2.162536454E0,1.039050102E0,5.980500579E-1,-1.287000060E0,1.758879797E0
2.164498898E0,1.000050068E0,5.980500579E-1,-1.402050018E0,1.823049167E0
2.166461449E0,1.000050068E0,5.980500579E-1,-1.402050018E0,1.823049167E0
2.168423895E0,9.619500637E-1,5.980500579E-1,-1.363950014E0,1.772955566E0
2.170386372E0,9.619500637E-1,5.590500236E-1,-1.326000094E0,1.730942259E0
2.172349145E0,9.619500637E-1,5.209500194E-1,-1.249050021E0,1.660380319E0
2.174311832E0,1.039050102E0,4.830000103E-1,-1.171950102E0,1.639018354E0
2.176274080E0,1.230000019E0,4.440000355E-1,-9.040500522E-1,1.589761798E0
2.178236454E0,1.269000053E0,3.679500222E-1,-6.739500165E-1,1.483225195E0
2.180198795E0,1.306950092E0,2.530499995E-1,-4.440000355E-1,1.403313535E0
2.182161146E0,1.269000053E0,2.910000086E-1,-2.140500098E-1,1.319416366E0
2.184123761E0,1.269000053E0,3.289500177E-1,5.295000225E-2,1.312011034E0
2.186086298E0,1.230000019E0,2.910000086E-1,2.830500007E-1,1.295259956E0
2.188048012E0,1.230000019E0,2.140500098E-1,6.280500293E-1,1.397556544E0
2.190009978E0,1.192050099E0,9.900000691E-2,9.349500537E-1,1.518194995E0
2.191973289E0,1.153950095E0,2.295000106E-2,1.165050030E0,1.639960090E0
2.193936206E0,1.230000019E0,-1.680000126E-1,1.318050027E0,1.810629704E0
2.195898411E0,1.306950092E0,-1.680000126E-1,1.356000066E0,1.890787859E0
2.197860824E0,1.306950092E0,-2.830500007E-1,1.318050027E0,1.877629282E0
2.199823113E0,1.306950092E0,-3.979500234E-1,1.318050027E0,1.898351558E0
2.201785439E0,1.384050012E0,-4.740000367E-1,1.240950108E0,1.918391941E0
2.203747744E0,1.345050097E0,-5.890500546E-1,1.050000072E0,1.805170319E0
2.205710055E0,1.306950092E0,-5.890500546E-1,1.087950110E0,1.799648286E0
2.207672676E0,1.269000053E0,-5.890500546E-1,1.011000037E0,1.726111867E0
2.209635206E0,1.114950061E0,-6.280500293E-1,7.810500264E-1,1.499199660E0
2.211598543E0,1.077000022E0,-6.660000086E-1,5.130000114E-1,1.366255492E0
2.213561654E0,1.039050102E0,-6.280500293E-1,1.680000126E-1,1.225681834E0
2.215524186E0,1.000050068E0,-7.039500475E-1,-1.759500057E-1,1.235558259E0
2.217486887E0,1.039050102E0,-7.429500222E-1,-4.819500148E-1,1.365238319E0
2.219449667E0,1.039050102E0,-8.580000401E-1,-9.040500522E-1,1.622681633E0
2.221412423E0,1.114950061E0,-1.048950076E0,-1.249050021E0,1.975736788E0
2.223375019E0,1.230000019E0,-1.318050027E0,-1.671000123E0,2.458128827E0
2.225337660E0,1.345050097E0,-1.624050021E0,-2.014950037E0,2.916628513E0
2.227299910E0,1.422000051E0,-1.930950046E0,-2.475000143E0,3.446197605E0
2.229262275E0,1.575000048E0,-2.199000120E0,-3.049950123E0,4.076569934E0
2.231225113E0,1.767000079E0,-2.544000149E0,-3.664050102E0,4.797862981E0
2.233187812E0,1.959000111E0,-2.812050104E0,-4.237950325E0,5.450277991E0
2.235150128E0,2.035050154E0,-3.196050167E0,-4.582950115E0,5.946393660E0
2.237112535E0,2.035050154E0,-3.541050196E0,-4.890000343E0,6.371229785E0
2.239075321E0,2.074050188E0,-3.961950302E0,-5.158050060E0,6.826727972E0
2.241037995E0,2.149950027E0,-4.345950127E0,-5.503050327E0,7.334380037E0
2.243000421E0,2.074050188E0,-4.804950237E0,-5.887050152E0,7.876965815E0
2.244962920E0,1.882050037E0,-5.304000378E0,-5.962950230E0,8.199469970E0
2.246925605E0,1.729050040E0,-5.725050449E0,-5.542050362E0,8.153535362E0
2.248888231E0,1.614000082E0,-6.184950352E0,-4.698000431E0,7.932831472E0
2.250850305E0,1.459950089E0,-6.798000336E0,-3.510000229E0,7.788733173E0
2.252812540E0,1.153950095E0,-7.488000393E0,-2.092050076E0,7.859925205E0
2.254773734E0,5.410500169E-1,-8.562000275E0,-1.057050109E0,8.643953884E0
2.256735233E0,-3.400500119E-1,-9.940950394E0,5.295000225E-2,9.946905672E0
2.258696777E0,-1.222050071E0,-1.128300095E1,8.580000401E-1,1.138137429E1
2.260658307E0,-2.140950203E0,-1.262400055E1,1.930950046E0,1.294903957E1
2.262620749E0,-2.869950056E0,-1.423395061E1,2.965950251E0,1.482021674E1
2.264582923E0,-3.828000069E0,-1.638000107E1,3.771000147E0,1.723886486E1
2.266545794E0,-4.939050198E0,-1.910205078E1,4.384050369E0,2.021144375E1
2.268508461E0,-6.127950191E0,-2.216805077E1,4.576050282E0,2.345025553E1
2.270470694E0,-7.239000320E0,-2.550195122E1,4.843950272E0,2.694840433E1
2.272433065E0,-8.350950241E0,-2.895195198E1,5.457000256E0,3.062242226E1
2.274395407E0,-8.925000191E0,-3.236295319E1,6.147000313E0,3.412919542E1
2.276357757E0,-9.385050774E0,-3.546795273E1,6.991050243E0,3.734875677E1
2.278320237E0,-9.654000282E0,-3.849495316E1,7.756950378E0,4.043799475E1
2.280282678E0,-9.654000282E0,-4.137000275E1,8.370000839E0,4.329819584E1
2.282245133E0,-9.807000160E0,-4.428300095E1,8.754000664E0,4.619300762E1
2.284207591E0,-9.807000160E0,-4.704195404E1,8.754000664E0,4.884419331E1
2.286170234E0,-9.654000282E0,-4.968705368E1,8.446949959E0,5.131621565E1
2.288132822E0,-8.964000702E0,-5.217795181E1,8.254950523E0,5.358205084E1
2.290095263E0,-7.392000198E0,-5.432505417E1,7.642050266E0,5.535570530E1
2.292057747E0,-4.402950287E0,-5.627895355E1,6.454050541E0,5.681867081E1
2.294020939E0,-6.850500107E-1,-5.758305359E1,4.729050159E0,5.778097671E1
2.295983913E0,3.607050180E0,-5.857905197E1,2.161050081E0,5.872977336E1
2.297946963E0,8.320950508E0,-5.961405182E1,-1.824000120E0,6.021960119E1
2.299909990E0,1.303500080E1,-6.061005402E1,-6.768000126E0,6.236421826E1
2.301872220E0,1.652295113E1,-6.091695404E1,-1.010295010E1,6.392145809E1
2.303834684E0,1.932105064E1,-6.068700409E1,-1.163595009E1,6.474265053E1
2.305796920E0,2.181195068E1,-5.984400177E1,-1.240200043E1,6.489125792E1
2.307759223E0,2.277105141E1,-5.723805237E1,-1.221105099E1,6.279988206E1
2.309721575E0,2.204205132E1,-5.302200317E1,-1.152105045E1,5.856551417E1
2.311683913E0,1.955100060E1,-4.761705399E1,-1.017900085E1,5.247130180E1
2.313646531E0,1.545000076E1,-4.225200272E1,-8.377950668E0,4.576160306E1
2.315609067E0,1.096605015E1,-3.749895096E1,-6.538050175E0,3.961277166E1
2.317571493E0,6.558000088E0,-3.362805176E1,-4.660050392E0,3.457700536E1
2.319533968E0,2.649000168E0,-3.048495102E1,-2.475000143E0,3.069975678E1
2.321495571E0,-3.400500119E-1,-2.822400093E1,-8.659500480E-1,2.823932953E1
2.323457429E0,-2.601000071E0,-2.665200043E1,-2.520000041E-1,2.677980269E1
2.325419994E0,-4.096050262E0,-2.554095078E1,-9.900000691E-2,2.586750075E1
2.327382351E0,-5.053950310E0,-2.477400208E1,-2.140500098E-1,2.528516185E1
2.329345186E0,-5.514000416E0,-2.431395149E1,-3.670500219E-1,2.493405630E1
2.331307884E0,-5.668050289E0,-2.412300110E1,-6.360000372E-1,2.478811151E1
2.333270621E0,-5.668050289E0,-2.400795174E1,-6.739500165E-1,2.467717061E1
2.335233346E0,-5.323050022E0,-2.408400154E1,-7.120500207E-1,2.467551432E1
2.337195988E0,-4.824000359E0,-2.416095161E1,-7.510500550E-1,2.464927258E1
2.339158655E0,-4.479000092E0,-2.416095161E1,-6.360000372E-1,2.458083645E1
2.341120871E0,-4.173000336E0,-2.404605103E1,-6.739500165E-1,2.441476419E1
2.343083209E0,-4.018949986E0,-2.385405159E1,-6.360000372E-1,2.419859980E1
2.345045555E0,-3.865950108E0,-2.370105171E1,-4.440000355E-1,2.401837960E1
2.347007899E0,-3.712950230E0,-2.362395096E1,-1.759500057E-1,2.391459840E1
2.348969255E0,-3.520950079E0,-2.350905037E1,5.295000225E-2,2.377131344E1
2.350930901E0,-3.445050240E0,-2.347095108E1,4.750500321E-1,2.372719091E1
2.352893356E0,-3.330000162E0,-2.335605049E1,7.810500264E-1,2.360516966E1
2.354855581E0,-3.175950050E0,-2.324100113E1,1.126049995E0,2.348401117E1
2.356818218E0,-2.985000134E0,-2.320305061E1,1.432950020E0,2.343811275E1
2.358780735E0,-2.677950144E0,-2.320305061E1,1.510050058E0,2.340583743E1
2.360743233E0,-2.256000042E0,-2.316405106E1,1.663050056E0,2.333299237E1
2.362705737E0,-2.140950203E0,-2.297295189E1,1.855050087E0,2.314695222E1
2.364668320E0,-2.256000042E0,-2.274300194E1,1.930950046E0,2.293604677E1
2.366630884E0,-2.332950115E0,-2.262795067E1,1.777950048E0,2.281727227E1
2.368593329E0,-2.256000042E0,-2.258895111E1,1.585950017E0,2.275665806E1
2.370555809E0,-2.179949999E0,-2.247405052E1,1.432950020E0,2.262495248E1
2.372518492E0,-2.103000164E0,-2.232105064E1,1.203000069E0,2.245215181E1
2.374481115E0,-2.140950203E0,-2.205300140E1,7.050000429E-1,2.216789489E1
2.376444585E0,-2.026050091E0,-2.186100197E1,2.830500007E-1,2.195651164E1
2.378407807E0,-2.065050125E0,-2.151600075E1,-1.759500057E-1,2.161558879E1
2.380370320E0,-2.026050091E0,-2.117100143E1,-6.360000372E-1,2.127723377E1
2.382333040E0,-2.026050091E0,-2.074995041E1,-9.810000658E-1,2.087169572E1
2.384295683E0,-1.911000133E0,-2.032800102E1,-1.171950102E0,2.045123503E1
2.386258348E0,-1.720050097E0,-1.986795044E1,-1.249050021E0,1.998134512E1
2.388220891E0,-1.642950058E0,-1.933200073E1,-1.171950102E0,1.943705236E1
2.390183483E0,-1.413000107E0,-1.883295059E1,-9.810000658E-1,1.891134470E1
2.392146101E0,-1.222050071E0,-1.845000076E1,-9.040500522E-1,1.851251579E1
2.394108711E0,-8.770500422E-1,-1.802805138E1,-8.269500136E-1,1.806830649E1
2.396071148E0,-6.850500107E-1,-1.772205162E1,-7.120500207E-1,1.774957527E1
2.398033636E0,-1.480500102E-1,-1.726200104E1,-4.819500148E-1,1.726936231E1
2.399995972E0,1.570500135E-1,-1.680195045E1,-1.759500057E-1,1.680360563E1
2.401958343E0,4.260000288E-1,-1.638000107E1,1.500000060E-2,1.638554656E1
2.403921495E0,6.940500140E-1,-1.588200092E1,1.300500035E-1,1.589769077E1
2.405884418E0,9.240000248E-1,-1.534605026E1,2.449500114E-1,1.537579381E1
2.407846080E0,1.153950095E0,-1.484700108E1,3.220500052E-1,1.489525958E1
2.409808112E0,1.230000019E0,-1.434900093E1,3.600000143E-1,1.440612119E1
2.411770887E0,1.345050097E0,-1.369695091E1,3.600000143E-1,1.376754241E1
2.413733433E0,1.614000082E0,-1.319895077E1,3.220500052E-1,1.330116588E1
2.415696240E0,1.804950118E0,-1.254795074E1,2.070000172E-1,1.267879181E1
2.417658971E0,1.959000111E0,-1.201095104E1,9.195000678E-2,1.217000744E1
2.419621387E0,2.111999989E0,-1.147395039E1,-1.369500011E-1,1.166751202E1
2.421583896E0,2.265000105E0,-1.105305099E1,-3.289500177E-1,1.128753161E1
2.423546469E0,2.494950056E0,-1.063095093E1,-3.670500219E-1,1.092596079E1
2.425509033E0,2.686950207E0,-1.024800014E1,-5.209500194E-1,1.060719554E1
2.427471657E0,2.725050211E0,-9.673050880E0,-6.360000372E-1,1.006967269E1
2.429434264E0,2.802000046E0,-9.136050224E0,-7.120500207E-1,9.582569237E0
2.431396747E0,2.764050245E0,-8.599950790E0,-8.269500136E-1,9.070996289E0
2.433359266E0,2.878050089E0,-8.062950134E0,-9.040500522E-1,8.608811978E0
2.435321672E0,2.878050089E0,-7.564950466E0,-9.040500522E-1,8.144258982E0
2.437284112E0,2.802000046E0,-6.990000248E0,-9.810000658E-1,7.594318195E0
2.439246397E0,2.610000134E0,-6.415050507E0,-1.018950105E0,7.000230926E0
2.441208727E0,2.457000017E0,-5.994000435E0,-1.018950105E0,6.557678676E0
2.443171390E0,2.149950027E0,-5.572050095E0,-9.810000658E-1,6.052469620E0
2.445133956E0,2.035050154E0,-5.188950062E0,-9.420000315E-1,5.652786563E0
2.447096387E0,1.920000076E0,-4.804950237E0,-7.890000343E-1,5.234163556E0
2.449058867E0,1.882050037E0,-4.461000443E0,-5.970000029E-1,4.878426621E0
2.451021325E0,1.804950118E0,-4.039050102E0,-3.289500177E-1,4.436212210E0
2.452983790E0,1.767000079E0,-3.771000147E0,-1.369500011E-1,4.166711736E0
2.454946071E0,1.690050125E0,-3.387000084E0,1.500000060E-2,3.785269342E0
2.456908406E0,1.767000079E0,-3.081000090E0,1.300500035E-1,3.554119277E0
2.458869882E0,1.690050125E0,-2.736000061E0,4.750500321E-1,3.250790410E0
2.460831589E0,1.614000082E0,-2.428950071E0,6.280500293E-1,2.983159659E0
2.462793998E0,1.729050040E0,-2.122950077E0,1.011000037E0,2.918673011E0
2.464756202E0,1.843950033E0,-1.854000092E0,1.240950108E0,2.894378212E0
2.466718482E0,2.035050154E0,-1.585950017E0,1.471050024E0,2.969958713E0
2.468680740E0,2.035050154E0,-1.318050027E0,1.663050056E0,2.940139536E0
2.470643097E0,2.227050066E0,-1.011000037E0,1.930950046E0,3.116158075E0
2.472605428E0,2.304000139E0,-7.429500222E-1,2.085000038E0,3.194936077E0
2.474567733E0,2.265000105E0,-3.979500234E-1,2.275950193E0,3.235512166E0
2.476530045E0,2.341950178E0,-2.059500068E-1,2.314950228E0,3.299415190E0
2.478491766E0,2.380050182E0,-9.105000645E-2,2.467950106E0,3.429826045E0
2.480453661E0,2.380050182E0,6.105000153E-2,2.467950106E0,3.429160786E0
2.482416025E0,2.341950178E0,3.679500222E-1,2.391000032E0,3.367046036E0
2.484378293E0,2.304000139E0,6.360000372E-1,2.275950193E0,3.300433604E0
2.486340429E0,2.304000139E0,7.890000343E-1,2.122950077E0,3.230766894E0
2.488302603E0,2.341950178E0,9.810000658E-1,1.969950080E0,3.213688704E0
2.490264708E0,2.304000139E0,1.134000063E0,1.663050056E0,3.059429403E0
2.492226833E0,2.341950178E0,1.249050021E0,1.471050024E0,3.034607844E0
2.494189190E0,2.304000139E0,1.363950014E0,1.240950108E0,2.951056328E0
2.496151466E0,2.265000105E0,1.518000126E0,9.349500537E-1,2.882478354E0
2.498113959E0,2.149950027E0,1.633050084E0,7.050000429E-1,2.790369645E0
2.500076389E0,2.111999989E0,1.633050084E0,4.360500276E-1,2.705094482E0
2.502039577E0,2.035050154E0,1.786050081E0,9.195000678E-2,2.709217382E0
2.504002543E0,1.996950150E0,1.863000035E0,-2.910000086E-1,2.746499597E0
2.505964969E0,1.882050037E0,1.939050078E0,-5.970000029E-1,2.767388038E0
2.507927550E0,1.843950033E0,2.016000032E0,-1.018950105E0,2.915933328E0
2.509889991E0,1.767000079E0,2.092950106E0,-1.441050053E0,3.095053259E0
2.511852473E0,1.729050040E0,2.131050110E0,-1.861950040E0,3.316300132E0
2.513814750E0,1.767000079E0,2.169000149E0,-2.284050226E0,3.611611325E0
2.515777088E0,1.767000079E0,2.245950222E0,-2.629050016E0,3.883102583E0
2.517739589E0,1.804950118E0,2.322000027E0,-2.896950245E0,4.128177537E0
2.519702028E0,1.804950118E0,2.361000061E0,-3.165000200E0,4.341588705E0
2.521664493E0,1.959000111E0,2.476050138E0,-3.472050190E0,4.692934929E0
2.523626951E0,2.074050188E0,2.551950216E0,-3.664050102E0,4.923352236E0
2.525589370E0,2.188950062E0,2.629050016E0,-3.817050219E0,5.125746651E0
2.527551800E0,2.380050182E0,2.590950012E0,-4.009050369E0,5.333867799E0
2.529514091E0,2.533950090E0,2.590950012E0,-4.123950005E0,5.490071827E0
2.531476420E0,2.686950207E0,2.590950012E0,-4.084949970E0,5.533492535E0
2.533438544E0,2.955000162E0,2.590950012E0,-4.009050369E0,5.614047808E0
2.535400728E0,3.184950113E0,2.590950012E0,-3.855000257E0,5.631869687E0
2.537363056E0,3.376950264E0,2.629050016E0,-3.702000141E0,5.658666108E0
2.539325341E0,3.453000069E0,2.551950216E0,-3.433950186E0,5.497969922E0
2.541287869E0,3.645000219E0,2.551950216E0,-3.165000200E0,5.460375699E0
2.543250332E0,3.798000097E0,2.476050138E0,-2.896950245E0,5.380329892E0
2.545212434E0,3.874950171E0,2.361000061E0,-2.514000177E0,5.187461518E0
2.547174642E0,3.990000248E0,2.284050226E0,-2.206950188E0,5.099766323E0
2.549136920E0,4.143000126E0,2.208000183E0,-1.900950074E0,5.064911257E0
2.551099178E0,4.258049965E0,2.092950106E0,-1.441050053E0,4.958634379E0
2.553061384E0,4.372950077E0,1.978050113E0,-1.057050109E0,4.914542660E0
2.555023589E0,4.335000038E0,1.824000120E0,-7.120500207E-1,4.756702324E0
2.556986093E0,4.411950111E0,1.633050084E0,-2.520000041E-1,4.711227055E0
2.558948510E0,4.411950111E0,1.518000126E0,1.300500035E-1,4.667605507E0
2.560909718E0,4.335000038E0,1.326000094E0,5.509500504E-1,4.566623210E0
2.562871281E0,4.335000038E0,1.173000097E0,9.730500579E-1,4.595104022E0
2.564833891E0,4.258049965E0,9.810000658E-1,1.240950108E0,4.542390098E0
2.566796197E0,4.143000126E0,7.890000343E-1,1.471050024E0,4.466649670E0
2.568758640E0,4.027950287E0,5.980500579E-1,1.624950051E0,4.384348304E0
2.570721043E0,3.760050297E0,4.060500264E-1,1.855050087E0,4.212370554E0
2.572683515E0,3.492000103E0,2.140500098E-1,1.930950046E0,3.996054330E0
2.574645967E0,3.337950230E0,6.105000153E-2,2.085000038E0,3.936097559E0
2.576609215E0,3.108000040E0,2.295000106E-2,2.161050081E0,3.785542023E0
2.578572216E0,2.802000046E0,-9.105000645E-2,2.085000038E0,3.493811603E0
2.580534406E0,2.610000134E0,-1.290000081E-1,2.085000038E0,3.343047541E0
2.582496834E0,2.457000017E0,-1.290000081E-1,2.085000038E0,3.225013992E0
2.584459256E0,2.304000139E0,-1.680000126E-1,2.046000004E0,3.085896411E0
2.586421680E0,2.111999989E0,-1.680000126E-1,1.930950046E0,2.866589617E0
2.588383933E0,1.996950150E0,-2.059500068E-1,1.969950080E0,2.812637307E0
2.590346261E0,1.843950033E0,-2.830500007E-1,1.855050087E0,2.630870550E0
2.592308744E0,1.729050040E0,-3.210000098E-1,1.701000094E0,2.446641856E0
2.594271182E0,1.614000082E0,-4.360500276E-1,1.663050056E0,2.358149991E0
2.596233153E0,1.575000048E0,-5.509500504E-1,1.624950051E0,2.329084322E0
2.598195261E0,1.498950124E0,-6.280500293E-1,1.585950017E0,2.270800689E0
2.600157782E0,1.384050012E0,-6.660000086E-1,1.548000097E0,2.180700518E0
2.602120182E0,1.345050097E0,-6.280500293E-1,1.510050058E0,2.117512168E0
2.604082654E0,1.306950092E0,-6.660000086E-1,1.510050058E0,2.105213940E0
2.606045105E0,1.269000053E0,-7.039500475E-1,1.471050024E0,2.066372420E0
2.608007525E0,1.230000019E0,-6.280500293E-1,1.471050024E0,2.017754955E0
2.609969954E0,1.153950095E0,-6.660000086E-1,1.471050024E0,1.984727943E0
2.611932586E0,1.077000022E0,-5.890500546E-1,1.432950020E0,1.886863740E0
2.613895168E0,1.000050068E0,-5.890500546E-1,1.432950020E0,1.844024367E0
2.615857655E0,9.240000248E-1,-5.890500546E-1,1.356000066E0,1.743413947E0
2.617820170E0,8.089500666E-1,-5.509500504E-1,1.318050027E0,1.641707051E0
2.619782397E0,7.699500322E-1,-5.890500546E-1,1.279950023E0,1.605638527E0
2.621744709E0,6.169500351E-1,-5.509500504E-1,1.279950023E0,1.523957140E0
2.623706129E0,6.169500351E-1,-4.360500276E-1,1.240950108E0,1.452833143E0
2.625667800E0,4.260000288E-1,-3.979500234E-1,1.240950108E0,1.371057043E0
2.627630441E0,3.490500152E-1,-3.589500189E-1,1.203000069E0,1.303031156E0
2.629592798E0,1.960500032E-1,-2.830500007E-1,1.126049995E0,1.177514968E0
2.631555413E0,2.719500065E-1,-2.440500110E-1,1.126049995E0,1.183852105E0
2.633517952E0,1.570500135E-1,-2.059500068E-1,1.050000072E0,1.081471341E0
2.635480281E0,1.189500093E-1,-2.059500068E-1,1.050000072E0,1.076598653E0
2.637442661E0,8.100000024E-2,-1.680000126E-1,9.730500579E-1,9.907630491E-1
2.639404956E0,8.100000024E-2,-1.680000126E-1,8.959500194E-1,9.151565120E-1
2.641367276E0,4.050000105E-3,-1.290000081E-1,8.959500194E-1,9.051982334E-1
2.643329582E0,-3.299999982E-2,-1.290000081E-1,8.580000401E-1,8.682707359E-1
2.645291892E0,-3.299999982E-2,-1.290000081E-1,7.429500222E-1,7.547878759E-1
2.647254189E0,-7.200000435E-2,-9.105000645E-2,7.810500264E-1,7.896285507E-1
2.649216497E0,-7.200000435E-2,-9.105000645E-2,6.660000086E-1,6.760400252E-1
2.651178219E0,-7.200000435E-2,-5.295000225E-2,5.130000114E-1,5.207271023E-1
2.653140113E0,-7.200000435E-2,2.295000106E-2,3.600000143E-1,3.678460459E-1
2.655103617E0,-3.299999982E-2,9.900000691E-2,2.449500114E-1,2.662527172E-1
2.657066649E0,-3.299999982E-2,9.900000691E-2,1.300500035E-1,1.667423305E-1
2.659028843E0,4.200000316E-2,1.380000114E-1,5.295000225E-2,1.536610105E-1
2.660991276E0,1.570500135E-1,2.140500098E-1,-6.105000153E-2,2.724136857E-1
2.662953517E0,2.719500065E-1,2.530499995E-1,-2.140500098E-1,4.287289528E-1
2.664915815E0,3.490500152E-1,2.530499995E-1,-4.440000355E-1,6.188749849E-1
2.666878168E0,5.020500422E-1,2.910000086E-1,-6.739500165E-1,8.893502542E-1
2.668840505E0,4.639500082E-1,3.289500177E-1,-8.659500480E-1,1.036015063E0
2.670804097E0,5.790000558E-1,2.910000086E-1,-1.018950105E0,1.207551815E0
2.672767270E0,7.320000529E-1,3.289500177E-1,-1.210950017E0,1.452732644E0
2.674729295E0,8.470500112E-1,3.289500177E-1,-1.363950014E0,1.638920827E0
2.676691656E0,8.850000501E-1,4.440000355E-1,-1.441050053E0,1.748423969E0
2.678653910E0,1.039050102E0,4.060500264E-1,-1.441050053E0,1.822395949E0
2.680616195E0,1.192050099E0,4.440000355E-1,-1.287000060E0,1.809554814E0
2.682578505E0,1.269000053E0,4.440000355E-1,-1.018950105E0,1.686937012E0
2.684540808E0,1.306950092E0,4.830000103E-1,-6.360000372E-1,1.531634291E0
2.686502983E0,1.306950092E0,4.830000103E-1,-1.759500057E-1,1.404409470E0
2.688465195E0,1.306950092E0,4.830000103E-1,2.449500114E-1,1.414711300E0
2.690426798E0,1.306950092E0,4.830000103E-1,7.050000429E-1,1.561548147E0
2.692388579E0,1.269000053E0,4.830000103E-1,1.126049995E0,1.763983769E0
2.694350995E0,1.192050099E0,4.060500264E-1,1.395000100E0,1.879331089E0
2.696313212E0,1.153950095E0,3.679500222E-1,1.510050058E0,1.935778711E0
2.698275356E0,1.114950061E0,3.289500177E-1,1.548000097E0,1.935878626E0
2.700237521E0,1.039050102E0,2.530499995E-1,1.663050056E0,1.977218982E0
2.702199852E0,1.000050068E0,2.140500098E-1,1.701000094E0,1.984771742E0
2.704162135E0,1.077000022E0,9.900000691E-2,1.663050056E0,1.983800780E0
2.706125173E0,1.039050102E0,6.105000153E-2,1.663050056E0,1.961909199E0
2.708087986E0,1.114950061E0,-5.295000225E-2,1.548000097E0,1.908460542E0
2.710050343E0,1.153950095E0,-1.500000060E-2,1.510050058E0,1.900546501E0
2.712012834E0,1.192050099E0,-9.105000645E-2,1.471050024E0,1.895590071E0
2.713975110E0,1.114950061E0,-5.295000225E-2,1.318050027E0,1.727186502E0
2.715937449E0,1.000050068E0,-5.295000225E-2,1.050000072E0,1.451001031E0
2.717899940E0,1.000050068E0,-9.105000645E-2,7.429500222E-1,1.249145699E0
2.719862380E0,9.240000248E-1,-9.105000645E-2,3.979500234E-1,1.010163537E0
2.721825431E0,7.699500322E-1,-1.290000081E-1,-2.205000073E-2,7.809931221E-1
2.723788303E0,8.089500666E-1,-1.680000126E-1,-5.970000029E-1,1.019329789E0
2.725750830E0,8.089500666E-1,-3.210000098E-1,-1.326000094E0,1.586101342E0
2.727713459E0,8.850000501E-1,-5.890500546E-1,-1.977000117E0,2.244712569E0
2.729676096E0,9.619500637E-1,-9.730500579E-1,-2.590050220E0,2.929254937E0
2.731638713E0,1.077000022E0,-1.318050027E0,-3.241950035E0,3.661615074E0
2.733601193E0,1.114950061E0,-1.624050021E0,-3.625050068E0,4.125729039E0
2.735563713E0,1.192050099E0,-1.930950046E0,-4.009050369E0,4.606738150E0
2.737525985E0,1.192050099E0,-2.238000154E0,-4.276950359E0,4.972115496E0
2.739488329E0,1.269000053E0,-2.506050110E0,-4.660050392E0,5.441205560E0
2.741450940E0,1.269000053E0,-2.812050104E0,-5.005050182E0,5.879499490E0
2.743413476E0,1.269000053E0,-3.234000206E0,-5.656950474E0,6.638539533E0
2.745375790E0,1.269000053E0,-3.655950069E0,-6.576000214E0,7.630210407E0
2.747338170E0,1.230000019E0,-4.153950214E0,-7.381050587E0,8.558510980E0
2.749300644E0,1.153950095E0,-4.537050247E0,-7.495950222E0,8.837742670E0
2.751263091E0,1.039050102E0,-4.729050159E0,-6.960000515E0,8.478510936E0
2.753225201E0,1.039050102E0,-4.767000198E0,-5.427000046E0,7.297687682E0
2.755187406E0,1.000050068E0,-4.690050125E0,-3.702000141E0,6.058174260E0
2.757149865E0,9.619500637E-1,-4.575000286E0,-2.014950037E0,5.090775893E0
2.759112250E0,1.000050068E0,-4.690050125E0,-6.360000372E-1,4.837475205E0
2.761073104E0,8.850000501E-1,-4.996950150E0,5.509500504E-1,5.104535419E0
2.763034406E0,5.020500422E-1,-5.802000046E0,1.585950017E0,6.035768073E0
2.764996570E0,-1.480500102E-1,-7.027950287E0,2.238000154E0,7.377170781E0
2.766958481E0,-1.222050071E0,-9.175050735E0,3.043050051E0,9.743465297E0
2.768920857E0,-2.755050182E0,-1.197300053E1,3.541050196E0,1.278601109E1
2.770883096E0,-4.671000004E0,-1.549905109E1,3.963000298E0,1.666565922E1
2.772845237E0,-6.702000141E0,-2.029005051E1,4.843950272E0,2.191042696E1
2.774807406E0,-8.427000046E0,-2.565600204E1,5.649000168E0,2.758905532E1
2.776769715E0,-1.042005062E1,-3.086805153E1,6.147000313E0,3.315418032E1
2.778731966E0,-1.195305061E1,-3.619605255E1,6.837000370E0,3.872691846E1
2.780694464E0,-1.325595093E1,-4.190700150E1,7.834050179E0,4.464626918E1
2.782656889E0,-1.421505070E1,-4.750200272E1,9.558000565E0,5.049617117E1
2.784619537E0,-1.494300079E1,-5.298300171E1,1.128300095E1,5.619428666E1
2.786582120E0,-1.482795048E1,-5.838705444E1,1.251000023E1,6.152573728E1
2.788544612E0,-1.406100082E1,-6.333195114E1,1.346805096E1,6.625734809E1
2.790507127E0,-1.203000069E1,-6.704895020E1,1.431105042E1,6.960667211E1
2.792469714E0,-8.005949974E0,-6.961695099E1,1.480905056E1,7.162348133E1
2.794432279E0,-3.406050205E0,-7.195500183E1,1.438800049E1,7.345841017E1
2.796395309E0,1.153950095E0,-7.440795135E1,1.239495087E1,7.544209457E1
2.798358202E0,5.599950314E0,-7.693800354E1,8.599950790E0,7.761942402E1
2.800320951E0,1.069695091E1,-7.850895691E1,3.979500234E-1,7.923534210E1
2.802283742E0,1.786500168E1,-7.850895691E1,-1.450995064E1,8.181291626E1
2.804246463E0,2.330700111E1,-7.850895691E1,-2.217600060E1,8.484484438E1
2.806209204E0,2.664195061E1,-7.850895691E1,-2.309595108E1,8.606319076E1
2.808171843E0,2.947800064E1,-7.850895691E1,-2.413095093E1,8.726346102E1
2.810134512E0,3.012900162E1,-7.720605469E1,-2.190795135E1,8.572333376E1
2.812096776E0,2.786805153E1,-6.908100128E1,-1.746195030E1,7.650969051E1
2.814059146E0,2.284695053E1,-5.900100327E1,-1.267095089E1,6.452638632E1
2.816021577E0,1.656105042E1,-4.945695114E1,-8.377950668E0,5.282469559E1
2.817983990E0,1.031400013E1,-4.129305267E1,-5.119950294E0,4.286850462E1
2.819946460E0,4.833000183E0,-3.512295151E1,-2.514000177E0,3.554292912E1
2.821908913E0,6.940500140E-1,-3.048495102E1,-1.402050018E0,3.052506656E1
2.823870896E0,-2.410050154E0,-2.695905113E1,-1.708950043E0,2.712045888E1
2.825833007E0,-4.363950253E0,-2.431395149E1,-2.284050226E0,2.480784522E1
2.827795482E0,-5.476050377E0,-2.220600128E1,-2.859000206E0,2.304924083E1
2.829757851E0,-5.398950100E0,-2.086500168E1,-3.088950157E0,2.177242684E1
2.831720554E0,-5.629050255E0,-1.979205132E1,-3.127050161E0,2.081321563E1
2.833683159E0,-5.935950279E0,-1.898700142E1,-2.782050133E0,2.008684972E1
2.835645926E0,-6.127950191E0,-1.875705147E1,-2.629050016E0,1.990705044E1
2.837608635E0,-5.782950401E0,-1.906305122E1,-2.398950100E0,2.006482990E1
2.839571235E0,-5.245950222E0,-1.940805054E1,-2.053950071E0,2.020918431E1
2.841533867E0,-4.671000004E0,-1.975305176E1,-1.516950130E0,2.035442047E1
2.843496119E0,-3.904950142E0,-2.013600159E1,-1.096050024E0,2.054041190E1
2.845458483E0,-3.445050240E0,-2.040495110E1,-5.590500236E-1,2.070127864E1
2.847419880E0,-2.985000134E0,-2.059605026E1,5.295000225E-2,2.081130260E1
2.849381560E0,-2.563050032E0,-2.071095085E1,8.200500607E-1,2.088504711E1
2.851343974E0,-2.410050154E0,-2.094105148E1,1.356000066E0,2.112284818E1
2.853306173E0,-2.179949999E0,-2.128605080E1,1.740000129E0,2.146801670E1
2.855268185E0,-2.485950232E0,-2.109495163E1,2.085000038E0,2.134301192E1
2.857230252E0,-2.716050148E0,-2.113305092E1,2.085000038E0,2.140864299E1
2.859192765E0,-2.869950056E0,-2.113305092E1,2.200050116E0,2.144021164E1
2.861155158E0,-3.138000250E0,-2.105595016E1,2.046000004E0,2.138658923E1
2.863117453E0,-3.253050089E0,-2.101800156E1,1.893000126E0,2.135233415E1
2.865079776E0,-3.636000156E0,-2.086500168E1,1.585950017E0,2.123873889E1
2.867042215E0,-3.865950108E0,-2.074995041E1,1.165050030E0,2.113914269E1
2.869004620E0,-3.712950230E0,-2.067300034E1,6.280500293E-1,2.101317180E1
2.870967682E0,-3.483000278E0,-2.052000046E1,2.070000172E-1,2.081452759E1
2.872930548E0,-3.100050211E0,-2.032800102E1,-2.205000073E-2,2.056303536E1
2.874892581E0,-3.061050177E0,-1.998300171E1,-2.140500098E-1,2.021722540E1
2.876854858E0,-3.330000162E0,-1.948500061E1,-3.289500177E-1,1.977023920E1
2.878817350E0,-2.830950022E0,-1.891005135E1,-3.289500177E-1,1.912361179E1
2.880779779E0,-2.793000221E0,-1.818195152E1,-2.910000086E-1,1.839752408E1
2.882741886E0,-2.755050182E0,-1.756905174E1,-2.520000041E-1,1.778553864E1
2.884704088E0,-2.716050148E0,-1.703205109E1,-2.520000041E-1,1.724909263E1
2.886666234E0,-2.332950115E0,-1.660995102E1,-2.520000041E-1,1.677488102E1
2.888628396E0,-2.218050003E0,-1.599705029E1,-9.900000691E-2,1.615039209E1
2.890589647E0,-1.795950055E0,-1.557600117E1,2.449500114E-1,1.568111123E1
2.892551165E0,-1.336950064E0,-1.511595058E1,7.429500222E-1,1.519313570E1
2.894513543E0,-8.770500422E-1,-1.473195076E1,1.087950110E0,1.479808182E1
2.896475683E0,-4.930500090E-1,-1.434900093E1,1.471050024E0,1.443263365E1
2.898437884E0,-3.299999982E-2,-1.392705059E1,1.624950051E0,1.402156517E1
2.900400067E0,1.960500032E-1,-1.346700096E1,1.548000097E0,1.355709610E1
2.902363433E0,5.790000558E-1,-1.293105030E1,1.740000129E0,1.306043274E1
2.904326452E0,1.039050102E0,-1.239405060E1,1.893000126E0,1.258076169E1
2.906288268E0,1.230000019E0,-1.174305058E1,1.777950048E0,1.194040381E1
2.908250444E0,1.269000053E0,-1.101495075E1,1.624950051E0,1.120624665E1
2.910212594E0,1.306950092E0,-1.024800014E1,1.548000097E0,1.044633571E1
2.912174752E0,1.306950092E0,-9.520050049E0,1.471050024E0,9.721288991E0
2.914136949E0,1.422000051E0,-8.907000542E0,1.432950020E0,9.132912381E0
2.916099134E0,1.537050128E0,-8.370000839E0,1.318050027E0,8.611428048E0
2.918061463E0,1.459950089E0,-7.795050144E0,1.165050030E0,8.015709737E0
2.920023750E0,1.537050128E0,-7.182000160E0,1.126049995E0,7.430453417E0
2.921986196E0,1.537050128E0,-6.568950176E0,9.349500537E-1,6.810856122E0
2.923948596E0,1.614000082E0,-6.070050240E0,8.580000401E-1,6.339295721E0
2.925910754E0,1.651950121E0,-5.533950329E0,8.959500194E-1,5.844336736E0
2.927872983E0,1.729050040E0,-5.035050392E0,7.810500264E-1,5.380649184E0
2.929835423E0,1.882050037E0,-4.651950359E0,6.280500293E-1,5.057390763E0
2.931797812E0,2.035050154E0,-4.269000053E0,5.899500251E-1,4.765903022E0
2.933759971E0,2.111999989E0,-3.961950302E0,5.899500251E-1,4.528314828E0
2.935722198E0,2.380050182E0,-3.655950069E0,5.899500251E-1,4.402118900E0
2.937684519E0,2.572050095E0,-3.502050161E0,6.280500293E-1,4.390244169E0
2.939646812E0,2.725050211E0,-3.349050045E0,7.050000429E-1,4.374821130E0
2.941609078E0,2.917050123E0,-3.157050133E0,7.810500264E-1,4.368773982E0
2.943571352E0,3.070050240E0,-2.965950251E0,9.349500537E-1,4.369920018E0
2.945533709E0,3.262050152E0,-2.851050138E0,1.165050030E0,4.486290189E0
2.947496042E0,3.415050268E0,-2.659050226E0,1.356000066E0,4.535620423E0
2.949458481E0,3.492000103E0,-2.506050110E0,1.471050024E0,4.542943984E0
2.951420889E0,3.568050146E0,-2.314050198E0,1.510050058E0,4.512877280E0
2.953383019E0,3.529950142E0,-2.083950043E0,1.624950051E0,4.409519073E0
2.955345217E0,3.607050180E0,-1.930950046E0,1.855050087E0,4.492281147E0
2.957307408E0,3.607050180E0,-1.701000094E0,2.008050203E0,4.465028325E0
2.959269602E0,3.607050180E0,-1.548000097E0,2.161050081E0,4.480764752E0
2.961231883E0,3.645000219E0,-1.432950020E0,2.200050116E0,4.492170174E0
2.963194138E0,3.607050180E0,-1.240950108E0,2.122950077E0,4.365510875E0
2.965156331E0,3.529950142E0,-1.011000037E0,2.008050203E0,4.185084790E0
2.967118535E0,3.415050268E0,-7.039500475E-1,1.855050087E0,3.949598059E0
2.969080859E0,3.300000191E0,-4.360500276E-1,1.701000094E0,3.738120143E0
2.971043148E0,3.070050240E0,-2.059500068E-1,1.548000097E0,3.444405345E0
2.973004694E0,2.839950085E0,-1.290000081E-1,1.510050058E0,3.219038469E0
2.974966458E0,2.572050095E0,9.900000691E-2,1.432950020E0,2.945944407E0
2.976928872E0,2.419050217E0,2.910000086E-1,1.279950023E0,2.752227646E0
2.978891086E0,2.227050066E0,4.440000355E-1,1.240950108E0,2.587826346E0
2.980853590E0,2.149950027E0,5.980500579E-1,1.126049995E0,2.499587483E0
2.982816009E0,1.920000076E0,7.129500508E-1,9.349500537E-1,2.251406154E0
2.984778298E0,1.843950033E0,7.510500550E-1,9.349500537E-1,2.199627130E0
2.986740626E0,1.729050040E0,8.659500480E-1,8.959500194E-1,2.131246106E0
2.988702993E0,1.729050040E0,9.040500522E-1,7.810500264E-1,2.101656414E0
2.990665335E0,1.651950121E0,9.040500522E-1,6.280500293E-1,1.985117764E0
2.992628358E0,1.614000082E0,9.040500522E-1,3.979500234E-1,1.892265040E0
2.994591182E0,1.614000082E0,1.018950105E0,1.680000126E-1,1.916110536E0
2.996553357E0,1.575000048E0,9.810000658E-1,5.295000225E-2,1.856283917E0
2.998515722E0,1.537050128E0,9.810000658E-1,9.195000678E-2,1.825743418E0
3.000478225E0,1.575000048E0,9.810000658E-1,9.195000678E-2,1.857805448E0
3.002440701E0,1.537050128E0,1.018950105E0,-2.205000073E-2,1.844252861E0
3.004402620E0,1.614000082E0,9.810000658E-1,-9.900000691E-2,1.891337726E0
3.006364703E0,1.614000082E0,1.057950020E0,-9.900000691E-2,1.932370438E0
3.008327003E0,1.690050125E0,1.096050024E0,-2.910000086E-1,2.035258236E0
3.010289239E0,1.729050040E0,1.096050024E0,-5.209500194E-1,2.112422453E0
3.012251559E0,1.767000079E0,1.173000097E0,-8.269500136E-1,2.276414908E0
3.014213855E0,1.920000076E0,1.210950017E0,-1.134000063E0,2.537470469E0
3.016175986E0,2.149950027E0,1.402950048E0,-2.284050226E0,3.436195483E0
3.018138165E0,2.380050182E0,1.671000123E0,-4.468050003E0,5.331074105E0
3.020100314E0,2.725050211E0,2.016000032E0,-7.150950432E0,7.913674675E0
3.022062472E0,3.070050240E0,2.284050226E0,-9.183000565E0,9.948346258E0
3.024024615E0,3.300000191E0,2.398950100E0,-1.017900085E1,1.096617624E1
3.025986770E0,3.415050268E0,2.437050104E0,-1.002600002E1,1.086841562E1
3.027949103E0,3.453000069E0,2.476050138E0,-9.144000053E0,1.008299414E1
3.029911383E0,3.453000069E0,2.398950100E0,-8.224950790E0,9.237314900E0
3.031873876E0,3.376950264E0,2.398950100E0,-7.036050320E0,8.164848974E0
3.033836306E0,3.262050152E0,2.398950100E0,-5.617950439E0,6.925120931E0
3.035798948E0,3.223050117E0,2.322000027E0,-4.582950115E0,6.064912855E0
3.037761532E0,3.147000074E0,2.322000027E0,-3.894000292E0,5.518924883E0
3.039723794E0,3.031950235E0,2.322000027E0,-3.280050039E0,5.034196521E0
3.041686150E0,2.992950201E0,2.284050226E0,-2.590050220E0,4.569791733E0
3.043648494E0,2.764050245E0,2.245950222E0,-1.824000120E0,4.001405078E0
3.045610842E0,2.610000134E0,2.245950222E0,-9.810000658E-1,3.580328787E0
3.047572737E0,2.533950090E0,2.208000183E0,-2.910000086E-1,3.373551374E0
3.049534765E0,2.457000017E0,2.169000149E0,4.360500276E-1,3.306289515E0
3.051497164E0,2.380050182E0,2.131050110E0,1.240950108E0,3.427239503E0
3.053459455E0,2.304000139E0,2.016000032E0,1.701000094E0,3.502295546E0
3.055421901E0,2.265000105E0,1.978050113E0,2.314950228E0,3.794983831E0
3.057384302E0,2.149950027E0,1.900950074E0,2.965950251E0,4.127076107E0
3.059346784E0,2.074050188E0,1.786050081E0,3.463950157E0,4.414817071E0
3.061309235E0,2.035050154E0,1.671000123E0,3.924000263E0,4.725616214E0
3.063271384E0,1.920000076E0,1.594050050E0,4.116000175E0,4.813403505E0
3.065233621E0,1.882050037E0,1.555950046E0,4.269000053E0,4.918074252E0
3.067195940E0,1.767000079E0,1.479000092E0,4.269000053E0,4.851194905E0
3.069158235E0,1.614000082E0,1.441050053E0,4.231050014E0,4.752200095E0
3.071120365E0,1.498950124E0,1.402950048E0,4.192950249E0,4.668613509E0
3.073082544E0,1.459950089E0,1.326000094E0,4.078050137E0,4.529925323E0
3.075044828E0,1.345050097E0,1.326000094E0,3.886050224E0,4.320743265E0
3.077007081E0,1.306950092E0,1.326000094E0,3.771000147E0,4.205572125E0
3.078969084E0,1.230000019E0,1.249050021E0,3.541050196E0,3.951210256E0
3.080931160E0,1.114950061E0,1.173000097E0,3.349050045E0,3.719567054E0
3.082893355E0,1.039050102E0,1.173000097E0,3.118950129E0,3.490473356E0
3.084855494E0,8.850000501E-1,1.173000097E0,2.965950251E0,3.309987191E0
3.086817607E0,7.320000529E-1,1.134000063E0,2.736000061E0,3.050815719E0
3.088779727E0,5.790000558E-1,1.096050024E0,2.545050144E0,2.830873886E0
3.090741166E0,5.020500422E-1,1.096050024E0,2.314950228E0,2.610052577E0
3.092702804E0,3.490500152E-1,1.096050024E0,2.161050081E0,2.448121529E0
3.094664905E0,3.109500110E-1,1.057950020E0,1.969950080E0,2.257576460E0
3.096626874E0,2.719500065E-1,1.018950105E0,1.855050087E0,2.133876038E0
3.098589240E0,2.719500065E-1,9.810000658E-1,1.663050056E0,1.949885490E0
3.100551489E0,2.340000123E-1,9.810000658E-1,1.548000097E0,1.847544705E0
3.102513583E0,2.340000123E-1,8.659500480E-1,1.510050058E0,1.756381698E0
3.104475722E0,2.719500065E-1,9.430500269E-1,1.510050058E0,1.800986213E0
3.106437923E0,3.490500152E-1,9.040500522E-1,1.471050024E0,1.761570488E0
3.108400105E0,3.490500152E-1,8.659500480E-1,1.471050024E0,1.742324187E0
3.110362389E0,3.870000243E-1,9.040500522E-1,1.471050024E0,1.769481192E0
3.112324643E0,3.490500152E-1,8.280000687E-1,1.510050058E0,1.757177056E0
3.114286781E0,3.870000243E-1,8.280000687E-1,1.510050058E0,1.765107450E0
3.116248953E0,3.870000243E-1,7.890000343E-1,1.471050024E0,1.713557191E0
3.118211283E0,3.109500110E-1,7.129500508E-1,1.510050058E0,1.698599088E0
3.120173566E0,3.109500110E-1,7.129500508E-1,1.510050058E0,1.698599088E0
3.122135744E0,3.109500110E-1,7.129500508E-1,1.548000097E0,1.732423732E0
3.124097953E0,3.109500110E-1,6.739500165E-1,1.548000097E0,1.716741924E0
3.126060052E0,3.109500110E-1,6.360000372E-1,1.548000097E0,1.702201591E0
3.128022184E0,2.719500065E-1,5.980500579E-1,1.548000097E0,1.681643535E0
3.129984026E0,3.109500110E-1,4.830000103E-1,1.548000097E0,1.651146032E0
3.131945953E0,3.870000243E-1,4.060500264E-1,1.510050058E0,1.610868344E0
3.133909046E0,4.639500082E-1,2.910000086E-1,1.432950020E0,1.534039235E0
3.135871797E0,6.550500393E-1,9.900000691E-2,1.356000066E0,1.509181147E0
3.137834570E0,7.320000529E-1,2.295000106E-2,1.203000069E0,1.408389131E0
3.139797336E0,8.850000501E-1,-9.105000645E-2,1.050000072E0,1.376232300E0
3.141759321E0,1.039050102E0,-1.290000081E-1,8.580000401E-1,1.353672850E0
3.143721549E0,1.192050099E0,-1.680000126E-1,6.280500293E-1,1.357812315E0
3.145684455E0,1.345050097E0,-2.059500068E-1,3.220500052E-1,1.398317336E0
3.147647163E0,1.537050128E0,-2.440500110E-1,1.500000060E-2,1.556376723E0
3.149609358E0,1.804950118E0,-3.210000098E-1,-2.910000086E-1,1.856223839E0
3.151571703E0,1.996950150E0,-3.979500234E-1,-6.739500165E-1,2.144850285E0
3.153533679E0,2.149950027E0,-3.589500189E-1,-8.659500480E-1,2.345421012E0
3.155495770E0,2.265000105E0,-3.210000098E-1,-1.096050024E0,2.536649786E0
3.157457934E0,2.419050217E0,-3.210000098E-1,-1.210950017E0,2.724196194E0
3.159420076E0,2.610000134E0,-2.059500068E-1,-1.249050021E0,2.900800244E0
3.161382412E0,2.764050245E0,-1.680000126E-1,-1.363950014E0,3.086836148E0
3.163344691E0,2.917050123E0,-1.290000081E-1,-1.479000092E0,3.273112234E0
3.165307139E0,3.147000074E0,-1.680000126E-1,-1.594050050E0,3.531689261E0
3.167269538E0,3.337950230E0,-1.290000081E-1,-1.786050081E0,3.787945041E0
3.169230569E0,3.492000103E0,-9.105000645E-2,-2.014950037E0,4.032663943E0
3.171192001E0,3.607050180E0,-1.500000060E-2,-2.130000114E0,4.189025721E0
3.173154458E0,3.607050180E0,6.105000153E-2,-2.014950037E0,4.132137674E0
3.175116614E0,3.568050146E0,2.140500098E-1,-1.824000120E0,4.012950995E0
3.177078943E0,3.529950142E0,2.910000086E-1,-1.594050050E0,3.884098939E0
3.179041225E0,3.415050268E0,3.679500222E-1,-1.287000060E0,3.668013728E0
3.181003403E0,3.337950230E0,4.440000355E-1,-1.134000063E0,3.553168151E0
3.182965612E0,3.262050152E0,5.980500579E-1,-9.810000658E-1,3.458467319E0
3.184927711E0,3.223050117E0,5.980500579E-1,-9.040500522E-1,3.400444446E0
3.186889842E0,3.223050117E0,6.739500165E-1,-7.890000343E-1,3.385968361E0
3.188852224E0,3.223050117E0,7.129500508E-1,-8.659500480E-1,3.412655758E0
3.190814533E0,3.184950113E0,7.890000343E-1,-8.659500480E-1,3.393567115E0
3.192776976E0,3.108000040E0,8.280000687E-1,-9.040500522E-1,3.341040984E0
3.194739379E0,3.070050240E0,8.659500480E-1,-8.659500480E-1,3.305290826E0
3.196701716E0,2.955000162E0,9.040500522E-1,-9.420000315E-1,3.230587642E0
3.198664073E0,2.802000046E0,9.810000658E-1,-1.096050024E0,3.164631265E0
3.200626541E0,2.686950207E0,1.018950105E0,-1.210950017E0,3.118390718E0
3.202588984E0,2.649000168E0,1.018950105E0,-1.516950130E0,3.218167010E0
3.204551044E0,2.533950090E0,9.810000658E-1,-1.939050078E0,3.338140110E0
3.206513217E0,2.457000017E0,9.810000658E-1,-2.322000027E0,3.520070218E0
3.208475368E0,2.304000139E0,8.659500480E-1,-2.704950094E0,3.657190334E0
3.210437525E0,2.111999989E0,6.739500165E-1,-2.974050045E0,3.709410499E0
3.212399722E0,1.882050037E0,4.440000355E-1,-3.165000200E0,3.708972181E0
3.214361907E0,1.690050125E0,1.759500057E-1,-3.357000113E0,3.762536058E0
3.216324912E0,1.459950089E0,-1.290000081E-1,-3.586950064E0,3.874829806E0
3.218287677E0,1.345050097E0,-2.830500007E-1,-3.894000292E0,4.129469135E0
3.220249907E0,1.306950092E0,-7.039500475E-1,-4.237950325E0,4.490421714E0
3.222212294E0,1.269000053E0,-1.203000069E0,-4.582950115E0,4.905201531E0
3.224174638E0,1.306950092E0,-1.663050056E0,-4.852050304E0,5.293037520E0
3.226136991E0,1.422000051E0,-2.122950077E0,-4.966950417E0,5.585659998E0
3.228099470E0,1.498950124E0,-2.544000149E0,-4.966950417E0,5.778354841E0
3.230061912E0,1.537050128E0,-2.851050138E0,-5.350050449E0,6.254122624E0
3.232024198E0,1.498950124E0,-3.196050167E0,-5.695050240E0,6.700386957E0
3.233986530E0,1.384050012E0,-3.541050196E0,-5.848050117E0,6.975264948E0
3.235948802E0,1.306950092E0,-3.694050074E0,-5.542050362E0,6.787374065E0
3.237911082E0,1.306950092E0,-3.655950069E0,-4.621950150E0,6.036266449E0
3.239873438E0,1.230000019E0,-3.310950041E0,-3.204000235E0,4.768742782E0
3.241835772E0,1.192050099E0,-2.965950251E0,-1.861950040E0,3.699284023E0
3.243797131E0,1.153950095E0,-2.697000027E0,-7.120500207E-1,3.018679380E0
3.245758775E0,1.114950061E0,-2.544000149E0,4.750500321E-1,2.817928837E0
3.247721046E0,1.114950061E0,-2.391000032E0,1.356000066E0,2.966265492E0
3.249683143E0,1.114950061E0,-2.275950193E0,1.855050087E0,3.140744139E0
3.251645307E0,1.077000022E0,-2.199000120E0,2.275950193E0,3.342974702E0
3.253607451E0,1.077000022E0,-2.199000120E0,2.620950222E0,3.586768830E0
3.255569742E0,9.619500637E-1,-2.351999998E0,3.118950129E0,4.023071193E0
3.257531989E0,7.320000529E-1,-2.544000149E0,3.808950186E0,4.638519414E0
3.259493286E0,5.020500422E-1,-2.736000061E0,4.078050137E0,4.936420109E0
3.261454851E0,2.340000123E-1,-3.081000090E0,4.153950214E0,5.177124679E0
3.263417421E0,8.100000024E-2,-3.771000147E0,4.078050137E0,5.554952387E0
3.265379696E0,-1.870500147E-1,-7.143000126E0,3.963000298E0,8.170851233E0
3.267341830E0,-2.640000105E0,-1.350600052E1,4.461000443E0,1.446658825E1
3.269304005E0,-7.929000378E0,-2.163105011E1,4.729050159E0,2.351882844E1
3.271266141E0,-1.436805058E1,-3.163500214E1,4.461000443E0,3.503019786E1
3.273228299E0,-2.019405174E1,-4.033500290E1,4.806000233E0,4.536308877E1
