"Time (s)","Acceleration x (m/s^2)","Acceleration y (m/s^2)","Acceleration z (m/s^2)","Absolute acceleration (m/s^2)"
3.547812300E-2,-3.780000210E-1,1.518000126E0,-1.210950017E0,1.978284191E0
3.743927800E-2,-2.629500031E-1,1.518000126E0,-1.326000094E0,2.032669018E0
3.940304600E-2,-2.629500031E-1,1.555950046E0,-1.287000060E0,2.036293791E0
4.136510300E-2,-2.250000089E-1,1.555950046E0,-1.134000063E0,1.938443110E0
4.332766100E-2,-2.629500031E-1,1.594050050E0,-9.810000658E-1,1.890105657E0
4.529006100E-2,-2.250000089E-1,1.555950046E0,-9.040500522E-1,1.813535785E0
4.725250700E-2,-3.019500077E-1,1.555950046E0,-7.120500207E-1,1.737575778E0
4.921501500E-2,-3.780000210E-1,1.518000126E0,-5.590500236E-1,1.661248123E0
5.117750500E-2,-3.780000210E-1,1.479000092E0,-6.360000372E-1,1.653729523E0
5.313991800E-2,-4.170000255E-1,1.555950046E0,-4.819500148E-1,1.681411723E0
5.510235400E-2,-4.170000255E-1,1.555950046E0,-3.289500177E-1,1.644103914E0
5.706483900E-2,-4.170000255E-1,1.518000126E0,-2.140500098E-1,1.588719865E0
5.902732700E-2,-3.400500119E-1,1.518000126E0,-1.369500011E-1,1.561638145E0
6.099046000E-2,-3.019500077E-1,1.518000126E0,-6.105000153E-2,1.548943282E0
6.295340400E-2,-3.019500077E-1,1.518000126E0,5.295000225E-2,1.548645180E0
6.491600900E-2,-3.780000210E-1,1.479000092E0,1.300500035E-1,1.532069936E0
6.687871300E-2,-4.549500346E-1,1.441050053E0,1.680000126E-1,1.520469925E0
6.884035900E-2,-5.320500135E-1,1.363950014E0,3.979500234E-1,1.517168771E0
7.080235300E-2,-5.320500135E-1,1.363950014E0,5.899500251E-1,1.578441602E0
7.276502800E-2,-4.930500090E-1,1.249050021E0,6.280500293E-1,1.482454420E0
7.472750400E-2,-5.700000525E-1,1.134000063E0,8.959500194E-1,1.553570932E0
7.669014400E-2,-6.469500065E-1,1.134000063E0,1.087950110E0,1.699451646E0
7.865273500E-2,-7.230000496E-1,1.173000097E0,1.356000066E0,1.933234202E0
8.061553500E-2,-7.230000496E-1,1.173000097E0,1.432950020E0,1.987964803E0
8.257827400E-2,-7.230000496E-1,1.210950017E0,1.432950020E0,2.010590653E0
8.454091400E-2,-7.230000496E-1,1.210950017E0,1.471050024E0,2.037919819E0
8.650358300E-2,-7.230000496E-1,1.210950017E0,1.510050058E0,2.066247854E0
8.846636900E-2,-7.620000243E-1,1.249050021E0,1.585950017E0,2.157778360E0
9.042912000E-2,-6.850500107E-1,1.288050056E0,1.663050056E0,2.212261727E0
9.239186300E-2,-6.850500107E-1,1.288050056E0,1.816050053E0,2.329464371E0
9.435462900E-2,-6.850500107E-1,1.326000094E0,1.816050053E0,2.350661090E0
9.631757900E-2,-6.469500065E-1,1.326000094E0,1.969950080E0,2.461203746E0
9.828047500E-2,-6.469500065E-1,1.326000094E0,2.122950077E0,2.585292554E0
1.002429980E-1,-6.469500065E-1,1.363950014E0,2.314950228E0,2.763674820E0
1.022056310E-1,-6.469500065E-1,1.363950014E0,2.353049994E0,2.795665971E0
1.041681080E-1,-6.469500065E-1,1.363950014E0,2.430000067E0,2.860734919E0
1.061306310E-1,-5.700000525E-1,1.249050021E0,2.506050110E0,2.857501211E0
1.080930820E-1,-4.549500346E-1,1.249050021E0,2.545050144E0,2.871303837E0
1.100555540E-1,-4.930500090E-1,1.210950017E0,2.659050226E0,2.963114301E0
1.120183280E-1,-4.549500346E-1,1.173000097E0,2.773950100E0,3.045933013E0
1.139810140E-1,-3.780000210E-1,1.249050021E0,2.889000177E0,3.170068137E0
1.159434430E-1,-4.549500346E-1,1.326000094E0,2.965950251E0,3.280566517E0
1.179059440E-1,-4.170000255E-1,1.363950014E0,3.043050051E0,3.360714548E0
1.198684440E-1,-4.170000255E-1,1.518000126E0,3.118950129E0,3.493717691E0
1.218309440E-1,-3.780000210E-1,1.555950046E0,3.196050167E0,3.574716944E0
1.237935780E-1,-3.780000210E-1,1.633050084E0,3.310950041E0,3.711081617E0
1.257561730E-1,-4.170000255E-1,1.633050084E0,3.349050045E0,3.749250299E0
1.277187770E-1,-3.019500077E-1,1.708950043E0,3.349050045E0,3.771978295E0
1.296813580E-1,-3.019500077E-1,1.747950077E0,3.234000206E0,3.688530956E0
1.316439780E-1,-4.170000255E-1,1.863000035E0,3.118950129E0,3.656844002E0
1.336065870E-1,-4.170000255E-1,1.978050113E0,2.965950251E0,3.589349824E0
1.355688890E-1,-4.549500346E-1,2.092950106E0,2.812950134E0,3.535549199E0
1.375312810E-1,-4.930500090E-1,2.092950106E0,2.659050226E0,3.419661761E0
1.394939030E-1,-5.320500135E-1,2.169000149E0,2.467950106E0,3.328425542E0
1.414564470E-1,-5.320500135E-1,2.245950222E0,2.275950193E0,3.241499483E0
1.434188950E-1,-5.700000525E-1,2.284050226E0,2.008050203E0,3.094196360E0
1.453813720E-1,-6.079500318E-1,2.361000061E0,1.740000129E0,2.995250403E0
1.473440550E-1,-5.700000525E-1,2.398950100E0,1.585950017E0,2.931739944E0
1.493066770E-1,-6.079500318E-1,2.437050104E0,1.471050024E0,2.910808242E0
1.512692610E-1,-4.930500090E-1,2.437050104E0,1.395000100E0,2.851023816E0
1.532318470E-1,-5.700000525E-1,2.476050138E0,1.240950108E0,2.827663615E0
1.551943320E-1,-4.549500346E-1,2.476050138E0,1.126049995E0,2.757860115E0
1.571568470E-1,-4.930500090E-1,2.514000177E0,1.087950110E0,2.783330855E0
1.591194340E-1,-3.400500119E-1,2.706000090E0,1.165050030E0,2.965705998E0
1.610819990E-1,-3.019500077E-1,2.859000206E0,1.240950108E0,3.131295763E0
1.630446830E-1,-3.019500077E-1,2.859000206E0,1.165050030E0,3.101998961E0
1.650073220E-1,-2.250000089E-1,2.782050133E0,1.165050030E0,3.024527983E0
1.669698890E-1,-1.480500102E-1,2.782050133E0,1.011000037E0,2.963754852E0
1.689324780E-1,-1.099500060E-1,2.821050167E0,8.580000401E-1,2.950690956E0
1.708950970E-1,4.050000105E-3,2.821050167E0,6.660000086E-1,2.898602501E0
1.728577070E-1,4.200000316E-2,2.782050133E0,3.979500234E-1,2.810681619E0
1.748210980E-1,1.189500093E-1,2.743950129E0,1.680000126E-1,2.751660484E0
1.767842540E-1,3.490500152E-1,2.590950012E0,1.500000060E-2,2.614399143E0
1.787479940E-1,6.169500351E-1,2.361000061E0,-1.369500011E-1,2.444116187E0
1.807115620E-1,8.850000501E-1,2.092950106E0,-3.670500219E-1,2.301823397E0
1.826738350E-1,1.153950095E0,1.939050078E0,-6.360000372E-1,2.344357497E0
1.846364870E-1,1.306950092E0,1.708950043E0,-9.420000315E-1,2.348615092E0
1.865991060E-1,1.575000048E0,1.441050053E0,-1.402050018E0,2.554015399E0
1.885617280E-1,1.996950150E0,1.173000097E0,-1.939050078E0,3.020538749E0
1.905245660E-1,2.419050217E0,9.040500522E-1,-2.629050016E0,3.685242792E0
1.924873410E-1,2.802000046E0,5.590500236E-1,-3.357000113E0,4.408309306E0
1.944499300E-1,3.147000074E0,2.530499995E-1,-3.931950092E0,5.042606003E0
1.964125740E-1,3.492000103E0,2.295000106E-2,-4.545000076E0,5.731633023E0
1.983762200E-1,3.760050297E0,-1.290000081E-1,-5.158050060E0,6.384363685E0
2.003395720E-1,4.105050087E0,-2.440500110E-1,-5.772000313E0,7.087099847E0
2.023021070E-1,4.335000038E0,-4.740000367E-1,-6.385050297E0,7.732125753E0
2.042648810E-1,4.372950077E0,-5.509500504E-1,-6.960000515E0,8.238194311E0
2.062276500E-1,4.411950111E0,-7.810500264E-1,-7.305000305E0,8.569619151E0
2.081904200E-1,4.680000305E0,-1.011000037E0,-7.342950344E0,8.766039225E0
2.101533130E-1,4.872000217E0,-1.087950110E0,-7.189950466E0,8.753022865E0
2.121161770E-1,4.948050022E0,-1.203000069E0,-6.805950165E0,8.500080343E0
2.140789310E-1,5.025000095E0,-1.164000034E0,-6.193050385E0,8.059739146E0
2.160417180E-1,5.140050411E0,-1.087950110E0,-5.388000488E0,7.525576585E0
2.180043490E-1,5.062950134E0,-9.730500579E-1,-4.582950115E0,6.898095551E0
2.199670250E-1,4.833000183E0,-7.810500264E-1,-3.778950214E0,6.184528651E0
2.219301540E-1,4.756950378E0,-5.890500546E-1,-2.896950245E0,5.600703312E0
2.238931290E-1,4.680000305E0,-4.740000367E-1,-2.053950071E0,5.132814996E0
2.258562240E-1,4.527000427E0,-3.589500189E-1,-1.210950017E0,4.699891268E0
2.278192830E-1,4.411950111E0,-2.059500068E-1,-5.590500236E-1,4.451994623E0
2.297804260E-1,4.297049999E0,-1.290000081E-1,5.295000225E-2,4.299311968E0
2.317421310E-1,4.066950321E0,-1.500000060E-2,8.200500607E-1,4.148830199E0
2.337048970E-1,3.952050209E0,1.380000114E-1,1.510050058E0,4.232965395E0
2.356673550E-1,3.798000097E0,2.140500098E-1,2.085000038E0,4.337954276E0
2.376301330E-1,3.492000103E0,4.830000103E-1,2.698050022E0,4.439237283E0
2.395928170E-1,3.184950113E0,7.129500508E-1,3.081000090E0,4.488292164E0
2.415554660E-1,2.992950201E0,9.430500269E-1,3.349050045E0,4.589469519E0
2.435181260E-1,2.917050123E0,1.018950105E0,3.426000118E0,4.613558014E0
2.454807580E-1,2.725050211E0,1.134000063E0,3.349050045E0,4.464077844E0
2.474433810E-1,2.572050095E0,1.173000097E0,3.004050255E0,4.125007739E0
2.494059950E-1,2.610000134E0,1.173000097E0,2.659050226E0,3.906222988E0
2.513686120E-1,2.610000134E0,1.173000097E0,2.238000154E0,3.632722755E0
2.533315410E-1,2.686950207E0,1.134000063E0,1.740000129E0,3.396065077E0
2.552943790E-1,2.725050211E0,1.018950105E0,1.356000066E0,3.209812167E0
2.572572160E-1,2.725050211E0,8.659500480E-1,8.959500194E-1,2.996413619E0
2.592200300E-1,2.610000134E0,6.360000372E-1,3.979500234E-1,2.715687936E0
2.611835120E-1,2.304000139E0,4.440000355E-1,-2.205000073E-2,2.346495019E0
2.631467980E-1,1.996950150E0,2.530499995E-1,-4.060500264E-1,2.053465565E0
2.651100200E-1,1.729050040E0,2.295000106E-2,-9.810000658E-1,1.988090006E0
2.670732610E-1,1.537050128E0,-1.680000126E-1,-1.594050050E0,2.220752724E0
2.690357430E-1,1.384050012E0,-4.740000367E-1,-2.359950066E0,2.776622910E0
2.709984340E-1,1.306950092E0,-1.048950076E0,-3.433950186E0,3.821050730E0
2.729612160E-1,1.306950092E0,-1.663050056E0,-4.774950027E0,5.222451704E0
2.749239710E-1,1.230000019E0,-2.544000149E0,-6.844950199E0,7.405280551E0
2.768867420E-1,1.153950095E0,-3.579000235E0,-9.718950272E0,1.042107662E1
2.788495090E-1,1.000050068E0,-4.767000198E0,-1.205700016E1,1.300367809E1
2.808114240E-1,6.169500351E-1,-5.839950085E0,-1.274700069E1,1.403465963E1
2.827735880E-1,1.960500032E-1,-6.684000492E0,-1.136700058E1,1.318798697E1
2.847360990E-1,-1.480500102E-1,-7.258050442E0,-8.953050613E0,1.152641880E1
2.866985090E-1,-3.780000210E-1,-7.488000393E0,-6.154950142E0,9.700332219E0
2.886611150E-1,-4.930500090E-1,-7.527000427E0,-3.586950064E0,8.352547186E0
2.906236630E-1,-7.620000243E-1,-7.411950588E0,-1.134000063E0,7.536817080E0
2.925850880E-1,-9.150000215E-1,-6.990000248E0,7.050000429E-1,7.084797355E0
2.945468330E-1,-8.380500674E-1,-6.492000103E0,1.240950108E0,6.662458287E0
2.965095520E-1,-1.030050039E0,-6.031950474E0,1.893000126E0,6.405378918E0
2.984719850E-1,-1.144950032E0,-5.572050095E0,2.773950100E0,6.328779660E0
3.004344970E-1,-1.452000022E0,-5.227050304E0,2.889000177E0,6.146273747E0
3.023969850E-1,-1.795950055E0,-5.149950027E0,3.196050167E0,6.321562984E0
3.043597830E-1,-1.950000048E0,-5.149950027E0,2.889000177E0,6.218585651E0
3.063225040E-1,-3.100050211E0,-5.457000256E0,2.046000004E0,6.601157407E0
3.082861380E-1,-5.361000061E0,-6.798000336E0,8.580000401E-1,8.699959442E0
3.102495040E-1,-7.852050304E0,-9.558000565E0,5.295000225E-2,1.236983720E1
3.122121720E-1,-9.577050209E0,-1.224105072E1,1.300500035E-1,1.554284808E1
3.141750450E-1,-1.183800030E1,-1.484700108E1,-1.369500011E-1,1.898921924E1
3.161374660E-1,-1.417605114E1,-1.875705147E1,1.500000060E-2,2.351143617E1
3.181000300E-1,-1.540305042E1,-2.347095108E1,-1.057050109E0,2.809371570E1
3.200628330E-1,-1.728105164E1,-3.029295158E1,-1.861950040E0,3.492512733E1
3.220255660E-1,-1.751100159E1,-4.002900314E1,-2.284050226E0,4.375126461E1
3.239882980E-1,-1.685895157E1,-5.068395233E1,-1.594050050E0,5.343807882E1
3.259510300E-1,-1.639905167E1,-5.953695297E1,-2.169000149E0,6.179225054E1
3.279126950E-1,-1.551795101E1,-6.938700104E1,2.830500007E-1,7.110163735E1
3.298746930E-1,-1.486605072E1,-7.747500610E1,5.151000023E0,7.905636493E1
3.318374580E-1,-1.245195103E1,-7.850895691E1,8.677050591E0,7.996248249E1
3.337999990E-1,-9.040050507E0,-7.847100067E1,1.128300095E1,7.979177006E1
3.357625820E-1,-5.514000416E0,-7.850895691E1,1.327605057E1,7.981424706E1
3.377251530E-1,-1.489950061E0,-7.850895691E1,1.327605057E1,7.963748982E1
3.396886290E-1,2.035050154E0,-7.850895691E1,1.362105083E1,7.970778362E1
3.416518740E-1,6.673050404E0,-7.850895691E1,1.281600094E1,7.982753783E1
3.436153280E-1,1.456800079E1,-7.850895691E1,-2.896950245E0,7.990166008E1
3.455787200E-1,2.737005043E1,-7.850895691E1,-3.191100121E1,8.905665598E1
3.475413830E-1,3.342600250E1,-7.850895691E1,-4.195305252E1,9.508423936E1
3.495042600E-1,3.595500183E1,-7.850895691E1,-4.593900299E1,9.781007345E1
3.514668170E-1,3.154800224E1,-7.850895691E1,-3.647205353E1,9.213654785E1
3.534294770E-1,2.342205048E1,-7.318200684E1,-2.079600143E1,7.960321758E1
3.553910030E-1,1.429995060E1,-6.214395142E1,-5.962950230E0,6.404620254E1
3.573528620E-1,7.210050106E0,-5.210205078E1,5.994000435E0,5.293898903E1
3.593154260E-1,3.108000040E0,-4.378500366E1,1.312305069E1,4.581485206E1
3.612777830E-1,1.345050097E0,-3.700094986E1,1.588305092E1,4.028834517E1
3.632396730E-1,2.719500065E-1,-3.121305084E1,1.733895111E1,3.570669020E1
3.652017030E-1,2.340000123E-1,-2.642205048E1,1.649595070E1,3.114957298E1
3.671653190E-1,8.850000501E-1,-2.285805130E1,1.434900093E1,2.700310282E1
3.691284700E-1,1.384050012E0,-1.967700005E1,1.243305016E1,2.331696081E1
3.710906340E-1,1.575000048E0,-1.699394989E1,1.109205055E1,2.035457058E1
3.730530880E-1,2.074050188E0,-1.488600063E1,9.214050293E0,1.762933413E1
3.750155450E-1,2.686950207E0,-1.304595089E1,6.262050152E0,1.471834937E1
3.769780040E-1,3.607050180E0,-1.162800026E1,3.886050224E0,1.277977259E1
3.789408260E-1,4.680000305E0,-1.074600029E1,1.777950048E0,1.185495810E1
3.809035420E-1,5.905950069E0,-1.005600071E1,-2.205000073E-2,1.166207026E1
3.828659610E-1,7.554000378E0,-9.903000832E0,-1.555950046E0,1.255202485E1
3.848284670E-1,9.279000282E0,-1.009500027E1,-2.704950094E0,1.397589466E1
3.867910860E-1,1.134900093E1,-1.051605034E1,-3.739950180E0,1.591773741E1
3.887536820E-1,1.334205055E1,-1.128300095E1,-4.507050037E0,1.804521885E1
3.907165260E-1,1.498995113E1,-1.201095104E1,-4.545000076E0,1.973875897E1
3.926792970E-1,1.633095169E1,-1.270095062E1,-4.468050003E0,2.116548135E1
3.946420220E-1,1.759605026E1,-1.369695091E1,-4.047000408E0,2.266286966E1
3.966047610E-1,1.866900063E1,-1.492395115E1,-3.049950123E0,2.409477325E1
3.985670080E-1,1.943595123E1,-1.630395126E1,-1.632000089E0,2.542122049E1
4.005293900E-1,1.966605186E1,-1.753005028E1,-2.910000086E-1,2.634655461E1
4.024911900E-1,1.955100060E1,-1.871805000E1,9.730500579E-1,2.708419921E1
4.044531600E-1,1.909095001E1,-1.956195068E1,2.046000004E0,2.741022442E1
4.064158850E-1,1.817100143E1,-1.998300171E1,2.659050226E0,2.713993733E1
4.083783880E-1,1.717500114E1,-1.990695000E1,2.965950251E0,2.645872603E1
4.103409780E-1,1.602495003E1,-1.963800049E1,3.004050255E0,2.552399664E1
4.123035420E-1,1.483695030E1,-1.925505066E1,2.659050226E0,2.445327418E1
4.142662120E-1,1.368705082E1,-1.875705147E1,2.238000154E0,2.332747274E1
4.162288500E-1,1.238400078E1,-1.798995018E1,1.855050087E0,2.191900987E1
4.181916420E-1,1.123395061E1,-1.722405052E1,1.624950051E0,2.062789435E1
4.201543880E-1,1.023705006E1,-1.641900063E1,1.740000129E0,1.942700121E1
4.221171720E-1,9.508950233E0,-1.588200092E1,1.930950046E0,1.861146571E1
4.240799370E-1,8.781000137E0,-1.546095085E1,2.161050081E0,1.791136796E1
4.260427070E-1,8.053050041E0,-1.526895046E1,2.583000183E0,1.745463701E1
4.280054750E-1,7.516050339E0,-1.492395115E1,2.889000177E0,1.695764290E1
4.299682010E-1,6.979950428E0,-1.461705112E1,3.196050167E0,1.651037941E1
4.319309390E-1,6.481050491E0,-1.431105042E1,3.426000118E0,1.607941716E1
4.338935790E-1,6.289950371E0,-1.408095074E1,3.886050224E0,1.590402577E1
4.358562470E-1,6.097950459E0,-1.388895035E1,4.192950249E0,1.573749578E1
4.378190320E-1,6.021000385E0,-1.373595047E1,4.498950005E0,1.565788402E1
4.397817830E-1,5.791050434E0,-1.339095020E1,4.690950394E0,1.532510450E1
4.417443760E-1,5.523000240E0,-1.312305069E1,4.690950394E0,1.499076405E1
4.437070160E-1,5.215950012E0,-1.285395050E1,4.768050194E0,1.466848597E1
4.456699210E-1,4.948050022E0,-1.254795074E1,4.729050159E0,1.429329151E1
4.476327630E-1,4.795050144E0,-1.216395092E1,4.537950039E0,1.384005775E1
4.495955660E-1,4.642050266E0,-1.174305058E1,4.345950127E0,1.335421843E1
4.515583800E-1,4.488000393E0,-1.135905075E1,4.231050014E0,1.292563212E1
4.535210970E-1,4.297049999E0,-1.093800068E1,3.924000263E0,1.238960353E1
4.554838420E-1,3.952050209E0,-1.032495022E1,3.655950069E0,1.164428052E1
4.574464210E-1,3.607050180E0,-9.787950516E0,3.310950041E0,1.094427597E1
4.594090590E-1,3.415050268E0,-9.328050613E0,3.196050167E0,1.043502914E1
4.613718490E-1,3.108000040E0,-8.791950226E0,3.157950163E0,9.845339113E0
4.633345950E-1,2.878050089E0,-8.217000008E0,3.118950129E0,9.248249096E0
4.652971890E-1,2.955000162E0,-7.795050144E0,3.234000206E0,8.941677138E0
4.672598280E-1,2.802000046E0,-7.219950199E0,3.310950041E0,8.422664383E0
4.692222400E-1,2.572050095E0,-6.492000103E0,3.349050045E0,7.744523435E0
4.711847320E-1,2.227050066E0,-5.686950207E0,3.426000118E0,7.002758846E0
4.731472320E-1,1.920000076E0,-5.074050426E0,3.273000240E0,6.336001783E0
4.751097300E-1,1.537050128E0,-4.345950127E0,3.118950129E0,5.565757406E0
4.770723660E-1,1.306950092E0,-3.694050074E0,2.965950251E0,4.914365206E0
4.790349610E-1,1.153950095E0,-3.157050133E0,2.698050022E0,4.310225085E0
4.809966190E-1,8.470500112E-1,-2.544000149E0,2.430000067E0,3.618608960E0
4.829585630E-1,4.639500082E-1,-1.893000126E0,2.085000038E0,2.854106558E0
4.849209320E-1,1.570500135E-1,-1.393950105E0,1.663050056E0,2.175660150E0
4.868831770E-1,4.050000105E-3,-8.190000653E-1,1.356000066E0,1.584144466E0
4.888449560E-1,-3.400500119E-1,-2.059500068E-1,1.087950110E0,1.158311210E0
4.908068710E-1,-6.469500065E-1,1.759500057E-1,8.580000401E-1,1.088883274E0
4.927705260E-1,-7.620000243E-1,5.980500579E-1,5.130000114E-1,1.096119027E0
4.947336570E-1,-9.919500351E-1,1.057950020E0,2.070000172E-1,1.464947823E0
4.966961850E-1,-1.106999993E0,1.326000094E0,5.295000225E-2,1.728157672E0
4.986588900E-1,-1.222050071E0,1.555950046E0,-9.900000691E-2,1.980956315E0
5.006214900E-1,-1.222050071E0,1.747950077E0,-3.670500219E-1,2.164130672E0
5.025841210E-1,-1.106999993E0,1.863000035E0,-6.360000372E-1,2.258476071E0
5.045467740E-1,-1.068000078E0,1.900950074E0,-9.040500522E-1,2.360411373E0
5.065094230E-1,-9.150000215E-1,1.863000035E0,-1.134000063E0,2.365153338E0
5.084718530E-1,-7.999500632E-1,1.824000120E0,-1.363950014E0,2.413971040E0
5.104343480E-1,-6.469500065E-1,1.824000120E0,-1.594050050E0,2.507292626E0
5.123969370E-1,-5.320500135E-1,1.786050081E0,-1.861950040E0,2.634370904E0
5.143594990E-1,-3.019500077E-1,1.747950077E0,-2.014950037E0,2.684497519E0
5.163219590E-1,-1.099500060E-1,1.747950077E0,-2.245050192E0,2.847396853E0
5.182844390E-1,-3.299999982E-2,1.708950043E0,-2.359950066E0,2.913925799E0
5.202469410E-1,8.100000024E-2,1.633050084E0,-2.398950100E0,2.903166402E0
5.222094370E-1,2.340000123E-1,1.633050084E0,-2.475000143E0,2.974430078E0
5.241718490E-1,3.490500152E-1,1.671000123E0,-2.629050016E0,3.134642135E0
5.261342850E-1,3.870000243E-1,1.671000123E0,-2.551950216E0,3.074810618E0
5.280977100E-1,5.410500169E-1,1.633050084E0,-2.475000143E0,3.014168775E0
5.300608350E-1,6.169500351E-1,1.633050084E0,-2.551950216E0,3.091913619E0
5.320233640E-1,7.320000529E-1,1.633050084E0,-2.667000055E0,3.211785477E0
5.339860680E-1,8.089500666E-1,1.747950077E0,-2.743950129E0,3.352460587E0
5.359482620E-1,8.850000501E-1,1.747950077E0,-2.859000206E0,3.465896239E0
5.379106060E-1,1.000050068E0,1.824000120E0,-2.935050249E0,3.597443056E0
5.398729480E-1,1.077000022E0,1.824000120E0,-3.088950157E0,3.745466401E0
5.418352930E-1,1.192050099E0,1.863000035E0,-3.204000235E0,3.893246727E0
5.437977290E-1,1.269000053E0,1.900950074E0,-3.357000113E0,4.061209435E0
5.457601390E-1,1.306950092E0,1.900950074E0,-3.394950151E0,4.104560422E0
5.477224750E-1,1.345050097E0,1.939050078E0,-3.510000229E0,4.229559856E0
5.496848330E-1,1.384050012E0,1.939050078E0,-3.433950186E0,4.179416648E0
5.516472660E-1,1.459950089E0,1.978050113E0,-3.472050190E0,4.254323569E0
5.536096770E-1,1.575000048E0,2.053950071E0,-3.357000113E0,4.238960462E0
5.555723730E-1,1.690050125E0,2.053950071E0,-3.204000235E0,4.164204345E0
5.575349850E-1,1.804950118E0,2.053950071E0,-2.935050249E0,4.011368319E0
5.594976010E-1,1.882050037E0,2.092950106E0,-2.743950129E0,3.930879647E0
5.614602160E-1,1.882050037E0,2.092950106E0,-2.514000177E0,3.773956727E0
5.634226410E-1,1.843950033E0,2.016000032E0,-2.284050226E0,3.561080355E0
5.653850980E-1,1.690050125E0,1.863000035E0,-1.977000117E0,3.199307428E0
5.673475590E-1,1.651950121E0,1.747950077E0,-1.671000123E0,2.928567924E0
5.693100190E-1,1.498950124E0,1.633050084E0,-1.210950017E0,2.525886774E0
5.712725260E-1,1.384050012E0,1.441050053E0,-5.970000029E-1,2.085336590E0
5.732350190E-1,1.459950089E0,1.402950048E0,-6.105000153E-2,2.025697461E0
5.751967740E-1,1.498950124E0,1.326000094E0,9.195000678E-2,2.003392754E0
5.771587320E-1,1.651950121E0,1.363950014E0,3.220500052E-1,2.166336781E0
5.791214590E-1,1.690050125E0,1.402950048E0,6.280500293E-1,2.284509817E0
5.810839610E-1,1.729050040E0,1.441050053E0,9.730500579E-1,2.452155320E0
5.830463720E-1,1.804950118E0,1.326000094E0,1.165050030E0,2.524571796E0
5.850088090E-1,1.882050037E0,1.326000094E0,1.318050027E0,2.652855908E0
5.869712360E-1,1.882050037E0,1.288050056E0,1.471050024E0,2.713885307E0
5.889336930E-1,1.920000076E0,1.210950017E0,1.510050058E0,2.726362304E0
5.908965160E-1,1.920000076E0,1.173000097E0,1.510050058E0,2.709719672E0
5.928592310E-1,1.959000111E0,1.096050024E0,1.585950017E0,2.748498598E0
5.948215150E-1,1.920000076E0,1.018950105E0,1.663050056E0,2.736858618E0
5.967839250E-1,1.843950033E0,9.810000658E-1,1.624950051E0,2.646313572E0
5.987463150E-1,1.804950118E0,8.659500480E-1,1.663050056E0,2.602585234E0
6.007087350E-1,1.767000079E0,8.280000687E-1,1.663050056E0,2.563905006E0
6.026708900E-1,1.767000079E0,7.890000343E-1,1.624950051E0,2.526909773E0
6.046331220E-1,1.651950121E0,7.129500508E-1,1.663050056E0,2.450096419E0
6.065953970E-1,1.537050128E0,6.739500165E-1,1.585950017E0,2.309105709E0
6.085576590E-1,1.498950124E0,6.739500165E-1,1.548000097E0,2.257734351E0
6.105201650E-1,1.384050012E0,5.590500236E-1,1.510050058E0,2.123295208E0
6.124825920E-1,1.345050097E0,5.590500236E-1,1.471050024E0,2.070189572E0
6.144447450E-1,1.269000053E0,5.209500194E-1,1.432950020E0,1.983707594E0
6.164069780E-1,1.230000019E0,5.209500194E-1,1.279950023E0,1.850016495E0
6.183690730E-1,1.153950095E0,5.209500194E-1,1.203000069E0,1.746481867E0
6.203312090E-1,1.077000022E0,4.440000355E-1,1.126049995E0,1.620201738E0
6.222931660E-1,1.039050102E0,4.440000355E-1,1.050000072E0,1.542485428E0
6.242551890E-1,1.000050068E0,4.440000355E-1,9.730500579E-1,1.464261788E0
6.262172290E-1,9.240000248E-1,4.440000355E-1,8.959500194E-1,1.361483938E0
6.281792640E-1,8.850000501E-1,4.830000103E-1,8.200500607E-1,1.299613866E0
6.301414390E-1,9.240000248E-1,4.440000355E-1,7.050000429E-1,1.244161219E0
6.321035720E-1,8.089500666E-1,4.830000103E-1,6.660000086E-1,1.153796009E0
6.340659030E-1,8.089500666E-1,5.209500194E-1,6.660000086E-1,1.170190217E0
6.360281490E-1,8.089500666E-1,5.590500236E-1,5.130000114E-1,1.109101506E0
6.379901080E-1,7.699500322E-1,5.590500236E-1,4.750500321E-1,1.063500124E0
6.399521510E-1,6.940500140E-1,5.590500236E-1,5.130000114E-1,1.028305092E0
6.419141890E-1,6.940500140E-1,5.980500579E-1,3.979500234E-1,9.988661146E-1
6.438762280E-1,6.550500393E-1,5.980500579E-1,3.979500234E-1,9.721721282E-1
6.458383620E-1,5.790000558E-1,5.980500579E-1,3.600000143E-1,9.069205845E-1
6.478004950E-1,6.169500351E-1,5.980500579E-1,3.600000143E-1,9.316067989E-1
6.497629680E-1,4.260000288E-1,6.360000372E-1,2.070000172E-1,7.929823951E-1
6.517253410E-1,3.490500152E-1,5.590500236E-1,2.070000172E-1,6.908124558E-1
6.536876830E-1,2.719500065E-1,5.209500194E-1,2.070000172E-1,6.230527552E-1
6.556500350E-1,2.340000123E-1,5.209500194E-1,2.070000172E-1,6.074487102E-1
6.576123400E-1,1.570500135E-1,4.830000103E-1,2.070000172E-1,5.484548512E-1
6.595746560E-1,8.100000024E-2,4.440000355E-1,2.830500007E-1,5.327422777E-1
6.615365570E-1,-3.299999982E-2,4.440000355E-1,4.360500276E-1,6.231891030E-1
6.634985790E-1,-3.299999982E-2,4.060500264E-1,4.360500276E-1,5.967455492E-1
6.654613400E-1,-1.099500060E-1,4.060500264E-1,5.509500504E-1,6.931894299E-1
6.674238840E-1,-1.870500147E-1,3.679500222E-1,7.429500222E-1,8.499115615E-1
6.693860930E-1,-2.629500031E-1,3.679500222E-1,8.959500194E-1,1.003621622E0
6.713484110E-1,-3.400500119E-1,2.910000086E-1,1.050000072E0,1.141409289E0
6.733108960E-1,-3.400500119E-1,2.140500098E-1,1.279950023E0,1.341537729E0
6.752733320E-1,-3.780000210E-1,2.530499995E-1,1.356000066E0,1.430263786E0
6.772356640E-1,-5.320500135E-1,2.140500098E-1,1.471050024E0,1.578886569E0
6.791980260E-1,-6.079500318E-1,2.140500098E-1,1.585950017E0,1.711916500E0
6.811604880E-1,-6.850500107E-1,2.140500098E-1,1.777950048E0,1.917346421E0
6.831229320E-1,-7.230000496E-1,2.910000086E-1,2.046000004E0,2.189412271E0
6.850855770E-1,-8.380500674E-1,2.140500098E-1,2.275950193E0,2.434767875E0
6.870481630E-1,-8.770500422E-1,1.759500057E-1,2.506050110E0,2.660913816E0
6.890110990E-1,-9.919500351E-1,1.380000114E-1,2.545050144E0,2.735011721E0
6.909739320E-1,-1.030050039E0,6.105000153E-2,2.698050022E0,2.888633606E0
6.929372510E-1,-1.068000078E0,-1.500000060E-2,2.851050138E0,3.044558434E0
6.949004140E-1,-1.068000078E0,-9.105000645E-2,2.851050138E0,3.045882657E0
6.968628010E-1,-1.068000078E0,-1.290000081E-1,2.851050138E0,3.047253199E0
6.988254160E-1,-1.068000078E0,-1.680000126E-1,2.851050138E0,3.049153172E0
7.007880310E-1,-9.919500351E-1,-1.680000126E-1,2.698050022E0,2.879524752E0
7.027506460E-1,-8.770500422E-1,-2.440500110E-1,2.467950106E0,2.630504687E0
7.047132460E-1,-6.850500107E-1,-3.589500189E-1,2.314950228E0,2.440723907E0
7.066758610E-1,-3.400500119E-1,-4.360500276E-1,2.122950077E0,2.193784553E0
7.086388370E-1,4.050000105E-3,-5.890500546E-1,1.893000126E0,1.982535207E0
7.106017070E-1,1.960500032E-1,-6.280500293E-1,1.663050056E0,1.788468040E0
7.125653600E-1,4.260000288E-1,-6.660000086E-1,1.432950020E0,1.636575020E0
7.145287840E-1,7.320000529E-1,-7.810500264E-1,1.203000069E0,1.610301955E0
7.164915820E-1,9.240000248E-1,-8.190000653E-1,8.200500607E-1,1.482234548E0
7.184545600E-1,1.153950095E0,-9.340500236E-1,4.360500276E-1,1.547316999E0
7.204175190E-1,1.306950092E0,-1.011000037E0,9.195000678E-2,1.654900125E0
7.223804830E-1,1.384050012E0,-1.048950076E0,-2.140500098E-1,1.749773729E0
7.243430390E-1,1.537050128E0,-1.126049995E0,-5.209500194E-1,1.975322913E0
7.263057140E-1,1.651950121E0,-1.203000069E0,-8.659500480E-1,2.219463416E0
7.282679580E-1,1.804950118E0,-1.203000069E0,-1.057050109E0,2.412966852E0
7.302303290E-1,1.843950033E0,-1.279050112E0,-1.210950017E0,2.550004090E0
7.321931660E-1,1.920000076E0,-1.279050112E0,-1.249050021E0,2.623451055E0
7.341558660E-1,1.959000111E0,-1.279050112E0,-1.516950130E0,2.788330741E0
7.361184680E-1,2.074050188E0,-1.318050027E0,-1.555950046E0,2.908594265E0
7.380810980E-1,2.188950062E0,-1.318050027E0,-1.747050047E0,3.095309696E0
7.400437110E-1,2.149950027E0,-1.279050112E0,-1.824000120E0,3.096002382E0
7.420063290E-1,2.149950027E0,-1.279050112E0,-1.977000117E0,3.188539442E0
7.439690780E-1,2.149950027E0,-1.318050027E0,-2.245050192E0,3.376357706E0
7.459317890E-1,2.188950062E0,-1.318050027E0,-2.437050104E0,3.531001481E0
7.478945680E-1,2.227050066E0,-1.393950105E0,-2.704950094E0,3.770889007E0
7.498573270E-1,2.341950178E0,-1.393950105E0,-2.935050249E0,4.005289939E0
7.518195850E-1,2.380050182E0,-1.393950105E0,-3.127050161E0,4.169673665E0
7.537820030E-1,2.457000017E0,-1.432950020E0,-3.241950035E0,4.312822147E0
7.557447860E-1,2.572050095E0,-1.471050024E0,-3.280050039E0,4.420198878E0
7.577074620E-1,2.572050095E0,-1.432950020E0,-3.127050161E0,4.295023884E0
7.596698880E-1,2.533950090E0,-1.318050027E0,-2.704950094E0,3.933816715E0
7.616323870E-1,2.419050217E0,-1.203000069E0,-2.092050076E0,3.416970388E0
7.635948460E-1,2.265000105E0,-1.126049995E0,-1.441050053E0,2.911157729E0
7.655573140E-1,2.149950027E0,-1.011000037E0,-8.269500136E-1,2.515601821E0
7.675197740E-1,1.920000076E0,-1.011000037E0,-2.520000041E-1,2.184496594E0
7.694822370E-1,1.614000082E0,-1.011000037E0,1.300500035E-1,1.908934348E0
7.714438420E-1,1.422000051E0,-1.087950110E0,4.360500276E-1,1.842785721E0
7.734056990E-1,1.306950092E0,-1.164000034E0,7.429500222E-1,1.901312536E0
7.753684220E-1,1.192050099E0,-1.279050112E0,9.349500537E-1,1.982696202E0
7.773308750E-1,1.039050102E0,-1.393950105E0,1.126049995E0,2.071403051E0
7.792935630E-1,9.619500637E-1,-1.585950017E0,1.126049995E0,2.169924877E0
7.812561820E-1,8.850000501E-1,-1.738950133E0,1.165050030E0,2.272556760E0
7.832186180E-1,8.850000501E-1,-1.930950046E0,1.240950108E0,2.460030556E0
7.851811080E-1,8.470500112E-1,-2.083950043E0,1.203000069E0,2.550990135E0
7.871435340E-1,7.699500322E-1,-2.275950193E0,1.203000069E0,2.687002326E0
7.891059690E-1,6.940500140E-1,-2.467050076E0,1.050000072E0,2.769574272E0
7.910679390E-1,5.790000558E-1,-2.506050110E0,1.050000072E0,2.778133972E0
7.930300460E-1,5.020500422E-1,-2.581950188E0,1.126049995E0,2.861207719E0
7.949925220E-1,4.639500082E-1,-2.467050076E0,1.240950108E0,2.800275496E0
7.969548900E-1,3.870000243E-1,-2.428950071E0,1.279950023E0,2.772695354E0
7.989175000E-1,3.870000243E-1,-2.391000032E0,1.395000100E0,2.795116358E0
8.008800730E-1,3.109500110E-1,-2.314050198E0,1.395000100E0,2.719842552E0
8.028425620E-1,2.719500065E-1,-2.238000154E0,1.395000100E0,2.651155744E0
8.048050750E-1,2.340000123E-1,-2.199000120E0,1.432950020E0,2.635090756E0
8.067678420E-1,2.719500065E-1,-2.161050081E0,1.548000097E0,2.672152421E0
8.087305340E-1,1.189500093E-1,-2.161050081E0,1.548000097E0,2.660937966E0
8.106933410E-1,-3.299999982E-2,-2.238000154E0,1.624950051E0,2.765898834E0
8.126560970E-1,-1.099500060E-1,-2.275950193E0,2.391000032E0,3.302865338E0
8.146186890E-1,-2.250000089E-1,-2.351999998E0,3.234000206E0,4.005157466E0
8.165813290E-1,-4.549500346E-1,-2.506050110E0,4.078050137E0,4.808093136E0
8.185438050E-1,-7.230000496E-1,-2.773950100E0,4.461000443E0,5.302645866E0
8.205063290E-1,-8.770500422E-1,-2.926950216E0,4.996950150E0,5.857112355E0
8.224688990E-1,-9.150000215E-1,-3.349050045E0,5.380950451E0,6.403748043E0
8.244314660E-1,-1.030050039E0,-4.000950336E0,5.686950207E0,7.029225372E0
8.263939560E-1,-1.642950058E0,-6.874950409E0,6.492000103E0,9.597410763E0
8.283564680E-1,-3.943050146E0,-1.929300117E1,4.498950005E0,2.019921013E1
8.303192350E-1,-9.577050209E0,-3.121305084E1,3.273000240E0,3.281290850E1
8.322819280E-1,-1.785600090E1,-3.830400085E1,3.963000298E0,4.244689177E1
8.342444040E-1,-2.226300049E1,-4.934205246E1,3.618000269E0,5.425282719E1
8.362069060E-1,-2.122905159E1,-6.317805481E1,6.186000347E0,6.693583376E1
8.381693600E-1,-1.808595085E1,-7.452300262E1,9.597000122E0,7.728442243E1
8.401318290E-1,-1.601595116E1,-7.850895691E1,1.231800079E1,8.106725695E1
8.420943330E-1,-1.314105034E1,-7.850895691E1,1.557600117E1,8.111075965E1
8.440568270E-1,-8.082000732E0,-7.850895691E1,1.867995071E1,8.110435013E1
8.460205100E-1,-5.700000525E-1,-7.850895691E1,1.837395096E1,8.063239603E1
8.479838370E-1,6.940950394E0,-7.850895691E1,1.553805065E1,8.033221101E1
8.499467370E-1,1.541205120E1,-7.850895691E1,1.193505096E1,8.089272575E1
8.519097620E-1,2.629695129E1,-7.850895691E1,-6.460950375E0,8.304775639E1
8.538724420E-1,4.335195160E1,-7.850895691E1,-4.636095047E1,1.009573462E2
8.558352240E-1,4.944705200E1,-7.850895691E1,-5.053800201E1,1.056539489E2
8.577976710E-1,5.442900085E1,-7.850895691E1,-5.563605118E1,1.105510861E2
8.597602190E-1,5.258895111E1,-7.850895691E1,-4.590105057E1,1.050531320E2
8.617226660E-1,4.622700119E1,-7.850895691E1,-2.972595215E1,9.583435806E1
8.636851420E-1,3.591705322E1,-7.318200684E1,-1.439505100E1,8.278199279E1
8.656468800E-1,2.533800125E1,-5.988195419E1,-2.169000149E0,6.505818401E1
8.676088340E-1,1.702095032E1,-4.949505234E1,5.611050129E0,5.263987879E1
8.695711650E-1,1.054395008E1,-4.129305267E1,1.078500080E1,4.396142997E1
8.715333790E-1,5.983050346E0,-3.439395142E1,1.273995018E1,3.716244228E1
8.734946680E-1,2.457000017E0,-2.864505196E1,1.224105072E1,3.124770669E1
8.754562280E-1,-1.480500102E-1,-2.427600098E1,9.865050316E0,2.620430041E1
8.774186180E-1,-2.332950115E0,-2.071095085E1,6.376950264E0,2.179567930E1
8.793807640E-1,-3.291000128E0,-1.787505150E1,3.502950191E0,1.850996510E1
8.813438060E-1,-2.830950022E0,-1.584405041E1,1.356000066E0,1.615199516E1
8.833065960E-1,-2.026050091E0,-1.427205086E1,-6.739500165E-1,1.443088782E1
8.852688220E-1,-1.183050036E0,-1.335300064E1,-1.632000089E0,1.350428294E1
8.872312140E-1,-7.999500632E-1,-1.266300106E1,-1.632000089E0,1.279276906E1
8.891938660E-1,-8.380500674E-1,-1.212600040E1,-1.594050050E0,1.225900523E1
8.911564420E-1,-8.770500422E-1,-1.197300053E1,-1.555950046E0,1.210549210E1
8.931188810E-1,-9.919500351E-1,-1.204905033E1,-1.096050024E0,1.213939473E1
8.950813630E-1,-1.068000078E0,-1.227900028E1,-4.819500148E-1,1.233477798E1
8.970427840E-1,-6.850500107E-1,-1.266300106E1,-9.900000691E-2,1.268190405E1
8.990045160E-1,-1.870500147E-1,-1.331400108E1,6.280500293E-1,1.333011851E1
9.009672820E-1,8.100000024E-2,-1.392705059E1,1.279950023E0,1.398597766E1
9.029297450E-1,5.410500169E-1,-1.465605068E1,1.471050024E0,1.473962499E1
9.048929360E-1,1.039050102E0,-1.557600117E1,1.663050056E0,1.569895452E1
9.068559080E-1,1.192050099E0,-1.634205055E1,1.930950046E0,1.649885353E1
9.088182380E-1,1.114950061E0,-1.691700172E1,1.893000126E0,1.705905948E1
9.107807560E-1,1.000050068E0,-1.749195099E1,2.085000038E0,1.764413995E1
9.127430730E-1,8.850000501E-1,-1.787505150E1,2.161050081E0,1.802694729E1
9.147054490E-1,9.240000248E-1,-1.833495140E1,2.467950106E0,1.852336353E1
9.166679150E-1,9.619500637E-1,-1.867995071E1,2.773950100E0,1.890927565E1
9.186303610E-1,9.240000248E-1,-1.883295059E1,2.928000212E0,1.908158770E1
9.205933660E-1,8.850000501E-1,-1.883295059E1,3.118950129E0,1.910997391E1
9.225562070E-1,8.470500112E-1,-1.871805000E1,3.349050045E0,1.903415419E1
9.245187400E-1,9.619500637E-1,-1.860300064E1,3.310950041E0,1.891981424E1
9.264813630E-1,1.192050099E0,-1.848795128E1,3.234000206E0,1.880649046E1
9.284437870E-1,1.230000019E0,-1.825800133E1,2.965950251E0,1.853818690E1
9.304062760E-1,1.077000022E0,-1.783695030E1,2.659050226E0,1.806619144E1
9.323687330E-1,1.077000022E0,-1.745400047E1,2.467950106E0,1.766048808E1
9.343311990E-1,1.114950061E0,-1.699394989E1,2.353049994E0,1.719227416E1
9.362938840E-1,1.000050068E0,-1.649505043E1,2.046000004E0,1.665151359E1
9.382565040E-1,1.000050068E0,-1.595895100E1,2.046000004E0,1.612061826E1
9.402191100E-1,1.192050099E0,-1.553700066E1,2.008050203E0,1.571151293E1
9.421817270E-1,1.269000053E0,-1.515405083E1,2.238000154E0,1.537089009E1
9.441443420E-1,1.269000053E0,-1.469400024E1,2.200050116E0,1.491188200E1
9.461069580E-1,1.345050097E0,-1.434900093E1,2.122950077E0,1.456742615E1
9.480695280E-1,1.384050012E0,-1.396605110E1,2.238000154E0,1.421178463E1
9.500321120E-1,1.459950089E0,-1.346700096E1,2.161050081E0,1.371720477E1
9.519945880E-1,1.575000048E0,-1.300800037E1,2.200050116E0,1.328641861E1
9.539571020E-1,1.614000082E0,-1.250895023E1,2.200050116E0,1.280308762E1
9.559193290E-1,1.614000082E0,-1.197300053E1,2.200050116E0,1.227998202E1
9.578816400E-1,1.690050125E0,-1.147395039E1,2.085000038E0,1.178367651E1
9.598441260E-1,1.843950033E0,-1.093800068E1,2.046000004E0,1.127945595E1
9.618065610E-1,2.074050188E0,-1.047795010E1,1.969950080E0,1.086139152E1
9.637690420E-1,2.227050066E0,-9.865050316E0,1.777950048E0,1.026840183E1
9.657314990E-1,2.380050182E0,-9.250950813E0,1.585950017E0,9.682973060E0
9.676939610E-1,2.533950090E0,-8.677050591E0,1.432950020E0,9.152347009E0
9.696564220E-1,2.649000168E0,-8.101950645E0,1.318050027E0,8.625315184E0
9.716185690E-1,2.764050245E0,-7.488000393E0,1.126049995E0,8.060900212E0
9.735808080E-1,2.955000162E0,-6.874950409E0,9.730500579E-1,7.546111283E0
9.755434810E-1,2.955000162E0,-6.223950386E0,7.429500222E-1,6.929758950E0
9.775059990E-1,2.839950085E0,-5.610000134E0,5.899500251E-1,6.315493568E0
9.794683170E-1,2.878050089E0,-5.074050426E0,4.360500276E-1,5.849726461E0
9.814306930E-1,2.764050245E0,-4.575000286E0,3.220500052E-1,5.354840575E0
9.833938440E-1,2.610000134E0,-3.961950302E0,1.680000126E-1,4.747354516E0
9.853567680E-1,2.494950056E0,-3.463950157E0,5.295000225E-2,4.269254054E0
9.873191940E-1,2.419050217E0,-2.965950251E0,5.295000225E-2,3.827723676E0
9.892817360E-1,2.265000105E0,-2.506050110E0,-9.900000691E-2,3.379395453E0
9.912438230E-1,2.227050066E0,-2.083950043E0,-9.900000691E-2,3.051622647E0
9.932060440E-1,2.035050154E0,-1.701000094E0,-2.520000041E-1,2.664269966E0
9.951681860E-1,1.996950150E0,-1.356000066E0,-4.060500264E-1,2.447738283E0
9.971303520E-1,1.959000111E0,-1.087950110E0,-4.440000355E-1,2.284393335E0
9.990928540E-1,1.882050037E0,-7.810500264E-1,-6.739500165E-1,2.146243255E0
1.001055264E0,1.843950033E0,-5.130000114E-1,-7.510500550E-1,2.056063453E0
1.003017600E0,1.882050037E0,-3.210000098E-1,-8.659500480E-1,2.096430976E0
1.004979958E0,1.996950150E0,-1.680000126E-1,-9.420000315E-1,2.214361751E0
1.006942391E0,2.111999989E0,-1.290000081E-1,-1.018950105E0,2.348498301E0
1.008904802E0,2.304000139E0,-5.295000225E-2,-1.096050024E0,2.551969044E0
1.010866583E0,2.380050182E0,9.900000691E-2,-1.171950102E0,2.654789429E0
1.012828559E0,2.380050182E0,2.140500098E-1,-1.171950102E0,2.661564074E0
1.014791418E0,2.457000017E0,3.289500177E-1,-1.326000094E0,2.811286796E0
1.016754018E0,2.533950090E0,4.830000103E-1,-1.441050053E0,2.954795649E0
1.018716681E0,2.610000134E0,5.980500579E-1,-1.479000092E0,3.058955024E0
1.020679326E0,2.764050245E0,6.739500165E-1,-1.708950043E0,3.318839049E0
1.022641878E0,2.839950085E0,7.890000343E-1,-1.861950040E0,3.486358485E0
1.024604468E0,2.878050089E0,8.659500480E-1,-2.130000114E0,3.683740258E0
1.026566772E0,2.992950201E0,9.810000658E-1,-2.359950066E0,3.935667205E0
1.028529160E0,3.031950235E0,1.057950020E0,-2.514000177E0,4.078256658E0
1.030491633E0,2.955000162E0,1.134000063E0,-2.743950129E0,4.188943114E0
1.032454081E0,2.992950201E0,1.249050021E0,-3.049950123E0,4.451974013E0
1.034416685E0,2.992950201E0,1.326000094E0,-3.319050074E0,4.661772254E0
1.036379240E0,3.108000040E0,1.402950048E0,-3.472050190E0,4.866525003E0
1.038341506E0,3.223050117E0,1.441050053E0,-3.664050102E0,5.088215843E0
1.040303857E0,3.300000191E0,1.518000126E0,-3.894000292E0,5.325182055E0
1.042266381E0,3.453000069E0,1.594050050E0,-4.123950005E0,5.609916994E0
1.044228855E0,3.568050146E0,1.633050084E0,-4.392000198E0,5.889609509E0
1.046191121E0,3.682950258E0,1.671000123E0,-4.507050037E0,6.055564718E0
1.048153458E0,3.837000132E0,1.708950043E0,-4.660050392E0,6.273687107E0
1.050115895E0,3.990000248E0,1.708950043E0,-4.660050392E0,6.368412823E0
1.052078302E0,4.105050087E0,1.708950043E0,-4.468050003E0,6.303603517E0
1.054040998E0,4.219950199E0,1.747950077E0,-4.276950359E0,6.257444649E0
1.056003610E0,4.372950077E0,1.747950077E0,-4.084949970E0,6.234166994E0
1.057966153E0,4.488000393E0,1.786050081E0,-3.625050068E0,6.039297179E0
1.059928737E0,4.680000305E0,1.747950077E0,-3.165000200E0,5.913963020E0
1.061891537E0,4.872000217E0,1.786050081E0,-2.629050016E0,5.817066701E0
1.063854273E0,4.987050056E0,1.747950077E0,-2.092050076E0,5.683543899E0
1.065816914E0,5.062950134E0,1.747950077E0,-1.479000092E0,5.556638805E0
1.067779583E0,5.025000095E0,1.708950043E0,-9.040500522E-1,5.384091632E0
1.069741644E0,5.062950134E0,1.747950077E0,-2.140500098E-1,5.360467418E0
1.071703886E0,5.025000095E0,1.747950077E0,3.220500052E-1,5.330072386E0
1.073666385E0,4.987050056E0,1.786050081E0,9.730500579E-1,5.385858295E0
1.075628808E0,4.948050022E0,1.786050081E0,1.510050058E0,5.472972236E0
1.077591456E0,4.872000217E0,1.824000120E0,1.816050053E0,5.510117998E0
1.079554038E0,4.795050144E0,1.824000120E0,2.275950193E0,5.612435443E0
1.081516814E0,4.564949989E0,1.863000035E0,2.659050226E0,5.601793074E0
1.083479519E0,4.372950077E0,1.863000035E0,2.851050138E0,5.542738349E0
1.085441804E0,4.143000126E0,1.900950074E0,2.965950251E0,5.438283012E0
1.087404213E0,3.798000097E0,1.900950074E0,3.118950129E0,5.269370534E0
1.089366637E0,3.568050146E0,1.824000120E0,3.388050079E0,5.247555776E0
1.091329057E0,3.184950113E0,1.671000123E0,3.618000269E0,5.101575696E0
1.093291638E0,2.764050245E0,1.402950048E0,3.847950220E0,4.941150017E0
1.095254220E0,2.419050217E0,1.173000097E0,3.924000263E0,4.756628138E0
1.097216841E0,2.149950027E0,7.510500550E-1,3.733050108E0,4.372873702E0
1.099179451E0,1.804950118E0,4.060500264E-1,3.426000118E0,3.893609940E0
1.101142068E0,1.459950089E0,2.530499995E-1,3.043050051E0,3.384618468E0
1.103104682E0,1.269000053E0,1.380000114E-1,2.698050022E0,2.984774541E0
1.105068073E0,1.192050099E0,-5.295000225E-2,2.391000032E0,2.672202892E0
1.107031230E0,1.077000022E0,-1.680000126E-1,2.122950077E0,2.386434596E0
1.108993709E0,1.000050068E0,-1.680000126E-1,1.930950046E0,2.181030083E0
1.110956386E0,7.699500322E-1,-1.290000081E-1,1.740000129E0,1.907108938E0
1.112917909E0,4.639500082E-1,-1.680000126E-1,1.548000097E0,1.624739338E0
1.114879771E0,3.109500110E-1,-1.680000126E-1,1.510050058E0,1.550859469E0
1.116842705E0,1.189500093E-1,-2.059500068E-1,1.432950020E0,1.452553018E0
1.118805317E0,1.570500135E-1,-2.440500110E-1,1.432950020E0,1.462043390E0
1.120767978E0,1.570500135E-1,-2.440500110E-1,1.432950020E0,1.462043390E0
1.122730625E0,1.189500093E-1,-2.440500110E-1,1.432950020E0,1.458442756E0
1.124693731E0,1.189500093E-1,-2.830500007E-1,1.432950020E0,1.465473359E0
1.126656702E0,8.100000024E-2,-3.210000098E-1,1.432950020E0,1.470696354E0
1.128619312E0,4.200000316E-2,-3.210000098E-1,1.395000100E0,1.432072025E0
1.130582021E0,8.100000024E-2,-2.830500007E-1,1.318050027E0,1.350531072E0
1.132544575E0,4.050000105E-3,-2.059500068E-1,1.240950108E0,1.257930434E0
1.134507175E0,4.050000105E-3,-2.059500068E-1,1.203000069E0,1.220508490E0
1.136469792E0,4.050000105E-3,-1.680000126E-1,1.087950110E0,1.100852329E0
1.138432404E0,4.050000105E-3,-1.680000126E-1,1.011000037E0,1.024871447E0
1.140394877E0,4.050000105E-3,-1.290000081E-1,9.349500537E-1,9.438161937E-1
1.142357397E0,-3.299999982E-2,-1.290000081E-1,9.349500537E-1,9.443842465E-1
1.144319803E0,-7.200000435E-2,-1.680000126E-1,8.580000401E-1,8.772525712E-1
1.146282243E0,-3.299999982E-2,-1.680000126E-1,8.200500607E-1,8.377321209E-1
1.148244888E0,-1.099500060E-1,-1.680000126E-1,8.959500194E-1,9.181717951E-1
1.150207472E0,-1.099500060E-1,-1.680000126E-1,9.349500537E-1,9.562659729E-1
1.152170059E0,-7.200000435E-2,-1.680000126E-1,9.349500537E-1,9.526487326E-1
1.154132669E0,-1.870500147E-1,-1.680000126E-1,9.349500537E-1,9.681649215E-1
1.156095286E0,-2.250000089E-1,-1.680000126E-1,9.349500537E-1,9.762072583E-1
1.158057900E0,-2.629500031E-1,-2.059500068E-1,9.730500579E-1,1.028778171E0
1.160020696E0,-3.780000210E-1,-2.059500068E-1,1.087950110E0,1.170014899E0
1.161983438E0,-4.170000255E-1,-2.059500068E-1,1.203000069E0,1.289772690E0
1.163945990E0,-4.930500090E-1,-2.440500110E-1,1.356000066E0,1.463350572E0
1.165908628E0,-4.549500346E-1,-2.830500007E-1,1.471050024E0,1.565594140E0
1.167871463E0,-4.930500090E-1,-2.830500007E-1,1.510050058E0,1.613526198E0
1.169834241E0,-5.700000525E-1,-3.210000098E-1,1.510050058E0,1.645658605E0
1.171796965E0,-6.079500318E-1,-3.210000098E-1,1.510050058E0,1.659185169E0
1.173759705E0,-6.469500065E-1,-3.210000098E-1,1.510050058E0,1.673868721E0
1.175722139E0,-6.079500318E-1,-3.979500234E-1,1.585950017E0,1.744478409E0
1.177684680E0,-5.320500135E-1,-4.740000367E-1,1.624950051E0,1.774321256E0
1.179647307E0,-4.549500346E-1,-5.890500546E-1,1.663050056E0,1.822003015E0
1.181609909E0,-3.780000210E-1,-6.660000086E-1,1.777950048E0,1.935858053E0
1.183572526E0,-2.629500031E-1,-7.429500222E-1,1.930950046E0,2.085589969E0
1.185535139E0,-7.200000435E-2,-8.190000653E-1,2.085000038E0,2.241243018E0
1.187497916E0,4.050000105E-3,-7.810500264E-1,2.008050203E0,2.154604642E0
1.189460659E0,-3.299999982E-2,-6.660000086E-1,1.740000129E0,1.863396216E0
1.191423613E0,8.100000024E-2,-6.280500293E-1,1.432950020E0,1.566637673E0
1.193386505E0,5.020500422E-1,-6.660000086E-1,9.349500537E-1,1.252893395E0
1.195350650E0,1.000050068E0,-7.429500222E-1,1.300500035E-1,1.252592463E0
1.197314428E0,1.422000051E0,-8.190000653E-1,-6.739500165E-1,1.773993764E0
1.199276885E0,1.996950150E0,-8.959500194E-1,-1.632000089E0,2.730194247E0
1.201239733E0,2.610000134E0,-9.730500579E-1,-2.935050249E0,4.046411630E0
1.203202263E0,3.184950113E0,-1.126049995E0,-4.660050392E0,5.755689835E0
1.205164887E0,3.798000097E0,-1.203000069E0,-6.307950497E0,7.460713999E0
1.207127725E0,4.258049965E0,-1.318050027E0,-7.458000183E0,8.688498841E0
1.209090500E0,4.527000427E0,-1.356000066E0,-7.765050411E0,9.090020734E0
1.211053279E0,4.603050232E0,-1.356000066E0,-7.534950256E0,8.933212355E0
1.213016050E0,4.872000217E0,-1.432950020E0,-7.342950344E0,8.927970186E0
1.214978999E0,4.987050056E0,-1.432950020E0,-6.997950554E0,8.711792352E0
1.216941895E0,5.062950134E0,-1.471050024E0,-6.307950497E0,8.221173378E0
1.218904958E0,5.025000095E0,-1.393950105E0,-5.350050449E0,7.471061682E0
1.220867972E0,4.872000217E0,-1.279050112E0,-4.468050003E0,6.733188408E0
1.222830385E0,4.642050266E0,-1.048950076E0,-3.510000229E0,5.913461638E0
1.224792974E0,4.642050266E0,-8.959500194E-1,-2.514000177E0,5.354582524E0
1.226755548E0,4.680000305E0,-7.039500475E-1,-1.671000123E0,5.018982958E0
1.228718127E0,4.488000393E0,-4.740000367E-1,-8.269500136E-1,4.588100902E0
1.230680073E0,4.335000038E0,-2.830500007E-1,-1.759500057E-1,4.347792663E0
1.232642204E0,4.066950321E0,-1.290000081E-1,3.979500234E-1,4.088409243E0
1.234603982E0,3.760050297E0,-9.105000645E-2,9.730500579E-1,3.884983237E0
1.236565877E0,3.492000103E0,1.380000114E-1,1.356000066E0,3.748579051E0
1.238528614E0,3.108000040E0,4.060500264E-1,1.548000097E0,3.495832544E0
1.240491105E0,2.649000168E0,6.360000372E-1,1.740000129E0,3.232537453E0
1.242454103E0,2.304000139E0,7.890000343E-1,1.893000126E0,3.084540026E0
1.244416952E0,1.882050037E0,1.018950105E0,1.930950046E0,2.882523155E0
1.246379756E0,1.575000048E0,1.134000063E0,1.816050053E0,2.657935117E0
1.248342540E0,1.306950092E0,1.249050021E0,1.510050058E0,2.355524502E0
1.250305127E0,1.039050102E0,1.402950048E0,1.011000037E0,2.017427825E0
1.252267771E0,8.470500112E-1,1.479000092E0,3.220500052E-1,1.734546395E0
1.254230515E0,5.790000558E-1,1.671000123E0,-4.060500264E-1,1.814485905E0
1.256193230E0,5.410500169E-1,1.900950074E0,-1.057050109E0,2.241361470E0
1.258155816E0,4.639500082E-1,2.053950071E0,-1.326000094E0,2.488420534E0
1.260118449E0,2.340000123E-1,2.208000183E0,-1.249050021E0,2.547576646E0
1.262080701E0,1.570500135E-1,2.169000149E0,-8.659500480E-1,2.340746855E0
1.264043065E0,1.189500093E-1,2.092950106E0,-3.670500219E-1,2.128218731E0
1.266004822E0,1.570500135E-1,1.939050078E0,9.195000678E-2,1.947571492E0
1.267966757E0,1.570500135E-1,1.747950077E0,4.360500276E-1,1.808351129E0
1.269929148E0,2.340000123E-1,1.441050053E0,7.050000429E-1,1.621236047E0
1.271891423E0,3.870000243E-1,1.210950017E0,8.580000401E-1,1.533731734E0
1.273854818E0,5.020500422E-1,8.280000687E-1,8.200500607E-1,1.268905221E0
1.275817885E0,6.550500393E-1,2.530499995E-1,5.509500504E-1,8.925641793E-1
1.277781820E0,7.320000529E-1,-2.830500007E-1,5.295000225E-2,7.866035107E-1
1.279745500E0,9.240000248E-1,-8.190000653E-1,-2.520000041E-1,1.260175049E0
1.281707671E0,1.114950061E0,-1.356000066E0,-5.209500194E-1,1.831185064E0
1.283670247E0,1.269000053E0,-1.777950048E0,-5.590500236E-1,2.254773700E0
1.285632868E0,1.306950092E0,-2.199000120E0,-6.360000372E-1,2.635946911E0
1.287595476E0,1.345050097E0,-2.581950188E0,-7.890000343E-1,3.016313576E0
1.289558049E0,1.306950092E0,-2.926950216E0,-1.171950102E0,3.413007933E0
1.291520632E0,1.269000053E0,-3.502050161E0,-2.014950037E0,4.234942753E0
1.293482236E0,1.000050068E0,-4.116000175E0,-2.551950216E0,4.945099341E0
1.295444113E0,4.260000288E-1,-4.422000408E0,-1.555950046E0,4.707073845E0
1.297405773E0,8.100000024E-2,-4.498950005E0,1.300500035E-1,4.501558080E0
1.299367497E0,-1.870500147E-1,-4.651950359E0,1.893000126E0,5.025841157E0
1.301330400E0,-3.019500077E-1,-4.996950150E0,3.196050167E0,5.939311515E0
1.303292957E0,-6.469500065E-1,-5.839950085E0,3.733050108E0,6.961266006E0
1.305255618E0,-1.336950064E0,-7.603050232E0,3.963000298E0,8.677509992E0
1.307218255E0,-2.601000071E0,-9.826050758E0,4.192950249E0,1.099533113E1
1.309180642E0,-3.981000185E0,-1.224105072E1,4.269000053E0,1.356156505E1
1.311143103E0,-5.706000328E0,-1.530705070E1,4.269000053E0,1.688456699E1
1.313105564E0,-7.737000465E0,-1.967700005E1,3.924000263E0,2.150449453E1
1.315068025E0,-1.045905018E1,-2.469705200E1,3.808950186E0,2.708955905E1
1.317030312E0,-1.387005043E1,-3.136605072E1,4.614000320E0,3.460486145E1
1.318992646E0,-1.674405098E1,-3.857205200E1,6.109050274E0,4.249102181E1
1.320955489E0,-1.942695045E1,-4.478100204E1,7.411950588E0,4.937288284E1
1.322918183E0,-2.157405090E1,-5.007000351E1,8.677050591E0,5.520630517E1
1.324880470E0,-2.153505135E1,-5.512995148E1,9.634950638E0,5.996584244E1
1.326842877E0,-1.957995033E1,-6.015105438E1,1.078500080E1,6.417039848E1
1.328805162E0,-1.540305042E1,-6.467295074E1,1.216500092E1,6.758573642E1
1.330767487E0,-9.232050896E0,-6.862095642E1,1.342995071E1,7.052963916E1
1.332731188E0,-1.911000133E0,-7.180200195E1,1.373595047E1,7.312903487E1
1.334694485E0,4.948050022E0,-7.452300262E1,1.270095062E1,7.575932461E1
1.336656849E0,1.169400024E1,-7.678500366E1,9.136950493E0,7.820594794E1
1.338619487E0,1.889895058E1,-7.850895691E1,1.930950046E0,8.077471892E1
1.340583163E0,2.717805099E1,-7.850895691E1,-1.033305073E1,8.372021684E1
1.342546514E0,3.469005203E1,-7.831800079E1,-2.167800140E1,8.835748244E1
1.344508869E0,3.814005280E1,-7.379505157E1,-2.922795105E1,8.806047006E1
1.346471516E0,3.756495285E1,-6.593805695E1,-3.359700012E1,8.299223731E1
1.348433946E0,3.311894989E1,-5.808105087E1,-2.995605087E1,7.326416789E1
1.350396439E0,2.725500107E1,-5.098995209E1,-2.213700104E1,6.191007278E1
1.352359084E0,2.139105034E1,-4.497300339E1,-1.347495079E1,5.159188276E1
1.354321678E0,1.648500061E1,-4.037295151E1,-5.542050362E0,4.395958122E1
1.356283172E0,1.238400078E1,-3.657900238E1,9.349500537E-1,3.862979449E1
1.358244988E0,8.973000526E0,-3.339795303E1,5.533950329E0,3.502231591E1
1.360207604E0,5.944950104E0,-3.063795090E1,8.140049934E0,3.225347857E1
1.362169986E0,3.453000069E0,-2.822400093E1,9.060000420E0,2.984293963E1
1.364132232E0,1.690050125E0,-2.607705116E1,8.524050713E0,2.748687518E1
1.366094521E0,6.169500351E-1,-2.439105034E1,6.876000404E0,2.534922771E1
1.368056337E0,1.189500093E-1,-2.297295189E1,4.690950394E0,2.344729586E1
1.370018291E0,4.050000105E-3,-2.197605133E1,2.467950106E0,2.211419513E1
1.371981920E0,4.200000316E-2,-2.136300087E1,5.899500251E-1,2.137118647E1
1.373945058E0,-3.299999982E-2,-2.086500168E1,-1.057050109E0,2.089178640E1
1.375907545E0,-5.700000525E-1,-2.040495110E1,-2.130000114E0,2.052373820E1
1.377870219E0,-9.919500351E-1,-2.025105095E1,-2.667000055E0,2.044998579E1
1.379832644E0,-9.150000215E-1,-2.025105095E1,-2.284050226E0,2.039997978E1
1.381795142E0,-7.230000496E-1,-2.021295166E1,-1.516950130E0,2.028268428E1
1.383756876E0,-4.549500346E-1,-2.017500114E1,-2.910000086E-1,2.018222812E1
1.385718834E0,-1.480500102E-1,-2.017500114E1,9.349500537E-1,2.019719588E1
1.387681390E0,1.570500135E-1,-2.029005051E1,1.663050056E0,2.035869715E1
1.389643764E0,3.490500152E-1,-2.044305038E1,2.353049994E0,2.058098611E1
1.391606421E0,5.020500422E-1,-2.059605026E1,2.928000212E0,2.080919330E1
1.393568995E0,5.790000558E-1,-2.063505173E1,3.081000090E0,2.087182700E1
1.395531978E0,6.169500351E-1,-2.063505173E1,2.965950251E0,2.085624242E1
1.397494841E0,8.089500666E-1,-2.071095085E1,2.965950251E0,2.093787827E1
1.399457451E0,1.077000022E0,-2.082600021E1,2.851050138E0,2.104781938E1
1.401420142E0,1.306950092E0,-2.098005104E1,2.620950222E0,2.118348508E1
1.403382878E0,1.422000051E0,-2.117100143E1,2.391000032E0,2.135299199E1
1.405345601E0,1.575000048E0,-2.140095139E1,2.161050081E0,2.156737079E1
1.407308199E0,1.804950118E0,-2.159295082E1,1.816050053E0,2.174422700E1
1.409270834E0,2.074050188E0,-2.182305145E1,1.701000094E0,2.198728406E1
1.411233266E0,2.265000105E0,-2.193795013E1,1.585950017E0,2.211151553E1
1.413195757E0,2.494950056E0,-2.201505089E1,1.585950017E0,2.221266483E1
1.415158034E0,2.610000134E0,-2.193795013E1,1.510050058E0,2.214420936E1
1.417120373E0,2.533950090E0,-2.174595070E1,1.510050058E0,2.194510255E1
1.419082675E0,2.494950056E0,-2.159295082E1,1.585950017E0,2.179439236E1
1.421044988E0,2.457000017E0,-2.140095139E1,1.624950051E0,2.160273205E1
1.423007391E0,2.494950056E0,-2.121000099E1,1.777950048E0,2.143011956E1
1.424969730E0,2.494950056E0,-2.098005104E1,1.816050053E0,2.120578589E1
1.426932348E0,2.533950090E0,-2.074995041E1,1.930950046E0,2.099309203E1
1.428894884E0,2.494950056E0,-2.059605026E1,2.046000004E0,2.084725829E1
1.430857513E0,2.494950056E0,-2.032800102E1,1.930950046E0,2.057136285E1
1.432820115E0,2.419050217E0,-1.994505119E1,2.046000004E0,2.019512285E1
1.434782580E0,2.533950090E0,-1.960005188E1,2.314950228E0,1.989828966E1
1.436745098E0,2.686950207E0,-1.921695137E1,2.353049994E0,1.954604220E1
1.438707684E0,2.649000168E0,-1.871805000E1,2.545050144E0,1.907511148E1
1.440670250E0,2.686950207E0,-1.822005081E1,2.506050110E0,1.858682975E1
1.442632740E0,2.764050245E0,-1.779900169E1,2.353049994E0,1.816538685E1
1.444595252E0,2.764050245E0,-1.726200104E1,2.314950228E0,1.763450164E1
1.446557710E0,2.878050089E0,-1.684005165E1,2.238000154E0,1.723018156E1
1.448520180E0,2.802000046E0,-1.622700119E1,1.969950080E0,1.658455532E1
1.450482774E0,2.764050245E0,-1.569000053E1,1.585950017E0,1.601035065E1
1.452445332E0,2.878050089E0,-1.507695103E1,1.356000066E0,1.540897014E1
1.454407643E0,2.917050123E0,-1.450200081E1,1.087950110E0,1.483242544E1
1.456370026E0,2.992950201E0,-1.381200027E1,8.580000401E-1,1.415857573E1
1.458332519E0,3.108000040E0,-1.323795033E1,5.899500251E-1,1.361069558E1
1.460294966E0,3.147000074E0,-1.250895023E1,3.600000143E-1,1.290376090E1
1.462258332E0,3.262050152E0,-1.193400097E1,1.300500035E-1,1.237248008E1
1.464221428E0,3.376950264E0,-1.128300095E1,-1.369500011E-1,1.177831307E1
1.466183917E0,3.300000191E0,-1.063095093E1,-3.289500177E-1,1.113621691E1
1.468146584E0,3.223050117E0,-9.903000832E0,-5.590500236E-1,1.042928638E1
1.470109010E0,3.262050152E0,-9.136050224E0,-9.420000315E-1,9.746576268E0
1.472071507E0,3.108000040E0,-8.485050201E0,-9.810000658E-1,9.089450055E0
1.474034006E0,3.070050240E0,-7.795050144E0,-9.810000658E-1,8.435068248E0
1.475996505E0,3.070050240E0,-7.297050476E0,-1.057050109E0,7.986833481E0
1.477958916E0,2.917050123E0,-6.684000492E0,-1.287000060E0,7.405498846E0
1.479921353E0,2.839950085E0,-6.147000313E0,-1.363950014E0,6.907335881E0
1.481883965E0,2.839950085E0,-5.649000168E0,-1.326000094E0,6.460247335E0
1.483846549E0,2.764050245E0,-5.035050392E0,-1.287000060E0,5.886261578E0
1.485809169E0,2.649000168E0,-4.537050247E0,-1.249050021E0,5.400199329E0
1.487771779E0,2.610000134E0,-4.116000175E0,-1.018950105E0,4.979138224E0
1.489734217E0,2.649000168E0,-3.579000235E0,-9.040500522E-1,4.543539486E0
1.491696705E0,2.649000168E0,-3.081000090E0,-6.739500165E-1,4.118734280E0
1.493659176E0,2.686950207E0,-2.620950222E0,-3.670500219E-1,3.771446301E0
1.495621642E0,2.764050245E0,-2.161050081E0,-1.759500057E-1,3.512985855E0
1.497584103E0,2.725050211E0,-1.624050021E0,-9.900000691E-2,3.173836499E0
1.499546565E0,2.533950090E0,-1.126049995E0,-6.105000153E-2,2.773557058E0
1.501508711E0,2.419050217E0,-7.039500475E-1,-2.205000073E-2,2.519491183E0
1.503470949E0,2.380050182E0,-3.210000098E-1,1.500000060E-2,2.401646285E0
1.505432498E0,2.265000105E0,-9.105000645E-2,1.500000060E-2,2.266879039E0
1.507394252E0,2.074050188E0,1.759500057E-1,1.500000060E-2,2.081554128E0
1.509357014E0,1.959000111E0,4.440000355E-1,9.195000678E-2,2.010788967E0
1.511319481E0,1.804950118E0,7.890000343E-1,1.500000060E-2,1.969921568E0
1.513282167E0,1.729050040E0,9.810000658E-1,1.500000060E-2,1.988014127E0
1.515244789E0,1.575000048E0,1.210950017E0,-2.205000073E-2,1.986834491E0
1.517206999E0,1.459950089E0,1.326000094E0,-1.369500011E-1,1.976989079E0
1.519169329E0,1.422000051E0,1.441050053E0,-9.900000691E-2,2.026946077E0
1.521131633E0,1.345050097E0,1.555950046E0,-2.205000073E-2,2.056848684E0
1.523093944E0,1.269000053E0,1.671000123E0,-9.900000691E-2,2.100572195E0
1.525056611E0,1.230000019E0,1.747950077E0,-2.520000041E-1,2.152146259E0
1.527019173E0,1.114950061E0,1.900950074E0,-3.289500177E-1,2.228212947E0
1.528981479E0,1.039050102E0,1.978050113E0,-4.819500148E-1,2.285734713E0
1.530943863E0,9.240000248E-1,2.053950071E0,-6.739500165E-1,2.350892504E0
1.532906337E0,8.850000501E-1,2.016000032E0,-8.269500136E-1,2.351877451E0
1.534868784E0,8.850000501E-1,2.092950106E0,-1.096050024E0,2.522893357E0
1.536831204E0,8.850000501E-1,2.092950106E0,-1.326000094E0,2.630958282E0
1.538793632E0,8.089500666E-1,2.131050110E0,-1.555950046E0,2.759846975E0
1.540755929E0,8.089500666E-1,2.169000149E0,-1.747050047E0,2.900197532E0
1.542718257E0,8.850000501E-1,2.169000149E0,-2.014950037E0,3.089953136E0
1.544680561E0,1.000050068E0,2.169000149E0,-2.322000027E0,3.331117817E0
1.546642873E0,1.039050102E0,2.131050110E0,-2.667000055E0,3.568457507E0
1.548605224E0,1.114950061E0,2.169000149E0,-2.974050045E0,3.846121287E0
1.550567563E0,1.153950095E0,2.169000149E0,-3.127050161E0,3.976758124E0
1.552530033E0,1.192050099E0,2.208000183E0,-3.319050074E0,4.160810214E0
1.554492442E0,1.230000019E0,2.208000183E0,-3.433950186E0,4.263822080E0
1.556454913E0,1.269000053E0,2.284050226E0,-3.625050068E0,4.468583060E0
1.558417365E0,1.306950092E0,2.245950222E0,-3.817050219E0,4.617605799E0
1.560379828E0,1.345050097E0,2.245950222E0,-3.778950214E0,4.597164005E0
1.562342288E0,1.498950124E0,2.169000149E0,-3.702000141E0,4.544911238E0
1.564304774E0,1.575000048E0,2.169000149E0,-3.625050068E0,4.508455921E0
1.566267235E0,1.729050040E0,2.131050110E0,-3.510000229E0,4.455456230E0
1.568229922E0,1.882050037E0,2.092950106E0,-3.394950151E0,4.410015762E0
1.570192543E0,2.074050188E0,2.092950106E0,-3.204000235E0,4.352900393E0
1.572155114E0,2.188950062E0,2.092950106E0,-3.012000084E0,4.271309755E0
1.574117699E0,2.341950178E0,2.053950071E0,-2.782050133E0,4.176511041E0
1.576080512E0,2.419050217E0,2.053950071E0,-2.629050016E0,4.120973045E0
1.578043249E0,2.494950056E0,2.016000032E0,-2.437050104E0,4.028429610E0
1.580005530E0,2.686950207E0,1.978050113E0,-2.206950188E0,4.000376581E0
1.581967944E0,2.878050089E0,1.978050113E0,-1.824000120E0,3.939902410E0
1.583930233E0,3.070050240E0,1.863000035E0,-1.516950130E0,3.898347766E0
1.585892559E0,3.262050152E0,1.863000035E0,-1.210950017E0,3.946915285E0
1.587855205E0,3.529950142E0,1.747950077E0,-9.420000315E-1,4.050091547E0
1.589817770E0,3.721950293E0,1.633050084E0,-5.590500236E-1,4.102719036E0
1.591780709E0,4.027950287E0,1.441050053E0,-1.759500057E-1,4.281584657E0
1.593743539E0,4.258049965E0,1.288050056E0,1.300500035E-1,4.450502831E0
1.595705083E0,4.564949989E0,1.057950020E0,4.750500321E-1,4.709957450E0
1.597667003E0,4.948050022E0,7.129500508E-1,8.580000401E-1,5.072244165E0
1.599630412E0,5.254950047E0,2.530499995E-1,1.126049995E0,5.380197291E0
1.601593385E0,5.599950314E0,-2.440500110E-1,1.395000100E0,5.776246982E0
1.603555805E0,5.752950191E0,-8.959500194E-1,1.510050058E0,6.014932545E0
1.605518387E0,5.485050201E0,-1.509000063E0,1.585950017E0,5.905767889E0
1.607481007E0,5.178000450E0,-2.008050203E0,1.663050056E0,5.797386460E0
1.609443616E0,4.795050144E0,-2.275950193E0,1.740000129E0,5.585700996E0
1.611406368E0,4.488000393E0,-2.467050076E0,1.740000129E0,5.408889355E0
1.613369078E0,4.182000160E0,-2.697000027E0,1.663050056E0,5.246777103E0
1.615331363E0,3.913050175E0,-2.736000061E0,1.510050058E0,5.007784858E0
1.617293772E0,3.645000219E0,-2.812050104E0,1.510050058E0,4.844987468E0
1.619255882E0,3.337950230E0,-2.851050138E0,1.471050024E0,4.629728588E0
1.621218080E0,3.108000040E0,-2.851050138E0,1.432950020E0,4.454379519E0
1.623180408E0,2.839950085E0,-2.773950100E0,1.432950020E0,4.220599649E0
1.625142696E0,2.610000134E0,-2.697000027E0,1.432950020E0,4.017369239E0
1.627105187E0,2.419050217E0,-2.620950222E0,1.471050024E0,3.858130660E0
1.629067619E0,2.149950027E0,-2.506050110E0,1.471050024E0,3.614769764E0
1.631029906E0,1.920000076E0,-2.428950071E0,1.510050058E0,3.444771389E0
1.632992236E0,1.614000082E0,-2.351999998E0,1.548000097E0,3.245489879E0
1.634955045E0,1.459950089E0,-2.238000154E0,1.548000097E0,3.088106743E0
1.636917706E0,1.306950092E0,-2.122950077E0,1.585950017E0,2.954703543E0
1.638879819E0,1.269000053E0,-2.046000004E0,1.585950017E0,2.883004441E0
1.640842093E0,1.153950095E0,-1.893000126E0,1.585950017E0,2.725855417E0
1.642804586E0,9.619500637E-1,-1.816050053E0,1.624950051E0,2.619894728E0
1.644767014E0,8.850000501E-1,-1.701000094E0,1.624950051E0,2.513382000E0
1.646728387E0,6.940500140E-1,-1.624050021E0,1.585950017E0,2.373706248E0
1.648690079E0,5.410500169E-1,-1.471050024E0,1.585950017E0,2.229789396E0
1.650652491E0,3.870000243E-1,-1.356000066E0,1.663050056E0,2.180422134E0
1.652614692E0,3.109500110E-1,-1.240950108E0,1.548000097E0,2.008220949E0
1.654577018E0,1.570500135E-1,-1.126049995E0,1.585950017E0,1.951381755E0
1.656539307E0,4.050000105E-3,-9.340500236E-1,1.510050058E0,1.775589206E0
1.658501983E0,-3.299999982E-2,-8.190000653E-1,1.471050024E0,1.683994739E0
1.660464542E0,-1.480500102E-1,-7.429500222E-1,1.432950020E0,1.620876090E0
1.662427167E0,-1.870500147E-1,-5.509500504E-1,1.318050027E0,1.440760056E0
1.664389773E0,-1.870500147E-1,-5.130000114E-1,1.240950108E0,1.355770589E0
1.666352211E0,-2.629500031E-1,-4.360500276E-1,1.126049995E0,1.235828031E0
1.668314698E0,-2.250000089E-1,-3.979500234E-1,1.050000072E0,1.145202766E0
1.670277289E0,-3.019500077E-1,-3.589500189E-1,1.011000037E0,1.114513346E0
1.672239850E0,-2.629500031E-1,-2.440500110E-1,8.959500194E-1,9.651059782E-1
1.674202655E0,-3.019500077E-1,-2.830500007E-1,8.200500607E-1,9.185712886E-1
1.676165388E0,-2.629500031E-1,-1.680000126E-1,7.429500222E-1,8.058172522E-1
1.678128209E0,-2.629500031E-1,-1.680000126E-1,7.429500222E-1,8.058172522E-1
1.680091004E0,-3.019500077E-1,-1.680000126E-1,7.050000429E-1,7.851260229E-1
1.682053545E0,-2.629500031E-1,-1.290000081E-1,5.899500251E-1,6.586537317E-1
1.684016160E0,-2.250000089E-1,-1.290000081E-1,5.509500504E-1,6.089433176E-1
1.685978819E0,-1.480500102E-1,-9.105000645E-2,4.360500276E-1,4.694129693E-1
1.687941465E0,-7.200000435E-2,-5.295000225E-2,2.830500007E-1,2.968248747E-1
1.689904436E0,4.050000105E-3,-1.500000060E-2,1.300500035E-1,1.309748294E-1
1.691867312E0,8.100000024E-2,2.295000106E-2,-1.369500011E-1,1.607575982E-1
1.693830609E0,1.189500093E-1,2.295000106E-2,-4.060500264E-1,4.237362756E-1
1.695793779E0,1.960500032E-1,-5.295000225E-2,-6.739500165E-1,7.038806228E-1
1.697755534E0,2.719500065E-1,6.105000153E-2,-1.018950105E0,1.056382139E0
1.699717704E0,2.340000123E-1,6.105000153E-2,-1.632000089E0,1.649820414E0
1.701680395E0,3.490500152E-1,9.900000691E-2,-2.206950188E0,2.236574623E0
1.703642933E0,4.260000288E-1,9.900000691E-2,-2.896950245E0,2.929777764E0
1.705606556E0,5.790000558E-1,2.295000106E-2,-3.625050068E0,3.671070111E0
1.707569827E0,6.940500140E-1,-1.500000060E-2,-4.315050125E0,4.370536352E0
1.709531970E0,8.089500666E-1,-1.500000060E-2,-5.119950294E0,5.183484950E0
1.711494444E0,9.619500637E-1,-1.500000060E-2,-6.078000069E0,6.153670267E0
1.713457578E0,1.077000022E0,-1.290000081E-1,-7.036050320E0,7.119169485E0
1.715420519E0,1.306950092E0,-1.680000126E-1,-7.650000572E0,7.762657490E0
1.717382871E0,1.384050012E0,-2.440500110E-1,-7.726050377E0,7.852834474E0
1.719345416E0,1.459950089E0,-3.589500189E-1,-7.420050144E0,7.570828457E0
1.721307683E0,1.651950121E0,-4.360500276E-1,-6.805950165E0,7.017124516E0
1.723270031E0,1.690050125E0,-5.890500546E-1,-6.154950142E0,6.409887725E0
1.725232377E0,1.767000079E0,-5.890500546E-1,-5.427000046E0,5.737734635E0
1.727194723E0,1.882050037E0,-7.039500475E-1,-4.736999989E0,5.145563808E0
1.729156984E0,1.996950150E0,-7.810500264E-1,-4.123950005E0,4.648097749E0
1.731119267E0,1.996950150E0,-8.190000653E-1,-3.433950186E0,4.055932061E0
1.733081803E0,1.996950150E0,-8.190000653E-1,-2.551950216E0,3.342307723E0
1.735044265E0,1.920000076E0,-7.810500264E-1,-1.632000089E0,2.638155364E0
1.737005781E0,1.843950033E0,-7.429500222E-1,-5.970000029E-1,2.075701198E0
1.738967574E0,1.690050125E0,-5.509500504E-1,4.360500276E-1,1.830288231E0
1.740929430E0,1.498950124E0,-4.360500276E-1,1.432950020E0,2.119041495E0
1.742891298E0,1.345050097E0,-3.210000098E-1,2.238000154E0,2.630749981E0
1.744853501E0,1.192050099E0,-2.440500110E-1,2.773950100E0,3.029082865E0
1.746815605E0,7.320000529E-1,-1.290000081E-1,3.043050051E0,3.132509967E0
1.748776147E0,5.410500169E-1,-5.295000225E-2,3.043050051E0,3.091228305E0
1.750737146E0,3.870000243E-1,2.295000106E-2,2.889000177E0,2.914895838E0
1.752699469E0,3.109500110E-1,1.759500057E-1,2.583000183E0,2.607592426E0
1.754661424E0,1.960500032E-1,3.679500222E-1,2.046000004E0,2.088046656E0
1.756623612E0,1.570500135E-1,5.590500236E-1,1.510050058E0,1.617854386E0
1.758585731E0,1.960500032E-1,6.739500165E-1,1.050000072E0,1.262990253E0
1.760548026E0,3.490500152E-1,7.890000343E-1,6.660000086E-1,1.089914207E0
1.762510270E0,4.639500082E-1,7.510500550E-1,4.750500321E-1,1.002496049E0
1.764473305E0,7.320000529E-1,7.129500508E-1,3.979500234E-1,1.096579260E0
1.766436111E0,1.192050099E0,5.209500194E-1,3.979500234E-1,1.360417797E0
1.768398919E0,1.498950124E0,2.140500098E-1,4.750500321E-1,1.586928295E0
1.770361726E0,1.996950150E0,-9.105000645E-2,5.899500251E-1,2.084260309E0
1.772323949E0,2.380050182E0,-2.830500007E-1,8.959500194E-1,2.558804918E0
1.774286344E0,2.533950090E0,-6.660000086E-1,1.356000066E0,2.950117837E0
1.776248485E0,2.610000134E0,-9.730500579E-1,1.893000126E0,3.367844502E0
1.778210680E0,2.725050211E0,-1.279050112E0,2.659050226E0,4.016517888E0
1.780172646E0,2.802000046E0,-1.509000063E0,3.196050167E0,4.510323948E0
1.782134680E0,2.992950201E0,-1.854000092E0,3.502950191E0,4.966460237E0
1.784096808E0,3.070050240E0,-2.199000120E0,3.655950069E0,5.256118426E0
1.786058909E0,3.337950230E0,-2.544000149E0,3.694050074E0,5.591051282E0
1.788021453E0,3.453000069E0,-2.773950100E0,3.541050196E0,5.670718219E0
1.789983884E0,3.607050180E0,-3.042000055E0,3.081000090E0,5.635347096E0
1.791946172E0,3.721950293E0,-3.349050045E0,2.545050144E0,5.616612006E0
1.793908502E0,3.798000097E0,-3.771000147E0,1.510050058E0,5.561069863E0
1.795871841E0,3.760050297E0,-4.231050014E0,3.220500052E-1,5.669521908E0
1.797834884E0,3.682950258E0,-4.690050125E0,-7.510500550E-1,6.010388421E0
1.799797063E0,3.682950258E0,-5.149950027E0,-1.402050018E0,6.484739944E0
1.801759498E0,3.721950293E0,-5.610000134E0,-2.053950071E0,7.038730452E0
1.803721784E0,3.837000132E0,-6.070050240E0,-2.284050226E0,7.535579962E0
1.805684113E0,3.874950171E0,-6.454050541E0,-2.169000149E0,7.834192291E0
1.807646282E0,3.913050175E0,-7.105050564E0,-1.939050078E0,8.339881318E0
1.809608498E0,3.760050297E0,-8.217000008E0,-1.057050109E0,9.098044971E0
1.811570641E0,3.376950264E0,-1.047795010E1,-9.040500522E-1,1.104574750E1
1.813532805E0,1.920000076E0,-1.354395103E1,-8.659500480E-1,1.370674576E1
1.815494552E0,8.100000024E-2,-1.660995102E1,-7.120500207E-1,1.662540373E1
1.817456421E0,-1.950000048E0,-1.975305176E1,-7.510500550E-1,1.986327340E1
1.819417767E0,-4.057950020E0,-2.458200073E1,9.195000678E-2,2.491485848E1
1.821379267E0,-5.782950401E0,-3.071505165E1,1.087950110E0,3.127363984E1
1.823341847E0,-6.970950127E0,-3.723105240E1,1.318050027E0,3.790095862E1
1.825304111E0,-7.660950184E0,-4.413000107E1,2.008050203E0,4.483502445E1
1.827266426E0,-7.660950184E0,-5.053005219E1,3.618000269E0,5.123540043E1
1.829228726E0,-6.586950302E0,-5.677800369E1,4.000950336E0,5.729866684E1
1.831191757E0,-5.092950344E0,-6.244995117E1,2.583000183E0,6.271049700E1
1.833154573E0,-2.448000193E0,-6.750900269E1,-9.900000691E-2,6.755344513E1
1.835117698E0,1.767000079E0,-7.141905212E1,-3.855000257E0,7.154484134E1
1.837080730E0,6.442950249E0,-7.364205170E1,-7.687950134E0,7.432205570E1
1.839042780E0,1.088895035E1,-7.425495148E1,-1.075395012E1,7.581566132E1
1.841005117E0,1.464495087E1,-7.314405060E1,-1.213395023E1,7.557618323E1
1.842967375E0,1.686795044E1,-7.007700348E1,-1.132905006E1,7.296342607E1
1.844929656E0,1.782600021E1,-6.544005585E1,-8.953050613E0,6.841289577E1
1.846891963E0,1.786500168E1,-5.926905441E1,-6.844950199E0,6.228027327E1
1.848854265E0,1.717500114E1,-5.236995316E1,-4.698000431E0,5.531422842E1
1.850816754E0,1.598700047E1,-4.585395050E1,-3.127050161E0,4.866155981E1
1.852779188E0,1.464495087E1,-4.048800278E1,-1.939050078E0,4.309887319E1
1.854741340E0,1.311195087E1,-3.634905243E1,-1.402050018E0,3.866707401E1
1.856703575E0,1.131105042E1,-3.301500320E1,-1.134000063E0,3.491727730E1
1.858666228E0,9.739050865E0,-3.033195114E1,-1.287000060E0,3.188311059E1
1.860628745E0,8.628000259E0,-2.833905220E1,-1.555950046E0,2.966420821E1
1.862591199E0,8.053050041E0,-2.669100189E1,-1.939050078E0,2.794675495E1
1.864553671E0,7.516050339E0,-2.538705063E1,-2.398950100E0,2.658473836E1
1.866515950E0,7.324050426E0,-2.442900085E1,-2.782050133E0,2.565458244E1
1.868478286E0,6.940950394E0,-2.370105171E1,-3.241950035E0,2.490836977E1
1.870440748E0,6.634950161E0,-2.316405106E1,-3.510000229E0,2.434986502E1
1.872403187E0,6.366000175E0,-2.281905174E1,-3.664050102E0,2.397207425E1
1.874365113E0,5.983050346E0,-2.266605186E1,-3.549000263E0,2.370953820E1
1.876327189E0,5.868000507E0,-2.258895111E1,-3.088950157E0,2.354221220E1
1.878289355E0,5.983050346E0,-2.270400047E1,-2.475000143E0,2.360919640E1
1.880251495E0,6.175050259E0,-2.293395042E1,-1.861950040E0,2.382360564E1
1.882214037E0,6.175050259E0,-2.312595177E1,-1.363950014E0,2.397501304E1
1.884176475E0,5.944950104E0,-2.327895164E1,-8.659500480E-1,2.404166989E1
1.886139121E0,5.523000240E0,-2.343300056E1,-6.360000372E-1,2.408347033E1
1.888101706E0,5.140050411E0,-2.354805183E1,-2.910000086E-1,2.410426403E1
1.890064326E0,4.833000183E0,-2.354805183E1,-2.140500098E-1,2.403985136E1
1.892026936E0,4.603050232E0,-2.358600044E1,-1.369500011E-1,2.403135959E1
1.893989164E0,4.411950111E0,-2.339400101E1,-3.289500177E-1,2.380867058E1
1.895951525E0,4.143000126E0,-2.320305061E1,-4.440000355E-1,2.357420505E1
1.897913823E0,3.913050175E0,-2.297295189E1,-5.970000029E-1,2.331147548E1
1.899876140E0,3.798000097E0,-2.285805130E1,-5.970000029E-1,2.317912257E1
1.901838266E0,3.568050146E0,-2.274300194E1,-6.360000372E-1,2.302997210E1
1.903800448E0,3.415050268E0,-2.258895111E1,-7.120500207E-1,2.285673415E1
1.905762755E0,3.070050240E0,-2.243595123E1,-7.120500207E-1,2.265621618E1
1.907725008E0,2.725050211E0,-2.220600128E1,-5.970000029E-1,2.238054514E1
1.909687326E0,2.380050182E0,-2.197605133E1,-4.440000355E-1,2.210901642E1
1.911649624E0,1.996950150E0,-2.178495026E1,-2.140500098E-1,2.187733268E1
1.913611754E0,1.614000082E0,-2.163105011E1,-6.105000153E-2,2.169126673E1
1.915573933E0,1.345050097E0,-2.151600075E1,2.070000172E-1,2.155899573E1
1.917535353E0,1.114950061E0,-2.155500031E1,5.130000114E-1,2.158991248E1
1.919497001E0,7.699500322E-1,-2.143995094E1,6.660000086E-1,2.146410668E1
1.921458521E0,5.020500422E-1,-2.128605080E1,8.580000401E-1,2.130925097E1
1.923420078E0,1.960500032E-1,-2.117100143E1,1.087950110E0,2.119984370E1
1.925382198E0,-7.200000435E-2,-2.105595016E1,1.279950023E0,2.109494000E1
1.927344153E0,-2.629500031E-1,-2.098005104E1,1.395000100E0,2.102802201E1
1.929306670E0,-5.320500135E-1,-2.082600021E1,1.471050024E0,2.088466783E1
1.931269013E0,-6.469500065E-1,-2.067300034E1,1.548000097E0,2.074096891E1
1.933231360E0,-7.999500632E-1,-2.048100090E1,1.548000097E0,2.055499020E1
1.935193706E0,-7.620000243E-1,-2.029005051E1,1.701000094E0,2.037548024E1
1.937156008E0,-9.150000215E-1,-2.002200127E1,1.816050053E0,2.012500429E1
1.939118323E0,-9.919500351E-1,-1.971495056E1,1.816050053E0,1.982325095E1
1.941081124E0,-1.030050039E0,-1.940805054E1,1.855050087E0,1.952369431E1
1.943043783E0,-1.030050039E0,-1.921695137E1,1.816050053E0,1.933003520E1
1.945006212E0,-1.068000078E0,-1.883295059E1,1.855050087E0,1.895420436E1
1.946968708E0,-8.770500422E-1,-1.856505013E1,1.855050087E0,1.867810252E1
1.948931028E0,-7.620000243E-1,-1.818195152E1,1.816050053E0,1.828830345E1
1.950893400E0,-5.700000525E-1,-1.787505150E1,1.855050087E0,1.798008835E1
1.952856051E0,-3.019500077E-1,-1.760700035E1,1.816050053E0,1.770298486E1
1.954818624E0,-7.200000435E-2,-1.722405052E1,1.816050053E0,1.731967489E1
1.956781067E0,8.100000024E-2,-1.684005165E1,1.816050053E0,1.693788471E1
1.958743549E0,1.960500032E-1,-1.645695114E1,1.663050056E0,1.654192891E1
1.960706007E0,2.719500065E-1,-1.599705029E1,1.585950017E0,1.607777385E1
1.962668472E0,4.639500082E-1,-1.561395073E1,1.624950051E0,1.570513195E1
1.964631759E0,7.320000529E-1,-1.534605026E1,1.510050058E0,1.543753005E1
1.966594826E0,8.470500112E-1,-1.492395115E1,1.548000097E0,1.502791123E1
1.968557230E0,1.077000022E0,-1.450200081E1,1.510050058E0,1.462013022E1
1.970519828E0,1.230000019E0,-1.415700054E1,1.510050058E0,1.429033994E1
1.972482445E0,1.269000053E0,-1.365900040E1,1.471050024E0,1.379647205E1
1.974445056E0,1.306950092E0,-1.316100025E1,1.395000100E0,1.329910040E1
1.976407337E0,1.345050097E0,-1.262400055E1,1.395000100E0,1.277186654E1
1.978369698E0,1.422000051E0,-1.220295048E1,1.356000066E0,1.236013029E1
1.980332491E0,1.422000051E0,-1.166595078E1,1.165050030E0,1.180990403E1
1.982295157E0,1.384050012E0,-1.113000011E1,1.011000037E0,1.126119967E1
1.984257584E0,1.345050097E0,-1.051605034E1,5.899500251E-1,1.061812203E1
1.986220082E0,1.306950092E0,-9.865050316E0,3.220500052E-1,9.956457828E0
1.988183288E0,1.269000053E0,-9.175050735E0,2.070000172E-1,9.264705400E0
1.990146297E0,1.306950092E0,-8.599950790E0,5.295000225E-2,8.698854858E0
1.992108621E0,1.306950092E0,-8.062950134E0,1.500000060E-2,8.168201051E0
1.994071145E0,1.269000053E0,-7.372950554E0,-1.759500057E-1,7.483429656E0
1.996033775E0,1.192050099E0,-6.874950409E0,-5.590500236E-1,6.999890249E0
1.997996374E0,1.192050099E0,-6.262050152E0,-7.510500550E-1,6.418592659E0
1.999958858E0,1.192050099E0,-5.764050484E0,-9.810000658E-1,5.967212293E0
2.001921376E0,1.230000019E0,-5.304000378E0,-1.018950105E0,5.539276069E0
2.003883828E0,1.153950095E0,-4.804950237E0,-1.096050024E0,5.061667044E0
2.005846299E0,1.192050099E0,-4.306950092E0,-1.134000063E0,4.610505252E0
2.007808893E0,1.039050102E0,-3.808950186E0,-1.326000094E0,4.164853285E0
2.009771451E0,8.850000501E-1,-3.271950245E0,-1.402050018E0,3.668055036E0
2.011733195E0,7.320000529E-1,-2.812050104E0,-1.479000092E0,3.260504736E0
2.013695164E0,5.410500169E-1,-2.314050198E0,-1.594050050E0,2.861565830E0
2.015657394E0,3.870000243E-1,-1.893000126E0,-1.632000089E0,2.529158513E0
2.017619547E0,3.870000243E-1,-1.509000063E0,-1.555950046E0,2.201778997E0
2.019581836E0,2.340000123E-1,-1.048950076E0,-1.363950014E0,1.736494143E0
2.021544085E0,2.719500065E-1,-6.660000086E-1,-1.096050024E0,1.311044802E0
2.023506467E0,2.719500065E-1,-3.979500234E-1,-9.040500522E-1,1.024513311E0
2.025468797E0,3.490500152E-1,-1.680000126E-1,-5.209500194E-1,6.491909119E-1
2.027430516E0,3.109500110E-1,-9.105000645E-2,-2.140500098E-1,3.883264345E-1
2.029392414E0,3.109500110E-1,9.900000691E-2,9.195000678E-2,3.390364501E-1
2.031354071E0,4.639500082E-1,2.140500098E-1,5.130000114E-1,7.240414550E-1
2.033315799E0,5.020500422E-1,3.289500177E-1,8.959500194E-1,1.078419583E0
2.035279142E0,5.790000558E-1,4.060500264E-1,1.203000069E0,1.395466536E0
2.037242019E0,6.550500393E-1,6.360000372E-1,1.510050058E0,1.764606976E0
2.039204410E0,6.169500351E-1,6.360000372E-1,1.701000094E0,1.917948048E0
2.041166944E0,6.940500140E-1,7.510500550E-1,1.930950046E0,2.185028532E0
2.043129527E0,8.850000501E-1,7.510500550E-1,2.046000004E0,2.352321681E0
2.045092096E0,1.077000022E0,8.280000687E-1,2.085000038E0,2.488521312E0
2.047054695E0,1.230000019E0,8.659500480E-1,2.046000004E0,2.539465603E0
2.049017302E0,1.345050097E0,8.659500480E-1,2.008050203E0,2.567351722E0
2.050979560E0,1.459950089E0,8.280000687E-1,1.893000126E0,2.529918547E0
2.052941920E0,1.651950121E0,7.510500550E-1,1.701000094E0,2.487250833E0
2.054904038E0,1.843950033E0,8.280000687E-1,1.548000097E0,2.545985102E0
2.056866227E0,1.959000111E0,8.280000687E-1,1.471050024E0,2.585972490E0
2.058828783E0,2.035050154E0,8.280000687E-1,1.395000100E0,2.602506200E0
2.060791229E0,2.111999989E0,8.659500480E-1,1.203000069E0,2.580236928E0
2.062753650E0,2.149950027E0,8.659500480E-1,9.349500537E-1,2.499257131E0
2.064716078E0,2.227050066E0,9.040500522E-1,6.660000086E-1,2.494115977E0
2.066679671E0,2.227050066E0,9.040500522E-1,4.360500276E-1,2.442784911E0
2.068642922E0,2.265000105E0,9.810000658E-1,2.070000172E-1,2.476981149E0
2.070605451E0,2.265000105E0,9.430500269E-1,1.500000060E-2,2.453526814E0
2.072568176E0,2.380050182E0,1.018950105E0,-2.520000041E-1,2.601230899E0
2.074530906E0,2.457000017E0,1.018950105E0,-5.970000029E-1,2.726080961E0
2.076493635E0,2.494950056E0,1.096050024E0,-9.810000658E-1,2.896284269E0
2.078455737E0,2.572050095E0,1.134000063E0,-1.363950014E0,3.124381134E0
2.080418022E0,2.725050211E0,1.173000097E0,-1.939050078E0,3.544254941E0
2.082380453E0,2.878050089E0,1.210950017E0,-2.398950100E0,3.937579693E0
2.084342851E0,3.031950235E0,1.249050021E0,-2.859000206E0,4.350486221E0
2.086305189E0,3.262050152E0,1.249050021E0,-3.357000113E0,4.844641050E0
2.088267545E0,3.492000103E0,1.288050056E0,-4.047000408E0,5.498304281E0
2.090230159E0,3.721950293E0,1.326000094E0,-4.890000343E0,6.286755410E0
2.092192697E0,4.027950287E0,1.288050056E0,-5.542050362E0,6.971210703E0
2.094154992E0,4.411950111E0,1.249050021E0,-6.154950142E0,7.675209508E0
2.096117372E0,4.680000305E0,1.134000063E0,-6.615000248E0,8.182089420E0
2.098079668E0,5.025000095E0,1.057950020E0,-6.844950199E0,8.557057171E0
2.100041988E0,5.293050289E0,9.810000658E-1,-6.768000126E0,8.647807132E0
2.102004293E0,5.599950314E0,9.430500269E-1,-6.768000126E0,8.834852153E0
2.103966603E0,5.830050468E0,8.659500480E-1,-6.538050175E0,8.802582464E0
2.105929084E0,6.021000385E0,7.510500550E-1,-6.117000103E0,8.615927813E0
2.107891519E0,6.175050259E0,6.360000372E-1,-5.542050362E0,8.321662331E0
2.109853985E0,6.328050137E0,4.830000103E-1,-4.927950382E0,8.035060828E0
2.111816442E0,6.405000210E0,4.060500264E-1,-4.200000286E0,7.670000438E0
2.113778860E0,6.442950249E0,3.289500177E-1,-3.472050190E0,7.326318894E0
2.115741290E0,6.328050137E0,2.530499995E-1,-2.667000055E0,6.871764121E0
2.117703591E0,6.289950371E0,9.900000691E-2,-1.977000117E0,6.594073561E0
2.119665920E0,6.175050259E0,2.295000106E-2,-1.287000060E0,6.307784203E0
2.121629124E0,6.060000420E0,6.105000153E-2,-6.360000372E-1,6.093589110E0
2.123592072E0,5.905950069E0,-5.295000225E-2,-9.900000691E-2,5.907017092E0
2.125553775E0,5.752950191E0,-1.680000126E-1,5.509500504E-1,5.781713057E0
2.127515843E0,5.485050201E0,-1.680000126E-1,1.240950108E0,5.626184932E0
2.129478386E0,5.215950012E0,-2.059500068E-1,1.624950051E0,5.467084470E0
2.131440779E0,4.948050022E0,-2.440500110E-1,1.930950046E0,5.317078851E0
2.133403433E0,4.642050266E0,-3.210000098E-1,2.391000032E0,5.231496233E0
2.135366010E0,4.258049965E0,-3.589500189E-1,2.698050022E0,5.053643096E0
2.137328587E0,3.874950171E0,-3.979500234E-1,2.889000177E0,4.849734536E0
2.139291164E0,3.492000103E0,-4.360500276E-1,2.965950251E0,4.602289130E0
2.141253597E0,3.070050240E0,-3.979500234E-1,3.081000090E0,4.367623409E0
2.143216079E0,2.572050095E0,-3.589500189E-1,3.081000090E0,4.029497283E0
2.145178537E0,2.188950062E0,-4.360500276E-1,3.118950129E0,3.835295543E0
2.147141002E0,1.804950118E0,-3.979500234E-1,3.157950163E0,3.659078898E0
2.149103642E0,1.459950089E0,-4.360500276E-1,3.118950129E0,3.471230876E0
2.151066231E0,1.230000019E0,-4.740000367E-1,3.004050255E0,3.280532581E0
2.153028506E0,1.000050068E0,-5.130000114E-1,2.965950251E0,3.171770805E0
2.154990863E0,7.320000529E-1,-5.130000114E-1,2.928000212E0,3.061401367E0
2.156952261E0,5.410500169E-1,-5.509500504E-1,2.812950134E0,2.917013805E0
2.158913940E0,4.639500082E-1,-6.280500293E-1,2.812950134E0,2.919312403E0
2.160876399E0,3.109500110E-1,-7.039500475E-1,2.698050022E0,2.805656697E0
2.162838630E0,2.719500065E-1,-7.039500475E-1,2.620950222E0,2.727431492E0
2.164801312E0,1.960500032E-1,-7.039500475E-1,2.583000183E0,2.684375387E0
2.166763861E0,1.189500093E-1,-6.660000086E-1,2.467950106E0,2.559000360E0
2.168726309E0,1.189500093E-1,-6.280500293E-1,2.314950228E0,2.401580834E0
2.170688786E0,8.100000024E-2,-6.280500293E-1,2.161050081E0,2.251920357E0
2.172651379E0,4.200000316E-2,-5.890500546E-1,2.085000038E0,2.167018488E0
2.174613938E0,4.050000105E-3,-5.509500504E-1,1.969950080E0,2.045547770E0
2.176576448E0,-3.299999982E-2,-5.130000114E-1,1.777950048E0,1.850773997E0
2.178538959E0,-3.299999982E-2,-4.740000367E-1,1.624950051E0,1.692993711E0
2.180501771E0,-1.099500060E-1,-4.360500276E-1,1.510050058E0,1.575588718E0
2.182464495E0,-7.200000435E-2,-4.740000367E-1,1.471050024E0,1.547206582E0
2.184427093E0,-1.099500060E-1,-3.979500234E-1,1.356000066E0,1.417458784E0
2.186389728E0,4.050000105E-3,-4.360500276E-1,1.318050027E0,1.388312610E0
2.188351985E0,4.050000105E-3,-4.360500276E-1,1.203000069E0,1.279595715E0
2.190314349E0,4.200000316E-2,-4.360500276E-1,1.087950110E0,1.172833777E0
2.192276466E0,4.200000316E-2,-3.979500234E-1,9.730500579E-1,1.052119117E0
2.194238656E0,4.200000316E-2,-3.979500234E-1,9.349500537E-1,1.016985656E0
2.196200983E0,4.200000316E-2,-3.979500234E-1,8.580000401E-1,9.467271466E-1
2.198163270E0,4.200000316E-2,-4.360500276E-1,7.810500264E-1,8.955125742E-1
2.200125552E0,8.100000024E-2,-3.979500234E-1,9.730500579E-1,1.054396337E0
2.202087856E0,4.050000105E-3,-4.360500276E-1,9.730500579E-1,1.066293789E0
2.204049985E0,4.200000316E-2,-3.979500234E-1,1.050000072E0,1.123667376E0
2.206012166E0,4.200000316E-2,-3.979500234E-1,1.126049995E0,1.195038415E0
2.207974629E0,4.050000105E-3,-4.740000367E-1,1.240950108E0,1.328401147E0
2.209937010E0,4.200000316E-2,-4.740000367E-1,1.356000066E0,1.437072098E0
2.211899135E0,-3.299999982E-2,-4.740000367E-1,1.432950020E0,1.509672413E0
2.213861329E0,-7.200000435E-2,-4.740000367E-1,1.471050024E0,1.547206582E0
2.215823521E0,-1.480500102E-1,-4.740000367E-1,1.471050024E0,1.552605234E0
2.217785713E0,-1.480500102E-1,-4.740000367E-1,1.510050058E0,1.589605617E0
2.219748040E0,-2.250000089E-1,-5.130000114E-1,1.471050024E0,1.574097262E0
2.221710327E0,-2.629500031E-1,-4.740000367E-1,1.471050024E0,1.567739427E0
2.223672783E0,-3.019500077E-1,-5.509500504E-1,1.432950020E0,1.564629517E0
2.225635183E0,-3.780000210E-1,-4.360500276E-1,1.395000100E0,1.509651921E0
2.227597115E0,-3.400500119E-1,-4.740000367E-1,1.240950108E0,1.371228360E0
2.229559185E0,-3.400500119E-1,-4.740000367E-1,1.087950110E0,1.234481870E0
2.231521758E0,-3.400500119E-1,-5.130000114E-1,7.810500264E-1,9.944054335E-1
2.233484183E0,-2.629500031E-1,-5.509500504E-1,3.979500234E-1,7.287337534E-1
2.235447526E0,-1.480500102E-1,-6.280500293E-1,-2.140500098E-1,6.798404603E-1
2.237410587E0,4.050000105E-3,-7.429500222E-1,-9.810000658E-1,1.230590211E0
2.239373666E0,4.260000288E-1,-7.810500264E-1,-1.900950074E0,2.098839287E0
2.241336740E0,8.089500666E-1,-9.340500236E-1,-2.859000206E0,3.114599787E0
2.243299278E0,1.230000019E0,-1.011000037E0,-3.702000141E0,4.029866768E0
2.245261973E0,1.498950124E0,-1.011000037E0,-4.507050037E0,4.856178805E0
2.247224094E0,1.843950033E0,-1.126049995E0,-5.350050449E0,5.769850962E0
2.249186373E0,2.341950178E0,-1.126049995E0,-6.232050419E0,6.752123492E0
2.251149045E0,2.572050095E0,-1.087950110E0,-6.499950409E0,7.074491674E0
2.253111602E0,2.686950207E0,-1.048950076E0,-6.040050507E0,6.693445137E0
2.255073868E0,2.533950090E0,-8.959500194E-1,-5.350050449E0,5.987208808E0
2.257036219E0,2.649000168E0,-7.039500475E-1,-4.582950115E0,5.340054243E0
2.258998503E0,2.572050095E0,-6.280500293E-1,-3.855000257E0,4.676635063E0
2.260960818E0,2.341950178E0,-5.509500504E-1,-3.394950151E0,4.161005062E0
2.262923125E0,2.265000105E0,-4.360500276E-1,-3.204000235E0,3.947908637E0
2.264885434E0,2.188950062E0,-3.979500234E-1,-3.357000113E0,4.027321237E0
2.266847696E0,2.227050066E0,-3.979500234E-1,-3.702000141E0,4.338539070E0
2.268809972E0,2.304000139E0,-4.740000367E-1,-4.084949970E0,4.713799840E0
2.270772100E0,2.494950056E0,-5.130000114E-1,-4.545000076E0,5.210083539E0
2.272734275E0,2.725050211E0,-6.280500293E-1,-4.852050304E0,5.600244428E0
2.274696785E0,2.839950085E0,-6.660000086E-1,-4.890000343E0,5.693942031E0
2.276659196E0,2.839950085E0,-7.039500475E-1,-4.736999989E0,5.567767151E0
2.278621666E0,2.802000046E0,-7.429500222E-1,-4.429950237E0,5.294113533E0
2.280584119E0,2.764050245E0,-8.190000653E-1,-3.702000141E0,4.692072027E0
2.282546092E0,2.533950090E0,-8.580000401E-1,-2.896950245E0,3.943271212E0
2.284508203E0,2.380050182E0,-1.048950076E0,-2.014950037E0,3.290130512E0
2.286470678E0,2.341950178E0,-1.240950108E0,-1.096050024E0,2.868102763E0
2.288433047E0,2.188950062E0,-1.393950105E0,-2.140500098E-1,2.603923323E0
2.290394444E0,2.074050188E0,-1.585950017E0,6.660000086E-1,2.694527352E0
2.292356126E0,1.996950150E0,-1.893000126E0,1.432950020E0,3.102354773E0
2.294318585E0,2.111999989E0,-2.122950077E0,1.855050087E0,3.522594471E0
2.296280816E0,2.149950027E0,-2.428950071E0,2.200050116E0,3.919477526E0
2.298243318E0,2.341950178E0,-2.773950100E0,2.353049994E0,4.326242488E0
2.300205740E0,2.419050217E0,-3.004050255E0,2.583000183E0,4.641983609E0
2.302168388E0,2.494950056E0,-3.196050167E0,2.698050022E0,4.870214202E0
2.304130970E0,2.610000134E0,-3.426000118E0,2.812950134E0,5.144148711E0
2.306093358E0,2.725050211E0,-3.616950274E0,2.773950100E0,5.310652228E0
2.308055809E0,2.725050211E0,-3.847050190E0,2.506050110E0,5.339099266E0
2.310018316E0,2.649000168E0,-4.153950214E0,2.122950077E0,5.364645496E0
2.311980807E0,2.341950178E0,-4.306950092E0,1.893000126E0,5.255282981E0
2.313943399E0,2.035050154E0,-4.498950005E0,2.353049994E0,5.469810284E0
2.315905961E0,1.729050040E0,-4.537050247E0,3.118950129E0,5.770813538E0
2.317868396E0,1.537050128E0,-4.651950359E0,3.924000263E0,6.277017071E0
2.319830876E0,1.498950124E0,-4.959000111E0,4.576050282E0,6.912218873E0
2.321793334E0,1.345050097E0,-5.533950329E0,4.729050159E0,7.402545604E0
2.323755799E0,9.619500637E-1,-6.376950264E0,4.690950394E0,7.974701135E0
2.325717539E0,2.719500065E-1,-7.642050266E0,4.653000355E0,8.951273729E0
2.327679492E0,-4.930500090E-1,-8.944950104E0,4.653000355E0,1.009483249E1
2.329641849E0,-1.642950058E0,-1.013295078E1,4.614000320E0,1.125455354E1
2.331604095E0,-2.677950144E0,-1.132095051E1,4.729050159E0,1.255783631E1
2.333566459E0,-3.636000156E0,-1.300800037E1,5.188950062E0,1.446906264E1
2.335528788E0,-4.555950165E0,-1.515405083E1,6.262050152E0,1.701808481E1
2.337491407E0,-6.127950191E0,-1.845000076E1,7.219950199E0,2.073841803E1
2.339453941E0,-8.005949974E0,-2.301105118E1,7.719000340E0,2.555751705E1
2.341416197E0,-1.026705074E1,-2.849205208E1,7.872000217E0,3.129181602E1
2.343378545E0,-1.180005074E1,-3.454800034E1,8.025000572E0,3.737922095E1
2.345341070E0,-1.195305061E1,-4.090995026E1,8.830050468E0,4.352550103E1
2.347303543E0,-1.180005074E1,-4.612305069E1,1.013295078E1,4.867498016E1
2.349265778E0,-1.042005062E1,-5.133495331E1,1.201095104E1,5.374121166E1
2.351228083E0,-7.776000500E0,-5.612595367E1,1.438800049E1,5.846027213E1
2.353190416E0,-4.326000214E0,-6.007395172E1,1.546095085E1,6.218227203E1
2.355152754E0,-7.200000435E-2,-6.252705383E1,1.507800102E1,6.431938868E1
2.357115957E0,4.680000305E0,-6.421305084E1,1.454100037E1,6.600499218E1
2.359078907E0,9.892050743E0,-6.589995575E1,1.289295101E1,6.787403790E1
2.361041961E0,1.472205067E1,-6.682005310E1,8.409000397E0,6.893743221E1
2.363004984E0,2.062395096E1,-6.812295532E1,-1.171950102E0,7.118607913E1
2.364967386E0,2.848095131E1,-6.984705353E1,-2.014395142E1,7.807403059E1
2.366929977E0,3.591705322E1,-7.023105621E1,-3.152805138E1,8.494971449E1
2.368892236E0,3.952005005E1,-6.804600525E1,-3.547500229E1,8.631667842E1
2.370854593E0,4.066995239E1,-6.382995224E1,-3.697005081E1,8.423237197E1
2.372816892E0,3.902100372E1,-5.880900192E1,-3.053100204E1,7.689785123E1
2.374779208E0,3.507405090E1,-5.317500305E1,-2.087295151E1,6.703320148E1
2.376741510E0,2.966895103E1,-4.742595291E1,-1.129095078E1,5.706972257E1
2.378703819E0,2.311500168E1,-4.198305130E1,-3.319050074E0,4.804056611E1
2.380665585E0,1.694505119E1,-3.742200089E1,1.777950048E0,4.111814705E1
2.382627511E0,1.108095074E1,-3.343605042E1,3.808950186E0,3.542971970E1
2.384590244E0,6.634950161E0,-3.010200119E1,4.153950214E0,3.110318861E1
2.386552740E0,3.645000219E0,-2.730405045E1,3.655950069E0,2.778782410E1
2.388515026E0,1.729050040E0,-2.508105087E1,2.736000061E0,2.528901784E1
2.390477367E0,6.169500351E-1,-2.347095108E1,1.585950017E0,2.353256062E1
2.392439803E0,-3.019500077E-1,-2.205300140E1,6.660000086E-1,2.206512182E1
2.394402211E0,-5.700000525E-1,-2.113305092E1,5.295000225E-2,2.114080284E1
2.396364187E0,-9.529500604E-1,-2.032800102E1,-2.910000086E-1,2.035240576E1
2.398326290E0,-1.106999993E0,-1.971495056E1,-5.590500236E-1,1.975391763E1
2.400288617E0,-1.336950064E0,-1.914000130E1,-4.060500264E-1,1.919093436E1
2.402250889E0,-1.260000110E0,-1.891005135E1,-1.759500057E-1,1.895279928E1
2.404213203E0,-1.183050036E0,-1.883295059E1,-6.105000153E-2,1.887017124E1
2.406175504E0,-9.529500604E-1,-1.879500008E1,2.449500114E-1,1.882073703E1
2.408137228E0,-7.620000243E-1,-1.879500008E1,7.429500222E-1,1.882510682E1
2.410099121E0,-6.850500107E-1,-1.883295059E1,1.126049995E0,1.887901772E1
2.412061558E0,-7.230000496E-1,-1.910205078E1,1.318050027E0,1.916111502E1
2.414023826E0,-7.620000243E-1,-1.940805054E1,1.395000100E0,1.947303507E1
2.415986140E0,-7.230000496E-1,-1.986795044E1,1.395000100E0,1.992998266E1
2.417948441E0,-6.850500107E-1,-2.029005051E1,1.471050024E0,2.035483803E1
2.419910750E0,-5.320500135E-1,-2.074995041E1,1.471050024E0,2.080883244E1
2.421873056E0,-3.400500119E-1,-2.140095139E1,1.510050058E0,2.145685451E1
2.423835500E0,-3.019500077E-1,-2.197605133E1,1.624950051E0,2.203811400E1
2.425797903E0,-1.870500147E-1,-2.255100060E1,1.701000094E0,2.261583553E1
2.427760375E0,8.100000024E-2,-2.308800125E1,1.663050056E0,2.314796100E1
2.429722826E0,2.719500065E-1,-2.335605049E1,1.777950048E0,2.342520347E1
2.431685695E0,4.260000288E-1,-2.350905037E1,1.777950048E0,2.358003460E1
2.433648441E0,5.410500169E-1,-2.350905037E1,1.585950017E0,2.356869580E1
2.435610094E0,5.020500422E-1,-2.343300056E1,1.510050058E0,2.348697130E1
2.437572063E0,5.410500169E-1,-2.331795120E1,1.471050024E0,2.337057063E1
2.439535149E0,6.169500351E-1,-2.316405106E1,1.471050024E0,2.321891205E1
2.441497908E0,6.169500351E-1,-2.293395042E1,1.432950020E0,2.298695402E1
2.443459959E0,6.169500351E-1,-2.266605186E1,1.395000100E0,2.271731850E1
2.445422217E0,7.320000529E-1,-2.232105064E1,1.356000066E0,2.237417847E1
2.447384593E0,8.850000501E-1,-2.201505089E1,1.318050027E0,2.207222115E1
2.449346923E0,8.470500112E-1,-2.167005157E1,1.395000100E0,2.173142090E1
2.451309183E0,9.619500637E-1,-2.140095139E1,1.471050024E0,2.147300762E1
2.453271463E0,1.000050068E0,-2.101800156E1,1.471050024E0,2.109313817E1
2.455233775E0,1.077000022E0,-2.063505173E1,1.471050024E0,2.071543572E1
2.457196077E0,1.192050099E0,-2.021295166E1,1.471050024E0,2.030143804E1
2.459158585E0,1.269000053E0,-1.979205132E1,1.471050024E0,1.988717287E1
2.461121019E0,1.422000051E0,-1.940805054E1,1.471050024E0,1.951559627E1
2.463083171E0,1.651950121E0,-1.898700142E1,1.510050058E0,1.911845740E1
2.465045405E0,1.882050037E0,-1.856505013E1,1.548000097E0,1.872430246E1
2.467007859E0,2.035050154E0,-1.814295006E1,1.624950051E0,1.832889873E1
2.468970249E0,2.265000105E0,-1.772205162E1,1.855050087E0,1.796225348E1
2.470932764E0,2.494950056E0,-1.726200104E1,2.046000004E0,1.756096727E1
2.472895245E0,2.610000134E0,-1.680195045E1,2.314950228E0,1.716032151E1
2.474857660E0,2.764050245E0,-1.630395126E1,2.620950222E0,1.674300393E1
2.476820094E0,2.878050089E0,-1.584405041E1,2.851050138E0,1.635376386E1
2.478782604E0,2.992950201E0,-1.530705070E1,2.965950251E0,1.587641059E1
2.480745092E0,3.108000040E0,-1.484700108E1,2.928000212E0,1.544882812E1
2.482707679E0,3.223050117E0,-1.431105042E1,3.004050255E0,1.497392848E1
2.484670240E0,3.337950230E0,-1.373595047E1,2.928000212E0,1.443576920E1
2.486632865E0,3.492000103E0,-1.319895077E1,2.851050138E0,1.394757516E1
2.488595471E0,3.529950142E0,-1.258605099E1,2.506050110E0,1.330975261E1
2.490558133E0,3.568050146E0,-1.201095104E1,2.161050081E0,1.271471841E1
2.492520779E0,3.721950293E0,-1.143600082E1,1.969950080E0,1.218670309E1
2.494483740E0,3.874950171E0,-1.066995049E1,1.855050087E0,1.150236032E1
2.496446615E0,3.798000097E0,-1.013295078E1,1.740000129E0,1.096034200E1
2.498409187E0,3.760050297E0,-9.558000565E0,1.432950020E0,1.037047245E1
2.500371848E0,3.645000219E0,-8.907000542E0,1.203000069E0,9.698860470E0
2.502334456E0,3.568050146E0,-8.254950523E0,7.050000429E-1,9.020654912E0
2.504297079E0,3.453000069E0,-7.527000427E0,3.220500052E-1,8.287500293E0
2.506260408E0,3.337950230E0,-6.837000370E0,-2.205000073E-2,7.608348835E0
2.508223533E0,3.184950113E0,-6.070050240E0,-3.670500219E-1,6.864702678E0
2.510185882E0,2.992950201E0,-5.341950417E0,-4.819500148E-1,6.142186986E0
2.512148458E0,2.955000162E0,-4.575000286E0,-5.590500236E-1,5.474960320E0
2.514111079E0,2.878050089E0,-3.886050224E0,-5.590500236E-1,4.867966268E0
2.516073687E0,2.725050211E0,-3.157050133E0,-5.590500236E-1,4.207778645E0
2.518036103E0,2.686950207E0,-2.467050076E0,-6.739500165E-1,3.709480572E0
2.519998559E0,2.649000168E0,-1.854000092E0,-5.970000029E-1,3.287997450E0
2.521961065E0,2.725050211E0,-1.356000066E0,-5.590500236E-1,3.094700593E0
2.523923557E0,2.725050211E0,-7.039500475E-1,-4.819500148E-1,2.855471964E0
2.525885429E0,2.764050245E0,-2.830500007E-1,-4.440000355E-1,2.813756758E0
2.527847482E0,2.802000046E0,-1.500000060E-2,-3.670500219E-1,2.825978587E0
2.529809893E0,2.725050211E0,4.440000355E-1,-2.140500098E-1,2.769269234E0
2.531772188E0,2.686950207E0,8.659500480E-1,-2.140500098E-1,2.831146112E0
2.533734993E0,2.649000168E0,1.134000063E0,-2.205000073E-2,2.881604455E0
2.535697649E0,2.533950090E0,1.363950014E0,5.295000225E-2,2.878205414E0
2.537660304E0,2.341950178E0,1.633050084E0,1.680000126E-1,2.860036227E0
2.539622959E0,2.149950027E0,1.863000035E0,2.449500114E-1,2.855355453E0
2.541585582E0,1.959000111E0,1.978050113E0,2.449500114E-1,2.794702880E0
2.543548204E0,1.804950118E0,2.169000149E0,2.830500007E-1,2.835934392E0
2.545510593E0,1.690050125E0,2.245950222E0,2.830500007E-1,2.825009580E0
2.547473050E0,1.614000082E0,2.322000027E0,2.830500007E-1,2.841970741E0
2.549436052E0,1.537050128E0,2.322000027E0,2.449500114E-1,2.795390443E0
2.551398894E0,1.459950089E0,2.361000061E0,2.070000172E-1,2.783635134E0
2.553361527E0,1.384050012E0,2.361000061E0,1.680000126E-1,2.741922633E0
2.555324214E0,1.422000051E0,2.322000027E0,2.070000172E-1,2.730680735E0
2.557286951E0,1.384050012E0,2.322000027E0,9.195000678E-2,2.704761239E0
2.559249673E0,1.345050097E0,2.322000027E0,9.195000678E-2,2.685013722E0
2.561212451E0,1.345050097E0,2.322000027E0,1.500000060E-2,2.683480741E0
2.563175212E0,1.306950092E0,2.322000027E0,5.295000225E-2,2.665071551E0
2.565138163E0,1.306950092E0,2.361000061E0,1.500000060E-2,2.698641294E0
2.567101058E0,1.306950092E0,2.284050226E0,-1.759500057E-1,2.637415853E0
2.569063266E0,1.306950092E0,2.322000027E0,-2.520000041E-1,2.676435441E0
2.571025675E0,1.306950092E0,2.284050226E0,-3.289500177E-1,2.652020380E0
2.572988190E0,1.345050097E0,2.245950222E0,-4.819500148E-1,2.661903075E0
2.574950673E0,1.384050012E0,2.245950222E0,-7.120500207E-1,2.732563278E0
2.576913256E0,1.459950089E0,2.245950222E0,-7.890000343E-1,2.792537863E0
2.578875817E0,1.422000051E0,2.245950222E0,-9.810000658E-1,2.833502721E0
2.580838487E0,1.537050128E0,2.284050226E0,-1.171950102E0,2.992135621E0
2.582801125E0,1.575000048E0,2.245950222E0,-1.363950014E0,3.063539977E0
2.584763871E0,1.767000079E0,2.245950222E0,-1.594050050E0,3.272243457E0
2.586726586E0,1.843950033E0,2.208000183E0,-1.708950043E0,3.346031497E0
2.588689217E0,1.920000076E0,2.208000183E0,-1.977000117E0,3.531316265E0
2.590651882E0,2.035050154E0,2.208000183E0,-1.977000117E0,3.595166672E0
2.592614444E0,2.227050066E0,2.131050110E0,-2.053950071E0,3.704029895E0
2.594577036E0,2.380050182E0,2.092950106E0,-2.053950071E0,3.776743294E0
2.596539700E0,2.494950056E0,2.053950071E0,-1.977000117E0,3.788405488E0
2.598502342E0,2.610000134E0,1.939050078E0,-1.900950074E0,3.766381166E0
2.600465298E0,2.686950207E0,1.900950074E0,-1.786050081E0,3.744768016E0
2.602428173E0,2.878050089E0,1.786050081E0,-1.632000089E0,3.759863228E0
2.604390745E0,2.955000162E0,1.708950043E0,-1.402050018E0,3.690295444E0
2.606353406E0,3.108000040E0,1.633050084E0,-1.249050021E0,3.726478603E0
2.608316192E0,3.223050117E0,1.479000092E0,-1.018950105E0,3.689681917E0
2.610278942E0,3.337950230E0,1.441050053E0,-8.269500136E-1,3.728589990E0
2.612241536E0,3.415050268E0,1.363950014E0,-6.739500165E-1,3.738600888E0
2.614204175E0,3.529950142E0,1.173000097E0,-2.910000086E-1,3.731106838E0
2.616166786E0,3.760050297E0,1.057950020E0,-9.900000691E-2,3.907305655E0
2.618129406E0,3.913050175E0,9.040500522E-1,1.300500035E-1,4.018231100E0
2.620091119E0,4.105050087E0,7.129500508E-1,4.360500276E-1,4.189256929E0
2.622053098E0,4.258049965E0,4.440000355E-1,7.810500264E-1,4.351800165E0
2.624016853E0,4.488000393E0,1.380000114E-1,1.050000072E0,4.611257061E0
2.625980091E0,4.717950344E0,-9.105000645E-2,1.356000066E0,4.909794469E0
2.627942601E0,4.872000217E0,-2.440500110E-1,1.471050024E0,5.095089273E0
2.629905324E0,5.062950134E0,-6.280500293E-1,1.510050058E0,5.320541521E0
2.631867741E0,5.140050411E0,-1.087950110E0,1.585950017E0,5.488077180E0
2.633830247E0,5.025000095E0,-1.393950105E0,1.585950017E0,5.450592657E0
2.635792925E0,4.872000217E0,-1.624050021E0,1.585950017E0,5.374863910E0
2.637755552E0,4.527000427E0,-1.893000126E0,1.663050056E0,5.181015135E0
2.639718346E0,4.066950321E0,-2.008050203E0,1.624950051E0,4.817967746E0
2.641681091E0,3.682950258E0,-2.046000004E0,1.585950017E0,4.501719236E0
2.643643864E0,3.300000191E0,-2.008050203E0,1.585950017E0,4.175823791E0
2.645606629E0,2.917050123E0,-1.930950046E0,1.585950017E0,3.840961723E0
2.647569161E0,2.572050095E0,-1.893000126E0,1.510050058E0,3.532582956E0
2.649531771E0,2.304000139E0,-1.777950048E0,1.510050058E0,3.278684827E0
2.651494252E0,1.920000076E0,-1.701000094E0,1.471050024E0,2.956989988E0
2.653456771E0,1.651950121E0,-1.548000097E0,1.471050024E0,2.699857714E0
2.655419402E0,1.422000051E0,-1.471050024E0,1.471050024E0,2.519932636E0
2.657382000E0,1.269000053E0,-1.356000066E0,1.471050024E0,2.369195114E0
2.659344648E0,1.153950095E0,-1.318050027E0,1.471050024E0,2.287541228E0
2.661307260E0,9.619500637E-1,-1.203000069E0,1.471050024E0,2.129916727E0
2.663270056E0,8.089500666E-1,-1.164000034E0,1.471050024E0,2.042861832E0
2.665232798E0,6.940500140E-1,-1.048950076E0,1.471050024E0,1.935455982E0
2.667194492E0,5.410500169E-1,-9.730500579E-1,1.471050024E0,1.844871190E0
2.669156493E0,4.639500082E-1,-8.959500194E-1,1.432950020E0,1.752518704E0
2.671119426E0,3.109500110E-1,-8.190000653E-1,1.356000066E0,1.614368977E0
2.673082062E0,2.719500065E-1,-7.810500264E-1,1.240950108E0,1.491292433E0
2.675044675E0,2.340000123E-1,-6.660000086E-1,1.203000069E0,1.394819409E0
2.677007295E0,1.570500135E-1,-6.660000086E-1,1.126049995E0,1.317652955E0
2.678970224E0,1.189500093E-1,-6.660000086E-1,1.011000037E0,1.216481069E0
2.680933062E0,1.570500135E-1,-6.280500293E-1,1.011000037E0,1.200513482E0
2.682895525E0,8.100000024E-2,-5.509500504E-1,8.580000401E-1,1.022873906E0
2.684858084E0,1.189500093E-1,-5.509500504E-1,7.429500222E-1,9.325608818E-1
2.686820663E0,1.189500093E-1,-5.509500504E-1,5.899500251E-1,8.159265254E-1
2.688783236E0,1.189500093E-1,-5.130000114E-1,5.130000114E-1,7.351782969E-1
2.690745544E0,4.200000316E-2,-5.130000114E-1,4.750500321E-1,7.004323986E-1
2.692707930E0,1.189500093E-1,-4.360500276E-1,3.220500052E-1,5.549819251E-1
2.694671293E0,1.570500135E-1,-4.740000367E-1,2.830500007E-1,5.739843591E-1
2.696634346E0,1.570500135E-1,-4.740000367E-1,2.830500007E-1,5.739843591E-1
2.698596752E0,2.340000123E-1,-4.740000367E-1,1.680000126E-1,5.546675083E-1
2.700559348E0,3.490500152E-1,-3.589500189E-1,1.300500035E-1,5.172949184E-1
2.702522506E0,4.639500082E-1,-3.210000098E-1,9.195000678E-2,5.716164974E-1
2.704485500E0,5.790000558E-1,-2.440500110E-1,2.070000172E-1,6.615515699E-1
2.706448186E0,7.320000529E-1,-2.059500068E-1,2.449500114E-1,7.988992370E-1
2.708410963E0,7.699500322E-1,-1.680000126E-1,2.449500114E-1,8.252560599E-1
2.710372469E0,6.940500140E-1,-1.290000081E-1,3.600000143E-1,7.924307126E-1
2.712334348E0,6.550500393E-1,-9.105000645E-2,3.979500234E-1,7.718451132E-1
2.714296908E0,6.169500351E-1,-5.295000225E-2,5.509500504E-1,8.288407607E-1
2.716259269E0,5.790000558E-1,-5.295000225E-2,7.050000429E-1,9.138215514E-1
2.718221812E0,6.169500351E-1,-5.295000225E-2,7.810500264E-1,9.967297489E-1
2.720184288E0,5.790000558E-1,-5.295000225E-2,9.349500537E-1,1.100988815E0
2.722147243E0,5.790000558E-1,-1.500000060E-2,9.349500537E-1,1.099817106E0
2.724110057E0,5.790000558E-1,-5.295000225E-2,1.050000072E0,1.200227028E0
2.726072685E0,6.550500393E-1,-9.105000645E-2,1.050000072E0,1.240919340E0
2.728035367E0,6.940500140E-1,-9.105000645E-2,1.165050030E0,1.359167796E0
2.729997962E0,7.320000529E-1,-9.105000645E-2,1.165050030E0,1.378932831E0
2.731960589E0,7.699500322E-1,-1.290000081E-1,1.126049995E0,1.370201681E0
2.733923336E0,8.089500666E-1,-1.290000081E-1,1.165050030E0,1.424213040E0
2.735886048E0,9.240000248E-1,-1.290000081E-1,1.011000037E0,1.375695505E0
2.737848468E0,9.619500637E-1,-1.680000126E-1,1.050000072E0,1.433901001E0
2.739810973E0,1.077000022E0,-2.059500068E-1,1.050000072E0,1.518171467E0
2.741773632E0,1.153950095E0,-2.830500007E-1,1.011000037E0,1.560076665E0
2.743736260E0,1.230000019E0,-3.589500189E-1,9.349500537E-1,1.586151558E0
2.745698829E0,1.269000053E0,-3.589500189E-1,8.200500607E-1,1.552961157E0
2.747661416E0,1.306950092E0,-4.360500276E-1,7.429500222E-1,1.565321982E0
2.749623721E0,1.345050097E0,-5.130000114E-1,7.050000429E-1,1.602920408E0
2.751586108E0,1.345050097E0,-5.509500504E-1,7.050000429E-1,1.615466119E0
2.753548547E0,1.306950092E0,-5.509500504E-1,7.810500264E-1,1.619167578E0
2.755510995E0,1.306950092E0,-5.890500546E-1,8.580000401E-1,1.670707209E0
2.757473415E0,1.306950092E0,-5.890500546E-1,9.349500537E-1,1.711499376E0
2.759435844E0,1.269000053E0,-5.509500504E-1,1.011000037E0,1.713484219E0
2.761398490E0,1.230000019E0,-5.509500504E-1,1.126049995E0,1.756255846E0
2.763361072E0,1.000050068E0,-5.509500504E-1,1.050000072E0,1.551175763E0
2.765323554E0,8.470500112E-1,-5.130000114E-1,1.126049995E0,1.499550374E0
2.767286069E0,7.320000529E-1,-5.130000114E-1,1.087950110E0,1.408058426E0
2.769248341E0,6.940500140E-1,-5.509500504E-1,9.349500537E-1,1.288170401E0
2.771210685E0,6.169500351E-1,-5.509500504E-1,6.280500293E-1,1.038566388E0
2.773173345E0,5.020500422E-1,-5.509500504E-1,2.070000172E-1,7.735949909E-1
2.775135913E0,4.639500082E-1,-6.660000086E-1,-5.970000029E-1,1.007578595E0
2.777098862E0,4.260000288E-1,-7.039500475E-1,-1.632000089E0,1.827688700E0
2.779061693E0,3.109500110E-1,-8.959500194E-1,-3.357000113E0,3.488390188E0
2.781024273E0,1.570500135E-1,-1.240950108E0,-6.883050442E0,6.995784821E0
2.782986926E0,-7.200000435E-2,-1.816050053E0,-1.106100082E1,1.120932474E1
2.784949355E0,-2.250000089E-1,-2.428950071E0,-1.615800095E1,1.634109599E1
2.786911849E0,-1.480500102E-1,-2.620950222E0,-1.757595062E1,1.777091273E1
2.788874484E0,1.189500093E-1,-2.620950222E0,-1.401195049E1,1.425546512E1
2.790837077E0,5.020500422E-1,-2.697000027E0,-1.052400017E1,1.087568126E1
2.792800282E0,8.470500112E-1,-2.697000027E0,-8.340000153E0,8.806072076E0
2.794763308E0,1.039050102E0,-2.581950188E0,-6.346950531E0,6.930358788E0
2.796725989E0,1.039050102E0,-2.428950071E0,-4.276950359E0,5.027099357E0
2.798688772E0,8.470500112E-1,-2.275950193E0,-2.551950216E0,3.522767791E0
2.800650087E0,5.410500169E-1,-2.199000120E0,-1.096050024E0,2.515882013E0
2.802611839E0,4.260000288E-1,-2.122950077E0,9.195000678E-2,2.167221230E0
2.804573521E0,2.340000123E-1,-2.122950077E0,8.580000401E-1,2.301703088E0
2.806535223E0,2.340000123E-1,-2.238000154E0,1.356000066E0,2.627191823E0
2.808497994E0,1.960500032E-1,-2.391000032E0,1.663050056E0,2.919084145E0
2.810460452E0,1.570500135E-1,-2.467050076E0,2.085000038E0,3.233918048E0
2.812422720E0,4.200000316E-2,-2.467050076E0,2.620950222E0,3.599650003E0
2.814385054E0,-3.299999982E-2,-2.351999998E0,3.196050167E0,3.968340921E0
2.816347581E0,-7.200000435E-2,-2.275950193E0,3.808950186E0,4.437706029E0
2.818310052E0,-1.480500102E-1,-2.083950043E0,4.153950214E0,4.649738592E0
2.820272692E0,-1.480500102E-1,-1.969050050E0,4.269000053E0,4.703555927E0
2.822235283E0,-1.870500147E-1,-2.046000004E0,4.153950214E0,4.634264354E0
2.824197859E0,-2.629500031E-1,-2.161050081E0,4.000950336E0,4.554874724E0
2.826160439E0,-3.400500119E-1,-2.506050110E0,3.733050108E0,4.509055807E0
2.828122700E0,-4.170000255E-1,-3.157050133E0,3.618000269E0,4.819832000E0
2.830085054E0,-7.999500632E-1,-4.384050369E0,3.655950069E0,5.764181525E0
2.832047758E0,-1.375050068E0,-6.376950264E0,3.847950220E0,7.573835109E0
2.834010360E0,-2.485950232E0,-9.213000298E0,4.192950249E0,1.042305880E1
2.835973128E0,-4.249050140E0,-1.312305069E1,4.308000088E0,1.445087372E1
2.837935837E0,-5.706000328E0,-1.806705093E1,4.153950214E0,1.939670260E1
2.839898797E0,-7.086000443E0,-2.347095108E1,3.463950157E0,2.476077336E1
2.841861683E0,-8.809950829E0,-2.895195198E1,4.039050102E0,3.053104457E1
2.843824612E0,-1.065000057E1,-3.427905273E1,4.153950214E0,3.613490378E1
2.845787529E0,-1.164705086E1,-3.930000305E1,4.576050282E0,4.124420286E1
2.847750264E0,-1.249005032E1,-4.393800354E1,5.266050339E0,4.598130923E1
2.849713060E0,-1.306500053E1,-4.803900146E1,5.764050484E0,5.011650605E1
2.851675329E0,-1.306500053E1,-5.164200211E1,6.301050186E0,5.364041251E1
2.853637752E0,-1.256700039E1,-5.501505280E1,7.450050354E0,5.692177776E1
2.855600175E0,-1.137795067E1,-5.788905334E1,8.754000664E0,5.964254175E1
2.857562598E0,-9.577050209E0,-5.949900436E1,1.001805019E1,6.109183858E1
2.859525451E0,-7.047000408E0,-6.034200287E1,1.116795063E1,6.177006270E1
2.861488192E0,-4.018949986E0,-6.030405426E1,1.220295048E1,6.165746443E1
2.863451688E0,-1.106999993E0,-5.953695297E1,1.312305069E1,6.097613203E1
2.865414962E0,1.614000082E0,-5.838705444E1,1.404300022E1,6.007377946E1
2.867377285E0,4.258049965E0,-5.727600098E1,1.457895088E1,5.925552368E1
2.869339887E0,6.979950428E0,-5.597295380E1,1.507800102E1,5.838696241E1
2.871302286E0,8.973000526E0,-5.443995285E1,1.477095032E1,5.711745949E1
2.873264772E0,1.088895035E1,-5.313705063E1,1.392795086E1,5.600092146E1
2.875227364E0,1.230705070E1,-5.164200211E1,1.254795074E1,5.455099400E1
2.877189924E0,1.376400089E1,-5.003205109E1,1.028700066E1,5.290062607E1
2.879153134E0,1.583295059E1,-4.834605408E1,4.768050194E0,5.109557292E1
2.881116154E0,1.866900063E1,-4.662105179E1,-6.154950142E0,5.059582459E1
2.883078632E0,2.748495102E1,-4.635300064E1,-4.701195145E1,7.151326296E1
2.885041286E0,3.373200226E1,-4.577805328E1,-6.226605225E1,8.432401438E1
2.887003580E0,3.430695343E1,-4.447500229E1,-5.805000305E1,8.077620774E1
2.888965979E0,3.162405205E1,-4.198305130E1,-5.249295425E1,7.428436922E1
2.890928450E0,2.368995094E1,-3.757605362E1,-3.371205139E1,5.576446889E1
2.892890900E0,1.560300064E1,-3.332100296E1,-1.661805153E1,4.037205102E1
2.894852598E0,9.318000793E0,-2.987205124E1,-3.855000257E0,3.152817170E1
2.896814517E0,4.948050022E0,-2.753400040E1,3.502950191E0,2.819352828E1
2.898776171E0,1.651950121E0,-2.611605072E1,7.450050354E0,2.720809245E1
2.900737902E0,-6.079500318E-1,-2.519595146E1,9.060000420E0,2.678225496E1
2.902700172E0,-2.140950203E0,-2.408400154E1,9.367050171E0,2.592999088E1
2.904662284E0,-3.061050177E0,-2.301105118E1,8.715000153E0,2.479576037E1
2.906624727E0,-3.367950201E0,-2.220600128E1,7.297050476E0,2.361559923E1
2.908587097E0,-3.214950085E0,-2.155500031E1,5.802000046E0,2.255254191E1
2.910549754E0,-2.524950027E0,-2.113305092E1,4.690950394E0,2.179417880E1
2.912512327E0,-1.987950087E0,-2.071095085E1,3.808950186E0,2.115191557E1
2.914474950E0,-1.642950058E0,-2.044305038E1,3.157950163E0,2.075066850E1
2.916437558E0,-1.297950029E0,-2.055795097E1,2.736000061E0,2.077979112E1
2.918399995E0,-9.529500604E-1,-2.094105148E1,2.506050110E0,2.111198802E1
2.920362483E0,-6.850500107E-1,-2.109495163E1,2.391000032E0,2.124107245E1
2.922325119E0,-4.930500090E-1,-2.117100143E1,2.467950106E0,2.132006514E1
2.924287712E0,-3.019500077E-1,-2.124795151E1,2.736000061E0,2.142550614E1
2.926250197E0,-3.400500119E-1,-2.140095139E1,2.928000212E0,2.160299839E1
2.928212714E0,-4.170000255E-1,-2.140095139E1,2.965950251E0,2.160952267E1
2.930175345E0,-3.019500077E-1,-2.147805023E1,3.043050051E0,2.169465301E1
2.932137943E0,-1.870500147E-1,-2.155500031E1,3.310950041E0,2.180860876E1
2.934100382E0,-3.299999982E-2,-2.159295082E1,3.502950191E0,2.187526627E1
2.936062868E0,8.100000024E-2,-2.155500031E1,3.808950186E0,2.188910004E1
2.938025460E0,2.340000123E-1,-2.155500031E1,3.847950220E0,2.189702069E1
2.939988020E0,2.340000123E-1,-2.151600075E1,3.733050108E0,2.183869747E1
2.941950678E0,3.870000243E-1,-2.140095139E1,3.502950191E0,2.168919430E1
2.943913283E0,4.260000288E-1,-2.124795151E1,3.388050079E0,2.152059020E1
2.945876802E0,6.940500140E-1,-2.121000099E1,3.463950157E0,2.150220450E1
2.947840053E0,8.850000501E-1,-2.105595016E1,3.502950191E0,2.136368232E1
2.949802245E0,9.240000248E-1,-2.082600021E1,3.388050079E0,2.112001289E1
2.951764747E0,1.000050068E0,-2.052000046E1,3.196050167E0,2.079147074E1
2.953727381E0,9.619500637E-1,-2.025105095E1,3.043050051E0,2.050098939E1
2.955689976E0,8.470500112E-1,-1.983000183E1,2.965950251E0,2.006846599E1
2.957652416E0,7.699500322E-1,-1.940805054E1,2.698050022E0,1.960981190E1
2.959614901E0,6.550500393E-1,-1.894799995E1,2.659050226E0,1.914487767E1
2.961576637E0,4.260000288E-1,-1.852695084E1,2.314950228E0,1.867587690E1
2.963538593E0,2.340000123E-1,-1.818195152E1,2.046000004E0,1.829820300E1
2.965500946E0,2.340000123E-1,-1.776000023E1,1.816050053E0,1.785414243E1
2.967463193E0,3.109500110E-1,-1.737705040E1,1.777950048E0,1.747053740E1
2.969426052E0,5.020500422E-1,-1.703205109E1,1.930950046E0,1.714850975E1
2.971388731E0,5.410500169E-1,-1.660995102E1,1.969950080E0,1.673511014E1
2.973352057E0,6.169500351E-1,-1.618905067E1,2.046000004E0,1.632948576E1
2.975315193E0,6.940500140E-1,-1.576695061E1,2.046000004E0,1.591428770E1
2.977277661E0,8.470500112E-1,-1.534605026E1,2.085000038E0,1.551018947E1
2.979240334E0,1.153950095E0,-1.496205044E1,2.008050203E0,1.514023843E1
2.981202624E0,1.306950092E0,-1.461705112E1,2.046000004E0,1.481730131E1
2.983165027E0,1.384050012E0,-1.427205086E1,2.046000004E0,1.448423785E1
2.985127678E0,1.269000053E0,-1.377405071E1,1.893000126E0,1.396131382E1
2.987090256E0,1.230000019E0,-1.362105083E1,1.777950048E0,1.379155656E1
2.989052648E0,1.459950089E0,-1.312305069E1,1.624950051E0,1.330362268E1
2.991015099E0,1.614000082E0,-1.281600094E1,1.585950017E0,1.301422736E1
2.992977561E0,1.690050125E0,-1.235595036E1,1.548000097E0,1.256670533E1
2.994940020E0,1.767000079E0,-1.193400097E1,1.510050058E0,1.215824492E1
2.996902527E0,1.690050125E0,-1.143600082E1,1.395000100E0,1.164407186E1
2.998865020E0,1.882050037E0,-1.097595024E1,1.240950108E0,1.120506819E1
3.000827625E0,1.767000079E0,-1.040100002E1,1.050000072E0,1.060215030E1
3.002790188E0,1.804950118E0,-9.787950516E0,1.011000037E0,1.000419618E1
3.004752857E0,1.804950118E0,-9.250950813E0,7.810500264E-1,9.457693959E0
3.006715495E0,1.767000079E0,-8.638050079E0,5.130000114E-1,8.831838283E0
3.008678783E0,1.882050037E0,-8.101950645E0,3.600000143E-1,8.325461946E0
3.010641880E0,1.882050037E0,-7.603050232E0,5.295000225E-2,7.832706357E0
3.012604279E0,1.959000111E0,-7.027950287E0,-2.205000073E-2,7.295906583E0
3.014566882E0,1.843950033E0,-6.415050507E0,-2.520000041E-1,6.679560519E0
3.016528959E0,1.729050040E0,-5.878950119E0,-5.209500194E-1,6.150045322E0
3.018491190E0,1.729050040E0,-5.304000378E0,-7.510500550E-1,5.629041680E0
3.020453690E0,1.843950033E0,-4.882050037E0,-8.269500136E-1,5.283787526E0
3.022416111E0,1.843950033E0,-4.384050369E0,-8.659500480E-1,4.834244393E0
3.024378715E0,1.651950121E0,-3.808950186E0,-9.420000315E-1,4.257276686E0
3.026341265E0,1.537050128E0,-3.196050167E0,-1.057050109E0,3.700623555E0
3.028303397E0,1.384050012E0,-2.659050226E0,-1.171950102E0,3.218634739E0
3.030265651E0,1.306950092E0,-2.238000154E0,-1.210950017E0,2.860622866E0
3.032228147E0,1.269000053E0,-1.816050053E0,-1.326000094E0,2.581990546E0
3.034190572E0,1.000050068E0,-1.393950105E0,-1.479000092E0,2.265091235E0
3.036152982E0,8.470500112E-1,-1.011000037E0,-1.479000092E0,1.981680112E0
3.038115407E0,8.470500112E-1,-6.280500293E-1,-1.441050053E0,1.785655570E0
3.040078099E0,8.850000501E-1,-3.589500189E-1,-1.363950014E0,1.665061514E0
3.042040712E0,9.240000248E-1,-1.680000126E-1,-1.326000094E0,1.624892704E0
3.044002383E0,8.850000501E-1,-1.500000060E-2,-1.210950017E0,1.499950010E0
3.045964330E0,1.000050068E0,1.759500057E-1,-1.171950102E0,1.550653277E0
3.047927063E0,1.192050099E0,2.910000086E-1,-1.018950105E0,1.594968263E0
3.049889562E0,1.230000019E0,4.830000103E-1,-9.040500522E-1,1.601091988E0
3.051852062E0,1.306950092E0,5.590500236E-1,-8.269500136E-1,1.644536955E0
3.053814562E0,1.345050097E0,7.129500508E-1,-7.890000343E-1,1.714636577E0
3.055777152E0,1.345050097E0,7.510500550E-1,-7.890000343E-1,1.730825526E0
3.057739716E0,1.345050097E0,8.280000687E-1,-7.890000343E-1,1.765577789E0
3.059702055E0,1.345050097E0,9.430500269E-1,-7.890000343E-1,1.822367737E0
3.061664440E0,1.345050097E0,9.430500269E-1,-9.040500522E-1,1.875049229E0
3.063627093E0,1.384050012E0,1.057950020E0,-9.810000658E-1,1.999303331E0
3.065589668E0,1.345050097E0,1.057950020E0,-1.134000063E0,2.052894091E0
3.067552067E0,1.306950092E0,1.134000063E0,-1.326000094E0,2.179988747E0
3.069514517E0,1.269000053E0,1.210950017E0,-1.516950130E0,2.319029706E0
3.071477034E0,1.306950092E0,1.326000094E0,-1.747050047E0,2.553150732E0
3.073439525E0,1.269000053E0,1.441050053E0,-2.092050076E0,2.839658414E0
3.075402297E0,1.192050099E0,1.518000126E0,-2.359950066E0,3.048716473E0
3.077364986E0,1.192050099E0,1.633050084E0,-2.667000055E0,3.346748469E0
3.079327590E0,1.230000019E0,1.708950043E0,-2.935050249E0,3.612191891E0
3.081290219E0,1.192050099E0,1.786050081E0,-3.241950035E0,3.888598509E0
3.083252656E0,1.230000019E0,1.863000035E0,-3.433950186E0,4.095812869E0
3.085215146E0,1.269000053E0,1.978050113E0,-3.702000141E0,4.384957061E0
3.087178007E0,1.306950092E0,2.092950106E0,-3.931950092E0,4.642067451E0
3.089140759E0,1.345050097E0,2.131050110E0,-4.084949970E0,4.799724012E0
3.091103711E0,1.459950089E0,2.208000183E0,-4.237950325E0,4.996693109E0
3.093066605E0,1.575000048E0,2.284050226E0,-4.237950325E0,5.065346340E0
3.095029199E0,1.729050040E0,2.361000061E0,-4.200000286E0,5.118978192E0
3.096991863E0,1.882050037E0,2.361000061E0,-4.123950005E0,5.111105289E0
3.098954290E0,2.149950027E0,2.398950100E0,-3.931950092E0,5.083057961E0
3.100916786E0,2.304000139E0,2.437050104E0,-3.664050102E0,4.967181596E0
3.102879376E0,2.457000017E0,2.398950100E0,-3.357000113E0,4.802214117E0
3.104841938E0,2.572050095E0,2.476050138E0,-3.049950123E0,4.695578956E0
3.106804757E0,2.725050211E0,2.476050138E0,-2.667000055E0,4.546384523E0
3.108767491E0,2.839950085E0,2.361000061E0,-2.359950066E0,4.382807557E0
3.110730132E0,2.992950201E0,2.361000061E0,-2.053950071E0,4.330217441E0
3.112692800E0,3.031950235E0,2.284050226E0,-1.594050050E0,4.117111029E0
3.114655541E0,3.108000040E0,2.284050226E0,-9.420000315E-1,3.970379547E0
3.116618260E0,3.147000074E0,2.284050226E0,-2.910000086E-1,3.899381478E0
3.118579791E0,3.300000191E0,2.245950222E0,1.680000126E-1,3.995311961E0
3.120541661E0,3.337950230E0,2.169000149E0,7.050000429E-1,4.042709295E0
3.122504403E0,3.529950142E0,2.131050110E0,1.126049995E0,4.274331663E0
3.124466889E0,3.568050146E0,2.169000149E0,1.510050058E0,4.440247141E0
3.126429391E0,3.721950293E0,2.092950106E0,1.740000129E0,4.610960266E0
3.128391889E0,3.837000132E0,2.016000032E0,1.969950080E0,4.761042896E0
3.130354641E0,3.913050175E0,1.939050078E0,2.314950228E0,4.942759496E0
3.132317332E0,3.990000248E0,1.863000035E0,2.506050110E0,5.066671320E0
3.134279981E0,3.990000248E0,1.786050081E0,2.659050226E0,5.116700595E0
3.136242642E0,3.952050209E0,1.708950043E0,2.773950100E0,5.121914706E0
3.138205428E0,3.952050209E0,1.594050050E0,2.812950134E0,5.106112501E0
3.140168178E0,3.952050209E0,1.441050053E0,2.851050138E0,5.081713589E0
3.142130745E0,3.760050297E0,1.326000094E0,2.812950134E0,4.879440843E0
3.144093353E0,3.529950142E0,1.288050056E0,2.812950134E0,4.693858691E0
3.146055834E0,2.992950201E0,1.096050024E0,2.659050226E0,4.150858305E0
3.148018353E0,2.533950090E0,9.430500269E-1,2.545050144E0,3.713155888E0
3.149980805E0,2.074050188E0,8.280000687E-1,2.238000154E0,3.161631381E0
3.151943276E0,1.729050040E0,6.739500165E-1,2.122950077E0,2.819705605E0
3.153905949E0,1.537050128E0,4.830000103E-1,1.855050087E0,2.457035395E0
3.155868539E0,1.422000051E0,4.060500264E-1,1.777950048E0,2.312588840E0
3.157830754E0,1.345050097E0,2.910000086E-1,1.740000129E0,2.218432152E0
3.159793079E0,1.306950092E0,1.380000114E-1,1.740000129E0,2.180541904E0
3.161756464E0,1.306950092E0,6.105000153E-2,1.701000094E0,2.145983916E0
3.163719539E0,1.345050097E0,-9.105000645E-2,1.663050056E0,2.140837535E0
3.165681600E0,1.459950089E0,-1.680000126E-1,1.701000094E0,2.247905601E0
3.167643944E0,1.537050128E0,-3.210000098E-1,1.701000094E0,2.314943935E0
3.169606425E0,1.537050128E0,-3.979500234E-1,1.624950051E0,2.271860468E0
3.171568866E0,1.498950124E0,-4.740000367E-1,1.548000097E0,2.206316344E0
3.173531331E0,1.498950124E0,-5.509500504E-1,1.510050058E0,2.197873657E0
3.175493789E0,1.422000051E0,-6.280500293E-1,1.510050058E0,2.167206073E0
3.177456270E0,1.422000051E0,-6.660000086E-1,1.548000097E0,2.204981736E0
3.179418731E0,1.345050097E0,-7.039500475E-1,1.624950051E0,2.223773392E0
3.181381373E0,1.306950092E0,-7.429500222E-1,1.585950017E0,2.185253014E0
3.183343961E0,1.269000053E0,-8.190000653E-1,1.624950051E0,2.218464539E0
3.185306222E0,1.269000053E0,-7.810500264E-1,1.624950051E0,2.204736481E0
3.187268579E0,1.153950095E0,-7.039500475E-1,1.663050056E0,2.143101019E0
3.189230979E0,1.153950095E0,-7.429500222E-1,1.701000094E0,2.185629630E0
3.191193390E0,1.077000022E0,-7.429500222E-1,1.663050056E0,2.116043305E0
3.193155860E0,1.077000022E0,-7.810500264E-1,1.663050056E0,2.129719155E0
3.195118313E0,1.039050102E0,-7.810500264E-1,1.740000129E0,2.171926497E0
3.197080821E0,1.039050102E0,-7.810500264E-1,1.740000129E0,2.171926497E0
3.199043313E0,9.619500637E-1,-8.190000653E-1,1.777950048E0,2.181104171E0
3.201005725E0,9.619500637E-1,-8.580000401E-1,1.816050053E0,2.227004667E0
3.202968161E0,9.619500637E-1,-8.580000401E-1,1.777950048E0,2.196046076E0
3.204930626E0,9.619500637E-1,-8.190000653E-1,1.855050087E0,2.244397437E0
3.206893082E0,9.619500637E-1,-8.190000653E-1,1.816050053E0,2.212271870E0
3.208855185E0,9.619500637E-1,-8.959500194E-1,1.855050087E0,2.273606208E0
3.210817392E0,1.000050068E0,-8.959500194E-1,1.969950080E0,2.384015498E0
3.212779780E0,1.039050102E0,-8.959500194E-1,2.008050203E0,2.431998596E0
3.214742101E0,1.077000022E0,-9.340500236E-1,2.122950077E0,2.557204631E0
3.216704587E0,1.153950095E0,-1.011000037E0,2.200050116E0,2.682152570E0
3.218667024E0,1.192050099E0,-1.011000037E0,2.275950193E0,2.760987830E0
3.220629806E0,1.230000019E0,-1.011000037E0,2.391000032E0,2.872612448E0
3.222592486E0,1.230000019E0,-1.011000037E0,2.353049994E0,2.841102848E0
3.224554925E0,1.230000019E0,-1.011000037E0,2.238000154E0,2.746573468E0
3.226517425E0,1.269000053E0,-9.730500579E-1,2.085000038E0,2.627624918E0
3.228479925E0,1.306950092E0,-9.730500579E-1,2.008050203E0,2.585964149E0
3.230442425E0,1.345050097E0,-8.959500194E-1,1.816050053E0,2.431033524E0
3.232404880E0,1.459950089E0,-8.190000653E-1,1.701000094E0,2.386549118E0
3.234367348E0,1.614000082E0,-7.429500222E-1,1.510050058E0,2.331785191E0
3.236329924E0,1.729050040E0,-5.890500546E-1,1.471050024E0,2.345331998E0
3.238292481E0,1.920000076E0,-5.130000114E-1,1.240950108E0,2.342973853E0
3.240256053E0,2.149950027E0,-3.979500234E-1,7.429500222E-1,2.309247513E0
3.242219327E0,2.380050182E0,-3.210000098E-1,1.680000126E-1,2.407468355E0
3.244182011E0,2.533950090E0,-2.440500110E-1,-5.970000029E-1,2.614741378E0
3.246144868E0,2.802000046E0,-2.059500068E-1,-1.671000123E0,3.268923534E0
3.248107612E0,3.147000074E0,-2.059500068E-1,-3.357000113E0,4.606025904E0
3.250070396E0,3.645000219E0,-2.059500068E-1,-5.388000488E0,6.508378544E0
3.252033118E0,4.219950199E0,-2.830500007E-1,-7.765050411E0,8.842177609E0
3.253995858E0,4.948050022E0,-4.740000367E-1,-1.071600056E1,1.181272801E1
3.255958497E0,5.446050167E0,-5.509500504E-1,-1.236405087E1,1.352156656E1
3.257921165E0,5.523000240E0,-5.509500504E-1,-1.136700058E1,1.264973438E1
3.259883906E0,5.446050167E0,-5.509500504E-1,-9.796050072E0,1.122165787E1
3.261846625E0,5.215950012E0,-5.130000114E-1,-8.569950104E0,1.004556361E1
3.263809448E0,4.909950256E0,-3.589500189E-1,-7.611000538E0,9.064424186E0
3.265772240E0,4.527000427E0,-2.440500110E-1,-6.652950287E0,8.050778894E0
3.267735186E0,4.143000126E0,-1.680000126E-1,-5.733000278E0,7.075306795E0
3.269698087E0,3.837000132E0,-1.680000126E-1,-4.736999989E0,6.098357394E0
3.271660419E0,3.376950264E0,-1.680000126E-1,-3.817050219E0,5.099204787E0
3.273622925E0,3.070050240E0,-1.290000081E-1,-2.974050045E0,4.276309524E0
3.275585063E0,2.649000168E0,-1.290000081E-1,-2.130000114E0,3.401579542E0
3.277547309E0,2.380050182E0,2.295000106E-2,-1.402050018E0,2.762410148E0
