"Time (s)","Acceleration x (m/s^2)","Acceleration y (m/s^2)","Acceleration z (m/s^2)","Absolute acceleration (m/s^2)"
3.595028700E-2,1.269000053E0,-8.101950645E0,-3.670500219E-1,8.208939707E0
3.791206300E-2,1.269000053E0,-8.140049934E0,-4.060500264E-1,8.248372609E0
3.987644100E-2,1.230000019E0,-8.140049934E0,-4.440000355E-1,8.244419265E0
4.183965500E-2,1.269000053E0,-8.140049934E0,-4.060500264E-1,8.248372609E0
4.380321000E-2,1.269000053E0,-8.178000450E0,-4.819500148E-1,8.289893143E0
4.576643000E-2,1.269000053E0,-8.254950523E0,-5.590500236E-1,8.370609668E0
4.772974900E-2,1.306950092E0,-8.254950523E0,-5.209500194E-1,8.373990423E0
4.969291900E-2,1.306950092E0,-8.332050323E0,-4.819500148E-1,8.447689445E0
5.165613300E-2,1.306950092E0,-8.407950401E0,-4.440000355E-1,8.520497904E0
5.361936600E-2,1.306950092E0,-8.407950401E0,-3.670500219E-1,8.516834753E0
5.558259300E-2,1.306950092E0,-8.523000717E0,-3.670500219E-1,8.630433679E0
5.754566100E-2,1.306950092E0,-8.599950790E0,-2.520000041E-1,8.702343141E0
5.950879700E-2,1.306950092E0,-8.599950790E0,-1.759500057E-1,8.700473007E0
6.147181900E-2,1.306950092E0,-8.677050591E0,-2.520000041E-1,8.778543700E0
6.343487400E-2,1.306950092E0,-8.830050468E0,-2.910000086E-1,8.930990473E0
6.539817900E-2,1.345050097E0,-9.060000420E0,-3.289500177E-1,9.165204607E0
6.736141000E-2,1.422000051E0,-9.250950813E0,-2.140500098E-1,9.362050657E0
6.932457200E-2,1.459950089E0,-9.442950249E0,-2.140500098E-1,9.557540535E0
7.128777200E-2,1.498950124E0,-9.595950127E0,-1.369500011E-1,9.713282947E0
7.325069200E-2,1.537050128E0,-9.750000000E0,-2.205000073E-2,9.870436125E0
7.521369500E-2,1.575000048E0,-9.903000832E0,-2.205000073E-2,1.002748906E1
7.717660400E-2,1.614000082E0,-1.001805019E1,-2.205000073E-2,1.014725639E1
7.913954100E-2,1.537050128E0,-1.021005058E1,-9.900000691E-2,1.032557296E1
8.110298200E-2,1.651950121E0,-1.028595066E1,-1.369500011E-1,1.041865997E1
8.306628900E-2,1.690050125E0,-1.036305046E1,-3.289500177E-1,1.050510792E1
8.502946300E-2,1.729050040E0,-1.044000053E1,-4.060500264E-1,1.059000009E1
8.699267600E-2,1.804950118E0,-1.055505085E1,-5.590500236E-1,1.072284852E1
8.895577500E-2,1.843950033E0,-1.059300041E1,-7.120500207E-1,1.077584450E1
9.091890700E-2,1.804950118E0,-1.055505085E1,-8.659500480E-1,1.074322172E1
9.288233800E-2,1.882050037E0,-1.059300041E1,-1.018950105E0,1.080703611E1
9.484567800E-2,1.920000076E0,-1.063095093E1,-1.134000063E0,1.086229598E1
9.680889100E-2,1.996950150E0,-1.055505085E1,-1.363950014E0,1.082853951E1
9.877214100E-2,1.996950150E0,-1.044000053E1,-1.594050050E0,1.074813549E1
1.007355480E-1,1.996950150E0,-1.044000053E1,-1.786050081E0,1.077828353E1
1.026989090E-1,2.074050188E0,-1.032495022E1,-1.861950040E0,1.069453782E1
1.046624870E-1,2.188950062E0,-1.024800014E1,-1.824000120E0,1.063672815E1
1.066259950E-1,2.380050182E0,-1.005600071E1,-1.747050047E0,1.048045672E1
1.085895390E-1,2.457000017E0,-1.001805019E1,-1.747050047E0,1.046185273E1
1.105530720E-1,2.419050217E0,-9.903000832E0,-1.632000089E0,1.032398439E1
1.125164330E-1,2.494950056E0,-9.865050316E0,-1.363950014E0,1.026666222E1
1.144798440E-1,2.533950090E0,-9.865050316E0,-1.402050018E0,1.028133576E1
1.164436980E-1,2.610000134E0,-9.826050758E0,-1.363950014E0,1.025786205E1
1.184074370E-1,2.649000168E0,-9.787950516E0,-1.326000094E0,1.022640961E1
1.203706270E-1,2.610000134E0,-9.750000000E0,-1.249050021E0,1.017028646E1
1.223339780E-1,2.494950056E0,-9.481050491E0,-1.134000063E0,9.869197047E0
1.242975470E-1,2.380050182E0,-9.366000175E0,-1.057050109E0,9.721314371E0
1.262610520E-1,2.227050066E0,-9.213000298E0,-9.040500522E-1,9.521367180E0
1.282245230E-1,2.188950062E0,-9.097949982E0,-8.269500136E-1,9.394042930E0
1.301880250E-1,2.035050154E0,-8.983050346E0,-6.739500165E-1,9.235303529E0
1.321519300E-1,1.882050037E0,-8.907000542E0,-5.590500236E-1,9.120817284E0
1.341157160E-1,1.920000076E0,-8.791950226E0,-3.289500177E-1,9.005165028E0
1.360790330E-1,1.690050125E0,-8.677050591E0,-1.369500011E-1,8.841166873E0
1.380424870E-1,1.690050125E0,-8.562000275E0,-6.105000153E-2,8.727419162E0
1.400060990E-1,1.537050128E0,-8.407950401E0,-1.369500011E-1,8.548386301E0
1.419696540E-1,1.422000051E0,-8.293050766E0,-1.759500057E-1,8.415921432E0
1.439333250E-1,1.345050097E0,-8.254950523E0,-3.289500177E-1,8.370279327E0
1.458969620E-1,1.345050097E0,-8.178000450E0,-4.440000355E-1,8.299758259E0
1.478605290E-1,1.306950092E0,-8.217000008E0,-4.440000355E-1,8.332127201E0
1.498241170E-1,1.345050097E0,-8.254950523E0,-5.590500236E-1,8.382476056E0
1.517880070E-1,1.345050097E0,-8.178000450E0,-6.739500165E-1,8.315230589E0
1.537518080E-1,1.306950092E0,-8.140049934E0,-8.269500136E-1,8.285673045E0
1.557152570E-1,1.345050097E0,-8.140049934E0,-8.659500480E-1,8.295748440E0
1.576788100E-1,1.422000051E0,-8.025000572E0,-9.420000315E-1,8.204272203E0
1.596425250E-1,1.422000051E0,-7.948050499E0,-1.096050024E0,8.148307587E0
1.616061920E-1,1.345050097E0,-7.909950256E0,-1.287000060E0,8.126059437E0
1.635697930E-1,1.306950092E0,-7.872000217E0,-1.402050018E0,8.101990510E0
1.655333860E-1,1.306950092E0,-7.833000183E0,-1.594050050E0,8.099691721E0
1.674969150E-1,1.306950092E0,-7.795050144E0,-1.708950043E0,8.086497112E0
1.694604630E-1,1.306950092E0,-7.833000183E0,-1.977000117E0,8.183675206E0
1.714241790E-1,1.269000053E0,-7.795050144E0,-2.245050192E0,8.210567474E0
1.733878460E-1,1.230000019E0,-7.717950344E0,-2.398950100E0,8.175244286E0
1.753513590E-1,1.306950092E0,-7.717950344E0,-2.475000143E0,8.209780860E0
1.773149200E-1,1.345050097E0,-7.717950344E0,-2.475000143E0,8.215932265E0
1.792784090E-1,1.306950092E0,-7.680000305E0,-2.475000143E0,8.174114566E0
1.812419200E-1,1.306950092E0,-7.680000305E0,-2.437050104E0,8.162703991E0
1.832052830E-1,1.306950092E0,-7.680000305E0,-2.437050104E0,8.162703991E0
1.851686890E-1,1.269000053E0,-7.603050232E0,-2.322000027E0,8.050367575E0
1.871319190E-1,1.269000053E0,-7.603050232E0,-2.359950066E0,8.061395554E0
1.890951800E-1,1.306950092E0,-7.642050266E0,-2.322000027E0,8.093252433E0
1.910584490E-1,1.153950095E0,-7.603050232E0,-2.284050226E0,8.022148034E0
1.930217160E-1,1.153950095E0,-7.564950466E0,-2.245050192E0,7.974981300E0
1.949851210E-1,1.269000053E0,-7.527000427E0,-2.245050192E0,7.956528573E0
1.969484850E-1,1.192050099E0,-7.488000393E0,-2.245050192E0,7.907678780E0
1.989118920E-1,1.077000022E0,-7.450050354E0,-2.245050192E0,7.855153066E0
2.008752730E-1,1.077000022E0,-7.411950588E0,-2.169000149E0,7.797531803E0
2.028389740E-1,1.039050102E0,-7.411950588E0,-2.169000149E0,7.792380784E0
2.048025810E-1,1.077000022E0,-7.335000515E0,-2.092050076E0,7.703170459E0
2.067661090E-1,9.240000248E-1,-7.335000515E0,-1.977000117E0,7.652747093E0
2.087296600E-1,8.089500666E-1,-7.297050476E0,-1.786050081E0,7.555879879E0
2.106930500E-1,8.470500112E-1,-7.219950199E0,-1.708950043E0,7.467642523E0
2.126564630E-1,7.320000529E-1,-7.182000160E0,-1.555950046E0,7.384980090E0
2.146189420E-1,7.320000529E-1,-7.143000126E0,-1.363950014E0,7.308805273E0
2.165816940E-1,5.790000558E-1,-7.105050564E0,-1.249050021E0,7.237203226E0
2.185457720E-1,5.790000558E-1,-7.027950287E0,-1.096050024E0,7.136431318E0
2.205094610E-1,6.550500393E-1,-6.990000248E0,-9.810000658E-1,7.088833130E0
2.224729350E-1,6.169500351E-1,-6.952050209E0,-8.269500136E-1,7.028191501E0
2.244364680E-1,6.940500140E-1,-6.952050209E0,-6.739500165E-1,7.019039547E0
2.263998730E-1,6.169500351E-1,-6.874950409E0,-5.209500194E-1,6.922207697E0
2.283633150E-1,6.169500351E-1,-6.874950409E0,-3.670500219E-1,6.912329288E0
2.303266900E-1,6.550500393E-1,-6.837000370E0,-2.140500098E-1,6.871643328E0
2.322900840E-1,9.240000248E-1,-6.874950409E0,-1.369500011E-1,6.938117502E0
2.342532410E-1,6.550500393E-1,-6.874950409E0,1.500000060E-2,6.906103002E0
2.362164680E-1,8.089500666E-1,-6.874950409E0,1.680000126E-1,6.924418195E0
2.381791590E-1,1.077000022E0,-6.952050209E0,2.070000172E-1,7.038023882E0
2.401420070E-1,1.192050099E0,-7.027950287E0,3.600000143E-1,7.137413305E0
2.421053020E-1,1.345050097E0,-7.143000126E0,4.360500276E-1,7.281603545E0
2.440684660E-1,1.422000051E0,-7.372950554E0,5.130000114E-1,7.526330648E0
2.460320980E-1,1.690050125E0,-7.564950466E0,5.899500251E-1,7.773852714E0
2.479955720E-1,1.920000076E0,-7.795050144E0,5.899500251E-1,8.049673787E0
2.499589430E-1,2.188950062E0,-8.101950645E0,5.130000114E-1,8.408107733E0
2.519223440E-1,2.188950062E0,-8.370000839E0,5.509500504E-1,8.669023150E0
2.538855900E-1,2.572050095E0,-8.752950668E0,5.130000114E-1,9.137437064E0
2.558488820E-1,2.764050245E0,-9.097949982E0,3.979500234E-1,9.516881414E0
2.578130110E-1,2.955000162E0,-9.442950249E0,3.600000143E-1,9.901057285E0
2.597768890E-1,3.184950113E0,-9.865050316E0,3.220500052E-1,1.037144354E1
2.617392440E-1,3.337950230E0,-1.017105007E1,3.220500052E-1,1.070961659E1
2.637020450E-1,3.492000103E0,-1.040100002E1,3.979500234E-1,1.097876270E1
2.656653930E-1,3.645000219E0,-1.074600029E1,5.509500504E-1,1.136072598E1
2.676285810E-1,3.760050297E0,-1.097595024E1,6.280500293E-1,1.161911824E1
2.695919450E-1,3.760050297E0,-1.120605087E1,7.810500264E-1,1.184582600E1
2.715552640E-1,3.952050209E0,-1.143600082E1,8.580000401E-1,1.213000329E1
2.735181650E-1,4.027950287E0,-1.162800026E1,9.730500579E-1,1.234429423E1
2.754811890E-1,4.066950321E0,-1.185795021E1,1.126049995E0,1.258646323E1
2.774445890E-1,4.182000160E0,-1.193400097E1,1.203000069E0,1.270262625E1
2.794078790E-1,4.182000160E0,-1.197300053E1,1.203000069E0,1.273927298E1
2.813709020E-1,4.297049999E0,-1.204905033E1,1.318050027E0,1.286007420E1
2.833340160E-1,4.335000038E0,-1.208805084E1,1.318050027E0,1.290931657E1
2.852972660E-1,4.450050354E0,-1.204905033E1,1.395000100E0,1.292008465E1
2.872604760E-1,4.603050232E0,-1.212600040E1,1.471050024E0,1.305342658E1
2.892238910E-1,4.756950378E0,-1.212600040E1,1.510050058E0,1.311292164E1
2.911872450E-1,5.025000095E0,-1.224105072E1,1.471050024E0,1.331382503E1
2.931501400E-1,5.331000328E0,-1.227900028E1,1.432950020E0,1.346279162E1
2.951131700E-1,5.293050289E0,-1.224105072E1,1.356000066E0,1.340516469E1
2.970769300E-1,5.331000328E0,-1.220295048E1,1.240950108E0,1.337428585E1
2.990404760E-1,5.254950047E0,-1.224105072E1,1.050000072E0,1.336264655E1
3.010036990E-1,5.370000362E0,-1.224105072E1,8.200500607E-1,1.339226302E1
3.029670160E-1,5.370000362E0,-1.227900028E1,5.130000114E-1,1.341170835E1
3.049314920E-1,5.293050289E0,-1.227900028E1,3.979500234E-1,1.337716687E1
3.068956290E-1,5.293050289E0,-1.231800079E1,1.300500035E-1,1.340770069E1
3.088592460E-1,5.101050377E0,-1.227900028E1,-9.900000691E-2,1.329678021E1
3.108230160E-1,4.987050056E0,-1.231800079E1,-2.910000086E-1,1.329242238E1
3.127868290E-1,4.680000305E0,-1.235595036E1,-5.590500236E-1,1.322438842E1
3.147506290E-1,4.488000393E0,-1.231800079E1,-7.890000343E-1,1.313384225E1
3.167143730E-1,4.027950287E0,-1.239405060E1,-9.810000658E-1,1.306901813E1
3.186781170E-1,3.568050146E0,-1.239405060E1,-1.096050024E0,1.294390968E1
3.206416200E-1,3.262050152E0,-1.243305016E1,-1.210950017E0,1.291077485E1
3.226051940E-1,2.878050089E0,-1.254795074E1,-1.326000094E0,1.294188999E1
3.245685010E-1,2.380050182E0,-1.266300106E1,-1.441050053E0,1.296506305E1
3.265318860E-1,1.843950033E0,-1.281600094E1,-1.363950014E0,1.301961564E1
3.284953090E-1,1.384050012E0,-1.300800037E1,-1.441050053E0,1.316055825E1
3.304587250E-1,1.114950061E0,-1.331400108E1,-1.402050018E0,1.343396750E1
3.324215200E-1,8.089500666E-1,-1.358205032E1,-1.402050018E0,1.367816638E1
3.343844970E-1,4.639500082E-1,-1.392705059E1,-1.402050018E0,1.400513235E1
3.363478150E-1,3.490500152E-1,-1.431105042E1,-1.402050018E0,1.438380145E1
3.383110330E-1,2.340000123E-1,-1.465605068E1,-1.441050053E0,1.472858455E1
3.402745860E-1,1.570500135E-1,-1.507695103E1,-1.479000092E0,1.515013393E1
3.422380380E-1,1.189500093E-1,-1.553700066E1,-1.555950046E0,1.561516952E1
3.442014570E-1,4.200000316E-2,-1.607400131E1,-1.516950130E0,1.614547676E1
3.461648860E-1,4.200000316E-2,-1.660995102E1,-1.479000092E0,1.667572122E1
3.481282630E-1,8.100000024E-2,-1.703205109E1,-1.479000092E0,1.709633781E1
3.500916560E-1,1.570500135E-1,-1.764495087E1,-1.402050018E0,1.770126267E1
3.520551840E-1,1.570500135E-1,-1.814295006E1,-1.287000060E0,1.818921853E1
3.540186960E-1,2.340000123E-1,-1.867995071E1,-1.134000063E0,1.871580270E1
3.559820150E-1,3.109500110E-1,-1.929300117E1,-1.018950105E0,1.932239228E1
3.579453910E-1,3.490500152E-1,-1.990695000E1,-9.040500522E-1,1.993052434E1
3.599094970E-1,4.639500082E-1,-2.048100090E1,-7.510500550E-1,2.050001765E1
3.618733890E-1,6.169500351E-1,-2.117100143E1,-5.590500236E-1,2.118736572E1
3.638367240E-1,6.940500140E-1,-2.190000153E1,-4.060500264E-1,2.191475870E1
3.658002280E-1,7.320000529E-1,-2.247405052E1,-3.289500177E-1,2.248837431E1
3.677635470E-1,8.089500666E-1,-2.324100113E1,-2.140500098E-1,2.325606052E1
3.697269200E-1,1.000050068E0,-2.396895027E1,1.500000060E-2,2.398980830E1
3.716894510E-1,1.230000019E0,-2.473605156E1,2.830500007E-1,2.476823094E1
3.736522280E-1,1.498950124E0,-2.538705063E1,3.979500234E-1,2.543437743E1
3.756151790E-1,1.767000079E0,-2.607705116E1,5.509500504E-1,2.614265542E1
3.775780760E-1,1.959000111E0,-2.672895050E1,5.509500504E-1,2.680630564E1
3.795413640E-1,2.304000139E0,-2.726505089E1,5.899500251E-1,2.736858523E1
3.815045380E-1,2.764050245E0,-2.780205154E1,5.130000114E-1,2.794382244E1
3.834688150E-1,3.031950235E0,-2.826195145E1,4.360500276E-1,2.842746491E1
3.854327680E-1,3.337950230E0,-2.853000069E1,2.830500007E-1,2.872599812E1
3.873964030E-1,3.682950258E0,-2.875995064E1,5.295000225E-2,2.899485622E1
3.893601410E-1,3.990000248E0,-2.887500191E1,-1.759500057E-1,2.914990215E1
3.913236450E-1,4.450050354E0,-2.887500191E1,-3.289500177E-1,2.921774960E1
3.932872180E-1,4.795050144E0,-2.872200203E1,-5.970000029E-1,2.912562987E1
3.952504350E-1,5.025000095E0,-2.856900215E1,-9.040500522E-1,2.902164393E1
3.972137560E-1,5.140050411E0,-2.822400093E1,-1.134000063E0,2.871063049E1
3.991772970E-1,5.331000328E0,-2.776395226E1,-1.326000094E0,2.830220637E1
4.011407970E-1,5.485050201E0,-2.737995148E1,-1.555950046E0,2.796727550E1
4.031039830E-1,5.370000362E0,-2.669100189E1,-1.900950074E0,2.729212518E1
4.050672610E-1,5.101050377E0,-2.592405128E1,-2.014950037E0,2.649787111E1
4.070308430E-1,4.603050232E0,-2.504205132E1,-2.053950071E0,2.554429714E1
4.089943360E-1,4.105050087E0,-2.404605103E1,-1.977000117E0,2.447391541E1
4.109577080E-1,3.798000097E0,-2.324100113E1,-1.900950074E0,2.362588727E1
4.129211120E-1,3.492000103E0,-2.243595123E1,-1.594050050E0,2.276196318E1
4.148844480E-1,3.262050152E0,-2.178495026E1,-1.326000094E0,2.206769823E1
4.168478040E-1,3.184950113E0,-2.121000099E1,-1.134000063E0,2.147775606E1
4.188113730E-1,3.108000040E0,-2.074995041E1,-9.810000658E-1,2.100434401E1
4.207748790E-1,3.108000040E0,-2.029005051E1,-7.510500550E-1,2.054044522E1
4.227377430E-1,3.184950113E0,-1.990695000E1,-5.209500194E-1,2.016685286E1
4.247007990E-1,3.184950113E0,-1.952295113E1,-3.289500177E-1,1.978377456E1
4.266640590E-1,3.223050117E0,-1.914000130E1,-2.520000041E-1,1.941111037E1
4.286272590E-1,3.184950113E0,-1.887195015E1,-2.520000041E-1,1.914047841E1
4.305902710E-1,3.184950113E0,-1.845000076E1,-2.520000041E-1,1.872458115E1
4.325533380E-1,3.031950235E0,-1.806705093E1,-2.910000086E-1,1.832200133E1
4.345166000E-1,3.070050240E0,-1.768395042E1,-3.670500219E-1,1.795221537E1
4.364798020E-1,3.108000040E0,-1.733895111E1,-4.440000355E-1,1.762089742E1
4.384430380E-1,3.070050240E0,-1.699394989E1,-3.289500177E-1,1.727216690E1
4.404062640E-1,3.223050117E0,-1.668704987E1,-2.520000041E-1,1.699732889E1
4.423695400E-1,3.300000191E0,-1.634205055E1,-2.140500098E-1,1.667328507E1
4.443328020E-1,3.337950230E0,-1.603499985E1,-6.105000153E-2,1.637885402E1
4.462949620E-1,3.376950264E0,-1.572900105E1,2.070000172E-1,1.608875744E1
4.482574350E-1,3.337950230E0,-1.530705070E1,4.360500276E-1,1.567283805E1
4.502209750E-1,3.337950230E0,-1.496205044E1,6.660000086E-1,1.534432863E1
4.521842020E-1,3.337950230E0,-1.461705112E1,7.429500222E-1,1.501173108E1
4.541475690E-1,3.337950230E0,-1.419600105E1,8.580000401E-1,1.460837163E1
4.561108940E-1,3.223050117E0,-1.381200027E1,8.959500194E-1,1.421133808E1
4.580740040E-1,3.147000074E0,-1.331400108E1,8.580000401E-1,1.370774957E1
4.600371560E-1,3.108000040E0,-1.281600094E1,5.130000114E-1,1.319745102E1
4.620013000E-1,2.992950201E0,-1.216395092E1,3.220500052E-1,1.253088860E1
4.639651540E-1,3.070050240E0,-1.170405102E1,2.070000172E-1,1.210177126E1
4.659284590E-1,3.031950235E0,-1.109100056E1,1.500000060E-2,1.149796680E1
4.678919250E-1,3.070050240E0,-1.059300041E1,-2.910000086E-1,1.103274885E1
4.698553060E-1,2.992950201E0,-1.005600071E1,-5.590500236E-1,1.050682817E1
4.718187050E-1,2.992950201E0,-9.442950249E0,-8.659500480E-1,9.943687937E0
4.737820870E-1,2.992950201E0,-8.944950104E0,-1.134000063E0,9.500307332E0
4.757454740E-1,3.031950235E0,-8.370000839E0,-1.326000094E0,9.000439574E0
4.777088580E-1,2.992950201E0,-7.872000217E0,-1.516950130E0,8.557293733E0
4.796722430E-1,3.108000040E0,-7.297050476E0,-1.708950043E0,8.113391409E0
4.816355830E-1,3.262050152E0,-6.760050297E0,-1.824000120E0,7.724391733E0
4.835989360E-1,3.337950230E0,-6.262050152E0,-1.824000120E0,7.326811058E0
4.855621450E-1,3.492000103E0,-5.725050449E0,-1.824000120E0,6.949621846E0
4.875253970E-1,3.607050180E0,-5.304000378E0,-1.747050047E0,6.647963213E0
4.894886680E-1,3.760050297E0,-5.035050392E0,-1.594050050E0,6.483109304E0
4.914519340E-1,3.837000132E0,-4.575000286E0,-1.441050053E0,6.142460654E0
4.934153080E-1,3.837000132E0,-4.306950092E0,-1.287000060E0,5.910055690E0
4.953786400E-1,3.990000248E0,-4.077000141E0,-1.057050109E0,5.801671058E0
4.973422590E-1,3.952050209E0,-3.847050190E0,-7.120500207E-1,5.561071052E0
4.993057940E-1,4.027950287E0,-3.541050196E0,-5.590500236E-1,5.392212619E0
5.012693330E-1,4.105050087E0,-3.310950041E0,-2.140500098E-1,5.278223545E0
5.032328710E-1,4.219950199E0,-3.118950129E0,-2.205000073E-2,5.247505673E0
5.051954450E-1,4.372950077E0,-2.965950251E0,2.449500114E-1,5.289570283E0
5.071583150E-1,4.527000427E0,-2.773950100E0,4.750500321E-1,5.330497590E0
5.091218320E-1,4.603050232E0,-2.581950188E0,7.050000429E-1,5.324618603E0
5.110851590E-1,4.680000305E0,-2.506050110E0,7.810500264E-1,5.365885682E0
5.130486890E-1,4.564949989E0,-2.238000154E0,8.959500194E-1,5.162377314E0
5.150121590E-1,4.450050354E0,-2.083950043E0,1.050000072E0,5.024768262E0
5.169757280E-1,4.411950111E0,-1.893000126E0,1.203000069E0,4.949339595E0
5.189392550E-1,4.372950077E0,-1.777950048E0,1.356000066E0,4.911469732E0
5.209030210E-1,4.335000038E0,-1.663050056E0,1.471050024E0,4.870518349E0
5.228667170E-1,4.335000038E0,-1.471050024E0,1.510050058E0,4.820421629E0
5.248303650E-1,4.219950199E0,-1.393950105E0,1.548000097E0,4.706100390E0
5.267940270E-1,4.066950321E0,-1.279050112E0,1.548000097E0,4.535676179E0
5.287575440E-1,4.027950287E0,-1.164000034E0,1.471050024E0,4.443339709E0
5.307211030E-1,3.913050175E0,-1.203000069E0,1.356000066E0,4.312529074E0
5.326845030E-1,3.913050175E0,-1.126049995E0,1.165050030E0,4.235244011E0
5.346479500E-1,3.952050209E0,-1.011000037E0,9.349500537E-1,4.185087040E0
5.366116830E-1,3.913050175E0,-8.580000401E-1,7.810500264E-1,4.081441520E0
5.385753320E-1,3.874950171E0,-7.039500475E-1,6.660000086E-1,3.994288485E0
5.405390660E-1,3.952050209E0,-5.890500546E-1,4.750500321E-1,4.023848078E0
5.425027510E-1,3.913050175E0,-4.740000367E-1,3.220500052E-1,3.954788731E0
5.444671650E-1,3.952050209E0,-3.210000098E-1,1.680000126E-1,3.968622666E0
5.464313660E-1,3.952050209E0,-2.059500068E-1,-2.205000073E-2,3.957474253E0
5.483940710E-1,3.913050175E0,-1.290000081E-1,-9.900000691E-2,3.916427412E0
5.503572140E-1,3.952050209E0,-1.500000060E-2,-2.140500098E-1,3.957871052E0
5.523202840E-1,3.913050175E0,1.380000114E-1,-3.670500219E-1,3.932649411E0
5.542833720E-1,3.952050209E0,2.140500098E-1,-5.590500236E-1,3.997130870E0
5.562469870E-1,3.913050175E0,3.679500222E-1,-6.739500165E-1,3.987675703E0
5.582104470E-1,3.913050175E0,4.830000103E-1,-6.360000372E-1,3.993713401E0
5.601741340E-1,3.874950171E0,5.209500194E-1,-7.510500550E-1,3.981294253E0
5.621377550E-1,3.913050175E0,5.980500579E-1,-8.269500136E-1,4.043942614E0
5.641012800E-1,3.874950171E0,7.129500508E-1,-8.269500136E-1,4.025839406E0
5.660648340E-1,3.952050209E0,7.510500550E-1,-9.420000315E-1,4.131602728E0
5.680283700E-1,3.874950171E0,9.040500522E-1,-1.057050109E0,4.117025656E0
5.699919110E-1,3.952050209E0,9.040500522E-1,-1.171950102E0,4.220127296E0
5.719551330E-1,3.952050209E0,9.430500269E-1,-1.287000060E0,4.261972943E0
5.739184490E-1,3.952050209E0,1.018950105E0,-1.479000092E0,4.341013873E0
5.758818600E-1,3.990000248E0,1.134000063E0,-1.632000089E0,4.457519760E0
5.778452320E-1,4.027950287E0,1.134000063E0,-1.747050047E0,4.534591880E0
5.798086190E-1,3.952050209E0,1.173000097E0,-2.014950037E0,4.588535031E0
5.817720010E-1,4.027950287E0,1.173000097E0,-2.092050076E0,4.687961845E0
5.837355210E-1,4.105050087E0,1.173000097E0,-2.359950066E0,4.878189188E0
5.856990010E-1,4.335000038E0,1.096050024E0,-2.514000177E0,5.129692766E0
5.876625640E-1,4.564949989E0,1.057950020E0,-2.743950129E0,5.430219973E0
5.896260920E-1,4.642050266E0,1.018950105E0,-2.935050249E0,5.585822227E0
5.915893180E-1,4.717950344E0,9.040500522E-1,-3.127050161E0,5.731911083E0
5.935526320E-1,4.756950378E0,8.659500480E-1,-3.165000200E0,5.778898914E0
5.955160280E-1,4.756950378E0,8.280000687E-1,-3.319050074E0,5.859202540E0
5.974793990E-1,4.717950344E0,7.129500508E-1,-3.472050190E0,5.901058019E0
5.994425830E-1,4.680000305E0,5.590500236E-1,-3.472050190E0,5.854064597E0
6.014058390E-1,4.488000393E0,3.679500222E-1,-3.702000141E0,5.829437348E0
6.033699660E-1,4.297049999E0,9.900000691E-2,-3.625050068E0,5.622759793E0
6.053338370E-1,4.027950287E0,-5.295000225E-2,-3.549000263E0,5.368667440E0
6.072975000E-1,3.760050297E0,-2.059500068E-1,-3.394950151E0,5.070116386E0
6.092612240E-1,3.415050268E0,-3.210000098E-1,-3.127050161E0,4.641557072E0
6.112249010E-1,2.992950201E0,-4.740000367E-1,-2.859000206E0,4.166090388E0
6.131885990E-1,2.572050095E0,-5.890500546E-1,-2.437050104E0,3.591884584E0
6.151522900E-1,2.149950027E0,-5.509500504E-1,-2.092050076E0,3.050000754E0
6.171159840E-1,1.651950121E0,-5.509500504E-1,-1.824000120E0,2.521797295E0
6.190794510E-1,1.345050097E0,-4.740000367E-1,-1.594050050E0,2.138885541E0
6.210429840E-1,1.077000022E0,-4.360500276E-1,-1.287000060E0,1.733908253E0
6.230054770E-1,7.320000529E-1,-3.589500189E-1,-1.210950017E0,1.459818186E0
6.249682820E-1,4.639500082E-1,-2.830500007E-1,-1.134000063E0,1.257506682E0
6.269320800E-1,2.340000123E-1,-2.059500068E-1,-1.210950017E0,1.250428468E0
6.288955870E-1,4.050000105E-3,-1.680000126E-1,-1.326000094E0,1.336606396E0
6.308589970E-1,-1.480500102E-1,-1.680000126E-1,-1.363950014E0,1.382209264E0
6.328224350E-1,-2.629500031E-1,-1.680000126E-1,-1.402050018E0,1.436353356E0
6.347857960E-1,-4.170000255E-1,-1.290000081E-1,-1.402050018E0,1.468425782E0
6.367491900E-1,-4.930500090E-1,-1.290000081E-1,-1.441050053E0,1.528517114E0
6.387125730E-1,-6.469500065E-1,-1.290000081E-1,-1.441050053E0,1.584869259E0
6.406759590E-1,-7.999500632E-1,-1.290000081E-1,-1.516950130E0,1.719796152E0
6.426396580E-1,-9.150000215E-1,-9.105000645E-2,-1.594050050E0,1.840247457E0
6.446032650E-1,-9.919500351E-1,-5.295000225E-2,-1.594050050E0,1.878234313E0
6.465661070E-1,-1.068000078E0,-5.295000225E-2,-1.555950046E0,1.887964092E0
6.485291800E-1,-1.106999993E0,-1.500000060E-2,-1.479000092E0,1.847461842E0
6.504936530E-1,-1.144950032E0,-5.295000225E-2,-1.441050053E0,1.841287466E0
6.524577160E-1,-1.106999993E0,-1.290000081E-1,-1.363950014E0,1.761377196E0
6.544211660E-1,-1.068000078E0,-9.105000645E-2,-1.249050021E0,1.645916227E0
6.563847950E-1,-1.030050039E0,-9.105000645E-2,-1.096050024E0,1.506857273E0
6.583479630E-1,-9.150000215E-1,-9.105000645E-2,-9.810000658E-1,1.344572896E0
6.603112620E-1,-8.770500422E-1,-5.295000225E-2,-7.890000343E-1,1.180907081E0
6.622748850E-1,-7.999500632E-1,-5.295000225E-2,-7.120500207E-1,1.072258849E0
6.642384130E-1,-6.469500065E-1,-5.295000225E-2,-6.360000372E-1,9.087596277E-1
6.662019090E-1,-5.320500135E-1,-5.295000225E-2,-4.440000355E-1,6.949942095E-1
6.681654150E-1,-3.780000210E-1,-5.295000225E-2,-3.670500219E-1,5.295407795E-1
6.701278630E-1,-2.629500031E-1,-1.500000060E-2,-2.910000086E-1,3.924903937E-1
6.720906310E-1,-1.099500060E-1,-1.500000060E-2,-1.369500011E-1,1.762648764E-1
6.740543010E-1,-3.299999982E-2,6.105000153E-2,-2.205000073E-2,7.281692940E-2
6.760177060E-1,1.189500093E-1,2.295000106E-2,5.295000225E-2,1.322100980E-1
6.779802320E-1,2.340000123E-1,2.295000106E-2,2.070000172E-1,3.132598209E-1
6.799430160E-1,3.109500110E-1,6.105000153E-2,3.220500052E-1,4.518110422E-1
6.819077500E-1,5.410500169E-1,6.105000153E-2,5.130000114E-1,7.480850454E-1
6.838719230E-1,6.169500351E-1,-1.500000060E-2,7.429500222E-1,9.658297372E-1
6.858349930E-1,7.699500322E-1,-1.500000060E-2,1.011000037E0,1.270893043E0
6.877983870E-1,8.470500112E-1,-1.500000060E-2,1.240950108E0,1.502556452E0
6.897623090E-1,9.240000248E-1,-5.295000225E-2,1.471050024E0,1.737978113E0
6.917260770E-1,1.039050102E0,-9.105000645E-2,1.585950017E0,1.898197217E0
6.936895960E-1,1.153950095E0,-1.290000081E-1,1.777950048E0,2.123522592E0
6.956531750E-1,1.192050099E0,-1.680000126E-1,2.008050203E0,2.341254592E0
6.976168850E-1,1.192050099E0,-1.680000126E-1,2.314950228E0,2.609253150E0
6.995805570E-1,1.306950092E0,-1.680000126E-1,2.583000183E0,2.899695242E0
7.015440290E-1,1.384050012E0,-2.440500110E-1,2.773950100E0,3.109654965E0
7.035075590E-1,1.422000051E0,-3.589500189E-1,2.889000177E0,3.239946185E0
7.054709640E-1,1.459950089E0,-3.979500234E-1,2.928000212E0,3.295907117E0
7.074344060E-1,1.306950092E0,-4.360500276E-1,2.965950251E0,3.270339288E0
7.093979600E-1,1.422000051E0,-5.509500504E-1,3.004050255E0,3.368968393E0
7.113614810E-1,1.537050128E0,-6.660000086E-1,3.043050051E0,3.473648330E0
7.133250220E-1,1.575000048E0,-7.810500264E-1,3.081000090E0,3.547284292E0
7.152885570E-1,1.537050128E0,-8.959500194E-1,3.157950163E0,3.624623948E0
7.172522320E-1,1.459950089E0,-8.959500194E-1,3.081000090E0,3.525158472E0
7.192158650E-1,1.459950089E0,-1.087950110E0,3.043050051E0,3.546158953E0
7.211794330E-1,1.537050128E0,-1.087950110E0,3.118950129E0,3.643351265E0
7.231430210E-1,1.575000048E0,-1.164000034E0,3.081000090E0,3.650764685E0
7.251066850E-1,1.537050128E0,-1.203000069E0,2.965950251E0,3.550576453E0
7.270703270E-1,1.575000048E0,-1.279050112E0,2.889000177E0,3.530285592E0
7.290335180E-1,1.575000048E0,-1.318050027E0,2.851050138E0,3.513739876E0
7.309968520E-1,1.614000082E0,-1.356000066E0,2.698050022E0,3.423916816E0
7.329601990E-1,1.729050040E0,-1.356000066E0,2.583000183E0,3.391200402E0
7.349235420E-1,1.767000079E0,-1.356000066E0,2.467950106E0,3.324425241E0
7.368868000E-1,1.882050037E0,-1.393950105E0,2.391000032E0,3.346952404E0
7.388500830E-1,1.920000076E0,-1.356000066E0,2.275950193E0,3.271862735E0
7.408133200E-1,1.959000111E0,-1.356000066E0,2.238000154E0,3.268801356E0
7.427765600E-1,1.882050037E0,-1.356000066E0,2.122950077E0,3.144481762E0
7.447399680E-1,1.843950033E0,-1.318050027E0,2.122950077E0,3.105531296E0
7.467033270E-1,1.804950118E0,-1.279050112E0,1.930950046E0,2.936389313E0
7.486664910E-1,1.804950118E0,-1.240950108E0,1.855050087E0,2.870368082E0
7.506297130E-1,1.804950118E0,-1.240950108E0,1.701000094E0,2.773301898E0
7.525929100E-1,1.767000079E0,-1.240950108E0,1.510050058E0,2.634861975E0
7.545561390E-1,1.729050040E0,-1.318050027E0,1.432950020E0,2.603884728E0
7.565194150E-1,1.690050125E0,-1.432950020E0,1.203000069E0,2.521274350E0
7.584826770E-1,1.690050125E0,-1.585950017E0,8.959500194E-1,2.484800459E0
7.604469390E-1,1.690050125E0,-1.777950048E0,5.899500251E-1,2.522977771E0
7.624109080E-1,1.843950033E0,-2.008050203E0,2.449500114E-1,2.737228133E0
7.643738280E-1,1.920000076E0,-2.314050198E0,-6.105000153E-2,3.007483286E0
7.663370590E-1,1.996950150E0,-2.697000027E0,-3.289500177E-1,3.371917430E0
7.682999740E-1,2.035050154E0,-3.081000090E0,-5.970000029E-1,3.740374271E0
7.702629820E-1,2.035050154E0,-3.502050161E0,-8.659500480E-1,4.141938429E0
7.722264300E-1,1.996950150E0,-3.924000263E0,-1.134000063E0,4.546596981E0
7.741897490E-1,2.035050154E0,-4.345950127E0,-1.516950130E0,5.032876844E0
7.761528050E-1,2.074050188E0,-4.804950237E0,-1.900950074E0,5.568019590E0
7.781159240E-1,1.996950150E0,-5.341950417E0,-2.359950066E0,6.172001982E0
7.800796690E-1,1.996950150E0,-5.802000046E0,-2.935050249E0,6.801877270E0
7.820432300E-1,2.035050154E0,-6.529950142E0,-3.586950064E0,7.723204564E0
7.840062700E-1,1.959000111E0,-7.297050476E0,-4.507050037E0,8.797620538E0
7.859694630E-1,1.729050040E0,-8.217000008E0,-5.388000488E0,9.976936024E0
7.879324750E-1,1.498950124E0,-9.328050613E0,-6.499950409E0,1.146772580E1
7.898955400E-1,1.537050128E0,-1.070805073E1,-7.765050411E0,1.331618870E1
7.918588430E-1,1.422000051E0,-1.231800079E1,-9.336000443E0,1.552147325E1
7.938220760E-1,1.537050128E0,-1.415700054E1,-1.086900043E1,1.791419431E1
7.957854870E-1,1.882050037E0,-1.603499985E1,-1.190400028E1,2.005912648E1
7.977488450E-1,2.227050066E0,-1.791300011E1,-1.232595062E1,2.185782202E1
7.997122060E-1,2.265000105E0,-1.960005188E1,-1.224900055E1,2.322348539E1
8.016755550E-1,2.419050217E0,-2.109495163E1,-1.155900097E1,2.417559289E1
8.036384500E-1,2.341950178E0,-2.239800072E1,-1.017900085E1,2.471370521E1
8.056014780E-1,2.188950062E0,-2.354805183E1,-8.455050468E0,2.511553555E1
8.075648770E-1,2.188950062E0,-2.465895081E1,-6.538050175E0,2.560471553E1
8.095281680E-1,2.111999989E0,-2.584695053E1,-4.890000343E0,2.639010229E1
8.114914400E-1,2.111999989E0,-2.722695160E1,-3.357000113E0,2.751430332E1
8.134547140E-1,2.304000139E0,-2.856900215E1,-2.053950071E0,2.873525729E1
8.154173510E-1,2.494950056E0,-3.006300163E1,-6.360000372E-1,3.017305651E1
8.173801750E-1,2.649000168E0,-3.144300079E1,4.750500321E-1,3.155796529E1
8.193437000E-1,2.802000046E0,-3.263100052E1,1.471050024E0,3.278410266E1
8.213070190E-1,2.992950201E0,-3.370395279E1,2.200050116E0,3.390802862E1
8.232703800E-1,3.031950235E0,-3.462405014E1,2.659050226E0,3.485811410E1
8.252337220E-1,3.223050117E0,-3.562095261E1,2.659050226E0,3.586517621E1
8.271971590E-1,3.529950142E0,-3.638700104E1,2.391000032E0,3.663592873E1
8.291605680E-1,3.798000097E0,-3.696195221E1,1.930950046E0,3.720671020E1
8.311240840E-1,3.990000248E0,-3.730695343E1,1.240950108E0,3.754022953E1
8.330875680E-1,3.990000248E0,-3.723105240E1,6.660000086E-1,3.745016583E1
8.350515120E-1,4.066950321E0,-3.688605118E1,-9.900000691E-2,3.710971109E1
8.370153280E-1,4.182000160E0,-3.623400116E1,-9.420000315E-1,3.648670072E1
8.389785940E-1,4.372950077E0,-3.523800278E1,-1.594050050E0,3.554406459E1
8.409420220E-1,4.680000305E0,-3.401100159E1,-2.014950037E0,3.439056056E1
8.429052190E-1,5.215950012E0,-3.270795059E1,-2.206950188E0,3.319468023E1
8.448684840E-1,5.868000507E0,-3.132795143E1,-2.130000114E0,3.194387064E1
8.468315530E-1,6.442950249E0,-2.979495049E1,-1.824000120E0,3.053813450E1
8.487946620E-1,6.826050282E0,-2.826195145E1,-1.326000094E0,2.910483015E1
8.507577770E-1,7.095000267E0,-2.684400177E1,-5.970000029E-1,2.777221397E1
8.527208900E-1,7.248000145E0,-2.569395065E1,2.449500114E-1,2.669780153E1
8.546837370E-1,7.248000145E0,-2.473605156E1,9.730500579E-1,2.579442923E1
8.566466620E-1,7.401000500E0,-2.404605103E1,1.701000094E0,2.521667662E1
8.586098130E-1,7.324050426E0,-2.347095108E1,2.200050116E0,2.468536975E1
8.605728940E-1,7.095000267E0,-2.289600182E1,2.314950228E0,2.408163040E1
8.625363310E-1,6.940950394E0,-2.262795067E1,2.122950077E0,2.376358266E1
8.644996640E-1,6.750000477E0,-2.262795067E1,1.816050053E0,2.368300436E1
8.664628780E-1,6.520050526E0,-2.258895111E1,1.510050058E0,2.355954207E1
8.684261270E-1,6.175050259E0,-2.270400047E1,1.240950108E0,2.356146940E1
8.703899100E-1,5.983050346E0,-2.301105118E1,7.810500264E-1,2.378897658E1
8.723535250E-1,5.944950104E0,-2.331795120E1,2.070000172E-1,2.406474868E1
8.743168260E-1,5.868000507E0,-2.381595039E1,-1.369500011E-1,2.452858900E1
8.762802190E-1,5.715000153E0,-2.431395149E1,-4.060500264E-1,2.497987871E1
8.782434670E-1,5.599950314E0,-2.473605156E1,-6.360000372E-1,2.536998593E1
8.802067580E-1,5.446050167E0,-2.500395203E1,-8.659500480E-1,2.560482277E1
8.821699470E-1,5.407950401E0,-2.515695190E1,-8.659500480E-1,2.574622353E1
8.841331560E-1,5.254950047E0,-2.531100082E1,-7.510500550E-1,2.586165770E1
8.860964350E-1,5.140050411E0,-2.531100082E1,-6.360000372E-1,2.583546742E1
8.880596930E-1,5.025000095E0,-2.523405075E1,-4.440000355E-1,2.573334567E1
8.900230990E-1,4.717950344E0,-2.508105087E1,-2.910000086E-1,2.552259488E1
8.919864620E-1,4.488000393E0,-2.496600151E1,-9.900000691E-2,2.536637893E1
8.939498310E-1,4.182000160E0,-2.469705200E1,1.680000126E-1,2.504918615E1
8.959132120E-1,3.874950171E0,-2.442900085E1,2.830500007E-1,2.473603523E1
8.978758780E-1,3.568050146E0,-2.419905090E1,4.750500321E-1,2.446529622E1
8.998387530E-1,3.300000191E0,-2.389305115E1,7.050000429E-1,2.413016617E1
9.018022240E-1,3.184950113E0,-2.366295052E1,7.810500264E-1,2.388910156E1
9.037655200E-1,3.031950235E0,-2.350905037E1,8.200500607E-1,2.371793949E1
9.057288940E-1,2.839950085E0,-2.335605049E1,9.349500537E-1,2.354664610E1
9.076922310E-1,2.649000168E0,-2.324100113E1,9.730500579E-1,2.341170993E1
9.096554900E-1,2.533950090E0,-2.324100113E1,1.050000072E0,2.340229768E1
9.116187720E-1,2.341950178E0,-2.320305061E1,1.087950110E0,2.334630429E1
9.135821280E-1,2.188950062E0,-2.320305061E1,1.203000069E0,2.333710070E1
9.155454620E-1,1.996950150E0,-2.320305061E1,1.279950023E0,2.332397135E1
9.175086710E-1,1.804950118E0,-2.312595177E1,1.279950023E0,2.323156822E1
9.194719210E-1,1.651950121E0,-2.308800125E1,1.240950108E0,2.318026527E1
9.214351480E-1,1.459950089E0,-2.304900169E1,1.165050030E0,2.312455999E1
9.233983820E-1,1.422000051E0,-2.297295189E1,1.050000072E0,2.304085725E1
9.253614770E-1,1.345050097E0,-2.285805130E1,1.011000037E0,2.291989943E1
9.273246130E-1,1.306950092E0,-2.274300194E1,8.580000401E-1,2.279667563E1
9.292882070E-1,1.269000053E0,-2.262795067E1,7.810500264E-1,2.267696081E1
9.312516440E-1,1.153950095E0,-2.243595123E1,5.899500251E-1,2.247335199E1
9.332153800E-1,1.114950061E0,-2.216805077E1,4.360500276E-1,2.220035423E1
9.351790290E-1,1.077000022E0,-2.193795013E1,3.220500052E-1,2.196673169E1
9.371424140E-1,1.000050068E0,-2.167005157E1,1.680000126E-1,2.169376545E1
9.391058770E-1,9.240000248E-1,-2.132505035E1,1.300500035E-1,2.134545529E1
9.410694460E-1,8.470500112E-1,-2.098005104E1,1.500000060E-2,2.099714886E1
9.430329710E-1,7.699500322E-1,-2.067300034E1,-6.105000153E-2,2.068742355E1
9.449966470E-1,8.089500666E-1,-2.029005051E1,-6.105000153E-2,2.030626201E1
9.469602780E-1,8.089500666E-1,-1.986795044E1,-6.105000153E-2,1.988450608E1
9.489238020E-1,8.470500112E-1,-1.940805054E1,-1.369500011E-1,1.942700890E1
9.508873570E-1,8.470500112E-1,-1.898700142E1,-9.900000691E-2,1.900614421E1
9.528511220E-1,8.850000501E-1,-1.852695084E1,-1.369500011E-1,1.854858182E1
9.548148220E-1,8.850000501E-1,-1.802805138E1,-2.520000041E-1,1.805151976E1
9.567786930E-1,1.000050068E0,-1.760700035E1,-1.759500057E-1,1.763625584E1
9.587425140E-1,1.114950061E0,-1.726200104E1,-2.140500098E-1,1.729929510E1
9.607061400E-1,1.230000019E0,-1.684005165E1,-1.369500011E-1,1.688546697E1
9.626698240E-1,1.345050097E0,-1.645695114E1,-9.900000691E-2,1.651212287E1
9.646335270E-1,1.345050097E0,-1.607400131E1,1.500000060E-2,1.613018608E1
9.665972490E-1,1.345050097E0,-1.569000053E1,1.300500035E-1,1.574808527E1
9.685598110E-1,1.384050012E0,-1.530705070E1,2.449500114E-1,1.537144743E1
9.705227130E-1,1.384050012E0,-1.492395115E1,4.360500276E-1,1.499433400E1
9.724862240E-1,1.422000051E0,-1.454100037E1,6.660000086E-1,1.462553697E1
9.744495570E-1,1.422000051E0,-1.419600105E1,8.959500194E-1,1.429514800E1
9.764131460E-1,1.422000051E0,-1.377405071E1,1.165050030E0,1.389618288E1
9.783766490E-1,1.345050097E0,-1.335300064E1,1.395000100E0,1.349288002E1
9.803400140E-1,1.306950092E0,-1.277805042E1,1.510050058E0,1.293317217E1
9.823034200E-1,1.306950092E0,-1.224105072E1,1.585950017E0,1.241235992E1
9.842666210E-1,1.306950092E0,-1.178100014E1,1.510050058E0,1.194907251E1
9.862298820E-1,1.230000019E0,-1.128300095E1,1.432950020E0,1.143994564E1
9.881931890E-1,1.192050099E0,-1.078500080E1,1.318050027E0,1.093043831E1
9.901565200E-1,1.192050099E0,-1.032495022E1,1.050000072E0,1.044643866E1
9.921200940E-1,1.153950095E0,-9.865050316E0,9.730500579E-1,9.979861972E0
9.940835970E-1,1.114950061E0,-9.442950249E0,8.200500607E-1,9.543841215E0
9.960469620E-1,9.619500637E-1,-8.983050346E0,8.580000401E-1,9.075059533E0
9.980103680E-1,8.850000501E-1,-8.523000717E0,7.050000429E-1,8.597778281E0
9.999735690E-1,7.320000529E-1,-7.987050533E0,5.130000114E-1,8.036912922E0
1.001936830E0,6.169500351E-1,-7.527000427E0,3.600000143E-1,7.560817600E0
1.003900415E0,5.410500169E-1,-7.143000126E0,2.449500114E-1,7.167648598E0
1.005863905E0,4.260000288E-1,-6.721950531E0,1.300500035E-1,6.736691174E0
1.007827137E0,2.340000123E-1,-6.300000191E0,5.295000225E-2,6.304566766E0
1.009790445E0,1.960500032E-1,-5.955000401E0,-6.105000153E-2,5.958539458E0
1.011753781E0,4.200000316E-2,-5.533950329E0,-1.759500057E-1,5.536906054E0
1.013717120E0,4.050000105E-3,-5.112000465E0,-2.910000086E-1,5.120277938E0
1.015680198E0,-1.480500102E-1,-4.729050159E0,-3.670500219E-1,4.745583203E0
1.017643352E0,-2.250000089E-1,-4.306950092E0,-6.360000372E-1,4.359465581E0
1.019606776E0,-3.780000210E-1,-3.847050190E0,-9.040500522E-1,3.969884844E0
1.021570120E0,-3.400500119E-1,-3.387000084E0,-1.057050109E0,3.564373509E0
1.023533342E0,-3.780000210E-1,-2.889000177E0,-1.171950102E0,3.140489306E0
1.025496593E0,-3.780000210E-1,-2.428950071E0,-1.402050018E0,2.829916380E0
1.027459595E0,-2.250000089E-1,-1.969050050E0,-1.747050047E0,2.641962712E0
1.029422670E0,-1.480500102E-1,-1.509000063E0,-2.014950037E0,2.521710461E0
1.031385927E0,-1.099500060E-1,-1.011000037E0,-2.014950037E0,2.257040924E0
1.033349130E0,4.050000105E-3,-5.130000114E-1,-1.824000120E0,1.894772243E0
1.035311280E0,1.189500093E-1,-1.680000126E-1,-1.786050081E0,1.797873188E0
1.037273742E0,3.870000243E-1,9.900000691E-2,-1.900950074E0,1.942467813E0
1.039238005E0,6.169500351E-1,4.440000355E-1,-1.824000120E0,1.976041451E0
1.041201740E0,8.850000501E-1,7.129500508E-1,-1.786050081E0,2.116954831E0
1.043165246E0,1.153950095E0,1.018950105E0,-1.594050050E0,2.216045058E0
1.045128819E0,1.384050012E0,1.134000063E0,-1.326000094E0,2.227066866E0
1.047092382E0,1.804950118E0,1.326000094E0,-1.210950017E0,2.546079559E0
1.049055957E0,2.149950027E0,1.402950048E0,-1.096050024E0,2.791393848E0
1.051019265E0,2.457000017E0,1.518000126E0,-9.420000315E-1,3.037850807E0
1.052982651E0,2.802000046E0,1.555950046E0,-8.659500480E-1,3.319947934E0
1.054945855E0,3.108000040E0,1.671000123E0,-6.360000372E-1,3.585582478E0
1.056909113E0,3.415050268E0,1.671000123E0,-4.819500148E-1,3.832373359E0
1.058872163E0,3.645000219E0,1.708950043E0,-2.520000041E-1,4.033613870E0
1.060835271E0,3.913050175E0,1.747950077E0,-9.900000691E-2,4.286851075E0
1.062798521E0,4.143000126E0,1.786050081E0,1.500000060E-2,4.511612787E0
1.064761730E0,4.372950077E0,1.786050081E0,2.070000172E-1,4.728162040E0
1.066724109E0,4.564949989E0,1.786050081E0,3.220500052E-1,4.912479975E0
1.068686732E0,4.756950378E0,1.786050081E0,5.509500504E-1,5.110978160E0
1.070650218E0,4.872000217E0,1.824000120E0,7.050000429E-1,5.249798817E0
1.072613471E0,5.101050377E0,1.824000120E0,8.200500607E-1,5.479066845E0
1.074576699E0,5.178000450E0,1.824000120E0,8.959500194E-1,5.562498677E0
1.076539935E0,5.331000328E0,1.786050081E0,9.349500537E-1,5.699444797E0
1.078503479E0,5.523000240E0,1.786050081E0,8.580000401E-1,5.867680173E0
1.080466933E0,5.676000118E0,1.786050081E0,8.580000401E-1,6.011914529E0
1.082429946E0,5.752950191E0,1.747950077E0,7.429500222E-1,6.058361174E0
1.084393089E0,5.868000507E0,1.786050081E0,5.130000114E-1,6.155207052E0
1.086357280E0,5.944950104E0,1.747950077E0,2.449500114E-1,6.201432231E0
1.088321164E0,6.021000385E0,1.747950077E0,5.295000225E-2,6.269814895E0
1.090284464E0,6.060000420E0,1.747950077E0,-1.369500011E-1,6.308541025E0
1.092247935E0,6.097950459E0,1.747950077E0,-3.670500219E-1,6.354136840E0
1.094210929E0,6.213000298E0,1.786050081E0,-5.970000029E-1,6.492130359E0
1.096174074E0,6.289950371E0,1.824000120E0,-8.659500480E-1,6.606082167E0
1.098137453E0,6.328050137E0,1.786050081E0,-1.249050021E0,6.692855846E0
1.100100764E0,6.442950249E0,1.747950077E0,-1.402050018E0,6.821486761E0
1.102064206E0,6.520050526E0,1.708950043E0,-1.555950046E0,6.917553733E0
1.104027610E0,6.595950127E0,1.671000123E0,-1.747050047E0,7.025025505E0
1.105991122E0,6.711000443E0,1.633050084E0,-1.939050078E0,7.173861911E0
1.107954605E0,6.787950516E0,1.555950046E0,-1.900950074E0,7.218785489E0
1.109918019E0,6.865050316E0,1.479000092E0,-2.053950071E0,7.316766226E0
1.111881453E0,6.979950428E0,1.402950048E0,-2.169000149E0,7.442616372E0
1.113845008E0,7.095000267E0,1.249050021E0,-2.206950188E0,7.534572574E0
1.115808528E0,7.210050106E0,1.134000063E0,-2.245050192E0,7.636165860E0
1.117771843E0,7.285950184E0,9.810000658E-1,-2.245050192E0,7.686851213E0
1.119735252E0,7.401000500E0,7.510500550E-1,-2.169000149E0,7.748770627E0
1.121698587E0,7.516050339E0,5.590500236E-1,-2.092050076E0,7.821778771E0
1.123661944E0,7.593000412E0,2.530499995E-1,-2.053950071E0,7.869968263E0
1.125626098E0,7.554000378E0,6.105000153E-2,-1.977000117E0,7.808660466E0
1.127590019E0,7.516050339E0,-1.680000126E-1,-1.824000120E0,7.736033424E0
1.129553643E0,7.438950539E0,-2.830500007E-1,-1.824000120E0,7.664533832E0
1.131517344E0,7.324050426E0,-5.130000114E-1,-1.900950074E0,7.584094860E0
1.133481034E0,7.171050549E0,-8.190000653E-1,-1.861950040E0,7.453964383E0
1.135444728E0,6.940950394E0,-1.087950110E0,-1.747050047E0,7.239655494E0
1.137407879E0,6.750000477E0,-1.318050027E0,-1.708950043E0,7.086626317E0
1.139371190E0,6.405000210E0,-1.471050024E0,-1.555950046E0,6.753443300E0
1.141334630E0,6.250950336E0,-1.624050021E0,-1.326000094E0,6.593193068E0
1.143298033E0,5.944950104E0,-1.777950048E0,-1.096050024E0,6.301179554E0
1.145261370E0,5.676000118E0,-1.854000092E0,-8.269500136E-1,6.028112475E0
1.147224727E0,5.293050289E0,-1.893000126E0,-5.970000029E-1,5.652985038E0
1.149187981E0,4.909950256E0,-1.930950046E0,-2.910000086E-1,5.284019361E0
1.151151266E0,4.603050232E0,-1.930950046E0,-6.105000153E-2,4.992030310E0
1.153113392E0,4.182000160E0,-1.930950046E0,1.300500035E-1,4.608102258E0
1.155075867E0,3.837000132E0,-1.969050050E0,3.600000143E-1,4.327739377E0
1.157039046E0,3.529950142E0,-1.969050050E0,5.899500251E-1,4.084819107E0
1.159002019E0,3.262050152E0,-1.930950046E0,7.050000429E-1,3.855718394E0
1.160965610E0,2.955000162E0,-1.893000126E0,8.959500194E-1,3.621905834E0
1.162929019E0,2.610000134E0,-1.893000126E0,1.011000037E0,3.379004476E0
1.164892390E0,2.304000139E0,-1.816050053E0,1.050000072E0,3.115919541E0
1.166855780E0,2.035050154E0,-1.816050053E0,1.087950110E0,2.936511938E0
1.168819388E0,1.920000076E0,-1.816050053E0,1.087950110E0,2.857984172E0
1.170782932E0,1.843950033E0,-1.816050053E0,1.087950110E0,2.807458808E0
1.172746290E0,1.729050040E0,-1.777950048E0,1.087950110E0,2.708201591E0
1.174709703E0,1.651950121E0,-1.663050056E0,1.126049995E0,2.600512119E0
1.176673301E0,1.498950124E0,-1.509000063E0,1.126049995E0,2.406641073E0
1.178636817E0,1.345050097E0,-1.356000066E0,1.087950110E0,2.198074472E0
1.180600136E0,1.230000019E0,-1.203000069E0,9.730500579E-1,1.976596982E0
1.182563512E0,1.077000022E0,-1.011000037E0,8.580000401E-1,1.708278136E0
1.184526897E0,8.470500112E-1,-7.429500222E-1,8.200500607E-1,1.393538862E0
1.186490279E0,7.320000529E-1,-6.280500293E-1,7.429500222E-1,1.217475114E0
1.188452730E0,5.410500169E-1,-4.360500276E-1,6.280500293E-1,9.366544649E-1
1.190415478E0,3.870000243E-1,-2.830500007E-1,5.509500504E-1,7.303644841E-1
1.192380052E0,1.570500135E-1,-1.680000126E-1,4.360500276E-1,4.929790438E-1
1.194344091E0,-3.299999982E-2,-9.105000645E-2,2.449500114E-1,2.634000982E-1
1.196306824E0,-1.870500147E-1,-1.500000060E-2,2.070000172E-1,2.793952668E-1
1.198269939E0,-2.629500031E-1,9.900000691E-2,-2.205000073E-2,2.818331209E-1
1.200233429E0,-3.780000210E-1,2.140500098E-1,-1.369500011E-1,4.554741764E-1
1.202196798E0,-4.170000255E-1,2.910000086E-1,-3.289500177E-1,6.056221102E-1
1.204160142E0,-5.700000525E-1,3.679500222E-1,-4.819500148E-1,8.322037584E-1
1.206123493E0,-6.469500065E-1,4.830000103E-1,-7.890000343E-1,1.128873055E0
1.208086388E0,-7.620000243E-1,5.209500194E-1,-1.096050024E0,1.432954506E0
1.210049416E0,-8.380500674E-1,5.209500194E-1,-1.402050018E0,1.714485664E0
1.212012486E0,-9.150000215E-1,6.739500165E-1,-1.747050047E0,2.084134720E0
1.213975554E0,-9.919500351E-1,7.129500508E-1,-2.169000149E0,2.489342141E0
1.215938993E0,-1.144950032E0,7.510500550E-1,-2.398950100E0,2.762236113E0
1.217902323E0,-1.222050071E0,8.280000687E-1,-2.590050220E0,2.981165986E0
1.219865358E0,-1.375050068E0,8.659500480E-1,-2.704950094E0,3.155532790E0
1.221828479E0,-1.489950061E0,9.430500269E-1,-2.782050133E0,3.293796818E0
1.223791558E0,-1.605000019E0,1.018950105E0,-2.743950129E0,3.338195124E0
1.225754643E0,-1.681950092E0,1.096050024E0,-2.590050220E0,3.276986712E0
1.227718078E0,-1.795950055E0,1.173000097E0,-2.359950066E0,3.189158218E0
1.229681410E0,-1.950000048E0,1.210950017E0,-2.014950037E0,3.054328696E0
1.231644758E0,-1.987950087E0,1.249050021E0,-1.632000089E0,2.859282391E0
1.233608102E0,-2.026050091E0,1.249050021E0,-1.287000060E0,2.705803777E0
1.235571518E0,-2.140950203E0,1.288050056E0,-9.420000315E-1,2.670225604E0
1.237534895E0,-2.218050003E0,1.326000094E0,-5.970000029E-1,2.652250190E0
1.239498102E0,-2.140950203E0,1.326000094E0,-2.140500098E-1,2.527402111E0
1.241461359E0,-2.179949999E0,1.326000094E0,9.195000678E-2,2.553216217E0
1.243424044E0,-2.218050003E0,1.326000094E0,3.979500234E-1,2.614648406E0
1.245386897E0,-2.256000042E0,1.326000094E0,7.050000429E-1,2.710136067E0
1.247350371E0,-2.332950115E0,1.326000094E0,9.730500579E-1,2.854427947E0
1.249313664E0,-2.295000076E0,1.326000094E0,1.126049995E0,2.879807319E0
1.251276750E0,-2.448000193E0,1.326000094E0,1.279950023E0,3.064188841E0
1.253239896E0,-2.410050154E0,1.249050021E0,1.395000100E0,3.051965429E0
1.255202916E0,-2.448000193E0,1.288050056E0,1.471050024E0,3.133012298E0
1.257165973E0,-2.524950027E0,1.210950017E0,1.548000097E0,3.199699499E0
1.259129293E0,-2.524950027E0,1.249050021E0,1.663050056E0,3.271274077E0
1.261092525E0,-2.524950027E0,1.173000097E0,1.777950048E0,3.303393444E0
1.263055351E0,-2.563050032E0,1.096050024E0,1.893000126E0,3.369569794E0
1.265018296E0,-2.563050032E0,1.057950020E0,1.969950080E0,3.401350765E0
1.266981800E0,-2.563050032E0,8.659500480E-1,2.085000038E0,3.415599524E0
1.268945140E0,-2.256000042E0,5.590500236E-1,2.200050116E0,3.200358360E0
1.270909754E0,-1.795950055E0,1.380000114E-1,2.275950193E0,2.902486845E0
1.272873991E0,-1.413000107E0,-2.059500068E-1,2.353049994E0,2.752422384E0
1.274837231E0,-8.380500674E-1,-6.660000086E-1,2.430000067E0,2.655331288E0
1.276800763E0,-4.930500090E-1,-1.087950110E0,2.545050144E0,2.811407831E0
1.278764167E0,-2.250000089E-1,-1.356000066E0,2.659050226E0,2.993310757E0
1.280727609E0,4.050000105E-3,-1.548000097E0,2.812950134E0,3.210764576E0
1.282691317E0,1.570500135E-1,-1.624050021E0,2.851050138E0,3.284918579E0
1.284654933E0,2.340000123E-1,-1.738950133E0,2.928000212E0,3.413486313E0
1.286618144E0,3.490500152E-1,-1.816050053E0,3.004050255E0,3.527632583E0
1.288581474E0,4.260000288E-1,-1.930950046E0,3.004050255E0,3.596437409E0
1.290545948E0,5.020500422E-1,-2.008050203E0,3.004050255E0,3.648100574E0
1.292510087E0,6.550500393E-1,-2.161050081E0,2.851050138E0,3.636992563E0
1.294472811E0,6.940500140E-1,-2.391000032E0,2.698050022E0,3.671247812E0
1.296435944E0,9.240000248E-1,-2.812050104E0,2.391000032E0,3.805033901E0
1.298399326E0,1.039050102E0,-3.463950157E0,1.930950046E0,4.099651678E0
1.300362635E0,1.153950095E0,-4.384050369E0,1.432950020E0,4.754455197E0
1.302326754E0,1.345050097E0,-5.764050484E0,5.509500504E-1,5.944491879E0
1.304290635E0,1.843950033E0,-8.025000572E0,-5.970000029E-1,8.255737091E0
1.306254195E0,2.227050066E0,-1.113000011E1,-1.594050050E0,1.146200899E1
1.308217825E0,1.959000111E0,-1.431105042E1,-2.322000027E0,1.462995316E1
1.310181348E0,1.269000053E0,-1.691700172E1,-3.088950157E0,1.724346025E1
1.312144902E0,1.039050102E0,-1.971495056E1,-3.970050097E0,2.013753209E1
1.314108212E0,1.039050102E0,-2.312595177E1,-4.813050270E0,2.364433808E1
1.316071594E0,1.306950092E0,-2.669100189E1,-5.197050095E0,2.722364836E1
1.318034664E0,1.614000082E0,-3.010200119E1,-5.119950294E0,3.057694169E1
1.319997825E0,2.111999989E0,-3.316800308E1,-5.082000256E0,3.362147675E1
1.321961427E0,2.572050095E0,-3.627195358E1,-5.043000221E0,3.671105977E1
1.323924900E0,3.184950113E0,-3.899400330E1,-4.966950417E0,3.943788530E1
1.325888090E0,3.607050180E0,-4.148505020E1,-4.276950359E0,4.186063193E1
1.327851363E0,4.105050087E0,-4.370805359E1,-3.894000292E0,4.407276509E1
1.329814752E0,4.527000427E0,-4.562400055E1,-3.510000229E0,4.598220591E1
1.331778116E0,4.948050022E0,-4.719600296E1,-3.433950186E0,4.757875480E1
1.333741280E0,5.140050411E0,-4.826895142E1,-3.280050039E0,4.865254893E1
1.335704503E0,5.446050167E0,-4.907400131E1,-2.359950066E0,4.943163392E1
1.337668140E0,5.293050289E0,-4.945695114E1,-2.245050192E0,4.979002559E1
1.339631655E0,4.909950256E0,-4.938000107E1,-1.939050078E0,4.966137364E1
1.341595173E0,4.450050354E0,-4.888200378E1,-1.402050018E0,4.910416465E1
1.343558676E0,4.488000393E0,-4.807695389E1,-9.040500522E-1,4.829444015E1
1.345521905E0,4.717950344E0,-4.688895035E1,-4.060500264E-1,4.712746117E1
1.347485214E0,5.215950012E0,-4.566300201E1,1.500000060E-2,4.595994030E1
1.349448026E0,6.021000385E0,-4.439805222E1,3.220500052E-1,4.480561575E1
1.351410984E0,7.285950184E0,-4.336305237E1,7.429500222E-1,4.397716857E1
1.353374666E0,8.857950211E0,-4.236600113E1,7.429500222E-1,4.328848933E1
1.355338135E0,1.027605057E1,-4.114005280E1,4.360500276E-1,4.240626485E1
1.357301281E0,1.169400024E1,-3.991395187E1,2.830500007E-1,4.159270745E1
1.359264522E0,1.226895046E1,-3.803505325E1,6.660000086E-1,3.997043879E1
1.361227975E0,1.222995090E1,-3.611894989E1,1.203000069E0,3.815229285E1
1.363191366E0,1.177005100E1,-3.427905273E1,1.510050058E0,3.627489226E1
1.365154764E0,1.092705059E1,-3.263100052E1,1.777950048E0,3.445785449E1
1.367118151E0,1.004595089E1,-3.129000092E1,2.314950228E0,3.294456376E1
1.369081669E0,9.088050842E0,-3.025500107E1,2.275950193E0,3.167234925E1
1.371045149E0,8.053050041E0,-2.948805046E1,2.008050203E0,3.063378854E1
1.373008158E0,7.171050549E0,-2.891400146E1,1.624950051E0,2.983427407E1
1.374971305E0,6.442950249E0,-2.864505196E1,1.356000066E0,2.939199458E1
1.376934389E0,5.830050468E0,-2.841495132E1,1.050000072E0,2.902587548E1
1.378897478E0,5.293050289E0,-2.833905220E1,7.050000429E-1,2.883774065E1
1.380861994E0,4.872000217E0,-2.826195145E1,2.830500007E-1,2.868020926E1
1.382826092E0,4.680000305E0,-2.826195145E1,-6.105000153E-2,2.864688516E1
1.384788994E0,4.680000305E0,-2.837700081E1,-5.590500236E-1,2.876576289E1
1.386752247E0,4.987050056E0,-2.849205208E1,-9.810000658E-1,2.894183928E1
1.388715503E0,5.407950401E0,-2.860695076E1,-1.134000063E0,2.913570860E1
1.390678769E0,5.676000118E0,-2.860695076E1,-1.134000063E0,2.918665046E1
1.392642309E0,5.676000118E0,-2.853000069E1,-1.096050024E0,2.910977915E1
1.394605769E0,5.523000240E0,-2.837700081E1,-1.057050109E0,2.892879295E1
1.396568781E0,5.407950401E0,-2.814705086E1,-1.018950105E0,2.867996964E1
1.398531925E0,5.331000328E0,-2.787900162E1,-7.890000343E-1,2.839508438E1
1.400495369E0,5.178000450E0,-2.757195091E1,-6.739500165E-1,2.806204509E1
1.402458711E0,5.062950134E0,-2.726505089E1,-4.819500148E-1,2.773533378E1
1.404421608E0,4.987050056E0,-2.695905113E1,-2.520000041E-1,2.741759673E1
1.406384636E0,4.948050022E0,-2.661405182E1,-1.369500011E-1,2.707045823E1
1.408347720E0,4.872000217E0,-2.626905060E1,9.195000678E-2,2.671718287E1
1.410310788E0,4.717950344E0,-2.588595200E1,2.449500114E-1,2.631352441E1
1.412273152E0,4.642050266E0,-2.546400070E1,3.979500234E-1,2.588672105E1
1.414235718E0,4.527000427E0,-2.508105087E1,5.899500251E-1,2.549315372E1
1.416199197E0,4.488000393E0,-2.477400208E1,5.130000114E-1,2.518246404E1
1.418162408E0,4.372950077E0,-2.427600098E1,5.899500251E-1,2.467377062E1
1.420125688E0,4.372950077E0,-2.377800179E1,6.660000086E-1,2.418593842E1
1.422088947E0,4.335000038E0,-2.339400101E1,6.280500293E-1,2.380054527E1
1.424052483E0,4.372950077E0,-2.297295189E1,6.660000086E-1,2.339493037E1
1.426015942E0,4.335000038E0,-2.251305199E1,6.280500293E-1,2.293521707E1
1.427979315E0,4.182000160E0,-2.193795013E1,5.130000114E-1,2.233888875E1
1.429942713E0,3.990000248E0,-2.136300087E1,3.220500052E-1,2.173480215E1
1.431906455E0,3.760050297E0,-2.074995041E1,1.680000126E-1,2.108854296E1
1.433870096E0,3.568050146E0,-2.013600159E1,1.500000060E-2,2.044968867E1
1.435833058E0,3.415050268E0,-1.948500061E1,-1.369500011E-1,1.978248145E1
1.437796233E0,3.262050152E0,-1.894799995E1,-2.140500098E-1,1.922793517E1
1.439759338E0,3.108000040E0,-1.833495140E1,-4.060500264E-1,1.860094040E1
1.441722463E0,2.917050123E0,-1.783695030E1,-5.590500236E-1,1.808254723E1
1.443685711E0,2.878050089E0,-1.733895111E1,-5.590500236E-1,1.758507705E1
1.445648923E0,2.802000046E0,-1.680195045E1,-6.360000372E-1,1.704585696E1
1.447612292E0,2.686950207E0,-1.626495171E1,-7.510500550E-1,1.650249774E1
1.449575615E0,2.649000168E0,-1.565205097E1,-9.420000315E-1,1.590255532E1
1.451539010E0,2.494950056E0,-1.503900051E1,-1.210950017E0,1.529257049E1
1.453502384E0,2.457000017E0,-1.442595100E1,-1.441050053E0,1.470447336E1
1.455465411E0,2.494950056E0,-1.385100079E1,-1.594050050E0,1.416389756E1
1.457428540E0,2.494950056E0,-1.323795033E1,-1.786050081E0,1.358889545E1
1.459391814E0,2.494950056E0,-1.270095062E1,-2.053950071E0,1.310563365E1
1.461355058E0,2.533950090E0,-1.216395092E1,-2.359950066E0,1.264721192E1
1.463318422E0,2.533950090E0,-1.151295090E1,-2.629050016E0,1.207811432E1
1.465281750E0,2.457000017E0,-1.090005016E1,-2.896950245E0,1.154297463E1
1.467244830E0,2.457000017E0,-1.032495022E1,-3.088950157E0,1.105364461E1
1.469207983E0,2.494950056E0,-9.865050316E0,-3.127050161E0,1.064530113E1
1.471171202E0,2.649000168E0,-9.366000175E0,-3.204000235E0,1.024718394E1
1.473134418E0,2.686950207E0,-8.907000542E0,-3.088950157E0,9.802855356E0
1.475097608E0,2.686950207E0,-8.370000839E0,-3.127050161E0,9.330330014E0
1.477060805E0,2.649000168E0,-7.872000217E0,-3.127050161E0,8.874910254E0
1.479023906E0,2.572050095E0,-7.450050354E0,-2.974050045E0,8.423993449E0
1.480987036E0,2.494950056E0,-7.027950287E0,-2.935050249E0,8.014448264E0
1.482950597E0,2.419050217E0,-6.607050419E0,-2.820000172E0,7.580060696E0
1.484914033E0,2.380050182E0,-6.223950386E0,-2.667000055E0,7.177401102E0
1.486877229E0,2.304000139E0,-5.839950085E0,-2.475000143E0,6.748263432E0
1.488840496E0,2.341950178E0,-5.572050095E0,-2.206950188E0,6.434524227E0
1.490803585E0,2.227050066E0,-5.265000343E0,-1.861950040E0,6.012224095E0
1.492766727E0,2.265000105E0,-5.035050392E0,-1.555950046E0,5.736108304E0
1.494729894E0,2.227050066E0,-4.767000198E0,-1.096050024E0,5.374511005E0
1.496693077E0,2.227050066E0,-4.498950005E0,-6.360000372E-1,5.060118495E0
1.498656137E0,2.304000139E0,-4.345950127E0,-2.140500098E-1,4.923567462E0
1.500619233E0,2.304000139E0,-4.000950336E0,1.680000126E-1,4.619983143E0
1.502581631E0,2.341950178E0,-3.771000147E0,7.050000429E-1,4.494685507E0
1.504544233E0,2.419050217E0,-3.579000235E0,1.087950110E0,4.454737037E0
1.506507395E0,2.494950056E0,-3.426000118E0,1.395000100E0,4.461869325E0
1.508470389E0,2.494950056E0,-3.157050133E0,1.548000097E0,4.311385581E0
1.510433796E0,2.649000168E0,-2.889000177E0,2.008050203E0,4.404065115E0
1.512397082E0,2.764050245E0,-2.697000027E0,2.620950222E0,4.667243616E0
1.514360349E0,2.686950207E0,-2.467050076E0,3.043050051E0,4.750388521E0
1.516323622E0,2.649000168E0,-2.199000120E0,3.310950041E0,4.776525263E0
1.518286860E0,2.610000134E0,-1.854000092E0,3.579000235E0,4.801943327E0
1.520250098E0,2.457000017E0,-1.548000097E0,3.808950186E0,4.789703008E0
1.522213102E0,2.494950056E0,-1.279050112E0,3.963000298E0,4.854494446E0
1.524176175E0,2.494950056E0,-9.730500579E-1,4.078050137E0,4.878739091E0
1.526139297E0,2.494950056E0,-6.660000086E-1,4.192950249E0,4.924343975E0
1.528102404E0,2.533950090E0,-4.360500276E-1,4.231050014E0,4.951043013E0
1.530064891E0,2.533950090E0,-1.680000126E-1,4.308000088E0,5.000799118E0
1.532027559E0,2.533950090E0,2.295000106E-2,4.192950249E0,4.899210299E0
1.533990705E0,2.610000134E0,2.530499995E-1,4.000950336E0,4.783695077E0
1.535953711E0,2.610000134E0,4.830000103E-1,3.771000147E0,4.611489110E0
1.537917161E0,2.725050211E0,7.510500550E-1,3.463950157E0,4.470897620E0
1.539880480E0,2.764050245E0,9.810000658E-1,3.118950129E0,4.281376507E0
1.541843411E0,2.802000046E0,1.173000097E0,2.889000177E0,4.192070552E0
1.543806435E0,2.802000046E0,1.363950014E0,2.506050110E0,3.998981252E0
1.545769655E0,2.917050123E0,1.555950046E0,2.085000038E0,3.908629827E0
1.547732817E0,2.992950201E0,1.708950043E0,1.663050056E0,3.826747528E0
1.549695926E0,3.031950235E0,1.863000035E0,1.356000066E0,3.808179032E0
1.551659050E0,3.147000074E0,2.053950071E0,8.580000401E-1,3.854670470E0
1.553623361E0,3.223050117E0,2.245950222E0,3.220500052E-1,3.941580986E0
1.555587337E0,3.223050117E0,2.398950100E0,-9.900000691E-2,4.019056437E0
1.557550621E0,3.223050117E0,2.590950012E0,-4.819500148E-1,4.163333982E0
1.559514108E0,3.184950113E0,2.782050133E0,-9.420000315E-1,4.332559777E0
1.561477790E0,3.223050117E0,2.935950041E0,-1.402050018E0,4.579694199E0
1.563441414E0,3.184950113E0,3.127050161E0,-1.786050081E0,4.807527933E0
1.565404772E0,3.337950230E0,3.166050196E0,-2.169000149E0,5.086290124E0
1.567368199E0,3.453000069E0,3.280950069E0,-2.551950216E0,5.403729521E0
1.569331621E0,3.568050146E0,3.280950069E0,-2.935050249E0,5.666580553E0
1.571295045E0,3.760050297E0,3.319050074E0,-3.204000235E0,5.951444289E0
1.573258378E0,3.990000248E0,3.319050074E0,-3.472050190E0,6.244303635E0
1.575221737E0,4.219950199E0,3.241950035E0,-3.702000141E0,6.482516854E0
1.577184991E0,4.488000393E0,3.241950035E0,-3.817050219E0,6.724749804E0
1.579148276E0,4.833000183E0,3.127050161E0,-3.931950092E0,6.971123655E0
1.581111812E0,5.140050411E0,3.051000118E0,-4.009050369E0,7.197305386E0
1.583075274E0,5.407950401E0,2.935950041E0,-4.123950005E0,7.407610534E0
1.585038646E0,5.715000153E0,2.743950129E0,-4.237950325E0,7.625661415E0
1.587002045E0,5.983050346E0,2.590950012E0,-4.200000286E0,7.755637680E0
1.588965252E0,6.289950371E0,2.398950100E0,-4.123950005E0,7.894643810E0
1.590928512E0,6.634950161E0,2.208000183E0,-4.084949970E0,8.098434707E0
1.592891917E0,6.940950394E0,2.053950071E0,-4.084949970E0,8.311577439E0
1.594855279E0,7.171050549E0,1.786050081E0,-3.970050097E0,8.388995091E0
1.596818533E0,7.324050426E0,1.555950046E0,-3.778950214E0,8.387082921E0
1.598781819E0,7.554000378E0,1.402950048E0,-3.664050102E0,8.512135672E0
1.600744966E0,7.630950451E0,1.173000097E0,-3.394950151E0,8.434039397E0
1.602708175E0,7.783950329E0,1.018950105E0,-3.165000200E0,8.464358706E0
1.604671409E0,7.783950329E0,7.890000343E-1,-2.820000172E0,8.316538026E0
1.606634635E0,7.708050251E0,5.980500579E-1,-2.514000177E0,8.129692456E0
1.608597687E0,7.708050251E0,4.060500264E-1,-2.130000114E0,8.007235215E0
1.610560790E0,7.438950539E0,2.140500098E-1,-1.747050047E0,7.644343424E0
1.612524573E0,7.248000145E0,2.295000106E-2,-1.402050018E0,7.382396431E0
1.614488163E0,6.940950394E0,-1.290000081E-1,-1.134000063E0,7.034158764E0
1.616451378E0,6.481050491E0,-1.290000081E-1,-9.040500522E-1,6.545071655E0
1.618414703E0,6.097950459E0,-1.680000126E-1,-7.510500550E-1,6.146324103E0
1.620377873E0,5.446050167E0,-1.680000126E-1,-7.120500207E-1,5.494970579E0
1.622341088E0,4.909950256E0,-2.059500068E-1,-6.739500165E-1,4.960265673E0
1.624304341E0,4.411950111E0,-2.059500068E-1,-6.360000372E-1,4.462310527E0
1.626267568E0,3.952050209E0,-2.059500068E-1,-7.120500207E-1,4.020961513E0
1.628230305E0,3.453000069E0,-2.830500007E-1,-7.890000343E-1,3.553286905E0
1.630193185E0,3.031950235E0,-3.210000098E-1,-8.269500136E-1,3.159052004E0
1.632156610E0,2.686950207E0,-4.360500276E-1,-7.890000343E-1,2.834142215E0
1.634119875E0,2.419050217E0,-5.130000114E-1,-7.120500207E-1,2.573322404E0
1.636083159E0,2.149950027E0,-5.509500504E-1,-6.739500165E-1,2.319491260E0
1.638046428E0,1.882050037E0,-6.280500293E-1,-5.590500236E-1,2.061333576E0
1.640009653E0,1.651950121E0,-6.660000086E-1,-4.819500148E-1,1.845202165E0
1.641972891E0,1.537050128E0,-6.660000086E-1,-3.289500177E-1,1.707128355E0
1.643936435E0,1.384050012E0,-7.810500264E-1,-2.140500098E-1,1.603574440E0
1.645899889E0,1.306950092E0,-8.580000401E-1,-6.105000153E-2,1.564611682E0
1.647862245E0,1.269000053E0,-8.580000401E-1,1.680000126E-1,1.541022131E0
1.649824910E0,1.269000053E0,-8.580000401E-1,4.360500276E-1,1.592691066E0
1.651788372E0,1.192050099E0,-8.190000653E-1,7.429500222E-1,1.625951808E0
1.653751601E0,1.077000022E0,-8.190000653E-1,9.349500537E-1,1.644634232E0
1.655714698E0,1.000050068E0,-8.580000401E-1,1.126049995E0,1.733278050E0
1.657677833E0,9.619500637E-1,-8.580000401E-1,1.318050027E0,1.843574752E0
1.659641275E0,9.619500637E-1,-8.959500194E-1,1.471050024E0,1.972831097E0
1.661604616E0,8.850000501E-1,-8.580000401E-1,1.510050058E0,1.949266615E0
1.663567784E0,8.470500112E-1,-8.580000401E-1,1.585950017E0,1.992208635E0
1.665531002E0,8.470500112E-1,-8.959500194E-1,1.663050056E0,2.070254971E0
1.667494234E0,8.089500666E-1,-8.190000653E-1,1.663050056E0,2.022596550E0
1.669457462E0,7.699500322E-1,-7.810500264E-1,1.740000129E0,2.056808850E0
1.671420033E0,6.550500393E-1,-7.429500222E-1,1.740000129E0,2.002165262E0
1.673382786E0,5.410500169E-1,-6.280500293E-1,1.816050053E0,1.996301519E0
1.675345917E0,4.639500082E-1,-5.890500546E-1,1.893000126E0,2.036094068E0
1.677308937E0,5.020500422E-1,-5.130000114E-1,1.855050087E0,1.989078702E0
1.679272159E0,3.870000243E-1,-4.360500276E-1,1.816050053E0,1.907340148E0
1.681235322E0,3.490500152E-1,-3.210000098E-1,1.585950017E0,1.655329084E0
1.683198764E0,2.719500065E-1,-2.440500110E-1,1.432950020E0,1.478804576E0
1.685162110E0,2.719500065E-1,-1.680000126E-1,1.203000069E0,1.244744944E0
1.687125142E0,1.960500032E-1,-1.290000081E-1,9.349500537E-1,9.639544640E-1
1.689088266E0,1.960500032E-1,-1.290000081E-1,5.509500504E-1,5.988510364E-1
1.691051514E0,1.570500135E-1,-5.295000225E-2,1.300500035E-1,2.106689652E-1
1.693014726E0,4.200000316E-2,2.295000106E-2,-9.900000691E-2,1.099622853E-1
1.694977801E0,-3.299999982E-2,9.900000691E-2,-3.670500219E-1,3.815962787E-1
1.696940934E0,-1.099500060E-1,1.759500057E-1,-6.360000372E-1,6.689868875E-1
1.698904181E0,-1.870500147E-1,3.289500177E-1,-8.269500136E-1,9.094185765E-1
1.700867394E0,-3.400500119E-1,4.060500264E-1,-1.057050109E0,1.182313650E0
1.702830584E0,-4.549500346E-1,5.590500236E-1,-1.134000063E0,1.343678758E0
1.704793781E0,-5.320500135E-1,7.129500508E-1,-1.210950017E0,1.502589410E0
1.706757006E0,-5.320500135E-1,7.510500550E-1,-1.210950017E0,1.521036931E0
1.708720230E0,-6.469500065E-1,8.280000687E-1,-1.210950017E0,1.603286739E0
1.710683283E0,-7.999500632E-1,9.040500522E-1,-1.210950017E0,1.709861557E0
1.712646386E0,-7.999500632E-1,9.810000658E-1,-1.134000063E0,1.699481502E0
1.714609638E0,-8.770500422E-1,9.810000658E-1,-1.134000063E0,1.737105077E0
1.716572846E0,-9.150000215E-1,9.810000658E-1,-9.040500522E-1,1.617681262E0
1.718536437E0,-9.150000215E-1,9.430500269E-1,-5.970000029E-1,1.443252367E0
1.720499919E0,-1.030050039E0,9.810000658E-1,-4.060500264E-1,1.479270373E0
1.722463153E0,-1.144950032E0,9.810000658E-1,-6.105000153E-2,1.508972766E0
1.724426459E0,-1.222050071E0,9.430500269E-1,1.680000126E-1,1.552731056E0
1.726388911E0,-1.336950064E0,9.040500522E-1,6.280500293E-1,1.731816621E0
1.728351613E0,-1.297950029E0,8.659500480E-1,1.011000037E0,1.859210811E0
1.730314764E0,-1.375050068E0,8.659500480E-1,1.395000100E0,2.141648303E0
1.732277808E0,-1.375050068E0,7.510500550E-1,1.548000097E0,2.202531084E0
1.734241206E0,-1.375050068E0,6.360000372E-1,1.855050087E0,2.395092809E0
1.736204500E0,-1.297950029E0,4.440000355E-1,2.122950077E0,2.527593191E0
1.738167721E0,-1.183050036E0,4.060500264E-1,2.467950106E0,2.766814366E0
1.740130964E0,-1.106999993E0,2.910000086E-1,2.736000061E0,2.965775838E0
1.742094211E0,-1.030050039E0,2.140500098E-1,2.851050138E0,3.038964854E0
1.744057444E0,-8.770500422E-1,1.380000114E-1,3.004050255E0,3.132503585E0
1.746021394E0,-8.380500674E-1,2.295000106E-2,3.118950129E0,3.229660125E0
1.747985134E0,-7.620000243E-1,-1.500000060E-2,3.157950163E0,3.248617901E0
1.749948098E0,-7.620000243E-1,-5.295000225E-2,3.118950129E0,3.211120933E0
1.751911290E0,-6.079500318E-1,-1.500000060E-2,3.081000090E0,3.140444203E0
1.753874747E0,-4.549500346E-1,-9.105000645E-2,2.928000212E0,2.964532826E0
1.755838129E0,-4.170000255E-1,-1.290000081E-1,2.812950134E0,2.846615268E0
1.757800975E0,-3.400500119E-1,-1.290000081E-1,2.506050110E0,2.532303727E0
1.759763978E0,-3.400500119E-1,-1.290000081E-1,2.161050081E0,2.191440728E0
1.761726887E0,-3.780000210E-1,-1.290000081E-1,1.701000094E0,1.747262527E0
1.763689824E0,-3.780000210E-1,-1.680000126E-1,1.318050027E0,1.381435447E0
1.765654141E0,-3.019500077E-1,-3.210000098E-1,6.660000086E-1,7.986055502E-1
1.767618053E0,-2.250000089E-1,-5.509500504E-1,5.295000225E-2,5.974735682E-1
1.769580807E0,-7.200000435E-2,-8.959500194E-1,-4.060500264E-1,9.862996815E-1
1.771543901E0,4.200000316E-2,-1.279050112E0,-9.040500522E-1,1.566856626E0
1.773508055E0,3.870000243E-1,-1.548000097E0,-1.134000063E0,1.957557014E0
1.775471899E0,7.699500322E-1,-1.854000092E0,-1.249050021E0,2.364374198E0
1.777435001E0,1.153950095E0,-2.122950077E0,-1.363950014E0,2.774685116E0
1.779398338E0,1.345050097E0,-2.351999998E0,-1.363950014E0,3.033384808E0
1.781361235E0,1.575000048E0,-2.581950188E0,-1.363950014E0,3.317747966E0
1.783324261E0,1.920000076E0,-2.773950100E0,-1.441050053E0,3.668490794E0
1.785287526E0,2.074050188E0,-3.004050255E0,-1.402050018E0,3.910466260E0
1.787250721E0,2.380050182E0,-3.157050133E0,-1.441050053E0,4.208114740E0
1.789214319E0,2.610000134E0,-3.426000118E0,-1.479000092E0,4.553791692E0
1.791177798E0,2.839950085E0,-3.771000147E0,-1.632000089E0,4.994915703E0
1.793141122E0,3.031950235E0,-4.077000141E0,-1.824000120E0,5.398298697E0
1.795104492E0,3.300000191E0,-4.498950005E0,-2.169000149E0,5.986243734E0
1.797067699E0,3.453000069E0,-5.035050392E0,-2.704950094E0,6.677701471E0
1.799030954E0,3.760050297E0,-5.649000168E0,-3.394950151E0,7.587810466E0
1.800993834E0,3.913050175E0,-6.492000103E0,-4.009050369E0,8.574993404E0
1.802956814E0,4.143000126E0,-7.450050354E0,-4.507050037E0,9.642675996E0
1.804919907E0,4.182000160E0,-8.638050079E0,-4.774950027E0,1.071938348E1
1.806882966E0,4.105050087E0,-1.001805019E1,-4.852050304E0,1.186402790E1
1.808845912E0,3.990000248E0,-1.155105019E1,-4.582950115E0,1.305183106E1
1.810808891E0,3.682950258E0,-1.316100025E1,-4.200000286E0,1.429741419E1
1.812771790E0,3.415050268E0,-1.457895088E1,-3.778950214E0,1.544308395E1
1.814734723E0,3.070050240E0,-1.591995049E1,-3.394950151E0,1.656489416E1
1.816697824E0,2.839950085E0,-1.741500092E1,-2.820000172E0,1.786896680E1
1.818660875E0,2.649000168E0,-1.898700142E1,-2.514000177E0,1.933503612E1
1.820624317E0,2.533950090E0,-2.044305038E1,-1.861950040E0,2.068347336E1
1.822587644E0,2.380050182E0,-2.193795013E1,-1.057050109E0,2.209198157E1
1.824549934E0,2.533950090E0,-2.366295052E1,-2.140500098E-1,2.379920057E1
1.826512545E0,2.802000046E0,-2.542605209E1,9.730500579E-1,2.559847956E1
1.828475836E0,3.184950113E0,-2.722695160E1,1.777950048E0,2.747020034E1
1.830438928E0,3.529950142E0,-2.902800179E1,1.969950080E0,2.930812411E1
1.832402004E0,4.027950287E0,-3.075300217E1,1.740000129E0,3.106443507E1
1.834365084E0,4.488000393E0,-3.232500076E1,1.356000066E0,3.266322945E1
1.836327975E0,5.025000095E0,-3.381900024E1,1.165050030E0,3.421012635E1
1.838290925E0,5.370000362E0,-3.527595139E1,6.660000086E-1,3.568855848E1
1.840254788E0,5.944950104E0,-3.665595245E1,2.449500114E-1,3.713571438E1
1.842218384E0,6.328050137E0,-3.788205338E1,-3.670500219E-1,3.840870881E1
1.844181508E0,6.673050404E0,-3.899400330E1,-9.810000658E-1,3.957302435E1
1.846144771E0,7.324050426E0,-4.002900314E1,-1.479000092E0,4.072039107E1
1.848107801E0,7.708050251E0,-4.060305023E1,-1.900950074E0,4.137191485E1
1.850070910E0,8.091000557E0,-4.087200165E1,-2.284050226E0,4.172770895E1
1.852033846E0,8.665950775E0,-4.071795273E1,-2.704950094E0,4.171770766E1
1.853996833E0,9.126000404E0,-4.006695175E1,-2.859000206E0,4.119245548E1
1.855959879E0,9.547050476E0,-3.891705322E1,-2.820000172E0,4.017008346E1
1.857922908E0,9.661950111E0,-3.723105240E1,-2.743950129E0,3.856207729E1
1.859885998E0,9.777000427E0,-3.546795273E1,-2.551950216E0,3.687923342E1
1.861849067E0,9.700950623E0,-3.370395279E1,-2.437050104E0,3.515684983E1
1.863812011E0,9.624000549E0,-3.209505081E1,-2.206950188E0,3.357952207E1
1.865774992E0,9.126000404E0,-3.060000229E1,-1.977000117E0,3.199300788E1
1.867737905E0,8.589000702E0,-2.956500053E1,-1.441050053E0,3.082104500E1
1.869700838E0,7.938000202E0,-2.883705139E1,-7.510500550E-1,2.991908181E1
1.871663173E0,7.132950306E0,-2.826195145E1,1.500000060E-2,2.914819213E1
1.873625684E0,6.558000088E0,-2.795505142E1,7.429500222E-1,2.872358334E1
1.875589398E0,5.830050468E0,-2.772495079E1,1.165050030E0,2.835524160E1
1.877552759E0,5.140050411E0,-2.749500084E1,1.432950020E0,2.800800841E1
1.879515969E0,4.527000427E0,-2.745705223E1,1.432950020E0,2.786461548E1
1.881479223E0,4.143000126E0,-2.749500084E1,1.432950020E0,2.784228559E1
1.883442314E0,3.952050209E0,-2.761005211E1,1.395000100E0,2.792632635E1
1.885405453E0,3.760050297E0,-2.780205154E1,1.240950108E0,2.808259257E1
1.887368519E0,3.645000219E0,-2.803200150E1,1.126049995E0,2.829040691E1
1.889331607E0,3.607050180E0,-2.837700081E1,1.011000037E0,2.862319177E1
1.891294861E0,3.682950258E0,-2.872200203E1,8.200500607E-1,2.896877639E1
1.893258067E0,3.798000097E0,-2.899005127E1,7.050000429E-1,2.924628015E1
1.895221492E0,4.027950287E0,-2.929695129E1,5.509500504E-1,2.957768220E1
1.897184846E0,4.372950077E0,-2.960295105E1,3.220500052E-1,2.992592721E1
1.899148777E0,4.795050144E0,-2.975700188E1,9.195000678E-2,3.014100399E1
1.901112538E0,5.140050411E0,-2.987205124E1,-1.369500011E-1,3.031135627E1
1.903075679E0,5.560950279E0,-2.987205124E1,-4.060500264E-1,3.038796620E1
1.905039002E0,5.983050346E0,-2.979495049E1,-5.590500236E-1,3.039487626E1
1.907002356E0,6.289950371E0,-2.968005180E1,-6.739500165E-1,3.034671579E1
1.908965697E0,6.520050526E0,-2.948805046E1,-6.739500165E-1,3.020778687E1
1.910929089E0,6.711000443E0,-2.929695129E1,-7.120500207E-1,3.006419627E1
1.912892466E0,6.865050316E0,-2.902800179E1,-6.739500165E-1,2.983635387E1
1.914855673E0,6.940950394E0,-2.872200203E1,-5.970000029E-1,2.955480675E1
1.916818930E0,7.018050194E0,-2.845395088E1,-5.209500194E-1,2.931129029E1
1.918782330E0,7.095000267E0,-2.814705086E1,-4.819500148E-1,2.903149629E1
1.920745692E0,7.171050549E0,-2.784000206E1,-5.209500194E-1,2.875345318E1
1.922709126E0,7.171050549E0,-2.753400040E1,-5.590500236E-1,2.845799854E1
1.924672538E0,7.248000145E0,-2.726505089E1,-7.120500207E-1,2.822097662E1
1.926635874E0,7.210050106E0,-2.699700165E1,-8.659500480E-1,2.795662337E1
1.928599233E0,7.095000267E0,-2.661405182E1,-1.096050024E0,2.756534253E1
1.930562815E0,6.979950428E0,-2.623095131E1,-1.134000063E0,2.716741561E1
1.932526322E0,6.750000477E0,-2.584695053E1,-1.287000060E0,2.674478879E1
1.934489687E0,6.405000210E0,-2.538705063E1,-1.402050018E0,2.622007078E1
1.936453093E0,6.136050224E0,-2.492700195E1,-1.363950014E0,2.570733161E1
1.938416653E0,5.791050434E0,-2.450595093E1,-1.363950014E0,2.521781623E1
1.940380168E0,5.446050167E0,-2.412300110E1,-1.363950014E0,2.476770082E1
1.942343716E0,5.140050411E0,-2.362395096E1,-1.287000060E0,2.421089726E1
1.944307250E0,4.756950378E0,-2.327895164E1,-1.210950017E0,2.379085048E1
1.946270610E0,4.450050354E0,-2.285805130E1,-1.018950105E0,2.330947697E1
1.948234021E0,4.258049965E0,-2.251305199E1,-8.659500480E-1,2.292854921E1
1.950197401E0,4.027950287E0,-2.216805077E1,-6.739500165E-1,2.254109729E1
1.952160790E0,3.760050297E0,-2.178495026E1,-4.819500148E-1,2.211231132E1
1.954124238E0,3.607050180E0,-2.147805023E1,-3.289500177E-1,2.178131449E1
1.956087654E0,3.492000103E0,-2.105595016E1,-1.759500057E-1,2.134427465E1
1.958051035E0,3.376950264E0,-2.071095085E1,-2.205000073E-2,2.098446484E1
1.960014426E0,3.223050117E0,-2.032800102E1,1.680000126E-1,2.058261163E1
1.961976863E0,3.070050240E0,-1.986795044E1,2.449500114E-1,2.010523971E1
1.963939579E0,2.917050123E0,-1.948500061E1,3.979500234E-1,1.970616133E1
1.965902947E0,2.839950085E0,-1.914000130E1,5.130000114E-1,1.935634612E1
1.967866121E0,2.725050211E0,-1.875705147E1,5.509500504E-1,1.896197311E1
1.969829317E0,2.610000134E0,-1.825800133E1,6.660000086E-1,1.845562974E1
1.971792506E0,2.380050182E0,-1.783695030E1,5.899500251E-1,1.800470705E1
1.973755744E0,2.304000139E0,-1.737705040E1,6.660000086E-1,1.754177452E1
1.975718967E0,2.188950062E0,-1.695495033E1,7.050000429E-1,1.711019778E1
1.977682379E0,2.074050188E0,-1.645695114E1,6.660000086E-1,1.660049641E1
1.979645736E0,2.149950027E0,-1.607400131E1,7.429500222E-1,1.623415468E1
1.981609170E0,2.227050066E0,-1.565205097E1,8.200500607E-1,1.583094860E1
1.983572582E0,2.265000105E0,-1.519200039E1,8.959500194E-1,1.538602703E1
1.985535918E0,2.341950178E0,-1.480905056E1,8.959500194E-1,1.501983474E1
1.987499277E0,2.380050182E0,-1.431105042E1,8.580000401E-1,1.453296140E1
1.989462451E0,2.341950178E0,-1.377405071E1,6.280500293E-1,1.398583750E1
1.991425704E0,2.265000105E0,-1.335300064E1,4.360500276E-1,1.355075611E1
1.993390012E0,2.227050066E0,-1.277805042E1,2.449500114E-1,1.297298443E1
1.995354010E0,2.149950027E0,-1.212600040E1,1.500000060E-2,1.231512874E1
1.997317651E0,1.996950150E0,-1.158900070E1,-9.900000691E-2,1.176021038E1
1.999281397E0,1.882050037E0,-1.101495075E1,-4.060500264E-1,1.118195551E1
2.001244779E0,1.804950118E0,-1.051605034E1,-6.739500165E-1,1.069108826E1
2.003208258E0,1.882050037E0,-1.005600071E1,-9.420000315E-1,1.027388080E1
2.005171446E0,1.690050125E0,-9.481050491E0,-1.210950017E0,9.706337506E0
2.007134719E0,1.575000048E0,-8.907000542E0,-1.441050053E0,9.159252647E0
2.009098077E0,1.498950124E0,-8.332050323E0,-1.747050047E0,8.644194464E0
2.011061410E0,1.422000051E0,-7.717950344E0,-1.977000117E0,8.093044614E0
2.013024498E0,1.306950092E0,-7.219950199E0,-2.206950188E0,7.662012043E0
2.014987651E0,1.345050097E0,-6.721950531E0,-2.398950100E0,7.262832800E0
2.016951075E0,1.384050012E0,-6.262050152E0,-2.245050192E0,6.794786009E0
2.018914419E0,1.306950092E0,-5.764050484E0,-2.169000149E0,6.295788923E0
2.020877451E0,1.306950092E0,-5.341950417E0,-2.206950188E0,5.925806437E0
2.022840575E0,1.345050097E0,-4.882050037E0,-2.014950037E0,5.450100548E0
2.024803658E0,1.306950092E0,-4.461000443E0,-1.939050078E0,5.036721026E0
2.026766743E0,1.345050097E0,-4.077000141E0,-1.747050047E0,4.635005262E0
2.028729998E0,1.384050012E0,-3.694050074E0,-1.479000092E0,4.212961150E0
2.030693203E0,1.422000051E0,-3.349050045E0,-1.171950102E0,3.822523694E0
2.032656439E0,1.422000051E0,-3.004050255E0,-9.040500522E-1,3.444373466E0
2.034619665E0,1.498950124E0,-2.697000027E0,-4.819500148E-1,3.122969170E0
2.036581951E0,1.651950121E0,-2.467050076E0,-6.105000153E-2,2.969680518E0
2.038544513E0,1.729050040E0,-2.199000120E0,3.600000143E-1,2.820428262E0
2.040507497E0,1.804950118E0,-1.930950046E0,7.810500264E-1,2.756166205E0
2.042470357E0,1.920000076E0,-1.663050056E0,1.050000072E0,2.748569797E0
2.044433696E0,2.035050154E0,-1.432950020E0,1.356000066E0,2.834344910E0
2.046396895E0,2.035050154E0,-1.164000034E0,1.471050024E0,2.767727115E0
2.048359902E0,2.111999989E0,-8.959500194E-1,1.510050058E0,2.746547208E0
2.050322969E0,2.149950027E0,-5.890500546E-1,1.548000097E0,2.713958251E0
2.052286227E0,2.149950027E0,-2.830500007E-1,1.510050058E0,2.642471117E0
2.054249429E0,2.149950027E0,-1.290000081E-1,1.585950017E0,2.674726823E0
2.056211584E0,2.188950062E0,6.105000153E-2,1.624950051E0,2.726846557E0
2.058174046E0,2.227050066E0,2.530499995E-1,1.585950017E0,2.745728274E0
2.060137087E0,2.304000139E0,5.590500236E-1,1.548000097E0,2.831476271E0
2.062099962E0,2.419050217E0,8.280000687E-1,1.471050024E0,2.949809526E0
2.064063435E0,2.457000017E0,9.810000658E-1,1.395000100E0,2.990858655E0
2.066026732E0,2.494950056E0,1.173000097E0,1.203000069E0,3.007975096E0
2.067989727E0,2.494950056E0,1.363950014E0,1.087950110E0,3.044465613E0
2.069952810E0,2.494950056E0,1.518000126E0,1.011000037E0,3.090505014E0
2.071916275E0,2.533950090E0,1.633050084E0,1.050000072E0,3.192218004E0
2.073879607E0,2.494950056E0,1.708950043E0,9.349500537E-1,3.165346369E0
2.075842866E0,2.572050095E0,1.786050081E0,8.959500194E-1,3.257014433E0
2.077806147E0,2.572050095E0,1.863000035E0,7.050000429E-1,3.253188571E0
2.079769324E0,2.686950207E0,1.978050113E0,6.280500293E-1,3.395118628E0
2.081732532E0,2.649000168E0,1.978050113E0,3.220500052E-1,3.321686370E0
2.083696306E0,2.610000134E0,2.131050110E0,1.680000126E-1,3.373677411E0
2.085659914E0,2.610000134E0,2.208000183E0,-9.900000691E-2,3.420112061E0
2.087623127E0,2.649000168E0,2.284050226E0,-3.289500177E-1,3.513160321E0
2.089586455E0,2.610000134E0,2.361000061E0,-7.120500207E-1,3.590743268E0
2.091549624E0,2.533950090E0,2.398950100E0,-9.810000658E-1,3.624669057E0
2.093512840E0,2.533950090E0,2.476050138E0,-1.402050018E0,3.810179996E0
2.095476131E0,2.494950056E0,2.514000177E0,-1.594050050E0,3.884065941E0
2.097439390E0,2.494950056E0,2.551950216E0,-1.939050078E0,4.061667256E0
2.099402437E0,2.457000017E0,2.629050016E0,-2.284050226E0,4.262116670E0
2.101365546E0,2.494950056E0,2.629050016E0,-2.437050104E0,4.367595790E0
2.103328617E0,2.494950056E0,2.590950012E0,-2.667000055E0,4.477799353E0
2.105291700E0,2.572050095E0,2.629050016E0,-2.782050133E0,4.611631882E0
2.107254781E0,2.649000168E0,2.667000055E0,-2.896950245E0,4.745778325E0
2.109217859E0,2.725050211E0,2.667000055E0,-3.012000084E0,4.859108195E0
2.111181295E0,2.764050245E0,2.629050016E0,-3.127050161E0,4.932577466E0
2.113144626E0,2.917050123E0,2.629050016E0,-3.204000235E0,5.068205098E0
2.115108200E0,3.031950235E0,2.551950216E0,-3.204000235E0,5.096154397E0
2.117071703E0,3.223050117E0,2.476050138E0,-3.241950035E0,5.198953393E0
2.119034985E0,3.337950230E0,2.437050104E0,-3.241950035E0,5.252748326E0
2.120998359E0,3.529950142E0,2.322000027E0,-3.204000235E0,5.302626673E0
2.122961430E0,3.798000097E0,2.208000183E0,-3.165000200E0,5.414544839E0
2.124924590E0,3.913050175E0,2.053950071E0,-3.049950123E0,5.369624597E0
2.126887967E0,4.105050087E0,1.900950074E0,-2.859000206E0,5.351535254E0
2.128851280E0,4.258049965E0,1.633050084E0,-2.782050133E0,5.342063742E0
2.130814338E0,4.372950077E0,1.441050053E0,-2.590050220E0,5.282771789E0
2.132777488E0,4.527000427E0,1.173000097E0,-2.359950066E0,5.238227411E0
2.134740731E0,4.603050232E0,9.040500522E-1,-2.169000149E0,5.168165978E0
2.136703947E0,4.642050266E0,6.360000372E-1,-1.900950074E0,5.056356189E0
2.138668082E0,4.680000305E0,1.759500057E-1,-1.632000089E0,4.959514649E0
2.140631947E0,4.642050266E0,-1.290000081E-1,-1.287000060E0,4.818883774E0
2.142595202E0,4.219950199E0,-3.589500189E-1,-1.171950102E0,4.394347715E0
2.144558638E0,3.837000132E0,-6.280500293E-1,-1.210950017E0,4.072274155E0
2.146521833E0,3.300000191E0,-7.429500222E-1,-1.210950017E0,3.592822837E0
2.148485099E0,2.839950085E0,-9.730500579E-1,-1.249050021E0,3.251502553E0
2.150448503E0,2.494950056E0,-1.048950076E0,-1.210950017E0,2.965041650E0
2.152411867E0,2.149950027E0,-1.087950110E0,-1.096050024E0,2.647120363E0
2.154375090E0,1.843950033E0,-1.164000034E0,-1.018950105E0,2.406928981E0
2.156338344E0,1.537050128E0,-1.126049995E0,-9.040500522E-1,2.108985108E0
2.158301255E0,1.306950092E0,-1.164000034E0,-7.890000343E-1,1.919774903E0
2.160264267E0,1.192050099E0,-1.087950110E0,-7.120500207E-1,1.763982459E0
2.162227714E0,9.240000248E-1,-1.087950110E0,-5.970000029E-1,1.547197625E0
2.164191034E0,8.089500666E-1,-1.048950076E0,-4.819500148E-1,1.409600046E0
2.166154167E0,7.320000529E-1,-1.087950110E0,-4.060500264E-1,1.372711238E0
2.168117382E0,5.790000558E-1,-1.048950076E0,-2.910000086E-1,1.232971343E0
2.170079895E0,5.020500422E-1,-1.048950076E0,-6.105000153E-2,1.164507454E0
2.172042613E0,4.260000288E-1,-9.730500579E-1,-2.205000073E-2,1.062444654E0
2.174005796E0,4.639500082E-1,-9.730500579E-1,5.295000225E-2,1.079295941E0
2.175968842E0,4.639500082E-1,-1.011000037E0,1.680000126E-1,1.124986529E0
2.177931939E0,5.410500169E-1,-9.730500579E-1,3.220500052E-1,1.158998594E0
2.179895010E0,6.550500393E-1,-9.730500579E-1,3.979500234E-1,1.238661047E0
2.181858223E0,7.320000529E-1,-8.959500194E-1,5.130000114E-1,1.265590584E0
2.183821395E0,6.169500351E-1,-7.039500475E-1,6.660000086E-1,1.148794597E0
2.185783736E0,6.169500351E-1,-5.890500546E-1,7.429500222E-1,1.131186124E0
2.187746320E0,4.639500082E-1,-4.360500276E-1,7.050000429E-1,9.499548922E-1
2.189709826E0,3.490500152E-1,-3.210000098E-1,7.050000429E-1,8.496481507E-1
2.191673072E0,2.719500065E-1,-2.059500068E-1,8.580000401E-1,9.233289122E-1
2.193636302E0,2.719500065E-1,-1.680000126E-1,7.810500264E-1,8.439312496E-1
2.195599536E0,2.719500065E-1,-1.290000081E-1,8.200500607E-1,8.735444524E-1
2.197562810E0,2.340000123E-1,-1.290000081E-1,8.580000401E-1,8.986440211E-1
2.199526072E0,1.960500032E-1,-1.290000081E-1,9.349500537E-1,9.639544640E-1
2.201488528E0,3.109500110E-1,-5.295000225E-2,1.011000037E0,1.059063118E0
2.203451223E0,3.490500152E-1,-1.500000060E-2,1.050000072E0,1.106598872E0
2.205415266E0,3.870000243E-1,-1.500000060E-2,1.165050030E0,1.227735961E0
2.207378914E0,5.790000558E-1,-1.500000060E-2,1.240950108E0,1.369460928E0
2.209342074E0,6.550500393E-1,2.295000106E-2,1.356000066E0,1.506105386E0
2.211305377E0,6.169500351E-1,6.105000153E-2,1.471050024E0,1.596352913E0
2.213268613E0,6.940500140E-1,9.900000691E-2,1.471050024E0,1.629568838E0
2.215231888E0,6.940500140E-1,9.900000691E-2,1.432950020E0,1.595259284E0
2.217195111E0,6.550500393E-1,2.140500098E-1,1.471050024E0,1.624467954E0
2.219158349E0,5.790000558E-1,3.289500177E-1,1.432950020E0,1.580124975E0
2.221121038E0,5.790000558E-1,3.679500222E-1,1.356000066E0,1.519659324E0
2.223083888E0,5.410500169E-1,2.910000086E-1,1.318050027E0,1.454191184E0
2.225047337E0,5.020500422E-1,3.289500177E-1,1.240950108E0,1.378484504E0
2.227010597E0,5.020500422E-1,4.060500264E-1,1.165050030E0,1.332018183E0
2.228973824E0,3.870000243E-1,3.679500222E-1,1.050000072E0,1.177988280E0
2.230937061E0,3.870000243E-1,3.679500222E-1,1.011000037E0,1.143362284E0
2.232900290E0,4.260000288E-1,4.440000355E-1,9.349500537E-1,1.119260318E0
2.234863522E0,3.870000243E-1,4.060500264E-1,8.200500607E-1,9.935430262E-1
2.236826392E0,3.870000243E-1,4.060500264E-1,7.429500222E-1,9.309244751E-1
2.238789368E0,3.870000243E-1,4.440000355E-1,6.280500293E-1,8.610179381E-1
2.240752642E0,3.490500152E-1,4.830000103E-1,4.750500321E-1,7.621006863E-1
2.242715828E0,2.719500065E-1,4.830000103E-1,3.220500052E-1,6.410631964E-1
2.244679968E0,3.109500110E-1,5.209500194E-1,2.070000172E-1,6.410365349E-1
2.246643828E0,2.719500065E-1,5.590500236E-1,5.295000225E-2,6.239370462E-1
2.248607132E0,1.189500093E-1,4.830000103E-1,-6.105000153E-2,5.011638627E-1
2.250570599E0,-3.299999982E-2,5.209500194E-1,-9.900000691E-2,5.312992792E-1
2.252533969E0,-7.200000435E-2,5.209500194E-1,-1.759500057E-1,5.545550719E-1
2.254497368E0,-1.480500102E-1,4.830000103E-1,-1.759500057E-1,5.349450625E-1
2.256460794E0,-2.629500031E-1,4.830000103E-1,-9.900000691E-2,5.587778766E-1
2.258424212E0,-2.250000089E-1,3.679500222E-1,-9.900000691E-2,4.425078804E-1
2.260387388E0,-1.480500102E-1,2.530499995E-1,-6.105000153E-2,2.994665431E-1
2.262350652E0,-1.480500102E-1,1.759500057E-1,5.295000225E-2,2.359680333E-1
2.264314913E0,-3.299999982E-2,9.900000691E-2,9.195000678E-2,1.390856035E-1
2.266278881E0,4.050000105E-3,-9.105000645E-2,2.070000172E-1,2.261758459E-1
2.268241266E0,1.189500093E-1,-1.680000126E-1,3.600000143E-1,4.146964182E-1
2.270204114E0,3.109500110E-1,-2.440500110E-1,4.360500276E-1,5.885490156E-1
2.272167603E0,3.490500152E-1,-4.740000367E-1,6.280500293E-1,8.607896301E-1
2.274130895E0,5.020500422E-1,-6.280500293E-1,7.429500222E-1,1.094749204E0
2.276094701E0,6.169500351E-1,-8.190000653E-1,8.959500194E-1,1.361658874E0
2.278058356E0,7.699500322E-1,-1.011000037E0,1.050000072E0,1.648467251E0
2.280021335E0,9.240000248E-1,-1.164000034E0,1.240950108E0,1.936137726E0
2.281984512E0,1.039050102E0,-1.318050027E0,1.318050027E0,2.134042376E0
2.283947872E0,1.153950095E0,-1.432950020E0,1.432950020E0,2.332014653E0
2.285911189E0,1.230000019E0,-1.548000097E0,1.471050024E0,2.464384816E0
2.287874630E0,1.230000019E0,-1.624050021E0,1.471050024E0,2.512852302E0
2.289838035E0,1.269000053E0,-1.701000094E0,1.471050024E0,2.582198798E0
2.291801372E0,1.269000053E0,-1.738950133E0,1.510050058E0,2.629555073E0
2.293764729E0,1.269000053E0,-1.738950133E0,1.471050024E0,2.607354382E0
2.295727997E0,1.269000053E0,-1.816050053E0,1.395000100E0,2.618095531E0
2.297691281E0,1.230000019E0,-1.816050053E0,1.279950023E0,2.539529465E0
2.299654503E0,1.114950061E0,-1.893000126E0,1.087950110E0,2.451570631E0
2.301617743E0,1.000050068E0,-1.930950046E0,5.899500251E-1,2.253155398E0
2.303582187E0,8.089500666E-1,-2.008050203E0,1.500000060E-2,2.164922823E0
2.305546279E0,8.089500666E-1,-2.122950077E0,-7.890000343E-1,2.404961183E0
2.307509368E0,9.619500637E-1,-2.314050198E0,-1.708950043E0,3.033263340E0
2.309472748E0,1.230000019E0,-2.506050110E0,-2.514000177E0,3.756778419E0
2.311436358E0,1.459950089E0,-2.736000061E0,-3.088950157E0,4.377072500E0
2.313399900E0,1.804950118E0,-3.042000055E0,-3.165000200E0,4.746455049E0
2.315362898E0,2.074050188E0,-3.196050167E0,-2.935050249E0,4.809463673E0
2.317326056E0,2.341950178E0,-3.387000084E0,-2.475000143E0,4.804386112E0
2.319289327E0,2.649000168E0,-3.579000235E0,-2.053950071E0,4.903585980E0
2.321252544E0,2.764050245E0,-3.771000147E0,-1.708950043E0,4.978044407E0
2.323215913E0,2.878050089E0,-3.924000263E0,-1.402050018E0,5.064256573E0
2.325179237E0,2.955000162E0,-4.192049980E0,-1.326000094E0,5.297507456E0
2.327142453E0,3.031950235E0,-4.537050247E0,-1.363950014E0,5.624758378E0
2.329105700E0,3.223050117E0,-4.920000076E0,-1.671000123E0,6.114465980E0
2.331068976E0,3.337950230E0,-5.380050182E0,-2.169000149E0,6.692638743E0
2.333032241E0,3.568050146E0,-5.917050362E0,-2.896950245E0,7.492315233E0
2.334995601E0,3.645000219E0,-6.721950531E0,-3.702000141E0,8.495613609E0
2.336958933E0,3.760050297E0,-7.680000305E0,-4.545000076E0,9.683873637E0
2.338922147E0,3.874950171E0,-8.868000031E0,-5.043000221E0,1.091276842E1
2.340885396E0,3.682950258E0,-1.013295078E1,-5.082000256E0,1.191920890E1
2.342848983E0,3.376950264E0,-1.166595078E1,-4.852050304E0,1.307824884E1
2.344812471E0,2.992950201E0,-1.331400108E1,-4.237950325E0,1.428917768E1
2.346775704E0,2.610000134E0,-1.484700108E1,-3.472050190E0,1.546934627E1
2.348739012E0,2.227050066E0,-1.626495171E1,-2.590050220E0,1.661977034E1
2.350702185E0,1.804950118E0,-1.764495087E1,-1.939050078E0,1.784270302E1
2.352665397E0,1.614000082E0,-1.914000130E1,-1.287000060E0,1.925100037E1
2.354627994E0,1.575000048E0,-2.074995041E1,-5.970000029E-1,2.081820060E1
2.356590743E0,1.575000048E0,-2.220600128E1,4.360500276E-1,2.226605618E1
2.358554056E0,1.459950089E0,-2.370105171E1,1.318050027E0,2.378252641E1
2.360517203E0,1.422000051E0,-2.511900139E1,1.855050087E0,2.522751525E1
2.362480583E0,1.575000048E0,-2.646105194E1,2.238000154E0,2.660219050E1
2.364443895E0,1.843950033E0,-2.776395226E1,2.200050116E0,2.791195832E1
2.366407537E0,2.304000139E0,-2.906700134E1,1.777950048E0,2.921232771E1
2.368371068E0,2.764050245E0,-3.033195114E1,1.356000066E0,3.048780035E1
2.370335464E0,3.337950230E0,-3.136605072E1,6.660000086E-1,3.155019185E1
2.372299606E0,3.682950258E0,-3.228600311E1,9.195000678E-2,3.249551622E1
2.374262501E0,3.952050209E0,-3.293805313E1,-2.520000041E-1,3.317525507E1
2.376225762E0,4.105050087E0,-3.366600037E1,-5.970000029E-1,3.392060474E1
2.378189177E0,4.182000160E0,-3.424095154E1,-6.739500165E-1,3.450197235E1
2.380152539E0,4.219950199E0,-3.462405014E1,-4.819500148E-1,3.488359362E1
2.382115613E0,4.411950111E0,-3.489300156E1,-4.060500264E-1,3.517316787E1
2.384078772E0,4.603050232E0,-3.470100021E1,-4.819500148E-1,3.500828135E1
2.386042150E0,4.411950111E0,-3.389595032E1,-7.510500550E-1,3.419012764E1
2.388005463E0,4.488000393E0,-3.259305191E1,-9.420000315E-1,3.291407821E1
2.389968545E0,4.258049965E0,-3.079200172E1,-1.018950105E0,3.110171408E1
2.391931695E0,3.990000248E0,-2.902800179E1,-1.057050109E0,2.931999905E1
2.393894894E0,3.607050180E0,-2.734200096E1,-1.057050109E0,2.759915184E1
2.395858078E0,3.147000074E0,-2.596200180E1,-9.420000315E-1,2.616899905E1
2.397821138E0,2.725050211E0,-2.492700195E1,-4.819500148E-1,2.508014356E1
2.399784234E0,2.265000105E0,-2.431395149E1,-2.205000073E-2,2.441923317E1
2.401746831E0,1.882050037E0,-2.400795174E1,3.979500234E-1,2.408489616E1
2.403709561E0,1.614000082E0,-2.396895027E1,8.200500607E-1,2.403722229E1
2.405673237E0,1.575000048E0,-2.419905090E1,1.050000072E0,2.427297242E1
2.407636635E0,1.614000082E0,-2.469705200E1,1.165050030E0,2.477714099E1
2.409600019E0,1.843950033E0,-2.531100082E1,1.432950020E0,2.541850232E1
2.411563407E0,1.959000111E0,-2.588595200E1,1.510050058E0,2.600385439E1
2.413526791E0,1.996950150E0,-2.626905060E1,1.471050024E0,2.638588292E1
2.415490176E0,1.996950150E0,-2.669100189E1,1.356000066E0,2.679992776E1
2.417453740E0,2.188950062E0,-2.707395172E1,1.240950108E0,2.719062929E1
2.419417251E0,2.494950056E0,-2.745705223E1,1.165050030E0,2.759477912E1
2.421380615E0,2.878050089E0,-2.787900162E1,1.011000037E0,2.804539222E1
2.423344022E0,3.300000191E0,-2.826195145E1,9.349500537E-1,2.846931739E1
2.425307218E0,3.837000132E0,-2.868405151E1,9.349500537E-1,2.895464579E1
2.427270479E0,4.372950077E0,-2.883705139E1,9.349500537E-1,2.918171271E1
2.429233524E0,4.909950256E0,-2.902800179E1,8.580000401E-1,2.945282097E1
2.431196633E0,5.485050201E0,-2.914305115E1,8.959500194E-1,2.966826473E1
2.433159883E0,6.060000420E0,-2.914305115E1,9.730500579E-1,2.978234144E1
2.435123092E0,6.673050404E0,-2.922000122E1,1.126049995E0,2.999343364E1
2.437086312E0,7.363050461E0,-2.918205070E1,1.318050027E0,3.012546848E1
2.439049539E0,7.975950241E0,-2.902800179E1,1.432950020E0,3.013791658E1
2.441012726E0,8.628000259E0,-2.891400146E1,1.510050058E0,3.021162227E1
2.442975925E0,9.279000282E0,-2.872200203E1,1.510050058E0,3.022140794E1
2.444938981E0,9.816000938E0,-2.849205208E1,1.471050024E0,3.017142513E1
2.446902079E0,1.027605057E1,-2.822400093E1,1.395000100E0,3.006887875E1
2.448864998E0,1.065900040E1,-2.791695213E1,1.050000072E0,2.990105359E1
2.450827983E0,1.100400066E1,-2.757195091E1,5.899500251E-1,2.969256723E1
2.452792111E0,1.115700054E1,-2.718900108E1,9.195000678E-2,2.938926498E1
2.454755904E0,1.138695049E1,-2.684400177E1,-4.060500264E-1,2.916209782E1
2.456718904E0,1.150200081E1,-2.649900055E1,-1.018950105E0,2.890555850E1
2.458682137E0,1.157895088E1,-2.619195175E1,-1.555950046E0,2.867945991E1
2.460645467E0,1.161705017E1,-2.577105141E1,-2.014950037E0,2.834013001E1
2.462608793E0,1.146405029E1,-2.538705063E1,-2.475000143E0,2.796520006E1
2.464572233E0,1.123395061E1,-2.496600151E1,-2.782050133E0,2.751804282E1
2.466535640E0,1.092705059E1,-2.450595093E1,-2.896950245E0,2.698767100E1
2.468499022E0,1.062105083E1,-2.412300110E1,-2.896950245E0,2.651637652E1
2.470462411E0,1.031400013E1,-2.366295052E1,-2.820000172E0,2.596663680E1
2.472425815E0,9.892050743E0,-2.324100113E1,-2.743950129E0,2.540720496E1
2.474389200E0,9.394050598E0,-2.289600182E1,-2.590050220E0,2.488339699E1
2.476352539E0,8.857950211E0,-2.262795067E1,-2.437050104E0,2.442184773E1
2.478315892E0,8.244000435E0,-2.232105064E1,-2.169000149E0,2.389345950E1
2.480279461E0,7.554000378E0,-2.216805077E1,-1.900950074E0,2.349678718E1
2.482242967E0,6.750000477E0,-2.216805077E1,-1.516950130E0,2.322253472E1
2.484206377E0,6.060000420E0,-2.228295135E1,-1.171950102E0,2.312200236E1
2.486169815E0,5.446050167E0,-2.235900116E1,-9.810000658E-1,2.303360060E1
2.488133191E0,4.909950256E0,-2.235900116E1,-7.510500550E-1,2.290407432E1
2.490096585E0,4.450050354E0,-2.228295135E1,-7.120500207E-1,2.273411279E1
2.492059923E0,3.990000248E0,-2.216805077E1,-6.360000372E-1,2.253324373E1
2.494023277E0,3.607050180E0,-2.186100197E1,-6.739500165E-1,2.216683168E1
2.495986685E0,3.223050117E0,-2.155500031E1,-5.970000029E-1,2.180280943E1
2.497950063E0,2.839950085E0,-2.121000099E1,-6.739500165E-1,2.140989648E1
2.499913449E0,2.457000017E0,-2.086500168E1,-7.120500207E-1,2.102123116E1
2.501876832E0,2.149950027E0,-2.052000046E1,-7.890000343E-1,2.064740238E1
2.503839858E0,1.843950033E0,-2.009805107E1,-7.510500550E-1,2.019643248E1
2.505802988E0,1.614000082E0,-1.971495056E1,-7.120500207E-1,1.979371838E1
2.507766216E0,1.384050012E0,-1.929300117E1,-6.360000372E-1,1.935303555E1
2.509729429E0,1.306950092E0,-1.894799995E1,-5.970000029E-1,1.900240063E1
2.511692843E0,1.077000022E0,-1.852695084E1,-5.209500194E-1,1.856553865E1
2.513656198E0,1.077000022E0,-1.814295006E1,-4.819500148E-1,1.818127723E1
2.515619273E0,1.039050102E0,-1.776000023E1,-3.289500177E-1,1.779341005E1
2.517582431E0,1.000050068E0,-1.737705040E1,-2.910000086E-1,1.740823546E1
2.519545668E0,9.619500637E-1,-1.699394989E1,-2.520000041E-1,1.702301926E1
2.521508885E0,9.619500637E-1,-1.653404999E1,-2.910000086E-1,1.656456573E1
2.523472074E0,9.240000248E-1,-1.626495171E1,-2.520000041E-1,1.629312536E1
2.525435272E0,9.240000248E-1,-1.584405041E1,-1.759500057E-1,1.587194593E1
2.527398553E0,1.000050068E0,-1.542195034E1,-9.900000691E-2,1.545465799E1
2.529361809E0,1.000050068E0,-1.503900051E1,-2.205000073E-2,1.507223018E1
2.531325395E0,9.619500637E-1,-1.461705112E1,-1.759500057E-1,1.464972662E1
2.533288885E0,1.039050102E0,-1.419600105E1,-3.289500177E-1,1.423777648E1
2.535252387E0,1.000050068E0,-1.369695091E1,-3.289500177E-1,1.373734955E1
2.537215885E0,8.850000501E-1,-1.319895077E1,-5.209500194E-1,1.323884116E1
2.539178891E0,9.240000248E-1,-1.270095062E1,-8.269500136E-1,1.276133884E1
2.541142041E0,1.039050102E0,-1.231800079E1,-7.510500550E-1,1.238454056E1
2.543104946E0,1.230000019E0,-1.189605045E1,-7.120500207E-1,1.198064822E1
2.545067940E0,1.269000053E0,-1.143600082E1,-6.739500165E-1,1.152591361E1
2.547030806E0,1.306950092E0,-1.086105061E1,-7.120500207E-1,1.096255235E1
2.548993710E0,1.306950092E0,-1.032495022E1,-6.360000372E-1,1.042675461E1
2.550956995E0,1.230000019E0,-9.750000000E0,-6.360000372E-1,9.847837128E0
2.552920169E0,1.306950092E0,-9.213000298E0,-6.360000372E-1,9.326949612E0
2.554883230E0,1.306950092E0,-8.752950668E0,-7.890000343E-1,8.885087788E0
2.556846325E0,1.269000053E0,-8.254950523E0,-1.018950105E0,8.413847431E0
2.558809399E0,1.153950095E0,-7.756950378E0,-1.210950017E0,7.935255506E0
2.560772479E0,1.039050102E0,-7.297050476E0,-1.363950014E0,7.495794181E0
2.562735915E0,1.039050102E0,-6.837000370E0,-1.441050053E0,7.064051559E0
2.564699246E0,1.114950061E0,-6.454050541E0,-1.402050018E0,6.698031523E0
2.566662475E0,1.039050102E0,-6.031950474E0,-1.402050018E0,6.279314922E0
2.568625724E0,1.039050102E0,-5.649000168E0,-1.363950014E0,5.903489447E0
2.570588995E0,8.470500112E-1,-5.149950027E0,-1.326000094E0,5.384956384E0
2.572552260E0,7.699500322E-1,-4.729050159E0,-1.210950017E0,4.941977176E0
2.574515486E0,7.320000529E-1,-4.345950127E0,-9.040500522E-1,4.498934660E0
2.576478724E0,8.089500666E-1,-3.961950302E0,-6.739500165E-1,4.099470579E0
2.578441913E0,8.470500112E-1,-3.655950069E0,-3.670500219E-1,3.770701573E0
2.580405113E0,7.699500322E-1,-3.349050045E0,-6.105000153E-2,3.436958882E0
2.582368169E0,8.089500666E-1,-3.042000055E0,1.680000126E-1,3.152203761E0
2.584331267E0,8.470500112E-1,-2.659050226E0,2.830500007E-1,2.805023909E0
2.586293800E0,1.077000022E0,-2.351999998E0,3.979500234E-1,2.617288150E0
2.588256498E0,1.306950092E0,-2.083950043E0,5.899500251E-1,2.529625932E0
2.590220039E0,1.422000051E0,-1.738950133E0,7.810500264E-1,2.378249536E0
2.592183337E0,1.614000082E0,-1.432950020E0,9.349500537E-1,2.352121091E0
2.594146736E0,1.767000079E0,-1.126049995E0,1.087950110E0,2.360913661E0
2.596110106E0,1.920000076E0,-8.580000401E-1,1.279950023E0,2.461876606E0
2.598073673E0,2.111999989E0,-5.509500504E-1,1.432950020E0,2.611021959E0
2.600037183E0,2.304000139E0,-3.589500189E-1,1.585950017E0,2.820017591E0
2.602000702E0,2.457000017E0,-2.059500068E-1,1.777950048E0,3.039797833E0
2.603964236E0,2.494950056E0,-1.290000081E-1,1.969950080E0,3.181527951E0
2.605926650E0,2.725050211E0,-5.295000225E-2,2.046000004E0,3.408051991E0
2.607889392E0,2.878050089E0,6.105000153E-2,1.969950080E0,3.488209101E0
2.609852751E0,2.917050123E0,2.140500098E-1,1.930950046E0,3.504791992E0
2.611815929E0,3.108000040E0,2.910000086E-1,1.855050087E0,3.631192102E0
2.613779304E0,3.184950113E0,4.440000355E-1,1.701000094E0,3.637917615E0
2.615742621E0,3.223050117E0,5.209500194E-1,1.548000097E0,3.613273486E0
2.617705838E0,3.376950264E0,5.590500236E-1,1.471050024E0,3.725629905E0
2.619669084E0,3.453000069E0,6.360000372E-1,1.471050024E0,3.806795725E0
2.621632177E0,3.529950142E0,6.739500165E-1,1.356000066E0,3.841027572E0
2.623595315E0,3.645000219E0,7.890000343E-1,1.203000069E0,3.918642216E0
2.625558890E0,3.682950258E0,8.659500480E-1,1.050000072E0,3.926384118E0
2.627522327E0,3.645000219E0,9.430500269E-1,8.959500194E-1,3.870154569E0
2.629485704E0,3.607050180E0,1.018950105E0,6.660000086E-1,3.806918220E0
2.631449098E0,3.568050146E0,1.057950020E0,5.130000114E-1,3.756781748E0
2.633413381E0,3.682950258E0,1.096050024E0,2.830500007E-1,3.852994363E0
2.635377404E0,3.607050180E0,1.134000063E0,-2.205000073E-2,3.781170897E0
2.637340380E0,3.645000219E0,1.173000097E0,-2.520000041E-1,3.837376686E0
2.639303652E0,3.607050180E0,1.249050021E0,-5.970000029E-1,3.863592365E0
2.641267010E0,3.607050180E0,1.288050056E0,-8.659500480E-1,3.926799388E0
2.643230342E0,3.529950142E0,1.326000094E0,-1.171950102E0,3.948707548E0
2.645193421E0,3.453000069E0,1.363950014E0,-1.479000092E0,3.996374655E0
2.647156575E0,3.415050268E0,1.441050053E0,-1.708950043E0,4.081630047E0
2.649120197E0,3.262050152E0,1.518000126E0,-1.939050078E0,4.087200849E0
2.651083669E0,3.184950113E0,1.518000126E0,-2.245050192E0,4.181923238E0
2.653046815E0,3.108000040E0,1.594050050E0,-2.437050104E0,4.259092981E0
2.655010056E0,2.955000162E0,1.633050084E0,-2.629050016E0,4.279110015E0
2.656973285E0,2.839950085E0,1.633050084E0,-2.782050133E0,4.297903210E0
2.658936517E0,2.764050245E0,1.633050084E0,-2.935050249E0,4.349867389E0
2.660899917E0,2.686950207E0,1.671000123E0,-3.049950123E0,4.394785385E0
2.662863274E0,2.686950207E0,1.671000123E0,-3.127050161E0,4.448638616E0
2.664826844E0,2.649000168E0,1.671000123E0,-3.127050161E0,4.425820377E0
2.666790351E0,2.572050095E0,1.633050084E0,-3.088950157E0,4.338652710E0
2.668753940E0,2.572050095E0,1.594050050E0,-2.974050045E0,4.242806962E0
2.670717505E0,2.494950056E0,1.594050050E0,-2.820000172E0,4.088786166E0
2.672680621E0,2.533950090E0,1.518000126E0,-2.704950094E0,4.005244369E0
2.674643878E0,2.533950090E0,1.479000092E0,-2.551950216E0,3.888546546E0
2.676606969E0,2.533950090E0,1.441050053E0,-2.359950066E0,3.750585638E0
2.678570109E0,2.572050095E0,1.326000094E0,-2.092050076E0,3.570769029E0
2.680533354E0,2.610000134E0,1.288050056E0,-1.900950074E0,3.476317711E0
2.682496568E0,2.572050095E0,1.173000097E0,-1.632000089E0,3.264168379E0
2.684459788E0,2.610000134E0,1.018950105E0,-1.287000060E0,3.083298423E0
2.686423016E0,2.649000168E0,7.510500550E-1,-9.420000315E-1,2.910093149E0
2.688386427E0,2.572050095E0,4.060500264E-1,-6.739500165E-1,2.689707593E0
2.690349785E0,2.457000017E0,2.295000106E-2,-4.440000355E-1,2.496900442E0
2.692313850E0,2.341950178E0,-2.059500068E-1,-9.900000691E-2,2.353071831E0
2.694277708E0,2.188950062E0,-5.130000114E-1,9.195000678E-2,2.250139149E0
2.696239976E0,2.074050188E0,-7.429500222E-1,2.449500114E-1,2.216677565E0
2.698202710E0,2.035050154E0,-1.011000037E0,4.360500276E-1,2.313804190E0
2.700166340E0,1.843950033E0,-1.203000069E0,6.280500293E-1,2.289499450E0
2.702129708E0,1.729050040E0,-1.356000066E0,7.050000429E-1,2.307677465E0
2.704093095E0,1.575000048E0,-1.356000066E0,7.810500264E-1,2.220225320E0
2.706056477E0,1.498950124E0,-1.471050024E0,8.580000401E-1,2.268700887E0
2.708019852E0,1.345050097E0,-1.509000063E0,9.349500537E-1,2.227189385E0
2.709983236E0,1.269000053E0,-1.548000097E0,8.959500194E-1,2.193032575E0
2.711946441E0,1.192050099E0,-1.585950017E0,9.730500579E-1,2.209761822E0
2.713909699E0,1.039050102E0,-1.548000097E0,9.730500579E-1,2.103034910E0
2.715872745E0,9.240000248E-1,-1.585950017E0,9.730500579E-1,2.077459968E0
2.717835853E0,7.699500322E-1,-1.624050021E0,9.349500537E-1,2.025954868E0
2.719798234E0,6.940500140E-1,-1.585950017E0,8.580000401E-1,1.932124982E0
2.721760838E0,5.020500422E-1,-1.585950017E0,8.580000401E-1,1.871752059E0
2.723724130E0,3.870000243E-1,-1.548000097E0,8.200500607E-1,1.794033283E0
2.725687221E0,2.719500065E-1,-1.548000097E0,7.429500222E-1,1.738457892E0
2.727650296E0,1.570500135E-1,-1.471050024E0,7.050000429E-1,1.638803814E0
2.729613376E0,4.200000316E-2,-1.393950105E0,7.429500222E-1,1.580137852E0
2.731576486E0,-3.299999982E-2,-1.356000066E0,6.280500293E-1,1.494748145E0
2.733539564E0,-1.099500060E-1,-1.356000066E0,6.280500293E-1,1.498423178E0
2.735502641E0,-1.480500102E-1,-1.318050027E0,6.280500293E-1,1.467522238E0
2.737465718E0,-7.200000435E-2,-1.318050027E0,6.660000086E-1,1.478511375E0
2.739428839E0,-1.099500060E-1,-1.279050112E0,6.280500293E-1,1.429162353E0
2.741391947E0,-1.099500060E-1,-1.240950108E0,5.899500251E-1,1.378436508E0
2.743355185E0,-1.099500060E-1,-1.240950108E0,6.660000086E-1,1.412657844E0
2.745318394E0,-1.099500060E-1,-1.203000069E0,7.050000429E-1,1.398686251E0
2.747281044E0,-1.099500060E-1,-1.164000034E0,7.050000429E-1,1.365287568E0
2.749243858E0,-1.480500102E-1,-1.126049995E0,6.660000086E-1,1.316610576E0
2.751206799E0,-1.099500060E-1,-1.126049995E0,7.429500222E-1,1.353533277E0
2.753169702E0,-7.200000435E-2,-1.011000037E0,7.429500222E-1,1.256694001E0
2.755132650E0,-7.200000435E-2,-9.340500236E-1,7.429500222E-1,1.195662236E0
2.757095601E0,-3.299999982E-2,-9.340500236E-1,7.050000429E-1,1.170710685E0
2.759058520E0,4.050000105E-3,-8.190000653E-1,6.660000086E-1,1.055619970E0
2.761021449E0,4.200000316E-2,-7.810500264E-1,7.050000429E-1,1.053009119E0
2.762984550E0,4.050000105E-3,-7.039500475E-1,6.660000086E-1,9.690810509E-1
2.764947601E0,4.050000105E-3,-6.280500293E-1,7.050000429E-1,9.441865823E-1
2.766910678E0,4.050000105E-3,-5.509500504E-1,6.280500293E-1,8.354694487E-1
2.768873750E0,4.200000316E-2,-5.890500546E-1,5.899500251E-1,8.347364848E-1
2.770836784E0,4.050000105E-3,-5.130000114E-1,5.130000114E-1,7.255028780E-1
2.772799829E0,4.200000316E-2,-5.130000114E-1,4.750500321E-1,7.004323986E-1
2.774762596E0,4.200000316E-2,-4.360500276E-1,5.130000114E-1,6.745907193E-1
2.776725444E0,4.200000316E-2,-3.979500234E-1,5.130000114E-1,6.506129672E-1
2.778688499E0,4.050000105E-3,-3.979500234E-1,4.750500321E-1,6.197202245E-1
2.780651504E0,-3.299999982E-2,-3.589500189E-1,4.750500321E-1,5.963276357E-1
2.782615134E0,-3.299999982E-2,-2.830500007E-1,3.979500234E-1,4.894594202E-1
2.784578581E0,-7.200000435E-2,-2.440500110E-1,2.830500007E-1,3.806070301E-1
2.786541641E0,-1.099500060E-1,-2.059500068E-1,2.070000172E-1,3.120150898E-1
2.788504814E0,-1.480500102E-1,-1.680000126E-1,1.300500035E-1,2.589513722E-1
2.790468033E0,-2.629500031E-1,-1.290000081E-1,5.295000225E-2,2.976363704E-1
2.792431221E0,-3.400500119E-1,-1.680000126E-1,-9.900000691E-2,3.919936430E-1
2.794394280E0,-4.170000255E-1,-1.290000081E-1,-1.759500057E-1,4.706255708E-1
2.796357377E0,-5.320500135E-1,-1.290000081E-1,-4.060500264E-1,6.816119446E-1
2.798320090E0,-5.320500135E-1,-9.105000645E-2,-6.360000372E-1,8.341842530E-1
2.800282915E0,-6.079500318E-1,-9.105000645E-2,-7.890000343E-1,1.000207178E0
2.802245710E0,-6.079500318E-1,-5.295000225E-2,-1.134000063E0,1.287774470E0
2.804208521E0,-5.700000525E-1,-5.295000225E-2,-1.326000094E0,1.444292219E0
2.806171643E0,-5.700000525E-1,-9.105000645E-2,-1.479000092E0,1.587649657E0
2.808134673E0,-5.320500135E-1,-1.290000081E-1,-1.671000123E0,1.758396892E0
2.810098119E0,-4.549500346E-1,-1.290000081E-1,-1.824000120E0,1.884302782E0
2.812061443E0,-4.549500346E-1,-1.680000126E-1,-1.939050078E0,1.998779314E0
2.814025018E0,-3.400500119E-1,-2.440500110E-1,-1.977000117E0,2.020822576E0
2.815988519E0,-1.870500147E-1,-3.589500189E-1,-1.939050078E0,1.980845282E0
2.817952020E0,-7.200000435E-2,-5.130000114E-1,-1.747050047E0,1.822234035E0
2.819915521E0,8.100000024E-2,-5.890500546E-1,-1.516950130E0,1.629318466E0
2.821878706E0,1.960500032E-1,-7.039500475E-1,-1.171950102E0,1.381104020E0
2.823841983E0,2.340000123E-1,-8.580000401E-1,-8.269500136E-1,1.214399605E0
2.825805076E0,3.870000243E-1,-9.340500236E-1,-5.209500194E-1,1.137368625E0
2.827768219E0,4.639500082E-1,-9.340500236E-1,-2.520000041E-1,1.072941312E0
2.829731463E0,3.870000243E-1,-1.048950076E0,-2.205000073E-2,1.118280592E0
2.831694678E0,3.490500152E-1,-1.087950110E0,1.300500035E-1,1.149949720E0
2.833658227E0,2.719500065E-1,-1.240950108E0,1.300500035E-1,1.277038362E0
2.835621678E0,3.870000243E-1,-1.318050027E0,-2.205000073E-2,1.373867204E0
2.837585757E0,5.790000558E-1,-1.432950020E0,-1.759500057E-1,1.555488743E0
2.839549663E0,8.850000501E-1,-1.663050056E0,-3.289500177E-1,1.912372529E0
2.841512960E0,1.230000019E0,-1.854000092E0,-4.060500264E-1,2.261657138E0
2.843476435E0,1.422000051E0,-2.008050203E0,-2.520000041E-1,2.473429555E0
2.845440028E0,1.729050040E0,-2.238000154E0,-1.369500011E-1,2.831433212E0
2.847403586E0,2.111999989E0,-2.506050110E0,1.680000126E-1,3.281623852E0
2.849366186E0,2.341950178E0,-2.773950100E0,5.130000114E-1,3.666428617E0
2.851329060E0,2.457000017E0,-3.004050255E0,9.349500537E-1,3.991904135E0
2.853292351E0,2.494950056E0,-3.234000206E0,1.203000069E0,4.258020935E0
2.855255520E0,2.533950090E0,-3.502050161E0,1.395000100E0,4.542167288E0
2.857218402E0,2.572050095E0,-3.847050190E0,1.471050024E0,4.855844420E0
2.859181368E0,2.686950207E0,-4.269000053E0,1.432950020E0,5.243797157E0
2.861144472E0,2.764050245E0,-4.651950359E0,1.240950108E0,5.551627966E0
2.863107529E0,2.764050245E0,-5.304000378E0,9.349500537E-1,6.053637367E0
2.865071871E0,2.878050089E0,-6.070050240E0,4.360500276E-1,6.731925568E0
2.867035836E0,2.839950085E0,-7.027950287E0,1.500000060E-2,7.580080918E0
2.868999123E0,2.839950085E0,-8.140049934E0,-3.670500219E-1,8.629047174E0
2.870962608E0,2.764050245E0,-9.328050613E0,-7.120500207E-1,9.754973974E0
2.872925669E0,2.686950207E0,-1.070805073E1,-8.659500480E-1,1.107392980E1
2.874888848E0,2.649000168E0,-1.220295048E1,-9.040500522E-1,1.251984460E1
2.876852222E0,2.533950090E0,-1.369695091E1,-7.890000343E-1,1.395169841E1
2.878815539E0,2.380050182E0,-1.496205044E1,-5.970000029E-1,1.516192604E1
2.880778441E0,2.227050066E0,-1.618905067E1,-2.520000041E-1,1.634345795E1
2.882741464E0,2.341950178E0,-1.741500092E1,5.295000225E-2,1.757184655E1
2.884703618E0,2.265000105E0,-1.856505013E1,2.449500114E-1,1.870431266E1
2.886666016E0,2.265000105E0,-1.960005188E1,5.509500504E-1,1.973818140E1
2.888629434E0,2.304000139E0,-2.071095085E1,8.959500194E-1,2.085796319E1
2.890592553E0,2.341950178E0,-2.178495026E1,1.126049995E0,2.193938871E1
2.892555758E0,2.494950056E0,-2.270400047E1,1.279950023E0,2.287650947E1
2.894518937E0,2.572050095E0,-2.366295052E1,1.356000066E0,2.384091871E1
2.896482188E0,2.686950207E0,-2.458200073E1,1.318050027E0,2.476351585E1
2.898445410E0,2.802000046E0,-2.550195122E1,1.126049995E0,2.568012283E1
2.900408463E0,2.955000162E0,-2.638395119E1,1.126049995E0,2.657278485E1
2.902371566E0,3.108000040E0,-2.718900108E1,1.203000069E0,2.739249265E1
2.904334862E0,3.184950113E0,-2.795505142E1,1.471050024E0,2.817432866E1
2.906298102E0,3.184950113E0,-2.856900215E1,1.624950051E0,2.879187826E1
2.908261511E0,3.108000040E0,-2.906700134E1,2.008050203E0,2.930157840E1
2.910224871E0,2.917050123E0,-2.944995117E1,2.430000067E0,2.969366440E1
2.912188081E0,2.764050245E0,-2.975700188E1,2.698050022E0,3.000664274E1
2.914151335E0,2.610000134E0,-2.987205124E1,3.004050255E0,3.013595633E1
2.916114382E0,2.533950090E0,-2.994795227E1,3.157950163E0,3.022041359E1
2.918077489E0,2.572050095E0,-2.991000175E1,3.081000090E0,3.017807496E1
2.920040665E0,2.802000046E0,-2.991000175E1,3.196050167E0,3.021049728E1
2.922003842E0,2.992950201E0,-2.979495049E1,3.118950129E0,3.010688750E1
2.923966903E0,3.453000069E0,-2.983305168E1,3.157950163E0,3.019779514E1
2.925929998E0,4.066950321E0,-2.991000175E1,3.234000206E0,3.035798161E1
2.927893251E0,4.680000305E0,-3.010200119E1,3.310950041E0,3.064302969E1
2.929856458E0,5.254950047E0,-3.037005234E1,3.273000240E0,3.099463033E1
2.931819738E0,5.868000507E0,-3.067695236E1,3.349050045E0,3.141217873E1
2.933782996E0,6.213000298E0,-3.090705109E1,3.310950041E0,3.169873136E1
2.935746358E0,6.634950161E0,-3.109800148E1,3.310950041E0,3.196983969E1
2.937709689E0,6.940950394E0,-3.136605072E1,3.043050051E0,3.226865482E1
2.939672768E0,7.018050194E0,-3.155805206E1,2.736000061E0,3.244455848E1
2.941635921E0,7.018050194E0,-3.167295074E1,2.238000154E0,3.251826382E1
2.943599295E0,6.865050316E0,-3.171105194E1,1.701000094E0,3.249020056E1
2.945562607E0,6.520050526E0,-3.163500214E1,1.203000069E0,3.232230852E1
2.947526770E0,6.060000420E0,-3.136605072E1,3.600000143E-1,3.194811955E1
2.949490684E0,5.560950279E0,-3.098295212E1,-4.440000355E-1,3.148117892E1
2.951453798E0,5.140050411E0,-3.056205177E1,-1.210950017E0,3.101492426E1
2.953417147E0,4.872000217E0,-3.017805099E1,-2.014950037E0,3.063512970E1
2.955380542E0,4.756950378E0,-2.987205124E1,-2.667000055E0,3.036578521E1
2.957343919E0,4.795050144E0,-2.975700188E1,-3.241950035E0,3.031471436E1
2.959307305E0,4.987050056E0,-2.968005180E1,-3.510000229E0,3.030010305E1
2.961270689E0,5.254950047E0,-2.960295105E1,-3.625050068E0,3.028349714E1
2.963233849E0,5.485050201E0,-2.971800232E1,-3.586950064E0,3.043208255E1
2.965197075E0,5.830050468E0,-2.975700188E1,-3.280050039E0,3.049962914E1
2.967160171E0,6.136050224E0,-2.979495049E1,-2.935050249E0,3.056149058E1
2.969123306E0,6.442950249E0,-2.975700188E1,-2.514000177E0,3.055013855E1
2.971086868E0,6.634950161E0,-2.952705193E1,-2.130000114E0,3.033819803E1
2.973050304E0,6.865050316E0,-2.925795174E1,-1.786050081E0,3.010559135E1
2.975013546E0,6.940950394E0,-2.891400146E1,-1.555950046E0,2.977611885E1
2.976976845E0,7.056000233E0,-2.853000069E1,-1.363950014E0,2.942122428E1
2.978940014E0,7.095000267E0,-2.803200150E1,-1.287000060E0,2.894457645E1
2.980903224E0,7.056000233E0,-2.753400040E1,-1.249050021E0,2.845115891E1
2.982866503E0,6.979950428E0,-2.703495216E1,-1.287000060E0,2.795111296E1
2.984829761E0,6.865050316E0,-2.649900055E1,-1.402050018E0,2.740970066E1
2.986792763E0,6.711000443E0,-2.596200180E1,-1.555950046E0,2.686045504E1
2.988755840E0,6.520050526E0,-2.546400070E1,-1.747050047E0,2.634347309E1
2.990718960E0,6.366000175E0,-2.500395203E1,-2.014950037E0,2.588017772E1
2.992682068E0,6.136050224E0,-2.462100029E1,-2.206950188E0,2.546989197E1
2.994645141E0,5.868000507E0,-2.416095161E1,-2.322000027E0,2.497151772E1
2.996608224E0,5.638050079E0,-2.381595039E1,-2.359950066E0,2.458772999E1
2.998571615E0,5.407950401E0,-2.350905037E1,-2.322000027E0,2.423454272E1
3.000534915E0,5.215950012E0,-2.324100113E1,-2.245050192E0,2.392468429E1
3.002498004E0,4.987050056E0,-2.297295189E1,-2.245050192E0,2.361498332E1
3.004461152E0,4.717950344E0,-2.278095055E1,-2.092050076E0,2.335824130E1
3.006424172E0,4.488000393E0,-2.258895111E1,-1.977000117E0,2.311517660E1
3.008387229E0,4.297049999E0,-2.247405052E1,-1.786050081E0,2.295076383E1
3.010350353E0,4.105050087E0,-2.235900116E1,-1.594050050E0,2.278853582E1
3.012313458E0,3.874950171E0,-2.220600128E1,-1.441050053E0,2.258757085E1
3.014276545E0,3.721950293E0,-2.205300140E1,-1.287000060E0,2.240187836E1
3.016239628E0,3.529950142E0,-2.186100197E1,-1.210950017E0,2.217724859E1
3.018202704E0,3.337950230E0,-2.163105011E1,-1.057050109E0,2.191258989E1
3.020165782E0,3.223050117E0,-2.136300087E1,-9.810000658E-1,2.162702521E1
3.022128859E0,3.070050240E0,-2.105595016E1,-9.040500522E-1,2.129778280E1
3.024091936E0,2.878050089E0,-2.071095085E1,-7.890000343E-1,2.092484596E1
3.026055012E0,2.686950207E0,-2.029005051E1,-8.269500136E-1,2.048388873E1
3.028018089E0,2.533950090E0,-1.983000183E1,-8.269500136E-1,2.000834131E1
3.029981526E0,2.457000017E0,-1.940805054E1,-8.659500480E-1,1.958211286E1
3.031944857E0,2.380050182E0,-1.902495003E1,-7.510500550E-1,1.918795035E1
3.033908026E0,2.419050217E0,-1.852695084E1,-8.269500136E-1,1.870250137E1
3.035871243E0,2.341950178E0,-1.806705093E1,-8.659500480E-1,1.823877544E1
3.037834515E0,2.419050217E0,-1.756905174E1,-7.510500550E-1,1.775070306E1
3.039797775E0,2.380050182E0,-1.703205109E1,-7.120500207E-1,1.721227522E1
3.041760956E0,2.265000105E0,-1.649505043E1,-7.510500550E-1,1.666676304E1
3.043724161E0,2.227050066E0,-1.591995049E1,-7.510500550E-1,1.609250296E1
3.045687395E0,2.304000139E0,-1.542195034E1,-5.970000029E-1,1.560453069E1
3.047650621E0,2.304000139E0,-1.492395115E1,-4.440000355E-1,1.510727873E1
3.049614273E0,2.380050182E0,-1.446405029E1,-3.289500177E-1,1.466225078E1
3.051577790E0,2.494950056E0,-1.408095074E1,-1.369500011E-1,1.430093370E1
3.053541288E0,2.380050182E0,-1.350600052E1,-1.759500057E-1,1.371523413E1
3.055504792E0,2.341950178E0,-1.296900082E1,-1.759500057E-1,1.317993442E1
3.057467841E0,2.380050182E0,-1.254795074E1,-2.520000041E-1,1.277416184E1
3.059431023E0,2.380050182E0,-1.204905033E1,-2.140500098E-1,1.228373193E1
3.061394386E0,2.419050217E0,-1.158900070E1,-2.140500098E-1,1.184071614E1
3.063357703E0,2.533950090E0,-1.113000011E1,-1.759500057E-1,1.141616240E1
3.065321099E0,2.533950090E0,-1.070805073E1,-2.140500098E-1,1.100586529E1
3.067284472E0,2.610000134E0,-1.017105007E1,-9.900000691E-2,1.050105525E1
3.069248219E0,2.533950090E0,-9.673050880E0,-1.369500011E-1,1.000037858E1
3.071211857E0,2.610000134E0,-9.213000298E0,-2.520000041E-1,9.578881938E0
3.073175030E0,2.649000168E0,-8.791950226E0,-2.910000086E-1,9.186962048E0
3.075138363E0,2.649000168E0,-8.370000839E0,-4.440000355E-1,8.790406815E0
3.077101755E0,2.494950056E0,-7.872000217E0,-4.819500148E-1,8.271967059E0
3.079065130E0,2.380050182E0,-7.450050354E0,-5.590500236E-1,7.840945484E0
3.081028517E0,2.227050066E0,-7.066950321E0,-6.739500165E-1,7.440144317E0
3.082991900E0,2.149950027E0,-6.684000492E0,-6.360000372E-1,7.050010195E0
3.084954846E0,2.111999989E0,-6.300000191E0,-5.970000029E-1,6.671353338E0
3.086917945E0,1.920000076E0,-5.955000401E0,-5.590500236E-1,6.281796478E0
3.088881062E0,1.804950118E0,-5.494950294E0,-4.440000355E-1,5.800815434E0
3.090844173E0,1.767000079E0,-5.149950027E0,-2.520000041E-1,5.450484251E0
3.092807245E0,1.804950118E0,-4.804950237E0,-1.369500011E-1,5.134602907E0
3.094770329E0,1.767000079E0,-4.498950005E0,1.680000126E-1,4.836430960E0
3.096732847E0,1.843950033E0,-4.231050014E0,4.360500276E-1,4.635954656E0
3.098695511E0,1.882050037E0,-3.924000263E0,7.050000429E-1,4.408731730E0
3.100658838E0,1.920000076E0,-3.579000235E0,1.126049995E0,4.214692345E0
3.102621971E0,2.074050188E0,-3.349050045E0,1.318050027E0,4.153922996E0
3.104585084E0,2.074050188E0,-2.965950251E0,1.395000100E0,3.878733086E0
3.106548203E0,2.111999989E0,-2.581950188E0,1.510050058E0,3.661592809E0
3.108511451E0,2.227050066E0,-2.275950193E0,1.663050056E0,3.592413780E0
3.110474630E0,2.188950062E0,-1.930950046E0,1.855050087E0,3.458508534E0
3.112438050E0,2.188950062E0,-1.585950017E0,2.122950077E0,3.437100065E0
3.114401399E0,2.111999989E0,-1.318050027E0,2.238000154E0,3.347602801E0
3.116364611E0,2.035050154E0,-9.730500579E-1,2.430000067E0,3.315592838E0
3.118327863E0,2.074050188E0,-7.039500475E-1,2.620950222E0,3.415641948E0
3.120290924E0,2.074050188E0,-4.740000367E-1,2.736000061E0,3.465841392E0
3.122254031E0,2.149950027E0,-2.059500068E-1,2.812950134E0,3.546461474E0
3.124216246E0,2.188950062E0,-1.290000081E-1,2.736000061E0,3.506257222E0
3.126178723E0,2.304000139E0,6.105000153E-2,2.698050022E0,3.548466946E0
3.128142082E0,2.304000139E0,2.530499995E-1,2.506050110E0,3.413610713E0
3.130105183E0,2.304000139E0,5.209500194E-1,2.275950193E0,3.280206525E0
3.132068096E0,2.304000139E0,7.510500550E-1,2.122950077E0,3.221709151E0
3.134031050E0,2.304000139E0,9.040500522E-1,1.930950046E0,3.139154539E0
3.135994147E0,2.265000105E0,1.057950020E0,1.777950048E0,3.067668511E0
3.137957202E0,2.188950062E0,1.249050021E0,1.510050058E0,2.938006043E0
3.139920418E0,2.035050154E0,1.402950048E0,1.395000100E0,2.838260602E0
3.141883586E0,1.959000111E0,1.594050050E0,1.087950110E0,2.749965898E0
3.143846814E0,1.920000076E0,1.708950043E0,7.050000429E-1,2.665320919E0
3.145810034E0,1.882050037E0,1.824000120E0,3.600000143E-1,2.645503504E0
3.147774033E0,1.843950033E0,1.978050113E0,5.295000225E-2,2.704743551E0
3.149737803E0,1.804950118E0,2.053950071E0,-2.520000041E-1,2.745916937E0
3.151700762E0,1.729050040E0,2.169000149E0,-5.590500236E-1,2.829613510E0
3.153663959E0,1.729050040E0,2.245950222E0,-8.659500480E-1,2.963743566E0
3.155627029E0,1.614000082E0,2.284050226E0,-1.057050109E0,2.989855621E0
3.157590127E0,1.690050125E0,2.322000027E0,-1.326000094E0,3.163262525E0
3.159553740E0,1.651950121E0,2.361000061E0,-1.516950130E0,3.256439496E0
3.161517202E0,1.651950121E0,2.437050104E0,-1.632000089E0,3.366240737E0
3.163480574E0,1.575000048E0,2.437050104E0,-1.747050047E0,3.387037382E0
3.165443973E0,1.690050125E0,2.398950100E0,-1.747050047E0,3.415174208E0
3.167407000E0,1.767000079E0,2.398950100E0,-1.747050047E0,3.453901378E0
3.169370132E0,1.767000079E0,2.398950100E0,-1.786050081E0,3.473791265E0
3.171333378E0,1.804950118E0,2.398950100E0,-1.708950043E0,3.454463310E0
3.173296591E0,1.843950033E0,2.398950100E0,-1.671000123E0,3.456494571E0
3.175259646E0,1.843950033E0,2.361000061E0,-1.594050050E0,3.393444942E0
3.177222747E0,1.882050037E0,2.322000027E0,-1.479000092E0,3.334851981E0
3.179186018E0,1.920000076E0,2.284050226E0,-1.287000060E0,3.249562260E0
3.181149226E0,1.959000111E0,2.208000183E0,-1.171950102E0,3.175911410E0
3.183112641E0,1.959000111E0,2.169000149E0,-1.018950105E0,3.095238665E0
3.185075995E0,1.959000111E0,2.131050110E0,-8.659500480E-1,3.021411175E0
3.187039026E0,1.996950150E0,2.016000032E0,-6.360000372E-1,2.908016863E0
3.189002151E0,1.959000111E0,1.939050078E0,-4.819500148E-1,2.798190926E0
3.190965515E0,1.959000111E0,1.824000120E0,-2.520000041E-1,2.688524107E0
3.192928822E0,1.996950150E0,1.747950077E0,-6.105000153E-2,2.654593467E0
3.194891140E0,1.996950150E0,1.671000123E0,1.680000126E-1,2.609267199E0
3.196853747E0,1.996950150E0,1.518000126E0,3.600000143E-1,2.534114104E0
3.198817084E0,1.996950150E0,1.402950048E0,5.899500251E-1,2.510800623E0
3.200780207E0,2.035050154E0,1.249050021E0,8.580000401E-1,2.537266078E0
3.202743467E0,1.959000111E0,1.057950020E0,1.087950110E0,2.478018386E0
3.204706711E0,1.729050040E0,7.129500508E-1,1.203000069E0,2.223762798E0
3.206670976E0,1.498950124E0,2.530499995E-1,1.240950108E0,1.962356478E0
3.208634942E0,1.306950092E0,-9.105000645E-2,1.279950023E0,1.831578747E0
3.210598273E0,1.269000053E0,-2.440500110E-1,1.203000069E0,1.765539778E0
3.212561790E0,1.230000019E0,-5.130000114E-1,1.240950108E0,1.820995944E0
3.214525341E0,1.153950095E0,-7.039500475E-1,1.087950110E0,1.735160492E0
3.216488875E0,1.000050068E0,-8.580000401E-1,1.050000072E0,1.684863305E0
3.218452370E0,8.850000501E-1,-9.340500236E-1,9.730500579E-1,1.613226875E0
3.220415877E0,8.470500112E-1,-1.048950076E0,9.730500579E-1,1.662713565E0
3.222379061E0,7.320000529E-1,-1.164000034E0,9.730500579E-1,1.684501877E0
3.224342339E0,6.169500351E-1,-1.356000066E0,8.959500194E-1,1.738415935E0
3.226304889E0,5.410500169E-1,-1.318050027E0,8.200500607E-1,1.643920040E0
3.228267650E0,4.639500082E-1,-1.318050027E0,9.349500537E-1,1.681260565E0
3.230231276E0,4.260000288E-1,-1.356000066E0,9.730500579E-1,1.722509396E0
3.232194648E0,3.870000243E-1,-1.356000066E0,1.011000037E0,1.735115637E0
3.234158080E0,3.490500152E-1,-1.393950105E0,1.011000037E0,1.757001390E0
3.236121495E0,2.719500065E-1,-1.356000066E0,1.126049995E0,1.783446544E0
3.238084840E0,2.340000123E-1,-1.356000066E0,1.126049995E0,1.778055336E0
3.240048199E0,2.340000123E-1,-1.356000066E0,1.087950110E0,1.754174343E0
3.242011587E0,1.960500032E-1,-1.356000066E0,1.087950110E0,1.749516283E0
3.243974966E0,1.960500032E-1,-1.318050027E0,1.126049995E0,1.744614590E0
3.245938218E0,1.570500135E-1,-1.356000066E0,1.165050030E0,1.794642710E0
3.247901507E0,1.189500093E-1,-1.356000066E0,1.126049995E0,1.766599523E0
3.249864557E0,8.100000024E-2,-1.356000066E0,1.087950110E0,1.740382895E0
3.251827670E0,1.189500093E-1,-1.318050027E0,1.087950110E0,1.713195967E0
3.253790920E0,4.200000316E-2,-1.356000066E0,1.087950110E0,1.739004204E0
3.255754130E0,4.200000316E-2,-1.393950105E0,1.011000037E0,1.722492952E0
3.257717365E0,4.050000105E-3,-1.356000066E0,9.730500579E-1,1.669005391E0
3.259680592E0,-7.200000435E-2,-1.356000066E0,8.959500194E-1,1.626851750E0
3.261643842E0,-3.299999982E-2,-1.393950105E0,8.959500194E-1,1.657381167E0
3.263607072E0,-7.200000435E-2,-1.393950105E0,8.200500607E-1,1.618877079E0
3.265570259E0,-1.099500060E-1,-1.393950105E0,7.050000429E-1,1.565953690E0
3.267533459E0,-1.870500147E-1,-1.393950105E0,6.280500293E-1,1.540302386E0
3.269496739E0,-1.870500147E-1,-1.393950105E0,5.509500504E-1,1.510506723E0
3.271459995E0,-2.250000089E-1,-1.393950105E0,5.130000114E-1,1.502295214E0
