"Time (s)","Acceleration x (m/s^2)","Acceleration y (m/s^2)","Acceleration z (m/s^2)","Absolute acceleration (m/s^2)"
3.380062300E-2,5.370000362E0,-2.270400047E1,1.279950023E0,2.336550478E1
3.576194300E-2,5.178000450E0,-2.281905174E1,1.279950023E0,2.343414353E1
3.772585400E-2,4.987050056E0,-2.289600182E1,1.165050030E0,2.346177549E1
3.968811200E-2,4.717950344E0,-2.301105118E1,1.087950110E0,2.351491372E1
4.165085400E-2,4.488000393E0,-2.308800125E1,9.349500537E-1,2.353873575E1
4.361342200E-2,4.258049965E0,-2.308800125E1,6.660000086E-1,2.348681220E1
4.557602700E-2,3.990000248E0,-2.312595177E1,4.750500321E-1,2.347243958E1
4.753954400E-2,3.798000097E0,-2.308800125E1,2.070000172E-1,2.339921912E1
4.950279400E-2,3.607050180E0,-2.304900169E1,-2.205000073E-2,2.332954728E1
5.146566200E-2,3.300000191E0,-2.285805130E1,-2.520000041E-1,2.309640696E1
5.342864200E-2,3.108000040E0,-2.270400047E1,-4.440000355E-1,2.292004445E1
5.539108400E-2,2.878050089E0,-2.251305199E1,-5.970000029E-1,2.270412057E1
5.735366600E-2,2.649000168E0,-2.228295135E1,-6.360000372E-1,2.244886676E1
5.931642100E-2,2.494950056E0,-2.205300140E1,-7.120500207E-1,2.220510441E1
6.127912600E-2,2.265000105E0,-2.174595070E1,-7.120500207E-1,2.187518257E1
6.324154700E-2,2.035050154E0,-2.143995094E1,-6.739500165E-1,2.154685903E1
6.520405100E-2,1.843950033E0,-2.105595016E1,-7.120500207E-1,2.114852724E1
6.716686000E-2,1.537050128E0,-2.071095085E1,-5.970000029E-1,2.077648713E1
6.912958300E-2,1.345050097E0,-2.029005051E1,-5.590500236E-1,2.034226748E1
7.109218100E-2,1.153950095E0,-1.986795044E1,-5.209500194E-1,1.990825066E1
7.305481500E-2,1.039050102E0,-1.948500061E1,-4.440000355E-1,1.951773578E1
7.501760700E-2,9.619500637E-1,-1.902495003E1,-4.060500264E-1,1.905358098E1
7.698035200E-2,9.240000248E-1,-1.867995071E1,-3.289500177E-1,1.870568210E1
7.894275800E-2,9.240000248E-1,-1.837305069E1,-2.140500098E-1,1.839751573E1
8.090530100E-2,8.470500112E-1,-1.787505150E1,-6.105000153E-2,1.789521408E1
8.286810800E-2,8.470500112E-1,-1.749195099E1,1.680000126E-1,1.751325404E1
8.483083700E-2,8.089500666E-1,-1.707000160E1,2.449500114E-1,1.709091441E1
8.679271300E-2,7.320000529E-1,-1.668704987E1,3.220500052E-1,1.670620165E1
8.875483900E-2,7.699500322E-1,-1.630395126E1,3.979500234E-1,1.632697198E1
9.071755200E-2,7.699500322E-1,-1.588200092E1,4.360500276E-1,1.590663120E1
9.268008300E-2,6.169500351E-1,-1.546095085E1,5.130000114E-1,1.548175693E1
9.464158800E-2,6.550500393E-1,-1.503900051E1,5.509500504E-1,1.506333870E1
9.660339300E-2,5.410500169E-1,-1.465605068E1,5.130000114E-1,1.467500343E1
9.856596600E-2,5.020500422E-1,-1.423395061E1,5.509500504E-1,1.425345398E1
1.005283140E-1,5.020500422E-1,-1.385100079E1,6.280500293E-1,1.387431886E1
1.024904400E-1,5.410500169E-1,-1.350600052E1,3.979500234E-1,1.352269017E1
1.044526280E-1,5.020500422E-1,-1.312305069E1,3.600000143E-1,1.313758401E1
1.064162620E-1,6.550500393E-1,-1.277805042E1,3.220500052E-1,1.279888196E1
1.083794720E-1,6.169500351E-1,-1.231800079E1,2.830500007E-1,1.233668870E1
1.103419870E-1,6.940500140E-1,-1.181895065E1,2.449500114E-1,1.184184532E1
1.123047050E-1,6.169500351E-1,-1.132095051E1,2.449500114E-1,1.134039454E1
1.142669070E-1,6.169500351E-1,-1.082295036E1,1.680000126E-1,1.084182208E1
1.162292530E-1,7.699500322E-1,-1.044000053E1,5.295000225E-2,1.046848785E1
1.181915540E-1,1.039050102E0,-1.009500027E1,1.300500035E-1,1.014916590E1
1.201538680E-1,1.153950095E0,-9.673050880E0,1.300500035E-1,9.742506205E0
1.221163540E-1,1.153950095E0,-9.289950371E0,-6.105000153E-2,9.361543987E0
1.240787890E-1,1.153950095E0,-8.830050468E0,-2.910000086E-1,8.909886256E0
1.260412650E-1,1.306950092E0,-8.446949959E0,-5.209500194E-1,8.563321264E0
1.280037220E-1,1.459950089E0,-8.062950134E0,-5.970000029E-1,8.215779217E0
1.299658250E-1,1.651950121E0,-7.680000305E0,-6.360000372E-1,7.881360285E0
1.319280310E-1,1.690050125E0,-7.258050442E0,-6.360000372E-1,7.479308904E0
1.338904010E-1,1.996950150E0,-6.837000370E0,-6.739500165E-1,7.154480595E0
1.358527220E-1,2.074050188E0,-6.376950264E0,-7.120500207E-1,6.743455649E0
1.378149790E-1,2.111999989E0,-5.955000401E0,-5.970000029E-1,6.346572518E0
1.397772580E-1,2.111999989E0,-5.419050217E0,-5.590500236E-1,5.842874817E0
1.417399750E-1,2.188950062E0,-4.996950150E0,-4.819500148E-1,5.476612912E0
1.437025640E-1,2.341950178E0,-4.575000286E0,-1.759500057E-1,5.142598240E0
1.456646440E-1,2.457000017E0,-4.192049980E0,-2.205000073E-2,4.859075871E0
1.476268730E-1,2.610000134E0,-3.808950186E0,1.680000126E-1,4.620435717E0
1.495884270E-1,2.725050211E0,-3.502050161E0,4.750500321E-1,4.462726355E0
1.515501800E-1,2.878050089E0,-3.234000206E0,7.050000429E-1,4.386223285E0
1.535122660E-1,2.955000162E0,-2.889000177E0,8.959500194E-1,4.228601946E0
1.554742550E-1,3.070050240E0,-2.506050110E0,9.730500579E-1,4.080725676E0
1.574367530E-1,3.184950113E0,-2.275950193E0,1.203000069E0,4.095249159E0
1.593991010E-1,3.415050268E0,-2.046000004E0,1.395000100E0,4.218377606E0
1.613616420E-1,3.415050268E0,-1.738950133E0,1.395000100E0,4.078301262E0
1.633241160E-1,3.376950264E0,-1.432950020E0,1.471050024E0,3.952357147E0
1.652867110E-1,3.376950264E0,-1.203000069E0,1.471050024E0,3.874918118E0
1.672492700E-1,3.262050152E0,-9.340500236E-1,1.510050058E0,3.713983282E0
1.692119400E-1,3.147000074E0,-6.280500293E-1,1.471050024E0,3.530162104E0
1.711745780E-1,2.992950201E0,-3.979500234E-1,1.432950020E0,3.342074339E0
1.731374860E-1,2.917050123E0,-2.059500068E-1,1.395000100E0,3.240003411E0
1.751003280E-1,2.764050245E0,-9.105000645E-2,1.240950108E0,3.031207850E0
1.770618240E-1,2.725050211E0,6.105000153E-2,1.087950110E0,2.934835804E0
1.790237150E-1,2.686950207E0,2.530499995E-1,9.349500537E-1,2.856198053E0
1.809860930E-1,2.649000168E0,4.060500264E-1,7.050000429E-1,2.771119552E0
1.829483280E-1,2.686950207E0,5.590500236E-1,5.130000114E-1,2.792025672E0
1.849116040E-1,2.764050245E0,7.129500508E-1,2.830500007E-1,2.868516836E0
1.868745680E-1,2.725050211E0,8.659500480E-1,5.295000225E-2,2.859820246E0
1.888371250E-1,2.725050211E0,1.018950105E0,-2.205000073E-2,2.909406154E0
1.907998010E-1,2.764050245E0,1.096050024E0,-9.900000691E-2,2.975079901E0
1.927620000E-1,2.725050211E0,1.173000097E0,-3.289500177E-1,2.984968341E0
1.947243390E-1,2.725050211E0,1.288050056E0,-3.670500219E-1,3.036395448E0
1.966865250E-1,2.686950207E0,1.402950048E0,-4.819500148E-1,3.069241937E0
1.986487430E-1,2.725050211E0,1.441050053E0,-5.209500194E-1,3.126325771E0
2.006112000E-1,2.802000046E0,1.441050053E0,-5.590500236E-1,3.200057256E0
2.025735870E-1,2.839950085E0,1.479000092E0,-5.970000029E-1,3.257171589E0
2.045362420E-1,2.955000162E0,1.479000092E0,-5.209500194E-1,3.345273704E0
2.064988180E-1,3.070050240E0,1.479000092E0,-4.060500264E-1,3.431840085E0
2.084611460E-1,3.070050240E0,1.518000126E0,-4.060500264E-1,3.448827261E0
2.104235320E-1,3.147000074E0,1.518000126E0,-2.910000086E-1,3.506082551E0
2.123863210E-1,3.184950113E0,1.518000126E0,-2.910000086E-1,3.540185392E0
2.143489920E-1,3.300000191E0,1.479000092E0,-1.759500057E-1,3.620552573E0
2.163114640E-1,3.415050268E0,1.479000092E0,-6.105000153E-2,3.722060815E0
2.182739940E-1,3.453000069E0,1.555950046E0,-9.900000691E-2,3.788666127E0
2.202364080E-1,3.492000103E0,1.518000126E0,-2.205000073E-2,3.807738870E0
2.221988490E-1,3.492000103E0,1.555950046E0,1.500000060E-2,3.822992318E0
2.241611790E-1,3.607050180E0,1.518000126E0,1.500000060E-2,3.913484430E0
2.261235410E-1,3.607050180E0,1.441050053E0,-6.105000153E-2,3.884734658E0
2.280857940E-1,3.607050180E0,1.479000092E0,-6.105000153E-2,3.898971579E0
2.300480790E-1,3.645000219E0,1.441050053E0,-2.140500098E-1,3.925362309E0
2.320104500E-1,3.721950293E0,1.363950014E0,-2.520000041E-1,3.971999197E0
2.339727850E-1,3.760050297E0,1.402950048E0,-2.140500098E-1,4.018963110E0
2.359352680E-1,3.837000132E0,1.363950014E0,-2.910000086E-1,4.082598518E0
2.378977080E-1,3.874950171E0,1.288050056E0,-3.670500219E-1,4.099882619E0
2.398599940E-1,3.952050209E0,1.288050056E0,-4.060500264E-1,4.176439922E0
2.418223250E-1,3.952050209E0,1.210950017E0,-4.060500264E-1,4.153309213E0
2.437846080E-1,4.066950321E0,1.173000097E0,-3.670500219E-1,4.248616229E0
2.457469200E-1,4.105050087E0,1.057950020E0,-4.060500264E-1,4.258587921E0
2.477095410E-1,4.143000126E0,1.057950020E0,-4.819500148E-1,4.303020347E0
2.496720720E-1,4.258049965E0,1.018950105E0,-5.590500236E-1,4.413817593E0
2.516343420E-1,4.372950077E0,9.040500522E-1,-4.819500148E-1,4.491355552E0
2.535966890E-1,4.450050354E0,8.280000687E-1,-3.670500219E-1,4.541283738E0
2.555588600E-1,4.564949989E0,6.739500165E-1,-2.520000041E-1,4.621307286E0
2.575210790E-1,4.603050232E0,5.209500194E-1,-6.105000153E-2,4.632837949E0
2.594833550E-1,4.717950344E0,4.060500264E-1,1.500000060E-2,4.735415195E0
2.614456150E-1,4.795050144E0,2.140500098E-1,2.070000172E-1,4.804286867E0
2.634079310E-1,4.795050144E0,2.295000106E-2,4.750500321E-1,4.818579160E0
2.653702300E-1,4.564949989E0,-9.105000645E-2,5.899500251E-1,4.603813587E0
2.673324240E-1,4.372950077E0,-2.440500110E-1,7.050000429E-1,4.436133209E0
2.692946360E-1,4.258049965E0,-4.360500276E-1,7.810500264E-1,4.350996239E0
2.712569140E-1,4.066950321E0,-6.660000086E-1,8.200500607E-1,4.201918970E0
2.732191730E-1,3.837000132E0,-8.580000401E-1,7.429500222E-1,4.001338378E0
2.751813090E-1,3.682950258E0,-1.126049995E0,7.429500222E-1,3.922255210E0
2.771434820E-1,3.568050146E0,-1.279050112E0,7.050000429E-1,3.855382743E0
2.791056140E-1,3.415050268E0,-1.393950105E0,5.509500504E-1,3.729505488E0
2.810677710E-1,3.376950264E0,-1.509000063E0,5.509500504E-1,3.739574873E0
2.830301480E-1,3.300000191E0,-1.624050021E0,5.509500504E-1,3.719016764E0
2.849924610E-1,3.147000074E0,-1.701000094E0,5.130000114E-1,3.613887076E0
2.869547240E-1,3.031950235E0,-1.777950048E0,4.360500276E-1,3.541746494E0
2.889170020E-1,2.917050123E0,-1.854000092E0,4.360500276E-1,3.483767700E0
2.908791390E-1,2.917050123E0,-1.893000126E0,4.750500321E-1,3.509744069E0
2.928413140E-1,2.802000046E0,-1.893000126E0,4.750500321E-1,3.414721990E0
2.948034640E-1,2.610000134E0,-1.854000092E0,3.979500234E-1,3.226109307E0
2.967656220E-1,2.341950178E0,-1.738950133E0,3.220500052E-1,2.934688128E0
2.987283600E-1,2.074050188E0,-1.663050056E0,1.300500035E-1,2.661640974E0
3.006909280E-1,1.804950118E0,-1.509000063E0,1.500000060E-2,2.352690188E0
3.026529760E-1,1.537050128E0,-1.432950020E0,-9.900000691E-2,2.103727610E0
3.046151700E-1,1.269000053E0,-1.318050027E0,-1.759500057E-1,1.838090154E0
3.065773620E-1,1.077000022E0,-1.164000034E0,-2.520000041E-1,1.605717637E0
3.085395540E-1,8.089500666E-1,-1.048950076E0,-3.670500219E-1,1.374562545E0
3.105009350E-1,5.020500422E-1,-8.190000653E-1,-4.060500264E-1,1.042924722E0
3.124625540E-1,2.340000123E-1,-5.890500546E-1,-4.060500264E-1,7.527367378E-1
3.144248540E-1,1.189500093E-1,-3.979500234E-1,-4.440000355E-1,6.079879583E-1
3.163869470E-1,-1.099500060E-1,-2.059500068E-1,-5.209500194E-1,5.708706787E-1
3.183490660E-1,-1.099500060E-1,-1.290000081E-1,-6.360000372E-1,6.581990985E-1
3.203111780E-1,-1.099500060E-1,-1.290000081E-1,-8.269500136E-1,8.441423642E-1
3.222726640E-1,-7.200000435E-2,-5.295000225E-2,-9.420000315E-1,9.462302905E-1
3.242343330E-1,-1.099500060E-1,-1.500000060E-2,-1.018950105E0,1.024974790E0
3.261961920E-1,-3.299999982E-2,9.900000691E-2,-1.096050024E0,1.101006656E0
3.281579750E-1,4.050000105E-3,1.380000114E-1,-1.057050109E0,1.066027832E0
3.301201930E-1,4.200000316E-2,9.900000691E-2,-1.096050024E0,1.101313151E0
3.320822830E-1,8.100000024E-2,1.759500057E-1,-1.057050109E0,1.074650798E0
3.340441330E-1,1.960500032E-1,1.759500057E-1,-1.018950105E0,1.052451103E0
3.360060540E-1,1.960500032E-1,2.140500098E-1,-9.040500522E-1,9.495048748E-1
3.379680810E-1,2.340000123E-1,2.140500098E-1,-9.040500522E-1,9.580604935E-1
3.399300670E-1,2.340000123E-1,2.530499995E-1,-8.659500480E-1,9.320192024E-1
3.418920250E-1,2.719500065E-1,2.140500098E-1,-8.269500136E-1,8.964488484E-1
3.438539920E-1,3.870000243E-1,1.759500057E-1,-7.120500207E-1,8.293025113E-1
3.458169430E-1,5.020500422E-1,1.380000114E-1,-6.360000372E-1,8.219454333E-1
3.477796050E-1,6.169500351E-1,6.105000153E-2,-5.209500194E-1,8.097798288E-1
3.497425370E-1,6.940500140E-1,2.295000106E-2,-4.440000355E-1,8.242379244E-1
3.517053840E-1,8.850000501E-1,-5.295000225E-2,-3.289500177E-1,9.456410024E-1
3.536677800E-1,9.619500637E-1,-9.105000645E-2,-2.140500098E-1,9.896744088E-1
3.556303090E-1,1.077000022E0,-9.105000645E-2,-1.369500011E-1,1.089483572E0
3.575924430E-1,1.114950061E0,-1.290000081E-1,-9.900000691E-2,1.126745598E0
3.595546930E-1,1.153950095E0,-1.680000126E-1,-6.105000153E-2,1.167712263E0
3.615166540E-1,1.192050099E0,-2.059500068E-1,9.195000678E-2,1.213199756E0
3.634786650E-1,1.230000019E0,-1.680000126E-1,1.300500035E-1,1.248213545E0
3.654408420E-1,1.192050099E0,-2.059500068E-1,1.680000126E-1,1.221320126E0
3.674029710E-1,1.192050099E0,-2.830500007E-1,2.830500007E-1,1.257464928E0
3.693644090E-1,1.269000053E0,-3.979500234E-1,4.360500276E-1,1.399594578E0
3.713260500E-1,1.269000053E0,-3.979500234E-1,5.130000114E-1,1.425445323E0
3.732883020E-1,1.269000053E0,-4.360500276E-1,6.280500293E-1,1.481535555E0
3.752503990E-1,1.269000053E0,-5.130000114E-1,7.810500264E-1,1.575934418E0
3.772128780E-1,1.269000053E0,-5.130000114E-1,1.011000037E0,1.701661313E0
3.791752450E-1,1.306950092E0,-5.130000114E-1,1.203000069E0,1.848917716E0
3.811375880E-1,1.269000053E0,-4.740000367E-1,1.356000066E0,1.916708989E0
3.830999390E-1,1.230000019E0,-5.130000114E-1,1.471050024E0,1.984957741E0
3.850622050E-1,1.192050099E0,-4.740000367E-1,1.510050058E0,1.981391090E0
3.870245200E-1,1.039050102E0,-4.740000367E-1,1.777950048E0,2.113151089E0
3.889867820E-1,8.850000501E-1,-4.360500276E-1,2.085000038E0,2.306640387E0
3.909490590E-1,7.699500322E-1,-3.979500234E-1,2.353049994E0,2.507594773E0
3.929104710E-1,6.550500393E-1,-3.979500234E-1,2.506050110E0,2.620637695E0
3.948721360E-1,5.410500169E-1,-3.210000098E-1,2.698050022E0,2.770424164E0
3.968347190E-1,4.639500082E-1,-2.830500007E-1,2.773950100E0,2.826688181E0
3.987970430E-1,4.260000288E-1,-2.830500007E-1,2.773950100E0,2.820707798E0
4.007593930E-1,3.490500152E-1,-1.680000126E-1,2.851050138E0,2.877246394E0
4.027217350E-1,2.340000123E-1,-1.680000126E-1,2.851050138E0,2.865565721E0
4.046841720E-1,1.960500032E-1,-1.290000081E-1,2.736000061E0,2.746046784E0
4.066465810E-1,1.570500135E-1,-9.105000645E-2,2.698050022E0,2.704150279E0
4.086085660E-1,1.570500135E-1,-9.105000645E-2,2.545050144E0,2.551516225E0
4.105706690E-1,1.570500135E-1,-1.500000060E-2,2.391000032E0,2.396199253E0
4.125326060E-1,1.570500135E-1,-1.500000060E-2,2.122950077E0,2.128804062E0
4.144945920E-1,1.570500135E-1,9.900000691E-2,1.930950046E0,1.939854063E0
4.164569540E-1,1.960500032E-1,1.380000114E-1,1.663050056E0,1.680242570E0
4.184192060E-1,2.340000123E-1,6.105000153E-2,1.471050024E0,1.490795520E0
4.203818650E-1,1.189500093E-1,2.140500098E-1,1.318050027E0,1.340605231E0
4.223444180E-1,4.050000105E-3,2.140500098E-1,8.580000401E-1,8.843064389E-1
4.243078100E-1,-7.200000435E-2,2.530499995E-1,2.830500007E-1,3.864396534E-1
4.262709560E-1,-1.870500147E-1,2.530499995E-1,-2.910000086E-1,4.286058973E-1
4.282334360E-1,-3.019500077E-1,2.530499995E-1,-8.269500136E-1,9.159991454E-1
4.301961120E-1,-4.170000255E-1,2.530499995E-1,-1.287000060E0,1.376332982E0
4.321585420E-1,-5.320500135E-1,1.759500057E-1,-1.555950046E0,1.653788428E0
4.341210400E-1,-7.230000496E-1,2.295000106E-2,-1.939050078E0,2.069582320E0
4.360840800E-1,-7.230000496E-1,-1.680000126E-1,-2.130000114E0,2.255627089E0
4.380469610E-1,-7.620000243E-1,-2.440500110E-1,-2.169000149E0,2.311875016E0
4.400091720E-1,-7.230000496E-1,-5.890500546E-1,-2.130000114E0,2.325211716E0
4.419715790E-1,-4.170000255E-1,-1.048950076E0,-1.861950040E0,2.177393679E0
4.439336690E-1,-1.099500060E-1,-1.509000063E0,-1.555950046E0,2.170288169E0
4.458958660E-1,1.960500032E-1,-1.930950046E0,-1.171950102E0,2.267260621E0
4.478592280E-1,5.410500169E-1,-2.314050198E0,-9.040500522E-1,2.542610850E0
4.498222490E-1,7.699500322E-1,-2.659050226E0,-6.360000372E-1,2.840399128E0
4.517843000E-1,1.000050068E0,-2.926950216E0,-4.060500264E-1,3.119617658E0
4.537466350E-1,1.153950095E0,-3.271950245E0,-1.759500057E-1,3.473934028E0
4.557088980E-1,1.192050099E0,-3.655950069E0,-2.520000041E-1,3.853629244E0
4.576711790E-1,1.269000053E0,-4.192049980E0,-4.440000355E-1,4.402360753E0
4.596335350E-1,1.230000019E0,-4.959000111E0,-5.970000029E-1,5.144024800E0
4.615958690E-1,1.230000019E0,-5.802000046E0,-4.440000355E-1,5.947540719E0
4.635570470E-1,1.039050102E0,-6.645000458E0,9.195000678E-2,6.726374284E0
4.655185640E-1,7.320000529E-1,-7.680000305E0,1.165050030E0,7.802279817E0
4.674803140E-1,2.719500065E-1,-8.638050079E0,2.122950077E0,8.899257441E0
4.694419750E-1,-2.250000089E-1,-9.787950516E0,3.043050051E0,1.025254865E1
4.714042590E-1,-8.770500422E-1,-1.109100056E1,3.541050196E0,1.167555338E1
4.733663600E-1,-1.605000019E0,-1.258605099E1,3.963000298E0,1.329248193E1
4.753288380E-1,-2.524950027E0,-1.477095032E1,4.078050137E0,1.553019120E1
4.772912060E-1,-3.636000156E0,-1.753005028E1,4.039050102E0,1.835312196E1
4.792531890E-1,-4.786050320E0,-2.074995041E1,3.886050224E0,2.164643402E1
4.812152850E-1,-6.204000473E0,-2.419905090E1,4.000950336E0,2.530002550E1
4.831778080E-1,-7.047000408E0,-2.795505142E1,4.153950214E0,2.912731394E1
4.851402060E-1,-7.660950184E0,-3.178800201E1,4.729050159E0,3.303832843E1
4.871028140E-1,-7.621950150E0,-3.569700241E1,6.031950474E0,3.699668271E1
4.890653600E-1,-7.047000408E0,-3.991395187E1,7.564950466E0,4.123120474E1
4.910276230E-1,-6.204000473E0,-4.390005112E1,9.214050293E0,4.528358238E1
4.929899720E-1,-5.016000271E0,-4.773195267E1,1.063200092E1,4.915830558E1
4.949524970E-1,-3.138000250E0,-5.122005081E1,1.208805084E1,5.272059962E1
4.969149700E-1,-3.019500077E-1,-5.459295273E1,1.289295101E1,5.609554213E1
4.988782860E-1,3.108000040E0,-5.781300354E1,1.320000076E1,5.938217799E1
5.008413550E-1,7.401000500E0,-6.064905167E1,1.266300106E1,6.239738674E1
5.028035970E-1,1.157895088E1,-6.264195251E1,9.979950905E0,6.448011894E1
5.047660680E-1,1.633095169E1,-6.429000092E1,5.380950451E0,6.654967189E1
5.067292480E-1,2.192700195E1,-6.582300568E1,-8.659500480E-1,6.938451816E1
5.086922200E-1,2.694795036E1,-6.620595551E1,-7.495950222E0,7.187217711E1
5.106547300E-1,3.173895073E1,-6.551595306E1,-1.546800041E1,7.442419053E1
5.126173760E-1,3.530400085E1,-6.329295349E1,-2.068095016E1,7.536625331E1
5.145798560E-1,3.706695175E1,-5.969100189E1,-2.217600060E1,7.368004901E1
5.165423810E-1,3.691305161E1,-5.536005402E1,-2.110305023E1,6.980435293E1
5.185047860E-1,3.488205338E1,-5.072205353E1,-1.719300079E1,6.391465902E1
5.204672270E-1,3.166305161E1,-4.604595184E1,-1.270905018E1,5.730879928E1
5.224297360E-1,2.668005180E1,-4.121700287E1,-8.377950668E0,4.980819759E1
5.243922250E-1,1.962795067E1,-3.650205231E1,-5.043000221E0,4.175030684E1
5.263544530E-1,1.330395031E1,-3.270795059E1,-3.049950123E0,3.544160439E1
5.283167610E-1,8.781000137E0,-2.971800232E1,-1.516950130E0,3.102526008E1
5.302791120E-1,5.293050289E0,-2.741895103E1,-5.590500236E-1,2.793076788E1
5.322414510E-1,2.572050095E0,-2.565600204E1,-2.910000086E-1,2.578624757E1
5.342028530E-1,6.550500393E-1,-2.435295105E1,-4.440000355E-1,2.436580496E1
5.361645300E-1,-8.770500422E-1,-2.331795120E1,-7.890000343E-1,2.334777476E1
5.381268940E-1,-1.987950087E0,-2.270400047E1,-9.810000658E-1,2.281196932E1
5.400890610E-1,-2.755050182E0,-2.228295135E1,-1.018950105E0,2.247573095E1
5.420510790E-1,-3.406050205E0,-2.216805077E1,-1.171950102E0,2.245878714E1
5.440131400E-1,-4.018949986E0,-2.220600128E1,-1.057050109E0,2.259149855E1
5.459754440E-1,-4.363950253E0,-2.239800072E1,-7.890000343E-1,2.283280576E1
5.479376770E-1,-4.594050407E0,-2.281905174E1,-4.819500148E-1,2.328189634E1
5.498990690E-1,-4.900950432E0,-2.316405106E1,9.195000678E-2,2.367701483E1
5.518607280E-1,-5.169000149E0,-2.343300056E1,6.280500293E-1,2.400455217E1
5.538227850E-1,-5.361000061E0,-2.377800179E1,9.730500579E-1,2.439427222E1
5.557847260E-1,-5.476050377E0,-2.400795174E1,1.318050027E0,2.465980799E1
5.577469160E-1,-5.398950100E0,-2.416095161E1,1.432950020E0,2.479825782E1
5.597090330E-1,-5.323050022E0,-2.431395149E1,1.471050024E0,2.493325263E1
5.616712430E-1,-5.053950310E0,-2.446800041E1,1.471050024E0,2.502777349E1
5.636334220E-1,-4.824000359E0,-2.458200073E1,1.471050024E0,2.509401777E1
5.655955280E-1,-4.441050053E0,-2.469705200E1,1.471050024E0,2.513625452E1
5.675576550E-1,-4.173000336E0,-2.477400208E1,1.395000100E0,2.516169978E1
5.695198120E-1,-3.828000069E0,-2.473605156E1,1.126049995E0,2.505581409E1
5.714819600E-1,-3.445050240E0,-2.481195068E1,7.429500222E-1,2.506099046E1
5.734454110E-1,-3.253050089E0,-2.473605156E1,2.830500007E-1,2.495064526E1
5.754084560E-1,-3.022950172E0,-2.469705200E1,-1.759500057E-1,2.488199276E1
5.773705030E-1,-2.869950056E0,-2.450595093E1,-6.360000372E-1,2.468162758E1
5.793328430E-1,-2.601000071E0,-2.431395149E1,-1.018950105E0,2.447389830E1
5.812951000E-1,-2.410050154E0,-2.416095161E1,-1.441050053E0,2.432358012E1
5.832573810E-1,-2.140950203E0,-2.400795174E1,-1.786050081E0,2.416930676E1
5.852196010E-1,-1.950000048E0,-2.377800179E1,-1.977000117E0,2.393959896E1
5.871818090E-1,-1.720050097E0,-2.362395096E1,-2.014950037E0,2.377203514E1
5.891442680E-1,-1.375050068E0,-2.347095108E1,-1.900950074E0,2.358791891E1
5.911066530E-1,-9.919500351E-1,-2.335605049E1,-1.671000123E0,2.343675107E1
5.930691280E-1,-8.380500674E-1,-2.320305061E1,-1.287000060E0,2.325382237E1
5.950315760E-1,-6.079500318E-1,-2.304900169E1,-8.659500480E-1,2.307327354E1
5.969937220E-1,-4.549500346E-1,-2.285805130E1,-4.819500148E-1,2.286765761E1
5.989559590E-1,-2.250000089E-1,-2.266605186E1,1.300500035E-1,2.266754167E1
6.009177380E-1,4.200000316E-2,-2.255100060E1,6.280500293E-1,2.255978366E1
6.028796510E-1,4.639500082E-1,-2.239800072E1,1.240950108E0,2.243714872E1
6.048427460E-1,7.320000529E-1,-2.205300140E1,1.548000097E0,2.211938063E1
6.068054950E-1,8.470500112E-1,-2.167005157E1,1.855050087E0,2.176579518E1
6.087676870E-1,1.039050102E0,-2.121000099E1,2.161050081E0,2.134511430E1
6.107300400E-1,1.345050097E0,-2.090295029E1,2.506050110E0,2.109556298E1
6.126922040E-1,1.614000082E0,-2.044305038E1,2.889000177E0,2.070916771E1
6.146544240E-1,1.729050040E0,-1.990695000E1,3.118950129E0,2.022385033E1
6.166170610E-1,1.920000076E0,-1.944705009E1,3.273000240E0,1.981380045E1
6.185795760E-1,2.111999989E0,-1.902495003E1,3.463950157E0,1.945271750E1
6.205422090E-1,2.227050066E0,-1.841205025E1,3.541050196E0,1.888127069E1
6.225048070E-1,2.227050066E0,-1.776000023E1,3.618000269E0,1.826108666E1
6.244669300E-1,2.227050066E0,-1.710900116E1,3.733050108E0,1.765257306E1
6.264291930E-1,2.227050066E0,-1.649505043E1,3.579000235E0,1.702514856E1
6.283914630E-1,2.380050182E0,-1.591995049E1,3.502950191E0,1.647361898E1
6.303537300E-1,2.419050217E0,-1.526895046E1,3.426000118E0,1.583446017E1
6.323155440E-1,2.341950178E0,-1.461705112E1,3.234000206E0,1.515261270E1
6.342774630E-1,2.380050182E0,-1.400400066E1,3.043050051E0,1.452710663E1
6.362397010E-1,2.457000017E0,-1.346700096E1,2.965950251E0,1.400692061E1
6.382018460E-1,2.572050095E0,-1.289295101E1,3.081000090E0,1.350319181E1
6.401643170E-1,2.494950056E0,-1.216395092E1,2.965950251E0,1.276649281E1
6.421266920E-1,2.457000017E0,-1.158900070E1,2.889000177E0,1.219377334E1
6.440886880E-1,2.533950090E0,-1.109100056E1,2.773950100E0,1.171008094E1
6.460507850E-1,2.419050217E0,-1.044000053E1,2.545050144E0,1.101465820E1
6.480130820E-1,2.419050217E0,-9.903000832E0,2.545050144E0,1.050706951E1
6.499753210E-1,2.457000017E0,-9.289950371E0,2.430000067E0,9.911857914E0
6.519376410E-1,2.419050217E0,-8.715000153E0,2.122950077E0,9.290314776E0
6.538999370E-1,2.419050217E0,-8.101950645E0,2.085000038E0,8.708652787E0
6.558620530E-1,2.227050066E0,-7.411950588E0,1.855050087E0,7.958515838E0
6.578242320E-1,2.227050066E0,-6.721950531E0,1.585950017E0,7.256694040E0
6.597865610E-1,2.227050066E0,-6.184950352E0,1.510050058E0,6.744895405E0
6.617488460E-1,2.149950027E0,-5.457000256E0,1.432950020E0,6.037754771E0
6.637108430E-1,1.959000111E0,-4.843950272E0,1.240950108E0,5.370427621E0
6.656729250E-1,1.690050125E0,-4.192049980E0,1.011000037E0,4.631595140E0
6.676352100E-1,1.459950089E0,-3.616950274E0,8.200500607E-1,3.985757851E0
6.695974460E-1,1.269000053E0,-3.042000055E0,3.600000143E-1,3.315678736E0
6.715604870E-1,1.114950061E0,-2.506050110E0,2.070000172E-1,2.750681697E0
6.735232920E-1,8.850000501E-1,-2.046000004E0,1.500000060E-2,2.229252364E0
6.754846590E-1,6.940500140E-1,-1.624050021E0,-9.900000691E-2,1.768910652E0
6.774464480E-1,5.020500422E-1,-1.279050112E0,-1.369500011E-1,1.380861592E0
6.794087900E-1,2.719500065E-1,-7.810500264E-1,-6.105000153E-2,8.292906924E-1
6.813709760E-1,1.189500093E-1,-4.360500276E-1,1.500000060E-2,4.522319442E-1
6.833316830E-1,4.200000316E-2,-1.680000126E-1,1.680000126E-1,2.412716493E-1
6.852928240E-1,4.200000316E-2,-1.500000060E-2,3.220500052E-1,3.251233706E-1
6.872550150E-1,1.189500093E-1,2.530499995E-1,5.509500504E-1,6.178425082E-1
6.892168990E-1,3.109500110E-1,4.830000103E-1,8.200500607E-1,1.001229755E0
6.911799610E-1,5.410500169E-1,5.980500579E-1,1.087950110E0,1.354265275E0
6.931427060E-1,7.320000529E-1,7.129500508E-1,1.240950108E0,1.607507083E0
6.951048950E-1,1.000050068E0,8.280000687E-1,1.356000066E0,1.877343983E0
6.970672470E-1,1.269000053E0,8.280000687E-1,1.471050024E0,2.111855445E0
6.990295470E-1,1.384050012E0,8.280000687E-1,1.548000097E0,2.235505055E0
7.009918620E-1,1.537050128E0,8.659500480E-1,1.585950017E0,2.372262641E0
7.029541440E-1,1.651950121E0,9.430500269E-1,1.585950017E0,2.476594438E0
7.049164530E-1,1.843950033E0,9.810000658E-1,1.663050056E0,2.669877964E0
7.068789850E-1,1.920000076E0,9.430500269E-1,1.740000129E0,2.757416199E0
7.088414510E-1,1.959000111E0,9.810000658E-1,1.663050056E0,2.750595944E0
7.108035530E-1,2.074050188E0,1.018950105E0,1.624950051E0,2.824961268E0
7.127657610E-1,2.035050154E0,1.057950020E0,1.510050058E0,2.746076938E0
7.147280300E-1,1.996950150E0,1.096050024E0,1.510050058E0,2.733017880E0
7.166902880E-1,1.959000111E0,1.096050024E0,1.432950020E0,2.663147170E0
7.186528300E-1,1.959000111E0,1.096050024E0,1.432950020E0,2.663147170E0
7.206152880E-1,1.804950118E0,1.134000063E0,1.356000066E0,2.526368392E0
7.225775710E-1,1.804950118E0,1.249050021E0,1.240950108E0,2.521493219E0
7.245399060E-1,1.767000079E0,1.288050056E0,1.203000069E0,2.495710598E0
7.265023680E-1,1.767000079E0,1.288050056E0,1.126049995E0,2.459542807E0
7.284648070E-1,1.729050040E0,1.326000094E0,1.050000072E0,2.418758037E0
7.304270930E-1,1.729050040E0,1.326000094E0,8.580000401E-1,2.341805791E0
7.323894240E-1,1.729050040E0,1.402950048E0,7.050000429E-1,2.335574435E0
7.343524030E-1,1.843950033E0,1.441050053E0,5.130000114E-1,2.395818439E0
7.363151920E-1,1.767000079E0,1.441050053E0,2.449500114E-1,2.293232444E0
7.382774280E-1,1.843950033E0,1.518000126E0,5.295000225E-2,2.388991379E0
7.402398190E-1,1.920000076E0,1.479000092E0,-2.140500098E-1,2.433034930E0
7.422021570E-1,2.074050188E0,1.555950046E0,-4.060500264E-1,2.624412573E0
7.441645110E-1,2.188950062E0,1.555950046E0,-5.970000029E-1,2.751161922E0
7.461267660E-1,2.304000139E0,1.555950046E0,-8.659500480E-1,2.911918040E0
7.480890500E-1,2.380050182E0,1.518000126E0,-1.018950105E0,3.001203520E0
7.500514060E-1,2.533950090E0,1.518000126E0,-1.287000060E0,3.222048509E0
7.520137400E-1,2.610000134E0,1.518000126E0,-1.441050053E0,3.345601640E0
7.539760000E-1,2.725050211E0,1.555950046E0,-1.555950046E0,3.502550462E0
7.559382810E-1,2.802000046E0,1.555950046E0,-1.671000123E0,3.614474542E0
7.579004580E-1,2.917050123E0,1.518000126E0,-1.747050047E0,3.723666160E0
7.598626650E-1,2.955000162E0,1.441050053E0,-1.786050081E0,3.741473788E0
7.618251690E-1,3.070050240E0,1.441050053E0,-1.708950043E0,3.797676128E0
7.637875860E-1,3.147000074E0,1.402950048E0,-1.632000089E0,3.812519193E0
7.657498760E-1,3.223050117E0,1.288050056E0,-1.594050050E0,3.819439824E0
7.677122040E-1,3.184950113E0,1.326000094E0,-1.632000089E0,3.816491552E0
7.696745080E-1,3.300000191E0,1.249050021E0,-1.708950043E0,3.920540455E0
7.716368190E-1,3.376950264E0,1.173000097E0,-1.632000089E0,3.929776915E0
7.735990970E-1,3.415050268E0,1.096050024E0,-1.594050050E0,3.924906311E0
7.755614050E-1,3.492000103E0,1.018950105E0,-1.402050018E0,3.898469993E0
7.775235320E-1,3.492000103E0,1.018950105E0,-1.171950102E0,3.821752357E0
7.794857130E-1,3.529950142E0,9.430500269E-1,-1.018950105E0,3.793171585E0
7.814479970E-1,3.529950142E0,8.659500480E-1,-8.659500480E-1,3.736346742E0
7.834102500E-1,3.529950142E0,7.890000343E-1,-6.739500165E-1,3.679303967E0
7.853724180E-1,3.492000103E0,7.129500508E-1,-5.209500194E-1,3.601909413E0
7.873346210E-1,3.415050268E0,5.980500579E-1,-2.910000086E-1,3.479211579E0
7.892969010E-1,3.376950264E0,4.440000355E-1,-6.105000153E-2,3.406560761E0
7.912591580E-1,3.300000191E0,3.679500222E-1,1.300500035E-1,3.322995859E0
7.932204390E-1,3.108000040E0,3.289500177E-1,3.220500052E-1,3.141908428E0
7.951820060E-1,2.725050211E0,1.759500057E-1,4.360500276E-1,2.765320358E0
7.971444390E-1,2.419050217E0,9.900000691E-2,5.130000114E-1,2.474828068E0
7.991066190E-1,1.996950150E0,-1.500000060E-2,6.280500293E-1,2.093437780E0
8.010699850E-1,1.651950121E0,-1.290000081E-1,7.050000429E-1,1.800723539E0
8.030330040E-1,1.345050097E0,-1.290000081E-1,8.580000401E-1,1.600613893E0
8.049951910E-1,1.306950092E0,-1.680000126E-1,1.011000037E0,1.660862313E0
8.069576210E-1,1.269000053E0,-1.680000126E-1,1.126049995E0,1.704867658E0
8.089203120E-1,1.114950061E0,-2.440500110E-1,1.126049995E0,1.603328612E0
8.108829270E-1,9.619500637E-1,-2.059500068E-1,1.087950110E0,1.466764730E0
8.128450030E-1,8.089500666E-1,-2.440500110E-1,1.050000072E0,1.347761391E0
8.148072370E-1,6.550500393E-1,-2.830500007E-1,1.087950110E0,1.301093117E0
8.167687910E-1,5.410500169E-1,-2.440500110E-1,1.126049995E0,1.272903814E0
8.187305440E-1,4.639500082E-1,-2.830500007E-1,1.165050030E0,1.285577102E0
8.206927420E-1,4.260000288E-1,-3.210000098E-1,1.126049995E0,1.245995836E0
8.226548260E-1,3.490500152E-1,-3.210000098E-1,1.126049995E0,1.221828757E0
8.246168580E-1,3.490500152E-1,-2.830500007E-1,1.126049995E0,1.212411567E0
8.265789050E-1,3.109500110E-1,-2.440500110E-1,1.087950110E0,1.157534345E0
8.285410310E-1,3.870000243E-1,-2.440500110E-1,1.011000037E0,1.109707395E0
8.305031340E-1,3.109500110E-1,-2.440500110E-1,9.349500537E-1,1.015077298E0
8.324654630E-1,2.719500065E-1,-2.059500068E-1,9.730500579E-1,1.031115234E0
8.344277350E-1,2.719500065E-1,-1.680000126E-1,9.730500579E-1,1.024210538E0
8.363900490E-1,2.719500065E-1,-1.680000126E-1,1.011000037E0,1.060331026E0
8.383523510E-1,1.960500032E-1,-1.290000081E-1,8.959500194E-1,9.261765723E-1
8.403145250E-1,1.189500093E-1,-1.680000126E-1,8.959500194E-1,9.192929599E-1
8.422767370E-1,1.189500093E-1,-1.680000126E-1,8.200500607E-1,8.454911065E-1
8.442390000E-1,8.100000024E-2,-1.680000126E-1,8.959500194E-1,9.151565120E-1
8.462012590E-1,8.100000024E-2,-1.290000081E-1,8.580000401E-1,8.714161296E-1
8.481635750E-1,8.100000024E-2,-1.290000081E-1,8.580000401E-1,8.714161296E-1
8.501258740E-1,-3.299999982E-2,-1.290000081E-1,7.810500264E-1,7.923188410E-1
8.520885440E-1,-3.299999982E-2,-1.290000081E-1,7.050000429E-1,7.174643284E-1
8.540511050E-1,-7.200000435E-2,-9.105000645E-2,7.429500222E-1,7.519633235E-1
8.560132310E-1,-3.299999982E-2,-1.290000081E-1,6.280500293E-1,6.420100010E-1
8.579754880E-1,-1.480500102E-1,-1.290000081E-1,5.899500251E-1,6.217723375E-1
8.599377580E-1,-1.480500102E-1,-1.500000060E-2,4.750500321E-1,4.978115493E-1
8.619000240E-1,-1.870500147E-1,-9.105000645E-2,3.220500052E-1,3.833979884E-1
8.638623840E-1,-2.629500031E-1,-1.500000060E-2,2.449500114E-1,3.596779285E-1
8.658247160E-1,-3.019500077E-1,-1.500000060E-2,5.295000225E-2,3.069242739E-1
8.677873700E-1,-3.400500119E-1,-1.500000060E-2,-1.759500057E-1,3.831676070E-1
8.697499370E-1,-2.629500031E-1,-1.500000060E-2,-4.060500264E-1,4.839879421E-1
8.717121570E-1,-2.250000089E-1,-5.295000225E-2,-6.360000372E-1,6.767013773E-1
8.736744780E-1,-1.099500060E-1,-1.500000060E-2,-9.810000658E-1,9.872563664E-1
8.756369630E-1,8.100000024E-2,2.295000106E-2,-1.287000060E0,1.289750696E0
8.775993990E-1,2.719500065E-1,-1.500000060E-2,-1.594050050E0,1.617151003E0
8.795633410E-1,5.020500422E-1,2.295000106E-2,-1.900950074E0,1.966263495E0
8.815268170E-1,8.089500666E-1,-1.500000060E-2,-2.206950188E0,2.350585957E0
8.834886100E-1,1.114950061E0,6.105000153E-2,-2.590050220E0,2.820496567E0
8.854508960E-1,1.345050097E0,2.295000106E-2,-2.935050249E0,3.228653966E0
8.874137020E-1,1.575000048E0,2.295000106E-2,-3.280050039E0,3.638664606E0
8.893763560E-1,1.882050037E0,2.295000106E-2,-3.549000263E0,4.017218181E0
8.913393290E-1,2.227050066E0,-1.500000060E-2,-3.739950180E0,4.352838654E0
8.933022060E-1,2.533950090E0,-1.290000081E-1,-3.855000257E0,4.615037492E0
8.952644170E-1,2.802000046E0,-1.290000081E-1,-3.970050097E0,4.860981694E0
8.972268230E-1,3.031950235E0,-1.680000126E-1,-4.009050369E0,5.029257510E0
8.991892930E-1,3.184950113E0,-1.290000081E-1,-4.123950005E0,5.212246336E0
9.011517440E-1,3.415050268E0,-1.680000126E-1,-4.123950005E0,5.357028652E0
9.031140440E-1,3.607050180E0,-1.680000126E-1,-3.970050097E0,5.366594151E0
9.050763770E-1,3.721950293E0,-1.680000126E-1,-3.817050219E0,5.333948852E0
9.070386800E-1,3.837000132E0,-1.680000126E-1,-3.510000229E0,5.202969885E0
9.090009920E-1,3.952050209E0,-2.440500110E-1,-3.165000200E0,5.069071664E0
9.109634780E-1,4.027950287E0,-2.059500068E-1,-2.743950129E0,4.878120665E0
9.129259130E-1,4.027950287E0,-1.680000126E-1,-2.206950188E0,4.596002246E0
9.148880240E-1,3.990000248E0,-1.290000081E-1,-1.786050081E0,4.373410325E0
9.168502270E-1,3.952050209E0,-9.105000645E-2,-1.249050021E0,4.145734786E0
9.188116510E-1,3.913050175E0,-1.500000060E-2,-7.510500550E-1,3.984502837E0
9.207733040E-1,3.837000132E0,6.105000153E-2,-2.520000041E-1,3.845751047E0
9.227350020E-1,3.798000097E0,9.900000691E-2,2.830500007E-1,3.809819293E0
9.246966870E-1,3.645000219E0,2.140500098E-1,7.050000429E-1,3.718718740E0
9.266594340E-1,3.492000103E0,3.679500222E-1,1.279950023E0,3.737341836E0
9.286218890E-1,3.337950230E0,5.209500194E-1,1.585950017E0,3.732095673E0
9.305843970E-1,3.184950113E0,5.209500194E-1,2.085000038E0,3.842202663E0
9.325468890E-1,3.147000074E0,6.739500165E-1,2.545050144E0,4.103059630E0
9.345093010E-1,3.184950113E0,7.129500508E-1,2.889000177E0,4.358729978E0
9.364717370E-1,3.147000074E0,6.360000372E-1,3.118950129E0,4.476154088E0
9.384338920E-1,3.223050117E0,6.360000372E-1,3.349050045E0,4.691341419E0
9.403961260E-1,3.262050152E0,5.980500579E-1,3.541050196E0,4.851563826E0
9.423585800E-1,3.337950230E0,4.830000103E-1,3.579000235E0,4.917768135E0
9.443209700E-1,3.262050152E0,4.830000103E-1,3.502950191E0,4.810916778E0
9.462834440E-1,3.184950113E0,4.440000355E-1,3.426000118E0,4.698778572E0
9.482458930E-1,3.031950235E0,4.830000103E-1,3.234000206E0,4.459234079E0
9.502083830E-1,2.725050211E0,4.440000355E-1,3.081000090E0,4.137099979E0
9.521708740E-1,2.457000017E0,4.830000103E-1,2.812950134E0,3.766009367E0
9.541329710E-1,1.996950150E0,4.830000103E-1,2.467950106E0,3.211211085E0
9.560951840E-1,1.767000079E0,4.060500264E-1,1.893000126E0,2.621185873E0
9.580578220E-1,1.498950124E0,3.679500222E-1,1.318050027E0,2.029653804E0
9.600203360E-1,1.422000051E0,3.289500177E-1,5.899500251E-1,1.574272305E0
9.619840500E-1,1.498950124E0,9.900000691E-2,-2.910000086E-1,1.530141654E0
9.639474130E-1,1.422000051E0,-5.295000225E-2,-1.210950017E0,1.868498807E0
9.659097210E-1,1.498950124E0,-1.290000081E-1,-2.053950071E0,2.546017158E0
9.678723380E-1,1.575000048E0,-3.979500234E-1,-2.974050045E0,3.388799646E0
9.698345920E-1,1.690050125E0,-7.039500475E-1,-3.970050097E0,4.371854625E0
9.717969530E-1,1.843950033E0,-1.087950110E0,-5.005050182E0,5.443740855E0
9.737591270E-1,1.996950150E0,-1.548000097E0,-6.193050385E0,6.688646146E0
9.757213480E-1,2.074050188E0,-1.930950046E0,-7.305000305E0,7.835386507E0
9.776836240E-1,2.149950027E0,-2.467050076E0,-8.032950401E0,8.673921451E0
9.796458840E-1,2.188950062E0,-2.773950100E0,-8.224950790E0,8.951877850E0
9.816080210E-1,2.304000139E0,-3.196050167E0,-8.110050201E0,9.016433196E0
9.835701940E-1,2.304000139E0,-3.579000235E0,-7.726050377E0,8.820970114E0
9.855325140E-1,2.265000105E0,-3.924000263E0,-7.075050354E0,8.401448747E0
9.874947980E-1,2.074050188E0,-4.192049980E0,-5.809950352E0,7.458585007E0
9.894571550E-1,1.729050040E0,-4.306950092E0,-3.931950092E0,6.082734966E0
9.914194900E-1,1.384050012E0,-4.306950092E0,-1.824000120E0,4.877744353E0
9.933810730E-1,1.230000019E0,-4.231050014E0,9.195000678E-2,4.407169055E0
9.953428760E-1,1.077000022E0,-4.077000141E0,1.663050056E0,4.532945476E0
9.973056410E-1,8.089500666E-1,-3.961950302E0,2.812950134E0,4.925864276E0
9.992681160E-1,7.699500322E-1,-4.116000175E0,3.426000118E0,5.410338003E0
1.001230036E0,6.940500140E-1,-4.384050369E0,3.924000263E0,5.924473068E0
1.003192118E0,6.169500351E-1,-5.035050392E0,4.192950249E0,6.581275833E0
1.005153879E0,2.340000123E-1,-6.339000225E0,4.308000088E0,7.667890493E0
1.007115734E0,-1.870500147E-1,-8.101950645E0,4.614000320E0,9.325534351E0
1.009078298E0,-8.380500674E-1,-1.017105007E1,5.035950184E0,1.138039462E1
1.011040655E0,-2.218050003E0,-1.258605099E1,5.266050339E0,1.382243508E1
1.013002955E0,-3.675000191E0,-1.557600117E1,5.304000378E0,1.685971111E1
1.014965272E0,-5.782950401E0,-1.944705009E1,4.959000111E0,2.088592720E1
1.016928118E0,-7.660950184E0,-2.496600151E1,4.537950039E0,2.650630830E1
1.018890809E0,-9.883950233E0,-3.094500160E1,4.576050282E0,3.280588107E1
1.020853121E0,-1.191495037E1,-3.730695343E1,6.301050186E0,3.966709026E1
1.022815527E0,-1.272000027E1,-4.386105347E1,7.450050354E0,4.627195337E1
1.024777818E0,-1.264305019E1,-5.049195099E1,8.293950081E0,5.270743250E1
1.026740142E0,-1.237500095E1,-5.635605240E1,9.405000687E0,5.846023716E1
1.028702447E0,-1.187700081E1,-6.106995392E1,1.040205002E1,6.307776997E1
1.030664758E0,-1.007505035E1,-6.509505463E1,1.193505096E1,6.694264872E1
1.032627194E0,-6.319050312E0,-6.758595276E1,1.320000076E1,6.915223371E1
1.034589597E0,-9.529500604E-1,-6.873600006E1,1.354500103E1,7.006434807E1
1.036552429E0,4.603050232E0,-6.931095123E1,1.304595089E1,7.067809326E1
1.038515135E0,1.000695038E1,-6.957900238E1,1.174305058E1,7.126903861E1
1.040477376E0,1.487505054E1,-6.938700104E1,9.022050858E0,7.153474990E1
1.042439753E0,1.970400047E1,-6.888899994E1,4.843950272E0,7.181508060E1
1.044402963E0,2.530005074E1,-6.789300537E1,-4.237950325E0,7.257763408E1
1.046365919E0,3.269700241E1,-6.658995056E1,-2.309595108E1,7.769645062E1
1.048327981E0,3.802500153E1,-6.390705490E1,-3.317595291E1,8.142884169E1
1.050290305E0,3.971100235E1,-5.942205429E1,-3.647205353E1,8.023811396E1
1.052252610E0,3.906000137E1,-5.394105148E1,-3.574394989E1,7.558406377E1
1.054214921E0,3.518895340E1,-4.784700394E1,-2.769495201E1,6.553326326E1
1.056177243E0,3.039795113E1,-4.240500259E1,-1.842000008E1,5.533096855E1
1.058139551E0,2.422695160E1,-3.753705215E1,-9.643050194E0,4.570518445E1
1.060101273E0,1.759605026E1,-3.378105164E1,-2.820000172E0,3.819336114E1
1.062063166E0,1.108095074E1,-3.079200172E1,1.510050058E0,3.275996170E1
1.064025364E0,5.293050289E0,-2.860695076E1,4.116000175E0,2.938223052E1
1.065987472E0,8.089500666E-1,-2.676705170E1,5.419050217E0,2.732207097E1
1.067949079E0,-2.448000193E0,-2.519595146E1,5.725950241E0,2.595409758E1
1.069910844E0,-5.053950310E0,-2.362395096E1,5.725950241E0,2.482780656E1
1.071873424E0,-6.817050457E0,-2.232105064E1,5.151000023E0,2.390050794E1
1.073835765E0,-7.660950184E0,-2.136300087E1,4.498950005E0,2.313673519E1
1.075798112E0,-7.776000500E0,-2.063505173E1,4.269000053E0,2.246098629E1
1.077760457E0,-7.431000233E0,-2.025105095E1,3.694050074E0,2.188540233E1
1.079722893E0,-7.162050247E0,-2.029005051E1,3.004050255E0,2.172568598E1
1.081685303E0,-6.817050457E0,-2.067300034E1,2.314950228E0,2.189073124E1
1.083647459E0,-6.319050312E0,-2.132505035E1,1.624950051E0,2.230086617E1
1.085609690E0,-5.553000450E0,-2.216805077E1,1.395000100E0,2.289550860E1
1.087572190E0,-4.633050442E0,-2.312595177E1,1.279950023E0,2.362018361E1
1.089534611E0,-4.096050262E0,-2.393100166E1,1.471050024E0,2.432353709E1
1.091496862E0,-3.636000156E0,-2.458200073E1,1.740000129E0,2.491029622E1
1.093459190E0,-3.253050089E0,-2.500395203E1,2.046000004E0,2.529755063E1
1.095421314E0,-2.830950022E0,-2.523405075E1,2.391000032E0,2.550467558E1
1.097383498E0,-2.485950232E0,-2.527200127E1,2.620950222E0,2.552887339E1
1.099346502E0,-2.256000042E0,-2.511900139E1,2.545050144E0,2.534819613E1
1.101309265E0,-1.795950055E0,-2.500395203E1,2.583000183E0,2.520109012E1
1.103271880E0,-1.567050099E0,-2.473605156E1,2.430000067E0,2.490447336E1
1.105234522E0,-1.452000022E0,-2.458200073E1,2.008050203E0,2.470658474E1
1.107196952E0,-1.260000110E0,-2.442900085E1,1.740000129E0,2.452328044E1
1.109159445E0,-9.529500604E-1,-2.423805046E1,1.510050058E0,2.430373336E1
1.111121945E0,-5.700000525E-1,-2.416095161E1,1.318050027E0,2.420358938E1
1.113084443E0,-3.019500077E-1,-2.408400154E1,1.087950110E0,2.411045291E1
1.115047633E0,1.570500135E-1,-2.408400154E1,8.580000401E-1,2.409979168E1
1.117010611E0,6.550500393E-1,-2.412300110E1,7.050000429E-1,2.414218916E1
1.118973165E0,1.269000053E0,-2.412300110E1,8.200500607E-1,2.417027152E1
1.120935844E0,1.804950118E0,-2.404605103E1,1.011000037E0,2.413488214E1
1.122898627E0,2.304000139E0,-2.396895027E1,1.050000072E0,2.410231304E1
1.124861380E0,2.802000046E0,-2.381595039E1,1.395000100E0,2.402075608E1
1.126823558E0,3.223050117E0,-2.362395096E1,1.510050058E0,2.389057057E1
1.128785911E0,3.607050180E0,-2.331795120E1,1.740000129E0,2.365935882E1
1.130747850E0,3.874950171E0,-2.301105118E1,2.046000004E0,2.342455616E1
1.132709911E0,3.837000132E0,-2.255100060E1,2.161050081E0,2.297695226E1
1.134672260E0,3.952050209E0,-2.216805077E1,2.200050116E0,2.262479605E1
1.136634524E0,3.952050209E0,-2.186100197E1,2.391000032E0,2.234365657E1
1.138596904E0,3.952050209E0,-2.147805023E1,2.545050144E0,2.198641905E1
1.140559236E0,4.066950321E0,-2.109495163E1,2.773950100E0,2.166176051E1
1.142521496E0,3.874950171E0,-2.048100090E1,3.004050255E0,2.105969978E1
1.144483777E0,3.798000097E0,-2.009805107E1,2.928000212E0,2.066227594E1
1.146446088E0,3.607050180E0,-1.960005188E1,3.118950129E0,2.017177966E1
1.148408390E0,3.529950142E0,-1.910205078E1,3.349050045E0,1.971205287E1
1.150370874E0,3.568050146E0,-1.871805000E1,3.808950186E0,1.943204774E1
1.152333308E0,3.721950293E0,-1.833495140E1,4.039050102E0,1.913993946E1
1.154295641E0,3.760050297E0,-1.791300011E1,4.153950214E0,1.876882664E1
1.156258003E0,3.798000097E0,-1.749195099E1,4.192950249E0,1.838406881E1
1.158220435E0,3.721950293E0,-1.703205109E1,3.963000298E0,1.787873177E1
1.160182847E0,3.682950258E0,-1.660995102E1,3.924000263E0,1.746002215E1
1.162145548E0,3.837000132E0,-1.618905067E1,3.847950220E0,1.707672839E1
1.164108160E0,4.066950321E0,-1.565205097E1,3.924000263E0,1.664105053E1
1.166070597E0,4.105050087E0,-1.511595058E1,3.886050224E0,1.613830179E1
1.168033085E0,4.027950287E0,-1.442595100E1,3.808950186E0,1.545446691E1
1.169995542E0,4.182000160E0,-1.392705059E1,3.426000118E0,1.493952276E1
1.171958008E0,4.066950321E0,-1.331400108E1,3.118950129E0,1.426641369E1
1.173920312E0,4.066950321E0,-1.266300106E1,2.773950100E0,1.358626070E1
1.175882647E0,3.952050209E0,-1.204905033E1,2.161050081E0,1.286345413E1
1.177845084E0,3.952050209E0,-1.139805031E1,1.777950048E0,1.219407061E1
1.179807491E0,3.721950293E0,-1.063095093E1,1.471050024E0,1.135931423E1
1.181769603E0,3.645000219E0,-1.001805019E1,1.356000066E0,1.074644557E1
1.183731801E0,3.682950258E0,-9.442950249E0,1.203000069E0,1.020689185E1
1.185694115E0,3.607050180E0,-8.752950668E0,1.126049995E0,9.533779156E0
1.187656403E0,3.529950142E0,-8.140049934E0,1.011000037E0,8.929898208E0
1.189618400E0,3.376950264E0,-7.450050354E0,7.810500264E-1,8.216877905E0
1.191580482E0,3.337950230E0,-6.798000336E0,5.509500504E-1,7.593304041E0
1.193543504E0,3.223050117E0,-6.184950352E0,4.750500321E-1,6.990517538E0
1.195506250E0,2.955000162E0,-5.494950294E0,2.070000172E-1,6.242543849E0
1.197468678E0,2.725050211E0,-4.843950272E0,-2.205000073E-2,5.557898802E0
1.199431189E0,2.533950090E0,-4.269000053E0,-2.910000086E-1,4.972921226E0
1.201393642E0,2.341950178E0,-3.732000113E0,-4.440000355E-1,4.428283133E0
1.203356112E0,2.074050188E0,-3.234000206E0,-5.209500194E-1,3.877090460E0
1.205318437E0,1.959000111E0,-2.773950100E0,-4.819500148E-1,3.429979068E0
1.207280804E0,1.767000079E0,-2.238000154E0,-5.209500194E-1,2.898676059E0
1.209243267E0,1.767000079E0,-1.854000092E0,-6.360000372E-1,2.638958444E0
1.211205711E0,1.651950121E0,-1.393950105E0,-7.890000343E-1,2.300990472E0
1.213167816E0,1.498950124E0,-1.048950076E0,-1.018950105E0,2.094136350E0
1.215130021E0,1.384050012E0,-7.039500475E-1,-1.210950017E0,1.969147036E0
1.217092480E0,1.345050097E0,-4.360500276E-1,-1.479000092E0,2.046152648E0
1.219054865E0,1.422000051E0,-2.440500110E-1,-1.594050050E0,2.150032584E0
1.221016459E0,1.384050012E0,-9.105000645E-2,-1.708950043E0,2.200998589E0
1.222978271E0,1.459950089E0,-1.500000060E-2,-2.014950037E0,2.488313267E0
1.224940302E0,1.384050012E0,1.759500057E-1,-2.284050226E0,2.676460027E0
1.226902269E0,1.422000051E0,3.679500222E-1,-2.475000143E0,2.878037017E0
1.228864455E0,1.422000051E0,5.209500194E-1,-2.590050220E0,3.000305520E0
1.230826576E0,1.459950089E0,7.129500508E-1,-2.782050133E0,3.221731674E0
1.232788906E0,1.422000051E0,7.890000343E-1,-3.012000084E0,3.422973810E0
1.234751182E0,1.422000051E0,9.810000658E-1,-3.204000235E0,3.640063568E0
1.236713540E0,1.384050012E0,1.057950020E0,-3.280050039E0,3.713971047E0
1.238675874E0,1.384050012E0,1.096050024E0,-3.280050039E0,3.725003134E0
1.240638493E0,1.306950092E0,1.210950017E0,-3.280050039E0,3.732726450E0
1.242601028E0,1.306950092E0,1.249050021E0,-3.127050161E0,3.612019824E0
1.244563343E0,1.306950092E0,1.288050056E0,-3.088950157E0,3.592882487E0
1.246525722E0,1.269000053E0,1.363950014E0,-2.974050045E0,3.509372372E0
1.248488332E0,1.306950092E0,1.363950014E0,-2.859000206E0,3.426712763E0
1.250450874E0,1.269000053E0,1.402950048E0,-2.859000206E0,3.428193716E0
1.252413368E0,1.269000053E0,1.441050053E0,-2.820000172E0,3.411654636E0
1.254375876E0,1.306950092E0,1.441050053E0,-2.704950094E0,3.331891176E0
1.256338479E0,1.306950092E0,1.479000092E0,-2.590050220E0,3.256366067E0
1.258301043E0,1.269000053E0,1.479000092E0,-2.475000143E0,3.150147316E0
1.260263667E0,1.269000053E0,1.441050053E0,-2.206950188E0,2.925340240E0
1.262226274E0,1.230000019E0,1.479000092E0,-2.014950037E0,2.785743163E0
1.264188712E0,1.306950092E0,1.441050053E0,-1.861950040E0,2.692879824E0
1.266151199E0,1.306950092E0,1.441050053E0,-1.747050047E0,2.614751932E0
1.268113359E0,1.306950092E0,1.518000126E0,-1.516950130E0,2.512683948E0
1.270075602E0,1.345050097E0,1.555950046E0,-1.363950014E0,2.467893828E0
1.272037696E0,1.345050097E0,1.555950046E0,-1.210950017E0,2.386742602E0
1.273999833E0,1.459950089E0,1.633050084E0,-9.810000658E-1,2.400139156E0
1.275961989E0,1.459950089E0,1.633050084E0,-7.120500207E-1,2.303328477E0
1.277924139E0,1.575000048E0,1.671000123E0,-3.289500177E-1,2.319714352E0
1.279886512E0,1.690050125E0,1.671000123E0,-1.369500011E-1,2.380602054E0
1.281848792E0,1.767000079E0,1.708950043E0,-2.205000073E-2,2.458309527E0
1.283811105E0,1.920000076E0,1.708950043E0,-2.205000073E-2,2.570485702E0
1.285773408E0,2.035050154E0,1.708950043E0,-2.205000073E-2,2.657522451E0
1.287735942E0,2.111999989E0,1.708950043E0,5.295000225E-2,2.717325506E0
1.289698408E0,2.265000105E0,1.633050084E0,1.680000126E-1,2.797374136E0
1.291660665E0,2.419050217E0,1.708950043E0,1.680000126E-1,2.966570108E0
1.293623001E0,2.533950090E0,1.708950043E0,2.070000172E-1,3.063374335E0
1.295584538E0,2.649000168E0,1.747950077E0,2.449500114E-1,3.183163814E0
1.297546309E0,2.878050089E0,1.633050084E0,3.600000143E-1,3.328607051E0
1.299508753E0,3.108000040E0,1.671000123E0,5.130000114E-1,3.565820336E0
1.301470999E0,3.223050117E0,1.633050084E0,5.899500251E-1,3.661003369E0
1.303433114E0,3.376950264E0,1.671000123E0,8.580000401E-1,3.864220305E0
1.305395285E0,3.492000103E0,1.671000123E0,9.730500579E-1,3.991632817E0
1.307357795E0,3.607050180E0,1.633050084E0,1.126049995E0,4.116509708E0
1.309320206E0,3.682950258E0,1.594050050E0,1.318050027E0,4.224023442E0
1.311282317E0,3.760050297E0,1.518000126E0,1.471050024E0,4.313500990E0
1.313244516E0,3.760050297E0,1.441050053E0,1.510050058E0,4.300564459E0
1.315206811E0,3.760050297E0,1.326000094E0,1.740000129E0,4.350155737E0
1.317169067E0,3.682950258E0,1.288050056E0,1.969950080E0,4.370800712E0
1.319131429E0,3.607050180E0,1.249050021E0,2.085000038E0,4.349501364E0
1.321093759E0,3.492000103E0,1.173000097E0,2.275950193E0,4.330120464E0
1.323056244E0,3.337950230E0,1.134000063E0,2.353049994E0,4.238479934E0
1.325018683E0,3.070050240E0,1.134000063E0,2.391000032E0,4.053152572E0
1.326980789E0,2.764050245E0,1.057950020E0,2.353049994E0,3.781015244E0
1.328942992E0,2.533950090E0,1.018950105E0,2.275950193E0,3.555152832E0
1.330905317E0,2.304000139E0,1.018950105E0,2.161050081E0,3.319158540E0
1.332867606E0,1.959000111E0,9.430500269E-1,2.046000004E0,2.985488369E0
1.334830097E0,1.614000082E0,8.280000687E-1,1.930950046E0,2.649367558E0
1.336792529E0,1.422000051E0,7.510500550E-1,1.777950048E0,2.397345762E0
1.338755000E0,1.269000053E0,6.360000372E-1,1.585950017E0,2.128401898E0
1.340717456E0,1.153950095E0,5.590500236E-1,1.585950017E0,2.039454635E0
1.342679919E0,1.039050102E0,5.590500236E-1,1.471050024E0,1.885775760E0
1.344642379E0,9.619500637E-1,5.209500194E-1,1.432950020E0,1.802798549E0
1.346605021E0,8.470500112E-1,4.830000103E-1,1.356000066E0,1.670185292E0
1.348567610E0,8.470500112E-1,4.440000355E-1,1.165050030E0,1.507305982E0
1.350530181E0,7.699500322E-1,4.440000355E-1,1.165050030E0,1.465367072E0
1.352492761E0,6.940500140E-1,4.830000103E-1,1.050000072E0,1.348144867E0
1.354454886E0,6.550500393E-1,4.060500264E-1,9.730500579E-1,1.241287071E0
1.356417145E0,6.550500393E-1,4.440000355E-1,8.959500194E-1,1.195388231E0
1.358379595E0,6.169500351E-1,4.440000355E-1,7.810500264E-1,1.089863533E0
1.360341989E0,6.169500351E-1,3.679500222E-1,7.050000429E-1,1.006498696E0
1.362303349E0,6.169500351E-1,3.679500222E-1,6.280500293E-1,9.541810121E-1
1.364265035E0,5.410500169E-1,2.910000086E-1,6.660000086E-1,9.060751278E-1
1.366227313E0,5.410500169E-1,2.910000086E-1,5.509500504E-1,8.252042679E-1
1.368189418E0,5.410500169E-1,2.140500098E-1,5.130000114E-1,7.757071221E-1
1.370151401E0,5.020500422E-1,2.530499995E-1,4.360500276E-1,7.114971354E-1
1.372113420E0,4.639500082E-1,2.140500098E-1,3.979500234E-1,6.476351117E-1
1.374075561E0,3.870000243E-1,1.759500057E-1,4.750500321E-1,6.374950638E-1
1.376037659E0,3.870000243E-1,1.759500057E-1,4.750500321E-1,6.374950638E-1
1.378000003E0,3.870000243E-1,1.759500057E-1,4.750500321E-1,6.374950638E-1
1.379962274E0,3.109500110E-1,1.380000114E-1,3.979500234E-1,5.235438221E-1
1.381924633E0,3.490500152E-1,1.380000114E-1,3.600000143E-1,5.200768468E-1
1.383886966E0,3.490500152E-1,6.105000153E-2,3.220500052E-1,4.788310993E-1
1.385849640E0,3.490500152E-1,9.900000691E-2,3.220500052E-1,4.851320648E-1
1.387812207E0,3.490500152E-1,-1.500000060E-2,2.830500007E-1,4.496423201E-1
1.389773886E0,3.490500152E-1,-9.105000645E-2,3.220500052E-1,4.835723551E-1
1.391735825E0,3.109500110E-1,-1.500000060E-2,3.220500052E-1,4.479186480E-1
1.393698555E0,3.109500110E-1,-5.295000225E-2,3.979500234E-1,5.077970394E-1
1.395661053E0,3.109500110E-1,-5.295000225E-2,3.600000143E-1,4.786372555E-1
1.397622988E0,2.719500065E-1,-9.105000645E-2,4.360500276E-1,5.219066356E-1
1.399585074E0,2.719500065E-1,-5.295000225E-2,4.360500276E-1,5.166237851E-1
1.401547419E0,1.960500032E-1,-5.295000225E-2,3.979500234E-1,4.467701060E-1
1.403509688E0,1.570500135E-1,-5.295000225E-2,4.750500321E-1,5.031311385E-1
1.405471463E0,1.189500093E-1,-5.295000225E-2,5.130000114E-1,5.292653580E-1
1.407433382E0,1.189500093E-1,-1.500000060E-2,5.130000114E-1,5.268236104E-1
1.409396312E0,1.189500093E-1,-5.295000225E-2,5.509500504E-1,5.661261038E-1
1.411358966E0,1.189500093E-1,-9.105000645E-2,5.509500504E-1,5.709511068E-1
1.413321171E0,1.960500032E-1,-1.290000081E-1,6.660000086E-1,7.061392336E-1
1.415283507E0,2.719500065E-1,-1.290000081E-1,7.050000429E-1,7.665656323E-1
1.417245854E0,4.260000288E-1,-1.290000081E-1,7.810500264E-1,8.989750666E-1
1.419208197E0,5.020500422E-1,-1.680000126E-1,9.730500579E-1,1.107747563E0
1.421171193E0,6.550500393E-1,-1.680000126E-1,1.011000037E0,1.216320531E0
1.423133985E0,7.699500322E-1,-2.059500068E-1,1.165050030E0,1.411587769E0
1.425096031E0,8.850000501E-1,-2.059500068E-1,1.203000069E0,1.507597313E0
1.427058295E0,9.240000248E-1,-2.059500068E-1,1.203000069E0,1.530816977E0
1.429020250E0,1.000050068E0,-2.059500068E-1,1.240950108E0,1.607007378E0
1.430982295E0,1.192050099E0,-2.059500068E-1,1.318050027E0,1.789037372E0
1.432944652E0,1.192050099E0,-2.059500068E-1,1.318050027E0,1.789037372E0
1.434906914E0,1.192050099E0,-2.059500068E-1,1.318050027E0,1.789037372E0
1.436869050E0,1.269000053E0,-2.440500110E-1,1.318050027E0,1.845854116E0
1.438831223E0,1.269000053E0,-2.830500007E-1,1.240950108E0,1.797341261E0
1.440793418E0,1.269000053E0,-2.440500110E-1,1.165050030E0,1.739903191E0
1.442755606E0,1.306950092E0,-2.440500110E-1,1.011000037E0,1.670269447E0
1.444717939E0,1.306950092E0,-2.440500110E-1,6.280500293E-1,1.470416877E0
1.446680226E0,1.306950092E0,-2.830500007E-1,3.600000143E-1,1.384859508E0
1.448643439E0,1.345050097E0,-3.210000098E-1,5.295000225E-2,1.383836866E0
1.450606380E0,1.422000051E0,-3.210000098E-1,-2.910000086E-1,1.486541676E0
1.452568535E0,1.459950089E0,-3.589500189E-1,-8.269500136E-1,1.715851306E0
1.454530921E0,1.690050125E0,-3.979500234E-1,-1.363950014E0,2.207938697E0
1.456493215E0,1.843950033E0,-4.360500276E-1,-1.671000123E0,2.526367503E0
1.458455536E0,2.035050154E0,-5.130000114E-1,-2.053950071E0,2.936547128E0
1.460418021E0,2.227050066E0,-5.509500504E-1,-2.206950188E0,3.183382962E0
1.462380457E0,2.380050182E0,-6.280500293E-1,-2.130000114E0,3.255147646E0
1.464342968E0,2.341950178E0,-6.660000086E-1,-1.861950040E0,3.065150013E0
1.466305457E0,2.341950178E0,-6.660000086E-1,-1.555950046E0,2.889509853E0
1.468267915E0,2.341950178E0,-7.039500475E-1,-1.249050021E0,2.745979290E0
1.470230382E0,2.265000105E0,-6.660000086E-1,-9.420000315E-1,2.541878350E0
1.472192618E0,2.304000139E0,-5.890500546E-1,-7.120500207E-1,2.482420561E0
1.474154921E0,2.265000105E0,-5.890500546E-1,-5.209500194E-1,2.397622649E0
1.476117049E0,2.188950062E0,-6.280500293E-1,-4.440000355E-1,2.320147677E0
1.478079228E0,2.265000105E0,-6.280500293E-1,-3.670500219E-1,2.378948935E0
1.480041615E0,2.188950062E0,-6.280500293E-1,-5.590500236E-1,2.344885102E0
1.482003932E0,2.227050066E0,-6.660000086E-1,-7.510500550E-1,2.442822997E0
1.483966418E0,2.341950178E0,-7.429500222E-1,-1.018950105E0,2.659880578E0
1.485928855E0,2.419050217E0,-6.660000086E-1,-1.594050050E0,2.972600801E0
1.487891277E0,2.419050217E0,-7.039500475E-1,-2.437050104E0,3.505219370E0
1.489853703E0,2.649000168E0,-8.190000653E-1,-3.931950092E0,4.811257063E0
1.491815870E0,2.992950201E0,-9.730500579E-1,-5.887050152E0,6.675472778E0
1.493778103E0,3.492000103E0,-1.203000069E0,-7.956000328E0,8.771500163E0
1.495740422E0,3.990000248E0,-1.432950020E0,-1.010295010E1,1.095641585E1
1.497702716E0,4.335000038E0,-1.777950048E0,-1.148205090E1,1.240124286E1
1.499665161E0,4.182000160E0,-1.969050050E0,-1.056300068E1,1.153010264E1
1.501627562E0,3.990000248E0,-2.008050203E0,-8.722949982E0,9.800113468E0
1.503589680E0,3.529950142E0,-2.008050203E0,-7.075050354E0,8.157766308E0
1.505551877E0,2.992950201E0,-2.083950043E0,-5.809950352E0,6.859746480E0
1.507513843E0,2.649000168E0,-2.314050198E0,-4.813050270E0,5.961332327E0
1.509475877E0,2.419050217E0,-2.544000149E0,-4.315050125E0,5.562679057E0
1.511437915E0,2.188950062E0,-2.851050138E0,-4.009050369E0,5.384466002E0
1.513399952E0,1.843950033E0,-3.310950041E0,-3.702000141E0,5.297862488E0
1.515362062E0,1.498950124E0,-3.655950069E0,-3.394950151E0,5.209463400E0
1.517324164E0,1.269000053E0,-3.886050224E0,-2.704950094E0,4.901887646E0
1.519285426E0,1.000050068E0,-3.961950302E0,-1.479000092E0,4.345640529E0
1.521246935E0,5.410500169E-1,-3.847050190E0,-2.205000073E-2,3.884973164E0
1.523208523E0,2.719500065E-1,-3.655950069E0,1.432950020E0,3.936149575E0
1.525170087E0,8.100000024E-2,-3.463950157E0,2.620950222E0,4.344524342E0
1.527132481E0,-1.480500102E-1,-3.196050167E0,3.618000269E0,4.829759976E0
1.529094629E0,-1.870500147E-1,-2.965950251E0,4.116000175E0,5.076741676E0
1.531056965E0,-2.629500031E-1,-2.851050138E0,4.461000443E0,5.300769241E0
1.533019245E0,-2.629500031E-1,-2.773950100E0,4.690950394E0,5.456093608E0
1.534981557E0,-1.870500147E-1,-2.697000027E0,4.806000233E0,5.514203033E0
1.536943860E0,-1.480500102E-1,-2.659050226E0,4.768050194E0,5.461388977E0
1.538906154E0,-7.200000435E-2,-2.659050226E0,4.882050037E0,5.559689261E0
1.540868461E0,-3.299999982E-2,-2.620950222E0,5.112000465E0,5.744825308E0
1.542830590E0,-3.299999982E-2,-2.697000027E0,5.419050217E0,6.053181262E0
1.544792771E0,-1.099500060E-1,-2.812050104E0,5.802000046E0,6.448481939E0
1.546755280E0,-1.480500102E-1,-3.042000055E0,6.070950508E0,6.792063252E0
1.548717692E0,-3.019500077E-1,-3.387000084E0,5.878950119E0,6.791538697E0
1.550680002E0,-2.250000089E-1,-4.345950127E0,5.917050362E0,7.345025016E0
1.552642328E0,-6.850500107E-1,-7.603050232E0,6.186000347E0,9.825592432E0
1.554604498E0,-1.681950092E0,-1.212600040E1,5.956050396E0,1.361408749E1
1.556566713E0,-4.326000214E0,-1.691700172E1,5.956050396E0,1.844922116E1
1.558528991E0,-6.931950092E0,-2.308800125E1,5.802000046E0,2.479457478E1
1.560491250E0,-8.964000702E0,-3.121305084E1,5.419050217E0,3.292375976E1
1.562453617E0,-1.095705032E1,-3.968400192E1,7.258950233E0,4.180393904E1
1.564415948E0,-1.241295052E1,-4.777095413E1,9.367050171E0,5.023830240E1
1.566378028E0,-1.268205070E1,-5.589600372E1,1.047795010E1,5.826650050E1
1.568340181E0,-1.264305019E1,-6.363795471E1,1.262505054E1,6.609862252E1
1.570302514E0,-1.095705032E1,-7.076700592E1,1.438800049E1,7.304136251E1
1.572264794E0,-7.852050304E0,-7.701495361E1,1.507800102E1,7.886890318E1
1.574228209E0,-2.524950027E0,-7.850895691E1,1.431105042E1,7.984258169E1
1.576191309E0,4.795050144E0,-7.850895691E1,5.649000168E0,7.885784694E1
1.578153842E0,1.679100037E1,-7.850895691E1,-2.190795135E1,8.321990351E1
1.580116541E0,2.767605209E1,-7.850895691E1,-4.252800369E1,9.347861398E1
1.582078737E0,3.538005066E1,-7.850895691E1,-4.593900299E1,9.760018594E1
1.584041080E0,3.932805252E1,-7.850895691E1,-4.279605103E1,9.768241404E1
1.586003401E0,3.990300369E1,-7.850895691E1,-3.087600136E1,9.332327405E1
1.587965746E0,3.790995026E1,-7.839405060E1,-1.704000092E1,8.873079020E1
1.589927102E0,3.388605118E1,-7.099695587E1,-5.197050095E0,7.884060843E1
1.591888748E0,2.836605072E1,-5.873205185E1,4.000950336E0,6.534595895E1
1.593850988E0,2.242605019E1,-4.861395264E1,9.098999977E0,5.430502664E1
1.595813054E0,1.594800091E1,-4.010505295E1,1.024800014E1,4.435961578E1
1.597775301E0,1.046700096E1,-3.336000061E1,8.101950645E0,3.588996175E1
1.599737471E0,5.791050434E0,-2.810895157E1,4.921050072E0,2.911814138E1
1.601699038E0,1.843950033E0,-2.370105171E1,2.545050144E0,2.390851907E1
1.603660781E0,-1.452000022E0,-1.990695000E1,1.777950048E0,2.003886396E1
1.605623950E0,-3.483000278E0,-1.707000160E1,1.087950110E0,1.745565470E1
1.607586702E0,-4.939050198E0,-1.519200039E1,2.070000172E-1,1.597604274E1
1.609549066E0,-5.476050377E0,-1.423395061E1,-7.120500207E-1,1.526759618E1
1.611511546E0,-4.671000004E0,-1.392705059E1,-1.287000060E0,1.474575696E1
1.613473644E0,-3.520950079E0,-1.404195023E1,-1.441050053E0,1.454819854E1
1.615435854E0,-2.026050091E0,-1.434900093E1,-6.739500165E-1,1.450699539E1
1.617398043E0,-3.400500119E-1,-1.503900051E1,1.300500035E-1,1.504340664E1
1.619360239E0,1.077000022E0,-1.603499985E1,1.165050030E0,1.611330167E1
1.621322531E0,1.843950033E0,-1.691700172E1,2.238000154E0,1.716373339E1
1.623284818E0,2.649000168E0,-1.768395042E1,3.043050051E0,1.813834221E1
1.625247086E0,3.108000040E0,-1.833495140E1,3.541050196E0,1.893064034E1
1.627209359E0,3.223050117E0,-1.883295059E1,3.808950186E0,1.948271494E1
1.629171671E0,2.992950201E0,-1.910205078E1,4.000950336E0,1.974471318E1
1.631133972E0,2.686950207E0,-1.929300117E1,3.886050224E0,1.986305571E1
1.633095948E0,2.419050217E0,-1.952295113E1,3.808950186E0,2.003760280E1
1.635058032E0,1.882050037E0,-1.967700005E1,3.733050108E0,2.011621501E1
1.637020018E0,1.614000082E0,-1.983000183E1,3.463950157E0,2.019487360E1
1.638982032E0,1.459950089E0,-2.021295166E1,3.043050051E0,2.049280417E1
1.640944344E0,1.459950089E0,-2.063505173E1,2.698050022E0,2.086183808E1
1.642906568E0,1.306950092E0,-2.105595016E1,2.430000067E0,2.123596139E1
1.644868936E0,1.192050099E0,-2.143995094E1,2.085000038E0,2.157405166E1
1.646831261E0,1.230000019E0,-2.186100197E1,1.701000094E0,2.196155068E1
1.648793206E0,1.192050099E0,-2.209095192E1,1.471050024E0,2.217194462E1
1.650755263E0,1.230000019E0,-2.216805077E1,1.432950020E0,2.224834197E1
1.652717567E0,1.269000053E0,-2.224500084E1,1.050000072E0,2.230589437E1
1.654679799E0,1.269000053E0,-2.228295135E1,7.050000429E-1,2.233018825E1
1.656642881E0,1.306950092E0,-2.224500084E1,2.830500007E-1,2.228515870E1
1.658605717E0,1.345050097E0,-2.212995148E1,9.195000678E-2,2.217098029E1
1.660568115E0,1.651950121E0,-2.216805077E1,1.300500035E-1,2.222989714E1
1.662530642E0,1.996950150E0,-2.224500084E1,1.680000126E-1,2.233508666E1
1.664492146E0,2.265000105E0,-2.220600128E1,5.509500504E-1,2.232801524E1
1.666453950E0,2.380050182E0,-2.224500084E1,8.200500607E-1,2.238698692E1
1.668416129E0,2.419050217E0,-2.216805077E1,8.959500194E-1,2.231763888E1
1.670378222E0,2.457000017E0,-2.212995148E1,1.126049995E0,2.229438472E1
1.672340431E0,2.572050095E0,-2.212995148E1,1.240950108E0,2.231345225E1
1.674302606E0,2.457000017E0,-2.190000153E1,1.356000066E0,2.207907725E1
1.676264892E0,2.610000134E0,-2.170800018E1,1.432950020E0,2.191124639E1
1.678227145E0,2.917050123E0,-2.155500031E1,1.471050024E0,2.180117446E1
1.680189323E0,3.070050240E0,-2.128605080E1,1.548000097E0,2.156194498E1
1.682151526E0,3.031950235E0,-2.082600021E1,1.585950017E0,2.110521842E1
1.684113491E0,3.184950113E0,-2.036595154E1,1.585950017E0,2.067440753E1
1.686075526E0,3.108000040E0,-1.990695000E1,1.548000097E0,2.020748937E1
1.688037880E0,3.262050152E0,-1.944705009E1,1.624950051E0,1.978558039E1
1.690000140E0,3.415050268E0,-1.902495003E1,1.855050087E0,1.941783981E1
1.691962461E0,3.415050268E0,-1.841205025E1,1.777950048E0,1.881029689E1
1.693924760E0,3.453000069E0,-1.791300011E1,1.740000129E0,1.832556637E1
1.695887070E0,3.453000069E0,-1.737705040E1,1.663050056E0,1.779468532E1
1.697849376E0,3.453000069E0,-1.687905121E1,1.777950048E0,1.732012372E1
1.699811819E0,3.492000103E0,-1.638000107E1,1.930950046E0,1.685903520E1
1.701774222E0,3.453000069E0,-1.576695061E1,1.777950048E0,1.623825875E1
1.703736564E0,3.376950264E0,-1.503900051E1,1.585950017E0,1.549485614E1
1.705698921E0,3.376950264E0,-1.454100037E1,1.548000097E0,1.500802415E1
1.707661040E0,3.223050117E0,-1.385100079E1,1.585950017E0,1.430921075E1
1.709623229E0,3.147000074E0,-1.327605057E1,1.510050058E0,1.372724952E1
1.711585556E0,2.992950201E0,-1.254795074E1,1.395000100E0,1.297516258E1
1.713547842E0,2.802000046E0,-1.189605045E1,1.126049995E0,1.227335363E1
1.715510135E0,2.649000168E0,-1.128300095E1,8.959500194E-1,1.162437261E1
1.717472439E0,2.725050211E0,-1.070805073E1,5.509500504E-1,1.106308253E1
1.719435783E0,2.725050211E0,-1.009500027E1,4.360500276E-1,1.046542253E1
1.721398823E0,2.572050095E0,-9.442950249E0,2.070000172E-1,9.789157272E0
1.723361231E0,2.610000134E0,-8.944950104E0,1.680000126E-1,9.319466565E0
1.725323825E0,2.457000017E0,-8.293050766E0,-6.105000153E-2,8.649581909E0
1.727286403E0,2.304000139E0,-7.603050232E0,-2.520000041E-1,7.948477431E0
1.729248983E0,2.188950062E0,-6.990000248E0,-4.819500148E-1,7.340564124E0
1.731211424E0,2.265000105E0,-6.415050507E0,-5.970000029E-1,6.829312372E0
1.733173906E0,2.035050154E0,-5.839950085E0,-5.590500236E-1,6.209587993E0
1.735136004E0,2.035050154E0,-5.304000378E0,-5.590500236E-1,5.708448656E0
1.737098214E0,2.074050188E0,-4.843950272E0,-3.670500219E-1,5.282070062E0
1.739060578E0,1.959000111E0,-4.269000053E0,-1.369500011E-1,4.699020982E0
1.741022900E0,1.920000076E0,-3.847050190E0,-2.205000073E-2,4.299614129E0
1.742985162E0,1.767000079E0,-3.463950157E0,1.300500035E-1,3.890777939E0
1.744947441E0,1.729050040E0,-3.157050133E0,2.070000172E-1,3.605472034E0
1.746909797E0,1.729050040E0,-2.812050104E0,2.830500007E-1,3.313209491E0
1.748872131E0,1.651950121E0,-2.506050110E0,2.449500114E-1,3.011515709E0
1.750834618E0,1.537050128E0,-2.199000120E0,1.300500035E-1,2.686082208E0
1.752797058E0,1.459950089E0,-1.854000092E0,1.500000060E-2,2.359871946E0
1.754759164E0,1.345050097E0,-1.624050021E0,-1.369500011E-1,2.113161976E0
1.756721368E0,1.345050097E0,-1.318050027E0,-2.520000041E-1,1.899978852E0
1.758683288E0,1.306950092E0,-1.011000037E0,-4.440000355E-1,1.710957524E0
1.760645291E0,1.269000053E0,-6.660000086E-1,-6.360000372E-1,1.567932777E0
1.762607890E0,1.230000019E0,-3.589500189E-1,-8.659500480E-1,1.546484610E0
1.764570304E0,1.153950095E0,-1.290000081E-1,-1.134000063E0,1.623021247E0
1.766531693E0,1.077000022E0,2.295000106E-2,-1.402050018E0,1.768106333E0
1.768493383E0,9.619500637E-1,2.910000086E-1,-1.594050050E0,1.884416220E0
1.770455795E0,9.240000248E-1,5.590500236E-1,-1.977000117E0,2.252741094E0
1.772417996E0,8.089500666E-1,7.510500550E-1,-2.206950188E0,2.467611300E0
1.774380447E0,8.089500666E-1,9.430500269E-1,-2.398950100E0,2.701611583E0
1.776342832E0,8.089500666E-1,1.057950020E0,-2.743950129E0,3.050068977E0
1.778305128E0,8.089500666E-1,1.173000097E0,-3.012000084E0,3.332037506E0
1.780267450E0,7.699500322E-1,1.288050056E0,-3.280050039E0,3.607024294E0
1.782229755E0,6.550500393E-1,1.441050053E0,-3.510000229E0,3.850430809E0
1.784192065E0,5.790000558E-1,1.479000092E0,-3.625050068E0,3.957735505E0
1.786154022E0,6.550500393E-1,1.518000126E0,-3.739950180E0,4.089088197E0
1.788116075E0,5.410500169E-1,1.633050084E0,-3.817050219E0,4.186819804E0
1.790078290E0,5.020500422E-1,1.671000123E0,-3.931950092E0,4.301688876E0
1.792040458E0,4.260000288E-1,1.708950043E0,-3.931950092E0,4.308389235E0
1.794002925E0,3.870000243E-1,1.824000120E0,-3.931950092E0,4.351663703E0
1.795965304E0,3.109500110E-1,1.747950077E0,-3.817050219E0,4.209737730E0
1.797927765E0,2.719500065E-1,1.786050081E0,-3.855000257E0,4.257341739E0
1.799890212E0,2.340000123E-1,1.786050081E0,-3.817050219E0,4.220734921E0
1.801852497E0,2.340000123E-1,1.824000120E0,-3.739950180E0,4.167608402E0
1.803814829E0,2.340000123E-1,1.786050081E0,-3.510000229E0,3.945229081E0
1.805776817E0,2.340000123E-1,1.824000120E0,-3.280050039E0,3.760380394E0
1.807738906E0,1.570500135E-1,1.863000035E0,-3.049950123E0,3.577377474E0
1.809701215E0,1.570500135E-1,1.863000035E0,-2.935050249E0,3.479935891E0
1.811663453E0,1.960500032E-1,1.939050078E0,-2.667000055E0,3.303216630E0
1.813625818E0,1.189500093E-1,1.900950074E0,-2.551950216E0,3.184369670E0
1.815588145E0,1.570500135E-1,1.978050113E0,-2.475000143E0,3.172218886E0
1.817550585E0,2.340000123E-1,2.053950071E0,-2.245050192E0,3.051838342E0
1.819512991E0,2.340000123E-1,2.092950106E0,-2.169000149E0,3.023203234E0
1.821475162E0,3.109500110E-1,2.169000149E0,-2.014950037E0,2.976789412E0
1.823437392E0,3.490500152E-1,2.208000183E0,-2.014950037E0,3.009505669E0
1.825400208E0,3.109500110E-1,2.284050226E0,-1.708950043E0,2.869509643E0
1.827362852E0,5.020500422E-1,2.361000061E0,-1.363950014E0,2.772496199E0
1.829326003E0,5.410500169E-1,2.437050104E0,-1.134000063E0,2.741879734E0
1.831289005E0,6.940500140E-1,2.514000177E0,-8.659500480E-1,2.748048726E0
1.833251010E0,7.699500322E-1,2.590950012E0,-5.970000029E-1,2.768077676E0
1.835213310E0,9.240000248E-1,2.629050016E0,-3.670500219E-1,2.810766044E0
1.837174718E0,1.077000022E0,2.629050016E0,1.500000060E-2,2.841136751E0
1.839136387E0,1.192050099E0,2.667000055E0,4.750500321E-1,2.959652896E0
1.841098983E0,1.306950092E0,2.743950129E0,8.200500607E-1,3.147993481E0
1.843061308E0,1.306950092E0,2.782050133E0,1.203000069E0,3.300777280E0
1.845023803E0,1.422000051E0,2.667000055E0,1.510050058E0,3.378642422E0
1.846986241E0,1.614000082E0,2.590950012E0,1.777950048E0,3.532580446E0
1.848948347E0,1.767000079E0,2.551950216E0,2.122950077E0,3.760539352E0
1.850910551E0,1.959000111E0,2.476050138E0,2.275950193E0,3.892101618E0
1.852873056E0,2.035050154E0,2.322000027E0,2.620950222E0,4.049999175E0
1.854835472E0,2.149950027E0,2.169000149E0,2.851050138E0,4.177958073E0
1.856797974E0,2.265000105E0,2.016000032E0,3.004050255E0,4.268348573E0
1.858760428E0,2.304000139E0,1.900950074E0,3.157950163E0,4.346800784E0
1.860722936E0,2.419050217E0,1.747950077E0,3.273000240E0,4.429408989E0
1.862685428E0,2.494950056E0,1.479000092E0,3.426000118E0,4.488841038E0
1.864647885E0,2.533950090E0,1.402950048E0,3.541050196E0,4.574735882E0
1.866610353E0,2.610000134E0,1.288050056E0,3.694050074E0,4.702890557E0
1.868572633E0,2.610000134E0,1.057950020E0,3.579000235E0,4.554185067E0
1.870534969E0,2.457000017E0,9.430500269E-1,3.463950157E0,4.350303797E0
1.872497272E0,2.188950062E0,7.510500550E-1,3.043050051E0,3.823052729E0
1.874459584E0,1.920000076E0,5.209500194E-1,2.736000061E0,3.382822128E0
1.876421891E0,1.614000082E0,3.289500177E-1,2.506050110E0,2.998915059E0
1.878384199E0,1.459950089E0,1.759500057E-1,2.314950228E0,2.742518409E0
1.880347217E0,1.384050012E0,-1.500000060E-2,2.085000038E0,2.502607559E0
1.882310034E0,1.306950092E0,-9.105000645E-2,1.930950046E0,2.333447391E0
1.884272075E0,1.269000053E0,-1.290000081E-1,1.701000094E0,2.126124046E0
1.886234344E0,1.230000019E0,-1.290000081E-1,1.548000097E0,1.981374611E0
1.888196973E0,1.077000022E0,-1.290000081E-1,1.471050024E0,1.827719405E0
1.890159496E0,1.000050068E0,-1.290000081E-1,1.471050024E0,1.783459928E0
1.892121827E0,1.039050102E0,-1.290000081E-1,1.471050024E0,1.805617426E0
1.894084204E0,1.000050068E0,-1.290000081E-1,1.432950020E0,1.752166345E0
1.896046634E0,9.619500637E-1,-1.290000081E-1,1.356000066E0,1.667550631E0
1.898009049E0,9.240000248E-1,-1.290000081E-1,1.279950023E0,1.583884184E0
1.899971564E0,8.470500112E-1,-1.680000126E-1,1.203000069E0,1.480853433E0
1.901934049E0,8.089500666E-1,-1.680000126E-1,1.126049995E0,1.396643407E0
1.903896296E0,8.089500666E-1,-1.680000126E-1,1.050000072E0,1.336085463E0
1.905858603E0,8.470500112E-1,-1.680000126E-1,9.730500579E-1,1.300978148E0
1.907820955E0,8.470500112E-1,-2.059500068E-1,1.050000072E0,1.364701168E0
1.909783293E0,8.089500666E-1,-2.440500110E-1,1.011000037E0,1.317604528E0
1.911745552E0,8.850000501E-1,-2.440500110E-1,1.011000037E0,1.365615821E0
1.913707834E0,7.699500322E-1,-2.059500068E-1,1.011000037E0,1.287384765E0
1.915670335E0,8.470500112E-1,-2.440500110E-1,1.011000037E0,1.341333368E0
1.917632765E0,8.470500112E-1,-2.440500110E-1,1.165050030E0,1.460957118E0
1.919595098E0,8.470500112E-1,-2.830500007E-1,1.165050030E0,1.467975680E0
1.921557459E0,8.470500112E-1,-2.440500110E-1,1.203000069E0,1.491396424E0
1.923520432E0,7.699500322E-1,-3.210000098E-1,1.203000069E0,1.463923913E0
1.925483226E0,8.470500112E-1,-3.210000098E-1,1.240950108E0,1.536389240E0
1.927445992E0,8.089500666E-1,-2.440500110E-1,1.318050027E0,1.565636130E0
1.929408767E0,8.089500666E-1,-2.440500110E-1,1.395000100E0,1.630946320E0
1.931371355E0,7.320000529E-1,-1.680000126E-1,1.356000066E0,1.550091694E0
1.933333998E0,7.699500322E-1,-1.680000126E-1,1.318050027E0,1.535676701E0
1.935296473E0,8.089500666E-1,-2.059500068E-1,1.432950020E0,1.658361051E0
1.937258998E0,7.699500322E-1,-1.680000126E-1,1.432950020E0,1.635357091E0
1.939221398E0,8.470500112E-1,-1.680000126E-1,1.471050024E0,1.705786006E0
1.941183839E0,8.850000501E-1,-1.680000126E-1,1.510050058E0,1.758323142E0
1.943146303E0,8.850000501E-1,-2.059500068E-1,1.510050058E0,1.762354015E0
1.945108760E0,9.240000248E-1,-1.680000126E-1,1.510050058E0,1.778271978E0
1.947071222E0,9.240000248E-1,-1.680000126E-1,1.510050058E0,1.778271978E0
1.949033683E0,9.240000248E-1,-1.680000126E-1,1.471050024E0,1.745275973E0
1.950996555E0,9.240000248E-1,-1.680000126E-1,1.471050024E0,1.745275973E0
1.952959303E0,1.000050068E0,-1.680000126E-1,1.471050024E0,1.786704317E0
1.954922076E0,1.000050068E0,-2.059500068E-1,1.356000066E0,1.697425027E0
1.956884842E0,1.153950095E0,-2.059500068E-1,1.240950108E0,1.707036437E0
1.958847388E0,1.192050099E0,-2.059500068E-1,1.165050030E0,1.679506004E0
1.960809998E0,1.230000019E0,-2.059500068E-1,1.087950110E0,1.654977612E0
1.962772682E0,1.345050097E0,-2.440500110E-1,9.730500579E-1,1.677959053E0
1.964735327E0,1.459950089E0,-2.440500110E-1,8.959500194E-1,1.730243078E0
1.966698073E0,1.767000079E0,-2.440500110E-1,8.580000401E-1,1.979397321E0
1.968660789E0,2.149950027E0,-2.059500068E-1,7.429500222E-1,2.284004217E0
1.970624153E0,2.380050182E0,-2.059500068E-1,5.130000114E-1,2.443404037E0
1.972587327E0,2.649000168E0,-2.440500110E-1,1.680000126E-1,2.665518017E0
1.974549838E0,2.802000046E0,-2.440500110E-1,-3.289500177E-1,2.831779084E0
1.976512550E0,3.108000040E0,-2.830500007E-1,-1.134000063E0,3.320502627E0
1.978475283E0,3.453000069E0,-3.979500234E-1,-2.284050226E0,4.159141634E0
1.980438010E0,3.952050209E0,-4.740000367E-1,-3.472050190E0,5.281903957E0
1.982400427E0,4.297049999E0,-5.509500504E-1,-4.660050392E0,6.362723812E0
1.984362935E0,4.642050266E0,-6.660000086E-1,-5.617950439E0,7.318029368E0
1.986325564E0,4.987050056E0,-7.039500475E-1,-6.270000458E0,8.042332975E0
1.988288160E0,5.178000450E0,-7.810500264E-1,-6.615000248E0,8.436821444E0
1.990250600E0,5.370000362E0,-8.959500194E-1,-6.499950409E0,8.478737267E0
1.992213085E0,5.485050201E0,-9.340500236E-1,-6.193050385E0,8.325388773E0
1.994175722E0,5.485050201E0,-1.011000037E0,-5.617950439E0,7.916392103E0
1.996138314E0,5.485050201E0,-1.048950076E0,-5.119950294E0,7.576276328E0
1.998100982E0,5.560950279E0,-1.126049995E0,-4.660050392E0,7.342222161E0
2.000063625E0,5.676000118E0,-1.203000069E0,-4.315050125E0,7.230756813E0
2.002026192E0,5.560950279E0,-1.240950108E0,-4.009050369E0,6.966822091E0
2.003988781E0,5.560950279E0,-1.240950108E0,-3.778950214E0,6.837001528E0
2.005951266E0,5.446050167E0,-1.240950108E0,-3.472050190E0,6.576819301E0
2.007913781E0,5.140050411E0,-1.203000069E0,-3.357000113E0,6.255939350E0
2.009876229E0,4.450050354E0,-1.087950110E0,-3.319050074E0,5.657090859E0
2.011838700E0,3.607050180E0,-1.011000037E0,-3.433950186E0,5.081825062E0
2.013801339E0,2.725050211E0,-8.580000401E-1,-3.664050102E0,4.646216296E0
2.015763929E0,1.843950033E0,-7.429500222E-1,-3.817050219E0,4.303719186E0
2.017726324E0,1.269000053E0,-8.190000653E-1,-3.931950092E0,4.212048643E0
2.019688777E0,7.320000529E-1,-9.730500579E-1,-3.702000141E0,3.897108613E0
2.021649973E0,1.960500032E-1,-1.087950110E0,-3.127050161E0,3.316702241E0
2.023611541E0,-1.870500147E-1,-1.240950108E0,-2.284050226E0,2.606114025E0
2.025573975E0,-6.079500318E-1,-1.356000066E0,-1.441050053E0,2.070015622E0
2.027536155E0,-7.230000496E-1,-1.663050056E0,-9.040500522E-1,2.026270233E0
2.029498530E0,-6.079500318E-1,-2.083950043E0,-8.269500136E-1,2.322993187E0
2.031460847E0,-4.170000255E-1,-2.506050110E0,-9.810000658E-1,2.723332022E0
2.033424059E0,-7.200000435E-2,-3.042000055E0,-1.326000094E0,3.319220479E0
2.035387006E0,5.790000558E-1,-3.541050196E0,-1.594050050E0,3.926228867E0
2.037349566E0,1.230000019E0,-3.961950302E0,-1.747050047E0,4.501348033E0
2.039312239E0,1.459950089E0,-4.231050014E0,-1.747050047E0,4.804729166E0
2.041274619E0,1.651950121E0,-4.461000443E0,-1.555950046E0,5.005041927E0
2.043237085E0,1.729050040E0,-4.614000320E0,-1.171950102E0,5.064788252E0
2.045198644E0,1.690050125E0,-4.614000320E0,-4.060500264E-1,4.930531919E0
2.047160469E0,1.575000048E0,-4.537050247E0,7.050000429E-1,4.854119401E0
2.049123399E0,1.498950124E0,-4.345950127E0,1.893000126E0,4.971678133E0
2.051086005E0,1.422000051E0,-4.116000175E0,3.118950129E0,5.356434588E0
2.053048622E0,1.384050012E0,-3.924000263E0,3.886050224E0,5.693396073E0
2.055011236E0,1.345050097E0,-3.808950186E0,4.231050014E0,5.849704737E0
2.056973557E0,1.345050097E0,-3.732000113E0,4.078050137E0,5.689242262E0
2.058935950E0,1.345050097E0,-3.771000147E0,3.963000298E0,5.633380267E0
2.060898603E0,1.306950092E0,-3.808950186E0,3.808950186E0,5.542952424E0
2.062861179E0,1.306950092E0,-3.771000147E0,3.771000147E0,5.490810756E0
2.064823577E0,1.345050097E0,-3.847050190E0,3.886050224E0,5.631193592E0
2.066786027E0,1.306950092E0,-4.039050102E0,3.924000263E0,5.780988007E0
2.068748474E0,1.306950092E0,-4.269000053E0,3.733050108E0,5.819634276E0
2.070710933E0,1.306950092E0,-4.729050159E0,3.426000118E0,5.984104842E0
2.072672540E0,1.153950095E0,-6.339000225E0,3.196050167E0,7.192305704E0
2.074634397E0,-2.250000089E-1,-1.047795010E1,3.886050224E0,1.117763166E1
2.076597141E0,-3.175950050E0,-1.496205044E1,4.423050404E0,1.592209116E1
2.078559625E0,-7.431000233E0,-1.952295113E1,3.847950220E0,2.124081227E1
2.080522268E0,-1.160805035E1,-2.473605156E1,3.502950191E0,2.754795346E1
2.082484861E0,-1.551795101E1,-2.906700134E1,4.461000443E0,3.325053226E1
2.084447436E0,-1.831605148E1,-3.473895264E1,4.345950127E0,3.951151547E1
2.086410017E0,-1.873695183E1,-4.244295120E1,6.262050152E0,4.681549682E1
2.088372143E0,-1.758705139E1,-5.060700226E1,7.105050564E0,5.404493314E1
2.090334402E0,-1.586295033E1,-5.788905334E1,7.680000305E0,6.051246231E1
2.092296638E0,-1.283505058E1,-6.536295319E1,9.597000122E0,6.729900879E1
2.094258904E0,-8.044050217E0,-7.287495422E1,1.270095062E1,7.440954135E1
2.096221805E0,-1.452000022E0,-7.831800079E1,1.396605110E1,7.956675270E1
2.098184520E0,6.520050526E0,-7.850895691E1,1.335300064E1,7.990287855E1
2.100147974E0,1.514295101E1,-7.850895691E1,9.175050735E0,8.048072338E1
2.102111212E0,2.449500084E1,-7.850895691E1,-6.307950497E0,8.248303838E1
2.104073181E0,3.331095123E1,-7.850895691E1,-1.976100159E1,8.754297785E1
2.106035522E0,3.806295013E1,-7.850895691E1,-2.520405197E1,9.081678657E1
2.107998048E0,3.955800247E1,-7.682295227E1,-3.095295143E1,9.178609240E1
2.109960520E0,3.576405334E1,-6.662805176E1,-2.953500175E1,8.118301005E1
2.111923115E0,2.836605072E1,-5.574300385E1,-2.278905106E1,6.656768104E1
2.113885673E0,2.093100166E1,-4.677405167E1,-1.458705044E1,5.327945927E1
2.115848111E0,1.491300106E1,-3.995205307E1,-7.189950466E0,4.324649735E1
2.117810622E0,1.050600052E1,-3.462405014E1,-2.053950071E0,3.624113141E1
2.119772490E0,6.595950127E0,-3.040800095E1,1.087950110E0,3.113417279E1
2.121734546E0,3.184950113E0,-2.692005157E1,2.736000061E0,2.724552771E1
2.123696356E0,6.550500393E-1,-2.412300110E1,3.310950041E0,2.435796918E1
2.125658238E0,-1.030050039E0,-2.186100197E1,3.196050167E0,2.211739467E1
2.127620823E0,-1.987950087E0,-2.021295166E1,2.773950100E0,2.049902826E1
2.129583216E0,-2.601000071E0,-1.906305122E1,2.085000038E0,1.935232153E1
2.131545689E0,-2.985000134E0,-1.822005081E1,1.510050058E0,1.852459793E1
2.133508139E0,-3.061050177E0,-1.783695030E1,8.959500194E-1,1.811986619E1
2.135471324E0,-2.524950027E0,-1.795200157E1,2.449500114E-1,1.813035393E1
2.137434293E0,-1.911000133E0,-1.848795128E1,-2.520000041E-1,1.858816204E1
2.139396623E0,-1.297950029E0,-1.906305122E1,-1.759500057E-1,1.910799714E1
2.141359141E0,-9.919500351E-1,-1.971495056E1,9.195000678E-2,1.974010373E1
2.143320692E0,-6.469500065E-1,-2.036595154E1,3.979500234E-1,2.038011017E1
2.145282526E0,-3.400500119E-1,-2.109495163E1,6.280500293E-1,2.110703828E1
2.147244778E0,-1.870500147E-1,-2.170800018E1,1.050000072E0,2.173418413E1
2.149206908E0,-7.200000435E-2,-2.243595123E1,1.471050024E0,2.248424070E1
2.151168868E0,-1.099500060E-1,-2.285805130E1,1.663050056E0,2.291873325E1
2.153130891E0,-3.400500119E-1,-2.320305061E1,1.777950048E0,2.327355362E1
2.155093066E0,-4.549500346E-1,-2.354805183E1,1.855050087E0,2.362538752E1
2.157055197E0,-4.930500090E-1,-2.370105171E1,1.740000129E0,2.376995059E1
2.159017490E0,-5.700000525E-1,-2.377800179E1,1.624950051E0,2.384027541E1
2.160979735E0,-6.469500065E-1,-2.381595039E1,1.510050058E0,2.387254257E1
2.162942049E0,-6.079500318E-1,-2.385405159E1,1.318050027E0,2.389817224E1
2.164904346E0,-6.850500107E-1,-2.377800179E1,1.011000037E0,2.380934236E1
2.166867016E0,-7.230000496E-1,-2.370105171E1,6.660000086E-1,2.372142781E1
2.168829577E0,-7.230000496E-1,-2.370105171E1,3.220500052E-1,2.371426359E1
2.170792787E0,-4.930500090E-1,-2.373900032E1,1.300500035E-1,2.374447615E1
2.172755807E0,-4.930500090E-1,-2.373900032E1,-6.105000153E-2,2.374419848E1
2.174718188E0,-4.170000255E-1,-2.366295052E1,-1.759500057E-1,2.366727856E1
2.176680746E0,-1.870500147E-1,-2.366295052E1,-6.105000153E-2,2.366376855E1
2.178642290E0,-3.299999982E-2,-2.362395096E1,5.295000225E-2,2.362403335E1
2.180604131E0,1.960500032E-1,-2.362395096E1,3.220500052E-1,2.362695940E1
2.182567239E0,5.020500422E-1,-2.366295052E1,4.360500276E-1,2.367229226E1
2.184529975E0,5.790000558E-1,-2.350905037E1,6.660000086E-1,2.352560831E1
2.186492586E0,8.850000501E-1,-2.335605049E1,8.959500194E-1,2.338997747E1
2.188455223E0,1.153950095E0,-2.324100113E1,1.318050027E0,2.330693009E1
2.190417609E0,1.269000053E0,-2.301105118E1,1.471050024E0,2.309291722E1
2.192380069E0,1.345050097E0,-2.278095055E1,1.471050024E0,2.286798757E1
2.194342575E0,1.345050097E0,-2.247405052E1,1.585950017E0,2.257005414E1
2.196305067E0,1.422000051E0,-2.209095192E1,1.663050056E0,2.219905350E1
2.198267509E0,1.459950089E0,-2.170800018E1,1.701000094E0,2.182343070E1
2.200229977E0,1.575000048E0,-2.121000099E1,1.777950048E0,2.134258357E1
2.202192437E0,1.804950118E0,-2.086500168E1,1.855050087E0,2.102492214E1
2.204154900E0,1.996950150E0,-2.044305038E1,1.855050087E0,2.062395039E1
2.206117361E0,2.074050188E0,-2.009805107E1,1.969950080E0,2.030059222E1
2.208079823E0,2.341950178E0,-1.956195068E1,1.816050053E0,1.978516320E1
2.210042290E0,2.265000105E0,-1.887195015E1,1.777950048E0,1.909035972E1
2.212004752E0,2.380050182E0,-1.822005081E1,1.777950048E0,1.846066079E1
2.213966988E0,2.533950090E0,-1.779900169E1,1.930950046E0,1.808186750E1
2.215929290E0,2.533950090E0,-1.726200104E1,1.893000126E0,1.754938838E1
2.217891464E0,2.610000134E0,-1.668704987E1,1.930950046E0,1.699995006E1
2.219853675E0,2.686950207E0,-1.615005112E1,1.855050087E0,1.647680380E1
2.221816344E0,2.802000046E0,-1.565205097E1,1.816050053E0,1.600424761E1
2.223778889E0,2.839950085E0,-1.507695103E1,1.777950048E0,1.544476854E1
2.225741157E0,2.839950085E0,-1.457895088E1,1.740000129E0,1.495455535E1
2.227703507E0,2.649000168E0,-1.396605110E1,1.548000097E0,1.429909401E1
2.229666122E0,2.494950056E0,-1.331400108E1,1.395000100E0,1.361739424E1
2.231628659E0,2.341950178E0,-1.270095062E1,1.165050030E0,1.296750627E1
2.233591089E0,2.304000139E0,-1.208805084E1,9.349500537E-1,1.234113129E1
2.235553564E0,2.035050154E0,-1.135905075E1,7.050000429E-1,1.156142241E1
2.237516968E0,1.882050037E0,-1.063095093E1,2.830500007E-1,1.079996978E1
2.239480100E0,1.767000079E0,-9.903000832E0,5.295000225E-2,1.005954862E1
2.241442448E0,1.690050125E0,-9.213000298E0,-2.910000086E-1,9.371249912E0
2.243405025E0,1.690050125E0,-8.446949959E0,-5.590500236E-1,8.632483418E0
2.245367402E0,1.614000082E0,-7.642050266E0,-8.659500480E-1,7.858485733E0
2.247329852E0,1.651950121E0,-6.952050209E0,-1.057050109E0,7.223385373E0
2.249292136E0,1.729050040E0,-6.147000313E0,-1.249050021E0,6.506562291E0
2.251254468E0,1.690050125E0,-5.419050217E0,-1.441050053E0,5.856534806E0
2.253216771E0,1.575000048E0,-4.690050125E0,-1.516950130E0,5.174778548E0
2.255179083E0,1.498950124E0,-3.961950302E0,-1.594050050E0,4.526024440E0
2.257141289E0,1.498950124E0,-3.426000118E0,-1.632000089E0,4.080165753E0
2.259103502E0,1.422000051E0,-2.926950216E0,-1.555950046E0,3.606951934E0
2.261065825E0,1.345050097E0,-2.467050076E0,-1.441050053E0,3.157866541E0
2.263028115E0,1.384050012E0,-2.083950043E0,-1.287000060E0,2.813327455E0
2.264990382E0,1.345050097E0,-1.777950048E0,-1.096050024E0,2.484268865E0
2.266952656E0,1.422000051E0,-1.509000063E0,-9.040500522E-1,2.261961943E0
2.268914765E0,1.575000048E0,-1.356000066E0,-6.360000372E-1,2.173443668E0
2.270876939E0,1.690050125E0,-1.164000034E0,-4.819500148E-1,2.107947182E0
2.272838954E0,1.767000079E0,-9.340500236E-1,-1.369500011E-1,2.003370667E0
2.274801016E0,1.920000076E0,-7.429500222E-1,9.195000678E-2,2.060783791E0
2.276762285E0,2.035050154E0,-5.509500504E-1,2.830500007E-1,2.127226455E0
2.278723786E0,2.265000105E0,-4.740000367E-1,5.899500251E-1,2.388083445E0
2.280686059E0,2.341950178E0,-2.830500007E-1,8.580000401E-1,2.510181668E0
2.282648100E0,2.457000017E0,-2.059500068E-1,1.011000037E0,2.664842503E0
2.284610094E0,2.494950056E0,-1.290000081E-1,1.126049995E0,2.740329428E0
2.286572102E0,2.572050095E0,-9.105000645E-2,1.240950108E0,2.857216996E0
2.288533695E0,2.649000168E0,6.105000153E-2,1.279950023E0,2.942652044E0
2.290495410E0,2.649000168E0,1.759500057E-1,1.279950023E0,2.947275412E0
2.292457629E0,2.649000168E0,2.530499995E-1,1.165050030E0,2.904923022E0
2.294419707E0,2.649000168E0,4.060500264E-1,1.240950108E0,2.953309277E0
2.296381919E0,2.610000134E0,5.590500236E-1,1.165050030E0,2.912383766E0
2.298344091E0,2.494950056E0,7.129500508E-1,9.730500579E-1,2.771263245E0
2.300306557E0,2.419050217E0,8.659500480E-1,1.011000037E0,2.761121966E0
2.302268937E0,2.380050182E0,9.810000658E-1,8.959500194E-1,2.725752453E0
2.304230970E0,2.304000139E0,1.057950020E0,8.200500607E-1,2.664611977E0
2.306193068E0,2.188950062E0,1.134000063E0,7.429500222E-1,2.574768582E0
2.308155411E0,2.074050188E0,1.210950017E0,5.899500251E-1,2.473080095E0
2.310117682E0,1.996950150E0,1.288050056E0,3.979500234E-1,2.409408032E0
2.312081077E0,1.959000111E0,1.363950014E0,2.449500114E-1,2.399591962E0
2.314044143E0,1.959000111E0,1.402950048E0,1.300500035E-1,2.413060976E0
2.316006478E0,1.959000111E0,1.479000092E0,1.300500035E-1,2.458055269E0
2.317969013E0,1.920000076E0,1.594050050E0,1.500000060E-2,2.495520157E0
2.319930966E0,1.882050037E0,1.594050050E0,-9.900000691E-2,2.468381840E0
2.321893089E0,1.882050037E0,1.708950043E0,-2.140500098E-1,2.551164440E0
2.323855428E0,2.074050188E0,1.708950043E0,-3.289500177E-1,2.707471615E0
2.325817703E0,2.188950062E0,1.747950077E0,-4.819500148E-1,2.842377115E0
2.327780141E0,2.227050066E0,1.747950077E0,-6.360000372E-1,2.901650826E0
2.329742539E0,2.304000139E0,1.824000120E0,-9.040500522E-1,3.074524285E0
2.331705011E0,2.457000017E0,1.824000120E0,-1.018950105E0,3.225226324E0
2.333667462E0,2.572050095E0,1.900950074E0,-1.249050021E0,3.433537364E0
2.335629611E0,2.725050211E0,1.978050113E0,-1.363950014E0,3.633034619E0
2.337591849E0,2.992950201E0,1.978050113E0,-1.671000123E0,3.957609704E0
2.339554117E0,3.223050117E0,1.978050113E0,-1.939050078E0,4.249782290E0
2.341516380E0,3.492000103E0,2.016000032E0,-2.284050226E0,4.634134902E0
2.343478741E0,3.760050297E0,2.053950071E0,-2.704950094E0,5.066896895E0
2.345441073E0,4.066950321E0,2.053950071E0,-3.088950157E0,5.504580718E0
2.347403332E0,4.372950077E0,2.016000032E0,-3.394950151E0,5.891742954E0
2.349365613E0,4.680000305E0,1.939050078E0,-3.664050102E0,6.252006175E0
2.351328109E0,4.987050056E0,1.900950074E0,-3.855000257E0,6.583715246E0
2.353290539E0,5.254950047E0,1.747950077E0,-3.817050219E0,6.726046523E0
2.355253051E0,5.676000118E0,1.594050050E0,-3.817050219E0,7.023378480E0
2.357215539E0,6.021000385E0,1.441050053E0,-3.739950180E0,7.233000639E0
2.359177997E0,6.442950249E0,1.249050021E0,-3.549000263E0,7.461041263E0
2.361140464E0,6.750000477E0,9.810000658E-1,-3.319050074E0,7.585575849E0
2.363103049E0,7.095000267E0,7.890000343E-1,-2.974050045E0,7.733467755E0
2.365065606E0,7.324050426E0,4.060500264E-1,-2.551950216E0,7.766533408E0
2.367028592E0,7.554000378E0,1.759500057E-1,-2.206950188E0,7.871753886E0
2.368991452E0,7.708050251E0,-9.105000645E-2,-1.708950043E0,7.895748161E0
2.370953891E0,7.746000290E0,-2.440500110E-1,-1.096050024E0,7.826966625E0
2.372916454E0,7.746000290E0,-4.740000367E-1,-6.360000372E-1,7.786507084E0
2.374877923E0,7.554000378E0,-7.429500222E-1,-6.105000153E-2,7.590693219E0
2.376839733E0,7.401000500E0,-9.340500236E-1,3.979500234E-1,7.470316062E0
2.378802170E0,6.940950394E0,-1.011000037E0,8.959500194E-1,7.071183768E0
2.380764423E0,6.481050491E0,-1.087950110E0,1.279950023E0,6.695216425E0
2.382726920E0,6.021000385E0,-1.126049995E0,1.510050058E0,6.308778440E0
2.384689346E0,5.485050201E0,-1.087950110E0,1.701000094E0,5.844896276E0
2.386652013E0,4.833000183E0,-9.340500236E-1,1.816050053E0,5.246749280E0
2.388614596E0,4.258049965E0,-8.580000401E-1,2.008050203E0,4.785333760E0
2.390577398E0,3.607050180E0,-7.039500475E-1,2.085000038E0,4.225349907E0
2.392540135E0,2.955000162E0,-5.509500504E-1,2.085000038E0,3.658250548E0
2.394502730E0,2.494950056E0,-4.740000367E-1,2.085000038E0,3.285829724E0
2.396465367E0,2.074050188E0,-3.210000098E-1,2.046000004E0,2.931013682E0
2.398427975E0,1.614000082E0,-2.059500068E-1,2.008050203E0,2.584507166E0
2.400390594E0,1.306950092E0,-1.680000126E-1,1.855050087E0,2.275423779E0
2.402353209E0,1.039050102E0,-1.290000081E-1,1.816050053E0,2.096259505E0
2.404315825E0,6.169500351E-1,-9.105000645E-2,1.740000129E0,1.848382508E0
2.406277133E0,2.340000123E-1,-9.105000645E-2,1.624950051E0,1.644235013E0
2.408238825E0,-3.299999982E-2,-1.500000060E-2,1.585950017E0,1.586364226E0
2.410201977E0,-2.629500031E-1,2.295000106E-2,1.585950017E0,1.607764555E0
2.412164688E0,-4.930500090E-1,1.759500057E-1,1.585950017E0,1.670118011E0
2.414127333E0,-6.079500318E-1,3.289500177E-1,1.510050058E0,1.660741561E0
2.416089998E0,-7.230000496E-1,3.679500222E-1,1.471050024E0,1.679912040E0
2.418052784E0,-7.230000496E-1,4.440000355E-1,1.432950020E0,1.665296029E0
2.420015534E0,-7.620000243E-1,4.060500264E-1,1.395000100E0,1.640593167E0
2.421977966E0,-6.469500065E-1,4.440000355E-1,1.279950023E0,1.501316890E0
2.423940478E0,-5.320500135E-1,4.440000355E-1,1.165050030E0,1.355564392E0
2.425902931E0,-4.930500090E-1,3.679500222E-1,1.165050030E0,1.317507913E0
2.427865401E0,-4.170000255E-1,4.060500264E-1,1.087950110E0,1.233856186E0
2.429827636E0,-3.019500077E-1,3.679500222E-1,9.730500579E-1,1.083230096E0
2.431789940E0,-2.629500031E-1,3.679500222E-1,8.959500194E-1,1.003621622E0
2.433752273E0,-2.250000089E-1,4.060500264E-1,8.200500607E-1,9.423288864E-1
2.435714611E0,-1.099500060E-1,4.060500264E-1,7.050000429E-1,8.209693589E-1
2.437677049E0,-1.480500102E-1,4.440000355E-1,6.660000086E-1,8.140091206E-1
2.439639457E0,-1.480500102E-1,4.440000355E-1,5.899500251E-1,7.530576798E-1
2.441601614E0,-1.480500102E-1,4.440000355E-1,5.899500251E-1,7.530576798E-1
2.443563844E0,-7.200000435E-2,4.830000103E-1,4.360500276E-1,6.546851435E-1
2.445526991E0,-7.200000435E-2,5.209500194E-1,3.600000143E-1,6.373169805E-1
2.447489890E0,-7.200000435E-2,5.590500236E-1,2.830500007E-1,6.307441893E-1
2.449451962E0,-3.299999982E-2,4.440000355E-1,2.070000172E-1,4.909929110E-1
2.451414277E0,-3.299999982E-2,4.440000355E-1,9.195000678E-2,4.546205399E-1
2.453376223E0,-3.299999982E-2,4.060500264E-1,-6.105000153E-2,4.119377703E-1
2.455338277E0,4.050000105E-3,4.440000355E-1,-9.900000691E-2,4.549213508E-1
2.457300632E0,-7.200000435E-2,4.830000103E-1,-1.759500057E-1,5.190678328E-1
2.459262895E0,-1.099500060E-1,4.440000355E-1,-1.759500057E-1,4.900851353E-1
2.461225210E0,-1.480500102E-1,4.060500264E-1,-1.759500057E-1,4.666410119E-1
2.463187510E0,-1.870500147E-1,4.440000355E-1,-9.900000691E-2,4.918584562E-1
2.465149595E0,-1.480500102E-1,4.060500264E-1,-2.520000041E-1,5.002993419E-1
2.467111743E0,-1.099500060E-1,2.910000086E-1,-2.140500098E-1,3.776074887E-1
2.469073742E0,-1.480500102E-1,2.910000086E-1,-2.140500098E-1,3.904064769E-1
2.471035767E0,-1.480500102E-1,2.140500098E-1,-1.759500057E-1,3.141569938E-1
2.472997942E0,-1.480500102E-1,2.140500098E-1,-1.369500011E-1,2.940943982E-1
2.474960073E0,-7.200000435E-2,1.759500057E-1,-6.105000153E-2,1.996735030E-1
2.476922231E0,-1.870500147E-1,2.140500098E-1,-2.205000073E-2,2.851163223E-1
2.478884381E0,-2.250000089E-1,2.140500098E-1,1.500000060E-2,3.109138317E-1
2.480846420E0,-2.629500031E-1,2.140500098E-1,1.500000060E-2,3.393893205E-1
2.482808478E0,-2.629500031E-1,1.759500057E-1,9.195000678E-2,3.294782427E-1
2.484770423E0,-2.629500031E-1,1.759500057E-1,1.300500035E-1,3.420732554E-1
2.486732402E0,-2.250000089E-1,9.900000691E-2,3.220500052E-1,4.051446794E-1
2.488694584E0,-1.870500147E-1,6.105000153E-2,3.220500052E-1,3.774003399E-1
2.490656707E0,-1.099500060E-1,9.900000691E-2,4.750500321E-1,4.975565679E-1
2.492619588E0,-7.200000435E-2,-1.500000060E-2,5.899500251E-1,5.945166379E-1
2.494582246E0,4.050000105E-3,-5.295000225E-2,6.660000086E-1,6.681138501E-1
2.496544314E0,8.100000024E-2,-1.290000081E-1,7.810500264E-1,7.957645040E-1
2.498506555E0,1.960500032E-1,-1.290000081E-1,8.200500607E-1,8.529705200E-1
2.500469098E0,3.109500110E-1,-1.290000081E-1,7.810500264E-1,8.505116432E-1
2.502431553E0,4.639500082E-1,-2.059500068E-1,6.660000086E-1,8.373894117E-1
2.504395593E0,5.790000558E-1,-2.059500068E-1,5.130000114E-1,8.005157598E-1
2.506359169E0,6.550500393E-1,-2.440500110E-1,2.449500114E-1,7.407101119E-1
2.508321801E0,6.940500140E-1,-2.830500007E-1,-9.900000691E-2,7.560580178E-1
2.510284709E0,8.470500112E-1,-3.589500189E-1,-5.970000029E-1,1.096698610E0
2.512247274E0,1.000050068E0,-4.740000367E-1,-1.287000060E0,1.697393687E0
2.514209940E0,1.153950095E0,-7.039500475E-1,-1.861950040E0,2.300870366E0
2.516172421E0,1.306950092E0,-9.730500579E-1,-2.322000027E0,2.836658084E0
2.518134950E0,1.230000019E0,-1.126049995E0,-2.437050104E0,2.952981857E0
2.520097400E0,1.077000022E0,-1.279050112E0,-2.092050076E0,2.678165744E0
2.522059873E0,8.089500666E-1,-1.356000066E0,-1.594050050E0,2.243687133E0
2.524021567E0,4.639500082E-1,-1.318050027E0,-1.057050109E0,1.752101714E0
2.525983489E0,1.960500032E-1,-1.356000066E0,-8.269500136E-1,1.600318127E0
2.527945921E0,-3.299999982E-2,-1.240950108E0,-5.970000029E-1,1.377481460E0
2.529908193E0,-3.400500119E-1,-1.126049995E0,-4.060500264E-1,1.244387089E0
2.531870868E0,-4.170000255E-1,-1.011000037E0,-4.819500148E-1,1.195109164E0
2.533833424E0,-6.079500318E-1,-8.959500194E-1,-7.120500207E-1,1.295895409E0
2.535796185E0,-8.380500674E-1,-7.039500475E-1,-1.018950105E0,1.495370489E0
2.537758885E0,-1.068000078E0,-5.509500504E-1,-1.363950014E0,1.817836562E0
2.539721537E0,-1.297950029E0,-4.360500276E-1,-1.671000123E0,2.160336853E0
2.541684200E0,-1.528050065E0,-2.830500007E-1,-1.747050047E0,2.338212602E0
2.543646582E0,-1.605000019E0,-1.680000126E-1,-1.516950130E0,2.214810774E0
2.545609046E0,-1.528050065E0,-1.290000081E-1,-1.171950102E0,1.930037576E0
2.547571551E0,-1.375050068E0,-1.290000081E-1,-7.510500550E-1,1.572094105E0
2.549534044E0,-1.183050036E0,-1.290000081E-1,-4.819500148E-1,1.283948678E0
2.551496830E0,-9.150000215E-1,-1.680000126E-1,-2.910000086E-1,9.747461457E-1
2.553459520E0,-5.700000525E-1,-2.830500007E-1,-2.520000041E-1,6.844862049E-1
2.555422483E0,-2.250000089E-1,-4.360500276E-1,-9.900000691E-2,5.005653124E-1
2.557385366E0,4.200000316E-2,-6.280500293E-1,5.295000225E-2,6.316759789E-1
2.559347801E0,2.340000123E-1,-8.580000401E-1,5.295000225E-2,8.909117674E-1
2.561310368E0,3.490500152E-1,-1.048950076E0,1.300500035E-1,1.113124063E0
2.563273740E0,6.169500351E-1,-1.318050027E0,9.195000678E-2,1.458196840E0
2.565236856E0,7.320000529E-1,-1.509000063E0,5.295000225E-2,1.678007440E0
2.567199342E0,9.619500637E-1,-1.738950133E0,-1.759500057E-1,1.995057367E0
2.569162012E0,1.077000022E0,-2.008050203E0,-5.209500194E-1,2.337430981E0
2.571124303E0,1.192050099E0,-2.199000120E0,-7.510500550E-1,2.611639553E0
2.573086705E0,1.114950061E0,-2.314050198E0,-8.659500480E-1,2.710684681E0
2.575049305E0,1.000050068E0,-2.428950071E0,-8.269500136E-1,2.753860002E0
2.577011851E0,9.619500637E-1,-2.506050110E0,-6.739500165E-1,2.767642264E0
2.578974344E0,8.850000501E-1,-2.659050226E0,-4.819500148E-1,2.843597899E0
2.580936853E0,8.089500666E-1,-2.697000027E0,-2.140500098E-1,2.823831929E0
2.582899306E0,7.320000529E-1,-2.773950100E0,1.500000060E-2,2.868945492E0
2.584861776E0,6.940500140E-1,-2.773950100E0,1.680000126E-1,2.864389740E0
2.586824006E0,6.550500393E-1,-2.851050138E0,4.750500321E-1,2.963654835E0
2.588786310E0,6.169500351E-1,-2.889000177E0,7.810500264E-1,3.055648624E0
2.590747897E0,5.020500422E-1,-2.965950251E0,1.203000069E0,3.239772260E0
2.592709695E0,3.870000243E-1,-3.271950245E0,1.624950051E0,3.673675284E0
2.594672449E0,3.109500110E-1,-4.000950336E0,2.200050116E0,4.576517673E0
2.596634923E0,-7.200000435E-2,-5.533950329E0,2.851050138E0,6.225614599E0
2.598597724E0,-8.770500422E-1,-7.987050533E0,3.426000118E0,8.734968220E0
2.600560443E0,-2.140950203E0,-1.113000011E1,4.153950214E0,1.207128298E1
2.602522681E0,-4.173000336E0,-1.526895046E1,4.806000233E0,1.654244294E1
2.604485060E0,-6.319050312E0,-2.113305092E1,5.304000378E0,2.268630992E1
2.606447220E0,-8.619000435E0,-2.845395088E1,5.188950062E0,3.018012081E1
2.608409445E0,-1.084200096E1,-3.684705353E1,6.339000225E0,3.892861752E1
2.610371901E0,-1.249005032E1,-4.573905182E1,8.101950645E0,4.810097528E1
2.612334289E0,-1.325595093E1,-5.497605133E1,1.013295078E1,5.745226842E1
2.614296449E0,-1.363995075E1,-6.371505356E1,1.231800079E1,6.631281513E1
2.616258676E0,-1.302600098E1,-7.161000061E1,1.492395115E1,7.429934863E1
2.618220996E0,-1.095705032E1,-7.762800598E1,1.749195099E1,8.032516800E1
2.620183289E0,-6.856050491E0,-7.850895691E1,1.929405022E1,8.113520886E1
2.622146895E0,-1.222050071E0,-7.850895691E1,1.948500061E1,8.090003072E1
2.624110092E0,5.178000450E0,-7.850895691E1,1.764599991E1,8.063404564E1
2.626073329E0,1.196205044E1,-7.850895691E1,1.147500038E1,8.023978190E1
2.628036554E0,2.376705170E1,-7.850895691E1,-1.312995052E1,8.307180425E1
2.629998886E0,3.837000275E1,-7.850895691E1,-4.072605133E1,9.640811523E1
2.631961479E0,4.733895111E1,-7.850895691E1,-5.046195221E1,1.046472227E2
2.633923927E0,5.163105392E1,-7.850895691E1,-4.977195358E1,1.063328238E2
2.635886411E0,5.074995422E1,-7.850895691E1,-3.742995071E1,1.006986364E2
2.637849003E0,4.641900253E1,-7.417800140E1,-2.278905106E1,9.042367243E1
2.639811563E0,3.994095230E1,-6.310200119E1,-9.565950394E0,7.529043520E1
2.641772927E0,3.093405151E1,-5.122005081E1,1.701000094E0,5.986069286E1
2.643734642E0,2.242605019E1,-4.171500015E1,7.642050266E0,4.797363752E1
2.645697230E0,1.567995071E1,-3.424095154E1,1.009500027E1,3.898990442E1
2.647659563E0,1.042905045E1,-2.822400093E1,9.098999977E0,3.143487112E1
2.649622092E0,6.405000210E0,-2.362395096E1,5.994000435E0,2.520006206E1
2.651584563E0,3.453000069E0,-2.059605026E1,2.583000183E0,2.104263258E1
2.653547203E0,1.729050040E0,-1.829700089E1,-4.060500264E-1,1.838300117E1
2.655509794E0,4.050000105E-3,-1.660995102E1,-1.671000123E0,1.669379318E1
2.657471860E0,-7.230000496E-1,-1.580505085E1,-1.900950074E0,1.593536861E1
2.659434089E0,-7.999500632E-1,-1.534605026E1,-1.171950102E0,1.541151017E1
2.661396589E0,-1.183050036E0,-1.507695103E1,-2.520000041E-1,1.512539466E1
2.663359010E0,-1.260000110E0,-1.515405083E1,9.195000678E-2,1.520662065E1
2.665320579E0,-9.150000215E-1,-1.561395073E1,9.349500537E-1,1.566865706E1
2.667282397E0,1.960500032E-1,-1.622700119E1,1.585950017E0,1.630549725E1
2.669245684E0,1.114950061E0,-1.680195045E1,2.238000154E0,1.698697435E1
2.671208544E0,1.843950033E0,-1.745400047E1,2.736000061E0,1.776310729E1
2.673170893E0,2.839950085E0,-1.806705093E1,3.081000090E0,1.854659558E1
2.675133392E0,3.721950293E0,-1.871805000E1,3.273000240E0,1.936313096E1
2.677095667E0,4.066950321E0,-1.898700142E1,3.234000206E0,1.968514834E1
2.679058007E0,3.682950258E0,-1.883295059E1,2.851050138E0,1.940032571E1
2.681020294E0,3.492000103E0,-1.879500008E1,2.583000183E0,1.929035983E1
2.682982608E0,3.184950113E0,-1.871805000E1,2.430000067E0,1.914194879E1
2.684945094E0,2.764050245E0,-1.864200020E1,2.085000038E0,1.896078507E1
2.686907529E0,2.494950056E0,-1.864200020E1,1.777950048E0,1.889206324E1
2.688870176E0,2.380050182E0,-1.875705147E1,1.471050024E0,1.896458823E1
2.690832760E0,2.227050066E0,-1.887195015E1,8.580000401E-1,1.902226113E1
2.692795247E0,2.035050154E0,-1.910205078E1,3.220500052E-1,1.921284699E1
2.694757762E0,1.843950033E0,-1.933200073E1,3.979500234E-1,1.942381961E1
2.696721295E0,1.614000082E0,-1.967700005E1,3.220500052E-1,1.974570949E1
2.698684529E0,1.384050012E0,-1.994505119E1,9.195000678E-2,1.999322676E1
2.700646318E0,1.269000053E0,-2.009805107E1,1.300500035E-1,2.013849376E1
2.702608531E0,1.422000051E0,-2.036595154E1,6.280500293E-1,2.042519310E1
2.704571350E0,1.651950121E0,-2.063505173E1,9.349500537E-1,2.072217244E1
2.706533991E0,2.074050188E0,-2.078805161E1,1.126049995E0,2.092158604E1
2.708496647E0,2.341950178E0,-2.086500168E1,1.240950108E0,2.103266466E1
2.710459298E0,2.649000168E0,-2.078805161E1,1.510050058E0,2.101048649E1
2.712422088E0,2.878050089E0,-2.063505173E1,1.548000097E0,2.089221952E1
2.714384837E0,2.955000162E0,-2.036595154E1,1.471050024E0,2.063172305E1
2.716347386E0,3.147000074E0,-2.005995178E1,1.471050024E0,2.035851820E1
2.718309993E0,3.492000103E0,-1.986795044E1,1.432950020E0,2.022332478E1
2.720272475E0,3.529950142E0,-1.944705009E1,1.126049995E0,1.979687586E1
2.722234993E0,3.682950258E0,-1.910205078E1,8.580000401E-1,1.947276639E1
2.724198660E0,3.568050146E0,-1.856505013E1,7.810500264E-1,1.892094361E1
2.726161991E0,3.492000103E0,-1.795200157E1,9.195000678E-2,1.828870908E1
2.728124331E0,3.607050180E0,-1.756905174E1,-2.140500098E-1,1.793678365E1
2.730086974E0,3.645000219E0,-1.722405052E1,-2.140500098E-1,1.760681006E1
2.732049899E0,3.798000097E0,-1.680195045E1,-3.670500219E-1,1.722977277E1
2.734012741E0,3.874950171E0,-1.638000107E1,-5.209500194E-1,1.684016219E1
2.735975904E0,3.990000248E0,-1.595895100E1,-4.440000355E-1,1.645616465E1
2.737938972E0,4.105050087E0,-1.542195034E1,-4.060500264E-1,1.596411179E1
2.739901510E0,4.182000160E0,-1.492395115E1,-6.360000372E-1,1.551186447E1
2.741864204E0,4.143000126E0,-1.431105042E1,-5.970000029E-1,1.491063456E1
2.743826985E0,4.105050087E0,-1.365900040E1,-6.360000372E-1,1.427670214E1
2.745789741E0,4.219950199E0,-1.308405018E1,-6.360000372E-1,1.376244327E1
2.747752288E0,4.258049965E0,-1.258605099E1,-7.510500550E-1,1.330803311E1
2.749714897E0,4.182000160E0,-1.185795021E1,-6.739500165E-1,1.259183534E1
2.751677562E0,4.105050087E0,-1.120605087E1,-9.040500522E-1,1.196847187E1
2.753640207E0,3.990000248E0,-1.066995049E1,-1.018950105E0,1.143705402E1
2.755602594E0,3.952050209E0,-1.017105007E1,-9.810000658E-1,1.095588068E1
2.757565056E0,3.874950171E0,-9.673050880E0,-1.057050109E0,1.047380099E1
2.759527877E0,3.874950171E0,-9.213000298E0,-9.040500522E-1,1.003553286E1
2.761490592E0,3.798000097E0,-8.791950226E0,-8.269500136E-1,9.612858047E0
2.763453227E0,3.682950258E0,-8.293050766E0,-6.360000372E-1,9.096334958E0
2.765415892E0,3.682950258E0,-7.872000217E0,-7.510500550E-1,8.723335727E0
2.767378633E0,3.453000069E0,-7.488000393E0,-5.209500194E-1,8.262248379E0
2.769341351E0,3.337950230E0,-7.066950321E0,-4.440000355E-1,7.828207624E0
2.771304175E0,3.223050117E0,-6.645000458E0,-3.289500177E-1,7.392718800E0
2.773266967E0,3.147000074E0,-6.300000191E0,-1.759500057E-1,7.044470901E0
2.775229703E0,2.992950201E0,-5.878950119E0,-6.105000153E-2,6.597236733E0
2.777192445E0,2.917050123E0,-5.533950329E0,-2.205000073E-2,6.255739274E0
2.779154858E0,2.686950207E0,-5.227050304E0,1.680000126E-1,5.879624163E0
2.781117368E0,2.572050095E0,-4.882050037E0,1.300500035E-1,5.519670938E0
2.783079326E0,2.494950056E0,-4.575000286E0,1.680000126E-1,5.213792037E0
2.785041445E0,2.304000139E0,-4.306950092E0,3.600000143E-1,4.897737820E0
2.787004251E0,2.111999989E0,-4.000950336E0,4.360500276E-1,4.545138851E0
2.788966876E0,1.959000111E0,-3.655950069E0,4.750500321E-1,4.174844294E0
2.790929356E0,1.767000079E0,-3.349050045E0,5.130000114E-1,3.821203278E0
2.792891878E0,1.804950118E0,-3.118950129E0,5.899500251E-1,3.651538835E0
2.794854643E0,1.767000079E0,-2.851050138E0,5.130000114E-1,3.393220474E0
2.796817337E0,1.729050040E0,-2.581950188E0,6.280500293E-1,3.170256717E0
2.798779625E0,1.575000048E0,-2.351999998E0,6.280500293E-1,2.899478570E0
2.800742032E0,1.422000051E0,-2.083950043E0,5.899500251E-1,2.590940554E0
2.802704322E0,1.384050012E0,-1.816050053E0,5.899500251E-1,2.358320008E0
2.804666647E0,1.345050097E0,-1.663050056E0,3.979500234E-1,2.175605541E0
2.806630393E0,1.498950124E0,-1.432950020E0,1.680000126E-1,2.080485818E0
2.808593722E0,1.498950124E0,-1.279050112E0,-2.205000073E-2,1.970610785E0
2.810555815E0,1.345050097E0,-9.340500236E-1,-2.520000041E-1,1.656838318E0
2.812518267E0,1.269000053E0,-6.280500293E-1,-2.520000041E-1,1.438162709E0
2.814480595E0,1.230000019E0,-4.740000367E-1,-2.910000086E-1,1.349910029E0
2.816442960E0,1.114950061E0,-2.830500007E-1,-4.440000355E-1,1.233031619E0
2.818405797E0,1.153950095E0,-1.680000126E-1,-5.970000029E-1,1.310051079E0
2.820368496E0,1.077000022E0,-9.105000645E-2,-6.360000372E-1,1.254079423E0
2.822329988E0,1.114950061E0,-1.500000060E-2,-6.739500165E-1,1.302899560E0
2.824291854E0,1.039050102E0,1.759500057E-1,-7.890000343E-1,1.316474297E0
2.826254597E0,9.619500637E-1,2.530499995E-1,-8.659500480E-1,1.318806928E0
2.828217083E0,1.000050068E0,3.289500177E-1,-9.040500522E-1,1.387665215E0
2.830179676E0,9.619500637E-1,4.440000355E-1,-9.420000315E-1,1.417691086E0
2.832142237E0,8.850000501E-1,5.590500236E-1,-9.810000658E-1,1.434616028E0
2.834104692E0,8.089500666E-1,5.980500579E-1,-1.057050109E0,1.459252896E0
2.836067171E0,7.699500322E-1,6.739500165E-1,-1.096050024E0,1.499452344E0
2.838029674E0,6.940500140E-1,7.890000343E-1,-1.134000063E0,1.546021545E0
2.839992169E0,6.169500351E-1,8.280000687E-1,-1.134000063E0,1.533677803E0
2.841954040E0,5.020500422E-1,9.430500269E-1,-1.171950102E0,1.585832475E0
2.843916094E0,4.639500082E-1,1.057950020E0,-1.287000060E0,1.729415222E0
2.845878435E0,2.719500065E-1,1.173000097E0,-1.363950014E0,1.819408056E0
2.847840698E0,1.570500135E-1,1.249050021E0,-1.402050018E0,1.884286315E0
2.849803194E0,8.100000024E-2,1.402950048E0,-1.441050053E0,2.012822668E0
2.851765621E0,-3.299999982E-2,1.518000126E0,-1.516950130E0,2.146287744E0
2.853728089E0,-7.200000435E-2,1.594050050E0,-1.632000089E0,2.282455663E0
2.855690544E0,-1.870500147E-1,1.708950043E0,-1.708950043E0,2.424047897E0
2.857652873E0,-2.629500031E-1,1.824000120E0,-1.900950074E0,2.647589531E0
2.859615239E0,-2.629500031E-1,1.824000120E0,-2.014950037E0,2.730593854E0
2.861577356E0,-2.629500031E-1,1.900950074E0,-2.206950188E0,2.924616730E0
2.863539546E0,-2.629500031E-1,2.016000032E0,-2.359950066E0,3.114925865E0
2.865501649E0,-3.019500077E-1,2.092950106E0,-2.475000143E0,3.255340176E0
2.867463777E0,-3.780000210E-1,2.131050110E0,-2.590050220E0,3.375295355E0
2.869425760E0,-4.170000255E-1,2.245950222E0,-2.667000055E0,3.511562432E0
2.871387782E0,-4.170000255E-1,2.284050226E0,-2.820000172E0,3.652831152E0
2.873349822E0,-4.549500346E-1,2.322000027E0,-3.012000084E0,3.830249099E0
2.875311857E0,-5.320500135E-1,2.361000061E0,-3.088950157E0,3.924157435E0
2.877274211E0,-6.079500318E-1,2.398950100E0,-3.127050161E0,3.987857512E0
2.879236472E0,-6.079500318E-1,2.361000061E0,-3.127050161E0,3.965144038E0
2.881199107E0,-5.700000525E-1,2.398950100E0,-3.049950123E0,3.921996608E0
2.883161630E0,-4.170000255E-1,2.398950100E0,-2.820000172E0,3.725755168E0
2.885123947E0,-3.780000210E-1,2.322000027E0,-2.704950094E0,3.584874217E0
2.887086325E0,-2.629500031E-1,2.245950222E0,-2.514000177E0,3.381365404E0
2.889048575E0,-1.099500060E-1,2.208000183E0,-2.359950066E0,3.233684914E0
2.891010863E0,8.100000024E-2,2.092950106E0,-2.130000114E0,2.987290015E0
2.892972994E0,2.719500065E-1,2.053950071E0,-1.900950074E0,2.811810606E0
2.894935171E0,4.639500082E-1,1.900950074E0,-1.555950046E0,2.499968268E0
2.896898086E0,6.940500140E-1,1.786050081E0,-1.210950017E0,2.266733389E0
2.898860784E0,1.000050068E0,1.594050050E0,-8.659500480E-1,2.071464502E0
2.900822981E0,1.269000053E0,1.441050053E0,-5.590500236E-1,1.999880826E0
2.902785325E0,1.422000051E0,1.249050021E0,-9.900000691E-2,1.895260167E0
2.904746571E0,1.729050040E0,1.096050024E0,2.449500114E-1,2.061780833E0
2.906708152E0,1.882050037E0,9.040500522E-1,5.899500251E-1,2.169668148E0
2.908670583E0,1.996950150E0,7.129500508E-1,1.011000037E0,2.349091048E0
2.910632765E0,2.149950027E0,5.980500579E-1,1.318050027E0,2.591757100E0
2.912595095E0,2.188950062E0,4.830000103E-1,1.510050058E0,2.702784224E0
2.914557381E0,2.227050066E0,3.289500177E-1,1.777950048E0,2.868634952E0
2.916519892E0,2.265000105E0,2.140500098E-1,2.046000004E0,3.059764517E0
2.918482323E0,2.188950062E0,1.759500057E-1,2.314950228E0,3.190839284E0
2.920444790E0,2.111999989E0,1.759500057E-1,2.545050144E0,3.311915245E0
2.922407246E0,2.035050154E0,1.759500057E-1,2.698050022E0,3.384059907E0
2.924369664E0,1.959000111E0,1.759500057E-1,2.773950100E0,3.400505697E0
2.926332094E0,1.804950118E0,1.759500057E-1,2.851050138E0,3.378948094E0
2.928294575E0,1.690050125E0,1.759500057E-1,2.812950134E0,3.286322609E0
2.930257030E0,1.614000082E0,2.140500098E-1,2.773950100E0,3.216459673E0
2.932219313E0,1.537050128E0,3.289500177E-1,2.659050226E0,3.088896132E0
2.934181647E0,1.384050012E0,3.289500177E-1,2.659050226E0,3.015684111E0
2.936144129E0,1.345050097E0,4.440000355E-1,2.545050144E0,2.912657898E0
2.938106568E0,1.306950092E0,4.440000355E-1,2.467950106E0,2.827725641E0
2.940069214E0,1.306950092E0,4.440000355E-1,2.391000032E0,2.760821568E0
2.942031799E0,1.269000053E0,4.060500264E-1,2.353049994E0,2.704086173E0
2.943994286E0,1.192050099E0,4.440000355E-1,2.200050116E0,2.541326422E0
2.945956801E0,1.153950095E0,3.679500222E-1,2.200050116E0,2.511415647E0
2.947919208E0,1.039050102E0,4.440000355E-1,2.122950077E0,2.404927894E0
2.949881647E0,1.039050102E0,4.060500264E-1,2.122950077E0,2.398211577E0
2.951843811E0,1.000050068E0,3.679500222E-1,1.969950080E0,2.239685396E0
2.953806046E0,9.619500637E-1,3.289500177E-1,1.969950080E0,2.216812883E0
2.955768545E0,9.240000248E-1,2.530499995E-1,2.008050203E0,2.224876618E0
2.957730967E0,8.470500112E-1,2.910000086E-1,1.969950080E0,2.163995851E0
2.959693435E0,8.089500666E-1,2.140500098E-1,1.969950080E0,2.140308607E0
2.961655890E0,6.940500140E-1,2.140500098E-1,1.969950080E0,2.099577611E0
2.963618478E0,6.550500393E-1,2.910000086E-1,2.008050203E0,2.132143799E0
2.965581034E0,6.940500140E-1,1.759500057E-1,2.046000004E0,2.167666912E0
2.967543345E0,6.940500140E-1,9.900000691E-2,2.085000038E0,2.199711704E0
2.969505728E0,8.089500666E-1,6.105000153E-2,1.930950046E0,2.094443934E0
2.971469239E0,8.470500112E-1,2.295000106E-2,1.893000126E0,2.073998530E0
2.973432419E0,9.240000248E-1,-9.105000645E-2,1.777950048E0,2.005784765E0
2.975394443E0,9.240000248E-1,-9.105000645E-2,1.701000094E0,1.937902854E0
2.977356805E0,8.089500666E-1,-1.290000081E-1,1.701000094E0,1.887973128E0
2.979319282E0,7.320000529E-1,-1.290000081E-1,1.585950017E0,1.751485808E0
2.981281726E0,8.470500112E-1,-1.680000126E-1,1.624950051E0,1.840157709E0
2.983244147E0,8.470500112E-1,-2.059500068E-1,1.548000097E0,1.776573508E0
2.985206575E0,8.850000501E-1,-2.059500068E-1,1.624950051E0,1.861747341E0
2.987168862E0,9.240000248E-1,-2.440500110E-1,1.624950051E0,1.885152281E0
2.989131190E0,1.039050102E0,-3.589500189E-1,1.740000129E0,2.058171684E0
2.991093134E0,1.039050102E0,-3.979500234E-1,1.701000094E0,2.032582263E0
2.993055190E0,1.153950095E0,-4.740000367E-1,1.740000129E0,2.140999137E0
2.995017900E0,1.114950061E0,-5.509500504E-1,1.855050087E0,2.233354074E0
2.996980419E0,1.269000053E0,-5.509500504E-1,2.008050203E0,2.438477540E0
2.998942834E0,1.306950092E0,-6.280500293E-1,2.200050116E0,2.634916677E0
3.000905306E0,1.306950092E0,-6.660000086E-1,2.314950228E0,2.740560000E0
3.002867630E0,1.345050097E0,-6.660000086E-1,2.391000032E0,2.823047454E0
3.004829998E0,1.345050097E0,-6.280500293E-1,2.353049994E0,2.782166579E0
3.006792610E0,1.306950092E0,-6.280500293E-1,2.238000154E0,2.666685222E0
3.008755150E0,1.306950092E0,-5.130000114E-1,2.046000004E0,2.481411609E0
3.010717817E0,1.306950092E0,-4.360500276E-1,1.777950048E0,2.249303124E0
3.012680419E0,1.306950092E0,-3.589500189E-1,1.510050058E0,2.029092122E0
3.014642722E0,1.345050097E0,-2.830500007E-1,1.432950020E0,1.985603894E0
3.016605113E0,1.306950092E0,-2.440500110E-1,1.087950110E0,1.717938996E0
3.018568847E0,1.345050097E0,-1.680000126E-1,3.600000143E-1,1.402491988E0
3.020532188E0,1.614000082E0,-2.059500068E-1,-6.739500165E-1,1.761141759E0
3.022494690E0,2.074050188E0,-3.589500189E-1,-2.514000177E0,3.278830003E0
3.024457431E0,2.764050245E0,-5.130000114E-1,-5.772000313E0,6.420212643E0
3.026419799E0,3.568050146E0,-7.810500264E-1,-9.336000443E0,1.002506485E1
3.028382277E0,4.411950111E0,-1.164000034E0,-1.251705074E1,1.332279097E1
3.030344780E0,4.909950256E0,-1.318050027E0,-1.309200096E1,1.404440659E1
3.032307275E0,4.909950256E0,-1.203000069E0,-1.125195026E1,1.233536402E1
3.034269870E0,4.488000393E0,-1.011000037E0,-9.220950127E0,1.030486244E1
3.036232433E0,3.913050175E0,-8.190000653E-1,-7.573050499E0,8.563516605E0
3.038194923E0,3.147000074E0,-4.740000367E-1,-6.154950142E0,6.929047319E0
3.040157435E0,2.341950178E0,-2.059500068E-1,-4.813050270E0,5.356547297E0
3.042118761E0,1.498950124E0,6.105000153E-2,-3.549000263E0,3.853048331E0
3.044080435E0,8.470500112E-1,4.830000103E-1,-2.475000143E0,2.660151958E0
3.046042116E0,3.109500110E-1,8.659500480E-1,-1.594050050E0,1.840531161E0
3.048003804E0,-7.200000435E-2,1.210950017E0,-1.057050109E0,1.609017985E0
3.049966759E0,-4.930500090E-1,1.671000123E0,-8.269500136E-1,1.928519133E0
3.051929342E0,-7.620000243E-1,2.053950071E0,-9.420000315E-1,2.384684254E0
3.053891963E0,-8.770500422E-1,2.284050226E0,-1.249050021E0,2.747039892E0
3.055854573E0,-8.380500674E-1,2.437050104E0,-1.824000120E0,3.157295926E0
3.057816830E0,-4.930500090E-1,2.437050104E0,-2.245050192E0,3.350009237E0
3.059779190E0,-3.299999982E-2,2.245950222E0,-2.322000027E0,3.230644754E0
3.061742254E0,5.790000558E-1,1.978050113E0,-2.053950071E0,2.909748135E0
3.063705111E0,1.153950095E0,1.555950046E0,-1.594050050E0,2.508700247E0
3.065667326E0,1.537050128E0,1.134000063E0,-1.402050018E0,2.369435269E0
3.067629729E0,2.074050188E0,5.209500194E-1,-1.326000094E0,2.516217271E0
3.069593080E0,2.610000134E0,-5.295000225E-2,-1.249050021E0,2.893964470E0
3.071556168E0,2.955000162E0,-4.740000367E-1,-1.326000094E0,3.273374137E0
3.073518298E0,3.184950113E0,-1.126049995E0,-1.632000089E0,3.751708958E0
3.075480709E0,3.223050117E0,-1.701000094E0,-2.169000149E0,4.240992222E0
3.077443044E0,3.108000040E0,-2.275950193E0,-2.935050249E0,4.842946778E0
3.079405401E0,2.955000162E0,-2.965950251E0,-4.084949970E0,5.849419040E0
3.081367650E0,2.839950085E0,-3.847050190E0,-5.617950439E0,7.377430365E0
3.083329934E0,2.686950207E0,-4.959000111E0,-7.534950256E0,9.412059226E0
3.085292425E0,2.457000017E0,-6.031950474E0,-9.220950127E0,1.128925139E1
3.087254856E0,2.111999989E0,-6.837000370E0,-1.002600002E1,1.231770248E1
3.089217189E0,1.843950033E0,-7.411950588E0,-9.988050461E0,1.257371525E1
3.091179550E0,1.575000048E0,-7.488000393E0,-8.608050346E0,1.151734804E1
3.093142042E0,1.422000051E0,-7.219950199E0,-6.040050507E0,9.520082728E0
3.095104485E0,1.269000053E0,-6.684000492E0,-3.127050161E0,7.487634234E0
3.097065103E0,8.850000501E-1,-5.955000401E0,-7.890000343E-1,6.071884050E0
3.099026256E0,3.870000243E-1,-5.304000378E0,1.548000097E0,5.538816961E0
3.100988806E0,4.200000316E-2,-4.690050125E0,3.618000269E0,5.923534428E0
3.102950946E0,-3.019500077E-1,-4.269000053E0,4.806000233E0,6.435306791E0
3.104913380E0,-5.320500135E-1,-3.924000263E0,5.227050304E0,6.557660419E0
3.106875755E0,-8.380500674E-1,-3.808950186E0,5.419050217E0,6.676566085E0
3.108838277E0,-9.150000215E-1,-3.924000263E0,5.611050129E0,6.907885831E0
3.110800755E0,-1.183050036E0,-4.192049980E0,5.496000290E0,7.012767614E0
3.112762989E0,-1.795950055E0,-4.804950237E0,4.996950150E0,7.161179664E0
3.114725295E0,-2.985000134E0,-7.833000183E0,5.151000023E0,9.838644160E0
3.116687408E0,-5.706000328E0,-1.634205055E1,4.843950272E0,1.797456287E1
3.118649588E0,-9.844950676E0,-2.255100060E1,5.151000023E0,2.513967945E1
3.120611737E0,-1.567095089E1,-2.692005157E1,5.725950241E0,3.167103384E1
3.122573896E0,-1.797105026E1,-3.554400253E1,4.806000233E0,4.011773176E1
3.124536228E0,-1.785600090E1,-4.650600052E1,6.646050453E0,5.025748540E1
3.126498509E0,-1.751100159E1,-5.593395233E1,1.120695019E1,5.967275704E1
3.128460502E0,-1.770195007E1,-6.313995361E1,1.484805107E1,6.723449561E1
3.130422583E0,-1.670595169E1,-6.988605499E1,1.680195045E1,7.379332655E1
3.132384389E0,-1.360095024E1,-7.624800110E1,1.588305092E1,7.906335956E1
3.134346275E0,-8.809950829E0,-7.850895691E1,1.615095139E1,8.063575373E1
3.136309736E0,-2.256000042E0,-7.850895691E1,1.948500061E1,8.092225343E1
3.138272735E0,5.638050079E0,-7.850895691E1,1.810605049E1,8.076678146E1
3.140235627E0,1.338000107E1,-7.850895691E1,1.369800091E1,8.081037045E1
3.142198564E0,2.296200180E1,-7.850895691E1,-6.538050175E0,8.205885657E1
3.144161079E0,3.361695099E1,-7.850895691E1,-3.137400055E1,9.098397452E1
3.146123718E0,3.875295258E1,-7.850895691E1,-3.850305176E1,9.564482549E1
3.148086014E0,4.143600082E1,-7.850895691E1,-4.237395096E1,9.836742448E1
3.150048410E0,3.925095367E1,-7.778100586E1,-3.559005356E1,9.411256106E1
3.152010513E0,3.438405228E1,-6.965595245E1,-2.290395164E1,8.098645420E1
3.153972709E0,2.829000092E1,-5.942205429E1,-1.048605061E1,6.664279365E1
3.155934089E0,2.292405128E1,-5.041500092E1,-7.510500550E-1,5.538725955E1
3.157895709E0,1.801800156E1,-4.275000381E1,5.419050217E0,4.670735822E1
3.159857998E0,1.384005070E1,-3.657900238E1,8.179050446E0,3.995581666E1
3.161820091E0,9.853950500E0,-3.132795143E1,8.101950645E0,3.382576659E1
3.163782654E0,5.868000507E0,-2.703495216E1,6.376950264E0,2.838992010E1
3.165745052E0,2.955000162E0,-2.381595039E1,3.310950041E0,2.422589336E1
3.167708426E0,1.575000048E0,-2.151600075E1,8.200500607E-1,2.158914995E1
3.169671514E0,1.269000053E0,-1.960005188E1,-9.040500522E-1,1.966188448E1
3.171633328E0,1.153950095E0,-1.795200157E1,-1.900950074E0,1.808921149E1
3.173595516E0,8.089500666E-1,-1.649505043E1,-2.206950188E0,1.666168413E1
3.175557258E0,1.570500135E-1,-1.546095085E1,-2.284050226E0,1.562954098E1
3.177519131E0,-3.780000210E-1,-1.492395115E1,-2.820000172E0,1.519274836E1
3.179481558E0,-9.529500604E-1,-1.492395115E1,-2.514000177E0,1.516418902E1
3.181443822E0,-1.068000078E0,-1.523100090E1,-1.708950043E0,1.536374052E1
3.183406092E0,-9.150000215E-1,-1.565205097E1,-7.510500550E-1,1.569675128E1
3.185368360E0,-6.469500065E-1,-1.622700119E1,1.300500035E-1,1.624041332E1
3.187330154E0,-1.099500060E-1,-1.707000160E1,6.280500293E-1,1.708190535E1
3.189292074E0,4.639500082E-1,-1.764495087E1,1.126049995E0,1.768693103E1
3.191254852E0,9.240000248E-1,-1.814295006E1,1.356000066E0,1.821700165E1
3.193217379E0,1.384050012E0,-1.860300064E1,1.356000066E0,1.870363503E1
3.195179470E0,1.882050037E0,-1.914000130E1,1.165050030E0,1.926756610E1
3.197141689E0,2.227050066E0,-1.948500061E1,1.318050027E0,1.965609973E1
3.199103960E0,2.419050217E0,-1.998300171E1,1.432950020E0,2.017982921E1
3.201066220E0,2.265000105E0,-2.021295166E1,1.432950020E0,2.038987460E1
3.203028581E0,2.074050188E0,-2.040495110E1,1.318050027E0,2.055239571E1
3.204990913E0,1.804950118E0,-2.063505173E1,1.279950023E0,2.075334857E1
3.206952857E0,1.614000082E0,-2.109495163E1,1.395000100E0,2.120254715E1
3.208914915E0,1.306950092E0,-2.124795151E1,1.279950023E0,2.132655232E1
3.210877020E0,1.153950095E0,-2.136300087E1,8.200500607E-1,2.140985495E1
3.212839125E0,1.000050068E0,-2.143995094E1,6.280500293E-1,2.147244847E1
3.214802053E0,9.619500637E-1,-2.140095139E1,5.899500251E-1,2.143068149E1
3.216764740E0,1.000050068E0,-2.140095139E1,2.449500114E-1,2.142570468E1
3.218726983E0,1.077000022E0,-2.140095139E1,1.500000060E-2,2.142803944E1
3.220689357E0,1.114950061E0,-2.124795151E1,1.500000060E-2,2.127718924E1
3.222651659E0,1.269000053E0,-2.109495163E1,-6.105000153E-2,2.113317469E1
3.224613978E0,1.306950092E0,-2.086500168E1,-1.369500011E-1,2.090634279E1
3.226576418E0,1.345050097E0,-2.055795097E1,-9.900000691E-2,2.060214331E1
3.228538822E0,1.498950124E0,-2.029005051E1,1.680000126E-1,2.034603708E1
3.230500438E0,1.804950118E0,-2.005995178E1,5.899500251E-1,2.014962907E1
3.232462285E0,2.188950062E0,-1.963800049E1,1.011000037E0,1.978546655E1
3.234424621E0,2.265000105E0,-1.921695137E1,1.279950023E0,1.939225922E1
3.236386817E0,2.304000139E0,-1.875705147E1,1.432950020E0,1.895227538E1
3.238348830E0,2.265000105E0,-1.825800133E1,1.471050024E0,1.845667430E1
3.240310896E0,2.265000105E0,-1.779900169E1,1.548000097E0,1.800919185E1
3.242273019E0,2.304000139E0,-1.733895111E1,1.930950046E0,1.759761945E1
3.244235125E0,2.304000139E0,-1.687905121E1,2.238000154E0,1.718195073E1
3.246197526E0,2.380050182E0,-1.638000107E1,2.353049994E0,1.671843049E1
3.248159831E0,2.304000139E0,-1.591995049E1,2.391000032E0,1.626253736E1
3.250121915E0,2.304000139E0,-1.542195034E1,2.620950222E0,1.581184205E1
3.252084064E0,2.572050095E0,-1.515405083E1,2.889000177E0,1.563991752E1
3.254046217E0,2.572050095E0,-1.465605068E1,3.081000090E0,1.519565151E1
3.256008369E0,2.610000134E0,-1.419600105E1,3.118950129E0,1.476707136E1
3.257970585E0,2.686950207E0,-1.369695091E1,3.234000206E0,1.432776755E1
3.259932770E0,2.686950207E0,-1.316100025E1,3.273000240E0,1.382548949E1
3.261894739E0,2.533950090E0,-1.250895023E1,3.118950129E0,1.313859159E1
3.263856772E0,2.380050182E0,-1.181895065E1,2.889000177E0,1.239752215E1
3.265818586E0,2.457000017E0,-1.120605087E1,2.773950100E0,1.180284815E1
3.267780464E0,2.457000017E0,-1.063095093E1,2.659050226E0,1.123051712E1
