"Time (s)","Acceleration x (m/s^2)","Acceleration y (m/s^2)","Acceleration z (m/s^2)","Absolute acceleration (m/s^2)"
3.684809900E-2,-3.299999982E-2,-9.105000645E-2,3.502950191E0,3.504288679E0
3.880994600E-2,-1.870500147E-1,-1.500000060E-2,3.963000298E0,3.967440493E0
4.077448300E-2,-3.780000210E-1,6.105000153E-2,4.345950127E0,4.362785076E0
4.273789500E-2,-6.850500107E-1,2.140500098E-1,4.729050159E0,4.783202519E0
4.470163700E-2,-8.770500422E-1,3.289500177E-1,5.266050339E0,5.348711159E0
4.666526200E-2,-1.106999993E0,4.060500264E-1,5.725950241E0,5.846095430E0
4.862893100E-2,-1.375050068E0,4.830000103E-1,6.301050186E0,6.467401731E0
5.059208600E-2,-1.605000019E0,5.980500579E-1,6.876000404E0,7.086118154E0
5.255539200E-2,-1.834950089E0,6.739500165E-1,7.450050354E0,7.702239982E0
5.451915000E-2,-2.140950203E0,7.129500508E-1,7.872000217E0,8.189038586E0
5.648277500E-2,-2.410050154E0,9.430500269E-1,8.446949959E0,8.834514627E0
5.844630900E-2,-2.640000105E0,1.096050024E0,8.754000664E0,9.208879076E0
6.040986300E-2,-2.640000105E0,1.210950017E0,9.136950493E0,9.587484801E0
6.237380300E-2,-2.256000042E0,1.402950048E0,9.520050049E0,9.883782573E0
6.433763000E-2,-2.524950027E0,1.594050050E0,9.979950905E0,1.041709116E1
6.630130100E-2,-2.640000105E0,1.747950077E0,9.979950905E0,1.047016476E1
6.826501700E-2,-2.295000076E0,1.863000035E0,8.983950615E0,9.457756771E0
7.022871400E-2,-2.065050125E0,1.900950074E0,8.677050591E0,9.119717658E0
7.219241000E-2,-1.758000135E0,1.863000035E0,7.756950378E0,8.168941962E0
7.415623600E-2,-1.567050099E0,1.978050113E0,7.029000282E0,7.468277796E0
7.612002400E-2,-1.297950029E0,2.016000032E0,6.568950176E0,6.992856128E0
7.808392500E-2,-1.144950032E0,2.169000149E0,6.109050274E0,6.583005960E0
8.004779300E-2,-9.919500351E-1,2.208000183E0,5.457000256E0,5.969763938E0
8.201164100E-2,-8.380500674E-1,2.398950100E0,4.959000111E0,5.572160406E0
8.397549200E-2,-6.850500107E-1,2.514000177E0,4.308000088E0,5.034715003E0
8.593915700E-2,-5.320500135E-1,2.706000090E0,3.579000235E0,4.518269180E0
8.790287700E-2,-3.019500077E-1,2.743950129E0,2.773950100E0,3.913468445E0
8.986652000E-2,-2.250000089E-1,2.743950129E0,1.855050087E0,3.319803931E0
9.183018500E-2,-3.299999982E-2,2.667000055E0,1.011000037E0,2.852384857E0
9.379465200E-2,1.189500093E-1,2.476050138E0,-6.105000153E-2,2.479657334E0
9.575888000E-2,2.719500065E-1,2.284050226E0,-9.810000658E-1,2.500640592E0
9.772261600E-2,4.260000288E-1,2.053950071E0,-1.939050078E0,2.856589247E0
9.968649700E-2,4.639500082E-1,1.863000035E0,-2.590050220E0,3.224031465E0
1.016507420E-1,6.550500393E-1,1.747950077E0,-3.088950157E0,3.609159611E0
1.036148800E-1,7.699500322E-1,1.708950043E0,-3.472050190E0,3.945689524E0
1.055783450E-1,8.850000501E-1,1.708950043E0,-3.778950214E0,4.240778238E0
1.075419870E-1,8.850000501E-1,1.708950043E0,-3.970050097E0,4.411919436E0
1.095055080E-1,8.850000501E-1,1.555950046E0,-4.047000408E0,4.425202587E0
1.114690640E-1,1.000050068E0,1.479000092E0,-3.931950092E0,4.318306721E0
1.134327790E-1,1.114950061E0,1.555950046E0,-3.472050190E0,3.964748000E0
1.153964470E-1,1.306950092E0,1.555950046E0,-3.012000084E0,3.633351565E0
1.173599740E-1,1.422000051E0,1.441050053E0,-2.667000055E0,3.348372544E0
1.193235360E-1,1.804950118E0,9.810000658E-1,-2.551950216E0,3.276073254E0
1.212879700E-1,2.149950027E0,2.140500098E-1,-2.590050220E0,3.372901225E0
1.232521490E-1,2.227050066E0,-3.589500189E-1,-2.398950100E0,3.292955921E0
1.252160740E-1,2.035050154E0,-9.340500236E-1,-2.053950071E0,3.038517644E0
1.271800740E-1,1.614000082E0,-1.585950017E0,-1.939050078E0,2.979957873E0
1.291437540E-1,1.230000019E0,-2.122950077E0,-1.861950040E0,3.080044647E0
1.311075310E-1,8.850000501E-1,-2.697000027E0,-1.824000120E0,3.374019957E0
1.330702620E-1,5.020500422E-1,-3.349050045E0,-1.824000120E0,3.846448607E0
1.350333000E-1,2.340000123E-1,-4.000950336E0,-1.786050081E0,4.387748226E0
1.369969230E-1,4.050000105E-3,-4.690050125E0,-1.671000123E0,4.978838016E0
1.389603750E-1,-3.019500077E-1,-5.494950294E0,-1.786050081E0,5.785812600E0
1.409242750E-1,-5.700000525E-1,-6.415050507E0,-2.169000149E0,6.795758582E0
1.428880530E-1,-9.150000215E-1,-7.488000393E0,-2.820000172E0,8.053556723E0
1.448515510E-1,-1.144950032E0,-8.830050468E0,-3.664050102E0,9.628393688E0
1.468151320E-1,-1.413000107E0,-1.040100002E1,-4.852050304E0,1.156372617E1
1.487790670E-1,-1.795950055E0,-1.224105072E1,-5.809950352E0,1.366836795E1
1.507428990E-1,-2.295000076E0,-1.454100037E1,-6.232050419E0,1.598581150E1
1.527065730E-1,-3.100050211E0,-1.691700172E1,-5.235000134E0,1.797777753E1
1.546702900E-1,-4.018949986E0,-1.933200073E1,-3.204000235E0,2.000359540E1
1.566334370E-1,-4.594050407E0,-2.186100197E1,-9.810000658E-1,2.236003281E1
1.585967510E-1,-5.092950344E0,-2.450595093E1,9.349500537E-1,2.504703387E1
1.605608230E-1,-5.361000061E0,-2.722695160E1,1.279950023E0,2.777922762E1
1.625246720E-1,-5.553000450E0,-2.979495049E1,5.130000114E-1,3.031234167E1
1.644892950E-1,-5.743950367E0,-3.232500076E1,-8.659500480E-1,3.284278474E1
1.664536830E-1,-5.898000240E0,-3.489300156E1,-3.510000229E0,3.556160944E1
1.684172120E-1,-5.782950401E0,-3.726900101E1,-5.772000313E0,3.815412087E1
1.703809930E-1,-5.553000450E0,-3.976005173E1,-8.110050201E0,4.095693399E1
1.723446700E-1,-4.863000393E0,-4.202205276E1,-9.643050194E0,4.338767231E1
1.743083780E-1,-4.173000336E0,-4.390005112E1,-1.060095024E1,4.535425631E1
1.762719460E-1,-3.367950201E0,-4.497300339E1,-1.048605061E1,4.630195870E1
1.782355460E-1,-2.295000076E0,-4.608405304E1,-1.021800041E1,4.725901504E1
1.801992530E-1,-9.529500604E-1,-4.681305313E1,-9.643050194E0,4.780542306E1
1.821629280E-1,2.719500065E-1,-4.742595291E1,-8.377950668E0,4.816103221E1
1.841273000E-1,1.498950124E0,-4.780905151E1,-7.420050144E0,4.840464236E1
1.860914670E-1,2.610000134E0,-4.815405273E1,-5.887050152E0,4.858273618E1
1.880552400E-1,3.453000069E0,-4.849905396E1,-4.276950359E0,4.880956616E1
1.900191420E-1,4.450050354E0,-4.911195374E1,-2.935050249E0,4.940041971E1
1.919828440E-1,5.331000328E0,-4.934205246E1,-2.245050192E0,4.967995527E1
1.939466040E-1,6.595950127E0,-4.976400375E1,-1.977000117E0,5.023814444E1
1.959105990E-1,7.746000290E0,-4.957200241E1,-2.284050226E0,5.022549979E1
1.978745250E-1,8.934000015E0,-4.957200241E1,-2.820000172E0,5.044950129E1
1.998382560E-1,9.816000938E0,-4.930395126E1,-2.935050249E0,5.035720410E1
2.018020210E-1,1.035195065E1,-4.899705124E1,-3.049950123E0,5.017146707E1
2.037658800E-1,1.035195065E1,-4.834605408E1,-3.049950123E0,4.953590640E1
2.057297120E-1,9.318000793E0,-4.708095169E1,-2.743950129E0,4.807255364E1
2.076935160E-1,8.128950119E0,-4.535595322E1,-2.629050016E0,4.615359386E1
2.096573290E-1,6.595950127E0,-4.282605362E1,-3.088950157E0,4.344098341E1
2.116206570E-1,4.143000126E0,-3.960705185E1,-3.894000292E0,4.001307592E1
2.135841470E-1,2.149950027E0,-3.631095123E1,-5.119950294E0,3.673310980E1
2.155469280E-1,6.550500393E-1,-3.336000061E1,-5.848050117E0,3.387504128E1
2.175099160E-1,-6.850500107E-1,-3.075300217E1,-6.730050087E0,3.148825194E1
2.194737730E-1,-1.987950087E0,-2.837700081E1,-7.228050232E0,2.935048263E1
2.214373760E-1,-3.253050089E0,-2.634600067E1,-7.305000305E0,2.753283704E1
2.234011990E-1,-4.479000092E0,-2.473605156E1,-6.997950554E0,2.609415644E1
2.253649710E-1,-5.743950367E0,-2.308800125E1,-6.538050175E0,2.467376882E1
2.273286510E-1,-7.047000408E0,-2.178495026E1,-5.809950352E0,2.362201929E1
2.292923580E-1,-8.082000732E0,-2.055795097E1,-4.966950417E0,2.264108391E1
2.312559130E-1,-9.193950653E0,-1.948500061E1,-4.315050125E0,2.197302062E1
2.332195120E-1,-1.007505035E1,-1.837305069E1,-3.664050102E0,2.127206841E1
2.351833950E-1,-1.057395077E1,-1.741500092E1,-3.088950157E0,2.060660828E1
2.371471980E-1,-1.084200096E1,-1.653404999E1,-2.514000177E0,1.993098068E1
2.391110510E-1,-1.091805077E1,-1.580505085E1,-1.861950040E0,1.929949022E1
2.410748900E-1,-1.107195091E1,-1.511595058E1,-1.171950102E0,1.877374566E1
2.430385130E-1,-1.091805077E1,-1.477095032E1,-5.209500194E-1,1.837542366E1
2.450022000E-1,-1.087995052E1,-1.442595100E1,-1.759500057E-1,1.806965257E1
2.469661120E-1,-1.065000057E1,-1.442595100E1,5.295000225E-2,1.793135182E1
2.489299620E-1,-1.038195038E1,-1.446405029E1,1.500000060E-2,1.780432165E1
2.508939430E-1,-9.960000038E0,-1.465605068E1,9.195000678E-2,1.772032384E1
2.528578850E-1,-9.462000847E0,-1.492395115E1,1.500000060E-2,1.767071031E1
2.548217160E-1,-9.001950264E0,-1.523100090E1,9.195000678E-2,1.769256770E1
2.567855800E-1,-8.542050362E0,-1.549905109E1,5.295000225E-2,1.769717528E1
2.587490680E-1,-8.197050095E0,-1.576695061E1,1.680000126E-1,1.777122916E1
2.607126620E-1,-7.891050339E0,-1.607400131E1,3.220500052E-1,1.790938050E1
2.626763700E-1,-7.584000587E0,-1.653404999E1,3.979500234E-1,1.819478601E1
2.646400440E-1,-7.468950272E0,-1.672500038E1,7.050000429E-1,1.833051775E1
2.666041000E-1,-7.276950359E0,-1.684005165E1,8.959500194E-1,1.836692877E1
2.685680440E-1,-7.086000443E0,-1.703205109E1,8.959500194E-1,1.846902523E1
2.705318790E-1,-6.856050491E0,-1.699394989E1,1.087950110E0,1.835710752E1
2.724957430E-1,-6.702000141E0,-1.703205109E1,1.050000072E0,1.833330495E1
2.744597650E-1,-6.586950302E0,-1.699394989E1,8.959500194E-1,1.824787587E1
2.764237410E-1,-6.319050312E0,-1.699394989E1,6.280500293E-1,1.814164206E1
2.783884660E-1,-6.204000473E0,-1.695495033E1,3.220500052E-1,1.805723342E1
2.803529710E-1,-6.051000118E0,-1.672500038E1,1.500000060E-2,1.778596259E1
2.823165700E-1,-5.859000206E0,-1.657200050E1,-3.289500177E-1,1.758030979E1
2.842804350E-1,-5.706000328E0,-1.638000107E1,-8.269500136E-1,1.736510066E1
2.862444120E-1,-5.476050377E0,-1.603499985E1,-1.287000060E0,1.699307850E1
2.882083560E-1,-5.245950222E0,-1.591995049E1,-1.632000089E0,1.684126603E1
2.901716910E-1,-5.208000183E0,-1.569000053E1,-1.977000117E0,1.664956192E1
2.921352040E-1,-5.284050465E0,-1.542195034E1,-2.092050076E0,1.643576634E1
2.940990380E-1,-5.208000183E0,-1.511595058E1,-1.977000117E0,1.610974107E1
2.960627940E-1,-5.053950310E0,-1.465605068E1,-1.900950074E0,1.561908597E1
2.980266560E-1,-4.939050198E0,-1.411905098E1,-1.516950130E0,1.503472498E1
2.999904860E-1,-4.671000004E0,-1.373595047E1,-1.134000063E0,1.455268128E1
3.019545150E-1,-4.249050140E0,-1.339095020E1,-5.970000029E-1,1.406159249E1
3.039184860E-1,-3.790050268E0,-1.304595089E1,-9.900000691E-2,1.358569530E1
3.058814110E-1,-3.253050089E0,-1.270095062E1,5.899500251E-1,1.312419608E1
3.078446420E-1,-2.716050148E0,-1.235595036E1,6.660000086E-1,1.266846453E1
3.098080520E-1,-2.218050003E0,-1.204905033E1,7.050000429E-1,1.227177187E1
3.117714090E-1,-1.873050094E0,-1.181895065E1,1.011000037E0,1.200908124E1
3.137353390E-1,-1.567050099E0,-1.124400043E1,1.126049995E0,1.140838202E1
3.156991010E-1,-1.222050071E0,-1.078500080E1,1.011000037E0,1.090099857E1
3.176627990E-1,-9.919500351E-1,-1.028595066E1,9.349500537E-1,1.037587960E1
3.196265360E-1,-6.850500107E-1,-9.826050758E0,8.959500194E-1,9.890565882E0
3.215903550E-1,-1.870500147E-1,-9.405000687E0,1.126049995E0,9.474017850E0
3.235541490E-1,2.340000123E-1,-8.868000031E0,8.200500607E-1,8.908909173E0
3.255196270E-1,6.550500393E-1,-8.599950790E0,5.130000114E-1,8.640104928E0
3.274846110E-1,8.850000501E-1,-8.178000450E0,2.449500114E-1,8.229393475E0
3.294481620E-1,1.039050102E0,-7.909950256E0,-1.369500011E-1,7.979078485E0
3.314121080E-1,1.306950092E0,-7.488000393E0,-5.970000029E-1,7.624609986E0
3.333758920E-1,1.498950124E0,-7.066950321E0,-9.040500522E-1,7.280518169E0
3.353397240E-1,1.767000079E0,-6.684000492E0,-1.287000060E0,7.032390846E0
3.373028960E-1,2.035050154E0,-6.147000313E0,-1.594050050E0,6.668435914E0
3.392662620E-1,2.149950027E0,-5.725050449E0,-1.861950040E0,6.392600857E0
3.412300330E-1,2.227050066E0,-5.380050182E0,-2.284050226E0,6.254724406E0
3.431936690E-1,2.227050066E0,-5.112000465E0,-2.820000172E0,6.248575976E0
3.451576860E-1,2.188950062E0,-4.767000198E0,-3.280050039E0,6.186640569E0
3.471215920E-1,2.035050154E0,-4.422000408E0,-3.702000141E0,6.115580249E0
3.490852490E-1,1.843950033E0,-4.000950336E0,-3.817050219E0,5.829033169E0
3.510489790E-1,1.690050125E0,-3.579000235E0,-3.970050097E0,5.605961994E0
3.530126940E-1,1.537050128E0,-3.196050167E0,-4.200000286E0,5.497023028E0
3.549764240E-1,1.384050012E0,-2.773950100E0,-4.468050003E0,5.438185766E0
3.569401110E-1,1.306950092E0,-2.351999998E0,-4.582950115E0,5.314457102E0
3.589038100E-1,1.269000053E0,-2.008050203E0,-4.774950027E0,5.333176776E0
3.608676350E-1,1.230000019E0,-1.624050021E0,-4.813050270E0,5.226460697E0
3.628314230E-1,1.269000053E0,-1.318050027E0,-4.852050304E0,5.185557749E0
3.647951780E-1,1.306950092E0,-1.048950076E0,-4.927950382E0,5.205104204E0
3.667589200E-1,1.384050012E0,-7.429500222E-1,-4.927950382E0,5.172259094E0
3.687227830E-1,1.498950124E0,-4.740000367E-1,-4.966950417E0,5.209810356E0
3.706866100E-1,1.614000082E0,-2.440500110E-1,-4.890000343E0,5.155255574E0
3.726495140E-1,1.767000079E0,-9.105000645E-2,-4.660050392E0,4.984641315E0
3.746126890E-1,1.882050037E0,9.900000691E-2,-4.315050125E0,4.708669762E0
3.765762800E-1,2.035050154E0,2.530499995E-1,-4.123950005E0,4.605695069E0
3.785397550E-1,2.188950062E0,4.440000355E-1,-3.778950214E0,4.389658657E0
3.805033040E-1,2.380050182E0,5.980500579E-1,-3.433950186E0,4.220700963E0
3.824668320E-1,2.533950090E0,6.739500165E-1,-3.127050161E0,4.080876670E0
3.844303720E-1,2.725050211E0,6.739500165E-1,-2.820000172E0,3.979008450E0
3.863939090E-1,2.955000162E0,5.980500579E-1,-2.551950216E0,3.949954397E0
3.883576270E-1,3.223050117E0,4.830000103E-1,-2.359950066E0,4.023767561E0
3.903212920E-1,3.529950142E0,2.140500098E-1,-2.169000149E0,4.148605435E0
3.922858900E-1,3.645000219E0,-1.500000060E-2,-1.900950074E0,4.110944269E0
3.942502150E-1,3.798000097E0,-1.290000081E-1,-1.671000123E0,4.151347631E0
3.962134850E-1,3.913050175E0,-1.680000126E-1,-1.363950014E0,4.147354014E0
3.981770640E-1,4.027950287E0,-2.059500068E-1,-1.171950102E0,4.200031662E0
4.001407940E-1,4.105050087E0,-2.440500110E-1,-8.659500480E-1,4.202483327E0
4.021044660E-1,4.219950199E0,-3.589500189E-1,-5.970000029E-1,4.277059013E0
4.040683430E-1,4.219950199E0,-4.360500276E-1,-2.140500098E-1,4.247815523E0
4.060321590E-1,4.297049999E0,-5.890500546E-1,9.195000678E-2,4.338210860E0
4.079951100E-1,4.450050354E0,-6.280500293E-1,2.830500007E-1,4.503055884E0
4.099583140E-1,4.564949989E0,-6.280500293E-1,5.899500251E-1,4.645563074E0
4.119224580E-1,4.642050266E0,-6.660000086E-1,7.810500264E-1,4.754179827E0
4.138863210E-1,4.642050266E0,-7.039500475E-1,8.200500607E-1,4.766199581E0
4.158501210E-1,4.564949989E0,-7.039500475E-1,8.200500607E-1,4.691140179E0
4.178139390E-1,4.527000427E0,-6.280500293E-1,6.660000086E-1,4.618629203E0
4.197776540E-1,4.372950077E0,-5.509500504E-1,5.509500504E-1,4.441822182E0
4.217414000E-1,4.219950199E0,-3.979500234E-1,4.750500321E-1,4.265210011E0
4.237061040E-1,3.913050175E0,-3.589500189E-1,2.070000172E-1,3.934927673E0
4.256705380E-1,3.760050297E0,-3.589500189E-1,5.295000225E-2,3.777515990E0
4.276341040E-1,3.721950293E0,-3.210000098E-1,-1.369500011E-1,3.738276380E0
4.295979250E-1,3.798000097E0,-3.210000098E-1,-3.289500177E-1,3.825709589E0
4.315615950E-1,3.837000132E0,-3.210000098E-1,-7.120500207E-1,3.915689754E0
4.335253100E-1,3.760050297E0,-3.589500189E-1,-9.810000658E-1,3.902458774E0
4.354888580E-1,3.760050297E0,-4.360500276E-1,-1.326000094E0,4.010784725E0
4.374524580E-1,3.568050146E0,-5.130000114E-1,-1.708950043E0,3.989318376E0
4.394159860E-1,3.453000069E0,-6.280500293E-1,-2.169000149E0,4.125799069E0
4.413795350E-1,3.337950230E0,-8.959500194E-1,-2.629050016E0,4.342412021E0
4.433428920E-1,3.108000040E0,-1.279050112E0,-3.088950157E0,4.564783293E0
4.453063050E-1,2.878050089E0,-1.509000063E0,-3.510000229E0,4.783341417E0
4.472698630E-1,2.533950090E0,-1.777950048E0,-3.970050097E0,5.034213663E0
4.492333790E-1,2.265000105E0,-2.083950043E0,-4.429950237E0,5.394212858E0
4.511970570E-1,1.996950150E0,-2.314050198E0,-5.005050182E0,5.864568658E0
4.531606870E-1,1.729050040E0,-2.428950071E0,-5.503050327E0,6.258831792E0
4.551244350E-1,1.459950089E0,-2.506050110E0,-6.040050507E0,6.700294884E0
4.570881490E-1,1.306950092E0,-2.581950188E0,-6.768000126E0,7.360734408E0
4.590516580E-1,1.230000019E0,-2.620950222E0,-7.228050232E0,7.786333557E0
4.610152280E-1,1.000050068E0,-2.620950222E0,-7.189950466E0,7.717827927E0
4.629792560E-1,7.699500322E-1,-2.581950188E0,-7.036050320E0,7.534274612E0
4.649431490E-1,5.790000558E-1,-2.544000149E0,-6.615000248E0,7.110935670E0
4.669059070E-1,5.410500169E-1,-2.391000032E0,-6.232050419E0,6.696870067E0
4.688689970E-1,4.260000288E-1,-2.314050198E0,-5.656950474E0,6.126776722E0
4.708328020E-1,4.260000288E-1,-2.161050081E0,-5.043000221E0,5.503041405E0
4.727963900E-1,3.870000243E-1,-2.046000004E0,-4.429950237E0,4.894930453E0
4.747601000E-1,4.639500082E-1,-1.930950046E0,-3.817050219E0,4.302753776E0
4.767237740E-1,5.020500422E-1,-1.738950133E0,-3.319050074E0,3.780488752E0
4.786876500E-1,4.639500082E-1,-1.701000094E0,-2.782050133E0,3.293699117E0
4.806514660E-1,5.410500169E-1,-1.548000097E0,-2.284050226E0,2.811747652E0
4.826161020E-1,6.169500351E-1,-1.471050024E0,-1.708950043E0,2.337760845E0
4.845804850E-1,6.940500140E-1,-1.432950020E0,-1.171950102E0,1.976997274E0
4.865442410E-1,8.470500112E-1,-1.356000066E0,-6.360000372E-1,1.720676015E0
4.885081800E-1,9.240000248E-1,-1.356000066E0,5.295000225E-2,1.641741736E0
4.904712440E-1,1.114950061E0,-1.203000069E0,6.280500293E-1,1.756351230E0
4.924345640E-1,1.192050099E0,-1.240950108E0,1.279950023E0,2.144577504E0
4.943983640E-1,1.306950092E0,-1.203000069E0,1.663050056E0,2.433323488E0
4.963620240E-1,1.306950092E0,-1.087950110E0,2.314950228E0,2.872411625E0
4.983256780E-1,1.345050097E0,-1.048950076E0,2.889000177E0,3.354963196E0
5.002893340E-1,1.384050012E0,-1.011000037E0,3.463950157E0,3.864798339E0
5.022527170E-1,1.422000051E0,-1.011000037E0,3.963000298E0,4.330078126E0
5.042161800E-1,1.422000051E0,-9.340500236E-1,4.423050404E0,4.738977576E0
5.061801080E-1,1.422000051E0,-8.959500194E-1,4.843950272E0,5.127247294E0
5.081438550E-1,1.422000051E0,-9.340500236E-1,5.188950062E0,5.460745035E0
5.101075390E-1,1.459950089E0,-9.340500236E-1,5.341950417E0,5.616078522E0
5.120712420E-1,1.498950124E0,-9.730500579E-1,5.611050129E0,5.888765697E0
5.140349760E-1,1.537050128E0,-9.730500579E-1,5.802000046E0,6.080506068E0
5.159987010E-1,1.422000051E0,-8.580000401E-1,5.917050362E0,6.145708519E0
5.179623300E-1,1.459950089E0,-8.580000401E-1,5.994000435E0,6.228616182E0
5.199259970E-1,1.422000051E0,-9.730500579E-1,6.109050274E0,6.347393623E0
5.218893780E-1,1.345050097E0,-9.730500579E-1,6.186000347E0,6.404887702E0
5.238528430E-1,1.345050097E0,-8.959500194E-1,6.415950298E0,6.616366407E0
5.258167540E-1,1.306950092E0,-8.190000653E-1,6.415950298E0,6.598734567E0
5.277805340E-1,1.269000053E0,-8.190000653E-1,6.454050541E0,6.628415393E0
5.297440220E-1,1.192050099E0,-7.429500222E-1,6.454050541E0,6.605128807E0
5.317076030E-1,1.153950095E0,-6.280500293E-1,6.376950264E0,6.510878768E0
5.336712680E-1,1.077000022E0,-5.890500546E-1,6.301050186E0,6.419512634E0
5.356349080E-1,1.000050068E0,-5.130000114E-1,6.223950386E0,6.324620744E0
5.375984750E-1,9.240000248E-1,-4.740000367E-1,6.070950508E0,6.159130795E0
5.395620640E-1,9.240000248E-1,-3.979500234E-1,5.956050396E0,6.040420233E0
5.415255690E-1,8.850000501E-1,-3.210000098E-1,5.725950241E0,5.802824507E0
5.434890840E-1,7.699500322E-1,-2.440500110E-1,5.419050217E0,5.478913096E0
5.454521310E-1,6.169500351E-1,-1.290000081E-1,5.074050426E0,5.113047631E0
5.474153150E-1,4.639500082E-1,-9.105000645E-2,4.843950272E0,4.866969688E0
5.493781930E-1,4.639500082E-1,2.295000106E-2,4.576050282E0,4.599566555E0
5.513411610E-1,3.870000243E-1,2.530499995E-1,4.269000053E0,4.293968418E0
5.533048990E-1,3.490500152E-1,4.440000355E-1,4.000950336E0,4.040615738E0
5.552684340E-1,3.109500110E-1,7.510500550E-1,3.808950186E0,3.894723047E0
5.572325140E-1,2.719500065E-1,1.057950020E0,3.541050196E0,3.705705269E0
5.591964340E-1,3.109500110E-1,1.134000063E0,3.157950163E0,3.369761903E0
5.611601330E-1,2.719500065E-1,1.326000094E0,2.773950100E0,3.086589090E0
5.631238970E-1,2.719500065E-1,1.479000092E0,2.314950228E0,2.760505866E0
5.650868800E-1,3.109500110E-1,1.555950046E0,1.930950046E0,2.499247593E0
5.670500750E-1,3.490500152E-1,1.671000123E0,1.510050058E0,2.279106953E0
5.690134460E-1,2.719500065E-1,1.747950077E0,1.203000069E0,2.139274513E0
5.709767650E-1,3.870000243E-1,1.671000123E0,7.050000429E-1,1.854463667E0
5.729411070E-1,3.870000243E-1,1.633050084E0,2.449500114E-1,1.696060761E0
5.749051500E-1,3.109500110E-1,1.633050084E0,-1.369500011E-1,1.668022119E0
5.768685530E-1,2.340000123E-1,1.594050050E0,-4.819500148E-1,1.681673983E0
5.788321470E-1,8.100000024E-2,1.555950046E0,-8.659500480E-1,1.782529391E0
5.807955410E-1,4.200000316E-2,1.594050050E0,-1.249050021E0,2.025558075E0
5.827589930E-1,-1.099500060E-1,1.555950046E0,-1.671000123E0,2.285893908E0
5.847226810E-1,-2.250000089E-1,1.633050084E0,-2.245050192E0,2.785269816E0
5.866862990E-1,-3.780000210E-1,1.708950043E0,-2.859000206E0,3.352204714E0
5.886501690E-1,-4.170000255E-1,1.786050081E0,-3.472050190E0,3.926702998E0
5.906139760E-1,-4.549500346E-1,1.900950074E0,-4.047000408E0,4.494307847E0
5.925780090E-1,-4.549500346E-1,1.900950074E0,-4.429950237E0,4.842008862E0
5.945419760E-1,-3.780000210E-1,1.978050113E0,-4.852050304E0,5.253375907E0
5.965054870E-1,-3.780000210E-1,1.978050113E0,-5.043000221E0,5.430231809E0
5.984691320E-1,-2.629500031E-1,1.939050078E0,-5.197050095E0,5.553232176E0
6.004330260E-1,-1.099500060E-1,1.939050078E0,-5.119950294E0,5.475937840E0
6.023968370E-1,4.200000316E-2,1.939050078E0,-4.890000343E0,5.260587663E0
6.043605100E-1,2.340000123E-1,1.863000035E0,-4.507050037E0,4.882522419E0
6.063242240E-1,3.870000243E-1,1.786050081E0,-4.084949970E0,4.475104487E0
6.082889480E-1,5.790000558E-1,1.671000123E0,-3.702000141E0,4.102717090E0
6.102533760E-1,8.470500112E-1,1.479000092E0,-3.472050190E0,3.867824649E0
6.122170170E-1,9.240000248E-1,1.363950014E0,-3.394950151E0,3.773568897E0
6.141808680E-1,9.240000248E-1,1.096050024E0,-3.549000263E0,3.827597754E0
6.161437670E-1,5.790000558E-1,8.659500480E-1,-3.778950214E0,3.919894804E0
6.181069450E-1,4.050000105E-3,5.590500236E-1,-4.162050247E0,4.199430389E0
6.200716260E-1,-7.999500632E-1,-1.500000060E-2,-4.813050270E0,4.879098073E0
6.220358660E-1,-1.413000107E0,-8.190000653E-1,-5.848050117E0,6.071821851E0
6.239996310E-1,-1.681950092E0,-2.083950043E0,-7.458000183E0,7.924239435E0
6.259635460E-1,-1.911000133E0,-3.271950245E0,-9.336000443E0,1.007563815E1
6.279273800E-1,-2.103000164E0,-4.537050247E0,-1.098405075E1,1.206883613E1
6.298912380E-1,-2.601000071E0,-5.802000046E0,-1.217205048E1,1.373270617E1
6.318549020E-1,-3.406050205E0,-7.066950321E0,-1.244100094E1,1.470787099E1
6.338186230E-1,-4.633050442E0,-8.523000717E0,-1.186605072E1,1.532676930E1
6.357821060E-1,-6.088950157E0,-1.017105007E1,-1.037100029E1,1.575065778E1
6.377456760E-1,-7.699050426E0,-1.201095104E1,-7.995000362E0,1.635415400E1
6.397093880E-1,-8.964000702E0,-1.438695049E1,-4.582950115E0,1.755964364E1
6.416730580E-1,-9.922050476E0,-1.707000160E1,-6.360000372E-1,1.975440549E1
6.436363950E-1,-1.087995052E1,-2.002200127E1,2.430000067E0,2.291634261E1
6.455998300E-1,-1.180005074E1,-2.327895164E1,4.423050404E0,2.647100606E1
6.475637910E-1,-1.268205070E1,-2.676705170E1,4.653000355E0,2.998265964E1
6.495275970E-1,-1.363995075E1,-3.017805099E1,3.808950186E0,3.333573338E1
6.514914500E-1,-1.452105045E1,-3.389595032E1,2.889000177E0,3.698841273E1
6.534552890E-1,-1.521105099E1,-3.730695343E1,1.663050056E0,4.032307753E1
6.554196770E-1,-1.532595062E1,-4.041195297E1,5.130000114E-1,4.322353380E1
6.573839040E-1,-1.501995087E1,-4.324800110E1,-8.269500136E-1,4.578943513E1
6.593473250E-1,-1.413795090E1,-4.562400055E1,-2.206950188E0,4.781528742E1
6.613109830E-1,-1.229805088E1,-4.723395157E1,-3.586950064E0,4.894031515E1
6.632748160E-1,-9.769050598E0,-4.784700394E1,-4.582950115E0,4.904868568E1
6.652385970E-1,-6.931950092E0,-4.784700394E1,-5.005050182E0,4.860491997E1
6.672021400E-1,-4.134000301E0,-4.723395157E1,-5.427000046E0,4.772408688E1
6.691657530E-1,-1.681950092E0,-4.619895172E1,-5.580000401E0,4.656509960E1
6.711303140E-1,2.340000123E-1,-4.531800079E1,-5.925000191E0,4.570428404E1
6.730945970E-1,1.537050128E0,-4.451295090E1,-6.499950409E0,4.501127277E1
6.750580540E-1,2.227050066E0,-4.393800354E1,-7.726050377E0,4.466765901E1
6.770217530E-1,3.031950235E0,-4.355505371E1,-8.761050224E0,4.453079190E1
6.789853990E-1,3.607050180E0,-4.359300232E1,-9.528000832E0,4.476766090E1
6.809490600E-1,4.335000038E0,-4.386105347E1,-9.873000145E0,4.516702745E1
6.829126280E-1,4.872000217E0,-4.413000107E1,-9.451050758E0,4.539290408E1
6.848762190E-1,5.485050201E0,-4.439805222E1,-8.646000862E0,4.556342993E1
6.868402430E-1,6.175050259E0,-4.466595078E1,-7.687950134E0,4.574147988E1
6.888041400E-1,6.520050526E0,-4.466595078E1,-6.576000214E0,4.561580862E1
6.907679790E-1,6.979950428E0,-4.451295090E1,-5.235000134E0,4.535997941E1
6.927318350E-1,7.401000500E0,-4.397595215E1,-3.894000292E0,4.476407504E1
6.946954650E-1,7.516050339E0,-4.309500122E1,-2.667000055E0,4.382673878E1
6.966591850E-1,7.669050217E0,-4.202205276E1,-1.632000089E0,4.274728850E1
6.986229170E-1,7.401000500E0,-4.056495285E1,-9.420000315E-1,4.124533394E1
7.005866450E-1,6.903000355E0,-3.880200195E1,-7.120500207E-1,3.941768365E1
7.025501520E-1,6.328050137E0,-3.703905106E1,-6.739500165E-1,3.758177391E1
7.045137240E-1,5.638050079E0,-3.519900131E1,-9.810000658E-1,3.566117866E1
7.064774550E-1,4.642050266E0,-3.336000061E1,-1.594050050E0,3.371912316E1
7.084411250E-1,3.415050268E0,-3.159600067E1,-3.012000084E0,3.192243680E1
7.104048210E-1,1.996950150E0,-2.964195061E1,-4.660050392E0,3.007239790E1
7.123685100E-1,8.850000501E-1,-2.795505142E1,-5.772000313E0,2.855843330E1
7.143314830E-1,4.200000316E-2,-2.649900055E1,-6.691050529E0,2.733073273E1
7.162946660E-1,-7.620000243E-1,-2.527200127E1,-7.189950466E0,2.628592931E1
7.182582500E-1,-1.528050065E0,-2.423805046E1,-7.189950466E0,2.532811511E1
7.202217270E-1,-2.140950203E0,-2.331795120E1,-7.036050320E0,2.445028671E1
7.221852760E-1,-2.755050182E0,-2.243595123E1,-6.730050087E0,2.358507544E1
7.241488040E-1,-3.483000278E0,-2.151600075E1,-6.346950531E0,2.270139556E1
7.261125240E-1,-4.249050140E0,-2.078805161E1,-5.925000191E0,2.202959700E1
7.280761880E-1,-4.900950432E0,-2.013600159E1,-5.427000046E0,2.142265634E1
7.300398410E-1,-5.476050377E0,-1.956195068E1,-4.774950027E0,2.086761103E1
7.320034980E-1,-5.974050522E0,-1.894799995E1,-4.237950325E0,2.031443341E1
7.339670610E-1,-6.204000473E0,-1.848795128E1,-3.702000141E0,1.984940224E1
7.359306520E-1,-6.319050312E0,-1.810500145E1,-3.319050074E0,1.946118105E1
7.378947210E-1,-6.280950069E0,-1.783695030E1,-2.820000172E0,1.911961116E1
7.398586500E-1,-6.204000473E0,-1.768395042E1,-2.437050104E0,1.889843744E1
7.418224520E-1,-6.241950512E0,-1.749195099E1,-2.206950188E0,1.870296567E1
7.437862810E-1,-6.241950512E0,-1.733895111E1,-1.939050078E0,1.853000505E1
7.457501290E-1,-6.051000118E0,-1.726200104E1,-1.747050047E0,1.837507731E1
7.477139720E-1,-5.859000206E0,-1.729995155E1,-1.287000060E0,1.831044992E1
7.496778190E-1,-5.668050289E0,-1.726200104E1,-1.096050024E0,1.820178012E1
7.516416640E-1,-5.553000450E0,-1.714695168E1,-8.269500136E-1,1.804266089E1
7.536055050E-1,-5.284050465E0,-1.722405052E1,-5.590500236E-1,1.802502823E1
7.555693510E-1,-5.169000149E0,-1.729995155E1,-3.289500177E-1,1.805865705E1
7.575333780E-1,-4.978050232E0,-1.737705040E1,-1.369500011E-1,1.807654890E1
7.594973510E-1,-4.786050320E0,-1.745400047E1,5.295000225E-2,1.809837600E1
7.614600950E-1,-4.479000092E0,-1.745400047E1,1.680000126E-1,1.802031627E1
7.634231990E-1,-4.096050262E0,-1.749195099E1,3.220500052E-1,1.796801863E1
7.653869960E-1,-3.865950108E0,-1.737705040E1,4.360500276E-1,1.780723422E1
7.673505870E-1,-3.636000156E0,-1.726200104E1,4.360500276E-1,1.764617003E1
7.693139370E-1,-3.367950201E0,-1.703205109E1,6.660000086E-1,1.737461967E1
7.712773580E-1,-3.253050089E0,-1.668704987E1,8.200500607E-1,1.702094152E1
7.732410960E-1,-3.175950050E0,-1.630395126E1,7.050000429E-1,1.662535746E1
7.752047410E-1,-3.022950172E0,-1.591995049E1,5.130000114E-1,1.621253281E1
7.771692210E-1,-2.946000099E0,-1.549905109E1,3.600000143E-1,1.578065592E1
7.791334470E-1,-3.022950172E0,-1.507695103E1,2.070000172E-1,1.537841113E1
7.810970040E-1,-3.061050177E0,-1.454100037E1,9.195000678E-2,1.485998569E1
7.830607570E-1,-3.138000250E0,-1.400400066E1,-2.205000073E-2,1.435129145E1
7.850243040E-1,-3.138000250E0,-1.342905045E1,1.500000060E-2,1.379081819E1
7.869879110E-1,-3.138000250E0,-1.285395050E1,-6.105000153E-2,1.323158404E1
7.889515680E-1,-3.022950172E0,-1.224105072E1,-2.205000073E-2,1.260880790E1
7.909152130E-1,-2.985000134E0,-1.158900070E1,-6.105000153E-2,1.196740950E1
7.928789130E-1,-2.793000221E0,-1.090005016E1,-2.205000073E-2,1.125221889E1
7.948425970E-1,-2.601000071E0,-1.032495022E1,-2.205000073E-2,1.064754829E1
7.968061570E-1,-2.448000193E0,-9.673050880E0,9.195000678E-2,9.978430392E0
7.987697530E-1,-2.256000042E0,-8.983050346E0,9.195000678E-2,9.262461040E0
8.007323890E-1,-2.065050125E0,-8.407950401E0,2.449500114E-1,8.661296813E0
8.026953000E-1,-1.834950089E0,-7.909950256E0,4.360500276E-1,8.131696903E0
8.046593060E-1,-1.528050065E0,-7.411950588E0,5.899500251E-1,7.590783198E0
8.066229910E-1,-1.222050071E0,-6.913050175E0,5.899500251E-1,7.044977653E0
8.085866400E-1,-9.529500604E-1,-6.492000103E0,7.810500264E-1,6.607890609E0
8.105503000E-1,-5.700000525E-1,-6.070050240E0,8.959500194E-1,6.162234693E0
8.125140620E-1,-1.480500102E-1,-5.686950207E0,9.730500579E-1,5.771494423E0
8.144777800E-1,2.340000123E-1,-5.494950294E0,1.087950110E0,5.606502492E0
8.164426850E-1,6.550500393E-1,-5.227050304E0,1.087950110E0,5.379105956E0
8.184072420E-1,1.153950095E0,-4.920000076E0,9.730500579E-1,5.146341223E0
8.203706070E-1,1.384050012E0,-4.575000286E0,8.959500194E-1,4.863018455E0
8.223343210E-1,1.614000082E0,-4.384050369E0,6.280500293E-1,4.713739571E0
8.242991140E-1,1.996950150E0,-4.192049980E0,3.600000143E-1,4.657326803E0
8.262635730E-1,2.341950178E0,-3.924000263E0,1.680000126E-1,4.572825462E0
8.282277210E-1,2.494950056E0,-3.541050196E0,9.195000678E-2,4.332697436E0
8.301919600E-1,2.725050211E0,-3.196050167E0,-2.205000073E-2,4.200133513E0
8.321557380E-1,2.802000046E0,-2.736000061E0,-1.369500011E-1,3.918629339E0
8.341196520E-1,2.802000046E0,-2.199000120E0,-2.140500098E-1,3.568280145E0
8.360833150E-1,2.725050211E0,-1.701000094E0,-2.910000086E-1,3.225520265E0
8.380470460E-1,2.572050095E0,-1.240950108E0,-2.520000041E-1,2.866862895E0
8.400109110E-1,2.380050182E0,-7.429500222E-1,-2.520000041E-1,2.506016282E0
8.419747360E-1,2.265000105E0,-3.979500234E-1,-2.910000086E-1,2.318031644E0
8.439373250E-1,2.227050066E0,-1.290000081E-1,-4.440000355E-1,2.274539301E0
8.459002770E-1,2.188950062E0,2.295000106E-2,-5.970000029E-1,2.269016985E0
8.478639340E-1,2.149950027E0,2.530499995E-1,-9.420000315E-1,2.360864986E0
8.498273710E-1,2.111999989E0,5.209500194E-1,-1.249050021E0,2.508397662E0
8.517912420E-1,2.149950027E0,5.980500579E-1,-1.632000089E0,2.764665130E0
8.537549860E-1,2.188950062E0,7.510500550E-1,-1.786050081E0,2.923277861E0
8.557187160E-1,2.265000105E0,9.040500522E-1,-1.939050078E0,3.115677644E0
8.576824500E-1,2.457000017E0,1.018950105E0,-2.053950071E0,3.360627813E0
8.596462550E-1,2.649000168E0,1.057950020E0,-1.939050078E0,3.449112254E0
8.616100490E-1,2.878050089E0,1.018950105E0,-1.939050078E0,3.616814460E0
8.635737250E-1,3.147000074E0,1.057950020E0,-1.900950074E0,3.825765139E0
8.655374360E-1,3.415050268E0,9.430500269E-1,-1.708950043E0,3.933499960E0
8.675011250E-1,3.760050297E0,8.280000687E-1,-1.671000123E0,4.197118507E0
8.694648200E-1,4.182000160E0,7.129500508E-1,-1.441050053E0,4.480407166E0
8.714282100E-1,4.411950111E0,5.209500194E-1,-1.287000060E0,4.625263437E0
8.733916800E-1,4.603050232E0,4.060500264E-1,-1.134000063E0,4.758035751E0
8.753552290E-1,4.756950378E0,2.910000086E-1,-9.810000658E-1,4.865759862E0
8.773187550E-1,4.872000217E0,2.140500098E-1,-9.040500522E-1,4.959789312E0
8.792824310E-1,4.909950256E0,6.105000153E-2,-7.890000343E-1,4.973314757E0
8.812460630E-1,4.909950256E0,-1.500000060E-2,-7.890000343E-1,4.972962656E0
8.832101120E-1,4.948050022E0,-9.105000645E-2,-6.360000372E-1,4.989587676E0
8.851740490E-1,5.025000095E0,-1.290000081E-1,-4.819500148E-1,5.049707197E0
8.871373850E-1,4.948050022E0,-1.680000126E-1,-4.440000355E-1,4.970770469E0
8.891008970E-1,4.948050022E0,-2.440500110E-1,-3.289500177E-1,4.964974073E0
8.910645740E-1,4.909950256E0,-3.210000098E-1,-1.369500011E-1,4.922337639E0
8.930282030E-1,4.872000217E0,-3.979500234E-1,-6.105000153E-2,4.888606902E0
8.949919320E-1,4.756950378E0,-4.740000367E-1,1.500000060E-2,4.780531136E0
8.969556450E-1,4.603050232E0,-5.130000114E-1,1.500000060E-2,4.631572676E0
8.989192900E-1,4.411950111E0,-5.890500546E-1,-6.105000153E-2,4.451517815E0
9.008829550E-1,4.297049999E0,-6.660000086E-1,-1.759500057E-1,4.351913730E0
9.028463360E-1,4.105050087E0,-8.959500194E-1,-2.910000086E-1,4.211750664E0
9.048098010E-1,3.990000248E0,-1.087950110E0,-5.209500194E-1,4.168348155E0
9.067733700E-1,3.913050175E0,-1.279050112E0,-6.739500165E-1,4.171587166E0
9.087368950E-1,3.874950171E0,-1.471050024E0,-9.420000315E-1,4.250481274E0
9.107006160E-1,3.837000132E0,-1.585950017E0,-1.057050109E0,4.284292520E0
9.126642800E-1,3.760050297E0,-1.738950133E0,-1.402050018E0,4.373519184E0
9.146277530E-1,3.568050146E0,-1.930950046E0,-1.632000089E0,4.372982302E0
9.165912820E-1,3.376950264E0,-2.122950077E0,-2.014950037E0,4.468862693E0
9.185549850E-1,3.184950113E0,-2.314050198E0,-2.284050226E0,4.551441637E0
9.205186480E-1,2.839950085E0,-2.506050110E0,-2.629050016E0,4.610586473E0
9.224820310E-1,2.649000168E0,-2.697000027E0,-3.012000084E0,4.833544821E0
9.244454970E-1,2.457000017E0,-2.889000177E0,-3.204000235E0,4.964754638E0
9.264092270E-1,2.304000139E0,-3.081000090E0,-3.586950064E0,5.259960927E0
9.283728790E-1,2.035050154E0,-3.271950245E0,-3.931950092E0,5.505208358E0
9.303364190E-1,1.920000076E0,-3.426000118E0,-4.315050125E0,5.834683769E0
9.322999780E-1,1.690050125E0,-3.579000235E0,-4.774950027E0,6.202068999E0
9.342638280E-1,1.537050128E0,-3.694050074E0,-5.082000256E0,6.468017907E0
9.362275920E-1,1.345050097E0,-3.847050190E0,-5.542050362E0,6.879191605E0
9.381913180E-1,1.269000053E0,-3.924000263E0,-5.925000191E0,7.218986526E0
9.401550550E-1,1.230000019E0,-4.077000141E0,-6.154950142E0,7.484533482E0
9.421187300E-1,1.077000022E0,-4.077000141E0,-6.385050297E0,7.651844646E0
9.440824300E-1,9.240000248E-1,-4.077000141E0,-6.576000214E0,7.792270850E0
9.460460750E-1,7.699500322E-1,-4.000950336E0,-6.652950287E0,7.801421291E0
9.480097370E-1,6.550500393E-1,-3.961950302E0,-6.576000214E0,7.705187834E0
9.499728940E-1,4.639500082E-1,-3.886050224E0,-6.499950409E0,7.587225532E0
9.519361990E-1,3.490500152E-1,-3.694050074E0,-6.385050297E0,7.384897369E0
9.538999660E-1,1.570500135E-1,-3.541050196E0,-6.040050507E0,7.003278612E0
9.558635910E-1,-3.299999982E-2,-3.349050045E0,-5.772000313E0,6.673320973E0
9.578271160E-1,-2.250000089E-1,-3.118950129E0,-5.311950207E0,6.164031952E0
9.597906700E-1,-2.250000089E-1,-3.004050255E0,-4.890000343E0,5.743435061E0
9.617542490E-1,-3.400500119E-1,-2.773950100E0,-4.507050037E0,5.303200280E0
9.637178210E-1,-4.549500346E-1,-2.581950188E0,-4.009050369E0,4.790191141E0
9.656813510E-1,-5.320500135E-1,-2.428950071E0,-3.510000229E0,4.301508721E0
9.676448960E-1,-6.079500318E-1,-2.238000154E0,-3.088950157E0,3.862623591E0
9.696085680E-1,-7.230000496E-1,-2.083950043E0,-2.590050220E0,3.402048941E0
9.715722020E-1,-7.999500632E-1,-1.854000092E0,-2.092050076E0,2.907560827E0
9.735355900E-1,-9.529500604E-1,-1.663050056E0,-1.555950046E0,2.468770919E0
9.754990500E-1,-1.030050039E0,-1.548000097E0,-1.096050024E0,2.158386675E0
9.774627400E-1,-1.106999993E0,-1.356000066E0,-7.510500550E-1,1.904799556E0
9.794263600E-1,-1.222050071E0,-1.318050027E0,-2.520000041E-1,1.814983816E0
9.813893450E-1,-1.336950064E0,-1.164000034E0,1.680000126E-1,1.780605391E0
9.833525160E-1,-1.336950064E0,-1.048950076E0,5.130000114E-1,1.775077673E0
9.853161620E-1,-1.452000022E0,-8.959500194E-1,1.087950110E0,2.023528093E0
9.872796680E-1,-1.567050099E0,-7.039500475E-1,1.432950020E0,2.237082350E0
9.892435220E-1,-1.681950092E0,-6.280500293E-1,1.585950017E0,2.395545952E0
9.912072780E-1,-1.720050097E0,-5.130000114E-1,1.969950080E0,2.665041212E0
9.931711850E-1,-1.758000135E0,-3.210000098E-1,2.314950228E0,2.924482867E0
9.951350470E-1,-1.873050094E0,-2.440500110E-1,2.659050226E0,3.261659879E0
9.970988920E-1,-2.103000164E0,-1.290000081E-1,2.965950251E0,3.638146723E0
9.990627420E-1,-2.179949999E0,-9.105000645E-2,3.388050079E0,4.029808363E0
1.001025641E0,-2.218050003E0,9.900000691E-2,3.771000147E0,4.376070032E0
1.002988818E0,-2.179949999E0,1.759500057E-1,4.153950214E0,4.694511986E0
1.004952958E0,-2.218050003E0,3.289500177E-1,4.498950005E0,5.026778797E0
1.006916816E0,-2.295000076E0,4.060500264E-1,4.806000233E0,5.341305104E0
1.008880662E0,-2.332950115E0,4.440000355E-1,5.074050426E0,5.602301313E0
1.010844511E0,-2.295000076E0,5.590500236E-1,5.304000378E0,5.806202053E0
1.012808217E0,-2.295000076E0,5.590500236E-1,5.533950329E0,6.016989988E0
1.014771968E0,-2.179949999E0,5.590500236E-1,5.725950241E0,6.152334930E0
1.016736145E0,-2.103000164E0,5.209500194E-1,5.956050396E0,6.337865171E0
1.018700197E0,-2.026050091E0,5.209500194E-1,6.186000347E0,6.530150702E0
1.020664414E0,-1.950000048E0,5.590500236E-1,6.301050186E0,6.619537035E0
1.022628582E0,-1.911000133E0,5.980500579E-1,6.492000103E0,6.793795016E0
1.024592314E0,-1.873050094E0,5.980500579E-1,6.646050453E0,6.930798450E0
1.026556184E0,-1.834950089E0,6.360000372E-1,6.721950531E0,6.996867643E0
1.028519711E0,-1.795950055E0,6.360000372E-1,6.684000492E0,6.950237063E0
1.030483338E0,-1.795950055E0,6.739500165E-1,6.607050419E0,6.879880847E0
1.032447220E0,-1.795950055E0,7.890000343E-1,6.531000137E0,6.819231661E0
1.034411028E0,-1.795950055E0,8.659500480E-1,6.339000225E0,6.645165908E0
1.036374673E0,-1.795950055E0,9.810000658E-1,6.109050274E0,6.442692991E0
1.038338386E0,-1.795950055E0,9.810000658E-1,5.764050484E0,6.116541156E0
1.040302209E0,-1.758000135E0,1.018950105E0,5.419050217E0,5.787480371E0
1.042265999E0,-1.795950055E0,1.057950020E0,5.112000465E0,5.520619857E0
1.044229541E0,-1.758000135E0,1.134000063E0,4.729050159E0,5.171115550E0
1.046193155E0,-1.795950055E0,1.210950017E0,4.384050369E0,4.889962595E0
1.048157370E0,-1.720050097E0,1.326000094E0,4.000950336E0,4.552411688E0
1.050121399E0,-1.642950058E0,1.402950048E0,3.579000235E0,4.180525853E0
1.052085215E0,-1.567050099E0,1.518000126E0,3.234000206E0,3.901118779E0
1.054049093E0,-1.413000107E0,1.594050050E0,2.812950134E0,3.528491650E0
1.056012799E0,-1.336950064E0,1.671000123E0,2.314950228E0,3.152565850E0
1.057976555E0,-1.183050036E0,1.747950077E0,1.701000094E0,2.710781840E0
1.059940191E0,-1.030050039E0,1.824000120E0,1.318050027E0,2.474921291E0
1.061903863E0,-9.529500604E-1,1.863000035E0,7.810500264E-1,2.233589509E0
1.063868098E0,-6.850500107E-1,1.900950074E0,1.300500035E-1,2.024800658E0
1.065832168E0,-4.549500346E-1,1.939050078E0,-4.819500148E-1,2.049187780E0
1.067795481E0,-1.099500060E-1,1.863000035E0,-1.018950105E0,2.126291949E0
1.069759016E0,1.189500093E-1,1.786050081E0,-1.516950130E0,2.346329409E0
1.071723615E0,4.260000288E-1,1.786050081E0,-1.824000120E0,2.588132021E0
1.073687885E0,7.320000529E-1,1.786050081E0,-2.169000149E0,2.903508329E0
1.075651164E0,1.000050068E0,1.747950077E0,-2.245050192E0,3.015904504E0
1.077614733E0,1.306950092E0,1.747950077E0,-2.169000149E0,3.077013107E0
1.079578400E0,1.537050128E0,1.786050081E0,-2.014950037E0,3.100406689E0
1.081542038E0,2.035050154E0,1.824000120E0,-1.708950043E0,3.223184111E0
1.083505615E0,2.572050095E0,1.939050078E0,-1.326000094E0,3.483336496E0
1.085469203E0,2.955000162E0,2.016000032E0,-9.040500522E-1,3.689659684E0
1.087433227E0,3.337950230E0,2.053950071E0,-3.289500177E-1,3.933043446E0
1.089397124E0,3.760050297E0,2.092950106E0,1.300500035E-1,4.305267864E0
1.091360828E0,4.105050087E0,2.053950071E0,1.300500035E-1,4.592064908E0
1.093324588E0,4.488000393E0,1.708950043E0,-3.670500219E-1,4.816366213E0
1.095288224E0,4.527000427E0,1.210950017E0,-1.441050053E0,4.902729655E0
1.097251896E0,4.066950321E0,4.440000355E-1,-3.049950123E0,5.102883175E0
1.099216176E0,3.415050268E0,-3.210000098E-1,-5.158050060E0,6.194440230E0
1.101180278E0,3.147000074E0,-1.164000034E0,-7.150950432E0,7.899025106E0
1.103143901E0,2.992950201E0,-2.083950043E0,-9.373950005E0,1.005840630E1
1.105107665E0,3.070050240E0,-2.965950251E0,-1.186605072E1,1.261052057E1
1.107071355E0,3.108000040E0,-4.039050102E0,-1.428000069E1,1.516219013E1
1.109035059E0,2.686950207E0,-4.959000111E0,-1.535295105E1,1.635617588E1
1.110998884E0,2.111999989E0,-6.147000313E0,-1.508505058E1,1.642573919E1
1.112962673E0,1.192050099E0,-7.335000515E0,-1.397400093E1,1.582706284E1
1.114925313E0,-7.200000435E-2,-8.638050079E0,-1.155900097E1,1.443023203E1
1.116888290E0,-1.260000110E0,-1.036305046E1,-8.722949982E0,1.360405350E1
1.118851895E0,-2.524950027E0,-1.227900028E1,-5.809950352E0,1.381682828E1
1.120815336E0,-3.904950142E0,-1.454100037E1,-3.088950157E0,1.536980613E1
1.122778171E0,-5.553000450E0,-1.714695168E1,-5.590500236E-1,1.803236819E1
1.124741184E0,-7.354050159E0,-1.986795044E1,1.126049995E0,2.121521852E1
1.126704992E0,-9.001950264E0,-2.285805130E1,1.585950017E0,2.461789705E1
1.128668567E0,-1.049700069E1,-2.592405128E1,8.959500194E-1,2.798296241E1
1.130633330E0,-1.183800030E1,-2.902800179E1,2.070000172E-1,3.134973664E1
1.132597735E0,-1.321800041E1,-3.232500076E1,-2.205000073E-2,3.492308256E1
1.134560269E0,-1.459800053E1,-3.573600006E1,2.830500007E-1,3.860367129E1
1.136523352E0,-1.578600121E1,-3.914700317E1,7.050000429E-1,4.221590597E1
1.138486968E0,-1.655294991E1,-4.244295120E1,1.471050024E0,4.558034934E1
1.140450427E0,-1.651395035E1,-4.539405060E1,1.740000129E0,4.833588715E1
1.142414331E0,-1.567095089E1,-4.800105286E1,2.122950077E0,5.053896214E1
1.144378111E0,-1.410000038E1,-5.003205109E1,2.851050138E0,5.205904949E1
1.146341923E0,-1.225995064E1,-5.191005325E1,3.081000090E0,5.342707722E1
1.148305726E0,-1.003695011E1,-5.332800293E1,2.545050144E0,5.432396841E1
1.150270165E0,-7.699050426E0,-5.421000290E1,1.279950023E0,5.476895164E1
1.152234418E0,-5.514000416E0,-5.455500412E1,-9.040500522E-1,5.484040464E1
1.154197780E0,-3.520950079E0,-5.432505417E1,-4.123950005E0,5.459501409E1
1.156161410E0,-1.950000048E0,-5.298300171E1,-8.071050644E0,5.362968235E1
1.158125112E0,-1.030050039E0,-5.137305069E1,-1.217205048E1,5.280539890E1
1.160088793E0,-3.400500119E-1,-4.980195236E1,-1.619700050E1,5.237072578E1
1.162053208E0,5.020500422E-1,-4.838400269E1,-1.937805176E1,5.212266935E1
1.164017408E0,1.459950089E0,-4.719600296E1,-2.144805145E1,5.186147955E1
1.165981176E0,2.572050095E0,-4.642905045E1,-2.198400116E1,5.143508991E1
1.167945084E0,3.529950142E0,-4.608405304E1,-2.091105080E1,5.072940506E1
1.169908739E0,4.182000160E0,-4.589295197E1,-1.845795059E1,4.964220085E1
1.171872468E0,4.642050266E0,-4.566300201E1,-1.466400051E1,4.818393191E1
1.173836019E0,5.025000095E0,-4.516395187E1,-1.025595093E1,4.658559546E1
1.175799622E0,4.909950256E0,-4.428300095E1,-5.962950230E0,4.495162466E1
1.177762414E0,4.527000427E0,-4.309500122E1,-2.169000149E0,4.338637372E1
1.179725454E0,3.492000103E0,-4.144695282E1,6.660000086E-1,4.159912882E1
1.181689077E0,2.149950027E0,-3.937695312E1,2.314950228E0,3.950348994E1
1.183652529E0,6.550500393E-1,-3.707700348E1,2.889000177E0,3.719515559E1
1.185615723E0,-8.770500422E-1,-3.477795029E1,2.698050022E0,3.489347384E1
1.187578993E0,-2.103000164E0,-3.247800064E1,1.663050056E0,3.258847758E1
1.189543969E0,-3.253050089E0,-3.033195114E1,2.830500007E-1,3.050720755E1
1.191508448E0,-4.363950253E0,-2.814705086E1,-1.096050024E0,2.850441824E1
1.193472412E0,-5.245950222E0,-2.607705116E1,-2.092050076E0,2.668162785E1
1.195436527E0,-6.051000118E0,-2.412300110E1,-2.398950100E0,2.498577087E1
1.197400462E0,-6.778950214E0,-2.247405052E1,-2.398950100E0,2.359644199E1
1.199364450E0,-7.468950272E0,-2.117100143E1,-2.169000149E0,2.255440271E1
1.201328127E0,-8.236050606E0,-2.013600159E1,-1.824000120E0,2.183158414E1
1.203291902E0,-8.925000191E0,-1.936995125E1,-1.441050053E0,2.137585706E1
1.205255714E0,-9.424050331E0,-1.875705147E1,-1.057050109E0,2.101801749E1
1.207219515E0,-9.654000282E0,-1.825800133E1,-7.510500550E-1,2.066684325E1
1.209183235E0,-9.538950920E0,-1.783695030E1,-4.440000355E-1,2.023228897E1
1.211146979E0,-9.270000458E0,-1.760700035E1,-6.105000153E-2,1.989831895E1
1.213109936E0,-8.656949997E0,-1.741500092E1,2.449500114E-1,1.944955117E1
1.215073128E0,-7.966950417E0,-1.729995155E1,5.130000114E-1,1.905318324E1
1.217037085E0,-7.239000320E0,-1.714695168E1,9.349500537E-1,1.863585815E1
1.219000818E0,-6.472050190E0,-1.699394989E1,1.240950108E0,1.822695048E1
1.220964279E0,-5.668050289E0,-1.687905121E1,1.318050027E0,1.785403091E1
1.222927820E0,-5.092950344E0,-1.684005165E1,1.356000066E0,1.764551555E1
1.224891577E0,-4.363950253E0,-1.664895058E1,1.471050024E0,1.727413110E1
1.226855274E0,-3.598050117E0,-1.653404999E1,1.395000100E0,1.697842157E1
1.228819101E0,-3.061050177E0,-1.634205055E1,1.432950020E0,1.668789951E1
1.230782890E0,-2.410050154E0,-1.618905067E1,1.395000100E0,1.642679910E1
1.232746566E0,-1.950000048E0,-1.588200092E1,1.395000100E0,1.606195750E1
1.234710276E0,-1.681950092E0,-1.561395073E1,1.432950020E0,1.576951994E1
1.236673785E0,-1.375050068E0,-1.538400078E1,1.471050024E0,1.551522577E1
1.238637353E0,-1.222050071E0,-1.503900051E1,1.585950017E0,1.517169009E1
1.240601111E0,-1.068000078E0,-1.469400024E1,1.777950048E0,1.483965544E1
1.242564813E0,-7.620000243E-1,-1.423395061E1,2.046000004E0,1.440042049E1
1.244528819E0,-4.170000255E-1,-1.392705059E1,2.085000038E0,1.408842973E1
1.246492736E0,-1.870500147E-1,-1.377405071E1,1.893000126E0,1.390478012E1
1.248456070E0,-3.299999982E-2,-1.362105083E1,1.701000094E0,1.372689026E1
1.250419579E0,-1.480500102E-1,-1.354395103E1,1.585950017E0,1.363729320E1
1.252383437E0,-3.019500077E-1,-1.335300064E1,1.510050058E0,1.344150479E1
1.254347193E0,-3.780000210E-1,-1.316100025E1,1.395000100E0,1.324012224E1
1.256310920E0,-4.930500090E-1,-1.281600094E1,1.279950023E0,1.288919122E1
1.258274656E0,-4.170000255E-1,-1.243305016E1,1.203000069E0,1.249807323E1
1.260238317E0,-2.629500031E-1,-1.208805084E1,1.203000069E0,1.215061007E1
1.262202017E0,-1.870500147E-1,-1.170405102E1,1.318050027E0,1.177951840E1
1.264165708E0,4.050000105E-3,-1.132095051E1,1.279950023E0,1.139307723E1
1.266129401E0,2.719500065E-1,-1.097595024E1,1.395000100E0,1.106758627E1
1.268093993E0,5.020500422E-1,-1.059300041E1,1.471050024E0,1.070643265E1
1.270058322E0,7.699500322E-1,-1.009500027E1,1.471050024E0,1.023063251E1
1.272021717E0,1.000050068E0,-9.711000443E0,1.471050024E0,9.872568962E0
1.273985392E0,1.230000019E0,-9.289950371E0,1.471050024E0,9.485782314E0
1.275949402E0,1.384050012E0,-8.830050468E0,1.356000066E0,9.040139484E0
1.277913314E0,1.575000048E0,-8.370000839E0,1.240950108E0,8.606828473E0
1.279877374E0,1.767000079E0,-8.025000572E0,1.050000072E0,8.284046331E0
1.281841390E0,1.959000111E0,-7.564950466E0,9.349500537E-1,7.870215282E0
1.283805324E0,2.227050066E0,-7.143000126E0,6.280500293E-1,7.508438562E0
1.285769296E0,2.304000139E0,-6.684000492E0,4.750500321E-1,7.085898091E0
1.287733705E0,2.457000017E0,-6.300000191E0,1.680000126E-1,6.764249810E0
1.289697986E0,2.610000134E0,-5.878950119E0,-9.900000691E-2,6.433036313E0
1.291661398E0,2.764050245E0,-5.572050095E0,-4.440000355E-1,6.235771969E0
1.293625065E0,2.839950085E0,-5.149950027E0,-7.120500207E-1,5.924045662E0
1.295589066E0,2.802000046E0,-4.767000198E0,-1.096050024E0,5.637093294E0
1.297552976E0,2.764050245E0,-4.384050369E0,-1.249050021E0,5.331040926E0
1.299516857E0,2.764050245E0,-3.924000263E0,-1.363950014E0,4.989800744E0
1.301480747E0,2.764050245E0,-3.616950274E0,-1.555950046E0,4.810746676E0
1.303444406E0,2.992950201E0,-3.310950041E0,-1.786050081E0,4.807298199E0
1.305408132E0,3.147000074E0,-2.889000177E0,-2.014950037E0,4.723341523E0
1.307371979E0,3.223050117E0,-2.544000149E0,-1.939050078E0,4.540914448E0
1.309335803E0,3.184950113E0,-2.275950193E0,-1.977000117E0,4.385474429E0
1.311299248E0,3.070050240E0,-2.083950043E0,-2.014950037E0,4.222331099E0
1.313262805E0,2.839950085E0,-1.854000092E0,-2.169000149E0,4.025816000E0
1.315226384E0,2.764050245E0,-1.663050056E0,-2.169000149E0,3.887193189E0
1.317189957E0,2.725050211E0,-1.548000097E0,-2.284050226E0,3.878026352E0
1.319153481E0,2.649000168E0,-1.356000066E0,-2.437050104E0,3.846446578E0
1.321117026E0,2.610000134E0,-1.126049995E0,-2.514000177E0,3.794770900E0
1.323080563E0,2.533950090E0,-9.340500236E-1,-2.743950129E0,3.850014911E0
1.325044103E0,2.649000168E0,-7.039500475E-1,-2.935050249E0,4.015876931E0
1.327008136E0,2.610000134E0,-5.130000114E-1,-2.820000172E0,3.876553969E0
1.328972024E0,2.572050095E0,-3.589500189E-1,-2.974050045E0,3.948323755E0
1.330935710E0,2.610000134E0,-1.680000126E-1,-2.782050133E0,3.818393333E0
1.332899468E0,2.572050095E0,-9.105000645E-2,-2.743950129E0,3.762046531E0
1.334862383E0,2.494950056E0,6.105000153E-2,-2.629050016E0,3.624969913E0
1.336825545E0,2.494950056E0,2.530499995E-1,-2.475000143E0,3.523412521E0
1.338789192E0,2.419050217E0,4.060500264E-1,-2.359950066E0,3.403827976E0
1.340752697E0,2.419050217E0,5.980500579E-1,-2.169000149E0,3.303638822E0
1.342716718E0,2.457000017E0,7.129500508E-1,-2.014950037E0,3.256558077E0
1.344680601E0,2.419050217E0,9.040500522E-1,-1.900950074E0,3.206668307E0
1.346644486E0,2.419050217E0,1.018950105E0,-1.861950040E0,3.218217087E0
1.348608371E0,2.457000017E0,1.096050024E0,-1.708950043E0,3.187269205E0
1.350572526E0,2.341950178E0,1.210950017E0,-1.708950043E0,3.141916744E0
1.352536601E0,2.341950178E0,1.210950017E0,-1.747050047E0,3.162801677E0
1.354500247E0,2.341950178E0,1.363950014E0,-1.632000089E0,3.163623645E0
1.356464006E0,2.227050066E0,1.402950048E0,-1.671000123E0,3.117733511E0
1.358428046E0,2.035050154E0,1.441050053E0,-1.786050081E0,3.067251094E0
1.360392004E0,1.804950118E0,1.518000126E0,-1.977000117E0,3.077450044E0
1.362355832E0,1.651950121E0,1.479000092E0,-2.169000149E0,3.101764356E0
1.364319698E0,1.422000051E0,1.402950048E0,-2.398950100E0,3.121748639E0
1.366283343E0,1.269000053E0,1.288050056E0,-2.667000055E0,3.222161290E0
1.368247065E0,9.619500637E-1,1.057950020E0,-3.012000084E0,3.334179161E0
1.370210256E0,6.550500393E-1,8.659500480E-1,-3.472050190E0,3.637869234E0
1.372173603E0,2.340000123E-1,4.830000103E-1,-3.970050097E0,4.006163100E0
1.374138390E0,-7.200000435E-2,-1.500000060E-2,-4.621950150E0,4.622535255E0
1.376102755E0,-4.549500346E-1,-5.890500546E-1,-5.272950172E0,5.325219528E0
1.378066693E0,-7.999500632E-1,-1.279050112E0,-6.117000103E0,6.300284085E0
1.380030757E0,-9.150000215E-1,-1.930950046E0,-7.075050354E0,7.390678631E0
1.381994611E0,-1.106999993E0,-2.544000149E0,-8.110050201E0,8.571481786E0
1.383958526E0,-1.260000110E0,-3.004050255E0,-9.220950127E0,9.779460080E0
1.385922000E0,-1.336950064E0,-3.463950157E0,-1.029405022E1,1.094321050E1
1.387885603E0,-1.452000022E0,-3.847050190E0,-1.117605019E1,1.190849264E1
1.389849099E0,-1.489950061E0,-4.039050102E0,-1.178895092E1,1.255042791E1
1.391812617E0,-1.489950061E0,-4.345950127E0,-1.240200043E1,1.322561334E1
1.393776564E0,-1.489950061E0,-4.498950005E0,-1.263195038E1,1.349172608E1
1.395740385E0,-1.489950061E0,-4.498950005E0,-1.251705074E1,1.338420941E1
1.397704371E0,-1.528050065E0,-4.461000443E0,-1.217205048E1,1.305351580E1
1.399668308E0,-1.413000107E0,-4.345950127E0,-1.163595009E1,1.250116740E1
1.401631978E0,-1.297950029E0,-4.192049980E0,-1.094595051E1,1.179287030E1
1.403595713E0,-1.183050036E0,-4.039050102E0,-1.010295010E1,1.094454813E1
1.405559802E0,-7.999500632E-1,-3.847050190E0,-8.991000175E0,9.812125123E0
1.407523788E0,-3.400500119E-1,-3.502050161E0,-7.650000572E0,8.420362112E0
1.409488331E0,1.960500032E-1,-3.310950041E0,-6.499950409E0,7.297272168E0
1.411452711E0,6.550500393E-1,-3.042000055E0,-5.464950085E0,6.288762543E0
1.413416481E0,1.114950061E0,-2.812050104E0,-4.698000431E0,5.587660286E0
1.415380420E0,1.345050097E0,-2.697000027E0,-3.931950092E0,4.954109449E0
1.417344205E0,1.537050128E0,-2.544000149E0,-3.472050190E0,4.570513360E0
1.419308035E0,1.729050040E0,-2.391000032E0,-2.974050045E0,4.189447322E0
1.421271569E0,1.843950033E0,-2.199000120E0,-2.437050104E0,3.764965666E0
1.423235189E0,1.843950033E0,-2.008050203E0,-1.939050078E0,3.345494366E0
1.425198829E0,1.882050037E0,-1.738950133E0,-1.402050018E0,2.920925224E0
1.427162476E0,1.729050040E0,-1.548000097E0,-8.269500136E-1,2.463689239E0
1.429125456E0,1.614000082E0,-1.356000066E0,-1.369500011E-1,2.112460117E0
1.431088631E0,1.575000048E0,-1.164000034E0,4.750500321E-1,2.015240374E0
1.433052456E0,1.575000048E0,-9.730500579E-1,1.240950108E0,2.228768435E0
1.435016091E0,1.575000048E0,-8.580000401E-1,1.701000094E0,2.471879961E0
1.436979933E0,1.651950121E0,-7.039500475E-1,2.430000067E0,3.021487249E0
1.438943711E0,1.729050040E0,-6.660000086E-1,3.081000090E0,3.595237350E0
1.440907435E0,1.804950118E0,-6.280500293E-1,3.541050196E0,4.023844959E0
1.442871175E0,1.996950150E0,-6.280500293E-1,3.963000298E0,4.481922366E0
1.444834993E0,2.111999989E0,-6.660000086E-1,4.308000088E0,4.843858454E0
1.446798788E0,2.111999989E0,-6.280500293E-1,4.498950005E0,5.009545083E0
1.448762426E0,2.035050154E0,-5.509500504E-1,4.653000355E0,5.108364453E0
1.450726137E0,1.882050037E0,-5.130000114E-1,4.729050159E0,5.115583717E0
1.452689646E0,1.690050125E0,-4.360500276E-1,4.806000233E0,5.113125002E0
1.454653214E0,1.575000048E0,-3.210000098E-1,4.996950150E0,5.249112016E0
1.456616927E0,1.345050097E0,-2.830500007E-1,5.188950062E0,5.367912053E0
1.458580597E0,1.269000053E0,-1.680000126E-1,5.266050339E0,5.419397689E0
1.460543994E0,1.039050102E0,-1.290000081E-1,5.496000290E0,5.594844529E0
1.462507460E0,6.550500393E-1,-5.295000225E-2,5.686950207E0,5.724796670E0
1.464469524E0,5.020500422E-1,-1.500000060E-2,5.878950119E0,5.900367255E0
1.466431998E0,3.870000243E-1,2.295000106E-2,6.109050274E0,6.121338985E0
1.468396123E0,3.109500110E-1,2.295000106E-2,6.301050186E0,6.308759788E0
1.470359765E0,2.719500065E-1,-1.500000060E-2,6.492000103E0,6.497710916E0
1.472324516E0,2.340000123E-1,-1.290000081E-1,6.684000492E0,6.689339249E0
1.474288932E0,3.109500110E-1,-1.680000126E-1,6.837000370E0,6.846129415E0
1.476252682E0,2.719500065E-1,-2.059500068E-1,6.913950443E0,6.922361082E0
1.478216627E0,2.340000123E-1,-2.830500007E-1,6.991050243E0,7.000689738E0
1.480179780E0,1.570500135E-1,-3.210000098E-1,7.144050121E0,7.152982444E0
1.482143165E0,8.100000024E-2,-3.979500234E-1,7.182000160E0,7.193472842E0
1.484106515E0,4.200000316E-2,-4.740000367E-1,7.105050564E0,7.120967880E0
1.486069868E0,-7.200000435E-2,-4.740000367E-1,7.066950321E0,7.083194680E0
1.488033618E0,-2.250000089E-1,-5.509500504E-1,6.991050243E0,7.016334831E0
1.489997251E0,-4.170000255E-1,-5.509500504E-1,6.913950443E0,6.948391592E0
1.491960774E0,-5.700000525E-1,-5.509500504E-1,6.684000492E0,6.730847539E0
1.493924330E0,-7.230000496E-1,-5.509500504E-1,6.492000103E0,6.555329158E0
1.495888073E0,-8.380500674E-1,-6.280500293E-1,6.147000313E0,6.235574360E0
1.497851741E0,-1.030050039E0,-6.660000086E-1,5.917050362E0,6.042850658E0
1.499815303E0,-1.183050036E0,-7.039500475E-1,5.649000168E0,5.814323344E0
1.501778896E0,-1.375050068E0,-7.429500222E-1,5.419050217E0,5.639932861E0
1.503742559E0,-1.452000022E0,-8.190000653E-1,5.227050304E0,5.486448765E0
1.505706202E0,-1.567050099E0,-8.959500194E-1,5.035950184E0,5.349688468E0
1.507669734E0,-1.642950058E0,-9.340500236E-1,4.882050037E0,5.235088052E0
1.509633291E0,-1.681950092E0,-9.730500579E-1,4.653000355E0,5.042439373E0
1.511596870E0,-1.681950092E0,-1.011000037E0,4.576050282E0,4.979087604E0
1.513560443E0,-1.681950092E0,-1.126049995E0,4.423050404E0,4.864187453E0
1.515523932E0,-1.681950092E0,-1.164000034E0,4.269000053E0,4.733731472E0
1.517487445E0,-1.681950092E0,-1.279050112E0,4.078050137E0,4.592974877E0
1.519450847E0,-1.681950092E0,-1.279050112E0,3.886050224E0,4.423382376E0
1.521414286E0,-1.720050097E0,-1.279050112E0,3.579000235E0,4.171784295E0
1.523377840E0,-1.642950058E0,-1.318050027E0,3.273000240E0,3.892180795E0
1.525341361E0,-1.605000019E0,-1.318050027E0,2.889000177E0,3.558033580E0
1.527304903E0,-1.489950061E0,-1.318050027E0,2.430000067E0,3.140399239E0
1.529268438E0,-1.413000107E0,-1.318050027E0,1.893000126E0,2.705046146E0
1.531232147E0,-1.413000107E0,-1.240950108E0,1.395000100E0,2.341484946E0
1.533195780E0,-1.375050068E0,-1.240950108E0,8.200500607E-1,2.025636187E0
1.535160564E0,-1.336950064E0,-1.126049995E0,-2.205000073E-2,1.748116205E0
1.537125010E0,-1.375050068E0,-9.730500579E-1,-7.120500207E-1,1.828825945E0
1.539088439E0,-1.336950064E0,-8.190000653E-1,-1.326000094E0,2.053405179E0
1.541052166E0,-1.375050068E0,-6.280500293E-1,-1.900950074E0,2.428748796E0
1.543015497E0,-1.413000107E0,-4.360500276E-1,-2.475000143E0,2.883111971E0
1.544978941E0,-1.413000107E0,-2.440500110E-1,-3.012000084E0,3.335906806E0
1.546941594E0,-1.489950061E0,-1.290000081E-1,-3.510000229E0,3.815323550E0
1.548904479E0,-1.375050068E0,6.105000153E-2,-4.162050247E0,4.383737224E0
1.550868129E0,-1.336950064E0,2.530499995E-1,-4.698000431E0,4.891081458E0
1.552831554E0,-1.297950029E0,4.440000355E-1,-5.043000221E0,5.226247367E0
1.554795256E0,-1.375050068E0,7.510500550E-1,-5.197050095E0,5.428090692E0
1.556758871E0,-1.413000107E0,1.057950020E0,-5.158050060E0,5.451725229E0
1.558722442E0,-1.260000110E0,1.326000094E0,-5.082000256E0,5.401166830E0
1.560686026E0,-1.144950032E0,1.671000123E0,-4.927950382E0,5.328024677E0
1.562649377E0,-9.919500351E-1,1.939050078E0,-4.774950027E0,5.248240452E0
1.564612796E0,-8.770500422E-1,2.169000149E0,-4.774950027E0,5.317323216E0
1.566576314E0,-7.999500632E-1,2.361000061E0,-4.852050304E0,5.454964120E0
1.568539799E0,-6.469500065E-1,2.437050104E0,-5.043000221E0,5.638227448E0
1.570503392E0,-5.700000525E-1,2.514000177E0,-5.542050362E0,6.112235202E0
1.572466953E0,-5.700000525E-1,2.551950216E0,-6.652950287E0,7.148363273E0
1.574430622E0,-6.850500107E-1,2.437050104E0,-8.224950790E0,8.605714510E0
1.576394260E0,-1.030050039E0,2.092950106E0,-1.052400017E1,1.077942590E1
1.578358187E0,-1.297950029E0,1.363950014E0,-1.305405045E1,1.318913443E1
1.580322030E0,-1.489950061E0,1.380000114E-1,-1.523895073E1,1.531223741E1
1.582286372E0,-1.795950055E0,-1.011000037E0,-1.588995075E1,1.602304879E1
1.584250568E0,-2.295000076E0,-1.893000126E0,-1.431900024E1,1.462478180E1
1.586214355E0,-2.755050182E0,-2.736000061E0,-1.159695053E1,1.222968763E1
1.588178262E0,-3.138000250E0,-3.579000235E0,-8.722949982E0,9.937109471E0
1.590141694E0,-3.330000162E0,-4.614000320E0,-6.154950142E0,8.382202055E0
1.592105296E0,-3.598050117E0,-5.686950207E0,-3.739950180E0,7.698999588E0
1.594068328E0,-3.943050146E0,-6.952050209E0,-1.555950046E0,8.142458296E0
1.596031527E0,-4.326000214E0,-8.332050323E0,5.130000114E-1,9.402154511E0
1.597995078E0,-4.708950043E0,-9.940950394E0,2.200050116E0,1.121770590E1
1.599958525E0,-5.131050110E0,-1.174305058E1,3.694050074E0,1.333690061E1
1.601922475E0,-5.476050377E0,-1.373595047E1,4.806000233E0,1.554866879E1
1.603886284E0,-5.821050167E0,-1.565205097E1,5.686950207E0,1.764122239E1
1.605850452E0,-6.241950512E0,-1.756905174E1,5.878950119E0,1.954982301E1
1.607814515E0,-6.702000141E0,-1.944705009E1,5.419050217E0,2.127135794E1
1.609778370E0,-7.239000320E0,-2.132505035E1,4.882050037E0,2.304333550E1
1.611742286E0,-7.813950539E0,-2.339400101E1,4.116000175E0,2.500557065E1
1.613706080E0,-8.427000046E0,-2.554095078E1,3.694050074E0,2.714775317E1
1.615669907E0,-8.809950829E0,-2.768700218E1,3.579000235E0,2.927446953E1
1.617633800E0,-9.001950264E0,-2.991000175E1,3.310950041E0,3.141028022E1
1.619597674E0,-9.001950264E0,-3.224805069E1,2.851050138E0,3.360208876E1
1.621561291E0,-8.503950119E0,-3.473895264E1,2.620950222E0,3.586058251E1
1.623524984E0,-7.621950150E0,-3.723105240E1,1.969950080E0,3.805425193E1
1.625489441E0,-6.088950157E0,-3.952995300E1,9.349500537E-1,4.000708225E1
1.627453674E0,-3.828000069E0,-4.171500015E1,-3.289500177E-1,4.189156276E1
1.629418175E0,-1.183050036E0,-4.347795105E1,-2.322000027E0,4.355598144E1
1.631382597E0,1.459950089E0,-4.524105072E1,-4.927950382E0,4.553206364E1
1.633346120E0,4.027950287E0,-4.665900040E1,-7.381050587E0,4.741061705E1
1.635309907E0,6.289950371E0,-4.823100281E1,-9.988050461E0,4.965434784E1
1.637273815E0,8.128950119E0,-4.941900253E1,-1.213395023E1,5.153203266E1
1.639237650E0,9.739050865E0,-5.064495087E1,-1.443405056E1,5.355466343E1
1.641201364E0,1.104195023E1,-5.137305069E1,-1.516200066E1,5.469004723E1
1.643165114E0,1.249905014E1,-5.217795181E1,-1.577505112E1,5.592510302E1
1.645128796E0,1.380195045E1,-5.309805298E1,-1.566000080E1,5.705377018E1
1.647092498E0,1.525800037E1,-5.367300415E1,-1.493205070E1,5.776299930E1
1.649056484E0,1.602495003E1,-5.405595398E1,-1.401195049E1,5.809629885E1
1.651020400E0,1.675304985E1,-5.428605270E1,-1.236405087E1,5.814215296E1
1.652984055E0,1.702095032E1,-5.378805161E1,-1.033305073E1,5.735537623E1
1.654947787E0,1.729005051E1,-5.321295166E1,-8.301000595E0,5.656386375E1
1.656911337E0,1.740495110E1,-5.187195206E1,-6.499950409E0,5.509883019E1
1.658874941E0,1.705994987E1,-4.995495224E1,-5.695050240E0,5.309399910E1
1.660838998E0,1.571805096E1,-4.765605164E1,-5.809950352E0,5.051645184E1
1.662802929E0,1.338000107E1,-4.504905319E1,-6.960000515E0,4.750666510E1
1.664766762E0,9.624000549E0,-4.163805008E1,-8.569950104E0,4.358661085E1
1.666730623E0,6.175050259E0,-3.814995193E1,-9.834000587E0,3.987803463E1
1.668694241E0,3.070050240E0,-3.500805283E1,-1.090695095E1,3.679606705E1
1.670657931E0,1.189500093E-1,-3.217095184E1,-1.148205090E1,3.415877317E1
1.672621606E0,-2.677950144E0,-2.979495049E1,-1.132905006E1,3.198840207E1
1.674585297E0,-5.016000271E0,-2.776395226E1,-1.040895081E1,3.007230554E1
1.676549395E0,-7.086000443E0,-2.592405128E1,-8.953050613E0,2.832710632E1
1.678513374E0,-8.734050751E0,-2.427600098E1,-7.305000305E0,2.681363264E1
1.680477513E0,-1.011405087E1,-2.251305199E1,-5.772000313E0,2.534654853E1
1.682441605E0,-1.118700027E1,-2.082600021E1,-4.468050003E0,2.405898441E1
1.684405770E0,-1.199205017E1,-1.936995125E1,-3.625050068E0,2.306827403E1
1.686369913E0,-1.237500095E1,-1.791300011E1,-2.974050045E0,2.197410283E1
1.688333935E0,-1.237500095E1,-1.684005165E1,-2.590050220E0,2.105792840E1
1.690297992E0,-1.214505100E1,-1.580505085E1,-2.398950100E0,2.007627599E1
1.692261982E0,-1.191495037E1,-1.492395115E1,-2.284050226E0,1.923297288E1
1.694225992E0,-1.149300098E1,-1.423395061E1,-2.284050226E0,1.843668374E1
1.696189727E0,-1.091805077E1,-1.369695091E1,-2.092050076E0,1.764049235E1
1.698153569E0,-1.030500031E1,-1.331400108E1,-1.861950040E0,1.693878727E1
1.700117100E0,-9.730050087E0,-1.289295101E1,-1.402050018E0,1.621319847E1
1.702080723E0,-9.040050507E0,-1.270095062E1,-1.134000063E0,1.563082263E1
1.704044741E0,-8.427000046E0,-1.262400055E1,-7.120500207E-1,1.519495755E1
1.706008644E0,-7.776000500E0,-1.277805042E1,-6.739500165E-1,1.497327503E1
1.707972376E0,-7.201050282E0,-1.281600094E1,-5.590500236E-1,1.471113667E1
1.709936137E0,-6.702000141E0,-1.304595089E1,-3.670500219E-1,1.467134507E1
1.711899951E0,-6.166050434E0,-1.331400108E1,-4.819500148E-1,1.468043183E1
1.713863750E0,-5.859000206E0,-1.335300064E1,-4.819500148E-1,1.458981787E1
1.715827604E0,-5.629050255E0,-1.335300064E1,-3.670500219E-1,1.449563930E1
1.717791442E0,-5.590950489E0,-1.358205032E1,-4.440000355E-1,1.469448721E1
1.719754951E0,-5.590950489E0,-1.373595047E1,-1.369500011E-1,1.483084010E1
1.721718574E0,-5.743950367E0,-1.411905098E1,-3.670500219E-1,1.524714046E1
1.723682458E0,-5.782950401E0,-1.454100037E1,-7.510500550E-1,1.566675726E1
1.725646265E0,-5.590950489E0,-1.461705112E1,-6.360000372E-1,1.566273945E1
1.727610253E0,-5.514000416E0,-1.446405029E1,-2.140500098E-1,1.548091628E1
1.729574188E0,-5.284050465E0,-1.457895088E1,5.295000225E-2,1.550708876E1
1.731537815E0,-4.900950432E0,-1.519200039E1,-8.659500480E-1,1.598643364E1
1.733501550E0,-4.900950432E0,-1.526895046E1,-7.120500207E-1,1.605201478E1
1.735465100E0,-4.441050053E0,-1.553700066E1,-4.819500148E-1,1.616643408E1
1.737428704E0,-4.096050262E0,-1.580505085E1,-6.360000372E-1,1.633957638E1
1.739392186E0,-3.598050117E0,-1.603499985E1,-1.759500057E-1,1.643466286E1
1.741355704E0,-2.830950022E0,-1.657200050E1,-4.819500148E-1,1.681897008E1
1.743319674E0,-2.410050154E0,-1.680195045E1,-5.970000029E-1,1.698441314E1
1.745283495E0,-1.795950055E0,-1.695495033E1,-1.759500057E-1,1.705071071E1
1.747246806E0,-1.183050036E0,-1.703205109E1,-1.759500057E-1,1.707399572E1
1.749210267E0,-4.930500090E-1,-1.707000160E1,5.295000225E-2,1.707720284E1
1.751174674E0,2.340000123E-1,-1.714695168E1,1.300500035E-1,1.714904140E1
1.753138803E0,9.619500637E-1,-1.710900116E1,3.220500052E-1,1.713904854E1
1.755101696E0,1.422000051E0,-1.684005165E1,7.050000429E-1,1.691468146E1
1.757064954E0,1.920000076E0,-1.660995102E1,1.203000069E0,1.676377291E1
1.759028765E0,2.457000017E0,-1.638000107E1,1.356000066E0,1.661866482E1
1.760992414E0,2.839950085E0,-1.599705029E1,1.395000100E0,1.630696046E1
1.762956068E0,3.184950113E0,-1.549905109E1,1.471050024E0,1.589114471E1
1.764919721E0,3.376950264E0,-1.496205044E1,1.585950017E0,1.542018106E1
1.766883450E0,3.415050268E0,-1.434900093E1,1.548000097E0,1.483080242E1
1.768847168E0,3.529950142E0,-1.369695091E1,1.701000094E0,1.424641757E1
1.770810991E0,3.529950142E0,-1.308405018E1,1.740000129E0,1.366310790E1
1.772774783E0,3.607050180E0,-1.235595036E1,1.777950048E0,1.299389959E1
1.774738819E0,3.721950293E0,-1.170405102E1,1.855050087E0,1.242090717E1
1.776702783E0,3.837000132E0,-1.097595024E1,1.663050056E0,1.174562851E1
1.778666644E0,4.066950321E0,-1.032495022E1,1.510050058E0,1.119932735E1
1.780630511E0,4.219950199E0,-9.750000000E0,1.432950020E0,1.072025305E1
1.782594173E0,4.335000038E0,-9.136050224E0,1.165050030E0,1.017924263E1
1.784557896E0,4.335000038E0,-8.485050201E0,7.050000429E-1,9.554335524E0
1.786522303E0,4.182000160E0,-7.833000183E0,1.300500035E-1,8.880423988E0
1.788486510E0,3.952050209E0,-7.219950199E0,-1.369500011E-1,8.231958275E0
1.790450305E0,3.645000219E0,-6.721950531E0,-5.209500194E-1,7.664335226E0
1.792414214E0,3.337950230E0,-6.147000313E0,-6.739500165E-1,7.027213758E0
1.794377734E0,3.070050240E0,-5.572050095E0,-5.209500194E-1,6.383129299E0
1.796341368E0,2.878050089E0,-4.996950150E0,-2.910000086E-1,5.773851757E0
1.798304665E0,2.649000168E0,-4.461000443E0,-9.900000691E-2,5.189174100E0
1.800268060E0,2.419050217E0,-3.924000263E0,1.680000126E-1,4.612787229E0
1.802230762E0,2.111999989E0,-3.310950041E0,3.979500234E-1,3.947315334E0
1.804193670E0,1.767000079E0,-2.812050104E0,6.660000086E-1,3.387251257E0
1.806157496E0,1.498950124E0,-2.238000154E0,1.050000072E0,2.891019944E0
1.808121053E0,1.269000053E0,-1.701000094E0,1.240950108E0,2.458397776E0
1.810084724E0,1.114950061E0,-1.240950108E0,1.432950020E0,2.199185433E0
1.812048361E0,8.850000501E-1,-7.429500222E-1,1.471050024E0,1.870611664E0
1.814012077E0,7.320000529E-1,-4.360500276E-1,1.471050024E0,1.699985846E0
1.815975759E0,6.550500393E-1,-1.680000126E-1,1.471050024E0,1.619043771E0
1.817938733E0,6.940500140E-1,2.295000106E-2,1.395000100E0,1.558286689E0
1.819901915E0,7.699500322E-1,4.060500264E-1,1.203000069E0,1.484893545E0
1.821865694E0,8.470500112E-1,8.280000687E-1,1.050000072E0,1.582901761E0
1.823829298E0,8.470500112E-1,9.810000658E-1,5.899500251E-1,1.424042093E0
1.825794073E0,9.240000248E-1,1.210950017E0,4.360500276E-1,1.584397556E0
1.827758515E0,9.240000248E-1,1.441050053E0,9.195000678E-2,1.714309221E0
1.829722125E0,9.619500637E-1,1.747950077E0,-9.900000691E-2,1.997618181E0
1.831685978E0,9.619500637E-1,2.016000032E0,-4.440000355E-1,2.277441566E0
1.833650002E0,8.470500112E-1,2.208000183E0,-8.659500480E-1,2.518457467E0
1.835613976E0,8.089500666E-1,2.437050104E0,-1.096050024E0,2.791941811E0
1.837577580E0,7.320000529E-1,2.706000090E0,-1.363950014E0,3.117470161E0
1.839541290E0,6.169500351E-1,2.896950245E0,-1.594050050E0,3.363620613E0
1.841504258E0,5.020500422E-1,3.051000118E0,-1.671000123E0,3.514668886E0
1.843467444E0,4.639500082E-1,3.166050196E0,-1.671000123E0,3.609898179E0
1.845431267E0,3.870000243E-1,3.241950035E0,-1.708950043E0,3.685175613E0
1.847394903E0,3.870000243E-1,3.241950035E0,-1.824000120E0,3.739917845E0
1.849359456E0,3.870000243E-1,3.280950069E0,-1.861950040E0,3.792263220E0
1.851323744E0,5.410500169E-1,3.241950035E0,-1.708950043E0,3.704522290E0
1.853287381E0,6.169500351E-1,3.127050161E0,-1.594050050E0,3.563715143E0
1.855251208E0,7.699500322E-1,2.974050045E0,-1.516950130E0,3.426212839E0
1.857215012E0,1.000050068E0,2.743950129E0,-1.479000092E0,3.273652962E0
1.859178823E0,1.192050099E0,2.551950216E0,-1.326000094E0,3.113151072E0
1.861142516E0,1.306950092E0,2.245950222E0,-1.326000094E0,2.917308210E0
1.863106229E0,1.306950092E0,1.978050113E0,-1.402050018E0,2.754368357E0
1.865069737E0,1.422000051E0,1.594050050E0,-1.671000123E0,2.712069526E0
1.867033306E0,1.459950089E0,1.249050021E0,-1.824000120E0,2.649255869E0
1.868997019E0,1.537050128E0,1.018950105E0,-1.977000117E0,2.703573908E0
1.870960689E0,1.651950121E0,7.129500508E-1,-2.437050104E0,3.029265618E0
1.872924370E0,1.614000082E0,4.830000103E-1,-2.743950129E0,3.219867634E0
1.874888058E0,1.651950121E0,2.530499995E-1,-3.165000200E0,3.579133942E0
1.876852292E0,1.690050125E0,-1.500000060E-2,-3.433950186E0,3.827336973E0
1.878816366E0,1.767000079E0,-1.680000126E-1,-3.817050219E0,4.209558843E0
1.880779498E0,1.843950033E0,-4.740000367E-1,-4.009050369E0,4.438165457E0
1.882742906E0,1.920000076E0,-8.959500194E-1,-4.429950237E0,4.910558607E0
1.884706460E0,1.959000111E0,-1.318050027E0,-4.774950027E0,5.326826923E0
1.886669943E0,2.074050188E0,-1.738950133E0,-5.043000221E0,5.723415325E0
1.888633177E0,2.188950062E0,-2.199000120E0,-5.235000134E0,6.085419484E0
1.890596484E0,2.304000139E0,-2.659050226E0,-5.427000046E0,6.467711670E0
1.892560061E0,2.419050217E0,-3.042000055E0,-5.580000401E0,6.800145054E0
1.894523559E0,2.533950090E0,-3.426000118E0,-5.733000278E0,7.143225606E0
1.896487274E0,2.686950207E0,-3.732000113E0,-5.887050152E0,7.470266779E0
1.898450933E0,2.764050245E0,-4.077000141E0,-6.040050507E0,7.793851040E0
1.900414631E0,2.802000046E0,-4.345950127E0,-6.154950142E0,8.038774658E0
1.902378318E0,2.917050123E0,-4.575000286E0,-6.307950497E0,8.320459633E0
1.904341832E0,3.070050240E0,-4.767000198E0,-6.499950409E0,8.625477070E0
1.906305397E0,3.184950113E0,-4.882050037E0,-6.652950287E0,8.845341560E0
1.908269075E0,3.223050117E0,-5.035050392E0,-6.805950165E0,9.058738442E0
1.910232713E0,3.300000191E0,-5.227050304E0,-6.883050442E0,9.251402030E0
1.912196280E0,3.415050268E0,-5.265000343E0,-6.921000481E0,9.342539516E0
1.914159868E0,3.415050268E0,-5.304000378E0,-6.921000481E0,9.364573455E0
1.916123577E0,3.376950264E0,-5.304000378E0,-6.844950199E0,9.294598233E0
1.918087251E0,3.376950264E0,-5.380050182E0,-6.768000126E0,9.281948004E0
1.920051101E0,3.337950230E0,-5.304000378E0,-6.615000248E0,9.112220367E0
1.922014886E0,3.337950230E0,-5.188950062E0,-6.346950531E0,8.851604121E0
1.923978563E0,3.300000191E0,-5.188950062E0,-6.040050507E0,8.619594777E0
1.925942272E0,3.300000191E0,-5.074050426E0,-5.733000278E0,8.336862790E0
1.927906140E0,3.184950113E0,-4.959000111E0,-5.350050449E0,7.959813386E0
1.929869962E0,2.992950201E0,-4.920000076E0,-4.966950417E0,7.604916048E0
1.931833469E0,2.878050089E0,-4.767000198E0,-4.582950115E0,7.211857941E0
1.933797089E0,2.686950207E0,-4.690050125E0,-4.084949970E0,6.775181758E0
1.935760748E0,2.533950090E0,-4.537050247E0,-3.586950064E0,6.314423075E0
1.937724395E0,2.265000105E0,-4.422000408E0,-3.280050039E0,5.953405861E0
1.939688140E0,2.111999989E0,-4.192049980E0,-2.896950245E0,5.515990184E0
1.941651857E0,1.920000076E0,-4.000950336E0,-2.398950100E0,5.044696767E0
1.943615486E0,1.729050040E0,-3.808950186E0,-1.977000117E0,4.626688343E0
1.945579151E0,1.575000048E0,-3.579000235E0,-1.479000092E0,4.180587172E0
1.947543028E0,1.459950089E0,-3.426000118E0,-1.018950105E0,3.860983086E0
1.949506842E0,1.422000051E0,-3.310950041E0,-4.819500148E-1,3.635484855E0
1.951469478E0,1.230000019E0,-3.004050255E0,5.295000225E-2,3.246539956E0
1.953432459E0,9.240000248E-1,-2.736000061E0,4.750500321E-1,2.926626883E0
1.955395323E0,5.020500422E-1,-2.506050110E0,1.050000072E0,2.763121703E0
1.957358224E0,1.570500135E-1,-2.275950193E0,1.471050024E0,2.714516930E0
1.959322051E0,-1.099500060E-1,-2.008050203E0,1.930950046E0,2.787996180E0
1.961285607E0,-4.930500090E-1,-1.777950048E0,2.467950106E0,3.081392933E0
1.963249503E0,-8.380500674E-1,-1.548000097E0,2.928000212E0,3.416404171E0
1.965213299E0,-1.260000110E0,-1.279050112E0,3.426000118E0,3.867951173E0
1.967177149E0,-1.642950058E0,-1.011000037E0,3.847950220E0,4.304431073E0
1.969140986E0,-1.987950087E0,-7.429500222E-1,4.345950127E0,4.836445263E0
1.971104700E0,-2.332950115E0,-4.740000367E-1,4.729050159E0,5.294454428E0
1.973068450E0,-2.716050148E0,-2.059500068E-1,5.035950184E0,5.725394141E0
1.975032133E0,-2.985000134E0,-1.290000081E-1,5.304000378E0,6.087633925E0
1.976995835E0,-3.100050211E0,-9.105000645E-2,5.496000290E0,6.310675130E0
1.978958809E0,-3.367950201E0,2.295000106E-2,5.649000168E0,6.576839526E0
1.980921993E0,-3.520950079E0,2.140500098E-1,5.841000080E0,6.823502678E0
1.982885727E0,-3.675000191E0,3.289500177E-1,5.917050362E0,6.973185750E0
1.984849299E0,-3.751050234E0,4.060500264E-1,6.031950474E0,7.114750944E0
1.986813012E0,-3.865950108E0,5.209500194E-1,6.070950508E0,7.216190077E0
1.988776684E0,-4.057950020E0,5.980500579E-1,5.994000435E0,7.263102880E0
1.990740265E0,-4.096050262E0,6.739500165E-1,6.186000347E0,7.449727288E0
1.992703859E0,-4.210950375E0,7.510500550E-1,6.262050152E0,7.583498622E0
1.994667702E0,-4.249050140E0,7.890000343E-1,6.262050152E0,7.608562299E0
1.996631472E0,-4.249050140E0,8.659500480E-1,6.339000225E0,7.680313824E0
1.998594972E0,-4.288050175E0,9.430500269E-1,6.454050541E0,7.805862287E0
2.000558551E0,-4.288050175E0,1.096050024E0,6.454050541E0,7.825820618E0
2.002522427E0,-4.326000214E0,1.173000097E0,6.492000103E0,7.888996921E0
2.004486226E0,-4.402950287E0,1.363950014E0,6.531000137E0,7.993765925E0
2.006449946E0,-4.518000126E0,1.518000126E0,6.568950176E0,8.115895264E0
2.008413690E0,-4.594050407E0,1.633050084E0,6.492000103E0,8.119003452E0
2.010377193E0,-4.708950043E0,1.863000035E0,6.415950298E0,8.173701601E0
2.012340767E0,-4.824000359E0,2.053950071E0,6.147000313E0,8.079313288E0
2.014304498E0,-4.786050320E0,2.092950106E0,5.841000080E0,7.836070427E0
2.016268169E0,-4.824000359E0,2.169000149E0,5.419050217E0,7.572426715E0
2.018231865E0,-4.900950432E0,2.284050226E0,4.959000111E0,7.336748781E0
2.020195554E0,-4.978050232E0,2.322000027E0,4.423050404E0,7.052378543E0
2.022159427E0,-4.900950432E0,2.398950100E0,3.963000298E0,6.743860028E0
2.024123246E0,-4.900950432E0,2.514000177E0,3.541050196E0,6.548171387E0
2.026087412E0,-4.900950432E0,2.590950012E0,3.273000240E0,6.437768843E0
2.028051477E0,-4.863000393E0,2.821050167E0,2.928000212E0,6.338791849E0
2.030015152E0,-4.747950077E0,2.974050045E0,2.659050226E0,6.201495925E0
2.031978941E0,-4.708950043E0,3.204000235E0,2.353049994E0,6.162521585E0
2.033942796E0,-4.594050407E0,3.511050224E0,1.855050087E0,6.072395215E0
2.035906631E0,-4.441050053E0,3.741000175E0,1.510050058E0,5.999854920E0
2.037870849E0,-4.249050140E0,3.970950127E0,1.087950110E0,5.916629737E0
2.039834948E0,-3.981000185E0,4.162050247E0,4.750500321E-1,5.778987564E0
2.041799607E0,-3.751050234E0,4.315950394E0,-1.369500011E-1,5.719839243E0
2.043764102E0,-3.483000278E0,4.431000233E0,-7.510500550E-1,5.685871102E0
2.045727657E0,-3.253050089E0,4.507050037E0,-1.441050053E0,5.742165112E0
2.047691488E0,-2.985000134E0,4.621950150E0,-1.977000117E0,5.846467176E0
2.049655142E0,-2.640000105E0,4.660050392E0,-2.359950066E0,5.852780068E0
2.051618858E0,-2.295000076E0,4.774950027E0,-2.551950216E0,5.880444118E0
2.053582770E0,-1.873050094E0,4.852050304E0,-2.743950129E0,5.880473715E0
2.055546625E0,-1.452000022E0,4.890000343E0,-2.820000172E0,5.828619767E0
2.057510471E0,-9.919500351E-1,4.890000343E0,-2.859000206E0,5.750647825E0
2.059474319E0,-5.320500135E-1,4.813950062E0,-3.012000084E0,5.703449563E0
2.061438165E0,-7.200000435E-2,4.736999989E0,-3.433950186E0,5.851185074E0
2.063402012E0,3.490500152E-1,4.545000076E0,-4.162050247E0,6.172643183E0
2.065366758E0,1.039050102E0,3.894000292E0,-5.272950172E0,6.636781367E0
2.067331240E0,1.767000079E0,2.361000061E0,-7.075050354E0,7.665047167E0
2.069295339E0,1.996950150E0,1.018950105E0,-8.683950424E0,8.968671261E0
2.071259550E0,2.035050154E0,-1.290000081E-1,-9.718950272E0,9.930562145E0
2.073223644E0,1.729050040E0,-1.048950076E0,-1.037100029E1,1.056634077E1
2.075187776E0,1.384050012E0,-2.083950043E0,-1.048605061E1,1.078033856E1
2.077151393E0,1.114950061E0,-3.042000055E0,-1.021800041E1,1.071934748E1
2.079115161E0,6.940500140E-1,-4.039050102E0,-9.528000832E0,1.037200227E1
2.081077984E0,2.340000123E-1,-5.074050426E0,-8.683950424E0,1.006040450E1
2.083041084E0,-1.480500102E-1,-6.031950474E0,-7.687950134E0,9.772968975E0
2.085004802E0,-5.700000525E-1,-7.066950321E0,-6.730050087E0,9.775492881E0
2.086968360E0,-1.106999993E0,-8.407950401E0,-5.962950230E0,1.036705621E1
2.088932121E0,-1.681950092E0,-9.979950905E0,-4.890000343E0,1.124012809E1
2.090895822E0,-2.256000042E0,-1.189605045E1,-3.433950186E0,1.258560950E1
2.092859108E0,-3.100050211E0,-1.404195023E1,-1.441050053E0,1.445210375E1
2.094822516E0,-3.981000185E0,-1.660995102E1,5.899500251E-1,1.709054933E1
2.096786315E0,-4.824000359E0,-1.910205078E1,2.583000183E0,1.987036017E1
2.098749990E0,-5.323050022E0,-2.174595070E1,3.541050196E0,2.266628046E1
2.100713641E0,-5.629050255E0,-2.423805046E1,3.963000298E0,2.519671940E1
2.102677299E0,-5.859000206E0,-2.688195038E1,3.579000235E0,2.774484425E1
2.104641041E0,-5.935950279E0,-2.971800232E1,3.273000240E0,3.048126799E1
2.106604759E0,-5.821050167E0,-3.270795059E1,2.773950100E0,3.333750825E1
2.108568767E0,-5.668050289E0,-3.569700241E1,2.467950106E0,3.622835289E1
2.110532687E0,-5.208000183E0,-3.876405334E1,1.816050053E0,3.915447785E1
2.112496701E0,-4.555950165E0,-4.163805008E1,1.318050027E0,4.190729235E1
2.114460687E0,-3.790050268E0,-4.432095337E1,1.011000037E0,4.449419636E1
2.116425230E0,-2.908050060E0,-4.688895035E1,-4.440000355E-1,4.698114043E1
2.118389610E0,-1.911000133E0,-4.903605270E1,-1.786050081E0,4.910576709E1
2.120354403E0,-2.629500031E-1,-5.118195343E1,-4.392000198E0,5.137072284E1
2.122319106E0,1.651950121E0,-5.263800430E1,-7.189950466E0,5.315245831E1
2.124282671E0,3.721950293E0,-5.378805161E1,-1.102200031E1,5.503173539E1
2.126246569E0,6.136050224E0,-5.467005157E1,-1.485495090E1,5.698363991E1
2.128210361E0,8.053050041E0,-5.501505280E1,-1.792094994E1,5.841804598E1
2.130174185E0,9.777000427E0,-5.478495407E1,-1.976100159E1,5.905487375E1
2.132138034E0,1.115700054E1,-5.424795151E1,-1.999095154E1,5.888087166E1
2.134101875E0,1.249905014E1,-5.313705063E1,-1.857299995E1,5.766046073E1
2.136065588E0,1.338000107E1,-5.137305069E1,-1.588995075E1,5.541394500E1
2.138029338E0,1.368705082E1,-4.938000107E1,-1.240200043E1,5.272124316E1
2.139993335E0,1.384005070E1,-4.761705399E1,-8.914050102E0,5.038244856E1
2.141957260E0,1.380195045E1,-4.596900177E1,-5.542050362E0,4.831518687E1
2.143920927E0,1.341900063E1,-4.416795349E1,-2.629050016E0,4.623623684E1
2.145884660E0,1.318905067E1,-4.252005386E1,-6.105000153E-2,4.451864514E1
2.147847669E0,1.265205097E1,-4.087200165E1,1.816050053E0,4.282397635E1
2.149810891E0,1.192395020E1,-3.914700317E1,2.889000177E0,4.102456298E1
2.151774843E0,1.069695091E1,-3.742200089E1,3.196050167E0,3.905183281E1
2.153738581E0,8.743050575E0,-3.550605011E1,2.200050116E0,3.663278243E1
2.155703468E0,5.868000507E0,-3.332100296E1,2.070000172E-1,3.383438365E1
2.157668029E0,3.607050180E0,-3.140505219E1,-2.053950071E0,3.167817584E1
2.159631438E0,2.035050154E0,-2.991000175E1,-3.894000292E0,3.023099192E1
2.161595185E0,8.850000501E-1,-2.853000069E1,-5.197050095E0,2.901298837E1
2.163558507E0,-3.019500077E-1,-2.749500084E1,-5.887050152E0,2.811980804E1
2.165521954E0,-1.528050065E0,-2.638395119E1,-6.232050419E0,2.715301585E1
2.167485822E0,-2.755050182E0,-2.534895134E1,-6.270000458E0,2.625780915E1
2.169449567E0,-3.904950142E0,-2.423805046E1,-6.154950142E0,2.531037607E1
2.171413252E0,-5.092950344E0,-2.320305061E1,-5.772000313E0,2.444658849E1
2.173376954E0,-6.127950191E0,-2.224500084E1,-5.542050362E0,2.372985795E1
2.175340869E0,-7.047000408E0,-2.140095139E1,-5.311950207E0,2.314903346E1
2.177304721E0,-7.737000465E0,-2.071095085E1,-5.005050182E0,2.266837420E1
2.179268508E0,-8.236050606E0,-1.998300171E1,-4.774950027E0,2.213488276E1
2.181232324E0,-8.580000877E0,-1.936995125E1,-4.429950237E0,2.164337972E1
2.183196354E0,-8.848950386E0,-1.887195015E1,-3.970050097E0,2.121828747E1
2.185160322E0,-8.925000191E0,-1.845000076E1,-3.433950186E0,2.078100504E1
2.187124328E0,-9.001950264E0,-1.806705093E1,-3.049950123E0,2.041459365E1
2.189088322E0,-8.848950386E0,-1.783695030E1,-2.629050016E0,2.008413859E1
2.191052189E0,-8.772000313E0,-1.772205162E1,-2.245050192E0,1.990124000E1
2.193016093E0,-8.580000877E0,-1.776000023E1,-1.939050078E0,1.981902970E1
2.194979929E0,-8.274000168E0,-1.787505150E1,-1.594050050E0,1.976151665E1
2.196943785E0,-7.852050304E0,-1.810500145E1,-1.287000060E0,1.977630250E1
2.198907629E0,-7.354050159E0,-1.837305069E1,-9.420000315E-1,1.981258210E1
2.200871477E0,-6.931950092E0,-1.860300064E1,-7.120500207E-1,1.986531098E1
2.202835129E0,-6.472050190E0,-1.887195015E1,-4.060500264E-1,1.995501974E1
2.204798848E0,-6.088950157E0,-1.910205078E1,-2.910000086E-1,2.005114309E1
2.206762310E0,-5.706000328E0,-1.933200073E1,-1.369500011E-1,2.015697019E1
2.208725848E0,-5.361000061E0,-1.956195068E1,1.500000060E-2,2.028325569E1
2.210689431E0,-4.978050232E0,-1.960005188E1,9.195000678E-2,2.022254862E1
2.212653000E0,-4.786050320E0,-1.971495056E1,1.300500035E-1,2.028798823E1
2.214616179E0,-4.594050407E0,-1.986795044E1,2.449500114E-1,2.039364495E1
2.216579469E0,-4.518000126E0,-1.990695000E1,3.600000143E-1,2.041638027E1
2.218543724E0,-4.479000092E0,-1.994505119E1,3.220500052E-1,2.044432012E1
2.220507697E0,-4.249050140E0,-1.986795044E1,3.600000143E-1,2.032042031E1
2.222472108E0,-4.018949986E0,-1.967700005E1,2.449500114E-1,2.008472779E1
2.224436390E0,-3.828000069E0,-1.948500061E1,-7.890000343E-1,1.987313147E1
2.226400289E0,-3.675000191E0,-1.914000130E1,-1.594050050E0,1.955469948E1
2.228364306E0,-3.520950079E0,-1.883295059E1,-1.632000089E0,1.922863858E1
2.230327762E0,-3.330000162E0,-1.848795128E1,-7.510500550E-1,1.880046063E1
2.232291383E0,-3.100050211E0,-1.810500145E1,-2.205000073E-2,1.836850225E1
2.234254366E0,-2.869950056E0,-1.764495087E1,7.429500222E-1,1.789225752E1
2.236217536E0,-2.601000071E0,-1.726200104E1,1.087950110E0,1.749072659E1
2.238180996E0,-2.371050119E0,-1.672500038E1,1.126049995E0,1.692972253E1
2.240144375E0,-2.218050003E0,-1.622700119E1,1.203000069E0,1.642201335E1
2.242107941E0,-2.103000164E0,-1.565205097E1,1.203000069E0,1.583845063E1
2.244071452E0,-1.795950055E0,-1.519200039E1,1.126049995E0,1.533917537E1
2.246035536E0,-1.567050099E0,-1.457895088E1,1.050000072E0,1.470047465E1
2.247999452E0,-1.297950029E0,-1.385100079E1,9.730500579E-1,1.394567042E1
2.249963440E0,-1.030050039E0,-1.316100025E1,1.050000072E0,1.324293891E1
2.251927394E0,-7.620000243E-1,-1.258605099E1,1.011000037E0,1.264956302E1
2.253891223E0,-4.930500090E-1,-1.197300053E1,1.087950110E0,1.203243431E1
2.255855088E0,-2.250000089E-1,-1.132095051E1,1.203000069E0,1.138691155E1
2.257818931E0,-3.299999982E-2,-1.066995049E1,1.165050030E0,1.073341856E1
2.259782780E0,8.100000024E-2,-1.009500027E1,1.087950110E0,1.015377894E1
2.261747202E0,2.340000123E-1,-9.595950127E0,8.959500194E-1,9.640525985E0
2.263711462E0,4.639500082E-1,-9.136050224E0,6.280500293E-1,9.169357129E0
2.265676814E0,8.089500666E-1,-8.752950668E0,4.750500321E-1,8.803080037E0
2.267641846E0,1.192050099E0,-8.407950401E0,2.449500114E-1,8.495564366E0
2.269605850E0,1.422000051E0,-7.909950256E0,5.295000225E-2,8.036927330E0
2.271570156E0,1.690050125E0,-7.527000427E0,-2.140500098E-1,7.717371461E0
2.273533802E0,1.920000076E0,-7.066950321E0,-5.590500236E-1,7.344434904E0
2.275497632E0,2.188950062E0,-6.568950176E0,-6.739500165E-1,6.956782116E0
2.277461660E0,2.380050182E0,-6.070050240E0,-7.890000343E-1,6.567546714E0
2.279425630E0,2.610000134E0,-5.572050095E0,-9.040500522E-1,6.219095549E0
2.281389411E0,2.878050089E0,-5.112000465E0,-9.810000658E-1,5.947947730E0
2.283353247E0,3.108000040E0,-4.614000320E0,-1.096050024E0,5.670096019E0
2.285317099E0,3.147000074E0,-4.077000141E0,-1.096050024E0,5.265630568E0
2.287280942E0,3.184950113E0,-3.463950157E0,-1.057050109E0,4.822884287E0
2.289244655E0,3.031950235E0,-2.965950251E0,-9.810000658E-1,4.353383081E0
2.291208406E0,2.839950085E0,-2.506050110E0,-8.269500136E-1,3.876783456E0
2.293172267E0,2.725050211E0,-2.199000120E0,-9.040500522E-1,3.616463283E0
2.295136096E0,2.572050095E0,-1.893000126E0,-1.057050109E0,3.363962856E0
2.297099926E0,2.494950056E0,-1.738950133E0,-1.134000063E0,3.245717100E0
2.299063769E0,2.457000017E0,-1.624050021E0,-1.287000060E0,3.214149454E0
2.301027572E0,2.341950178E0,-1.432950020E0,-1.479000092E0,3.118576224E0
2.302991387E0,2.265000105E0,-1.318050027E0,-1.747050047E0,3.149550002E0
2.304954923E0,2.304000139E0,-1.087950110E0,-2.053950071E0,3.272730203E0
2.306918541E0,2.341950178E0,-8.580000401E-1,-2.206950188E0,3.330393946E0
2.308882283E0,2.304000139E0,-5.130000114E-1,-2.359950066E0,3.337806161E0
2.310845961E0,2.227050066E0,-2.440500110E-1,-2.514000177E0,3.367418788E0
2.312808891E0,2.265000105E0,-1.290000081E-1,-2.743950129E0,3.560355149E0
2.314772040E0,2.265000105E0,6.105000153E-2,-2.896950245E0,3.677808219E0
2.316736050E0,2.188950062E0,1.380000114E-1,-3.012000084E0,3.725948320E0
2.318699807E0,2.227050066E0,4.060500264E-1,-2.974050045E0,3.737593115E0
2.320663643E0,2.111999989E0,5.980500579E-1,-3.049950123E0,3.757712546E0
2.322627442E0,2.074050188E0,7.890000343E-1,-3.088950157E0,3.803395629E0
2.324591162E0,2.035050154E0,9.810000658E-1,-3.127050161E0,3.857749729E0
2.326554905E0,1.959000111E0,1.096050024E0,-3.127050161E0,3.849344074E0
2.328518768E0,1.920000076E0,1.173000097E0,-3.012000084E0,3.759584289E0
2.330482596E0,1.920000076E0,1.173000097E0,-2.974050045E0,3.729249682E0
2.332446022E0,1.882050037E0,1.210950017E0,-2.935050249E0,3.690939210E0
2.334409579E0,1.959000111E0,1.210950017E0,-2.629050016E0,3.495137389E0
2.336373338E0,1.996950150E0,1.249050021E0,-2.284050226E0,3.280978709E0
2.338337038E0,1.920000076E0,1.249050021E0,-2.206950188E0,3.180747613E0
2.340300730E0,1.882050037E0,1.210950017E0,-1.786050081E0,2.863300051E0
2.342264425E0,1.804950118E0,1.134000063E0,-1.402050018E0,2.551381062E0
2.344228131E0,1.882050037E0,1.096050024E0,-1.018950105E0,2.404516025E0
2.346191824E0,1.959000111E0,1.057950020E0,-5.970000029E-1,2.305070212E0
2.348155650E0,1.920000076E0,9.430500269E-1,-2.140500098E-1,2.149781629E0
2.350119437E0,1.843950033E0,8.659500480E-1,5.295000225E-2,2.037848108E0
2.352082438E0,1.804950118E0,9.040500522E-1,3.979500234E-1,2.057550886E0
2.354045670E0,1.690050125E0,8.280000687E-1,4.360500276E-1,1.931836734E0
2.356009556E0,1.575000048E0,7.890000343E-1,6.280500293E-1,1.870185297E0
2.357973264E0,1.345050097E0,7.510500550E-1,5.130000114E-1,1.623701007E0
2.359937674E0,1.269000053E0,6.360000372E-1,4.360500276E-1,1.484923166E0
2.361901879E0,1.153950095E0,5.980500579E-1,2.449500114E-1,1.322597899E0
2.363865710E0,1.000050068E0,5.209500194E-1,9.195000678E-2,1.131346041E0
2.365829651E0,7.699500322E-1,4.830000103E-1,-2.205000073E-2,9.091744962E-1
2.367792570E0,5.790000558E-1,4.830000103E-1,-2.140500098E-1,7.838032159E-1
2.369755795E0,5.020500422E-1,2.910000086E-1,-4.819500148E-1,7.543282221E-1
2.371719882E0,4.639500082E-1,1.380000114E-1,-6.360000372E-1,7.992431798E-1
2.373683716E0,3.870000243E-1,2.295000106E-2,-7.120500207E-1,8.107471575E-1
2.375648150E0,3.490500152E-1,-1.290000081E-1,-9.040500522E-1,9.776417606E-1
2.377612408E0,2.719500065E-1,-2.059500068E-1,-1.057050109E0,1.110732706E0
2.379576495E0,3.109500110E-1,-5.890500546E-1,-1.171950102E0,1.348012210E0
2.381540636E0,3.109500110E-1,-8.959500194E-1,-1.363950014E0,1.661257351E0
2.383504476E0,3.490500152E-1,-1.164000034E0,-1.479000092E0,1.914203036E0
2.385468405E0,3.109500110E-1,-1.432950020E0,-1.594050050E0,2.165878859E0
2.387432416E0,4.260000288E-1,-1.624050021E0,-1.747050047E0,2.423055584E0
2.389396403E0,4.260000288E-1,-1.854000092E0,-1.861950040E0,2.661888487E0
2.391360601E0,4.639500082E-1,-2.083950043E0,-1.977000117E0,2.909746871E0
2.393324726E0,5.410500169E-1,-2.238000154E0,-2.053950071E0,3.085464423E0
2.395289381E0,6.169500351E-1,-2.391000032E0,-2.284050226E0,3.363687550E0
2.397253880E0,6.169500351E-1,-2.467050076E0,-2.359950066E0,3.469341109E0
2.399217975E0,6.550500393E-1,-2.581950188E0,-2.590050220E0,3.715362361E0
2.401182189E0,6.940500140E-1,-2.697000027E0,-2.896950245E0,4.018436921E0
2.403146192E0,6.940500140E-1,-2.851050138E0,-3.165000200E0,4.315949326E0
2.405110261E0,7.699500322E-1,-2.965950251E0,-3.510000229E0,4.659376090E0
2.407074383E0,7.320000529E-1,-3.004050255E0,-3.817050219E0,4.912231100E0
2.409038490E0,7.699500322E-1,-3.081000090E0,-4.047000408E0,5.144278075E0
2.411002337E0,7.699500322E-1,-3.157050133E0,-4.276950359E0,5.371414429E0
2.412966261E0,8.470500112E-1,-3.157050133E0,-4.392000198E0,5.474863012E0
2.414930247E0,8.470500112E-1,-3.234000206E0,-4.507050037E0,5.611572961E0
2.416894201E0,8.850000501E-1,-3.271950245E0,-4.507050037E0,5.639360206E0
2.418858254E0,8.850000501E-1,-3.310950041E0,-4.429950237E0,5.600899425E0
2.420822278E0,8.850000501E-1,-3.271950245E0,-4.392000198E0,5.547841854E0
2.422786409E0,8.470500112E-1,-3.234000206E0,-4.237950325E0,5.397821228E0
2.424750509E0,7.699500322E-1,-3.234000206E0,-4.009050369E0,5.208076924E0
2.426714334E0,7.320000529E-1,-3.157050133E0,-3.739950180E0,4.948738927E0
2.428678224E0,6.169500351E-1,-3.081000090E0,-3.510000229E0,4.710975536E0
2.430641161E0,5.790000558E-1,-3.042000055E0,-3.204000235E0,4.455852657E0
2.432604378E0,5.020500422E-1,-2.926950216E0,-2.859000206E0,4.122253509E0
2.434568331E0,4.260000288E-1,-2.812050104E0,-2.437050104E0,3.745439230E0
2.436532069E0,3.490500152E-1,-2.697000027E0,-2.169000149E0,3.478535137E0
2.438495798E0,2.340000123E-1,-2.581950188E0,-1.861950040E0,3.191877305E0
2.440459531E0,1.570500135E-1,-2.428950071E0,-1.516950130E0,2.868030832E0
2.442423395E0,8.100000024E-2,-2.275950193E0,-1.249050021E0,2.597428774E0
2.444387221E0,4.200000316E-2,-2.122950077E0,-9.420000315E-1,2.322938891E0
2.446351431E0,4.050000105E-3,-1.930950046E0,-5.209500194E-1,1.999993351E0
2.448315529E0,-3.299999982E-2,-1.701000094E0,-2.520000041E-1,1.719882067E0
2.450278622E0,-3.299999982E-2,-1.585950017E0,9.195000678E-2,1.588956028E0
2.452242003E0,-1.099500060E-1,-1.393950105E0,4.750500321E-1,1.476772979E0
2.454206108E0,-1.480500102E-1,-1.240950108E0,9.349500537E-1,1.560771469E0
2.456170001E0,-2.250000089E-1,-1.087950110E0,1.240950108E0,1.665598276E0
2.458133974E0,-3.400500119E-1,-7.810500264E-1,1.510050058E0,1.733760172E0
2.460097924E0,-3.400500119E-1,-5.509500504E-1,1.777950048E0,1.892164460E0
2.462061772E0,-4.170000255E-1,-3.589500189E-1,2.161050081E0,2.229993630E0
2.464025637E0,-4.170000255E-1,-1.680000126E-1,2.545050144E0,2.584452217E0
2.465988579E0,-4.549500346E-1,-1.290000081E-1,2.928000212E0,2.965940960E0
2.467951791E0,-4.549500346E-1,-1.500000060E-2,3.196050167E0,3.228303146E0
2.469915430E0,-5.320500135E-1,1.380000114E-1,3.541050196E0,3.583456112E0
2.471878943E0,-6.079500318E-1,3.289500177E-1,3.886050224E0,3.947049240E0
2.473842661E0,-6.850500107E-1,4.830000103E-1,4.078050137E0,4.163301027E0
2.475806322E0,-8.380500674E-1,6.360000372E-1,4.384050369E0,4.508516563E0
2.477770155E0,-9.919500351E-1,7.890000343E-1,4.653000355E0,4.822540640E0
2.479733938E0,-1.030050039E0,8.659500480E-1,4.921050072E0,5.101725823E0
2.481697661E0,-1.106999993E0,9.040500522E-1,5.112000465E0,5.308041469E0
2.483661401E0,-1.222050071E0,9.430500269E-1,5.304000378E0,5.524053741E0
2.485625095E0,-1.183050036E0,9.040500522E-1,5.572050095E0,5.767552006E0
2.487588796E0,-1.183050036E0,9.810000658E-1,5.649000168E0,5.854329288E0
2.489552666E0,-1.222050071E0,9.430500269E-1,5.686950207E0,5.892720287E0
2.491516486E0,-1.106999993E0,9.040500522E-1,5.802000046E0,5.975446428E0
2.493480113E0,-1.106999993E0,9.040500522E-1,5.802000046E0,5.975446428E0
2.495443796E0,-1.030050039E0,8.659500480E-1,5.764050484E0,5.919049801E0
2.497407184E0,-9.919500351E-1,8.280000687E-1,5.725950241E0,5.869928036E0
2.499370652E0,-9.150000215E-1,8.659500480E-1,5.572050095E0,5.712690853E0
2.501334202E0,-9.150000215E-1,8.659500480E-1,5.457000256E0,5.600530896E0
2.503297727E0,-8.380500674E-1,8.659500480E-1,5.304000378E0,5.439174331E0
2.505261268E0,-8.770500422E-1,8.659500480E-1,5.074050426E0,5.221596881E0
2.507224804E0,-9.150000215E-1,8.280000687E-1,4.768050194E0,4.925150942E0
2.509188468E0,-9.150000215E-1,9.430500269E-1,4.461000443E0,4.650493881E0
2.511152102E0,-9.529500604E-1,8.659500480E-1,4.153950214E0,4.348940755E0
2.513115670E0,-9.529500604E-1,9.040500522E-1,3.733050108E0,3.957408675E0
2.515079258E0,-9.150000215E-1,9.430500269E-1,3.388050079E0,3.633930617E0
2.517042922E0,-8.770500422E-1,9.430500269E-1,2.928000212E0,3.198709954E0
2.519006563E0,-8.380500674E-1,9.430500269E-1,2.545050144E0,2.840589992E0
2.520969960E0,-7.620000243E-1,9.430500269E-1,2.122950077E0,2.444770832E0
2.522933421E0,-6.079500318E-1,9.810000658E-1,1.777950048E0,2.119686473E0
2.524896972E0,-5.700000525E-1,1.018950105E0,1.471050024E0,1.878070166E0
2.526860496E0,-4.930500090E-1,1.018950105E0,1.240950108E0,1.679676992E0
2.528824217E0,-4.170000255E-1,1.057950020E0,8.959500194E-1,1.447713267E0
2.530787881E0,-2.629500031E-1,1.018950105E0,4.750500321E-1,1.154588478E0
2.532752610E0,-1.480500102E-1,1.057950020E0,1.300500035E-1,1.076145926E0
2.534717030E0,-7.200000435E-2,1.057950020E0,-2.520000041E-1,1.089929469E0
2.536680643E0,4.200000316E-2,1.057950020E0,-5.970000029E-1,1.215496297E0
2.538644493E0,8.100000024E-2,1.096050024E0,-1.018950105E0,1.498714773E0
2.540608518E0,2.340000123E-1,1.096050024E0,-1.441050053E0,1.825570299E0
2.542572491E0,3.490500152E-1,1.057950020E0,-2.053950071E0,2.336622574E0
2.544536331E0,4.639500082E-1,1.018950105E0,-2.667000055E0,2.892472683E0
2.546500200E0,5.410500169E-1,1.018950105E0,-3.394950151E0,3.585621420E0
2.548464717E0,7.699500322E-1,1.018950105E0,-4.047000408E0,4.243735933E0
2.550429044E0,9.240000248E-1,1.057950020E0,-4.698000431E0,4.903492871E0
2.552392673E0,1.230000019E0,9.810000658E-1,-5.311950207E0,5.540042976E0
2.554356507E0,1.384050012E0,1.096050024E0,-5.617950439E0,5.888827322E0
2.556320204E0,1.690050125E0,1.210950017E0,-5.695050240E0,6.062694665E0
2.558283921E0,2.035050154E0,1.402950048E0,-5.656950474E0,6.173393445E0
2.560247609E0,2.227050066E0,1.671000123E0,-5.388000488E0,6.064861307E0
2.562211306E0,2.457000017E0,1.786050081E0,-5.272950172E0,6.085296007E0
2.564175131E0,2.725050211E0,1.633050084E0,-5.733000278E0,6.554391156E0
2.566138919E0,3.070050240E0,1.249050021E0,-6.346950531E0,7.160245490E0
2.568103482E0,3.529950142E0,6.739500165E-1,-6.615000248E0,7.528146180E0
2.570067828E0,3.607050180E0,-3.210000098E-1,-6.460950375E0,7.406600553E0
2.572031589E0,2.610000134E0,-1.548000097E0,-6.576000214E0,7.242387991E0
2.573995522E0,1.422000051E0,-2.391000032E0,-6.768000126E0,7.317430628E0
2.575958272E0,6.169500351E-1,-3.081000090E0,-6.883050442E0,7.566344711E0
2.577921369E0,8.100000024E-2,-3.808950186E0,-6.960000515E0,7.934498704E0
2.579885128E0,-2.629500031E-1,-4.537050247E0,-6.768000126E0,8.152287615E0
2.581848717E0,-4.930500090E-1,-5.341950417E0,-6.270000458E0,8.251814243E0
2.583812472E0,-7.620000243E-1,-6.109050274E0,-5.388000488E0,8.181178922E0
2.585776179E0,-1.106999993E0,-7.027950287E0,-4.468050003E0,8.401250208E0
2.587740049E0,-1.489950061E0,-8.025000572E0,-3.664050102E0,8.946834553E0
2.589703871E0,-1.911000133E0,-9.366000175E0,-2.935050249E0,9.999420021E0
2.591667492E0,-2.410050154E0,-1.101495075E1,-2.245050192E0,1.149685749E1
2.593631176E0,-2.946000099E0,-1.281600094E1,-1.479000092E0,1.323314921E1
2.595594913E0,-3.712950230E0,-1.480905056E1,-9.420000315E-1,1.529644867E1
2.597558635E0,-4.518000126E0,-1.680195045E1,-7.510500550E-1,1.741499183E1
2.599522143E0,-5.284050465E0,-1.864200020E1,-8.269500136E-1,1.939405082E1
2.601485714E0,-6.088950157E0,-2.048100090E1,-9.420000315E-1,2.138770853E1
2.603449386E0,-6.778950214E0,-2.243595123E1,-1.555950046E0,2.348929659E1
2.605413025E0,-7.239000320E0,-2.439105034E1,-2.206950188E0,2.553814973E1
2.607376547E0,-7.776000500E0,-2.669100189E1,-2.859000206E0,2.794726548E1
2.609340104E0,-8.236050606E0,-2.910495186E1,-3.319050074E0,3.042937472E1
2.611303863E0,-8.580000877E0,-3.148095131E1,-3.357000113E0,3.280146582E1
2.613267563E0,-8.772000313E0,-3.358905029E1,-2.935050249E0,3.483944329E1
2.615231239E0,-8.809950829E0,-3.565904999E1,-2.475000143E0,3.681451759E1
2.617194934E0,-8.809950829E0,-3.761400223E1,-1.632000089E0,3.866641723E1
2.619158581E0,-8.427000046E0,-3.926205063E1,-7.890000343E-1,4.016398225E1
2.621122242E0,-7.584000587E0,-4.045005035E1,1.300500035E-1,4.115507929E1
2.623085083E0,-6.396000385E0,-4.110195160E1,1.087950110E0,4.161085053E1
2.625048165E0,-4.863000393E0,-4.137000275E1,1.548000097E0,4.168359635E1
2.627011912E0,-3.022950172E0,-4.144695282E1,2.161050081E0,4.161319819E1
2.628975467E0,-1.144950032E0,-4.152300262E1,2.430000067E0,4.160980122E1
2.630940084E0,4.639500082E-1,-4.144695282E1,2.430000067E0,4.152071830E1
2.632904390E0,2.035050154E0,-4.194495010E1,1.624950051E0,4.202571512E1
2.634868698E0,3.837000132E0,-4.309500122E1,3.979500234E-1,4.326730942E1
2.636833005E0,5.485050201E0,-4.420605087E1,-1.096050024E0,4.455852371E1
2.638796607E0,7.095000267E0,-4.531800079E1,-3.049950123E0,4.597132172E1
2.640760406E0,8.743050575E0,-4.669800186E1,-5.235000134E0,4.779696159E1
2.642723945E0,1.054395008E1,-4.784700394E1,-7.611000538E0,4.958263807E1
2.644687560E0,1.203900051E1,-4.869105148E1,-9.412950516E0,5.103292727E1
2.646651264E0,1.345695019E1,-4.934205246E1,-1.083105087E1,5.227847848E1
2.648614942E0,1.437705040E1,-4.930395126E1,-1.163595009E1,5.265904028E1
2.650578398E0,1.522005081E1,-4.880595398E1,-1.198095036E1,5.250918264E1
2.652541929E0,1.556505108E1,-4.734900284E1,-1.136700058E1,5.112149829E1
2.654505648E0,1.552695084E1,-4.535595322E1,-1.010295010E1,4.899304333E1
2.656469312E0,1.468305111E1,-4.297995377E1,-8.455050468E0,4.619909408E1
2.658432650E0,1.234500027E1,-4.021995163E1,-7.228050232E0,4.268826830E1
2.660396083E0,8.473950386E0,-3.696195221E1,-6.615000248E0,3.849353159E1
2.662359999E0,4.987050056E0,-3.401100159E1,-6.078000069E0,3.490789283E1
2.664323773E0,1.882050037E0,-3.144300079E1,-5.887050152E0,3.204468397E1
2.666286731E0,-8.770500422E-1,-2.922000122E1,-5.772000313E0,2.979754479E1
2.668249929E0,-3.138000250E0,-2.737995148E1,-5.350050449E0,2.807368569E1
2.670213750E0,-5.016000271E0,-2.580900192E1,-4.736999989E0,2.671523924E1
2.672177389E0,-6.702000141E0,-2.446800041E1,-4.162050247E0,2.570841326E1
2.674141291E0,-8.197050095E0,-2.343300056E1,-3.549000263E0,2.507773013E1
2.676105101E0,-9.499950409E0,-2.251305199E1,-2.743950129E0,2.458893714E1
2.678068729E0,-1.042005062E1,-2.151600075E1,-2.014950037E0,2.399116018E1
2.680032411E0,-1.122495079E1,-2.048100090E1,-1.249050021E0,2.338869479E1
2.681996149E0,-1.187700081E1,-1.929300117E1,-5.590500236E-1,2.266264723E1
2.683959870E0,-1.249005032E1,-1.806705093E1,-9.900000691E-2,2.196427753E1
2.685922816E0,-1.268205070E1,-1.691700172E1,2.449500114E-1,2.114425118E1
2.687885973E0,-1.275795078E1,-1.584405041E1,6.280500293E-1,2.035174902E1
2.689849937E0,-1.249005032E1,-1.500105095E1,1.050000072E0,1.954828347E1
2.691813664E0,-1.195305061E1,-1.434900093E1,1.432950020E0,1.873025874E1
2.693777395E0,-1.111005020E1,-1.400400066E1,1.471050024E0,1.793625486E1
2.695741125E0,-1.018995094E1,-1.381200027E1,1.471050024E0,1.722702644E1
2.697705130E0,-9.385050774E0,-1.377405071E1,1.279950023E0,1.671651648E1
2.699669052E0,-8.580000877E0,-1.388895035E1,9.730500579E-1,1.635439339E1
2.701632526E0,-7.891050339E0,-1.404195023E1,5.899500251E-1,1.611809798E1
2.703596131E0,-7.354050159E0,-1.423395061E1,4.360500276E-1,1.602739977E1
2.705560783E0,-6.931950092E0,-1.446405029E1,3.600000143E-1,1.604338752E1
2.707525129E0,-6.586950302E0,-1.473195076E1,1.680000126E-1,1.613835529E1
2.709488680E0,-6.702000141E0,-1.500105095E1,1.680000126E-1,1.643096344E1
2.711452454E0,-6.931950092E0,-1.523100090E1,1.300500035E-1,1.673476123E1
2.713415997E0,-7.276950359E0,-1.546095085E1,1.300500035E-1,1.708835629E1
2.715379608E0,-7.507050514E0,-1.580505085E1,2.449500114E-1,1.749901255E1
2.717342413E0,-7.737000465E0,-1.618905067E1,2.830500007E-1,1.794510115E1
2.719305454E0,-7.891050339E0,-1.649505043E1,3.220500052E-1,1.828822245E1
2.721270158E0,-7.852050304E0,-1.668704987E1,3.600000143E-1,1.844564792E1
2.723234375E0,-7.737000465E0,-1.687905121E1,2.830500007E-1,1.856996670E1
2.725197933E0,-7.546050549E0,-1.710900116E1,9.195000678E-2,1.869944530E1
2.727161685E0,-7.392000198E0,-1.726200104E1,-9.900000691E-2,1.877839577E1
2.729125546E0,-7.123950481E0,-1.749195099E1,-3.670500219E-1,1.889057293E1
2.731089375E0,-6.741000175E0,-1.768395042E1,-4.819500148E-1,1.893133545E1
2.733052919E0,-6.204000473E0,-1.783695030E1,-6.360000372E-1,1.889579091E1
2.735016540E0,-5.821050167E0,-1.791300011E1,-7.120500207E-1,1.884853345E1
2.736980199E0,-5.476050377E0,-1.779900169E1,-9.040500522E-1,1.864427246E1
2.738943846E0,-5.092950344E0,-1.776000023E1,-1.018950105E0,1.850389177E1
2.740907907E0,-4.633050442E0,-1.756905174E1,-1.096050024E0,1.820269379E1
2.742871846E0,-4.210950375E0,-1.722405052E1,-8.659500480E-1,1.775246149E1
2.744835538E0,-3.712950230E0,-1.672500038E1,-5.590500236E-1,1.714130025E1
2.746799305E0,-3.022950172E0,-1.618905067E1,-9.900000691E-2,1.646916484E1
2.748762218E0,-2.179949999E0,-1.561395073E1,3.979500234E-1,1.577041545E1
2.750725382E0,-1.528050065E0,-1.496205044E1,9.730500579E-1,1.507132100E1
2.752689164E0,-7.999500632E-1,-1.438695049E1,1.510050058E0,1.448808185E1
2.754652765E0,4.200000316E-2,-1.388895035E1,1.777950048E0,1.400235024E1
2.756617422E0,9.619500637E-1,-1.350600052E1,1.855050087E0,1.366669707E1
2.758581736E0,1.575000048E0,-1.312305069E1,1.855050087E0,1.334677097E1
2.760545322E0,1.996950150E0,-1.258605099E1,1.969950080E0,1.289485140E1
2.762509122E0,2.533950090E0,-1.204905033E1,2.122950077E0,1.249429606E1
2.764472661E0,2.764050245E0,-1.147395039E1,2.161050081E0,1.199840192E1
2.766436276E0,2.955000162E0,-1.093800068E1,2.238000154E0,1.154904886E1
2.768399969E0,3.376950264E0,-1.055505085E1,2.238000154E0,1.130581869E1
2.770363615E0,3.760050297E0,-1.021005058E1,2.122950077E0,1.108557748E1
2.772327360E0,3.837000132E0,-9.750000000E0,2.085000038E0,1.068327174E1
2.774291076E0,4.105050087E0,-9.289950371E0,1.893000126E0,1.033141150E1
2.776254766E0,4.488000393E0,-8.868000031E0,1.471050024E0,1.004726631E1
2.778218463E0,4.717950344E0,-8.523000717E0,9.349500537E-1,9.786456370E0
2.780183210E0,4.948050022E0,-8.101950645E0,3.979500234E-1,9.501745498E0
2.782147635E0,5.140050411E0,-7.795050144E0,-2.140500098E-1,9.339632883E0
2.784111203E0,5.140050411E0,-7.564950466E0,-6.360000372E-1,9.168047220E0
2.786075022E0,5.062950134E0,-7.143000126E0,-1.057050109E0,8.818915454E0
2.788038872E0,4.717950344E0,-6.798000336E0,-1.441050053E0,8.399314809E0
2.790002712E0,4.372950077E0,-6.339000225E0,-1.900950074E0,7.932164107E0
2.791966240E0,4.027950287E0,-5.878950119E0,-2.169000149E0,7.449228125E0
2.793929863E0,3.682950258E0,-5.494950294E0,-2.398950100E0,7.036587449E0
2.795893881E0,3.453000069E0,-5.149950027E0,-2.820000172E0,6.811578064E0
2.797857784E0,3.223050117E0,-4.843950272E0,-3.088950157E0,6.587375757E0
2.799821441E0,3.070050240E0,-4.461000443E0,-3.319050074E0,6.351521614E0
2.801785170E0,2.955000162E0,-4.077000141E0,-3.549000263E0,6.160305104E0
2.803749076E0,2.839950085E0,-3.694050074E0,-3.817050219E0,6.023387320E0
2.805712933E0,2.802000046E0,-3.310950041E0,-4.123950005E0,5.985027825E0
2.807676778E0,2.725050211E0,-2.926950216E0,-4.353000164E0,5.911137509E0
2.809640627E0,2.649000168E0,-2.506050110E0,-4.468050003E0,5.767231560E0
2.811604607E0,2.494950056E0,-2.122950077E0,-4.545000076E0,5.602563566E0
2.813568548E0,2.457000017E0,-1.738950133E0,-4.582950115E0,5.483085665E0
2.815532180E0,2.341950178E0,-1.432950020E0,-4.507050037E0,5.277459278E0
2.817495916E0,2.304000139E0,-1.126049995E0,-4.429950237E0,5.118677987E0
2.819459600E0,2.227050066E0,-7.810500264E-1,-4.353000164E0,4.951605959E0
2.821423300E0,2.265000105E0,-5.509500504E-1,-4.009050369E0,4.637483832E0
2.823387171E0,2.304000139E0,-2.830500007E-1,-3.894000292E0,4.533406249E0
2.825350991E0,2.341950178E0,-1.680000126E-1,-3.664050102E0,4.351806268E0
2.827313932E0,2.304000139E0,-1.500000060E-2,-3.472050190E0,4.166986221E0
2.829277137E0,2.341950178E0,2.530499995E-1,-3.394950151E0,4.132124329E0
2.831240776E0,2.341950178E0,3.289500177E-1,-3.204000235E0,3.982280283E0
2.833204288E0,2.341950178E0,4.830000103E-1,-3.012000084E0,3.845798246E0
2.835167966E0,2.419050217E0,6.739500165E-1,-2.820000172E0,3.776031454E0
2.837131596E0,2.380050182E0,7.890000343E-1,-2.590050220E0,3.604929967E0
2.839095354E0,2.341950178E0,9.040500522E-1,-2.398950100E0,3.472318925E0
2.841059068E0,2.341950178E0,1.057950020E0,-2.130000114E0,3.337797083E0
2.843022892E0,2.341950178E0,1.173000097E0,-1.861950040E0,3.213645565E0
2.844986683E0,2.380050182E0,1.249050021E0,-1.516950130E0,3.086406085E0
2.846950719E0,2.341950178E0,1.288050056E0,-1.134000063E0,2.903404850E0
2.848914683E0,2.341950178E0,1.441050053E0,-1.057050109E0,2.945965177E0
2.850878734E0,2.380050182E0,1.518000126E0,-1.018950105E0,3.001203520E0
2.852842760E0,2.304000139E0,1.555950046E0,-1.018950105E0,2.961022881E0
2.854806891E0,2.188950062E0,1.594050050E0,-9.810000658E-1,2.880079697E0
2.856770991E0,2.074050188E0,1.671000123E0,-1.134000063E0,2.894802538E0
2.858734975E0,1.882050037E0,1.594050050E0,-1.287000060E0,2.781991563E0
2.860698993E0,1.767000079E0,1.555950046E0,-1.516950130E0,2.800786947E0
2.862662659E0,1.614000082E0,1.479000092E0,-1.708950043E0,2.777219434E0
2.864626439E0,1.422000051E0,1.441050053E0,-1.824000120E0,2.725011163E0
2.866590071E0,1.306950092E0,1.363950014E0,-1.861950040E0,2.652420807E0
2.868553747E0,1.153950095E0,1.249050021E0,-1.977000117E0,2.607730094E0
2.870517307E0,1.039050102E0,1.096050024E0,-2.092050076E0,2.580237254E0
2.872480901E0,8.850000501E-1,9.810000658E-1,-2.130000114E0,2.506488920E0
2.874444385E0,7.699500322E-1,8.280000687E-1,-2.206950188E0,2.479725045E0
2.876407901E0,5.790000558E-1,6.360000372E-1,-2.284050226E0,2.440619296E0
2.878371667E0,5.410500169E-1,3.679500222E-1,-2.359950066E0,2.448976654E0
2.880335360E0,4.639500082E-1,9.900000691E-2,-2.514000177E0,2.558368133E0
2.882299728E0,3.109500110E-1,-2.059500068E-1,-2.629050016E0,2.655373665E0
2.884263899E0,2.340000123E-1,-5.890500546E-1,-2.782050133E0,2.853338205E0
2.886227695E0,1.189500093E-1,-9.730500579E-1,-2.859000206E0,3.022392711E0
2.888191598E0,4.200000316E-2,-1.356000066E0,-3.088950157E0,3.373738765E0
2.890155119E0,4.200000316E-2,-1.624050021E0,-3.319050074E0,3.695320806E0
2.892118752E0,4.200000316E-2,-1.854000092E0,-3.549000263E0,4.004308081E0
2.894082274E0,4.200000316E-2,-2.083950043E0,-3.817050219E0,4.349078541E0
2.896045829E0,4.050000105E-3,-2.238000154E0,-4.084949970E0,4.657840417E0
2.898009544E0,8.100000024E-2,-2.314050198E0,-4.276950359E0,4.863506317E0
2.899973212E0,8.100000024E-2,-2.467050076E0,-4.468050003E0,5.104543849E0
2.901936908E0,2.340000123E-1,-2.544000149E0,-4.582950115E0,5.246915715E0
2.903900596E0,3.109500110E-1,-2.581950188E0,-4.736999989E0,5.403917613E0
2.905863750E0,4.260000288E-1,-2.659050226E0,-4.813050270E0,5.515204170E0
2.907827060E0,5.020500422E-1,-2.659050226E0,-4.813050270E0,5.521598976E0
2.909791497E0,6.169500351E-1,-2.659050226E0,-4.813050270E0,5.533229469E0
2.911755601E0,7.699500322E-1,-2.659050226E0,-4.736999989E0,5.486578173E0
2.913719224E0,7.320000529E-1,-2.620950222E0,-4.582950115E0,5.329975225E0
2.915682988E0,8.470500112E-1,-2.544000149E0,-4.392000198E0,5.145784315E0
2.917646713E0,9.240000248E-1,-2.467050076E0,-4.047000408E0,4.828905096E0
2.919610449E0,9.619500637E-1,-2.467050076E0,-3.702000141E0,4.551536998E0
2.921574289E0,9.619500637E-1,-2.391000032E0,-3.433950186E0,4.293511728E0
2.923538116E0,1.039050102E0,-2.351999998E0,-3.088950157E0,4.019097185E0
2.925501786E0,1.039050102E0,-2.275950193E0,-2.667000055E0,3.656837936E0
2.927465502E0,1.039050102E0,-2.199000120E0,-2.284050226E0,3.336481991E0
2.929429190E0,1.000050068E0,-2.083950043E0,-1.900950074E0,2.992751093E0
2.931392887E0,8.470500112E-1,-2.083950043E0,-1.479000092E0,2.692170643E0
2.933356733E0,8.089500666E-1,-2.008050203E0,-1.057050109E0,2.409153536E0
2.935320553E0,7.699500322E-1,-1.930950046E0,-6.360000372E-1,2.173910573E0
2.937284225E0,7.699500322E-1,-1.893000126E0,-1.369500011E-1,2.048176709E0
2.939247940E0,7.320000529E-1,-1.777950048E0,2.449500114E-1,1.938280413E0
2.941211043E0,6.940500140E-1,-1.738950133E0,7.050000429E-1,2.000669400E0
2.943174325E0,6.550500393E-1,-1.701000094E0,1.087950110E0,2.122764075E0
2.945138087E0,6.550500393E-1,-1.585950017E0,1.510050058E0,2.285733840E0
2.947101740E0,6.169500351E-1,-1.509000063E0,1.777950048E0,2.412221986E0
2.949064314E0,5.410500169E-1,-1.393950105E0,2.275950193E0,2.723193217E0
2.951027204E0,5.020500422E-1,-1.279050112E0,2.698050022E0,3.027787535E0
2.952990853E0,3.870000243E-1,-1.087950110E0,3.081000090E0,3.290283577E0
2.954954279E0,3.109500110E-1,-9.340500236E-1,3.388050079E0,3.528175548E0
2.956918013E0,1.960500032E-1,-8.190000653E-1,3.733050108E0,3.826860308E0
2.958881659E0,1.189500093E-1,-6.280500293E-1,4.078050137E0,4.127843124E0
2.960845360E0,4.200000316E-2,-5.509500504E-1,4.308000088E0,4.343290770E0
2.962809044E0,-3.299999982E-2,-3.589500189E-1,4.614000320E0,4.628059320E0
2.964772559E0,-7.200000435E-2,-3.210000098E-1,4.882050037E0,4.893121455E0
2.966736123E0,-1.870500147E-1,-2.059500068E-1,5.188950062E0,5.196403165E0
2.968699291E0,-1.870500147E-1,-1.680000126E-1,5.496000290E0,5.501747986E0
2.970662579E0,-1.480500102E-1,-1.680000126E-1,5.725950241E0,5.730327126E0
2.972626024E0,-1.480500102E-1,-1.680000126E-1,5.956050396E0,5.960258311E0
2.974589423E0,-7.200000435E-2,-1.680000126E-1,6.223950386E0,6.226633634E0
2.976552762E0,-7.200000435E-2,-1.290000081E-1,6.454050541E0,6.455741118E0
2.978516118E0,-7.200000435E-2,-1.680000126E-1,6.568950176E0,6.571492557E0
2.980479852E0,4.050000105E-3,-1.290000081E-1,6.684000492E0,6.685246441E0
2.982443485E0,4.200000316E-2,-1.290000081E-1,6.799050331E0,6.800403694E0
2.984406829E0,4.050000105E-3,-1.290000081E-1,6.799050331E0,6.800275201E0
2.986370257E0,4.050000105E-3,-9.105000645E-2,6.760950089E0,6.761564361E0
2.988333274E0,-3.299999982E-2,-5.295000225E-2,6.684000492E0,6.684291681E0
2.990296411E0,-3.299999982E-2,-1.500000060E-2,6.568950176E0,6.569050191E0
2.992259902E0,-7.200000435E-2,2.295000106E-2,6.339000225E0,6.339450651E0
2.994223275E0,-7.200000435E-2,9.900000691E-2,5.994000435E0,5.995250305E0
2.996186842E0,-1.480500102E-1,2.140500098E-1,5.686950207E0,5.692902499E0
2.998150352E0,-2.250000089E-1,2.910000086E-1,5.380950451E0,5.393508484E0
3.000113716E0,-2.250000089E-1,4.060500264E-1,5.074050426E0,5.095241835E0
3.002077123E0,-3.780000210E-1,5.590500236E-1,4.653000355E0,4.701684086E0
3.004040653E0,-3.780000210E-1,6.739500165E-1,4.269000053E0,4.338369982E0
3.006004136E0,-4.170000255E-1,7.890000343E-1,3.847950220E0,3.950079869E0
3.007967505E0,-4.549500346E-1,9.040500522E-1,3.388050079E0,3.535982094E0
3.009930907E0,-4.549500346E-1,9.810000658E-1,2.889000177E0,3.084746779E0
3.011894288E0,-4.170000255E-1,9.810000658E-1,2.353049994E0,2.583233327E0
3.013857676E0,-3.400500119E-1,1.057950020E0,1.740000129E0,2.064580515E0
3.015821264E0,-2.629500031E-1,1.096050024E0,1.395000100E0,1.793458569E0
3.017784808E0,-1.870500147E-1,1.134000063E0,8.580000401E-1,1.434262152E0
3.019748886E0,-7.200000435E-2,1.134000063E0,2.449500114E-1,1.162385758E0
3.021712808E0,4.050000105E-3,1.210950017E0,-2.910000086E-1,1.245430589E0
3.023676282E0,8.100000024E-2,1.210950017E0,-6.739500165E-1,1.388225331E0
3.025639887E0,1.570500135E-1,1.173000097E0,-1.096050024E0,1.613046679E0
3.027603045E0,2.340000123E-1,1.134000063E0,-1.479000092E0,1.878337941E0
3.029566340E0,3.490500152E-1,1.057950020E0,-1.939050078E0,2.236293667E0
3.031530640E0,4.639500082E-1,1.096050024E0,-2.284050226E0,2.575550563E0
3.033494645E0,6.940500140E-1,1.096050024E0,-2.782050133E0,3.069663502E0
3.035458285E0,9.240000248E-1,1.057950020E0,-3.127050161E0,3.428042736E0
3.037422032E0,1.114950061E0,1.057950020E0,-3.433950186E0,3.762231487E0
3.039385515E0,1.269000053E0,1.134000063E0,-3.472050190E0,3.866710462E0
3.041349089E0,1.345050097E0,1.249050021E0,-3.357000113E0,3.826060046E0
3.043312756E0,1.384050012E0,1.441050053E0,-2.974050045E0,3.582902923E0
3.045276395E0,1.459950089E0,1.594050050E0,-2.590050220E0,3.373545608E0
3.047239782E0,1.498950124E0,1.708950043E0,-2.206950188E0,3.168278847E0
3.049203243E0,1.614000082E0,1.747950077E0,-1.861950040E0,3.021122918E0
3.051166915E0,1.843950033E0,1.747950077E0,-1.708950043E0,3.062024077E0
3.053130535E0,2.341950178E0,1.518000126E0,-1.900950074E0,3.376783411E0
3.055094961E0,2.533950090E0,6.360000372E-1,-2.704950094E0,3.760605552E0
3.057059150E0,1.575000048E0,-8.190000653E-1,-4.047000408E0,4.419230539E0
3.059022037E0,1.000050068E0,-2.046000004E0,-5.427000046E0,5.885452035E0
3.060985306E0,4.639500082E-1,-3.004050255E0,-6.423000336E0,7.105948273E0
3.062948949E0,2.340000123E-1,-3.961950302E0,-7.687950134E0,8.651958360E0
3.064912472E0,8.100000024E-2,-4.996950150E0,-9.412950516E0,1.065737816E1
3.066875608E0,1.960500032E-1,-6.147000313E0,-1.190400028E1,1.339885335E1
3.068838858E0,4.200000316E-2,-7.335000515E0,-1.412700081E1,1.591779345E1
3.070802490E0,-2.250000089E-1,-8.638050079E0,-1.527705097E1,1.755149055E1
3.072766010E0,-9.529500604E-1,-9.787950516E0,-1.439505100E1,1.743357630E1
3.074729552E0,-1.720050097E0,-1.105305099E1,-1.213395023E1,1.650337108E1
3.076693087E0,-2.371050119E0,-1.262400055E1,-9.489000320E0,1.596960850E1
3.078656626E0,-3.175950050E0,-1.473195076E1,-6.615000248E0,1.645828850E1
3.080620164E0,-4.210950375E0,-1.718505096E1,-3.931950092E0,1.812507410E1
3.082583883E0,-5.476050377E0,-1.983000183E1,-1.939050078E0,2.066339797E1
3.084547549E0,-6.549000263E0,-2.266605186E1,-9.040500522E-1,2.361051923E1
3.086511177E0,-7.546050549E0,-2.546400070E1,-3.670500219E-1,2.656111700E1
3.088474834E0,-8.236050606E0,-2.826195145E1,-1.171950102E0,2.946088757E1
3.090438397E0,-9.117000580E0,-3.082995224E1,-1.939050078E0,3.220815999E1
3.092401988E0,-9.922050476E0,-3.324495316E1,-2.629050016E0,3.479347496E1
3.094365697E0,-1.053495026E1,-3.562095261E1,-2.514000177E0,3.723113802E1
3.096329371E0,-1.080300045E1,-3.780600357E1,-1.479000092E0,3.934699691E1
3.098292131E0,-1.068795013E1,-4.006695175E1,3.979500234E-1,4.146988383E1
3.100255152E0,-1.003695011E1,-4.225200272E1,2.085000038E0,4.347780268E1
3.102218778E0,-8.964000702E0,-4.397595215E1,3.847950220E0,4.504491533E1
3.104182227E0,-7.276950359E0,-4.531800079E1,5.457000256E0,4.622179198E1
3.106146006E0,-5.629050255E0,-4.619895172E1,6.147000313E0,4.694480759E1
3.108109688E0,-4.018949986E0,-4.685100174E1,6.531000137E0,4.747443824E1
3.110073352E0,-2.295000076E0,-4.708095169E1,7.105050564E0,4.766932746E1
3.112037012E0,-5.320500135E-1,-4.715700150E1,7.450050354E0,4.774483341E1
3.114001475E0,9.240000248E-1,-4.692705154E1,6.991050243E0,4.745394321E1
3.115965703E0,2.380050182E0,-4.677405167E1,5.956050396E0,4.721176850E1
3.117929304E0,3.453000069E0,-4.700400162E1,4.423050404E0,4.733775187E1
3.119893089E0,4.297049999E0,-4.769400406E1,2.620950222E0,4.795885780E1
3.121857806E0,5.293050289E0,-4.865205383E1,5.509500504E-1,4.894223401E1
3.123822246E0,5.944950104E0,-4.930395126E1,-1.786050081E0,4.969317878E1
3.125785856E0,6.634950161E0,-4.991700363E1,-4.200000286E0,5.053087984E1
3.127749710E0,7.132950306E0,-5.033895111E1,-6.232050419E0,5.122233333E1
3.129713329E0,7.861050606E0,-5.060700226E1,-8.110050201E0,5.185207526E1
3.131677017E0,8.589000702E0,-5.060700226E1,-9.489000320E0,5.220039021E1
3.133640718E0,9.088050842E0,-4.995495224E1,-1.040895081E1,5.183084196E1
3.135604409E0,9.126000404E0,-4.826895142E1,-1.060095024E1,5.025490723E1
3.137567922E0,8.781000137E0,-4.573905182E1,-1.056300068E1,4.775713358E1
3.139531488E0,8.053050041E0,-4.278795242E1,-9.718950272E0,4.461074402E1
3.141494886E0,6.711000443E0,-3.956895065E1,-8.646000862E0,4.105475263E1
3.143458334E0,4.987050056E0,-3.654104996E1,-7.650000572E0,3.766485775E1
3.145422027E0,3.262050152E0,-3.389595032E1,-6.652950287E0,3.469637109E1
3.147385645E0,1.996950150E0,-3.155805206E1,-5.656950474E0,3.212319331E1
3.149348269E0,1.077000022E0,-2.968005180E1,-4.813050270E0,3.008705464E1
3.151311185E0,3.490500152E-1,-2.818500137E1,-4.162050247E0,2.849278506E1
3.153275010E0,-2.629500031E-1,-2.692005157E1,-3.472050190E0,2.714430791E1
3.155238568E0,-7.230000496E-1,-2.573205185E1,-3.088950157E0,2.592687475E1
3.157202509E0,-1.144950032E0,-2.473605156E1,-2.667000055E0,2.490574325E1
3.159166337E0,-1.375050068E0,-2.389305115E1,-2.475000143E0,2.406022198E1
3.161130186E0,-1.605000019E0,-2.312595177E1,-2.130000114E0,2.327923046E1
3.163094029E0,-1.795950055E0,-2.232105064E1,-1.632000089E0,2.245257586E1
3.165057876E0,-1.873050094E0,-2.155500031E1,-1.326000094E0,2.167682244E1
3.167021722E0,-2.179949999E0,-2.094105148E1,-1.096050024E0,2.108272148E1
3.168985583E0,-2.755050182E0,-2.036595154E1,-1.210950017E0,2.058709993E1
3.170949429E0,-3.367950201E0,-1.998300171E1,-1.479000092E0,2.031873242E1
3.172913410E0,-3.943050146E0,-1.971495056E1,-2.053950071E0,2.021003788E1
3.174877352E0,-4.633050442E0,-1.940805054E1,-2.514000177E0,2.011113569E1
3.176841048E0,-5.053950310E0,-1.925505066E1,-2.896950245E0,2.011695082E1
3.178804816E0,-5.629050255E0,-1.894799995E1,-3.204000235E0,2.002444822E1
3.180768639E0,-6.051000118E0,-1.867995071E1,-3.433950186E0,1.993356905E1
3.182732471E0,-6.357000351E0,-1.818195152E1,-3.433950186E0,1.956493876E1
3.184696455E0,-6.549000263E0,-1.772205162E1,-3.433950186E0,1.920293030E1
3.186660394E0,-6.586950302E0,-1.726200104E1,-3.127050161E0,1.873881098E1
3.188624225E0,-6.702000141E0,-1.687905121E1,-2.974050045E0,1.840282993E1
3.190588088E0,-6.664050102E0,-1.641900063E1,-2.667000055E0,1.791943176E1
3.192551801E0,-6.702000141E0,-1.591995049E1,-2.398950100E0,1.743893893E1
3.194515555E0,-6.817050457E0,-1.526895046E1,-2.206950188E0,1.686664324E1
3.196479371E0,-6.894000530E0,-1.461705112E1,-2.206950188E0,1.631122485E1
3.198443168E0,-7.047000408E0,-1.408095074E1,-2.206950188E0,1.589981187E1
3.200406483E0,-7.009050369E0,-1.362105083E1,-2.092050076E0,1.546080484E1
3.202369939E0,-7.009050369E0,-1.319895077E1,-2.092050076E0,1.509025387E1
3.204333916E0,-6.970950127E0,-1.270095062E1,-2.206950188E0,1.465533765E1
3.206297726E0,-6.894000530E0,-1.204905033E1,-2.245050192E0,1.406225827E1
3.208261399E0,-6.778950214E0,-1.147395039E1,-2.169000149E0,1.350223186E1
3.210225112E0,-6.586950302E0,-1.090005016E1,-2.014950037E0,1.289414718E1
3.212188980E0,-6.357000351E0,-1.036305046E1,-1.786050081E0,1.228797148E1
3.214152803E0,-6.280950069E0,-9.750000000E0,-1.594050050E0,1.170699916E1
3.216116289E0,-6.241950512E0,-9.021000862E0,-1.402050018E0,1.105921096E1
3.218079877E0,-6.166050434E0,-8.332050323E0,-1.171950102E0,1.043152470E1
3.220043541E0,-6.013050079E0,-7.488000393E0,-9.810000658E-1,9.653459601E0
3.222007182E0,-5.629050255E0,-6.798000336E0,-1.057050109E0,8.889115269E0
3.223970749E0,-5.208000183E0,-6.223950386E0,-7.890000343E-1,8.153731990E0
3.225934338E0,-4.786050320E0,-5.649000168E0,-4.440000355E-1,7.417183872E0
3.227898197E0,-4.326000214E0,-5.112000465E0,-2.910000086E-1,6.703096867E0
3.229861967E0,-3.828000069E0,-4.614000320E0,-2.205000073E-2,5.995253930E0
3.231825466E0,-3.291000128E0,-4.153950214E0,1.500000060E-2,5.299642368E0
3.233789045E0,-3.022950172E0,-3.961950302E0,9.195000678E-2,4.984348778E0
3.235752442E0,-2.830950022E0,-3.616950274E0,5.295000225E-2,4.593409519E0
3.237715892E0,-2.677950144E0,-3.463950157E0,1.500000060E-2,4.378423536E0
3.239679593E0,-2.218050003E0,-3.463950157E0,5.295000225E-2,4.113575113E0
3.241643211E0,-1.642950058E0,-3.463950157E0,1.680000126E-1,3.837506950E0
3.243606961E0,-1.528050065E0,-3.271950245E0,9.195000678E-2,3.612346912E0
3.245570673E0,-1.567050099E0,-3.081000090E0,5.295000225E-2,3.457023470E0
3.247534542E0,-1.720050097E0,-2.697000027E0,1.680000126E-1,3.203217989E0
3.249498365E0,-1.873050094E0,-2.428950071E0,1.300500035E-1,3.070020864E0
3.251462173E0,-2.026050091E0,-2.083950043E0,9.195000678E-2,2.907951436E0
3.253426015E0,-1.987950087E0,-1.816050053E0,1.500000060E-2,2.692621091E0
3.255389682E0,-1.834950089E0,-1.548000097E0,-1.369500011E-1,2.404600057E0
3.257353401E0,-1.642950058E0,-1.356000066E0,-1.369500011E-1,2.134660716E0
3.259317268E0,-1.567050099E0,-1.279050112E0,-2.910000086E-1,2.043598837E0
3.261281091E0,-1.528050065E0,-1.203000069E0,-4.060500264E-1,1.986711552E0
3.263244922E0,-1.452000022E0,-1.087950110E0,-5.209500194E-1,1.887678052E0
3.265208764E0,-1.528050065E0,-9.340500236E-1,-7.510500550E-1,1.942025395E0
