"Time (s)","Acceleration x (m/s^2)","Acceleration y (m/s^2)","Acceleration z (m/s^2)","Absolute acceleration (m/s^2)"
4.103282100E-2,2.341950178E0,-1.680000126E-1,-1.134000063E0,2.607472106E0
4.299461500E-2,2.304000139E0,-1.290000081E-1,-1.134000063E0,2.571189177E0
4.495889800E-2,2.341950178E0,-1.290000081E-1,-1.096050024E0,2.588956797E0
4.692140700E-2,2.341950178E0,-1.290000081E-1,-1.018950105E0,2.557270215E0
4.888443600E-2,2.341950178E0,-1.290000081E-1,-9.420000315E-1,2.527594845E0
5.084766700E-2,2.265000105E0,-1.290000081E-1,-9.040500522E-1,2.442165632E0
5.281086200E-2,2.227050066E0,-1.290000081E-1,-7.890000343E-1,2.366202454E0
5.477391900E-2,2.265000105E0,-1.680000126E-1,-7.510500550E-1,2.392180107E0
5.673701700E-2,2.304000139E0,-1.290000081E-1,-7.510500550E-1,2.426753764E0
5.869995600E-2,2.304000139E0,-1.290000081E-1,-6.739500165E-1,2.404010455E0
6.066294100E-2,2.304000139E0,-1.290000081E-1,-6.360000372E-1,2.393648615E0
6.262597700E-2,2.265000105E0,-1.680000126E-1,-5.209500194E-1,2.330201365E0
6.458900500E-2,2.265000105E0,-1.680000126E-1,-3.670500219E-1,2.300690157E0
6.655195700E-2,2.265000105E0,-1.290000081E-1,-2.520000041E-1,2.282623596E0
6.851493100E-2,2.265000105E0,-1.290000081E-1,-6.105000153E-2,2.269491921E0
7.047766500E-2,2.265000105E0,-1.680000126E-1,1.300500035E-1,2.274942303E0
7.244046900E-2,2.188950062E0,-1.680000126E-1,2.449500114E-1,2.209010386E0
7.440213200E-2,2.188950062E0,-1.290000081E-1,4.750500321E-1,2.243616703E0
7.636414200E-2,2.149950027E0,-1.290000081E-1,7.050000429E-1,2.266263706E0
7.832753600E-2,2.111999989E0,-1.680000126E-1,8.200500607E-1,2.271838475E0
8.029052500E-2,1.996950150E0,-1.680000126E-1,1.087950110E0,2.280278349E0
8.225361700E-2,1.920000076E0,-1.680000126E-1,1.203000069E0,2.271966871E0
8.421667900E-2,1.843950033E0,-1.680000126E-1,1.240950108E0,2.228975751E0
8.617978900E-2,1.767000079E0,-1.290000081E-1,1.356000066E0,2.231068457E0
8.814289500E-2,1.729050040E0,-1.290000081E-1,1.356000066E0,2.201134076E0
9.010610200E-2,1.767000079E0,-1.680000126E-1,1.510050058E0,2.330400065E0
9.206927900E-2,1.690050125E0,-1.680000126E-1,1.740000129E0,2.431479771E0
9.403234000E-2,1.651950121E0,-1.680000126E-1,1.585950017E0,2.296170870E0
9.599543500E-2,1.537050128E0,-1.290000081E-1,1.510050058E0,2.158567876E0
9.795849000E-2,1.459950089E0,-1.290000081E-1,1.510050058E0,2.104363667E0
9.992157000E-2,1.306950092E0,-9.105000645E-2,1.510050058E0,1.999164782E0
1.018835650E-1,1.306950092E0,-5.295000225E-2,1.510050058E0,1.997792138E0
1.038458780E-1,1.269000053E0,2.295000106E-2,1.585950017E0,2.031286611E0
1.058085890E-1,1.269000053E0,9.900000691E-2,1.663050056E0,2.094253477E0
1.077711830E-1,1.192050099E0,6.105000153E-2,1.740000129E0,2.110049997E0
1.097348380E-1,1.039050102E0,9.900000691E-2,1.816050053E0,2.094627392E0
1.116981820E-1,1.000050068E0,-1.500000060E-2,1.893000126E0,2.140975155E0
1.136612140E-1,8.850000501E-1,-1.290000081E-1,2.008050203E0,2.198211025E0
1.156243380E-1,8.470500112E-1,-3.210000098E-1,2.238000154E0,2.414369363E0
1.175868660E-1,7.699500322E-1,-6.660000086E-1,2.391000032E0,2.598703565E0
1.195495690E-1,6.550500393E-1,-1.126049995E0,2.583000183E0,2.892917056E0
1.215112680E-1,6.169500351E-1,-1.432950020E0,2.851050138E0,3.249993846E0
1.234732610E-1,4.639500082E-1,-1.854000092E0,2.965950251E0,3.528374532E0
1.254361630E-1,3.490500152E-1,-2.275950193E0,3.118950129E0,3.876807333E0
1.273987980E-1,2.340000123E-1,-2.697000027E0,3.234000206E0,4.217501924E0
1.293619510E-1,4.200000316E-2,-3.081000090E0,3.426000118E0,4.607797995E0
1.313249520E-1,-7.200000435E-2,-3.579000235E0,3.579000235E0,5.061982750E0
1.332881550E-1,-1.480500102E-1,-4.077000141E0,3.694050074E0,5.503621980E0
1.352513460E-1,-2.250000089E-1,-4.614000320E0,3.808950186E0,5.987297009E0
1.372140890E-1,-3.400500119E-1,-5.149950027E0,3.847950220E0,6.437727875E0
1.391769640E-1,-4.170000255E-1,-5.686950207E0,3.847950220E0,6.879099692E0
1.411400290E-1,-4.549500346E-1,-6.262050152E0,3.808950186E0,7.343592660E0
1.431030390E-1,-7.230000496E-1,-6.300000191E0,3.579000235E0,7.281618924E0
1.450664880E-1,-8.380500674E-1,-6.568950176E0,3.118950129E0,7.319923786E0
1.470298080E-1,-8.380500674E-1,-7.182000160E0,2.773950100E0,7.744562827E0
1.489928440E-1,-8.770500422E-1,-7.795050144E0,2.275950193E0,8.167739761E0
1.509559640E-1,-9.529500604E-1,-8.485050201E0,1.740000129E0,8.713884965E0
1.529186730E-1,-1.106999993E0,-9.289950371E0,1.471050024E0,9.470618515E0
1.548815020E-1,-1.260000110E0,-9.979950905E0,1.126049995E0,1.012200617E1
1.568449660E-1,-1.489950061E0,-1.086105061E1,7.050000429E-1,1.098541745E1
1.588082540E-1,-1.605000019E0,-1.162800026E1,2.449500114E-1,1.174080132E1
1.607713410E-1,-1.911000133E0,-1.235595036E1,-6.105000153E-2,1.250300595E1
1.627344870E-1,-2.256000042E0,-1.304595089E1,-7.120500207E-1,1.325870982E1
1.646976860E-1,-2.677950144E0,-1.404195023E1,-1.287000060E0,1.435284474E1
1.666608700E-1,-3.022950172E0,-1.503900051E1,-2.053950071E0,1.547670750E1
1.686239060E-1,-3.330000162E0,-1.641900063E1,-2.667000055E0,1.696423803E1
1.705870020E-1,-3.712950230E0,-1.791300011E1,-3.510000229E0,1.862744410E1
1.725500750E-1,-4.173000336E0,-1.967700005E1,-4.237950325E0,2.055622742E1
1.745131550E-1,-4.594050407E0,-2.167005157E1,-5.043000221E0,2.271845694E1
1.764762760E-1,-4.978050232E0,-2.381595039E1,-5.617950439E0,2.497081986E1
1.784393840E-1,-5.514000416E0,-2.626905060E1,-5.542050362E0,2.740769130E1
1.804024070E-1,-5.821050167E0,-2.895195198E1,-6.460950375E0,3.022985326E1
1.823654580E-1,-5.935950279E0,-3.213300323E1,-7.150950432E0,3.344998497E1
1.843285380E-1,-5.743950367E0,-3.539100266E1,-7.266000271E0,3.658293037E1
1.862916100E-1,-5.016000271E0,-3.864900208E1,-6.997950554E0,3.959642575E1
1.882549130E-1,-3.981000185E0,-4.232805252E1,-6.921000481E0,4.307450105E1
1.902181480E-1,-2.830950022E0,-4.600800323E1,-7.495950222E0,4.670053436E1
1.921819000E-1,-1.297950029E0,-4.953405380E1,-7.840950489E0,5.016759577E1
1.941455140E-1,2.340000123E-1,-5.229300308E1,-7.840950489E0,5.287809974E1
1.961098960E-1,2.074050188E0,-5.421000290E1,-7.420050144E0,5.475475543E1
1.980740530E-1,4.564949989E0,-5.559000397E1,-6.805950165E0,5.619082013E1
2.000368100E-1,6.903000355E0,-5.666295242E1,-5.962950230E0,5.739249399E1
2.019999780E-1,8.934000015E0,-5.693100357E1,-4.545000076E0,5.780668257E1
2.039631680E-1,1.042905045E1,-5.627895355E1,-2.475000143E0,5.729058676E1
2.059263550E-1,1.173195076E1,-5.505300140E1,5.295000225E-2,5.628920355E1
2.078887380E-1,1.276695061E1,-5.290695190E1,2.659050226E0,5.449046830E1
2.098513570E-1,1.334205055E1,-5.041500092E1,5.533950329E0,5.244337171E1
2.118148270E-1,1.391700077E1,-4.857600403E1,8.140049934E0,5.118174959E1
2.137780480E-1,1.395495033E1,-4.635300064E1,1.005705070E1,4.944173921E1
2.157410820E-1,1.376400089E1,-4.443600082E1,1.132200050E1,4.787685856E1
2.177041840E-1,1.341900063E1,-4.271100235E1,1.170495033E1,4.627423864E1
2.196674360E-1,1.280505085E1,-4.110195160E1,1.139805031E1,4.453375465E1
2.216306440E-1,1.180905056E1,-3.930000305E1,1.051695061E1,4.236213126E1
2.235939240E-1,1.077405071E1,-3.753705215E1,9.098999977E0,4.009865651E1
2.255571820E-1,9.547050476E0,-3.569700241E1,7.105050564E0,3.762849847E1
2.275205740E-1,8.320950508E0,-3.397305298E1,4.921050072E0,3.532171117E1
2.294839370E-1,7.132950306E0,-3.228600311E1,3.081000090E0,3.320779334E1
2.314474610E-1,6.060000420E0,-3.063795090E1,1.930950046E0,3.129115224E1
2.334109370E-1,5.446050167E0,-2.948805046E1,9.730500579E-1,3.000252337E1
2.353750270E-1,4.948050022E0,-2.856900215E1,9.195000678E-2,2.899447426E1
2.373389370E-1,4.488000393E0,-2.776395226E1,-4.060500264E-1,2.812728336E1
2.393024530E-1,4.219950199E0,-2.703495216E1,-7.890000343E-1,2.737369429E1
2.412660880E-1,4.027950287E0,-2.653695107E1,-1.134000063E0,2.686484899E1
2.432296100E-1,3.798000097E0,-2.592405128E1,-1.479000092E0,2.624249761E1
2.451931650E-1,2.839950085E0,-2.431395149E1,-1.861950040E0,2.454995747E1
2.471570600E-1,3.108000040E0,-2.465895081E1,-2.437050104E0,2.497324032E1
2.491208550E-1,3.184950113E0,-2.454405022E1,-2.935050249E0,2.492325878E1
2.510846610E-1,3.147000074E0,-2.431395149E1,-2.896950245E0,2.468732807E1
2.530484660E-1,3.147000074E0,-2.404605103E1,-2.704950094E0,2.440149451E1
2.550119600E-1,3.108000040E0,-2.362395096E1,-2.475000143E0,2.395571641E1
2.569755450E-1,2.955000162E0,-2.308800125E1,-2.359950066E0,2.339566610E1
2.589392550E-1,2.839950085E0,-2.255100060E1,-2.092050076E0,2.282519699E1
2.609029280E-1,2.572050095E0,-2.197605133E1,-1.671000123E0,2.218906296E1
2.628664490E-1,2.227050066E0,-2.128605080E1,-1.287000060E0,2.144089736E1
2.648300110E-1,1.996950150E0,-2.063505173E1,-9.420000315E-1,2.075284399E1
2.667935890E-1,1.690050125E0,-1.983000183E1,-6.739500165E-1,1.991329834E1
2.687571630E-1,1.422000051E0,-1.910205078E1,-4.060500264E-1,1.915920940E1
2.707206960E-1,1.345050097E0,-1.848795128E1,-2.520000041E-1,1.853852762E1
2.726842420E-1,1.269000053E0,-1.791300011E1,-2.140500098E-1,1.795916901E1
2.746477790E-1,1.230000019E0,-1.729995155E1,-3.289500177E-1,1.734674125E1
2.766113180E-1,1.000050068E0,-1.672500038E1,-5.209500194E-1,1.676296891E1
2.785748560E-1,8.470500112E-1,-1.607400131E1,-5.209500194E-1,1.610473225E1
2.805383950E-1,6.550500393E-1,-1.538400078E1,-4.440000355E-1,1.540434051E1
2.825020680E-1,6.169500351E-1,-1.500105095E1,-3.670500219E-1,1.501821836E1
2.844657010E-1,7.699500322E-1,-1.461705112E1,-2.910000086E-1,1.464020791E1
2.864292340E-1,8.850000501E-1,-1.415700054E1,-2.205000073E-2,1.418465282E1
2.883927900E-1,9.619500637E-1,-1.369695091E1,5.295000225E-2,1.373079080E1
2.903563700E-1,1.077000022E0,-1.319895077E1,1.680000126E-1,1.324388366E1
2.923199420E-1,1.114950061E0,-1.262400055E1,2.070000172E-1,1.267483146E1
2.942825740E-1,1.114950061E0,-1.204905033E1,2.830500007E-1,1.210383595E1
2.962454820E-1,1.153950095E0,-1.135905075E1,3.600000143E-1,1.142318847E1
2.982095020E-1,1.077000022E0,-1.055505085E1,3.979500234E-1,1.061731565E1
3.001731870E-1,1.000050068E0,-9.750000000E0,4.750500321E-1,9.812658797E0
3.021366560E-1,8.089500666E-1,-8.907000542E0,5.130000114E-1,8.958360780E0
3.041001890E-1,6.550500393E-1,-8.140049934E0,7.050000429E-1,8.196738897E0
3.060628720E-1,5.790000558E-1,-7.372950554E0,7.810500264E-1,7.436778878E0
3.080258040E-1,4.639500082E-1,-6.645000458E0,8.580000401E-1,6.716207618E0
3.099894500E-1,5.790000558E-1,-6.300000191E0,1.126049995E0,6.425981019E0
3.119528840E-1,5.020500422E-1,-5.839950085E0,1.356000066E0,6.016295157E0
3.139160360E-1,3.109500110E-1,-5.227050304E0,1.432950020E0,5.428820365E0
3.158792710E-1,1.960500032E-1,-4.614000320E0,1.510050058E0,4.858774098E0
3.178425450E-1,8.100000024E-2,-4.116000175E0,1.663050056E0,4.440017335E0
3.198058070E-1,-1.480500102E-1,-3.579000235E0,1.777950048E0,3.999033366E0
3.217692520E-1,-2.629500031E-1,-3.004050255E0,1.893000126E0,3.560464873E0
3.237326150E-1,-4.549500346E-1,-2.467050076E0,2.008050203E0,3.213344244E0
3.256959600E-1,-6.079500318E-1,-2.008050203E0,2.122950077E0,2.984758933E0
3.276593100E-1,-7.620000243E-1,-1.509000063E0,2.275950193E0,2.835079278E0
3.296225650E-1,-9.150000215E-1,-1.087950110E0,2.430000067E0,2.815272777E0
3.315858480E-1,-1.144950032E0,-6.280500293E-1,2.545050144E0,2.860531009E0
3.335481480E-1,-1.222050071E0,-1.680000126E-1,2.698050022E0,2.966665519E0
3.355107510E-1,-1.375050068E0,6.105000153E-2,2.773950100E0,3.096657706E0
3.374740440E-1,-1.528050065E0,5.590500236E-1,2.889000177E0,3.315689363E0
3.394371340E-1,-1.681950092E0,9.430500269E-1,2.889000177E0,3.473416400E0
3.414007500E-1,-1.795950055E0,1.288050056E0,3.004050255E0,3.729454046E0
3.433642110E-1,-1.911000133E0,1.594050050E0,3.081000090E0,3.960489695E0
3.453277680E-1,-2.026050091E0,1.863000035E0,3.081000090E0,4.131368981E0
3.472912930E-1,-2.140950203E0,2.208000183E0,3.234000206E0,4.462923920E0
3.492547000E-1,-2.256000042E0,2.437050104E0,3.273000240E0,4.662754548E0
3.512181410E-1,-2.332950115E0,2.667000055E0,3.234000206E0,4.797322469E0
3.531816950E-1,-2.448000193E0,2.974050045E0,3.310950041E0,5.079376811E0
3.551452160E-1,-2.524950027E0,3.166050196E0,3.234000206E0,5.182470821E0
3.571085380E-1,-2.640000105E0,3.433950186E0,3.234000206E0,5.405587088E0
3.590719150E-1,-2.640000105E0,3.664050102E0,3.196050167E0,5.532594362E0
3.610351210E-1,-2.601000071E0,3.817050219E0,3.081000090E0,5.552263979E0
3.629983770E-1,-2.677950144E0,3.931950092E0,2.965950251E0,5.606113573E0
3.649614230E-1,-2.563050032E0,4.085999966E0,2.851050138E0,5.602955298E0
3.669245310E-1,-2.524950027E0,4.201050282E0,2.698050022E0,5.594968278E0
3.688874810E-1,-2.448000193E0,4.239000320E0,2.506050110E0,5.499283209E0
3.708504680E-1,-2.410050154E0,4.354050159E0,2.275950193E0,5.472297855E0
3.728137390E-1,-2.332950115E0,4.431000233E0,2.085000038E0,5.424356594E0
3.747769270E-1,-2.218050003E0,4.431000233E0,1.930950046E0,5.318089597E0
3.767399410E-1,-2.103000164E0,4.468950272E0,1.701000094E0,5.223746504E0
3.787030060E-1,-1.987950087E0,4.431000233E0,1.510050058E0,5.085858805E0
3.806660750E-1,-1.834950089E0,4.392000198E0,1.471050024E0,4.982037309E0
3.826291490E-1,-1.681950092E0,4.392000198E0,1.318050027E0,4.884247918E0
3.845924520E-1,-1.567050099E0,4.392000198E0,1.126049995E0,4.797217980E0
3.865556870E-1,-1.489950061E0,4.392000198E0,1.050000072E0,4.755219982E0
3.885189180E-1,-1.336950064E0,4.431000233E0,9.349500537E-1,4.721793106E0
3.904821510E-1,-1.260000110E0,4.431000233E0,8.580000401E-1,4.685885979E0
3.924453310E-1,-1.260000110E0,4.431000233E0,6.660000086E-1,4.654558986E0
3.944085310E-1,-1.183050036E0,4.431000233E0,4.750500321E-1,4.610752974E0
3.963727120E-1,-1.106999993E0,4.392000198E0,3.220500052E-1,4.540796288E0
3.983366060E-1,-1.106999993E0,4.315950394E0,2.070000172E-1,4.460462509E0
4.002998590E-1,-1.068000078E0,4.315950394E0,9.195000678E-2,4.447078453E0
4.022633000E-1,-1.030050039E0,4.239000320E0,-6.105000153E-2,4.362780524E0
4.042267050E-1,-9.150000215E-1,4.276950359E0,-2.520000041E-1,4.380985439E0
4.061901310E-1,-8.770500422E-1,4.162050247E0,-4.440000355E-1,4.276565803E0
4.081533280E-1,-7.999500632E-1,4.162050247E0,-6.360000372E-1,4.285682957E0
4.101165930E-1,-6.079500318E-1,4.085999966E0,-8.269500136E-1,4.212937845E0
4.120795920E-1,-5.320500135E-1,3.970950127E0,-9.810000658E-1,4.124788874E0
4.140426690E-1,-3.400500119E-1,3.894000292E0,-1.134000063E0,4.069991207E0
4.160056510E-1,-1.870500147E-1,3.856050253E0,-1.287000060E0,4.069457017E0
4.179686330E-1,4.050000105E-3,3.625950098E0,-1.555950046E0,3.945695257E0
4.199318600E-1,1.570500135E-1,3.357000113E0,-1.708950043E0,3.770228735E0
4.218950150E-1,3.870000243E-1,3.088950157E0,-1.900950074E0,3.647601030E0
4.238590250E-1,6.169500351E-1,2.859000206E0,-2.206950188E0,3.664033113E0
4.258227840E-1,7.320000529E-1,2.551950216E0,-2.437050104E0,3.603815644E0
4.277857000E-1,9.240000248E-1,2.245950222E0,-2.667000055E0,3.607070521E0
4.297488630E-1,1.114950061E0,1.671000123E0,-2.820000172E0,3.462333897E0
4.317124650E-1,1.345050097E0,9.040500522E-1,-2.782050133E0,3.219669113E0
4.336759380E-1,1.498950124E0,2.910000086E-1,-2.704950094E0,3.106169263E0
4.356397130E-1,1.651950121E0,-1.680000126E-1,-2.629050016E0,3.109512373E0
4.376034000E-1,1.920000076E0,-4.360500276E-1,-2.551950216E0,3.223195592E0
4.395666790E-1,2.111999989E0,-8.580000401E-1,-2.475000143E0,3.364867565E0
4.415300840E-1,2.227050066E0,-1.279050112E0,-2.514000177E0,3.593872296E0
4.434933300E-1,2.380050182E0,-1.624050021E0,-2.475000143E0,3.798394799E0
4.454566230E-1,2.494950056E0,-1.893000126E0,-2.475000143E0,3.991722807E0
4.474201570E-1,2.610000134E0,-2.275950193E0,-2.437050104E0,4.234532228E0
4.493836210E-1,2.725050211E0,-2.506050110E0,-2.475000143E0,4.453292211E0
4.513471980E-1,2.725050211E0,-2.697000027E0,-2.398950100E0,4.522683869E0
4.533107560E-1,2.802000046E0,-2.851050138E0,-2.398950100E0,4.662043836E0
4.552744260E-1,2.917050123E0,-3.081000090E0,-2.284050226E0,4.818571200E0
4.572380630E-1,3.031950235E0,-3.310950041E0,-2.284050226E0,5.037062422E0
4.592012250E-1,3.031950235E0,-3.426000118E0,-2.130000114E0,5.046493786E0
4.611645270E-1,3.147000074E0,-3.541050196E0,-2.014950037E0,5.148074359E0
4.631279600E-1,3.262050152E0,-3.616950274E0,-1.900950074E0,5.228471254E0
4.650913610E-1,3.337950230E0,-3.732000113E0,-1.632000089E0,5.266228334E0
4.670551040E-1,3.415050268E0,-3.847050190E0,-1.441050053E0,5.342189509E0
4.690187460E-1,3.492000103E0,-3.886050224E0,-1.363950014E0,5.399612088E0
4.709820420E-1,3.492000103E0,-3.924000263E0,-1.210950017E0,5.390569796E0
4.729454400E-1,3.682950258E0,-4.000950336E0,-1.134000063E0,5.554969158E0
4.749086920E-1,3.721950293E0,-4.039050102E0,-1.018950105E0,5.586152435E0
4.768719830E-1,3.760050297E0,-4.039050102E0,-1.057050109E0,5.618652765E0
4.788355180E-1,3.952050209E0,-3.961950302E0,-9.420000315E-1,5.674778860E0
4.807989810E-1,3.990000248E0,-4.039050102E0,-8.659500480E-1,5.743160906E0
4.827618120E-1,4.027950287E0,-3.961950302E0,-8.659500480E-1,5.715881664E0
4.847248290E-1,4.066950321E0,-3.886050224E0,-8.659500480E-1,5.691339100E0
4.866879360E-1,4.066950321E0,-3.847050190E0,-8.659500480E-1,5.664781511E0
4.886510340E-1,4.066950321E0,-3.732000113E0,-8.659500480E-1,5.587287288E0
4.906142880E-1,4.027950287E0,-3.655950069E0,-9.420000315E-1,5.520662866E0
4.925774960E-1,3.952050209E0,-3.541050196E0,-1.096050024E0,5.418400410E0
4.945412710E-1,3.990000248E0,-3.387000084E0,-1.171950102E0,5.363332787E0
4.965048800E-1,3.837000132E0,-3.196050167E0,-1.326000094E0,5.166776842E0
4.984684020E-1,3.798000097E0,-3.004050255E0,-1.402050018E0,5.041315992E0
5.004319540E-1,3.682950258E0,-2.736000061E0,-1.479000092E0,4.820504145E0
5.023953100E-1,3.529950142E0,-2.544000149E0,-1.555950046E0,4.620980990E0
5.043587240E-1,3.415050268E0,-2.238000154E0,-1.708950043E0,4.426253865E0
5.063220580E-1,3.262050152E0,-1.969050050E0,-1.747050047E0,4.191695738E0
5.082854160E-1,3.147000074E0,-1.738950133E0,-1.747050047E0,3.997466810E0
5.102486200E-1,3.031950235E0,-1.548000097E0,-1.671000123E0,3.792264224E0
5.122118720E-1,2.878050089E0,-1.318050027E0,-1.632000089E0,3.561439664E0
5.141752790E-1,2.686950207E0,-1.087950110E0,-1.555950046E0,3.290033039E0
5.161386400E-1,2.610000134E0,-9.340500236E-1,-1.479000092E0,3.141972536E0
5.181018490E-1,2.457000017E0,-7.039500475E-1,-1.441050053E0,2.934113155E0
5.200651030E-1,2.304000139E0,-5.130000114E-1,-1.249050021E0,2.670526467E0
5.220285540E-1,2.188950062E0,-2.830500007E-1,-1.171950102E0,2.499017150E0
5.239919470E-1,2.035050154E0,-1.680000126E-1,-1.096050024E0,2.317537225E0
5.259542050E-1,1.920000076E0,-5.295000225E-2,-9.810000658E-1,2.156748739E0
5.279167960E-1,1.767000079E0,9.900000691E-2,-8.659500480E-1,1.970268958E0
5.298801350E-1,1.614000082E0,2.910000086E-1,-6.739500165E-1,1.773100644E0
5.318432550E-1,1.422000051E0,4.060500264E-1,-5.590500236E-1,1.580979980E0
5.338065450E-1,1.306950092E0,5.980500579E-1,-4.060500264E-1,1.493539099E0
5.357697890E-1,1.269000053E0,7.129500508E-1,-2.520000041E-1,1.477214579E0
5.377327930E-1,1.153950095E0,8.280000687E-1,-6.105000153E-2,1.421587858E0
5.396958680E-1,1.000050068E0,9.040500522E-1,2.070000172E-1,1.363911889E0
5.416584040E-1,9.240000248E-1,9.810000658E-1,4.750500321E-1,1.428919070E0
5.436210980E-1,8.470500112E-1,9.810000658E-1,8.200500607E-1,1.533733012E0
5.455844460E-1,7.699500322E-1,9.810000658E-1,1.087950110E0,1.654937952E0
5.475476160E-1,7.699500322E-1,9.430500269E-1,1.240950108E0,1.738425602E0
5.495110370E-1,7.320000529E-1,8.280000687E-1,1.432950020E0,1.809628125E0
5.514743850E-1,6.169500351E-1,6.739500165E-1,1.471050024E0,1.731711334E0
5.534366950E-1,5.790000558E-1,4.440000355E-1,1.510050058E0,1.677089227E0
5.553993100E-1,5.020500422E-1,2.140500098E-1,1.548000097E0,1.641394515E0
5.573634870E-1,3.870000243E-1,-9.105000645E-2,1.663050056E0,1.709910702E0
5.593272170E-1,2.719500065E-1,-2.440500110E-1,1.663050056E0,1.702719208E0
5.612901830E-1,1.189500093E-1,-6.280500293E-1,1.624950051E0,1.746155381E0
5.632533730E-1,-3.299999982E-2,-1.048950076E0,1.663050056E0,1.966499618E0
5.652166100E-1,-3.019500077E-1,-1.509000063E0,1.510050058E0,2.156039465E0
5.671798330E-1,-4.930500090E-1,-2.008050203E0,1.471050024E0,2.537587851E0
5.691429450E-1,-7.620000243E-1,-2.620950222E0,1.356000066E0,3.047746755E0
5.711060790E-1,-9.529500604E-1,-3.234000206E0,1.050000072E0,3.531199697E0
5.730692800E-1,-1.222050071E0,-3.924000263E0,7.050000429E-1,4.169917206E0
5.750324620E-1,-1.489950061E0,-4.690050125E0,4.750500321E-1,4.943904721E0
5.769964220E-1,-1.834950089E0,-5.494950294E0,2.830500007E-1,5.800141194E0
5.789601540E-1,-2.103000164E0,-6.300000191E0,2.830500007E-1,6.647761232E0
5.809227450E-1,-2.410050154E0,-7.258050442E0,3.220500052E-1,7.654498949E0
5.828856810E-1,-2.793000221E0,-8.217000008E0,6.660000086E-1,8.704222847E0
5.848491410E-1,-3.175950050E0,-9.136050224E0,9.349500537E-1,9.717417560E0
5.868124480E-1,-3.598050117E0,-1.032495022E1,1.165050030E0,1.099581299E1
5.887758460E-1,-4.096050262E0,-1.120605087E1,1.126049995E0,1.198420596E1
5.907392170E-1,-4.708950043E0,-1.197300053E1,6.280500293E-1,1.288104805E1
5.927031940E-1,-5.053950310E0,-1.335300064E1,2.070000172E-1,1.427893164E1
5.946669910E-1,-5.437950134E0,-1.515405083E1,-4.060500264E-1,1.610532318E1
5.966302610E-1,-5.821050167E0,-1.733895111E1,-1.210950017E0,1.833003684E1
5.985936850E-1,-6.433950424E0,-2.002200127E1,-2.014950037E0,2.112667216E1
6.005571080E-1,-7.086000443E0,-2.301105118E1,-2.935050249E0,2.425560551E1
6.025205310E-1,-8.082000732E0,-2.630700111E1,-3.778950214E0,2.777872402E1
6.044837200E-1,-9.232050896E0,-2.956500053E1,-4.736999989E0,3.133303671E1
6.064469840E-1,-1.018995094E1,-3.263100052E1,-4.047000408E0,3.442376370E1
6.084103430E-1,-1.061205006E1,-3.673200226E1,-3.855000257E0,3.842807077E1
6.103736740E-1,-1.053495026E1,-4.144695282E1,-4.468050003E0,4.299765745E1
6.123370680E-1,-9.807000160E0,-4.600800323E1,-4.813050270E0,4.728719770E1
6.143004430E-1,-8.121000290E0,-5.010900116E1,-3.894000292E0,5.091194242E1
6.162635100E-1,-5.398950100E0,-5.321295166E1,-2.245050192E0,5.353323395E1
6.182266710E-1,-2.295000076E0,-5.543595123E1,-9.420000315E-1,5.549143248E1
6.201899120E-1,1.192050099E0,-5.742900085E1,1.680000126E-1,5.744161685E1
6.221531300E-1,4.564949989E0,-5.823405457E1,1.510050058E0,5.843221826E1
6.241161390E-1,7.669050217E0,-5.873205185E1,3.196050167E0,5.931680186E1
6.260792090E-1,1.046700096E1,-5.884695435E1,4.576050282E0,5.994549509E1
6.280426570E-1,1.326495075E1,-5.857905197E1,5.917050362E0,6.035292647E1
6.300059870E-1,1.567995071E1,-5.746800232E1,6.760950089E0,5.995116839E1
6.319692020E-1,1.682999992E1,-5.524500275E1,6.684000492E0,5.813720916E1
6.339324500E-1,1.721295166E1,-5.206305313E1,5.917050362E0,5.515304789E1
6.358956780E-1,1.682999992E1,-4.872900391E1,4.768050194E0,5.177353592E1
6.378589120E-1,1.587195110E1,-4.550895309E1,3.273000240E0,4.830834477E1
6.398221860E-1,1.453005028E1,-4.248105240E1,1.816050053E0,4.493395389E1
6.417854480E-1,1.307400036E1,-3.945405197E1,8.959500194E-1,4.157348228E1
6.437493940E-1,1.173195076E1,-3.673200226E1,2.070000172E-1,3.856062120E1
6.457131400E-1,1.050600052E1,-3.450900269E1,-1.369500011E-1,3.607306569E1
6.476761030E-1,9.433050156E0,-3.255495071E1,-1.369500011E-1,3.389433591E1
6.496392960E-1,8.473950386E0,-3.106005096E1,-6.105000153E-2,3.219531531E1
6.516023380E-1,7.630950451E0,-2.971800232E1,2.070000172E-1,3.068279511E1
6.535654350E-1,6.787950516E0,-2.872200203E1,2.070000172E-1,2.951393775E1
6.555286880E-1,5.944950104E0,-2.795505142E1,2.449500114E-1,2.858124092E1
6.574918950E-1,5.215950012E0,-2.737995148E1,2.070000172E-1,2.787311835E1
6.594552650E-1,4.564949989E0,-2.692005157E1,9.195000678E-2,2.730451245E1
6.614185870E-1,3.952050209E0,-2.661405182E1,-6.105000153E-2,2.690595068E1
6.633818400E-1,3.453000069E0,-2.630700111E1,-3.670500219E-1,2.653518877E1
6.653451190E-1,3.070050240E0,-2.611605072E1,-6.739500165E-1,2.630451525E1
6.673083410E-1,2.917050123E0,-2.592405128E1,-1.018950105E0,2.610754442E1
6.692715800E-1,2.878050089E0,-2.569395065E1,-1.671000123E0,2.590857993E1
6.712346290E-1,2.764050245E0,-2.542605209E1,-2.206950188E0,2.567089262E1
6.731977340E-1,2.878050089E0,-2.531100082E1,-2.206950188E0,2.556952413E1
6.751609490E-1,2.839950085E0,-2.504205132E1,-2.245050192E0,2.530236947E1
6.771241260E-1,2.917050123E0,-2.492700195E1,-2.284050226E0,2.520082326E1
6.790873660E-1,3.147000074E0,-2.485095024E1,-2.437050104E0,2.516768862E1
6.810505870E-1,3.337950230E0,-2.481195068E1,-2.206950188E0,2.513255732E1
6.830133250E-1,3.492000103E0,-2.481195068E1,-2.014950037E0,2.513736233E1
6.849762050E-1,3.645000219E0,-2.473605156E1,-1.861950040E0,2.507239780E1
6.869392600E-1,3.760050297E0,-2.465895081E1,-1.671000123E0,2.499988149E1
6.889022700E-1,3.990000248E0,-2.454405022E1,-1.516950130E0,2.491247962E1
6.908653590E-1,4.143000126E0,-2.450595093E1,-1.555950046E0,2.490235052E1
6.928284240E-1,4.105050087E0,-2.431395149E1,-1.747050047E0,2.471986766E1
6.947918640E-1,4.372950077E0,-2.439105034E1,-1.210950017E0,2.480952295E1
6.967551940E-1,4.488000393E0,-2.431395149E1,-7.510500550E-1,2.473609631E1
6.987181120E-1,4.564949989E0,-2.419905090E1,-2.910000086E-1,2.462757629E1
7.006811380E-1,4.564949989E0,-2.412300110E1,2.070000172E-1,2.455200194E1
7.026435030E-1,4.680000305E0,-2.393100166E1,4.360500276E-1,2.438822222E1
7.046060610E-1,4.642050266E0,-2.370105171E1,7.050000429E-1,2.416165367E1
7.065688200E-1,4.680000305E0,-2.354805183E1,6.280500293E-1,2.401681900E1
7.085315200E-1,4.909950256E0,-2.343300056E1,8.959500194E-1,2.395862795E1
7.104941360E-1,5.331000328E0,-2.320305061E1,1.356000066E0,2.384617073E1
7.124567670E-1,5.523000240E0,-2.285805130E1,1.585950017E0,2.356924433E1
7.144197840E-1,5.638050079E0,-2.239800072E1,1.969950080E0,2.318056833E1
7.163826880E-1,5.638050079E0,-2.186100197E1,2.161050081E0,2.267953159E1
7.183457500E-1,5.485050201E0,-2.121000099E1,2.200050116E0,2.201795037E1
7.203087650E-1,5.370000362E0,-2.055795097E1,2.275950193E0,2.136928172E1
7.222715190E-1,5.254950047E0,-1.983000183E1,2.391000032E0,2.065333759E1
7.242343630E-1,4.948050022E0,-1.898700142E1,2.430000067E0,1.977104758E1
7.261971200E-1,4.564949989E0,-1.783695030E1,2.314950228E0,1.855679280E1
7.281599020E-1,3.913050175E0,-1.645695114E1,2.085000038E0,1.704377974E1
7.301229830E-1,3.262050152E0,-1.500105095E1,1.930950046E0,1.547259089E1
7.320859770E-1,2.686950207E0,-1.369695091E1,1.701000094E0,1.406127900E1
7.340491460E-1,2.149950027E0,-1.247100067E1,1.510050058E0,1.274473986E1
7.360122410E-1,1.651950121E0,-1.132095051E1,1.471050024E0,1.153502700E1
7.379754500E-1,1.306950092E0,-1.040100002E1,1.471050024E0,1.058550463E1
7.399386250E-1,1.153950095E0,-9.558000565E0,1.701000094E0,9.776521720E0
7.419013260E-1,1.000050068E0,-8.677050591E0,1.701000094E0,8.898579011E0
7.438641660E-1,6.940500140E-1,-7.756950378E0,1.701000094E0,7.971535982E0
7.458263580E-1,1.570500135E-1,-6.798000336E0,1.510050058E0,6.965466564E0
7.477887570E-1,-4.170000255E-1,-5.955000401E0,1.471050024E0,6.148162893E0
7.497519490E-1,-9.150000215E-1,-5.341950417E0,1.471050024E0,5.615838981E0
7.517149090E-1,-1.375050068E0,-4.729050159E0,1.471050024E0,5.139909170E0
7.536778270E-1,-1.911000133E0,-4.116000175E0,1.624950051E0,4.820149543E0
7.556407570E-1,-2.448000193E0,-3.463950157E0,1.855050087E0,4.629564392E0
7.576037230E-1,-2.830950022E0,-3.004050255E0,2.353049994E0,4.751361934E0
7.595666780E-1,-3.214950085E0,-2.506050110E0,2.698050022E0,4.888319253E0
7.615299110E-1,-3.367950201E0,-2.122950077E0,3.004050255E0,4.987416518E0
7.634930630E-1,-3.559950113E0,-1.738950133E0,3.463950157E0,5.262712520E0
7.654561730E-1,-3.790050268E0,-1.318050027E0,3.733050108E0,5.480638650E0
7.674192960E-1,-4.173000336E0,-7.810500264E-1,3.655950069E0,5.602672742E0
7.693814780E-1,-4.594050407E0,-2.059500068E-1,3.502950191E0,5.780862790E0
7.713439260E-1,-4.863000393E0,1.759500057E-1,3.349050045E0,5.907272419E0
7.733070650E-1,-5.092950344E0,7.129500508E-1,3.234000206E0,6.074964882E0
7.752700010E-1,-5.245950222E0,1.096050024E0,2.965950251E0,6.125208590E0
7.772331470E-1,-5.398950100E0,1.555950046E0,2.773950100E0,6.266134525E0
7.791962320E-1,-5.553000450E0,1.978050113E0,2.698050022E0,6.482898285E0
7.811592990E-1,-5.743950367E0,2.398950100E0,2.583000183E0,6.739422627E0
7.831223780E-1,-5.821050167E0,2.706000090E0,2.430000067E0,6.863815401E0
7.850854540E-1,-5.898000240E0,3.127050161E0,2.275950193E0,7.052999279E0
7.870485310E-1,-5.898000240E0,3.396000147E0,2.085000038E0,7.118036878E0
7.890116080E-1,-5.935950279E0,3.702000141E0,2.085000038E0,7.299831226E0
7.909746850E-1,-5.859000206E0,4.009050369E0,2.008050203E0,7.377847511E0
7.929379250E-1,-5.706000328E0,4.239000320E0,1.855050087E0,7.346344280E0
7.949011290E-1,-5.398950100E0,4.431000233E0,1.740000129E0,7.197918150E0
7.968646800E-1,-5.245950222E0,4.774950027E0,1.510050058E0,7.252612817E0
7.988281290E-1,-5.016000271E0,5.119950294E0,1.356000066E0,7.294716301E0
8.007915040E-1,-4.863000393E0,5.427000046E0,1.087950110E0,7.367817707E0
8.027549000E-1,-4.786050320E0,5.580000401E0,8.959500194E-1,7.405768601E0
8.047181200E-1,-4.708950043E0,5.772000313E0,8.200500607E-1,7.494176420E0
8.066814110E-1,-4.518000126E0,5.848950386E0,8.200500607E-1,7.436062658E0
8.086451710E-1,-4.402950287E0,5.925000191E0,7.429500222E-1,7.419135612E0
8.106087930E-1,-4.096050262E0,5.964000225E0,4.360500276E-1,7.248245723E0
8.125728130E-1,-4.057950020E0,6.154950142E0,1.680000126E-1,7.374184268E0
8.145367160E-1,-3.943050146E0,6.232050419E0,-2.205000073E-2,7.374725966E0
8.164994910E-1,-3.675000191E0,6.154950142E0,-3.670500219E-1,7.178005529E0
8.184625830E-1,-3.445050240E0,6.154950142E0,-7.120500207E-1,7.089343950E0
8.204258820E-1,-3.214950085E0,6.117000103E0,-1.018950105E0,6.985116579E0
8.223891200E-1,-2.985000134E0,6.001950264E0,-1.326000094E0,6.833147812E0
8.243524850E-1,-2.793000221E0,5.887050152E0,-1.594050050E0,6.708144698E0
8.263158120E-1,-2.563050032E0,5.734050274E0,-1.900950074E0,6.562177169E0
8.282790470E-1,-2.371050119E0,5.695050240E0,-2.245050192E0,6.564733526E0
8.302422950E-1,-2.103000164E0,5.619000435E0,-2.514000177E0,6.505072826E0
8.322055670E-1,-1.873050094E0,5.503950119E0,-2.629050016E0,6.380727823E0
8.341688310E-1,-1.681950092E0,5.350050449E0,-2.820000172E0,6.277292162E0
8.361320120E-1,-1.375050068E0,5.311950207E0,-3.088950157E0,6.296760339E0
8.380952180E-1,-1.144950032E0,5.197050095E0,-3.165000200E0,6.191725650E0
8.400581160E-1,-8.770500422E-1,5.158950329E0,-3.241950035E0,6.155828563E0
8.420210880E-1,-6.079500318E-1,5.082000256E0,-3.204000235E0,6.038372905E0
8.439841820E-1,-4.170000255E-1,5.044050217E0,-3.280050039E0,6.031174004E0
8.459472400E-1,4.050000105E-3,4.929000378E0,-3.165000200E0,5.857669109E0
8.479112660E-1,1.960500032E-1,4.774950027E0,-3.012000084E0,5.648958123E0
8.498750090E-1,5.790000558E-1,4.584000111E0,-2.782050133E0,5.393338578E0
8.518382780E-1,9.240000248E-1,4.468950272E0,-2.667000055E0,5.285658130E0
8.538016930E-1,1.114950061E0,4.392000198E0,-2.551950216E0,5.200502792E0
8.557648920E-1,1.269000053E0,4.315950394E0,-2.398950100E0,5.098308594E0
8.577281550E-1,1.459950089E0,4.162050247E0,-2.169000149E0,4.915147828E0
8.596913800E-1,1.729050040E0,4.009050369E0,-1.900950074E0,4.761901940E0
8.616546170E-1,2.035050154E0,3.856050253E0,-1.671000123E0,4.669346217E0
8.636178850E-1,2.304000139E0,3.625950098E0,-1.441050053E0,4.531286353E0
8.655811480E-1,2.610000134E0,3.433950186E0,-1.249050021E0,4.490461060E0
8.675445530E-1,2.917050123E0,3.051000118E0,-9.810000658E-1,4.333606382E0
8.695079170E-1,3.415050268E0,1.863000035E0,-8.659500480E-1,3.985374129E0
8.714718010E-1,3.798000097E0,5.209500194E-1,-5.209500194E-1,3.868796012E0
8.734355330E-1,3.760050297E0,-4.740000367E-1,-1.759500057E-1,3.793891495E0
8.753986650E-1,3.607050180E0,-1.203000069E0,5.295000225E-2,3.802738996E0
8.773619820E-1,3.376950264E0,-1.701000094E0,2.070000172E-1,3.786824978E0
8.793241620E-1,3.262050152E0,-2.083950043E0,3.600000143E-1,3.887598100E0
8.812866750E-1,3.108000040E0,-2.161050081E0,3.220500052E-1,3.799146997E0
8.832498020E-1,3.031950235E0,-2.506050110E0,4.360500276E-1,3.957669644E0
8.852127490E-1,2.955000162E0,-2.889000177E0,3.979500234E-1,4.151711961E0
8.871763550E-1,2.917050123E0,-3.157050133E0,3.600000143E-1,4.313437953E0
8.891397920E-1,2.992950201E0,-3.502050161E0,2.830500007E-1,4.615433191E0
8.911032140E-1,2.992950201E0,-3.771000147E0,2.449500114E-1,4.820600950E0
8.930666410E-1,2.955000162E0,-4.039050102E0,1.300500035E-1,5.006282522E0
8.950300180E-1,2.955000162E0,-4.153950214E0,5.295000225E-2,5.098051789E0
8.969934100E-1,2.955000162E0,-4.306950092E0,-2.140500098E-1,5.227586677E0
8.989567200E-1,2.878050089E0,-4.384050369E0,-2.910000086E-1,5.252404303E0
9.009200740E-1,2.878050089E0,-4.537050247E0,-5.209500194E-1,5.398090976E0
9.028831480E-1,2.917050123E0,-4.537050247E0,-6.739500165E-1,5.435826983E0
9.048463050E-1,2.955000162E0,-4.422000408E0,-8.659500480E-1,5.388504714E0
9.068095470E-1,2.992950201E0,-4.116000175E0,-1.057050109E0,5.197745981E0
9.087727640E-1,3.108000040E0,-3.924000263E0,-1.249050021E0,5.159221673E0
9.107358220E-1,3.147000074E0,-3.694050074E0,-1.479000092E0,5.073170280E0
9.126989240E-1,3.147000074E0,-3.426000118E0,-1.708950043E0,4.955965751E0
9.146623110E-1,3.184950113E0,-3.196050167E0,-2.014950037E0,4.941524820E0
9.166256150E-1,3.262050152E0,-2.812050104E0,-2.245050192E0,4.856835116E0
9.185888340E-1,3.376950264E0,-2.581950188E0,-2.398950100E0,4.881108628E0
9.205520780E-1,3.453000069E0,-2.238000154E0,-2.437050104E0,4.782370477E0
9.225153070E-1,3.492000103E0,-1.969050050E0,-2.514000177E0,4.731957281E0
9.244785400E-1,3.492000103E0,-1.585950017E0,-2.475000143E0,4.564529317E0
9.264417700E-1,3.529950142E0,-1.318050027E0,-2.475000143E0,4.508151460E0
9.284050010E-1,3.529950142E0,-1.011000037E0,-2.398950100E0,4.386072350E0
9.303677360E-1,3.529950142E0,-7.429500222E-1,-2.359950066E0,4.310671299E0
9.323306170E-1,3.453000069E0,-5.130000114E-1,-2.206950188E0,4.130013029E0
9.342939090E-1,3.415050268E0,-2.830500007E-1,-2.130000114E0,4.034796912E0
9.362570470E-1,3.376950264E0,-1.680000126E-1,-2.092050076E0,3.976014412E0
9.382201150E-1,3.262050152E0,-1.290000081E-1,-1.977000117E0,3.816561497E0
9.401832030E-1,3.147000074E0,-5.295000225E-2,-1.824000120E0,3.637772616E0
9.421457370E-1,3.262050152E0,2.295000106E-2,-1.671000123E0,3.665206584E0
9.441084340E-1,3.147000074E0,3.289500177E-1,-1.708950043E0,3.596154589E0
9.460717550E-1,2.878050089E0,5.590500236E-1,-1.900950074E0,3.494183800E0
9.480348930E-1,2.725050211E0,6.739500165E-1,-1.786050081E0,3.327173300E0
9.499981850E-1,2.686950207E0,7.510500550E-1,-1.594050050E0,3.213218505E0
9.519614320E-1,2.572050095E0,7.890000343E-1,-1.326000094E0,2.999373100E0
9.539244810E-1,2.380050182E0,7.890000343E-1,-1.057050109E0,2.721123823E0
9.558875880E-1,2.227050066E0,8.659500480E-1,-7.890000343E-1,2.516374880E0
9.578506510E-1,2.074050188E0,9.040500522E-1,-5.590500236E-1,2.330563796E0
9.598137330E-1,1.882050037E0,9.040500522E-1,-3.289500177E-1,2.113676171E0
9.617769430E-1,1.729050040E0,9.430500269E-1,1.500000060E-2,1.969564011E0
9.637401150E-1,1.459950089E0,8.659500480E-1,2.070000172E-1,1.710021274E0
9.657025010E-1,1.306950092E0,8.659500480E-1,4.360500276E-1,1.627306872E0
9.676651170E-1,1.269000053E0,8.659500480E-1,4.750500321E-1,1.608074362E0
9.696284210E-1,1.153950095E0,7.890000343E-1,7.050000429E-1,1.565613917E0
9.715915140E-1,1.000050068E0,6.739500165E-1,9.730500579E-1,1.549559672E0
9.735549940E-1,8.089500666E-1,5.980500579E-1,9.349500537E-1,1.373388395E0
9.755183600E-1,7.320000529E-1,5.980500579E-1,1.011000037E0,1.384055282E0
9.774806220E-1,5.790000558E-1,5.209500194E-1,1.126049995E0,1.369167112E0
9.794432080E-1,4.260000288E-1,4.060500264E-1,1.240950108E0,1.373429947E0
9.814067480E-1,3.490500152E-1,3.289500177E-1,1.356000066E0,1.438325487E0
9.833699950E-1,3.490500152E-1,2.530499995E-1,1.395000100E0,1.460101193E0
9.853335840E-1,3.109500110E-1,1.380000114E-1,1.356000066E0,1.398023637E0
9.872970720E-1,2.719500065E-1,9.900000691E-2,1.395000100E0,1.424704561E0
9.892601250E-1,3.109500110E-1,6.105000153E-2,1.432950020E0,1.467570363E0
9.912233050E-1,2.340000123E-1,1.759500057E-1,1.471050024E0,1.499900858E0
9.931863620E-1,1.960500032E-1,1.380000114E-1,1.471050024E0,1.490458916E0
9.951494250E-1,1.960500032E-1,1.759500057E-1,1.471050024E0,1.494450461E0
9.971129090E-1,8.100000024E-2,1.380000114E-1,1.432950020E0,1.441856707E0
9.990762690E-1,-7.200000435E-2,1.380000114E-1,1.510050058E0,1.518051113E0
1.001039658E0,-1.480500102E-1,6.105000153E-2,1.510050058E0,1.518518056E0
1.003003039E0,-1.480500102E-1,2.295000106E-2,1.510050058E0,1.517463900E0
1.004966951E0,-7.200000435E-2,-5.295000225E-2,1.548000097E0,1.550577958E0
1.006930717E0,-3.299999982E-2,-9.105000645E-2,1.548000097E0,1.551026565E0
1.008893857E0,4.050000105E-3,-1.290000081E-1,1.624950051E0,1.630067506E0
1.010857180E0,4.200000316E-2,-1.290000081E-1,1.663050056E0,1.668574388E0
1.012820395E0,8.100000024E-2,-1.680000126E-1,1.740000129E0,1.749967272E0
1.014783642E0,1.570500135E-1,-2.059500068E-1,1.855050087E0,1.873043229E0
1.016746449E0,1.960500032E-1,-3.589500189E-1,1.930950046E0,1.973790465E0
1.018709396E0,3.109500110E-1,-5.509500504E-1,2.046000004E0,2.141576962E0
1.020672675E0,1.570500135E-1,-5.890500546E-1,2.085000038E0,2.172295982E0
1.022635856E0,1.570500135E-1,-7.429500222E-1,2.161050081E0,2.290584401E0
1.024598916E0,1.960500032E-1,-1.048950076E0,2.200050116E0,2.445189640E0
1.026562012E0,1.570500135E-1,-1.318050027E0,2.430000067E0,2.768902473E0
1.028525431E0,4.050000105E-3,-1.548000097E0,2.545050144E0,2.978859000E0
1.030488765E0,-1.480500102E-1,-1.816050053E0,2.812950134E0,3.351513846E0
1.032452158E0,-3.019500077E-1,-2.122950077E0,2.965950251E0,3.659911437E0
1.034415534E0,-4.930500090E-1,-2.467050076E0,3.081000090E0,3.977687260E0
1.036378786E0,-7.230000496E-1,-2.773950100E0,3.273000240E0,4.350868741E0
1.038342075E0,-8.770500422E-1,-3.310950041E0,3.310950041E0,4.763821693E0
1.040305435E0,-1.068000078E0,-3.732000113E0,3.349050045E0,5.126849443E0
1.042268770E0,-1.260000110E0,-4.269000053E0,3.388050079E0,5.593822045E0
1.044231804E0,-1.413000107E0,-4.843950272E0,3.196050167E0,5.972868675E0
1.046194926E0,-1.375050068E0,-5.457000256E0,3.196050167E0,6.471812045E0
1.048158040E0,-1.413000107E0,-6.300000191E0,3.157950163E0,7.187434934E0
1.050121156E0,-1.567050099E0,-7.027950287E0,3.043050051E0,7.817153245E0
1.052084245E0,-1.834950089E0,-7.488000393E0,2.812950134E0,8.206697276E0
1.054047329E0,-1.987950087E0,-8.025000572E0,2.467950106E0,8.628056412E0
1.056010224E0,-2.179949999E0,-8.752950668E0,2.085000038E0,9.258161403E0
1.057973175E0,-2.371050119E0,-9.558000565E0,1.624950051E0,9.980867504E0
1.059937309E0,-2.601000071E0,-1.044000053E1,1.126049995E0,1.081789264E1
1.061901097E0,-2.908050060E0,-1.151295090E1,2.070000172E-1,1.187634803E1
1.063864292E0,-3.291000128E0,-1.277805042E1,-8.269500136E-1,1.322093419E1
1.065827651E0,-3.751050234E0,-1.438695049E1,-2.053950071E0,1.500911167E1
1.067790860E0,-4.479000092E0,-1.668704987E1,-3.510000229E0,1.763063177E1
1.069754113E0,-5.361000061E0,-1.990695000E1,-5.197050095E0,2.126114554E1
1.071717294E0,-6.433950424E0,-2.385405159E1,-7.611000538E0,2.585224989E1
1.073680497E0,-7.621950150E0,-2.837700081E1,-1.029405022E1,3.113383640E1
1.075643616E0,-8.389050484E0,-3.267000198E1,-1.297695065E1,3.614009471E1
1.077606747E0,-8.887050629E0,-3.634905243E1,-1.389705086E1,3.991693004E1
1.079569994E0,-9.462000847E0,-4.056495285E1,-1.485495090E1,4.422346013E1
1.081533207E0,-9.385050774E0,-4.497300339E1,-1.535295105E1,4.843927454E1
1.083496441E0,-8.121000290E0,-5.041500092E1,-1.443405056E1,5.306566478E1
1.085459668E0,-5.361000061E0,-5.689305115E1,-1.523895073E1,5.914207648E1
1.087422929E0,-2.332950115E0,-6.229695129E1,-1.554495049E1,6.424950025E1
1.089386159E0,4.639500082E-1,-6.547800446E1,-1.359000111E1,6.687505101E1
1.091349930E0,3.300000191E0,-6.624494934E1,-1.106100082E1,6.724305952E1
1.093313543E0,5.983050346E0,-6.563100433E1,-7.036050320E0,6.627768573E1
1.095275808E0,8.398050308E0,-6.413700104E1,-1.402050018E0,6.469967462E1
1.097238468E0,1.046700096E1,-6.329295349E1,3.655950069E0,6.425668869E1
1.099201811E0,1.234500027E1,-6.283305359E1,8.025000572E0,6.453520194E1
1.101164943E0,1.449195099E1,-6.199005127E1,1.189605045E1,6.476340878E1
1.103128146E0,1.606305122E1,-6.007395172E1,1.415805054E1,6.377579231E1
1.105091328E0,1.656105042E1,-5.796600342E1,1.599705029E1,6.237172084E1
1.107054253E0,1.621605110E1,-5.524500275E1,1.592100048E1,5.973649553E1
1.109017253E0,1.533495045E1,-5.206305313E1,1.488600063E1,5.627890565E1
1.110980477E0,1.414695072E1,-4.922700119E1,1.281600094E1,5.279852025E1
1.112943635E0,1.291995049E1,-4.639095306E1,1.021005058E1,4.922693145E1
1.114906699E0,1.173195076E1,-4.386105347E1,7.834050179E0,4.607388655E1
1.116869791E0,1.050600052E1,-4.152300262E1,5.572050095E0,4.319240137E1
1.118832909E0,9.433050156E0,-3.937695312E1,3.349050045E0,4.062933680E1
1.120796020E0,8.320950508E0,-3.757605362E1,1.318050027E0,3.850889870E1
1.122760293E0,7.171050549E0,-3.585105133E1,-4.440000355E-1,3.656390274E1
1.124724236E0,6.175050259E0,-3.431805038E1,-1.900950074E0,3.492095988E1
1.126687210E0,5.178000450E0,-3.297600174E1,-2.704950094E0,3.348947797E1
1.128650468E0,4.411950111E0,-3.182595062E1,-3.049950123E0,3.227473675E1
1.130614054E0,3.798000097E0,-3.086805153E1,-3.280050039E0,3.127331351E1
1.132577543E0,3.376950264E0,-3.002505112E1,-3.510000229E0,3.041755397E1
1.134540681E0,3.031950235E0,-2.941200066E1,-3.510000229E0,2.977546988E1
1.136503925E0,2.764050245E0,-2.875995064E1,-3.510000229E0,2.910489368E1
1.138467333E0,2.764050245E0,-2.822400093E1,-3.625050068E0,2.858977423E1
1.140430692E0,2.686950207E0,-2.772495079E1,-3.739950180E0,2.810480075E1
1.142393767E0,2.839950085E0,-2.741895103E1,-3.855000257E0,2.783388617E1
1.144356925E0,3.031950235E0,-2.715000153E1,-3.855000257E0,2.758942428E1
1.146320137E0,3.262050152E0,-2.695905113E1,-3.855000257E0,2.742794991E1
1.148283323E0,3.607050180E0,-2.680500221E1,-3.778950214E0,2.730932843E1
1.150246382E0,3.760050297E0,-2.653695107E1,-3.817050219E0,2.707245136E1
1.152209478E0,3.952050209E0,-2.634600067E1,-3.586950064E0,2.688115814E1
1.154172776E0,4.143000126E0,-2.626905060E1,-3.394950151E0,2.680957209E1
1.156136015E0,4.297049999E0,-2.607705116E1,-2.974050045E0,2.659552988E1
1.158099374E0,4.297049999E0,-2.577105141E1,-2.629050016E0,2.625878202E1
1.160062702E0,4.450050354E0,-2.569395065E1,-2.169000149E0,2.616651696E1
1.162026097E0,4.488000393E0,-2.550195122E1,-1.747050047E0,2.595272331E1
1.163989472E0,4.450050354E0,-2.519595146E1,-1.210950017E0,2.561455286E1
1.165952903E0,4.527000427E0,-2.488905144E1,-6.739500165E-1,2.530637910E1
1.167916318E0,4.603050232E0,-2.450595093E1,-9.900000691E-2,2.493470480E1
1.169878746E0,4.642050266E0,-2.412300110E1,3.220500052E-1,2.456769279E1
1.171841468E0,4.642050266E0,-2.373900032E1,5.899500251E-1,2.419580145E1
1.173805010E0,4.488000393E0,-2.331795120E1,7.810500264E-1,2.375876754E1
1.175768312E0,4.450050354E0,-2.270400047E1,1.087950110E0,2.316156776E1
1.177732071E0,4.335000038E0,-2.209095192E1,1.240950108E0,2.254644848E1
1.179695696E0,4.027950287E0,-2.136300087E1,1.203000069E0,2.177267551E1
1.181659332E0,3.798000097E0,-2.059605026E1,1.279950023E0,2.098238221E1
1.183622981E0,3.568050146E0,-1.975305176E1,1.395000100E0,2.012113468E1
1.185586366E0,3.337950230E0,-1.891005135E1,1.471050024E0,1.925865888E1
1.187549829E0,3.070050240E0,-1.802805138E1,1.471050024E0,1.834665727E1
1.189513155E0,2.878050089E0,-1.714695168E1,1.624950051E0,1.746257675E1
1.191476521E0,2.764050245E0,-1.630395126E1,1.816050053E0,1.663601029E1
1.193439948E0,2.610000134E0,-1.526895046E1,1.893000126E0,1.560565277E1
1.195403361E0,2.419050217E0,-1.419600105E1,1.930950046E0,1.452951541E1
1.197366697E0,2.111999989E0,-1.308405018E1,1.777950048E0,1.337213593E1
1.199330055E0,1.729050040E0,-1.201095104E1,1.585950017E0,1.223796537E1
1.201293443E0,1.459950089E0,-1.097595024E1,1.432950020E0,1.116495785E1
1.203256822E0,1.269000053E0,-1.005600071E1,1.318050027E0,1.022109423E1
1.205219908E0,1.000050068E0,-9.175050735E0,1.087950110E0,9.293292828E0
1.207183070E0,6.940500140E-1,-8.332050323E0,8.580000401E-1,8.404816005E0
1.209145771E0,3.870000243E-1,-7.488000393E0,6.660000086E-1,7.527514524E0
1.211108608E0,2.340000123E-1,-6.684000492E0,7.050000429E-1,6.725150083E0
1.213072086E0,4.200000316E-2,-5.802000046E0,8.580000401E-1,5.865247872E0
1.215035376E0,-1.870500147E-1,-4.996950150E0,1.050000072E0,5.109500823E0
1.216998800E0,-4.170000255E-1,-4.192049980E0,1.356000066E0,4.425596936E0
1.218962168E0,-7.230000496E-1,-3.387000084E0,1.510050058E0,3.778193989E0
1.220925555E0,-8.770500422E-1,-2.697000027E0,1.624950051E0,3.268560630E0
1.222888937E0,-9.529500604E-1,-2.122950077E0,1.777950048E0,2.928504264E0
1.224852278E0,-1.030050039E0,-1.663050056E0,1.969950080E0,2.776227996E0
1.226815631E0,-1.183050036E0,-1.203000069E0,2.161050081E0,2.741706404E0
1.228778526E0,-1.375050068E0,-6.280500293E-1,2.353049994E0,2.796793485E0
1.230741555E0,-1.452000022E0,-1.680000126E-1,2.545050144E0,2.934929012E0
1.232704054E0,-1.489950061E0,6.105000153E-2,2.736000061E0,3.115986942E0
1.234666708E0,-1.413000107E0,2.910000086E-1,2.965950251E0,3.298198174E0
1.236629677E0,-1.489950061E0,7.129500508E-1,2.965950251E0,3.394865218E0
1.238592553E0,-1.720050097E0,1.096050024E0,2.659050226E0,3.351185774E0
1.240555871E0,-2.026050091E0,1.363950014E0,2.506050110E0,3.499360765E0
1.242519072E0,-2.103000164E0,1.824000120E0,2.238000154E0,3.571866574E0
1.244482264E0,-2.140950203E0,2.131050110E0,2.122950077E0,3.692148341E0
1.246445459E0,-2.103000164E0,2.284050226E0,1.893000126E0,3.636336701E0
1.248408695E0,-2.140950203E0,2.551950216E0,1.740000129E0,3.758153553E0
1.250371918E0,-2.140950203E0,2.821050167E0,1.510050058E0,3.849966623E0
1.252334967E0,-2.140950203E0,3.051000118E0,1.432950020E0,3.993196120E0
1.254298070E0,-2.065050125E0,3.241950035E0,1.240950108E0,4.039137187E0
1.256261187E0,-2.026050091E0,3.433950186E0,9.730500579E-1,4.104110045E0
1.258224299E0,-1.987950087E0,3.625950098E0,7.050000429E-1,4.194816411E0
1.260187505E0,-1.834950089E0,3.778950214E0,7.810500264E-1,4.272884938E0
1.262150684E0,-1.834950089E0,4.009050369E0,5.509500504E-1,4.443317753E0
1.264113710E0,-1.834950089E0,4.123950005E0,4.750500321E-1,4.538686815E0
1.266076805E0,-1.758000135E0,4.276950359E0,4.360500276E-1,4.644675282E0
1.268040284E0,-1.720050097E0,4.392000198E0,3.979500234E-1,4.733561270E0
1.270003650E0,-1.681950092E0,4.507050037E0,3.600000143E-1,4.824111956E0
1.271967218E0,-1.681950092E0,4.660050392E0,3.979500234E-1,4.970250496E0
1.273930726E0,-1.528050065E0,4.736999989E0,3.220500052E-1,4.987767246E0
1.275893153E0,-1.452000022E0,4.813950062E0,3.979500234E-1,5.043885752E0
1.277855891E0,-1.375050068E0,4.736999989E0,5.130000114E-1,4.959143131E0
1.279818890E0,-1.260000110E0,4.813950062E0,4.360500276E-1,4.995183190E0
1.281781812E0,-1.222050071E0,4.852050304E0,3.600000143E-1,5.016512588E0
1.283744916E0,-1.336950064E0,4.966950417E0,3.979500234E-1,5.159108075E0
1.285707966E0,-1.260000110E0,4.929000378E0,3.220500052E-1,5.097681944E0
1.287671769E0,-1.336950064E0,4.929000378E0,1.300500035E-1,5.108756522E0
1.289635351E0,-1.375050068E0,4.890000343E0,9.195000678E-2,5.080484313E0
1.291598703E0,-1.452000022E0,4.966950417E0,9.195000678E-2,5.175650230E0
1.293562122E0,-1.567050099E0,5.044050217E0,-2.205000073E-2,5.281910147E0
1.295525321E0,-1.605000019E0,5.044050217E0,-9.900000691E-2,5.294173085E0
1.297488584E0,-1.642950058E0,5.119950294E0,-9.900000691E-2,5.378008638E0
1.299451809E0,-1.758000135E0,5.119950294E0,-1.369500011E-1,5.415091024E0
1.301415045E0,-1.795950055E0,5.235000134E0,-2.140500098E-1,5.538635248E0
1.303378050E0,-1.911000133E0,5.197050095E0,-2.520000041E-1,5.542991538E0
1.305341122E0,-1.950000048E0,5.197050095E0,-2.910000086E-1,5.558462996E0
1.307304199E0,-1.987950087E0,5.274000168E0,-3.670500219E-1,5.648163333E0
1.309267274E0,-1.987950087E0,5.311950207E0,-4.819500148E-1,5.692190823E0
1.311230163E0,-1.987950087E0,5.350050449E0,-5.590500236E-1,5.734764362E0
1.313193113E0,-1.911000133E0,5.311950207E0,-5.590500236E-1,5.672854082E0
1.315156075E0,-1.795950055E0,5.311950207E0,-6.739500165E-1,5.647695125E0
1.317119034E0,-1.720050097E0,5.389050484E0,-7.890000343E-1,5.711651119E0
1.319082267E0,-1.452000022E0,5.235000134E0,-6.360000372E-1,5.469737335E0
1.321045419E0,-1.222050071E0,5.158950329E0,-6.360000372E-1,5.339725734E0
1.323008682E0,-9.919500351E-1,5.082000256E0,-5.970000029E-1,5.212206872E0
1.324971899E0,-6.850500107E-1,4.966950417E0,-5.970000029E-1,5.049385998E0
1.326934953E0,-4.170000255E-1,4.852050304E0,-5.970000029E-1,4.906392787E0
1.328898055E0,-3.299999982E-2,4.699050426E0,-6.739500165E-1,4.747248944E0
1.330862073E0,2.340000123E-1,4.584000111E0,-6.739500165E-1,4.639183295E0
1.332825823E0,7.320000529E-1,4.315950394E0,-6.360000372E-1,4.423544724E0
1.334788720E0,1.114950061E0,3.511050224E0,-6.739500165E-1,3.744969418E0
1.336751881E0,1.306950092E0,2.245950222E0,-6.360000372E-1,2.675239614E0
1.338715709E0,1.614000082E0,8.280000687E-1,-3.670500219E-1,1.850758249E0
1.340679341E0,1.767000079E0,-1.290000081E-1,-2.910000086E-1,1.795441808E0
1.342642684E0,1.882050037E0,-6.660000086E-1,-2.520000041E-1,2.012255540E0
1.344606112E0,1.882050037E0,-1.048950076E0,-2.140500098E-1,2.165231168E0
1.346569309E0,1.843950033E0,-1.203000069E0,-2.910000086E-1,2.220820095E0
1.348532574E0,1.996950150E0,-1.585950017E0,-3.289500177E-1,2.571236176E0
1.350495753E0,2.074050188E0,-1.969050050E0,-2.910000086E-1,2.874634461E0
1.352458958E0,2.188950062E0,-2.314050198E0,-3.289500177E-1,3.202270882E0
1.354422058E0,2.265000105E0,-2.581950188E0,-4.060500264E-1,3.458550111E0
1.356385189E0,2.341950178E0,-2.851050138E0,-4.060500264E-1,3.711885525E0
1.358348421E0,2.457000017E0,-3.081000090E0,-5.970000029E-1,3.985701901E0
1.360311634E0,2.533950090E0,-3.310950041E0,-5.970000029E-1,4.211852590E0
1.362274644E0,2.610000134E0,-3.426000118E0,-7.510500550E-1,4.371916478E0
1.364237713E0,2.610000134E0,-3.616950274E0,-9.040500522E-1,4.551014884E0
1.366201015E0,2.725050211E0,-3.771000147E0,-9.040500522E-1,4.739583026E0
1.368164249E0,2.725050211E0,-3.694050074E0,-9.810000658E-1,4.694067077E0
1.370127481E0,2.610000134E0,-3.541050196E0,-1.134000063E0,4.542806768E0
1.372090713E0,2.572050095E0,-3.310950041E0,-1.287000060E0,4.385681363E0
1.374053763E0,2.457000017E0,-3.157050133E0,-1.402050018E0,4.239051649E0
1.376016867E0,2.304000139E0,-2.889000177E0,-1.479000092E0,3.980223604E0
1.377980118E0,2.111999989E0,-2.697000027E0,-1.594050050E0,3.778273237E0
1.379943326E0,1.843950033E0,-2.467050076E0,-1.632000089E0,3.485672401E0
1.381906517E0,1.767000079E0,-2.161050081E0,-1.671000123E0,3.253408696E0
1.383869713E0,1.498950124E0,-1.930950046E0,-1.594050050E0,2.918289758E0
1.385832769E0,1.306950092E0,-1.624050021E0,-1.516950130E0,2.578137838E0
1.387795867E0,1.230000019E0,-1.356000066E0,-1.402050018E0,2.305944596E0
1.389759119E0,1.114950061E0,-1.087950110E0,-1.326000094E0,2.045733446E0
1.391722326E0,8.850000501E-1,-8.190000653E-1,-1.287000060E0,1.763619956E0
1.393684520E0,6.550500393E-1,-4.740000367E-1,-1.287000060E0,1.519913071E0
1.395647015E0,5.020500422E-1,-2.830500007E-1,-1.287000060E0,1.410156269E0
1.397609831E0,3.109500110E-1,-1.290000081E-1,-1.249050021E0,1.293621609E0
1.399572552E0,1.960500032E-1,-5.295000225E-2,-1.171950102E0,1.189414288E0
1.401534925E0,8.100000024E-2,9.900000691E-2,-1.134000063E0,1.141191546E0
1.403497400E0,8.100000024E-2,2.140500098E-1,-1.018950105E0,1.044336020E0
1.405460176E0,-7.200000435E-2,3.679500222E-1,-1.096050024E0,1.158402726E0
1.407422894E0,-7.200000435E-2,4.440000355E-1,-9.810000658E-1,1.079203948E0
1.409386032E0,-7.200000435E-2,5.590500236E-1,-1.018950105E0,1.164465648E0
1.411349047E0,-3.299999982E-2,5.980500579E-1,-9.810000658E-1,1.149397234E0
1.413312135E0,4.200000316E-2,5.980500579E-1,-7.890000343E-1,9.909333611E-1
1.415275201E0,4.050000105E-3,6.360000372E-1,-7.510500550E-1,9.841690073E-1
1.417238501E0,4.200000316E-2,6.360000372E-1,-6.739500165E-1,9.276145063E-1
1.419201735E0,1.570500135E-1,5.590500236E-1,-5.590500236E-1,8.060636231E-1
1.421164966E0,2.340000123E-1,4.830000103E-1,-5.209500194E-1,7.479531659E-1
1.423128198E0,3.109500110E-1,4.440000355E-1,-5.209500194E-1,7.518077305E-1
1.425091429E0,4.260000288E-1,3.679500222E-1,-4.440000355E-1,7.169374275E-1
1.427054660E0,4.260000288E-1,3.679500222E-1,-3.289500177E-1,6.519749670E-1
1.429018805E0,5.020500422E-1,3.289500177E-1,-2.910000086E-1,6.670407513E-1
1.430982672E0,6.550500393E-1,2.140500098E-1,-2.520000041E-1,7.337656048E-1
1.432945794E0,6.940500140E-1,1.759500057E-1,-3.670500219E-1,8.046052107E-1
1.434909135E0,8.850000501E-1,9.900000691E-2,-3.670500219E-1,9.631987378E-1
1.436872706E0,1.000050068E0,-1.500000060E-2,-2.140500098E-1,1.022811099E0
1.438836210E0,1.077000022E0,-1.500000060E-2,-6.105000153E-2,1.078833235E0
1.440800446E0,1.230000019E0,-9.105000645E-2,1.500000060E-2,1.233456586E0
1.442764456E0,1.306950092E0,-1.290000081E-1,1.300500035E-1,1.319724422E0
1.444726698E0,1.306950092E0,-1.680000126E-1,3.220500052E-1,1.356487653E0
1.446689458E0,1.345050097E0,-1.680000126E-1,4.360500276E-1,1.423911301E0
1.448652769E0,1.422000051E0,-2.059500068E-1,5.899500251E-1,1.553235520E0
1.450615918E0,1.459950089E0,-2.059500068E-1,7.429500222E-1,1.651013145E0
1.452579357E0,1.459950089E0,-2.059500068E-1,8.200500607E-1,1.687113443E0
1.454542701E0,1.537050128E0,-2.059500068E-1,8.580000401E-1,1.772315595E0
1.456505869E0,1.575000048E0,-2.830500007E-1,8.200500607E-1,1.798116947E0
1.458469088E0,1.575000048E0,-2.440500110E-1,8.200500607E-1,1.792391603E0
1.460432500E0,1.614000082E0,-2.440500110E-1,8.200500607E-1,1.826756353E0
1.462395855E0,1.614000082E0,-2.440500110E-1,8.580000401E-1,1.844104320E0
1.464359061E0,1.651950121E0,-2.440500110E-1,9.349500537E-1,1.913800202E0
1.466322314E0,1.690050125E0,-2.059500068E-1,9.730500579E-1,1.960997513E0
1.468285541E0,1.767000079E0,-1.680000126E-1,1.126049995E0,2.102023282E0
1.470248776E0,1.767000079E0,-1.680000126E-1,1.087950110E0,2.081861841E0
1.472211871E0,1.804950118E0,-1.680000126E-1,1.087950110E0,2.114167537E0
1.474175007E0,1.804950118E0,-1.290000081E-1,1.165050030E0,2.152168093E0
1.476138257E0,1.843950033E0,-1.290000081E-1,1.203000069E0,2.205448229E0
1.478101470E0,1.804950118E0,-1.290000081E-1,1.126049995E0,2.131308172E0
1.480064660E0,1.767000079E0,-5.295000225E-2,1.165050030E0,2.117176080E0
1.482027857E0,1.804950118E0,-5.295000225E-2,1.126049995E0,2.128059497E0
1.483991318E0,1.767000079E0,-9.105000645E-2,1.126049995E0,2.097276323E0
1.485954701E0,1.651950121E0,-9.105000645E-2,1.165050030E0,2.023504603E0
1.487918082E0,1.537050128E0,-9.105000645E-2,1.279950023E0,2.002270027E0
1.489881466E0,1.498950124E0,-1.290000081E-1,1.471050024E0,2.104157943E0
1.491844807E0,1.384050012E0,-1.680000126E-1,1.548000097E0,2.083296124E0
1.493808161E0,1.306950092E0,-1.680000126E-1,1.701000094E0,2.151683961E0
1.495771370E0,1.230000019E0,-2.830500007E-1,1.893000126E0,2.275185009E0
1.497734622E0,1.077000022E0,-3.589500189E-1,2.122950077E0,2.407424182E0
1.499697888E0,1.000050068E0,-5.130000114E-1,2.353049994E0,2.607702710E0
1.501661154E0,9.619500637E-1,-6.660000086E-1,2.583000183E0,2.835629363E0
1.503623658E0,7.320000529E-1,-8.959500194E-1,2.698050022E0,2.935647192E0
1.505586386E0,5.410500169E-1,-1.087950110E0,2.736000061E0,2.993671141E0
1.507550062E0,5.020500422E-1,-1.393950105E0,3.081000090E0,3.418729690E0
1.509513461E0,3.490500152E-1,-1.585950017E0,3.234000206E0,3.618816202E0
1.511476795E0,1.960500032E-1,-1.930950046E0,3.388050079E0,3.904598190E0
1.513440151E0,4.200000316E-2,-2.238000154E0,3.579000235E0,4.221332890E0
1.515403584E0,-7.200000435E-2,-2.620950222E0,3.694050074E0,4.529963577E0
1.517366995E0,-1.099500060E-1,-3.004050255E0,3.771000147E0,4.822535541E0
1.519330555E0,-3.019500077E-1,-3.426000118E0,3.771000147E0,5.103831181E0
1.521294072E0,-3.780000210E-1,-4.000950336E0,3.694050074E0,5.458616451E0
1.523257575E0,-5.320500135E-1,-4.537050247E0,3.618000269E0,5.827334563E0
1.525221079E0,-6.850500107E-1,-5.074050426E0,3.541050196E0,6.225296598E0
1.527184488E0,-6.469500065E-1,-5.839950085E0,3.618000269E0,6.900252695E0
1.529147925E0,-8.770500422E-1,-6.568950176E0,3.463950157E0,7.477919088E0
1.531111300E0,-1.183050036E0,-7.066950321E0,3.426000118E0,7.942220788E0
1.533074694E0,-1.605000019E0,-7.219950199E0,2.965950251E0,7.968724291E0
1.535038275E0,-1.795950055E0,-7.948050499E0,2.620950222E0,8.559574954E0
1.537001788E0,-2.065050125E0,-8.868000031E0,2.046000004E0,9.332307998E0
1.538965872E0,-2.448000193E0,-9.903000832E0,1.318050027E0,1.028588286E1
1.540929788E0,-2.793000221E0,-1.135905075E1,1.300500035E-1,1.169811084E1
1.542893037E0,-3.445050240E0,-1.319895077E1,-1.210950017E0,1.369478267E1
1.544856482E0,-4.288050175E0,-1.557600117E1,-2.704950094E0,1.638035231E1
1.546819736E0,-5.437950134E0,-1.879500008E1,-4.315050125E0,2.003604220E1
1.548783036E0,-7.086000443E0,-2.324100113E1,-6.576000214E0,2.517139874E1
1.550746614E0,-8.656949997E0,-2.860695076E1,-9.489000320E0,3.135827709E1
1.552710111E0,-1.007505035E1,-3.374295044E1,-1.236405087E1,3.732242085E1
1.554673432E0,-1.099500084E1,-3.795900345E1,-1.428000069E1,4.202016666E1
1.556636805E0,-1.176195049E1,-4.294095230E1,-1.623495102E1,4.739032073E1
1.558600027E0,-1.156995010E1,-4.926495361E1,-1.681005096E1,5.332426477E1
1.560563282E0,-1.087995052E1,-5.658600235E1,-1.642695045E1,5.991822500E1
1.562526552E0,-9.462000847E0,-6.153000259E1,-1.776795006E1,6.473925184E1
1.564489818E0,-7.201050282E0,-6.363795471E1,-1.604295158E1,6.602288013E1
1.566453358E0,-4.594050407E0,-6.444300079E1,-1.240200043E1,6.578613277E1
1.568416818E0,-2.179949999E0,-6.459705353E1,-8.838000298E0,6.523527999E1
1.570380677E0,7.699500322E-1,-6.459705353E1,-4.698000431E0,6.477224217E1
1.572344457E0,3.913050175E0,-6.440505219E1,-1.759500057E-1,6.452405495E1
1.574306874E0,7.210050106E0,-6.432794952E1,3.733050108E0,6.483830331E1
1.576269690E0,1.039095020E1,-6.337005234E1,7.105050564E0,6.460818155E1
1.578232991E0,1.291995049E1,-6.095505142E1,9.826950073E0,6.307941314E1
1.580196150E0,1.491300106E1,-5.804205322E1,1.251000023E1,6.121909546E1
1.582159199E0,1.556505108E1,-5.455500412E1,1.427295113E1,5.849988396E1
1.584122291E0,1.502805042E1,-5.045400238E1,1.438800049E1,5.457529857E1
1.586085409E0,1.384005070E1,-4.650600052E1,1.308495045E1,5.025505960E1
1.588048519E0,1.280505085E1,-4.321005249E1,1.105305099E1,4.640310226E1
1.590011906E0,1.157895088E1,-4.025805283E1,8.715000153E0,4.278707922E1
1.591975212E0,1.039095020E1,-3.784395218E1,6.454050541E0,3.977174036E1
1.593938496E0,9.355950356E0,-3.596595001E1,4.461000443E0,3.742971937E1
1.595901772E0,8.359050751E0,-3.454800034E1,2.889000177E0,3.566208601E1
1.597864995E0,7.516050339E0,-3.343605042E1,1.585950017E0,3.430707970E1
1.599828234E0,6.711000443E0,-3.240105057E1,4.750500321E-1,3.309216338E1
1.601792183E0,5.791050434E0,-3.163500214E1,-5.970000029E-1,3.216622506E1
1.603755924E0,4.717950344E0,-3.098295212E1,-1.402050018E0,3.137145393E1
1.605718888E0,3.837000132E0,-3.033195114E1,-2.130000114E0,3.064778508E1
1.607682080E0,2.992950201E0,-2.991000175E1,-2.743950129E0,3.018435386E1
1.609645451E0,2.265000105E0,-2.944995117E1,-3.702000141E0,2.976801395E1
1.611608770E0,1.690050125E0,-2.899005127E1,-4.353000164E0,2.936371830E1
1.613572211E0,1.306950092E0,-2.856900215E1,-4.660050392E0,2.897606033E1
1.615535616E0,1.000050068E0,-2.810895157E1,-4.927950382E0,2.855517385E1
1.617498798E0,8.089500666E-1,-2.776395226E1,-4.852050304E0,2.819634439E1
1.619462060E0,8.089500666E-1,-2.741895103E1,-4.774950027E0,2.784337307E1
1.621425780E0,8.089500666E-1,-2.718900108E1,-4.392000198E0,2.755332731E1
1.623389366E0,9.240000248E-1,-2.692005157E1,-3.970050097E0,2.722690307E1
1.625352717E0,1.114950061E0,-2.672895050E1,-3.625050068E0,2.699668306E1
1.627316137E0,1.230000019E0,-2.661405182E1,-3.357000113E0,2.685312094E1
1.629279337E0,1.345050097E0,-2.653695107E1,-3.241950035E0,2.676806253E1
1.631242632E0,1.422000051E0,-2.646105194E1,-2.896950245E0,2.665711302E1
1.633205626E0,1.614000082E0,-2.626905060E1,-2.475000143E0,2.643470524E1
1.635168709E0,1.843950033E0,-2.615400124E1,-1.900950074E0,2.628774512E1
1.637131785E0,1.959000111E0,-2.607705116E1,-1.363950014E0,2.618607719E1
1.639094863E0,2.265000105E0,-2.600100136E1,-8.659500480E-1,2.611383094E1
1.641058183E0,2.457000017E0,-2.603895187E1,-3.289500177E-1,2.615668312E1
1.643021419E0,2.610000134E0,-2.596200180E1,2.070000172E-1,2.609368673E1
1.644983704E0,2.802000046E0,-2.584695053E1,7.429500222E-1,2.600899903E1
1.646946267E0,2.955000162E0,-2.569395065E1,1.165050030E0,2.588954360E1
1.648909791E0,3.147000074E0,-2.546400070E1,1.432950020E0,2.569770976E1
1.650873034E0,3.376950264E0,-2.519595146E1,1.663050056E0,2.547558633E1
1.652836668E0,3.645000219E0,-2.504205132E1,2.008050203E0,2.538548062E1
1.654800188E0,3.952050209E0,-2.473605156E1,2.200050116E0,2.514619590E1
1.656763686E0,4.143000126E0,-2.431395149E1,2.391000032E0,2.478002357E1
1.658727190E0,4.335000038E0,-2.393100166E1,2.314950228E0,2.443039215E1
1.660690058E0,4.411950111E0,-2.339400101E1,2.161050081E0,2.390428255E1
1.662653113E0,4.372950077E0,-2.281905174E1,1.930950046E0,2.331438146E1
1.664616359E0,4.335000038E0,-2.201505089E1,1.624950051E0,2.249655871E1
1.666579558E0,4.258049965E0,-2.121000099E1,1.318050027E0,2.167331049E1
1.668542930E0,4.182000160E0,-2.036595154E1,8.959500194E-1,2.081018582E1
1.670506251E0,4.105050087E0,-1.936995125E1,4.360500276E-1,1.980496370E1
1.672470547E0,3.913050175E0,-1.822005081E1,1.680000126E-1,1.863626672E1
1.674434558E0,3.798000097E0,-1.707000160E1,1.300500035E-1,1.748790074E1
1.676397827E0,3.645000219E0,-1.603499985E1,1.500000060E-2,1.644407102E1
1.678361320E0,3.415050268E0,-1.500105095E1,-2.205000073E-2,1.538488167E1
1.680324910E0,3.300000191E0,-1.404195023E1,1.500000060E-2,1.442451359E1
1.682288472E0,3.147000074E0,-1.312305069E1,5.295000225E-2,1.349521666E1
1.684251962E0,3.031950235E0,-1.231800079E1,9.195000678E-2,1.268598914E1
1.686215474E0,2.802000046E0,-1.147395039E1,1.300500035E-1,1.181184383E1
1.688179230E0,2.610000134E0,-1.070805073E1,9.195000678E-2,1.102192841E1
1.690142890E0,2.341950178E0,-9.903000832E0,2.449500114E-1,1.017910392E1
1.692106094E0,2.035050154E0,-9.060000420E0,2.449500114E-1,9.288973961E0
1.694069431E0,1.690050125E0,-8.217000008E0,1.680000126E-1,8.390684272E0
1.696032238E0,1.459950089E0,-7.297050476E0,1.300500035E-1,7.442802760E0
1.697995200E0,1.230000019E0,-6.529950142E0,3.220500052E-1,6.652583341E0
1.699957748E0,9.619500637E-1,-5.686950207E0,5.509500504E-1,5.793987965E0
1.701920455E0,5.020500422E-1,-4.920000076E0,5.899500251E-1,4.980612013E0
1.703884090E0,1.570500135E-1,-4.192049980E0,7.429500222E-1,4.260272583E0
1.705847453E0,-1.480500102E-1,-3.463950157E0,7.429500222E-1,3.545820671E0
1.707811066E0,-6.079500318E-1,-2.736000061E0,9.730500579E-1,2.966837709E0
1.709774606E0,-9.529500604E-1,-2.122950077E0,1.318050027E0,2.674375950E0
1.711737950E0,-1.222050071E0,-1.509000063E0,1.548000097E0,2.483302613E0
1.713701363E0,-1.567050099E0,-1.011000037E0,1.816050053E0,2.603037626E0
1.715664202E0,-1.911000133E0,-3.979500234E-1,2.200050116E0,2.941174296E0
1.717627209E0,-2.332950115E0,6.105000153E-2,2.506050110E0,3.424422651E0
1.719590297E0,-2.640000105E0,5.209500194E-1,2.773950100E0,3.864684804E0
1.721553361E0,-2.985000134E0,1.018950105E0,2.773950100E0,4.200390966E0
1.723516782E0,-3.214950085E0,1.402950048E0,2.773950100E0,4.472021024E0
1.725480111E0,-3.367950201E0,1.824000120E0,2.659050226E0,4.662683037E0
1.727443686E0,-3.520950079E0,2.208000183E0,2.391000032E0,4.794709107E0
1.729407188E0,-3.636000156E0,2.551950216E0,2.161050081E0,4.939947823E0
1.731370508E0,-3.712950230E0,2.896950245E0,1.855050087E0,5.061573960E0
1.733333882E0,-3.675000191E0,3.127050161E0,1.585950017E0,5.079301780E0
1.735297433E0,-3.636000156E0,3.357000113E0,1.471050024E0,5.162744916E0
1.737260942E0,-3.520950079E0,3.549000263E0,1.356000066E0,5.179886920E0
1.739224531E0,-3.406050205E0,3.702000141E0,1.165050030E0,5.163654192E0
1.741188096E0,-3.253050089E0,3.817050219E0,1.087950110E0,5.131845934E0
1.743151945E0,-3.138000250E0,4.085999966E0,1.050000072E0,5.257845703E0
1.745115711E0,-2.985000134E0,4.162050247E0,1.050000072E0,5.228325564E0
1.747079359E0,-2.830950022E0,4.276950359E0,1.011000037E0,5.227686245E0
1.749043065E0,-2.716050148E0,4.392000198E0,1.087950110E0,5.277331673E0
1.751006394E0,-2.677950144E0,4.584000111E0,1.126049995E0,5.427012307E0
1.752969834E0,-2.601000071E0,4.699050426E0,1.203000069E0,5.503951802E0
1.754932894E0,-2.524950027E0,4.736999989E0,1.318050027E0,5.527368036E0
1.756896065E0,-2.485950232E0,4.890000343E0,1.432950020E0,5.669691144E0
1.758859731E0,-2.410050154E0,4.929000378E0,1.471050024E0,5.680437892E0
1.760823206E0,-2.371050119E0,5.005050182E0,1.471050024E0,5.730304893E0
1.762786710E0,-2.295000076E0,5.082000256E0,1.471050024E0,5.766952412E0
1.764750206E0,-2.218050003E0,5.119950294E0,1.548000097E0,5.790504394E0
1.766713932E0,-2.140950203E0,5.119950294E0,1.548000097E0,5.761411554E0
1.768677591E0,-2.065050125E0,5.044050217E0,1.548000097E0,5.665966723E0
1.770640963E0,-1.950000048E0,4.966950417E0,1.548000097E0,5.556023842E0
1.772604396E0,-1.873050094E0,4.890000343E0,1.548000097E0,5.460469239E0
1.774567772E0,-1.834950089E0,4.852050304E0,1.585950017E0,5.424451257E0
1.776531165E0,-1.795950055E0,4.813950062E0,1.585950017E0,5.377247368E0
1.778494592E0,-1.758000135E0,4.736999989E0,1.624950051E0,5.307560272E0
1.780458009E0,-1.795950055E0,4.699050426E0,1.548000097E0,5.263346446E0
1.782421718E0,-1.758000135E0,4.660050392E0,1.548000097E0,5.215643626E0
1.784385331E0,-1.795950055E0,4.468950272E0,1.510050058E0,5.047494855E0
1.786348677E0,-1.795950055E0,4.431000233E0,1.471050024E0,5.002318246E0
1.788312102E0,-1.758000135E0,4.354050159E0,1.432950020E0,4.909344460E0
1.790275345E0,-1.795950055E0,4.315950394E0,1.432950020E0,4.889397730E0
1.792238641E0,-1.720050097E0,4.239000320E0,1.318050027E0,4.760772198E0
1.794202074E0,-1.642950058E0,4.123950005E0,1.203000069E0,4.599288825E0
1.796165442E0,-1.605000019E0,4.123950005E0,1.087950110E0,4.557041161E0
1.798129010E0,-1.489950061E0,4.009050369E0,9.730500579E-1,4.386258367E0
1.800092519E0,-1.452000022E0,3.970950127E0,8.580000401E-1,4.314268541E0
1.802055838E0,-1.375050068E0,3.894000292E0,6.660000086E-1,4.183008125E0
1.804019213E0,-1.260000110E0,3.856050253E0,3.979500234E-1,4.076160945E0
1.805983208E0,-1.144950032E0,3.817050219E0,2.070000172E-1,3.990442576E0
1.807947004E0,-1.030050039E0,3.741000175E0,9.195000678E-2,3.881306507E0
1.809910499E0,-9.150000215E-1,3.741000175E0,-9.900000691E-2,3.852545698E0
1.811874083E0,-7.620000243E-1,3.625950098E0,-3.289500177E-1,3.719726638E0
1.813837208E0,-6.079500318E-1,3.625950098E0,-5.209500194E-1,3.713287799E0
1.815800468E0,-4.170000255E-1,3.549000263E0,-7.510500550E-1,3.651488474E0
1.817763727E0,-2.250000089E-1,3.319050074E0,-9.420000315E-1,3.457467636E0
1.819726963E0,-2.629500031E-1,2.782050133E0,-1.210950017E0,3.045545204E0
1.821690192E0,-3.400500119E-1,2.016000032E0,-1.441050053E0,2.501302740E0
1.823653424E0,-2.250000089E-1,1.210950017E0,-1.671000123E0,2.075877250E0
1.825617555E0,1.570500135E-1,1.759500057E-1,-1.632000089E0,1.648953426E0
1.827581422E0,5.020500422E-1,-4.740000367E-1,-1.479000092E0,1.632229013E0
1.829545265E0,8.089500666E-1,-9.730500579E-1,-1.516950130E0,1.975440286E0
1.831509116E0,1.077000022E0,-1.393950105E0,-1.479000092E0,2.300101566E0
1.833472060E0,1.230000019E0,-1.663050056E0,-1.441050053E0,2.520964258E0
1.835435270E0,1.345050097E0,-1.930950046E0,-1.479000092E0,2.779418844E0
1.837398549E0,1.575000048E0,-2.314050198E0,-1.441050053E0,3.148345394E0
1.839361807E0,1.843950033E0,-2.506050110E0,-1.441050053E0,3.428857555E0
1.841324835E0,2.149950027E0,-2.659050226E0,-1.479000092E0,3.725624041E0
1.843287944E0,2.380050182E0,-2.736000061E0,-1.516950130E0,3.930836158E0
1.845250970E0,2.494950056E0,-2.812050104E0,-1.555950046E0,4.068584780E0
1.847214021E0,2.764050245E0,-2.851050138E0,-1.516950130E0,4.250835018E0
1.849177462E0,2.878050089E0,-2.926950216E0,-1.671000123E0,4.431980516E0
1.851140788E0,3.108000040E0,-2.926950216E0,-1.747050047E0,4.612904257E0
1.853103878E0,3.223050117E0,-2.926950216E0,-1.747050047E0,4.691191053E0
1.855067031E0,3.415050268E0,-2.851050138E0,-1.824000120E0,4.808121428E0
1.857030049E0,3.568050146E0,-2.736000061E0,-1.786050081E0,4.838042277E0
1.858993107E0,3.645000219E0,-2.544000149E0,-1.786050081E0,4.790400636E0
1.860956007E0,3.721950293E0,-2.428950071E0,-1.708950043E0,4.761640755E0
1.862918954E0,3.798000097E0,-2.275950193E0,-1.594050050E0,4.705927069E0
1.864882265E0,3.798000097E0,-2.083950043E0,-1.441050053E0,4.565553392E0
1.866845446E0,3.682950258E0,-1.893000126E0,-1.249050021E0,4.325239651E0
1.868808686E0,3.645000219E0,-1.701000094E0,-1.018950105E0,4.149420108E0
1.870771908E0,3.568050146E0,-1.471050024E0,-7.510500550E-1,3.931799360E0
1.872735366E0,3.415050268E0,-1.279050112E0,-5.590500236E-1,3.689318969E0
1.874698754E0,3.300000191E0,-1.048950076E0,-2.910000086E-1,3.474906981E0
1.876662066E0,3.184950113E0,-8.580000401E-1,-1.369500011E-1,3.301337092E0
1.878625420E0,3.070050240E0,-6.280500293E-1,9.195000678E-2,3.134981677E0
1.880587909E0,2.955000162E0,-5.130000114E-1,2.830500007E-1,3.012525896E0
1.882550651E0,2.839950085E0,-3.589500189E-1,4.360500276E-1,2.895565787E0
1.884513965E0,2.725050211E0,-2.440500110E-1,5.509500504E-1,2.790878897E0
1.886477111E0,2.725050211E0,-1.680000126E-1,6.660000086E-1,2.810280888E0
1.888440565E0,2.649000168E0,-1.290000081E-1,7.810500264E-1,2.764757139E0
1.890403908E0,2.610000134E0,-1.290000081E-1,6.660000086E-1,2.696719806E0
1.892367165E0,2.533950090E0,-9.105000645E-2,6.660000086E-1,2.621592870E0
1.894330448E0,2.533950090E0,-5.295000225E-2,5.899500251E-1,2.602258211E0
1.896292904E0,2.457000017E0,2.295000106E-2,6.660000086E-1,2.545767428E0
1.898255602E0,2.419050217E0,2.295000106E-2,6.660000086E-1,2.509160550E0
1.900218967E0,2.341950178E0,2.295000106E-2,6.660000086E-1,2.434915471E0
1.902182106E0,2.341950178E0,2.295000106E-2,6.280500293E-1,2.424810133E0
1.904145578E0,2.304000139E0,2.295000106E-2,5.899500251E-1,2.378441586E0
1.906108952E0,2.227050066E0,-1.500000060E-2,5.509500504E-1,2.294236900E0
1.908072159E0,2.188950062E0,2.295000106E-2,5.509500504E-1,2.257338041E0
1.910035415E0,2.074050188E0,2.295000106E-2,5.130000114E-1,2.136674963E0
1.911998956E0,2.035050154E0,6.105000153E-2,5.130000114E-1,2.099601210E0
1.913962413E0,1.959000111E0,6.105000153E-2,5.130000114E-1,2.025975703E0
1.915925606E0,1.996950150E0,6.105000153E-2,5.130000114E-1,2.062693873E0
1.917888877E0,1.843950033E0,9.900000691E-2,4.750500321E-1,1.906731565E0
1.919852100E0,1.767000079E0,9.900000691E-2,4.750500321E-1,1.832419934E0
1.921815338E0,1.690050125E0,9.900000691E-2,3.979500234E-1,1.739090178E0
1.923778267E0,1.614000082E0,1.380000114E-1,3.979500234E-1,1.668054103E0
1.925741276E0,1.459950089E0,1.380000114E-1,3.220500052E-1,1.501404167E0
1.927705084E0,1.384050012E0,1.759500057E-1,2.830500007E-1,1.423611654E0
1.929668658E0,1.306950092E0,1.759500057E-1,2.070000172E-1,1.334887994E0
1.931631651E0,1.269000053E0,1.759500057E-1,2.070000172E-1,1.297755195E0
1.933594814E0,1.230000019E0,1.759500057E-1,1.300500035E-1,1.249308391E0
1.935557900E0,1.114950061E0,2.530499995E-1,5.295000225E-2,1.144531189E0
1.937520992E0,1.039050102E0,2.530499995E-1,-6.105000153E-2,1.071161295E0
1.939484561E0,1.000050068E0,2.140500098E-1,-1.369500011E-1,1.031829854E0
1.941447990E0,8.850000501E-1,2.140500098E-1,-1.759500057E-1,9.273623347E-1
1.943411233E0,8.470500112E-1,2.140500098E-1,-2.910000086E-1,9.208648832E-1
1.945374530E0,7.699500322E-1,2.530499995E-1,-2.910000086E-1,8.611262157E-1
1.947337695E0,7.320000529E-1,2.910000086E-1,-3.289500177E-1,8.536469977E-1
1.949300906E0,7.699500322E-1,2.530499995E-1,-2.910000086E-1,8.611262157E-1
1.951264005E0,7.320000529E-1,2.530499995E-1,-3.670500219E-1,8.570788168E-1
1.953227137E0,7.320000529E-1,2.530499995E-1,-4.819500148E-1,9.122138984E-1
1.955190383E0,6.940500140E-1,3.289500177E-1,-4.440000355E-1,8.871581413E-1
1.957153596E0,7.320000529E-1,2.910000086E-1,-4.440000355E-1,9.042350989E-1
1.959116786E0,6.940500140E-1,2.140500098E-1,-4.440000355E-1,8.512689705E-1
1.961079983E0,6.550500393E-1,1.759500057E-1,-4.440000355E-1,8.106694703E-1
1.963042363E0,5.410500169E-1,1.759500057E-1,-5.209500194E-1,7.714158722E-1
1.965004983E0,5.020500422E-1,1.380000114E-1,-5.209500194E-1,7.365372840E-1
1.966968273E0,4.639500082E-1,1.380000114E-1,-5.590500236E-1,7.394799132E-1
1.968931366E0,3.870000243E-1,9.900000691E-2,-6.739500165E-1,7.834402625E-1
1.970894436E0,3.870000243E-1,9.900000691E-2,-7.120500207E-1,8.164467234E-1
1.972857516E0,3.109500110E-1,2.295000106E-2,-7.890000343E-1,8.483735416E-1
1.974821132E0,2.340000123E-1,-5.295000225E-2,-8.269500136E-1,8.610493793E-1
1.976784591E0,1.960500032E-1,-1.290000081E-1,-8.659500480E-1,8.971878797E-1
1.978747649E0,1.189500093E-1,-1.680000126E-1,-7.510500550E-1,7.787485436E-1
1.980710824E0,4.050000105E-3,-2.830500007E-1,-6.739500165E-1,7.309872298E-1
1.982674183E0,-7.200000435E-2,-4.360500276E-1,-4.819500148E-1,6.539108838E-1
1.984637499E0,-7.200000435E-2,-6.660000086E-1,-2.520000041E-1,7.157122425E-1
1.986600762E0,-1.480500102E-1,-9.340500236E-1,-9.900000691E-2,9.508781486E-1
1.988564040E0,-1.480500102E-1,-1.240950108E0,9.195000678E-2,1.253128397E0
1.990527037E0,-1.099500060E-1,-1.548000097E0,2.070000172E-1,1.565644376E0
1.992490117E0,1.189500093E-1,-1.893000126E0,2.830500007E-1,1.917737178E0
1.994452472E0,2.340000123E-1,-2.238000154E0,4.750500321E-1,2.299798520E0
1.996415040E0,3.109500110E-1,-2.620950222E0,6.280500293E-1,2.713027242E0
1.998378203E0,3.109500110E-1,-2.889000177E0,7.429500222E-1,2.999164329E0
2.000341192E0,3.870000243E-1,-3.271950245E0,8.959500194E-1,3.414403881E0
2.002304464E0,3.109500110E-1,-3.655950069E0,8.200500607E-1,3.759673247E0
2.004267653E0,2.719500065E-1,-4.192049980E0,8.200500607E-1,4.280154430E0
2.006231612E0,2.340000123E-1,-4.729050159E0,6.280500293E-1,4.776308015E0
2.008195346E0,1.960500032E-1,-5.419050217E0,2.830500007E-1,5.429977731E0
2.010158356E0,4.200000316E-2,-6.184950352E0,-1.369500011E-1,6.186608938E0
2.012121578E0,-3.299999982E-2,-6.952050209E0,-5.590500236E-1,6.974570097E0
2.014084809E0,-2.250000089E-1,-7.833000183E0,-8.269500136E-1,7.879743854E0
2.016048038E0,-4.930500090E-1,-8.791950226E0,-1.134000063E0,8.878482034E0
2.018011269E0,-7.999500632E-1,-9.750000000E0,-1.210950017E0,9.857424615E0
2.019974500E0,-1.642950058E0,-1.005600071E1,-1.249050021E0,1.026560086E1
2.021937506E0,-2.103000164E0,-1.097595024E1,-1.287000060E0,1.124946499E1
2.023900578E0,-2.371050119E0,-1.224105072E1,-1.326000094E0,1.253887864E1
2.025863655E0,-2.640000105E0,-1.385100079E1,-1.786050081E0,1.421301510E1
2.027826730E0,-2.985000134E0,-1.580505085E1,-2.629050016E0,1.629790668E1
2.029789692E0,-3.406050205E0,-1.791300011E1,-3.970050097E0,1.866113739E1
2.031752674E0,-4.018949986E0,-2.055795097E1,-5.542050362E0,2.166784783E1
2.033715542E0,-4.900950432E0,-2.381595039E1,-6.844950199E0,2.526009009E1
2.035678444E0,-6.241950512E0,-2.764905167E1,-8.032950401E0,2.946116590E1
2.037641415E0,-7.699050426E0,-3.163500214E1,-9.067950249E0,3.379758067E1
2.039604365E0,-8.427000046E0,-3.512295151E1,-9.451050758E0,3.733575247E1
2.041567604E0,-8.772000313E0,-3.807405090E1,-8.722949982E0,4.003337605E1
2.043530754E0,-9.462000847E0,-4.248105240E1,-7.726050377E0,4.420250137E1
2.045493999E0,-9.346950531E0,-4.727205276E1,-6.499950409E0,4.862367543E1
2.047457216E0,-7.891050339E0,-5.206305313E1,-6.307950497E0,5.303414387E1
2.049420135E0,-5.590950489E0,-5.666295242E1,-6.346950531E0,5.729077313E1
2.051383141E0,-2.410050154E0,-6.007395172E1,-5.427000046E0,6.036671555E1
2.053347477E0,1.960500032E-1,-6.271800232E1,-3.817050219E0,6.283435464E1
2.055311433E0,2.304000139E0,-6.498000336E1,-1.900950074E0,6.504861923E1
2.057273774E0,4.219950199E0,-6.632100677E1,1.087950110E0,6.646403204E1
2.059236589E0,6.175050259E0,-6.812295532E1,3.081000090E0,6.847160615E1
2.061199890E0,8.053050041E0,-6.858300018E1,5.074050426E0,6.924034602E1
2.063163048E0,9.700950623E0,-6.735600281E1,8.254950523E0,6.854986335E1
2.065126351E0,1.111905098E1,-6.478800201E1,1.151295090E1,6.673579653E1
2.067089601E0,1.165605068E1,-6.030405426E1,1.454100037E1,6.311800987E1
2.069052604E0,1.196205044E1,-5.536005402E1,1.638105011E1,5.895901147E1
2.071015680E0,1.246005058E1,-5.079900360E1,1.592100048E1,5.467421589E1
2.072978622E0,1.230705070E1,-4.662105179E1,1.396605110E1,5.019996564E1
2.074941603E0,1.180905056E1,-4.278795242E1,1.105305099E1,4.574311406E1
2.076904485E0,1.127205086E1,-3.979905319E1,7.834050179E0,4.209983501E1
2.078867386E0,1.054395008E1,-3.715395355E1,5.188950062E0,3.896814533E1
2.080830672E0,9.777000427E0,-3.508395004E1,3.196050167E0,3.656074431E1
2.082793845E0,9.241050720E0,-3.351300049E1,1.893000126E0,3.481525053E1
2.084756771E0,8.551050186E0,-3.244005203E1,1.356000066E0,3.357552935E1
2.086719770E0,7.899000168E0,-3.167295074E1,8.959500194E-1,3.265536310E1
2.088683206E0,7.095000267E0,-3.121305084E1,6.280500293E-1,3.201543407E1
2.090646524E0,6.289950371E0,-3.094500160E1,5.130000114E-1,3.158195321E1
2.092610461E0,5.293050289E0,-3.071505165E1,3.220500052E-1,3.116944811E1
2.094574216E0,4.372950077E0,-3.033195114E1,9.195000678E-2,3.064569150E1
2.096537673E0,3.262050152E0,-2.994795227E1,-2.205000073E-2,3.012509423E1
2.098501218E0,2.380050182E0,-2.956500053E1,-2.520000041E-1,2.966171606E1
2.100464615E0,1.651950121E0,-2.906700134E1,-7.120500207E-1,2.912261186E1
2.102428059E0,1.192050099E0,-2.872200203E1,-9.420000315E-1,2.876215827E1
2.104391253E0,9.619500637E-1,-2.841495132E1,-1.096050024E0,2.845234845E1
2.106354521E0,7.699500322E-1,-2.799405098E1,-1.210950017E0,2.803080650E1
2.108317565E0,6.169500351E-1,-2.761005211E1,-1.210950017E0,2.764348033E1
2.110280675E0,8.470500112E-1,-2.741895103E1,-1.441050053E0,2.746985611E1
2.112243880E0,1.077000022E0,-2.722695160E1,-1.708950043E0,2.730178259E1
2.114207057E0,1.345050097E0,-2.688195038E1,-1.977000117E0,2.698808895E1
2.116170118E0,1.690050125E0,-2.661405182E1,-2.130000114E0,2.675258724E1
2.118133213E0,1.959000111E0,-2.626905060E1,-2.322000027E0,2.644413706E1
2.120096466E0,2.380050182E0,-2.603895187E1,-2.398950100E0,2.625731546E1
2.122059673E0,2.686950207E0,-2.569395065E1,-2.359950066E0,2.594162998E1
2.124022918E0,2.802000046E0,-2.534895134E1,-2.245050192E0,2.560196845E1
2.125986144E0,3.108000040E0,-2.511900139E1,-1.939050078E0,2.538471608E1
2.127949061E0,3.415050268E0,-2.485095024E1,-1.708950043E0,2.514264915E1
2.129912069E0,3.607050180E0,-2.458200073E1,-1.402050018E0,2.488476070E1
2.131875292E0,3.721950293E0,-2.427600098E1,-1.096050024E0,2.458410997E1
2.133838452E0,3.837000132E0,-2.385405159E1,-7.510500550E-1,2.417234832E1
2.135801516E0,3.913050175E0,-2.343300056E1,-6.360000372E-1,2.376598353E1
2.137764608E0,3.874950171E0,-2.297295189E1,-4.440000355E-1,2.330169293E1
2.139727682E0,3.913050175E0,-2.255100060E1,-3.670500219E-1,2.289092211E1
2.141690762E0,3.913050175E0,-2.212995148E1,-1.369500011E-1,2.247366168E1
2.143653838E0,3.913050175E0,-2.170800018E1,1.300500035E-1,2.205824441E1
2.145616915E0,3.874950171E0,-2.128605080E1,2.830500007E-1,2.163772896E1
2.147579076E0,3.837000132E0,-2.086500168E1,3.220500052E-1,2.121731796E1
2.149541516E0,3.721950293E0,-2.029005051E1,5.509500504E-1,2.063595429E1
2.151504566E0,3.607050180E0,-1.979205132E1,6.660000086E-1,2.012907505E1
2.153467437E0,3.529950142E0,-1.914000130E1,6.280500293E-1,1.947292080E1
2.155430549E0,3.568050146E0,-1.856505013E1,7.429500222E-1,1.891940915E1
2.157393591E0,3.453000069E0,-1.791300011E1,7.050000429E-1,1.825639086E1
2.159356859E0,3.337950230E0,-1.722405052E1,8.959500194E-1,1.756737187E1
2.161320057E0,3.262050152E0,-1.641900063E1,7.429500222E-1,1.675638766E1
2.163283114E0,3.147000074E0,-1.561395073E1,8.200500607E-1,1.594902972E1
2.165246213E0,2.917050123E0,-1.473195076E1,8.200500607E-1,1.504034696E1
2.167209601E0,2.725050211E0,-1.388895035E1,7.810500264E-1,1.417529116E1
2.169172904E0,2.533950090E0,-1.293105030E1,7.429500222E-1,1.319791422E1
2.171135938E0,2.341950178E0,-1.193400097E1,6.280500293E-1,1.217783054E1
2.173099054E0,2.074050188E0,-1.086105061E1,6.660000086E-1,1.107734898E1
2.175062889E0,1.690050125E0,-9.826050758E0,4.360500276E-1,9.979863855E0
2.177026514E0,1.345050097E0,-8.791950226E0,1.680000126E-1,8.895828941E0
2.178988777E0,9.619500637E-1,-7.795050144E0,5.295000225E-2,7.854359196E0
2.180951439E0,5.020500422E-1,-6.760050297E0,5.295000225E-2,6.778874388E0
2.182913062E0,4.200000316E-2,-5.839950085E0,2.070000172E-1,5.843768476E0
2.184875016E0,-4.170000255E-1,-4.996950150E0,4.360500276E-1,5.033243432E0
2.186837969E0,-9.529500604E-1,-4.116000175E0,6.280500293E-1,4.271301687E0
2.188800630E0,-1.375050068E0,-3.310950041E0,9.349500537E-1,3.705035015E0
2.190763733E0,-1.758000135E0,-2.736000061E0,1.165050030E0,3.454504651E0
2.192726707E0,-2.065050125E0,-2.199000120E0,1.471050024E0,3.356191550E0
2.194689496E0,-2.332950115E0,-1.701000094E0,1.701000094E0,3.351038478E0
2.196652333E0,-2.601000071E0,-1.240950108E0,1.969950080E0,3.490825383E0
2.198615225E0,-2.908050060E0,-7.810500264E-1,2.046000004E0,3.640454685E0
2.200578100E0,-3.330000162E0,-2.830500007E-1,1.893000126E0,3.840894148E0
2.202539951E0,-3.636000156E0,6.105000153E-2,1.701000094E0,4.014676271E0
2.204502102E0,-3.751050234E0,4.830000103E-1,1.510050058E0,4.072335699E0
2.206464972E0,-3.904950142E0,9.430500269E-1,1.318050027E0,4.227911404E0
2.208427634E0,-4.018949986E0,1.288050056E0,1.011000037E0,4.339718079E0
2.210390647E0,-4.096050262E0,1.633050084E0,5.509500504E-1,4.443875143E0
2.212353557E0,-4.210950375E0,2.016000032E0,4.750500321E-1,4.692763761E0
2.214317744E0,-4.249050140E0,2.284050226E0,2.449500114E-1,4.830249791E0
2.216281557E0,-4.210950375E0,2.514000177E0,1.680000126E-1,4.907191045E0
2.218244450E0,-4.057950020E0,2.667000055E0,1.680000126E-1,4.858813812E0
2.220207622E0,-4.057950020E0,2.859000206E0,-2.205000073E-2,4.964003097E0
2.222170683E0,-4.018949986E0,3.166050196E0,-6.105000153E-2,5.116596518E0
2.224133776E0,-4.018949986E0,3.396000147E0,-6.105000153E-2,5.261986610E0
2.226096715E0,-4.018949986E0,3.702000141E0,-2.205000073E-2,5.464178825E0
2.228059699E0,-3.981000185E0,3.894000292E0,5.295000225E-2,5.569057770E0
2.230022022E0,-3.981000185E0,4.123950005E0,1.680000126E-1,5.734418028E0
2.231984541E0,-3.904950142E0,4.354050159E0,3.600000143E-1,5.859691836E0
2.233947758E0,-3.943050146E0,4.545000076E0,6.660000086E-1,6.053777842E0
2.235910770E0,-3.865950108E0,4.774950027E0,1.011000037E0,6.226382503E0
2.237873858E0,-3.865950108E0,4.929000378E0,1.356000066E0,6.409317525E0
2.239836924E0,-3.828000069E0,5.119950294E0,1.548000097E0,6.577520798E0
2.241799954E0,-3.751050234E0,5.274000168E0,1.893000126E0,6.743063481E0
2.243762998E0,-3.751050234E0,5.503950119E0,2.275950193E0,7.038735259E0
2.245726079E0,-3.751050234E0,5.656950474E0,2.698050022E0,7.304172810E0
2.247689149E0,-3.675000191E0,5.695050240E0,2.928000212E0,7.383251917E0
2.249652048E0,-3.520950079E0,5.772000313E0,3.157950163E0,7.462286935E0
2.251614998E0,-3.367950201E0,5.734050274E0,3.310950041E0,7.428648011E0
2.253577776E0,-3.138000250E0,5.656950474E0,3.426000118E0,7.320219330E0
2.255540608E0,-3.022950172E0,5.695050240E0,3.463950157E0,7.319205945E0
2.257503861E0,-2.755050182E0,5.695050240E0,3.579000235E0,7.268640961E0
2.259466991E0,-2.524950027E0,5.656950474E0,3.463950157E0,7.097563807E0
2.261429564E0,-2.256000042E0,5.464950085E0,3.273000240E0,6.757791517E0
2.263392300E0,-2.026050091E0,5.389050484E0,3.234000206E0,6.603446177E0
2.265355429E0,-1.758000135E0,5.311950207E0,3.118950129E0,6.405874599E0
2.267318447E0,-1.489950061E0,5.158950329E0,2.851050138E0,6.079737377E0
2.269281355E0,-1.222050071E0,5.044050217E0,2.620950222E0,5.814226434E0
2.271244295E0,-9.919500351E-1,4.966950417E0,2.391000032E0,5.601021556E0
2.273206990E0,-7.230000496E-1,4.736999989E0,2.046000004E0,5.210375608E0
2.275169757E0,-5.320500135E-1,4.660050392E0,1.777950048E0,5.015999726E0
2.277132706E0,-3.019500077E-1,4.507050037E0,1.585950017E0,4.787474418E0
2.279095601E0,-3.299999982E-2,4.392000198E0,1.432950020E0,4.619967587E0
2.281058395E0,1.960500032E-1,4.354050159E0,1.318050027E0,4.553399199E0
2.283021218E0,3.870000243E-1,4.201050282E0,1.050000072E0,4.347538687E0
2.284985419E0,6.169500351E-1,4.085999966E0,8.200500607E-1,4.212897479E0
2.286949216E0,8.470500112E-1,4.009050369E0,7.050000429E-1,4.157764260E0
2.288913076E0,1.039050102E0,3.931950092E0,4.360500276E-1,4.090231811E0
2.290876914E0,1.192050099E0,3.894000292E0,2.070000172E-1,4.077630528E0
2.292839681E0,1.306950092E0,3.778950214E0,1.500000060E-2,3.998600789E0
2.294802762E0,1.384050012E0,3.625950098E0,-1.759500057E-1,3.885108358E0
2.296765477E0,1.575000048E0,3.586950064E0,-4.060500264E-1,3.938491149E0
2.298728300E0,1.804950118E0,3.549000263E0,-5.590500236E-1,4.020669686E0
2.300691065E0,1.996950150E0,3.511050224E0,-7.120500207E-1,4.101499581E0
2.302653844E0,2.227050066E0,3.357000113E0,-9.040500522E-1,4.128741727E0
2.304616746E0,2.494950056E0,3.204000235E0,-9.420000315E-1,4.168663736E0
2.306579611E0,2.802000046E0,2.896950245E0,-9.810000658E-1,4.147997843E0
2.308542544E0,3.223050117E0,2.437050104E0,-1.018950105E0,4.167196250E0
2.310505457E0,3.760050297E0,1.594050050E0,-9.810000658E-1,4.200158917E0
2.312468372E0,3.952050209E0,7.890000343E-1,-7.510500550E-1,4.099426557E0
2.314431293E0,3.837000132E0,9.900000691E-2,-5.970000029E-1,3.884427888E0
2.316394758E0,3.760050297E0,-3.210000098E-1,-4.440000355E-1,3.799757265E0
2.318358063E0,3.682950258E0,-8.580000401E-1,-4.060500264E-1,3.803309519E0
2.320320561E0,3.682950258E0,-1.279050112E0,-4.060500264E-1,3.919817396E0
2.322283295E0,3.568050146E0,-1.548000097E0,-4.060500264E-1,3.910519501E0
2.324246231E0,3.492000103E0,-1.816050053E0,-4.819500148E-1,3.965397626E0
2.326209121E0,3.376950264E0,-2.122950077E0,-4.440000355E-1,4.013458128E0
2.328172230E0,3.376950264E0,-2.351999998E0,-5.590500236E-1,4.153099325E0
2.330135274E0,3.262050152E0,-2.544000149E0,-5.970000029E-1,4.179631198E0
2.332098357E0,3.184950113E0,-2.736000061E0,-6.739500165E-1,4.252506576E0
2.334061428E0,3.147000074E0,-2.736000061E0,-7.890000343E-1,4.244034267E0
2.336024546E0,3.070050240E0,-2.659050226E0,-9.420000315E-1,4.169306973E0
2.337987654E0,2.992950201E0,-2.697000027E0,-1.096050024E0,4.175270734E0
2.339950727E0,2.992950201E0,-2.736000061E0,-1.134000063E0,4.210629808E0
2.341913810E0,2.917050123E0,-2.659050226E0,-1.249050021E0,4.140030855E0
2.343876886E0,2.802000046E0,-2.544000149E0,-1.402050018E0,4.035949116E0
2.345839964E0,2.725050211E0,-2.428950071E0,-1.516950130E0,3.953079154E0
2.347802962E0,2.610000134E0,-2.275950193E0,-1.708950043E0,3.861678421E0
2.349766007E0,2.533950090E0,-2.122950077E0,-1.747050047E0,3.738984348E0
2.351728909E0,2.419050217E0,-1.969050050E0,-1.824000120E0,3.613300221E0
2.353691853E0,2.304000139E0,-1.777950048E0,-1.861950040E0,3.454906796E0
2.355655132E0,2.227050066E0,-1.624050021E0,-1.824000120E0,3.305187878E0
2.357618312E0,2.111999989E0,-1.471050024E0,-1.824000120E0,3.154601173E0
2.359581358E0,2.074050188E0,-1.318050027E0,-1.861950040E0,3.083147419E0
2.361544454E0,1.996950150E0,-1.203000069E0,-1.786050081E0,2.936834002E0
2.363507572E0,1.959000111E0,-9.340500236E-1,-1.708950043E0,2.762361513E0
2.365470683E0,1.920000076E0,-7.810500264E-1,-1.594050050E0,2.614848944E0
2.367433890E0,1.882050037E0,-5.509500504E-1,-1.516950130E0,2.479273281E0
2.369397068E0,1.843950033E0,-4.740000367E-1,-1.402050018E0,2.364439048E0
2.371359996E0,1.804950118E0,-2.830500007E-1,-1.249050021E0,2.213162485E0
2.373322964E0,1.767000079E0,-1.680000126E-1,-1.171950102E0,2.126965050E0
2.375285924E0,1.690050125E0,-1.290000081E-1,-1.057050109E0,1.997564858E0
2.377248887E0,1.614000082E0,-1.500000060E-2,-9.810000658E-1,1.888804488E0
2.379211262E0,1.537050128E0,9.900000691E-2,-8.269500136E-1,1.748190614E0
2.381173810E0,1.498950124E0,2.140500098E-1,-6.739500165E-1,1.657370660E0
2.383136772E0,1.422000051E0,2.910000086E-1,-5.590500236E-1,1.555410582E0
2.385099630E0,1.345050097E0,3.289500177E-1,-4.819500148E-1,1.466166325E0
2.387062745E0,1.306950092E0,3.289500177E-1,-3.670500219E-1,1.396800765E0
2.389025784E0,1.306950092E0,4.440000355E-1,-2.910000086E-1,1.410650765E0
2.390988823E0,1.306950092E0,4.830000103E-1,-1.759500057E-1,1.404409470E0
2.392951862E0,1.269000053E0,4.830000103E-1,-2.910000086E-1,1.388643637E0
2.394914945E0,1.269000053E0,5.209500194E-1,-4.819500148E-1,1.453969008E0
2.396878015E0,1.269000053E0,5.209500194E-1,-4.060500264E-1,1.430603608E0
2.398841138E0,1.230000019E0,4.830000103E-1,-2.520000041E-1,1.345248326E0
2.400804246E0,1.192050099E0,4.830000103E-1,-2.520000041E-1,1.310639711E0
2.402767678E0,1.230000019E0,4.440000355E-1,-6.105000153E-2,1.309107781E0
2.404731015E0,1.192050099E0,4.440000355E-1,-2.205000073E-2,1.272244345E0
2.406694358E0,1.153950095E0,4.060500264E-1,9.195000678E-2,1.226756801E0
2.408657702E0,1.114950061E0,3.289500177E-1,1.300500035E-1,1.169715673E0
2.410620239E0,1.114950061E0,2.910000086E-1,2.070000172E-1,1.170744913E0
2.412583012E0,1.153950095E0,3.289500177E-1,3.220500052E-1,1.242386873E0
2.414546095E0,1.039050102E0,5.980500579E-1,3.220500052E-1,1.241372302E0
2.416509087E0,9.619500637E-1,5.590500236E-1,4.360500276E-1,1.194999783E0
2.418472539E0,8.470500112E-1,4.830000103E-1,4.360500276E-1,1.068139672E0
2.420435856E0,8.089500666E-1,4.830000103E-1,5.130000114E-1,1.072780608E0
2.422399073E0,6.550500393E-1,4.060500264E-1,6.280500293E-1,9.941901313E-1
2.424362320E0,6.169500351E-1,2.530499995E-1,7.429500222E-1,9.983167752E-1
2.426324692E0,5.410500169E-1,2.530499995E-1,7.810500264E-1,9.832642406E-1
2.428287320E0,4.260000288E-1,1.380000114E-1,8.200500607E-1,9.343458299E-1
2.430250629E0,3.490500152E-1,9.900000691E-2,9.730500579E-1,1.038490890E0
2.432213755E0,2.340000123E-1,6.105000153E-2,1.087950110E0,1.114503724E0
2.434177139E0,8.100000024E-2,2.295000106E-2,1.126049995E0,1.129192762E0
2.436140447E0,4.050000105E-3,6.105000153E-2,1.203000069E0,1.204554968E0
2.438104025E0,-7.200000435E-2,9.900000691E-2,1.279950023E0,1.285790443E0
2.440067524E0,-2.250000089E-1,6.105000153E-2,1.395000100E0,1.414346982E0
2.442030941E0,-6.079500318E-1,6.105000153E-2,1.471050024E0,1.592896267E0
2.443994378E0,-7.620000243E-1,2.295000106E-2,1.510050058E0,1.691573799E0
2.445958789E0,-9.919500351E-1,-9.105000645E-2,1.510050058E0,1.809006953E0
2.447922914E0,-1.144950032E0,-1.680000126E-1,1.510050058E0,1.902468333E0
2.449886173E0,-1.260000110E0,-1.290000081E-1,1.548000097E0,2.000136390E0
2.451849685E0,-1.375050068E0,-9.105000645E-2,1.510050058E0,2.044334604E0
2.453812197E0,-1.375050068E0,-1.500000060E-2,1.585950017E0,2.099101033E0
2.455774998E0,-1.260000110E0,9.900000691E-2,1.740000129E0,2.150581718E0
2.457738302E0,-1.144950032E0,6.105000153E-2,1.816050053E0,2.147714011E0
2.459701458E0,-9.529500604E-1,6.105000153E-2,1.855050087E0,2.086396833E0
2.461664656E0,-7.999500632E-1,6.105000153E-2,1.930950046E0,2.090984286E0
2.463627842E0,-6.469500065E-1,2.295000106E-2,1.893000126E0,2.000630023E0
2.465591943E0,-6.079500318E-1,-9.105000645E-2,1.969950080E0,2.063636756E0
2.467555803E0,-5.320500135E-1,-1.290000081E-1,1.969950080E0,2.044607918E0
2.469518611E0,-5.700000525E-1,-1.680000126E-1,2.085000038E0,2.168028880E0
2.471481728E0,-5.700000525E-1,-3.979500234E-1,2.008050203E0,2.124977623E0
2.473444977E0,-5.700000525E-1,-7.810500264E-1,1.740000129E0,1.990612883E0
2.475408188E0,-6.469500065E-1,-9.340500236E-1,1.930950046E0,2.240437867E0
2.477371446E0,-7.999500632E-1,-1.164000034E0,1.969950080E0,2.423947091E0
2.479334673E0,-8.380500674E-1,-1.393950105E0,2.085000038E0,2.644361921E0
2.481297905E0,-1.030050039E0,-1.701000094E0,2.161050081E0,2.936757031E0
2.483261135E0,-1.144950032E0,-2.046000004E0,2.046000004E0,3.111774832E0
2.485224187E0,-1.375050068E0,-2.467050076E0,2.008050203E0,3.465452984E0
2.487187291E0,-1.528050065E0,-2.926950216E0,1.816050053E0,3.768290377E0
2.489150713E0,-1.681950092E0,-3.426000118E0,1.624950051E0,4.148119525E0
2.491114048E0,-1.834950089E0,-3.961950302E0,1.471050024E0,4.607394079E0
2.493077262E0,-2.103000164E0,-4.461000443E0,1.432950020E0,5.135803773E0
2.495040512E0,-2.410050154E0,-4.882050037E0,1.240950108E0,5.584148232E0
2.497003918E0,-2.640000105E0,-5.341950417E0,1.087950110E0,6.057199869E0
2.498967279E0,-2.946000099E0,-5.878950119E0,1.087950110E0,6.665178657E0
2.500930644E0,-3.100050211E0,-6.529950142E0,1.050000072E0,7.304317923E0
2.502894024E0,-3.330000162E0,-7.335000515E0,1.050000072E0,8.123646582E0
2.504857231E0,-3.520950079E0,-8.254950523E0,8.959500194E-1,9.019092196E0
2.506820488E0,-3.751050234E0,-9.213000298E0,4.750500321E-1,9.958685901E0
2.508784029E0,-3.943050146E0,-1.036305046E1,-9.900000691E-2,1.108829384E1
2.510747486E0,-4.363950253E0,-1.178100014E1,-8.269500136E-1,1.259046752E1
2.512710503E0,-4.786050320E0,-1.346700096E1,-1.708950043E0,1.439398843E1
2.514673646E0,-5.245950222E0,-1.542195034E1,-2.859000206E0,1.653875534E1
2.516637251E0,-5.935950279E0,-1.772205162E1,-3.894000292E0,1.909109367E1
2.518600721E0,-6.931950092E0,-2.082600021E1,-5.082000256E0,2.253000097E1
2.520563777E0,-7.852050304E0,-2.462100029E1,-6.423000336E0,2.662899327E1
2.522526954E0,-8.656949997E0,-2.868405151E1,-7.918050289E0,3.099053267E1
2.524490368E0,-8.964000702E0,-3.251595306E1,-9.565950394E0,3.505920591E1
2.526453716E0,-8.464950562E0,-3.596595001E1,-1.044795036E1,3.839745584E1
2.528416568E0,-7.699050426E0,-4.010505295E1,-1.106100082E1,4.230882164E1
2.530379565E0,-6.778950214E0,-4.474305344E1,-1.094595051E1,4.655866009E1
2.532343015E0,-5.437950134E0,-4.911195374E1,-9.373950005E0,5.029340156E1
2.534306332E0,-2.908050060E0,-5.352000427E1,-7.803000450E0,5.416395876E1
2.536270438E0,1.269000053E0,-5.765895462E1,-7.458000183E0,5.815313556E1
2.538234289E0,5.331000328E0,-6.011205292E1,-7.113000393E0,6.076572426E1
2.540197640E0,8.743050575E0,-6.064905167E1,-5.503050327E0,6.152261344E1
2.542161137E0,1.134900093E1,-5.992095184E1,-3.319050074E0,6.107647980E1
2.544124502E0,1.353405094E1,-5.923095322E1,-1.671000123E0,6.078049519E1
2.546087906E0,1.514295101E1,-5.804205322E1,2.830500007E-1,5.998557347E1
2.548050585E0,1.587195110E1,-5.624100113E1,2.008050203E0,5.847222679E1
2.550013463E0,1.610205078E1,-5.378805161E1,4.729050159E0,5.634531436E1
2.551977248E0,1.579500103E1,-5.125905228E1,7.872000217E0,5.421199946E1
2.553940768E0,1.525800037E1,-4.926495361E1,1.051695061E1,5.263504992E1
2.555903996E0,1.453005028E1,-4.685100174E1,1.247100067E1,5.061288949E1
2.557867309E0,1.357200050E1,-4.451295090E1,1.385100079E1,4.855360149E1
2.559830497E0,1.253700066E1,-4.232805252E1,1.392795086E1,4.629069270E1
2.561793742E0,1.142595100E1,-4.033500290E1,1.289295101E1,4.385992477E1
2.563756971E0,1.046700096E1,-3.838005066E1,1.124505043E1,4.134050746E1
2.565720204E0,9.508950233E0,-3.673200226E1,9.175050735E0,3.903641480E1
2.567683389E0,8.704050064E0,-3.531405258E1,6.952050209E0,3.702936402E1
2.569646589E0,7.938000202E0,-3.412605286E1,4.614000320E0,3.533961417E1
2.571609689E0,7.095000267E0,-3.305295181E1,2.353049994E0,3.388765995E1
2.573572819E0,6.405000210E0,-3.247800064E1,9.730500579E-1,3.311784081E1
2.575536742E0,5.523000240E0,-3.186495209E1,-2.140500098E-1,3.234075634E1
2.577500433E0,4.756950378E0,-3.148095131E1,-1.134000063E0,3.185851265E1
2.579463406E0,3.874950171E0,-3.102195168E1,-1.900950074E0,3.132076525E1
2.581426589E0,3.031950235E0,-3.060000229E1,-2.475000143E0,3.084928667E1
2.583390043E0,2.341950178E0,-3.029295158E1,-2.935050249E0,3.052477954E1
2.585353424E0,1.767000079E0,-3.006300163E1,-3.049950123E0,3.026893708E1
2.587316405E0,1.306950092E0,-2.968005180E1,-3.088950157E0,2.986896729E1
2.589279503E0,1.039050102E0,-2.937300110E1,-3.088950157E0,2.955324740E1
2.591242981E0,8.850000501E-1,-2.918205070E1,-3.165000200E0,2.936652064E1
2.593206347E0,9.619500637E-1,-2.929695129E1,-2.935050249E0,2.945931471E1
2.595169574E0,1.039050102E0,-2.944995117E1,-2.820000172E0,2.960289935E1
2.597132829E0,1.153950095E0,-2.925795174E1,-2.667000055E0,2.940190861E1
2.599096011E0,9.619500637E-1,-2.902800179E1,-2.475000143E0,2.914920001E1
2.601059214E0,9.240000248E-1,-2.875995064E1,-2.359950066E0,2.887140282E1
2.603022314E0,6.940500140E-1,-2.818500137E1,-2.169000149E0,2.827685572E1
2.604985445E0,5.790000558E-1,-2.768700218E1,-1.977000117E0,2.776353472E1
2.606948822E0,6.940500140E-1,-2.745705223E1,-1.671000123E0,2.751660706E1
2.608912130E0,8.089500666E-1,-2.734200096E1,-1.441050053E0,2.739189738E1
2.610875033E0,8.089500666E-1,-2.722695160E1,-1.171950102E0,2.726416624E1
2.612838055E0,9.240000248E-1,-2.711205101E1,-7.890000343E-1,2.713926320E1
2.614801140E0,1.114950061E0,-2.695905113E1,-3.670500219E-1,2.698459333E1
2.616764207E0,1.192050099E0,-2.688195038E1,1.500000060E-2,2.690837165E1
2.618726724E0,1.306950092E0,-2.672895050E1,5.130000114E-1,2.676580061E1
2.620689386E0,1.459950089E0,-2.676705170E1,9.730500579E-1,2.682449137E1
2.622652714E0,1.690050125E0,-2.672895050E1,1.356000066E0,2.681663291E1
2.624615846E0,1.843950033E0,-2.642205048E1,1.624950051E0,2.653611437E1
2.626579093E0,2.035050154E0,-2.615400124E1,1.893000126E0,2.630126726E1
2.628542307E0,2.188950062E0,-2.592405128E1,1.930950046E0,2.608786127E1
2.630505721E0,2.304000139E0,-2.561700058E1,1.969950080E0,2.579573295E1
2.632469076E0,2.572050095E0,-2.542605209E1,1.969950080E0,2.563162636E1
2.634432151E0,2.917050123E0,-2.527200127E1,1.777950048E0,2.550184965E1
2.636395309E0,3.147000074E0,-2.492700195E1,1.585950017E0,2.517487385E1
2.638358372E0,3.337950230E0,-2.450595093E1,1.471050024E0,2.477594662E1
2.640321463E0,3.529950142E0,-2.396895027E1,1.395000100E0,2.426761526E1
2.642284524E0,3.529950142E0,-2.327895164E1,1.279950023E0,2.357983057E1
2.644247603E0,3.607050180E0,-2.262795067E1,1.356000066E0,2.295372951E1
2.646210454E0,3.682950258E0,-2.201505089E1,1.395000100E0,2.236453920E1
2.648173372E0,3.721950293E0,-2.140095139E1,1.471050024E0,2.177194576E1
2.650136520E0,3.798000097E0,-2.071095085E1,1.510050058E0,2.111038941E1
2.652099601E0,3.837000132E0,-1.998300171E1,1.548000097E0,2.040684276E1
2.654062711E0,3.952050209E0,-1.917795181E1,1.585950017E0,1.964504452E1
2.656025790E0,4.066950321E0,-1.841205025E1,1.585950017E0,1.892244479E1
2.657989000E0,3.952050209E0,-1.741500092E1,1.548000097E0,1.792476672E1
2.659952172E0,3.874950171E0,-1.634205055E1,1.471050024E0,1.685947340E1
2.661915098E0,3.874950171E0,-1.526895046E1,1.395000100E0,1.581461705E1
2.663878097E0,3.798000097E0,-1.419600105E1,1.240950108E0,1.474758312E1
2.665841317E0,3.682950258E0,-1.312305069E1,1.050000072E0,1.367044557E1
2.667804475E0,3.453000069E0,-1.197300053E1,8.959500194E-1,1.249314522E1
2.669767539E0,3.184950113E0,-1.078500080E1,8.200500607E-1,1.127531071E1
2.671730631E0,2.917050123E0,-9.595950127E0,8.200500607E-1,1.006299768E1
2.673693525E0,2.649000168E0,-8.562000275E0,7.050000429E-1,8.990109880E0
2.675656477E0,2.380050182E0,-7.564950466E0,6.280500293E-1,7.955347966E0
2.677619750E0,2.111999989E0,-6.645000458E0,7.810500264E-1,7.016168055E0
2.679582932E0,1.690050125E0,-5.686950207E0,7.429500222E-1,5.979100837E0
2.681546216E0,1.269000053E0,-4.804950237E0,5.130000114E-1,4.996106177E0
2.683509470E0,9.240000248E-1,-4.039050102E0,3.600000143E-1,4.159002499E0
2.685472653E0,4.260000288E-1,-3.349050045E0,2.070000172E-1,3.382375088E0
2.687435857E0,4.200000316E-2,-2.736000061E0,9.195000678E-2,2.737866896E0
2.689398956E0,-3.780000210E-1,-2.275950193E0,-2.205000073E-2,2.307232000E0
2.691362055E0,-7.230000496E-1,-1.854000092E0,5.295000225E-2,1.990690612E0
2.693325128E0,-1.144950032E0,-1.471050024E0,2.449500114E-1,1.880132777E0
2.695288208E0,-1.452000022E0,-1.164000034E0,2.449500114E-1,1.877019087E0
2.697250203E0,-1.834950089E0,-8.580000401E-1,2.449500114E-1,2.040393689E0
2.699212516E0,-1.987950087E0,-6.660000086E-1,3.600000143E-1,2.127228612E0
2.701175597E0,-2.140950203E0,-4.360500276E-1,5.130000114E-1,2.244320924E0
2.703138446E0,-2.295000076E0,-2.830500007E-1,6.280500293E-1,2.396161408E0
2.705101562E0,-2.677950144E0,-5.295000225E-2,3.220500052E-1,2.697765164E0
2.707064600E0,-2.908050060E0,2.140500098E-1,1.680000126E-1,2.920752739E0
2.709027999E0,-3.100050211E0,5.590500236E-1,1.300500035E-1,3.152738689E0
2.710991292E0,-3.138000250E0,8.659500480E-1,1.500000060E-2,3.255324877E0
2.712954893E0,-3.100050211E0,1.134000063E0,-9.900000691E-2,3.302433717E0
2.714918389E0,-3.022950172E0,1.363950014E0,-2.140500098E-1,3.323312322E0
2.716881576E0,-2.908050060E0,1.594050050E0,-2.520000041E-1,3.325846466E0
2.718844853E0,-2.755050182E0,1.863000035E0,-2.520000041E-1,3.335352251E0
2.720808255E0,-2.601000071E0,2.053950071E0,-1.369500011E-1,3.317026917E0
2.722771620E0,-2.563050032E0,2.284050226E0,-6.105000153E-2,3.433633353E0
2.724735003E0,-2.485950232E0,2.551950216E0,-9.900000691E-2,3.564014515E0
2.726698384E0,-2.448000193E0,2.743950129E0,-2.205000073E-2,3.677288873E0
2.728661095E0,-2.410050154E0,3.012000084E0,1.680000126E-1,3.861179904E0
2.730624002E0,-2.410050154E0,3.166050196E0,3.220500052E-1,3.991983441E0
2.732587287E0,-2.371050119E0,3.433950186E0,5.509500504E-1,4.209208774E0
2.734550461E0,-2.410050154E0,3.625950098E0,8.580000401E-1,4.437569146E0
2.736513702E0,-2.371050119E0,3.856050253E0,1.165050030E0,4.674221196E0
2.738476923E0,-2.448000193E0,4.047000408E0,1.471050024E0,4.953272193E0
2.740439976E0,-2.485950232E0,4.315950394E0,1.624950051E0,5.239068526E0
2.742403079E0,-2.448000193E0,4.468950272E0,1.855050087E0,5.422677595E0
2.744366151E0,-2.485950232E0,4.660050392E0,2.238000154E0,5.736258615E0
2.746329233E0,-2.563050032E0,4.852050304E0,2.506050110E0,6.032570329E0
2.748292473E0,-2.601000071E0,5.005050182E0,2.698050022E0,6.252615662E0
2.750255677E0,-2.601000071E0,5.119950294E0,3.081000090E0,6.517027999E0
2.752218688E0,-2.601000071E0,5.235000134E0,3.157950163E0,6.644025662E0
2.754181756E0,-2.640000105E0,5.350050449E0,3.273000240E0,6.804790293E0
2.756144879E0,-2.601000071E0,5.464950085E0,3.388050079E0,6.936120251E0
2.758107985E0,-2.563050032E0,5.503950119E0,3.388050079E0,6.952810634E0
2.760071023E0,-2.524950027E0,5.427000046E0,3.273000240E0,6.822040216E0
2.762034074E0,-2.448000193E0,5.311950207E0,3.157950163E0,6.646966915E0
2.763997379E0,-2.295000076E0,5.235000134E0,3.118950129E0,6.511536044E0
2.765960610E0,-2.103000164E0,5.082000256E0,2.812950134E0,6.177541966E0
2.767923841E0,-2.103000164E0,5.044050217E0,2.736000061E0,6.111525882E0
2.769887072E0,-1.987950087E0,5.005050182E0,2.659050226E0,6.006081999E0
2.771850238E0,-1.987950087E0,5.044050217E0,2.430000067E0,5.941320431E0
2.773813438E0,-1.873050094E0,4.852050304E0,2.200050116E0,5.647205443E0
2.775776494E0,-1.911000133E0,4.774950027E0,1.969950080E0,5.507519640E0
2.777739592E0,-1.873050094E0,4.699050426E0,1.740000129E0,5.349485210E0
2.779702170E0,-1.834950089E0,4.621950150E0,1.510050058E0,5.197087280E0
2.781664900E0,-1.720050097E0,4.468950272E0,1.395000100E0,4.987596029E0
2.783627841E0,-1.605000019E0,4.392000198E0,1.126049995E0,4.809748371E0
2.785590730E0,-1.489950061E0,4.276950359E0,8.200500607E-1,4.602688091E0
2.787553615E0,-1.375050068E0,4.276950359E0,5.899500251E-1,4.531126582E0
2.789516501E0,-1.222050071E0,4.162050247E0,3.220500052E-1,4.349687902E0
2.791480376E0,-1.106999993E0,4.123950005E0,1.680000126E-1,4.273246615E0
2.793443961E0,-9.919500351E-1,4.085999966E0,-9.900000691E-2,4.205848499E0
2.795406897E0,-8.380500674E-1,4.047000408E0,-2.910000086E-1,4.143093195E0
2.797370030E0,-7.230000496E-1,3.970950127E0,-5.209500194E-1,4.069712877E0
2.799332736E0,-6.079500318E-1,3.894000292E0,-7.120500207E-1,4.004978994E0
2.801295568E0,-4.549500346E-1,3.894000292E0,-9.810000658E-1,4.041358551E0
2.803258506E0,-3.019500077E-1,3.894000292E0,-1.171950102E0,4.077729653E0
2.805221412E0,-1.099500060E-1,3.856050253E0,-1.363950014E0,4.091646636E0
2.807185074E0,1.189500093E-1,3.778950214E0,-1.555950046E0,4.088470909E0
2.809148504E0,5.790000558E-1,3.433950186E0,-1.747050047E0,3.896079929E0
2.811111522E0,8.470500112E-1,2.667000055E0,-1.977000117E0,3.426209638E0
2.813074660E0,1.192050099E0,1.402950048E0,-1.900950074E0,2.646292399E0
2.815038492E0,1.306950092E0,3.679500222E-1,-1.824000120E0,2.273869434E0
2.817002120E0,1.422000051E0,-2.830500007E-1,-1.786050081E0,2.300473069E0
2.818965043E0,1.459950089E0,-7.810500264E-1,-1.786050081E0,2.435460593E0
2.820928184E0,1.575000048E0,-1.240950108E0,-1.708950043E0,2.634595333E0
2.822891294E0,1.690050125E0,-1.548000097E0,-1.786050081E0,2.905606412E0
2.824854414E0,1.804950118E0,-1.893000126E0,-1.786050081E0,3.167217911E0
2.826817484E0,1.996950150E0,-2.122950077E0,-1.824000120E0,3.438270404E0
2.828780568E0,2.149950027E0,-2.391000032E0,-1.861950040E0,3.715645869E0
2.830743838E0,2.265000105E0,-2.620950222E0,-1.977000117E0,3.988500345E0
2.832707043E0,2.380050182E0,-2.581950188E0,-2.092050076E0,4.087515035E0
2.834670413E0,2.494950056E0,-2.620950222E0,-2.206950188E0,4.238488525E0
2.836633735E0,2.610000134E0,-2.736000061E0,-2.206950188E0,4.378176123E0
2.838596591E0,2.764050245E0,-2.851050138E0,-2.169000149E0,4.524712399E0
2.840559583E0,2.839950085E0,-2.965950251E0,-2.092050076E0,4.608562779E0
2.842522485E0,2.917050123E0,-3.042000055E0,-1.939050078E0,4.639273754E0
2.844485420E0,3.031950235E0,-3.042000055E0,-1.786050081E0,4.651500990E0
2.846448565E0,3.031950235E0,-3.004050255E0,-1.632000089E0,4.569514685E0
2.848411648E0,3.031950235E0,-2.851050138E0,-1.516950130E0,4.429711821E0
2.850375220E0,2.992950201E0,-2.697000027E0,-1.326000094E0,4.241442714E0
2.852338648E0,3.031950235E0,-2.620950222E0,-1.171950102E0,4.175592094E0
2.854301526E0,2.992950201E0,-2.467050076E0,-1.018950105E0,4.010280077E0
2.856264568E0,2.992950201E0,-2.351999998E0,-9.040500522E-1,3.912411199E0
2.858228145E0,2.878050089E0,-2.199000120E0,-7.120500207E-1,3.691312649E0
2.860191566E0,2.878050089E0,-2.046000004E0,-6.360000372E-1,3.588005627E0
2.862154765E0,2.839950085E0,-1.969050050E0,-6.360000372E-1,3.513825640E0
2.864118030E0,2.802000046E0,-1.777950048E0,-4.819500148E-1,3.353294864E0
2.866081314E0,2.725050211E0,-1.624050021E0,-5.590500236E-1,3.221175880E0
2.868044581E0,2.649000168E0,-1.471050024E0,-5.209500194E-1,3.074504673E0
2.870007626E0,2.610000134E0,-1.356000066E0,-4.819500148E-1,2.980455115E0
2.871970737E0,2.572050095E0,-1.203000069E0,-5.209500194E-1,2.886873703E0
2.873934123E0,2.572050095E0,-1.087950110E0,-5.590500236E-1,2.848089546E0
2.875897428E0,2.494950056E0,-9.730500579E-1,-6.739500165E-1,2.761487067E0
2.877860447E0,2.419050217E0,-8.580000401E-1,-8.659500480E-1,2.708844312E0
2.879823564E0,2.304000139E0,-7.810500264E-1,-8.269500136E-1,2.569494524E0
2.881786454E0,2.304000139E0,-7.039500475E-1,-7.120500207E-1,2.512165907E0
2.883749411E0,2.149950027E0,-5.890500546E-1,-5.590500236E-1,2.298217139E0
2.885712372E0,1.996950150E0,-4.740000367E-1,-3.670500219E-1,2.084996799E0
2.887675332E0,1.920000076E0,-3.210000098E-1,-4.440000355E-1,1.996641513E0
2.889638569E0,1.804950118E0,-2.440500110E-1,-4.060500264E-1,1.866087340E0
2.891601721E0,1.729050040E0,-1.680000126E-1,-4.060500264E-1,1.784016443E0
2.893564651E0,1.575000048E0,-1.680000126E-1,-4.440000355E-1,1.644987898E0
2.895527646E0,1.498950124E0,-1.680000126E-1,-4.060500264E-1,1.562034603E0
2.897490691E0,1.459950089E0,-1.290000081E-1,-5.209500194E-1,1.555469122E0
2.899453721E0,1.537050128E0,-1.680000126E-1,-5.590500236E-1,1.644166667E0
2.901416973E0,1.498950124E0,-1.290000081E-1,-4.060500264E-1,1.558322527E0
2.903380169E0,1.498950124E0,-1.680000126E-1,-4.060500264E-1,1.562034603E0
2.905343406E0,1.729050040E0,-9.105000645E-2,-4.060500264E-1,1.778420864E0
2.907306630E0,1.651950121E0,-5.295000225E-2,-5.590500236E-1,1.744786472E0
2.909270403E0,1.614000082E0,-5.295000225E-2,-5.209500194E-1,1.696817282E0
2.911234015E0,1.651950121E0,-1.290000081E-1,-4.440000355E-1,1.715434707E0
2.913197182E0,1.690050125E0,-1.680000126E-1,-2.910000086E-1,1.723129257E0
2.915160479E0,1.767000079E0,-2.059500068E-1,-2.205000073E-2,1.779098336E0
2.917123022E0,1.729050040E0,-2.059500068E-1,2.449500114E-1,1.758416889E0
2.919085786E0,1.729050040E0,-2.059500068E-1,4.360500276E-1,1.795040131E0
2.921049411E0,1.729050040E0,-1.680000126E-1,6.280500293E-1,1.847237095E0
2.923012784E0,1.690050125E0,-1.290000081E-1,8.580000401E-1,1.899756431E0
2.924975992E0,1.651950121E0,-1.290000081E-1,8.580000401E-1,1.865943266E0
2.926939248E0,1.575000048E0,-9.105000645E-2,8.959500194E-1,1.814288205E0
2.928901933E0,1.537050128E0,6.105000153E-2,1.011000037E0,1.840752909E0
2.930864786E0,1.422000051E0,2.295000106E-2,1.050000072E0,1.767798347E0
2.932828081E0,1.422000051E0,6.105000153E-2,1.203000069E0,1.863604146E0
2.934791246E0,1.306950092E0,1.380000114E-1,1.203000069E0,1.781676658E0
2.936754157E0,1.306950092E0,2.140500098E-1,1.318050027E0,1.868473126E0
2.938717122E0,1.269000053E0,2.530499995E-1,1.318050027E0,1.847065595E0
2.940680577E0,1.192050099E0,3.679500222E-1,1.432950020E0,1.899925372E0
2.942643889E0,1.153950095E0,4.060500264E-1,1.471050024E0,1.913234335E0
2.944607287E0,1.039050102E0,4.830000103E-1,1.432950020E0,1.834737007E0
2.946570659E0,1.000050068E0,5.209500194E-1,1.471050024E0,1.853504042E0
2.948534092E0,9.240000248E-1,5.980500579E-1,1.471050024E0,1.837233815E0
2.950497506E0,7.699500322E-1,7.129500508E-1,1.471050024E0,1.806961261E0
2.952460526E0,6.550500393E-1,7.510500550E-1,1.471050024E0,1.776838460E0
2.954423662E0,5.790000558E-1,7.129500508E-1,1.471050024E0,1.734222308E0
2.956386008E0,5.020500422E-1,7.510500550E-1,1.471050024E0,1.726302002E0
2.958348585E0,3.109500110E-1,6.360000372E-1,1.471050024E0,1.632536104E0
2.960311924E0,8.100000024E-2,5.590500236E-1,1.510050058E0,1.612249704E0
2.962275010E0,-7.200000435E-2,4.440000355E-1,1.624950051E0,1.686055367E0
2.964237951E0,-1.480500102E-1,2.910000086E-1,1.777950048E0,1.807679780E0
2.966200935E0,-2.250000089E-1,9.900000691E-2,2.085000038E0,2.099440679E0
2.968164703E0,-2.250000089E-1,-1.290000081E-1,2.314950228E0,2.329433528E0
2.970128241E0,-3.019500077E-1,-2.830500007E-1,2.583000183E0,2.615947449E0
2.972091240E0,-2.250000089E-1,-5.890500546E-1,2.736000061E0,2.807721729E0
2.974054397E0,-3.019500077E-1,-8.959500194E-1,2.889000177E0,3.039773391E0
2.976017684E0,-4.170000255E-1,-1.087950110E0,3.004050255E0,3.222086653E0
2.977980933E0,-5.320500135E-1,-1.279050112E0,3.043050051E0,3.343531070E0
2.979943621E0,-6.469500065E-1,-1.509000063E0,3.118950129E0,3.524695080E0
2.981906474E0,-8.380500674E-1,-1.701000094E0,3.196050167E0,3.716243521E0
2.983869178E0,-9.919500351E-1,-1.969050050E0,3.196050167E0,3.882764433E0
2.985831930E0,-1.144950032E0,-2.275950193E0,3.157950163E0,4.057524996E0
2.987794882E0,-1.222050071E0,-2.620950222E0,3.157950163E0,4.281989686E0
2.989757775E0,-1.336950064E0,-3.081000090E0,3.081000090E0,4.557692243E0
2.991720928E0,-1.297950029E0,-3.541050196E0,3.004050255E0,4.821620962E0
2.993684005E0,-1.336950064E0,-4.116000175E0,2.889000177E0,5.203384950E0
2.995647360E0,-1.452000022E0,-4.767000198E0,2.620950222E0,5.630450694E0
2.997610660E0,-1.642950058E0,-5.494950294E0,2.353049994E0,6.199242527E0
2.999573925E0,-1.911000133E0,-6.070050240E0,2.046000004E0,6.684575337E0
3.001537200E0,-2.140950203E0,-6.798000336E0,1.777950048E0,7.345582530E0
3.003500423E0,-2.371050119E0,-7.603050232E0,1.510050058E0,8.106078132E0
3.005463662E0,-2.563050032E0,-8.523000717E0,1.356000066E0,9.002749739E0
3.007427741E0,-2.755050182E0,-9.520050049E0,1.011000037E0,9.962117020E0
3.009391578E0,-2.946000099E0,-1.074600029E1,2.830500007E-1,1.114610049E1
3.011354751E0,-3.253050089E0,-1.224105072E1,-5.590500236E-1,1.267825676E1
3.013318118E0,-3.559950113E0,-1.396605110E1,-1.708950043E0,1.451359151E1
3.015281145E0,-4.096050262E0,-1.630395126E1,-3.280050039E0,1.712761463E1
3.017244272E0,-4.824000359E0,-1.936995125E1,-5.311950207E0,2.065630184E1
3.019207129E0,-5.782950401E0,-2.339400101E1,-7.687950134E0,2.529478950E1
3.021170055E0,-7.123950481E0,-2.822400093E1,-1.044795036E1,3.092740800E1
3.023133157E0,-8.311950684E0,-3.320595169E1,-1.309200096E1,3.664865947E1
3.025096207E0,-8.848950386E0,-3.738405228E1,-1.477905083E1,4.116177390E1
3.027059289E0,-9.040050507E0,-4.206000137E1,-1.489395046E1,4.552577280E1
3.029022361E0,-8.809950829E0,-4.777095413E1,-1.474005032E1,5.076365211E1
3.030985454E0,-7.929000378E0,-5.398005295E1,-1.378200054E1,5.627307262E1
3.032948530E0,-5.629050255E0,-6.007395172E1,-1.282395077E1,6.168484089E1
3.034911652E0,-2.601000071E0,-6.360000229E1,-1.263195038E1,6.489446558E1
3.036874761E0,-1.099500060E-1,-6.329295349E1,-9.796050072E0,6.404664431E1
3.038838869E0,1.729050040E0,-6.187500381E1,-5.464950085E0,6.213993394E1
3.040802684E0,3.376950264E0,-6.053400421E1,-1.287000060E0,6.064178286E1
3.042765329E0,5.715000153E0,-5.972895432E1,2.238000154E0,6.004346638E1
3.044728310E0,7.630950451E0,-5.834895325E1,5.764050484E0,5.912745579E1
3.046691583E0,9.433050156E0,-5.716095352E1,8.370000839E0,5.853557856E1
3.048654770E0,1.108095074E1,-5.562795258E1,1.024800014E1,5.763920614E1
3.050617829E0,1.242195034E1,-5.374995422E1,1.197300053E1,5.645099796E1
3.052580926E0,1.326495075E1,-5.133495331E1,1.323795033E1,5.464869329E1
3.054543939E0,1.360995102E1,-4.888200378E1,1.366005039E1,5.254786425E1
3.056506987E0,1.368705082E1,-4.639095306E1,1.316100025E1,5.012651807E1
3.058469934E0,1.345695019E1,-4.397595215E1,1.197300053E1,4.752185410E1
3.060432911E0,1.295895100E1,-4.179195023E1,1.036305046E1,4.496547931E1
3.062395780E0,1.222995090E1,-3.991395187E1,8.332050323E0,4.256898303E1
3.064358680E0,1.157895088E1,-3.841905212E1,6.415950298E0,4.063569967E1
3.066321947E0,1.085100079E1,-3.715395355E1,4.882050037E0,3.901275298E1
3.068285120E0,1.012200069E1,-3.615705109E1,3.502950191E0,3.771018299E1
3.070248361E0,9.394050598E0,-3.527595139E1,2.353049994E0,3.658111230E1
3.072211582E0,8.589000702E0,-3.439395142E1,1.585950017E0,3.548563180E1
3.074174320E0,7.746000290E0,-3.351300049E1,1.240950108E0,3.441891456E1
3.076137199E0,6.979950428E0,-3.274605179E1,7.810500264E-1,3.349079956E1
3.078101010E0,6.060000420E0,-3.213300323E1,3.220500052E-1,3.270102778E1
3.080064562E0,5.370000362E0,-3.155805206E1,-2.205000073E-2,3.201168599E1
3.082027694E0,4.717950344E0,-3.098295212E1,-3.670500219E-1,3.134225747E1
3.083990949E0,4.143000126E0,-3.052305222E1,-7.510500550E-1,3.081209572E1
3.085954175E0,3.607050180E0,-3.010200119E1,-9.420000315E-1,3.033197407E1
3.087917410E0,3.108000040E0,-2.960295105E1,-1.171950102E0,2.978872005E1
3.089880451E0,2.725050211E0,-2.933505058E1,-1.134000063E0,2.948316549E1
3.091843555E0,2.304000139E0,-2.902800179E1,-1.210950017E0,2.914446267E1
3.093806806E0,1.996950150E0,-2.872200203E1,-1.018950105E0,2.880936427E1
3.095770014E0,1.804950118E0,-2.849205208E1,-9.420000315E-1,2.856470270E1
3.097733249E0,1.614000082E0,-2.833905220E1,-9.420000315E-1,2.840060281E1
3.099696476E0,1.422000051E0,-2.814705086E1,-7.890000343E-1,2.819399009E1
3.101659582E0,1.345050097E0,-2.787900162E1,-5.590500236E-1,2.791702756E1
3.103622718E0,1.306950092E0,-2.761005211E1,-3.670500219E-1,2.764340467E1
3.105585559E0,1.345050097E0,-2.730405045E1,-6.105000153E-2,2.733722842E1
3.107548487E0,1.345050097E0,-2.703495216E1,2.830500007E-1,2.706987099E1
3.109510733E0,1.345050097E0,-2.672895050E1,4.360500276E-1,2.676632388E1
3.111473179E0,1.459950089E0,-2.646105194E1,6.660000086E-1,2.650966390E1
3.113436138E0,1.575000048E0,-2.615400124E1,9.349500537E-1,2.621805747E1
3.115398947E0,1.729050040E0,-2.573205185E1,1.240950108E0,2.581991603E1
3.117361935E0,1.804950118E0,-2.538705063E1,1.395000100E0,2.548933522E1
3.119324870E0,2.074050188E0,-2.504205132E1,1.471050024E0,2.517081656E1
3.121287792E0,2.380050182E0,-2.462100029E1,1.701000094E0,2.479418673E1
3.123250718E0,2.494950056E0,-2.416095161E1,2.085000038E0,2.437875271E1
3.125213806E0,2.764050245E0,-2.373900032E1,2.238000154E0,2.400393207E1
3.127176856E0,2.955000162E0,-2.316405106E1,2.391000032E0,2.347386139E1
3.129139894E0,3.147000074E0,-2.255100060E1,2.430000067E0,2.289882394E1
3.131102935E0,3.300000191E0,-2.182305145E1,2.314950228E0,2.219221869E1
3.133066197E0,3.376950264E0,-2.109495163E1,2.122950077E0,2.146876090E1
3.135029394E0,3.415050268E0,-2.021295166E1,2.161050081E0,2.061300853E1
3.136992487E0,3.376950264E0,-1.936995125E1,1.969950080E0,1.976055434E1
3.138955617E0,3.337950230E0,-1.841205025E1,1.701000094E0,1.878932961E1
3.140918864E0,3.223050117E0,-1.749195099E1,1.471050024E0,1.784713954E1
3.142882077E0,3.108000040E0,-1.645695114E1,1.318050027E0,1.679964764E1
3.144845086E0,2.917050123E0,-1.538400078E1,8.580000401E-1,1.568160787E1
3.146808155E0,2.686950207E0,-1.427205086E1,5.509500504E-1,1.453322686E1
3.148771794E0,2.419050217E0,-1.319895077E1,1.680000126E-1,1.341984833E1
3.150735283E0,2.074050188E0,-1.208805084E1,9.195000678E-2,1.226503617E1
3.152698110E0,1.729050040E0,-1.101495075E1,-1.759500057E-1,1.115122023E1
3.154661131E0,1.384050012E0,-1.009500027E1,-4.060500264E-1,1.019752428E1
3.156624217E0,1.230000019E0,-9.175050735E0,-5.590500236E-1,9.273995524E0
3.158587283E0,9.619500637E-1,-8.140049934E0,-5.970000029E-1,8.218404338E0
3.160549597E0,5.020500422E-1,-7.219950199E0,-8.269500136E-1,7.284475372E0
3.162512131E0,4.050000105E-3,-6.300000191E0,-1.018950105E0,6.381871052E0
3.164475526E0,-4.930500090E-1,-5.304000378E0,-9.810000658E-1,5.416445278E0
3.166438668E0,-1.106999993E0,-4.306950092E0,-9.810000658E-1,4.553858717E0
3.168401914E0,-1.681950092E0,-3.541050196E0,-8.269500136E-1,4.006474626E0
3.170365130E0,-2.295000076E0,-2.773950100E0,-5.590500236E-1,3.643399709E0
3.172327857E0,-2.793000221E0,-2.238000154E0,-2.910000086E-1,3.590846130E0
3.174290704E0,-3.253050089E0,-1.701000094E0,9.195000678E-2,3.672082652E0
3.176253054E0,-3.865950108E0,-1.203000069E0,4.750500321E-1,4.076573553E0
3.178215550E0,-4.249050140E0,-6.660000086E-1,7.050000429E-1,4.358326303E0
3.180177690E0,-4.555950165E0,-2.059500068E-1,8.200500607E-1,4.633743563E0
3.182139935E0,-4.786050320E0,9.900000691E-2,1.087950110E0,4.909145965E0
3.184103011E0,-4.786050320E0,3.289500177E-1,1.240950108E0,4.955243985E0
3.186065817E0,-4.708950043E0,7.129500508E-1,1.356000066E0,4.951893018E0
3.188028715E0,-4.863000393E0,1.134000063E0,1.203000069E0,5.136335087E0
3.189991586E0,-5.245950222E0,1.518000126E0,7.810500264E-1,5.516734293E0
3.191954384E0,-5.361000061E0,2.016000032E0,4.750500321E-1,5.747194996E0
3.193917204E0,-5.361000061E0,2.322000027E0,5.509500504E-1,5.868181297E0
3.195881013E0,-5.284050465E0,2.706000090E0,4.750500321E-1,5.955610660E0
3.197844523E0,-5.092950344E0,2.935950041E0,2.449500114E-1,5.883701756E0
3.199807527E0,-4.939050198E0,3.204000235E0,5.295000225E-2,5.887498455E0
3.201770679E0,-4.671000004E0,3.472050190E0,-9.900000691E-2,5.820925576E0
3.203733743E0,-4.594050407E0,3.664050102E0,-1.759500057E-1,5.878904720E0
3.205696833E0,-4.479000092E0,3.970950127E0,-3.289500177E-1,5.994839017E0
3.207659908E0,-4.326000214E0,4.201050282E0,-3.670500219E-1,6.041343148E0
3.209622987E0,-4.096050262E0,4.392000198E0,-3.289500177E-1,6.014607353E0
3.211586288E0,-3.981000185E0,4.584000111E0,-3.289500177E-1,6.080265422E0
3.213549523E0,-3.904950142E0,4.736999989E0,-2.520000041E-1,6.144209347E0
3.215512709E0,-3.751050234E0,4.966950417E0,-2.140500098E-1,6.227904279E0
3.217475910E0,-3.636000156E0,5.119950294E0,-6.105000153E-2,6.279977329E0
3.219438650E0,-3.483000278E0,5.274000168E0,9.195000678E-2,6.320982797E0
3.221401525E0,-3.330000162E0,5.389050484E0,2.830500007E-1,6.341205209E0
3.223363736E0,-3.175950050E0,5.464950085E0,5.509500504E-1,6.344752486E0
3.225326141E0,-2.985000134E0,5.580000401E0,7.810500264E-1,6.376258261E0
3.227289512E0,-2.793000221E0,5.695050240E0,9.349500537E-1,6.411597232E0
3.229252600E0,-2.640000105E0,5.734050274E0,1.126049995E0,6.412247788E0
3.231215652E0,-2.410050154E0,5.809950352E0,1.279950023E0,6.418889070E0
3.233178732E0,-2.179949999E0,5.848950386E0,1.432950020E0,6.404353861E0
3.235141403E0,-2.026050091E0,5.887050152E0,1.471050024E0,6.397360912E0
3.237104194E0,-1.795950055E0,5.772000313E0,1.471050024E0,6.221367405E0
3.239067139E0,-1.452000022E0,5.734050274E0,1.510050058E0,6.104743057E0
3.241030038E0,-1.183050036E0,5.619000435E0,1.510050058E0,5.937425743E0
3.242992995E0,-9.529500604E-1,5.542050362E0,1.471050024E0,5.812609070E0
3.244955914E0,-7.230000496E-1,5.464950085E0,1.432950020E0,5.695766345E0
3.246918883E0,-5.700000525E-1,5.464950085E0,1.356000066E0,5.659444820E0
3.248881837E0,-3.019500077E-1,5.427000046E0,1.240950108E0,5.575254297E0
3.250844531E0,-1.480500102E-1,5.311950207E0,1.126049995E0,5.432009057E0
3.252807301E0,4.050000105E-3,5.274000168E0,1.011000037E0,5.370029353E0
3.254769953E0,1.189500093E-1,5.158950329E0,8.580000401E-1,5.231164466E0
3.256732627E0,2.719500065E-1,5.119950294E0,7.050000429E-1,5.175410407E0
3.258696628E0,3.870000243E-1,5.044050217E0,5.899500251E-1,5.093157433E0
3.260660241E0,6.169500351E-1,4.929000378E0,3.979500234E-1,4.983375993E0
3.262623813E0,8.089500666E-1,4.890000343E0,2.830500007E-1,4.964536320E0
3.264587397E0,8.470500112E-1,4.852050304E0,9.195000678E-2,4.926290763E0
3.266550361E0,1.039050102E0,4.736999989E0,-9.900000691E-2,4.850628311E0
3.268513493E0,1.230000019E0,4.621950150E0,-1.759500057E-1,4.786050735E0
3.270476380E0,1.345050097E0,4.584000111E0,-2.910000086E-1,4.786115103E0
3.272439339E0,1.459950089E0,4.392000198E0,-4.060500264E-1,4.646073248E0
3.274402480E0,1.920000076E0,4.085999966E0,-6.360000372E-1,4.559198620E0
3.276365567E0,2.341950178E0,3.357000113E0,-7.890000343E-1,4.168537087E0
3.278328428E0,2.457000017E0,2.169000149E0,-6.739500165E-1,3.345985558E0
