"Time (s)","Acceleration x (m/s^2)","Acceleration y (m/s^2)","Acceleration z (m/s^2)","Absolute acceleration (m/s^2)"
3.859620600E-2,1.920000076E0,-3.694050074E0,-3.931950092E0,5.726485638E0
4.055811200E-2,1.767000079E0,-4.269000053E0,-4.353000164E0,6.347854847E0
4.252259000E-2,1.651950121E0,-4.920000076E0,-5.158050060E0,7.317159311E0
4.448547200E-2,1.422000051E0,-5.802000046E0,-6.117000103E0,8.550028008E0
4.644882100E-2,1.114950061E0,-6.913050175E0,-6.921000481E0,9.845487495E0
4.841129100E-2,3.109500110E-1,-8.293050766E0,-7.420050144E0,1.113231894E1
5.037403200E-2,-6.079500318E-1,-9.940950394E0,-7.573050499E0,1.251172218E1
5.233734600E-2,-1.452000022E0,-1.189605045E1,-7.228050232E0,1.399532174E1
5.430049200E-2,-2.295000076E0,-1.377405071E1,-6.346950531E0,1.533868571E1
5.626373700E-2,-3.253050089E0,-1.523100090E1,-5.119950294E0,1.639449951E1
5.822695300E-2,-4.210950375E0,-1.634205055E1,-3.702000141E0,1.727713878E1
6.019013400E-2,-5.208000183E0,-1.714695168E1,-2.053950071E0,1.803773624E1
6.215336200E-2,-5.935950279E0,-1.787505150E1,-6.360000372E-1,1.884562198E1
6.411533200E-2,-6.396000385E0,-1.875705147E1,4.750500321E-1,1.982325587E1
6.607767100E-2,-6.741000175E0,-1.975305176E1,1.432950020E0,2.092074289E1
6.804064900E-2,-6.894000530E0,-2.094105148E1,2.161050081E0,2.215231405E1
7.000343900E-2,-6.970950127E0,-2.224500084E1,2.928000212E0,2.349483759E1
7.196674200E-2,-7.009050369E0,-2.366295052E1,3.502950191E0,2.492654557E1
7.392992900E-2,-6.970950127E0,-2.531100082E1,4.269000053E0,2.659821930E1
7.589316800E-2,-6.702000141E0,-2.711205101E1,5.227050304E0,2.841306338E1
7.785639100E-2,-6.127950191E0,-2.891400146E1,6.376950264E0,3.023634814E1
7.981944300E-2,-5.590950489E0,-3.056205177E1,7.374000549E0,3.193232876E1
8.178254600E-2,-5.053950310E0,-3.209505081E1,8.179050446E0,3.350420222E1
8.374558900E-2,-4.594050407E0,-3.336000061E1,8.677050591E0,3.477479183E1
8.570867100E-2,-3.751050234E0,-3.466305161E1,8.907000542E0,3.598516615E1
8.767170200E-2,-2.640000105E0,-3.619605255E1,8.983950615E0,3.738763418E1
8.963474800E-2,-1.144950032E0,-3.780600357E1,8.907000542E0,3.885793967E1
9.159873100E-2,9.240000248E-1,-3.964500046E1,8.638950348E0,4.058585099E1
9.356243900E-2,2.764050245E0,-4.117800140E1,8.179050446E0,4.207332456E1
9.552521300E-2,4.680000305E0,-4.213695145E1,7.297050476E0,4.301943777E1
9.748827200E-2,7.516050339E0,-4.340100098E1,5.878950119E0,4.443759617E1
9.945153100E-2,1.042905045E1,-4.504905319E1,4.423050404E0,4.645154100E1
1.014147310E-1,1.429995060E1,-4.642905045E1,2.659050226E0,4.865404259E1
1.033785530E-1,1.778805161E1,-4.780905151E1,-2.205000073E-2,5.101098580E1
1.053421930E-1,2.119905090E1,-4.899705124E1,-3.394950151E0,5.349426582E1
1.073051650E-1,2.453400040E1,-5.010900116E1,-7.956000328E0,5.635713898E1
1.092683400E-1,2.717805099E1,-5.068395233E1,-1.228695011E1,5.880883116E1
1.112315340E-1,2.851995087E1,-5.049195099E1,-1.497000027E1,5.989094773E1
1.131947220E-1,2.855805206E1,-4.968705368E1,-1.600500107E1,5.950231676E1
1.151579600E-1,2.691000175E1,-4.807695389E1,-1.543005085E1,5.721562862E1
1.171211840E-1,2.296200180E1,-4.520295334E1,-1.408905029E1,5.262187621E1
1.190838560E-1,1.571805096E1,-4.117800140E1,-1.244100094E1,4.579807234E1
1.210467040E-1,9.433050156E0,-3.765195084E1,-1.052400017E1,4.021699164E1
1.230096390E-1,5.101050377E0,-3.473895264E1,-8.569950104E0,3.614221341E1
1.249725480E-1,2.188950062E0,-3.240105057E1,-6.538050175E0,3.312651023E1
1.269343930E-1,1.570500135E-1,-3.048495102E1,-4.545000076E0,3.082229597E1
1.288965500E-1,-1.567050099E0,-2.875995064E1,-2.820000172E0,2.894033185E1
1.308597790E-1,-2.946000099E0,-2.741895103E1,-1.363950014E0,2.761047178E1
1.328226970E-1,-4.018949986E0,-2.630700111E1,-3.670500219E-1,2.661475140E1
1.347845860E-1,-5.053950310E0,-2.561700058E1,3.979500234E-1,2.611381812E1
1.367467760E-1,-5.553000450E0,-2.538705063E1,9.349500537E-1,2.600408209E1
1.387095990E-1,-5.821050167E0,-2.531100082E1,1.165050030E0,2.599786009E1
1.406722360E-1,-6.127950191E0,-2.511900139E1,1.432950020E0,2.589535383E1
1.426346950E-1,-6.280950069E0,-2.488905144E1,1.624950051E0,2.572072468E1
1.445972190E-1,-6.549000263E0,-2.442900085E1,1.893000126E0,2.536235274E1
1.465602090E-1,-6.778950214E0,-2.396895027E1,2.200050116E0,2.500609853E1
1.485230630E-1,-7.047000408E0,-2.343300056E1,2.391000032E0,2.458622808E1
1.504859980E-1,-7.201050282E0,-2.289600182E1,2.545050144E0,2.413626534E1
1.524489090E-1,-7.276950359E0,-2.232105064E1,2.736000061E0,2.363617999E1
1.544117750E-1,-7.276950359E0,-2.190000153E1,2.851050138E0,2.325279683E1
1.563746650E-1,-7.123950481E0,-2.155500031E1,2.965950251E0,2.289466247E1
1.583374140E-1,-6.931950092E0,-2.132505035E1,2.928000212E0,2.261377655E1
1.603002040E-1,-6.433950424E0,-2.121000099E1,2.965950251E0,2.236194806E1
1.622631490E-1,-5.782950401E0,-2.117100143E1,3.081000090E0,2.216182255E1
1.642260480E-1,-5.092950344E0,-2.121000099E1,3.196050167E0,2.204579375E1
1.661889610E-1,-4.671000004E0,-2.113305092E1,3.196050167E0,2.187781568E1
1.681518800E-1,-4.173000336E0,-2.124795151E1,3.234000206E0,2.189402047E1
1.701148040E-1,-3.865950108E0,-2.140095139E1,3.081000090E0,2.196449071E1
1.720777260E-1,-3.520950079E0,-2.159295082E1,3.043050051E0,2.208874755E1
1.740406940E-1,-3.406050205E0,-2.167005157E1,2.889000177E0,2.212552000E1
1.760036490E-1,-3.253050089E0,-2.174595070E1,2.773950100E0,2.216220896E1
1.779666970E-1,-3.100050211E0,-2.186100197E1,2.620950222E0,2.223472731E1
1.799297210E-1,-2.755050182E0,-2.197605133E1,2.506050110E0,2.228940153E1
1.818923130E-1,-2.524950027E0,-2.212995148E1,2.430000067E0,2.240569181E1
1.838550310E-1,-2.295000076E0,-2.216805077E1,2.467950106E0,2.242276249E1
1.858177630E-1,-1.987950087E0,-2.224500084E1,2.506050110E0,2.247381354E1
1.877804910E-1,-1.758000135E0,-2.224500084E1,2.545050144E0,2.245902730E1
1.897431090E-1,-1.720050097E0,-2.216805077E1,2.583000183E0,2.238421178E1
1.917057760E-1,-1.681950092E0,-2.205300140E1,2.467950106E0,2.225431654E1
1.936687420E-1,-1.489950061E0,-2.186100197E1,2.467950106E0,2.205026385E1
1.956316200E-1,-1.260000110E0,-2.159295082E1,2.391000032E0,2.176143393E1
1.975947310E-1,-1.068000078E0,-2.124795151E1,2.314950228E0,2.140035191E1
1.995577740E-1,-8.380500674E-1,-2.090295029E1,2.046000004E0,2.101955696E1
2.015207490E-1,-5.700000525E-1,-2.052000046E1,1.855050087E0,2.061156301E1
2.034837890E-1,-4.170000255E-1,-2.002200127E1,1.663050056E0,2.009527704E1
2.054465570E-1,-3.400500119E-1,-1.956195068E1,1.548000097E0,1.962605036E1
2.074094050E-1,-1.480500102E-1,-1.898700142E1,1.471050024E0,1.904447767E1
2.093724750E-1,4.200000316E-2,-1.848795128E1,1.471050024E0,1.854643078E1
2.113354800E-1,8.100000024E-2,-1.795200157E1,1.356000066E0,1.800332352E1
2.132983900E-1,2.719500065E-1,-1.749195099E1,1.126049995E0,1.753026796E1
2.152613280E-1,5.020500422E-1,-1.707000160E1,8.959500194E-1,1.710086943E1
2.172247880E-1,7.320000529E-1,-1.657200050E1,5.899500251E-1,1.659864651E1
2.191880950E-1,8.850000501E-1,-1.615005112E1,3.600000143E-1,1.617828718E1
2.211517180E-1,1.077000022E0,-1.561395073E1,2.449500114E-1,1.565296735E1
2.231152490E-1,1.153950095E0,-1.507695103E1,9.195000678E-2,1.512132626E1
2.250780790E-1,1.306950092E0,-1.461705112E1,-9.900000691E-2,1.467569770E1
2.270411070E-1,1.306950092E0,-1.419600105E1,-2.520000041E-1,1.425826316E1
2.290041910E-1,1.345050097E0,-1.369695091E1,-4.440000355E-1,1.376999492E1
2.309672590E-1,1.384050012E0,-1.316100025E1,-6.739500165E-1,1.325072567E1
2.329301580E-1,1.459950089E0,-1.262400055E1,-8.269500136E-1,1.273501827E1
2.348931070E-1,1.614000082E0,-1.212600040E1,-9.810000658E-1,1.227221427E1
2.368559750E-1,1.882050037E0,-1.162800026E1,-1.171950102E0,1.183748155E1
2.388188710E-1,1.959000111E0,-1.113000011E1,-1.363950014E0,1.138309903E1
2.407816640E-1,1.996950150E0,-1.055505085E1,-1.632000089E0,1.086555717E1
2.427444870E-1,2.111999989E0,-9.979950905E0,-1.900950074E0,1.037658784E1
2.447075610E-1,2.149950027E0,-9.520050049E0,-2.092050076E0,9.981498463E0
2.466705620E-1,2.188950062E0,-9.021000862E0,-2.284050226E0,9.559646665E0
2.486338130E-1,2.111999989E0,-8.523000717E0,-2.437050104E0,9.112699841E0
2.505970040E-1,2.149950027E0,-8.101950645E0,-2.437050104E0,8.729438847E0
2.525601080E-1,2.188950062E0,-7.603050232E0,-2.398950100E0,8.267577444E0
2.545232370E-1,1.996950150E0,-7.027950287E0,-2.245050192E0,7.643307236E0
2.564860790E-1,1.804950118E0,-6.492000103E0,-2.130000114E0,7.066881261E0
2.584490060E-1,1.882050037E0,-6.109050274E0,-1.824000120E0,6.647524654E0
2.604118020E-1,1.804950118E0,-5.649000168E0,-1.594050050E0,6.140850380E0
2.623746310E-1,1.575000048E0,-5.149950027E0,-1.402050018E0,5.564921804E0
2.643378840E-1,1.459950089E0,-4.767000198E0,-1.171950102E0,5.121446299E0
2.663010130E-1,1.345050097E0,-4.345950127E0,-9.810000658E-1,4.653901954E0
2.682639020E-1,1.230000019E0,-4.039050102E0,-6.360000372E-1,4.269815198E0
2.702268610E-1,1.153950095E0,-3.732000113E0,-4.440000355E-1,3.931483396E0
2.721901930E-1,1.153950095E0,-3.463950157E0,-1.759500057E-1,3.655339918E0
2.741534080E-1,1.153950095E0,-3.196050167E0,5.295000225E-2,3.398402742E0
2.761157410E-1,1.230000019E0,-2.889000177E0,2.449500114E-1,3.149479732E0
2.780783330E-1,1.269000053E0,-2.620950222E0,4.360500276E-1,2.944466136E0
2.800414920E-1,1.345050097E0,-2.391000032E0,6.280500293E-1,2.814336113E0
2.820044850E-1,1.422000051E0,-2.122950077E0,7.810500264E-1,2.671898261E0
2.839677010E-1,1.422000051E0,-1.777950048E0,8.580000401E-1,2.432972377E0
2.859308590E-1,1.459950089E0,-1.471050024E0,9.349500537E-1,2.273669730E0
2.878936080E-1,1.537050128E0,-1.356000066E0,1.050000072E0,2.302989237E0
2.898564770E-1,1.537050128E0,-1.011000037E0,1.050000072E0,2.118288064E0
2.918199040E-1,1.614000082E0,-7.429500222E-1,1.011000037E0,2.044282778E0
2.937831670E-1,1.729050040E0,-5.130000114E-1,9.349500537E-1,2.031480902E0
2.957463850E-1,1.882050037E0,-3.589500189E-1,8.200500607E-1,2.084092023E0
2.977096220E-1,2.074050188E0,-2.059500068E-1,7.050000429E-1,2.200255587E0
2.996726710E-1,2.227050066E0,-9.105000645E-2,5.130000114E-1,2.287184101E0
3.016357760E-1,2.341950178E0,6.105000153E-2,2.449500114E-1,2.355516556E0
3.035988920E-1,2.419050217E0,2.140500098E-1,-2.205000073E-2,2.428601976E0
3.055620040E-1,2.419050217E0,4.830000103E-1,-3.670500219E-1,2.493956431E0
3.075252000E-1,2.419050217E0,7.510500550E-1,-5.590500236E-1,2.593919248E0
3.094883790E-1,2.457000017E0,9.810000658E-1,-9.420000315E-1,2.808304519E0
3.114516640E-1,2.380050182E0,1.173000097E0,-1.210950017E0,2.916670712E0
3.134149170E-1,2.419050217E0,1.402950048E0,-1.555950046E0,3.200164579E0
3.153781450E-1,2.380050182E0,1.633050084E0,-2.014950037E0,3.520158391E0
3.173413810E-1,2.419050217E0,1.863000035E0,-2.398950100E0,3.882980127E0
3.193045610E-1,2.380050182E0,2.016000032E0,-2.782050133E0,4.179557147E0
3.212677610E-1,2.457000017E0,2.208000183E0,-3.165000200E0,4.574859578E0
3.232309960E-1,2.457000017E0,2.398950100E0,-3.664050102E0,5.021660464E0
3.251942200E-1,2.572050095E0,2.590950012E0,-4.084949970E0,5.478620256E0
3.271574970E-1,2.610000134E0,2.743950129E0,-4.545000076E0,5.915943602E0
3.291207590E-1,2.764050245E0,2.896950245E0,-5.043000221E0,6.439265930E0
3.310839850E-1,2.917050123E0,2.974050045E0,-5.427000046E0,6.841526481E0
3.330472220E-1,3.108000040E0,3.127050161E0,-5.809950352E0,7.293396332E0
3.350105860E-1,3.337950230E0,3.204000235E0,-6.117000103E0,7.669760068E0
3.369739120E-1,3.529950142E0,3.204000235E0,-6.307950497E0,7.906731624E0
3.389368130E-1,3.874950171E0,3.280950069E0,-6.346950531E0,8.127955046E0
3.408998380E-1,4.182000160E0,3.357000113E0,-6.346950531E0,8.309173012E0
3.428629370E-1,4.564949989E0,3.280950069E0,-6.232050419E0,8.392964565E0
3.448260040E-1,4.987050056E0,3.280950069E0,-6.040050507E0,8.492202997E0
3.467892630E-1,5.370000362E0,3.127050161E0,-5.772000313E0,8.481234239E0
3.487524660E-1,5.830050468E0,2.935950041E0,-5.235000134E0,8.367467807E0
3.507160170E-1,6.250950336E0,2.706000090E0,-4.774950027E0,8.318471275E0
3.526794660E-1,6.634950161E0,2.398950100E0,-4.200000286E0,8.210817720E0
3.546428410E-1,7.056000233E0,1.978050113E0,-3.472050190E0,8.108942844E0
3.566062370E-1,7.477950573E0,1.518000126E0,-2.704950094E0,8.095728761E0
3.585696640E-1,7.746000290E0,9.040500522E-1,-2.014950037E0,8.054678804E0
3.605330810E-1,7.899000168E0,2.530499995E-1,-1.363950014E0,8.019887630E0
3.624970010E-1,7.783950329E0,-3.210000098E-1,-7.510500550E-1,7.826685117E0
3.644607740E-1,7.554000378E0,-9.340500236E-1,-2.140500098E-1,7.614537974E0
3.664231610E-1,7.363050461E0,-1.509000063E0,2.070000172E-1,7.518938907E0
3.683859440E-1,7.171050549E0,-1.930950046E0,5.509500504E-1,7.446883913E0
3.703492500E-1,6.979950428E0,-2.351999998E0,9.349500537E-1,7.424671277E0
3.723124030E-1,6.826050282E0,-2.620950222E0,1.126049995E0,7.398130244E0
3.742758270E-1,6.711000443E0,-2.889000177E0,1.432950020E0,7.445615806E0
3.762391720E-1,6.405000210E0,-3.004050255E0,1.510050058E0,7.233850759E0
3.782022490E-1,6.060000420E0,-3.081000090E0,1.740000129E0,7.017390333E0
3.801654050E-1,5.599950314E0,-3.196050167E0,1.816050053E0,6.698672852E0
3.821288280E-1,5.101050377E0,-3.118950129E0,1.930950046E0,6.283083075E0
3.840921720E-1,4.564949989E0,-3.042000055E0,1.969950080E0,5.828656454E0
3.860556990E-1,3.952050209E0,-2.965950251E0,1.893000126E0,5.291409190E0
3.880191720E-1,3.415050268E0,-2.773950100E0,1.855050087E0,4.774785683E0
3.899825820E-1,2.802000046E0,-2.659050226E0,1.777950048E0,4.252394471E0
3.919459830E-1,2.419050217E0,-2.506050110E0,1.816050053E0,3.928120275E0
3.939091840E-1,2.149950027E0,-2.391000032E0,2.008050203E0,3.790967145E0
3.958724440E-1,1.804950118E0,-2.275950193E0,2.085000038E0,3.575614544E0
3.978353540E-1,1.384050012E0,-2.083950043E0,2.085000038E0,3.256634363E0
3.997983670E-1,1.114950061E0,-1.969050050E0,1.893000126E0,2.950206978E0
4.017605050E-1,7.699500322E-1,-1.854000092E0,1.816050053E0,2.707060617E0
4.037229020E-1,4.639500082E-1,-1.701000094E0,1.663050056E0,2.423713353E0
4.056859590E-1,1.960500032E-1,-1.585950017E0,1.548000097E0,2.224854458E0
4.076488230E-1,4.200000316E-2,-1.432950020E0,1.510050058E0,2.082152957E0
4.096120710E-1,-3.299999982E-2,-1.279050112E0,1.510050058E0,1.979219383E0
4.115752070E-1,-1.099500060E-1,-1.164000034E0,1.471050024E0,1.879088411E0
4.135382600E-1,-1.480500102E-1,-1.011000037E0,1.432950020E0,1.759939101E0
4.155013480E-1,-1.870500147E-1,-9.340500236E-1,1.432950020E0,1.720692568E0
4.174642880E-1,-1.099500060E-1,-8.959500194E-1,1.279950023E0,1.566233540E0
4.194272710E-1,-1.099500060E-1,-8.190000653E-1,1.203000069E0,1.459472259E0
4.213904980E-1,-7.200000435E-2,-7.429500222E-1,1.165050030E0,1.383654692E0
4.233536540E-1,-7.200000435E-2,-6.660000086E-1,1.126049995E0,1.310239903E0
4.253165830E-1,4.050000105E-3,-6.280500293E-1,1.126049995E0,1.289361018E0
4.272795790E-1,-3.299999982E-2,-5.509500504E-1,1.011000037E0,1.151848963E0
4.292426240E-1,4.200000316E-2,-5.509500504E-1,1.050000072E0,1.186511740E0
4.312056540E-1,4.200000316E-2,-5.130000114E-1,1.050000072E0,1.169372978E0
4.331687840E-1,8.100000024E-2,-5.130000114E-1,1.050000072E0,1.171422282E0
4.351318850E-1,1.189500093E-1,-4.740000367E-1,1.126049995E0,1.227523414E0
4.370952920E-1,8.100000024E-2,-5.130000114E-1,1.240950108E0,1.345246142E0
4.390585960E-1,8.100000024E-2,-4.740000367E-1,1.240950108E0,1.330862203E0
4.410216350E-1,4.200000316E-2,-5.130000114E-1,1.279950023E0,1.379566987E0
4.429847520E-1,1.189500093E-1,-4.740000367E-1,1.356000066E0,1.441374801E0
4.449478220E-1,1.570500135E-1,-4.740000367E-1,1.432950020E0,1.517460543E0
4.469109060E-1,8.100000024E-2,-4.740000367E-1,1.432950020E0,1.511483640E0
4.488740170E-1,8.100000024E-2,-3.979500234E-1,1.471050024E0,1.526077781E0
4.508371260E-1,1.189500093E-1,-3.589500189E-1,1.471050024E0,1.518875371E0
4.528003320E-1,1.189500093E-1,-3.589500189E-1,1.471050024E0,1.518875371E0
4.547635100E-1,4.200000316E-2,-2.830500007E-1,1.471050024E0,1.498622526E0
4.567267950E-1,8.100000024E-2,-3.210000098E-1,1.548000097E0,1.583005467E0
4.586900490E-1,1.189500093E-1,-2.440500110E-1,1.624950051E0,1.647474486E0
4.606530920E-1,8.100000024E-2,-2.059500068E-1,1.585950017E0,1.601316290E0
4.626162000E-1,4.200000316E-2,-1.680000126E-1,1.548000097E0,1.557656029E0
4.645794050E-1,-7.200000435E-2,-1.680000126E-1,1.585950017E0,1.596447763E0
4.665425820E-1,-1.099500060E-1,-1.680000126E-1,1.471050024E0,1.484688917E0
4.685056880E-1,-1.099500060E-1,-1.680000126E-1,1.471050024E0,1.484688917E0
4.704688150E-1,-2.250000089E-1,-1.290000081E-1,1.510050058E0,1.532160953E0
4.724318680E-1,-2.629500031E-1,-1.290000081E-1,1.471050024E0,1.499923958E0
4.743949540E-1,-3.400500119E-1,-9.105000645E-2,1.395000100E0,1.438731870E0
4.763572630E-1,-3.780000210E-1,-1.500000060E-2,1.279950023E0,1.334683886E0
4.783198000E-1,-3.780000210E-1,2.295000106E-2,1.126049995E0,1.188023279E0
4.802830140E-1,-4.170000255E-1,2.295000106E-2,1.011000037E0,1.093863245E0
4.822460290E-1,-5.700000525E-1,9.900000691E-2,6.280500293E-1,8.539015754E-1
4.842101680E-1,-5.700000525E-1,2.140500098E-1,2.830500007E-1,6.714423053E-1
4.861739670E-1,-7.230000496E-1,2.910000086E-1,-1.369500011E-1,7.913061225E-1
4.881371010E-1,-8.770500422E-1,3.679500222E-1,-8.659500480E-1,1.286263379E0
4.901004300E-1,-1.068000078E0,5.590500236E-1,-1.632000089E0,2.028937009E0
4.920633280E-1,-1.183050036E0,7.510500550E-1,-2.092050076E0,2.518006571E0
4.940263530E-1,-1.413000107E0,9.040500522E-1,-2.437050104E0,2.958561983E0
4.959896020E-1,-1.528050065E0,9.810000658E-1,-2.743950129E0,3.290373906E0
4.979527650E-1,-1.605000019E0,1.018950105E0,-2.859000206E0,3.433389951E0
4.999158280E-1,-1.642950058E0,1.057950020E0,-2.820000172E0,3.430880952E0
5.018789210E-1,-1.642950058E0,1.057950020E0,-2.667000055E0,3.306271682E0
5.038419950E-1,-1.681950092E0,1.018950105E0,-2.437050104E0,3.131521777E0
5.058050750E-1,-1.795950055E0,9.430500269E-1,-2.284050226E0,3.054777470E0
5.077683800E-1,-1.873050094E0,9.430500269E-1,-1.939050078E0,2.856146917E0
5.097316160E-1,-1.950000048E0,9.430500269E-1,-1.632000089E0,2.712059702E0
5.116946670E-1,-2.179949999E0,7.890000343E-1,-1.402050018E0,2.709325987E0
5.136577720E-1,-2.256000042E0,7.129500508E-1,-1.096050024E0,2.607519821E0
5.156207990E-1,-2.332950115E0,5.980500579E-1,-7.890000343E-1,2.534332489E0
5.175838490E-1,-2.410050154E0,5.209500194E-1,-5.209500194E-1,2.520142772E0
5.195469150E-1,-2.448000193E0,4.440000355E-1,-3.289500177E-1,2.509591419E0
5.215099860E-1,-2.371050119E0,2.910000086E-1,-1.369500011E-1,2.392763042E0
5.234728850E-1,-2.140950203E0,1.759500057E-1,1.300500035E-1,2.152101108E0
5.254358340E-1,-1.834950089E0,6.105000153E-2,2.830500007E-1,1.857656114E0
5.273987970E-1,-1.528050065E0,-9.105000645E-2,5.130000114E-1,1.614433683E0
5.293617550E-1,-1.144950032E0,-1.290000081E-1,7.429500222E-1,1.370958174E0
5.313247930E-1,-7.620000243E-1,-1.680000126E-1,9.730500579E-1,1.247274812E0
5.332878180E-1,-4.549500346E-1,-2.440500110E-1,1.240950108E0,1.344059936E0
5.352509490E-1,-1.480500102E-1,-3.979500234E-1,1.471050024E0,1.531101303E0
5.372140490E-1,1.189500093E-1,-5.509500504E-1,1.548000097E0,1.647422036E0
5.391781580E-1,3.870000243E-1,-6.660000086E-1,1.740000129E0,1.902872954E0
5.411419720E-1,6.940500140E-1,-8.190000653E-1,2.008050203E0,2.277000691E0
5.431051170E-1,9.619500637E-1,-1.048950076E0,2.314950228E0,2.717469180E0
5.450684490E-1,1.077000022E0,-1.164000034E0,2.659050226E0,3.096025393E0
5.470317080E-1,1.269000053E0,-1.393950105E0,2.851050138E0,3.417886031E0
5.489949880E-1,1.306950092E0,-1.585950017E0,3.081000090E0,3.703500716E0
5.509583890E-1,1.384050012E0,-1.777950048E0,3.196050167E0,3.910426764E0
5.529217550E-1,1.422000051E0,-2.008050203E0,3.426000118E0,4.218035867E0
5.548847740E-1,1.422000051E0,-2.122950077E0,3.502950191E0,4.335857610E0
5.568479010E-1,1.459950089E0,-2.238000154E0,3.655950069E0,4.528362824E0
5.588111490E-1,1.459950089E0,-2.391000032E0,3.733050108E0,4.667333128E0
5.607743610E-1,1.575000048E0,-2.506050110E0,3.886050224E0,4.884905183E0
5.627375510E-1,1.767000079E0,-2.659050226E0,3.847950220E0,4.999955828E0
5.647007470E-1,1.920000076E0,-2.773950100E0,3.733050108E0,5.031586485E0
5.666640220E-1,1.996950150E0,-2.926950216E0,3.388050079E0,4.902420913E0
5.686272460E-1,2.111999989E0,-3.157050133E0,2.965950251E0,4.819166980E0
5.705903440E-1,2.188950062E0,-3.387000084E0,2.391000032E0,4.688299595E0
5.725534790E-1,2.304000139E0,-3.732000113E0,1.701000094E0,4.704215429E0
5.745176260E-1,2.380050182E0,-4.192049980E0,1.087950110E0,4.941817211E0
5.764814770E-1,2.380050182E0,-4.804950237E0,-9.900000691E-2,5.363020292E0
5.784449510E-1,2.304000139E0,-5.839950085E0,-1.441050053E0,6.441277737E0
5.804085440E-1,1.959000111E0,-7.372950554E0,-3.012000084E0,8.201842830E0
5.823713070E-1,1.459950089E0,-9.250950813E0,-4.429950237E0,1.036030908E1
5.843343140E-1,7.699500322E-1,-1.135905075E1,-5.925000191E0,1.283458158E1
5.862969070E-1,-1.870500147E-1,-1.408095074E1,-7.342950344E0,1.588165864E1
5.882596210E-1,-1.375050068E0,-1.672500038E1,-8.148000717E0,1.865492740E1
5.902227640E-1,-2.640000105E0,-1.906305122E1,-8.761050224E0,2.114534283E1
5.921857780E-1,-3.559950113E0,-2.105595016E1,-8.722949982E0,2.306764267E1
5.941492270E-1,-4.402950287E0,-2.285805130E1,-7.918050289E0,2.458804589E1
5.961125480E-1,-5.284050465E0,-2.458200073E1,-6.730050087E0,2.602862892E1
5.980755840E-1,-5.821050167E0,-2.630700111E1,-5.542050362E0,2.750740364E1
6.000387030E-1,-6.166050434E0,-2.810895157E1,-4.084949970E0,2.906579007E1
6.020020920E-1,-6.088950157E0,-3.017805099E1,-2.590050220E0,3.089495810E1
6.039653990E-1,-5.668050289E0,-3.228600311E1,-7.510500550E-1,3.278836482E1
6.059274010E-1,-4.402950287E0,-3.470100021E1,1.279950023E0,3.500262360E1
6.078897850E-1,-2.908050060E0,-3.688605118E1,3.234000206E0,3.714157083E1
6.098536560E-1,-1.183050036E0,-3.895500183E1,5.151000023E0,3.931188849E1
6.118170910E-1,8.470500112E-1,-4.033500290E1,6.301050186E0,4.083299139E1
6.137803180E-1,2.878050089E0,-4.125495148E1,6.799050331E0,4.191039584E1
6.157436160E-1,5.331000328E0,-4.175295258E1,6.876000404E0,4.264982995E1
6.177066100E-1,7.438950539E0,-4.179195023E1,6.301050186E0,4.291396419E1
6.196696930E-1,9.700950623E0,-4.156200027E1,5.227050304E0,4.299802745E1
6.216329480E-1,1.154100037E1,-4.075695038E1,3.733050108E0,4.252363292E1
6.235961530E-1,1.295895100E1,-3.952995300E1,1.777950048E0,4.163787581E1
6.255599930E-1,1.341900063E1,-3.738405228E1,5.295000225E-2,3.971951342E1
6.275236340E-1,1.284405041E1,-3.462405014E1,-1.747050047E0,3.697088940E1
6.294866150E-1,1.154100037E1,-3.205605316E1,-3.472050190E0,3.424675702E1
6.314497890E-1,1.000695038E1,-2.994795227E1,-4.698000431E0,3.192319077E1
6.334128040E-1,8.244000435E0,-2.841495132E1,-5.350050449E0,3.006652693E1
6.353758660E-1,6.520050526E0,-2.734200096E1,-5.542050362E0,2.864978879E1
6.373394950E-1,4.948050022E0,-2.665200043E1,-5.580000401E0,2.767577877E1
6.393029510E-1,4.182000160E0,-2.619195175E1,-5.272950172E0,2.704277104E1
6.412659640E-1,3.874950171E0,-2.611605072E1,-4.698000431E0,2.681668421E1
6.432291070E-1,3.952050209E0,-2.623095131E1,-4.237950325E0,2.686339015E1
6.451923520E-1,4.335000038E0,-2.665200043E1,-3.855000257E0,2.727604039E1
6.471555670E-1,5.062950134E0,-2.734200096E1,-3.319050074E0,2.800418851E1
6.491191560E-1,5.944950104E0,-2.822400093E1,-2.782050133E0,2.897717142E1
6.510826390E-1,7.056000233E0,-2.918205070E1,-2.359950066E0,3.011558711E1
6.530458270E-1,7.938000202E0,-3.002505112E1,-2.092050076E0,3.112703351E1
6.550091020E-1,8.704050064E0,-3.071505165E1,-1.786050081E0,3.197444074E1
6.569721450E-1,9.433050156E0,-3.121305084E1,-1.402050018E0,3.263744356E1
6.589352560E-1,1.000695038E1,-3.151995087E1,-1.057050109E0,3.308721375E1
6.608988670E-1,1.023705006E1,-3.167295074E1,-9.420000315E-1,3.329955505E1
6.628623310E-1,1.027605057E1,-3.171105194E1,-1.018950105E0,3.335005682E1
6.648257480E-1,1.004595089E1,-3.159600067E1,-1.210950017E0,3.317672057E1
6.667891790E-1,9.394050598E0,-3.121305084E1,-1.747050047E0,3.264283862E1
6.687523760E-1,8.704050064E0,-3.079200172E1,-2.514000177E0,3.209716583E1
6.707156410E-1,7.477950573E0,-3.006300163E1,-3.394950151E0,3.116455516E1
6.726790070E-1,6.213000298E0,-2.914305115E1,-4.123950005E0,3.008198409E1
6.746423700E-1,5.215950012E0,-2.810895157E1,-4.507050037E0,2.894188648E1
6.766055340E-1,4.488000393E0,-2.707395172E1,-4.429950237E0,2.779865947E1
6.785687560E-1,3.913050175E0,-2.600100136E1,-4.084949970E0,2.660922490E1
6.805314480E-1,3.492000103E0,-2.504205132E1,-3.702000141E0,2.555392737E1
6.824942950E-1,2.992950201E0,-2.416095161E1,-3.241950035E0,2.456052878E1
6.844572460E-1,2.494950056E0,-2.339400101E1,-2.704950094E0,2.368165564E1
6.864201870E-1,1.843950033E0,-2.262795067E1,-2.245050192E0,2.281369224E1
6.883827480E-1,1.230000019E0,-2.201505089E1,-1.708950043E0,2.211551211E1
6.903454200E-1,5.410500169E-1,-2.140095139E1,-1.287000060E0,2.144644083E1
6.923085650E-1,-2.250000089E-1,-2.094105148E1,-7.890000343E-1,2.095711772E1
6.942715720E-1,-9.150000215E-1,-2.059605026E1,-2.520000041E-1,2.061790522E1
6.962339410E-1,-1.681950092E0,-2.040495110E1,9.195000678E-2,2.047436055E1
6.981964970E-1,-2.295000076E0,-2.017500114E1,4.360500276E-1,2.030979656E1
7.001596620E-1,-2.908050060E0,-1.998300171E1,7.050000429E-1,2.020579465E1
7.021226490E-1,-3.445050240E0,-1.990695000E1,8.959500194E-1,2.022270397E1
7.040857410E-1,-3.865950108E0,-1.979205132E1,1.087950110E0,2.019540792E1
7.060488020E-1,-4.210950375E0,-1.979205132E1,1.165050030E0,2.026856531E1
7.080120130E-1,-4.402950287E0,-1.979205132E1,1.279950023E0,2.031623830E1
7.099751830E-1,-4.633050442E0,-1.986795044E1,1.240950108E0,2.043870270E1
7.119384250E-1,-4.824000359E0,-1.986795044E1,1.203000069E0,2.048056746E1
7.139016450E-1,-4.863000393E0,-1.998300171E1,1.279950023E0,2.060600403E1
7.158647430E-1,-4.863000393E0,-2.009805107E1,1.126049995E0,2.070865564E1
7.178278770E-1,-4.824000359E0,-2.025105095E1,1.126049995E0,2.084811820E1
7.197908940E-1,-4.708950043E0,-2.036595154E1,1.165050030E0,2.093569999E1
7.217539490E-1,-4.708950043E0,-2.040495110E1,1.165050030E0,2.097364015E1
7.237170290E-1,-4.518000126E0,-2.052000046E1,1.279950023E0,2.105043981E1
7.256801010E-1,-4.288050175E0,-2.071095085E1,1.279950023E0,2.118889170E1
7.276435390E-1,-4.057950020E0,-2.074995041E1,1.203000069E0,2.117721912E1
7.296068700E-1,-3.904950142E0,-2.082600021E1,1.240950108E0,2.122524152E1
7.315700800E-1,-3.751050234E0,-2.082600021E1,1.279950023E0,2.119978620E1
7.335333290E-1,-3.598050117E0,-2.078805161E1,1.203000069E0,2.113140467E1
7.354965570E-1,-3.367950201E0,-2.071095085E1,1.126049995E0,2.101319972E1
7.374597910E-1,-3.291000128E0,-2.071095085E1,1.087950110E0,2.099899527E1
7.394226610E-1,-3.175950050E0,-2.055795097E1,1.050000072E0,2.082831023E1
7.413856370E-1,-3.061050177E0,-2.048100090E1,9.349500537E-1,2.072958170E1
7.433487700E-1,-2.946000099E0,-2.025105095E1,7.810500264E-1,2.047911180E1
7.453118600E-1,-2.830950022E0,-1.998300171E1,5.130000114E-1,2.018905160E1
7.472758360E-1,-2.601000071E0,-1.967700005E1,2.830500007E-1,1.985018009E1
7.492395530E-1,-2.295000076E0,-1.940805054E1,9.195000678E-2,1.954348755E1
7.512026560E-1,-2.065050125E0,-1.906305122E1,1.500000060E-2,1.917458159E1
7.531659390E-1,-1.911000133E0,-1.867995071E1,-1.369500011E-1,1.877794545E1
7.551293520E-1,-1.758000135E0,-1.829700089E1,-2.140500098E-1,1.838250862E1
7.570927500E-1,-1.642950058E0,-1.791300011E1,-4.060500264E-1,1.799276895E1
7.590560880E-1,-1.489950061E0,-1.753005028E1,-3.670500219E-1,1.759708327E1
7.610194440E-1,-1.297950029E0,-1.707000160E1,-9.900000691E-2,1.711956279E1
7.629830130E-1,-1.144950032E0,-1.672500038E1,5.295000225E-2,1.676422835E1
7.649465190E-1,-1.183050036E0,-1.626495171E1,9.195000678E-2,1.630817943E1
7.669099290E-1,-1.030050039E0,-1.572900105E1,9.195000678E-2,1.576296076E1
7.688733670E-1,-1.030050039E0,-1.526895046E1,1.300500035E-1,1.530420741E1
7.708366970E-1,-9.150000215E-1,-1.488600063E1,2.449500114E-1,1.491610674E1
7.728000590E-1,-9.150000215E-1,-1.446405029E1,2.449500114E-1,1.449503282E1
7.747632670E-1,-7.230000496E-1,-1.408095074E1,2.070000172E-1,1.410101953E1
7.767265210E-1,-6.469500065E-1,-1.365900040E1,1.300500035E-1,1.367493141E1
7.786897860E-1,-5.320500135E-1,-1.316100025E1,9.195000678E-2,1.317207120E1
7.806530520E-1,-2.629500031E-1,-1.281600094E1,5.295000225E-2,1.281880753E1
7.826164580E-1,-3.299999982E-2,-1.247100067E1,1.300500035E-1,1.247172241E1
7.845798220E-1,1.570500135E-1,-1.204905033E1,5.295000225E-2,1.205019014E1
7.865442460E-1,4.639500082E-1,-1.162800026E1,-1.759500057E-1,1.163858230E1
7.885083600E-1,8.470500112E-1,-1.135905075E1,-2.910000086E-1,1.139430598E1
7.904718160E-1,1.114950061E0,-1.090005016E1,-4.060500264E-1,1.096444635E1
7.924354540E-1,1.345050097E0,-1.051605034E1,-5.590500236E-1,1.061645004E1
7.943987950E-1,1.537050128E0,-1.013295078E1,-6.739500165E-1,1.027099914E1
7.963622230E-1,1.651950121E0,-9.711000443E0,-8.269500136E-1,9.885156302E0
7.983254200E-1,1.843950033E0,-9.289950371E0,-1.057050109E0,9.529988696E0
8.002886850E-1,2.035050154E0,-8.983050346E0,-1.210950017E0,9.289942013E0
8.022521080E-1,2.149950027E0,-8.562000275E0,-1.363950014E0,8.932552461E0
8.042154710E-1,2.265000105E0,-8.140049934E0,-1.632000089E0,8.605467024E0
8.061789040E-1,2.494950056E0,-7.909950256E0,-1.671000123E0,8.460752345E0
8.081423170E-1,2.610000134E0,-7.488000393E0,-1.671000123E0,8.103980009E0
8.101056530E-1,2.686950207E0,-6.990000248E0,-1.861950040E0,7.716648420E0
8.120690120E-1,2.839950085E0,-6.760050297E0,-1.747050047E0,7.537624318E0
8.140323670E-1,2.878050089E0,-6.300000191E0,-1.747050047E0,7.143203664E0
8.159957460E-1,2.802000046E0,-5.839950085E0,-1.747050047E0,6.708830384E0
8.179588170E-1,2.878050089E0,-5.572050095E0,-1.747050047E0,6.510230291E0
8.199219790E-1,2.917050123E0,-5.304000378E0,-1.708950043E0,6.289841944E0
8.218853550E-1,2.992950201E0,-5.035050392E0,-1.555950046E0,6.060566302E0
8.238486690E-1,3.108000040E0,-4.729050159E0,-1.479000092E0,5.849018801E0
8.258115800E-1,3.262050152E0,-4.422000408E0,-1.326000094E0,5.652728107E0
8.277746030E-1,3.376950264E0,-4.153950214E0,-1.249050021E0,5.497201236E0
8.297380030E-1,3.492000103E0,-3.924000263E0,-9.810000658E-1,5.343613376E0
8.317012930E-1,3.682950258E0,-3.694050074E0,-6.739500165E-1,5.259689836E0
8.336640190E-1,3.682950258E0,-3.502050161E0,-4.819500148E-1,5.104973433E0
8.356269110E-1,3.682950258E0,-3.310950041E0,-1.369500011E-1,4.954318125E0
8.375894480E-1,3.607050180E0,-3.118950129E0,1.300500035E-1,4.770280276E0
8.395520790E-1,3.682950258E0,-2.926950216E0,3.600000143E-1,4.718131005E0
8.415152310E-1,3.682950258E0,-2.736000061E0,7.429500222E-1,4.647772980E0
8.434782310E-1,3.721950293E0,-2.581950188E0,1.011000037E0,4.641282347E0
8.454413210E-1,3.682950258E0,-2.351999998E0,1.126049995E0,4.512650572E0
8.474043850E-1,3.798000097E0,-2.199000120E0,1.203000069E0,4.550562101E0
8.493673440E-1,3.952050209E0,-1.930950046E0,1.318050027E0,4.591788846E0
8.513303240E-1,4.027950287E0,-1.738950133E0,1.318050027E0,4.581002833E0
8.532935520E-1,4.143000126E0,-1.432950020E0,1.240950108E0,4.556067709E0
8.552567070E-1,4.297049999E0,-1.279050112E0,1.240950108E0,4.651942073E0
8.572199960E-1,4.372950077E0,-9.730500579E-1,1.165050030E0,4.628915679E0
8.591832450E-1,4.372950077E0,-7.039500475E-1,8.959500194E-1,4.518956128E0
8.611468220E-1,4.488000393E0,-5.130000114E-1,7.429500222E-1,4.577913419E0
8.631102790E-1,4.372950077E0,-2.830500007E-1,4.360500276E-1,4.403742648E0
8.650741920E-1,4.372950077E0,-1.680000126E-1,3.220500052E-1,4.388010094E0
8.670379720E-1,4.258049965E0,-9.105000645E-2,9.195000678E-2,4.260015776E0
8.690006140E-1,4.297049999E0,2.295000106E-2,-9.900000691E-2,4.298251551E0
8.709635890E-1,4.297049999E0,2.140500098E-1,-2.910000086E-1,4.312207916E0
8.729271680E-1,4.258049965E0,3.289500177E-1,-4.819500148E-1,4.297845208E0
8.748905770E-1,4.335000038E0,4.060500264E-1,-6.360000372E-1,4.400181587E0
8.768539580E-1,4.297049999E0,5.590500236E-1,-7.890000343E-1,4.404508676E0
8.788173480E-1,4.335000038E0,6.739500165E-1,-1.018950105E0,4.503853158E0
8.807805970E-1,4.372950077E0,8.280000687E-1,-1.134000063E0,4.592845810E0
8.827438870E-1,4.372950077E0,9.040500522E-1,-1.326000094E0,4.658140737E0
8.847071020E-1,4.488000393E0,1.057950020E0,-1.441050053E0,4.830945148E0
8.866703430E-1,4.527000427E0,1.096050024E0,-1.632000089E0,4.935431371E0
8.886335270E-1,4.564949989E0,1.173000097E0,-1.861950040E0,5.067697266E0
8.905967280E-1,4.642050266E0,1.249050021E0,-1.939050078E0,5.183499960E0
8.925598290E-1,4.642050266E0,1.288050056E0,-2.092050076E0,5.252083124E0
8.945229590E-1,4.756950378E0,1.326000094E0,-2.245050192E0,5.424675430E0
8.964861810E-1,4.833000183E0,1.363950014E0,-2.437050104E0,5.581887102E0
8.984493610E-1,4.795050144E0,1.441050053E0,-2.667000055E0,5.672919921E0
9.004126010E-1,4.756950378E0,1.594050050E0,-2.935050249E0,5.812408488E0
9.023758230E-1,4.717950344E0,1.633050084E0,-3.280050039E0,5.973661883E0
9.043390550E-1,4.717950344E0,1.633050084E0,-3.472050190E0,6.081203873E0
9.063022840E-1,4.680000305E0,1.671000123E0,-3.855000257E0,6.289329953E0
9.082655150E-1,4.717950344E0,1.786050081E0,-4.123950005E0,6.515826424E0
9.102287460E-1,4.642050266E0,1.863000035E0,-4.353000164E0,6.630837823E0
9.121920220E-1,4.680000305E0,1.863000035E0,-4.507050037E0,6.759191670E0
9.141552850E-1,4.680000305E0,1.939050078E0,-4.660050392E0,6.883196040E0
9.161188260E-1,4.717950344E0,1.939050078E0,-4.698000431E0,6.934708264E0
9.180822850E-1,4.833000183E0,1.900950074E0,-4.468050003E0,6.850910362E0
9.200456430E-1,4.909950256E0,1.900950074E0,-4.123950005E0,6.687913452E0
9.220090410E-1,4.948050022E0,1.786050081E0,-3.739950180E0,6.454486909E0
9.239722880E-1,5.101050377E0,1.708950043E0,-3.165000200E0,6.241670567E0
9.259355790E-1,5.140050411E0,1.594050050E0,-2.437050104E0,5.907649871E0
9.278989340E-1,5.254950047E0,1.402950048E0,-1.671000123E0,5.689904238E0
9.298622700E-1,5.331000328E0,1.096050024E0,-9.040500522E-1,5.517082259E0
9.318247810E-1,5.293050289E0,7.510500550E-1,-2.205000073E-2,5.346114828E0
9.337875210E-1,5.062950134E0,1.759500057E-1,6.280500293E-1,5.104788860E0
9.357517360E-1,4.795050144E0,-1.680000126E-1,1.318050027E0,4.975739720E0
9.377155190E-1,4.527000427E0,-5.130000114E-1,1.624950051E0,4.837082235E0
9.396788820E-1,4.258049965E0,-8.959500194E-1,2.046000004E0,4.808308638E0
9.416423680E-1,3.952050209E0,-1.240950108E0,2.391000032E0,4.782837984E0
9.436056760E-1,3.682950258E0,-1.432950020E0,2.583000183E0,4.721160695E0
9.455690460E-1,3.376950264E0,-1.663050056E0,2.659050226E0,4.608695768E0
9.475321180E-1,3.070050240E0,-1.777950048E0,2.620950222E0,4.410861017E0
9.494952770E-1,2.764050245E0,-1.893000126E0,2.583000183E0,4.230285236E0
9.514586540E-1,2.572050095E0,-2.008050203E0,2.545050144E0,4.138234834E0
9.534219670E-1,2.380050182E0,-2.122950077E0,2.391000032E0,3.986030238E0
9.553849940E-1,2.304000139E0,-2.199000120E0,2.430000067E0,4.006110145E0
9.573481120E-1,2.074050188E0,-2.314050198E0,2.314950228E0,3.874984781E0
9.593110470E-1,1.804950118E0,-2.314050198E0,2.122950077E0,3.622097497E0
9.612740350E-1,1.575000048E0,-2.314050198E0,2.122950077E0,3.513171003E0
9.632374410E-1,1.384050012E0,-2.238000154E0,2.008050203E0,3.310061139E0
9.652007250E-1,1.306950092E0,-2.199000120E0,1.893000126E0,3.182321409E0
9.671636030E-1,1.269000053E0,-2.161050081E0,1.777950048E0,3.072719474E0
9.691266210E-1,1.192050099E0,-2.161050081E0,1.548000097E0,2.913318588E0
9.710898870E-1,1.077000022E0,-2.083950043E0,1.432950020E0,2.748840226E0
9.730530810E-1,1.000050068E0,-2.083950043E0,1.203000069E0,2.605792986E0
9.750161390E-1,8.850000501E-1,-2.046000004E0,9.730500579E-1,2.432317315E0
9.769792370E-1,7.320000529E-1,-1.969050050E0,7.429500222E-1,2.228218327E0
9.789417060E-1,6.169500351E-1,-1.893000126E0,4.750500321E-1,2.046887724E0
9.809043720E-1,5.020500422E-1,-1.777950048E0,3.220500052E-1,1.875333790E0
9.828680590E-1,3.109500110E-1,-1.624050021E0,2.449500114E-1,1.671594714E0
9.848314460E-1,2.719500065E-1,-1.509000063E0,1.300500035E-1,1.538814803E0
9.867943360E-1,1.570500135E-1,-1.432950020E0,5.295000225E-2,1.442502745E0
9.887573720E-1,1.189500093E-1,-1.279050112E0,1.500000060E-2,1.284656878E0
9.907204490E-1,4.200000316E-2,-1.203000069E0,-2.205000073E-2,1.203934952E0
9.926835180E-1,-3.299999982E-2,-1.087950110E0,-9.900000691E-2,1.092943477E0
9.946467320E-1,-3.299999982E-2,-9.730500579E-1,-9.900000691E-2,9.786298670E-1
9.966099030E-1,-3.299999982E-2,-8.959500194E-1,-9.900000691E-2,9.020068950E-1
9.985730100E-1,-7.200000435E-2,-7.810500264E-1,-1.369500011E-1,7.962276353E-1
1.000536136E0,-1.099500060E-1,-7.039500475E-1,-1.369500011E-1,7.255273778E-1
1.002499543E0,-1.480500102E-1,-7.039500475E-1,-6.105000153E-2,7.219359927E-1
1.004462850E0,-1.870500147E-1,-5.509500504E-1,-9.900000691E-2,5.901988371E-1
1.006426248E0,-2.250000089E-1,-5.130000114E-1,-2.205000073E-2,5.606070088E-1
1.008389619E0,-2.629500031E-1,-4.360500276E-1,-2.205000073E-2,5.096749290E-1
1.010353052E0,-3.019500077E-1,-3.589500189E-1,1.500000060E-2,4.693015270E-1
1.012316466E0,-4.170000255E-1,-3.210000098E-1,5.295000225E-2,5.288986011E-1
1.014280156E0,-5.320500135E-1,-2.830500007E-1,9.195000678E-2,6.096304811E-1
1.016243768E0,-5.700000525E-1,-2.059500068E-1,5.295000225E-2,6.083742005E-1
1.018207160E0,-6.850500107E-1,-1.680000126E-1,5.295000225E-2,7.073338845E-1
1.020170616E0,-7.620000243E-1,-1.680000126E-1,5.295000225E-2,7.820944598E-1
1.022133989E0,-8.770500422E-1,-1.680000126E-1,1.300500035E-1,9.024155274E-1
1.024097386E0,-9.919500351E-1,-1.290000081E-1,1.300500035E-1,1.008721407E0
1.026060047E0,-1.222050071E0,-1.290000081E-1,9.195000678E-2,1.232275205E0
1.028022924E0,-1.489950061E0,2.295000106E-2,1.500000060E-2,1.490202297E0
1.029985989E0,-1.758000135E0,6.105000153E-2,1.500000060E-2,1.759123810E0
1.031948999E0,-1.987950087E0,1.380000114E-1,5.295000225E-2,1.993437547E0
1.033912448E0,-2.218050003E0,2.530499995E-1,-2.205000073E-2,2.232547048E0
1.035875768E0,-2.448000193E0,2.910000086E-1,-6.105000153E-2,2.465991292E0
1.037838669E0,-2.677950144E0,3.289500177E-1,-6.105000153E-2,2.698768643E0
1.039801693E0,-2.985000134E0,4.060500264E-1,-6.105000153E-2,3.013109610E0
1.041764778E0,-3.253050089E0,4.440000355E-1,-2.205000073E-2,3.283284501E0
1.043727845E0,-3.483000278E0,4.830000103E-1,-1.369500011E-1,3.518996342E0
1.045691240E0,-3.751050234E0,5.209500194E-1,-1.369500011E-1,3.789527950E0
1.047654538E0,-3.981000185E0,5.590500236E-1,-1.369500011E-1,4.022394151E0
1.049617988E0,-4.057950020E0,6.360000372E-1,-6.105000153E-2,4.107941274E0
1.051581389E0,-4.249050140E0,7.129500508E-1,-2.205000073E-2,4.308504505E0
1.053544727E0,-4.441050053E0,7.129500508E-1,-6.105000153E-2,4.498327517E0
1.055508083E0,-4.479000092E0,7.129500508E-1,-9.900000691E-2,4.536467855E0
1.057471157E0,-4.555950165E0,6.739500165E-1,-1.369500011E-1,4.607563980E0
1.059434314E0,-4.555950165E0,6.360000372E-1,-1.759500057E-1,4.603491757E0
1.061397696E0,-4.555950165E0,5.980500579E-1,-9.900000691E-2,4.596101258E0
1.063361009E0,-4.479000092E0,4.830000103E-1,1.500000060E-2,4.504992323E0
1.065324451E0,-4.249050140E0,2.530499995E-1,9.195000678E-2,4.257571632E0
1.067287855E0,-4.096050262E0,1.380000114E-1,1.680000126E-1,4.101816154E0
1.069251193E0,-3.865950108E0,-9.105000645E-2,1.680000126E-1,3.870669754E0
1.071214550E0,-3.483000278E0,-2.059500068E-1,3.600000143E-1,3.507606927E0
1.073177957E0,-3.022950172E0,-4.360500276E-1,4.750500321E-1,3.090961000E0
1.075141336E0,-2.793000221E0,-6.660000086E-1,5.899500251E-1,2.931287649E0
1.077104542E0,-2.563050032E0,-8.190000653E-1,6.280500293E-1,2.763047848E0
1.079067799E0,-2.371050119E0,-1.087950110E0,7.050000429E-1,2.702321071E0
1.081031070E0,-2.256000042E0,-1.240950108E0,6.280500293E-1,2.650271722E0
1.082994336E0,-2.103000164E0,-1.393950105E0,5.130000114E-1,2.574660288E0
1.084958222E0,-1.911000133E0,-1.585950017E0,3.979500234E-1,2.515059280E0
1.086921937E0,-1.681950092E0,-1.854000092E0,2.830500007E-1,2.519204191E0
1.088885446E0,-1.336950064E0,-2.122950077E0,2.070000172E-1,2.517379890E0
1.090849016E0,-9.529500604E-1,-2.428950071E0,5.295000225E-2,2.609734847E0
1.092812189E0,-5.320500135E-1,-2.773950100E0,5.295000225E-2,2.825009748E0
1.094775478E0,-1.099500060E-1,-3.118950129E0,-6.105000153E-2,3.121484584E0
1.096738877E0,1.570500135E-1,-3.426000118E0,-2.140500098E-1,3.436271078E0
1.098702244E0,4.639500082E-1,-3.732000113E0,-4.060500264E-1,3.782585237E0
1.100666398E0,6.550500393E-1,-4.039050102E0,-7.890000343E-1,4.167197780E0
1.102630321E0,8.470500112E-1,-4.384050369E0,-1.210950017E0,4.626423165E0
1.104593389E0,9.240000248E-1,-4.767000198E0,-1.671000123E0,5.135202854E0
1.106556708E0,9.240000248E-1,-5.265000343E0,-2.206950188E0,5.783133562E0
1.108520153E0,9.619500637E-1,-5.764050484E0,-2.859000206E0,6.505652010E0
1.110483557E0,1.000050068E0,-6.454050541E0,-3.702000141E0,7.507308011E0
1.112447074E0,9.619500637E-1,-7.258050442E0,-4.621950150E0,8.658352460E0
1.114410557E0,8.850000501E-1,-8.101950645E0,-5.350050449E0,9.749249672E0
1.116373565E0,8.089500666E-1,-9.289950371E0,-5.809950352E0,1.098695141E1
1.118336713E0,6.169500351E-1,-1.040100002E1,-5.962950230E0,1.200492417E1
1.120299088E0,4.639500082E-1,-1.170405102E1,-5.772000313E0,1.305817933E1
1.122261699E0,1.960500032E-1,-1.319895077E1,-5.272950172E0,1.421459604E1
1.124225035E0,-1.099500060E-1,-1.465605068E1,-4.545000076E0,1.534499711E1
1.126188158E0,-5.700000525E-1,-1.603499985E1,-3.739950180E0,1.647523437E1
1.128151542E0,-1.144950032E0,-1.729995155E1,-2.782050133E0,1.755958534E1
1.130114850E0,-1.681950092E0,-1.841205025E1,-1.747050047E0,1.857107251E1
1.132078078E0,-2.256000042E0,-1.952295113E1,-8.659500480E-1,1.967193499E1
1.134041323E0,-2.601000071E0,-2.078805161E1,-2.520000041E-1,2.095165375E1
1.136004010E0,-2.908050060E0,-2.212995148E1,3.979500234E-1,2.232375129E1
1.137966861E0,-3.214950085E0,-2.362395096E1,9.730500579E-1,2.386155463E1
1.139930201E0,-3.253050089E0,-2.519595146E1,1.585950017E0,2.545453874E1
1.141893398E0,-3.022950172E0,-2.699700165E1,2.391000032E0,2.727073902E1
1.143856815E0,-2.755050182E0,-2.841495132E1,3.502950191E0,2.876230902E1
1.145820167E0,-2.524950027E0,-2.960295105E1,3.808950186E0,2.995360054E1
1.147783692E0,-2.140950203E0,-3.052305222E1,4.116000175E0,3.087364316E1
1.149747167E0,-1.375050068E0,-3.136605072E1,4.231050014E0,3.167998871E1
1.151711483E0,-3.019500077E-1,-3.213300323E1,4.269000053E0,3.241674617E1
1.153675552E0,9.240000248E-1,-3.267000198E1,4.116000175E0,3.294122437E1
1.155638674E0,1.996950150E0,-3.278505325E1,4.039050102E0,3.309322366E1
1.157602049E0,3.070050240E0,-3.278505325E1,3.618000269E0,3.312664866E1
1.159565569E0,4.066950321E0,-3.255495071E1,3.157950163E0,3.295963516E1
1.161529047E0,4.795050144E0,-3.217095184E1,2.314950228E0,3.260861302E1
1.163493497E0,5.560950279E0,-3.171105194E1,1.356000066E0,3.222349639E1
1.165457663E0,6.021000385E0,-3.098295212E1,2.070000172E-1,3.156324788E1
1.167421275E0,5.983050346E0,-2.994795227E1,-7.510500550E-1,3.054899037E1
1.169385049E0,5.560950279E0,-2.887500191E1,-1.441050053E0,2.944089891E1
1.171348592E0,5.140050411E0,-2.795505142E1,-1.594050050E0,2.846833353E1
1.173312203E0,4.680000305E0,-2.737995148E1,-1.402050018E0,2.781240533E1
1.175275684E0,4.258049965E0,-2.707395172E1,-1.096050024E0,2.742865613E1
1.177239203E0,3.798000097E0,-2.703495216E1,-6.739500165E-1,2.730874680E1
1.179202254E0,3.529950142E0,-2.726505089E1,-9.900000691E-2,2.749278722E1
1.181165439E0,3.568050146E0,-2.761005211E1,2.830500007E-1,2.784108612E1
1.183128452E0,3.568050146E0,-2.803200150E1,7.050000429E-1,2.826696154E1
1.185091516E0,3.721950293E0,-2.837700081E1,1.126049995E0,2.864219051E1
1.187054819E0,3.837000132E0,-2.883705139E1,1.432950020E0,2.912647333E1
1.189018052E0,3.798000097E0,-2.914305115E1,1.471050024E0,2.942628456E1
1.190981472E0,3.798000097E0,-2.948805046E1,1.471050024E0,2.976800149E1
1.192944831E0,3.952050209E0,-2.979495049E1,1.471050024E0,3.009188867E1
1.194907860E0,4.219950199E0,-3.010200119E1,1.395000100E0,3.042834995E1
1.196870986E0,4.335000038E0,-3.017805099E1,1.203000069E0,3.051154202E1
1.198834189E0,4.297049999E0,-3.010200119E1,1.011000037E0,3.042395825E1
1.200797369E0,4.143000126E0,-2.998695183E1,9.349500537E-1,3.028623221E1
1.202760969E0,4.027950287E0,-2.987205124E1,9.730500579E-1,3.015809436E1
1.204724446E0,3.798000097E0,-2.960295105E1,1.011000037E0,2.986271315E1
1.206687455E0,3.874950171E0,-2.941200066E1,1.011000037E0,2.968338159E1
1.208650602E0,4.182000160E0,-2.964195061E1,8.200500607E-1,2.994673343E1
1.210614612E0,4.564949989E0,-2.979495049E1,7.050000429E-1,3.015086844E1
1.212578369E0,4.872000217E0,-3.002505112E1,2.449500114E-1,3.041874556E1
1.214541632E0,5.254950047E0,-3.021705055E1,-3.289500177E-1,3.067234670E1
1.216505049E0,5.523000240E0,-3.037005234E1,-8.659500480E-1,3.088030894E1
1.218468652E0,6.060000420E0,-3.040800095E1,-1.363950014E0,3.103595473E1
1.220432201E0,6.442950249E0,-3.037005234E1,-2.169000149E0,3.112163634E1
1.222395918E0,6.787950516E0,-3.013995171E1,-2.859000206E0,3.102687292E1
1.224359586E0,7.095000267E0,-2.987205124E1,-3.510000229E0,3.090305123E1
1.226322544E0,7.324050426E0,-2.956500053E1,-3.855000257E0,3.070166116E1
1.228285723E0,7.516050339E0,-2.914305115E1,-4.009050369E0,3.036249212E1
1.230248916E0,7.669050217E0,-2.856900215E1,-4.009050369E0,2.985087436E1
1.232212105E0,7.593000412E0,-2.791695213E1,-3.817050219E0,2.918183928E1
1.234175704E0,7.516050339E0,-2.726505089E1,-3.433950186E0,2.848975301E1
1.236139182E0,7.210050106E0,-2.657595062E1,-2.896950245E0,2.768859503E1
1.238102372E0,6.865050316E0,-2.573205185E1,-2.284050226E0,2.672983901E1
1.240065646E0,6.366000175E0,-2.492700195E1,-1.632000089E0,2.577876663E1
1.242029048E0,5.983050346E0,-2.416095161E1,-1.057050109E0,2.491316578E1
1.243992413E0,5.485050201E0,-2.335605049E1,-5.209500194E-1,2.399713023E1
1.245955127E0,4.987050056E0,-2.255100060E1,-9.900000691E-2,2.309606237E1
1.247918031E0,4.564949989E0,-2.197605133E1,4.360500276E-1,2.244940400E1
1.249881497E0,4.066950321E0,-2.140095139E1,1.011000037E0,2.180740531E1
1.251844798E0,3.568050146E0,-2.098005104E1,1.318050027E0,2.132207259E1
1.253808017E0,3.031950235E0,-2.074995041E1,1.510050058E0,2.102459073E1
1.255771261E0,2.494950056E0,-2.078805161E1,1.548000097E0,2.099438424E1
1.257734490E0,2.074050188E0,-2.090295029E1,1.548000097E0,2.106255728E1
1.259697723E0,1.729050040E0,-2.105595016E1,1.471050024E0,2.117797534E1
1.261660699E0,1.384050012E0,-2.117100143E1,1.318050027E0,2.125709651E1
1.263623771E0,1.153950095E0,-2.113305092E1,1.050000072E0,2.119056257E1
1.265587028E0,6.550500393E-1,-2.113305092E1,6.280500293E-1,2.115252653E1
1.267550230E0,1.960500032E-1,-2.109495163E1,1.300500035E-1,2.109626348E1
1.269513332E0,-1.480500102E-1,-2.105595016E1,-1.759500057E-1,2.105720576E1
1.271476463E0,-4.170000255E-1,-2.098005104E1,-4.440000355E-1,2.098889151E1
1.273439705E0,-6.469500065E-1,-2.086500168E1,-6.360000372E-1,2.088471535E1
1.275402918E0,-9.150000215E-1,-2.074995041E1,-8.269500136E-1,2.078657050E1
1.277366152E0,-1.106999993E0,-2.059605026E1,-1.018950105E0,2.065093205E1
1.279329379E0,-1.222050071E0,-2.032800102E1,-1.018950105E0,2.039017634E1
1.281292611E0,-1.222050071E0,-2.005995178E1,-9.810000658E-1,2.012106938E1
1.283255841E0,-1.375050068E0,-1.975305176E1,-9.810000658E-1,1.982514004E1
1.285219028E0,-1.375050068E0,-1.944705009E1,-9.810000658E-1,1.952026847E1
1.287182227E0,-1.375050068E0,-1.906305122E1,-9.040500522E-1,1.913394866E1
1.289145508E0,-1.375050068E0,-1.864200020E1,-9.040500522E-1,1.871449280E1
1.291108764E0,-1.336950064E0,-1.822005081E1,-9.420000315E-1,1.829330618E1
1.293071991E0,-1.336950064E0,-1.772205162E1,-1.018950105E0,1.780159567E1
1.295035227E0,-1.297950029E0,-1.733895111E1,-1.057050109E0,1.741956529E1
1.296998466E0,-1.336950064E0,-1.684005165E1,-1.057050109E0,1.692607840E1
1.298961698E0,-1.297950029E0,-1.630395126E1,-1.134000063E0,1.639479970E1
1.300924748E0,-1.222050071E0,-1.576695061E1,-1.210950017E0,1.586053397E1
1.302887852E0,-1.068000078E0,-1.534605026E1,-1.287000060E0,1.543691200E1
1.304851238E0,-9.919500351E-1,-1.484700108E1,-1.287000060E0,1.493565449E1
1.306814542E0,-9.919500351E-1,-1.438695049E1,-1.326000094E0,1.448193998E1
1.308778001E0,-8.380500674E-1,-1.400400066E1,-1.326000094E0,1.409158042E1
1.310741403E0,-6.850500107E-1,-1.346700096E1,-1.287000060E0,1.354569221E1
1.312704920E0,-4.549500346E-1,-1.304595089E1,-1.134000063E0,1.310304431E1
1.314668403E0,-3.019500077E-1,-1.258605099E1,-9.420000315E-1,1.262486504E1
1.316631772E0,-3.299999982E-2,-1.224105072E1,-7.510500550E-1,1.226411383E1
1.318595175E0,1.189500093E-1,-1.174305058E1,-6.360000372E-1,1.176086230E1
1.320559465E0,4.260000288E-1,-1.128300095E1,-5.970000029E-1,1.130681190E1
1.322523489E0,6.940500140E-1,-1.093800068E1,-4.819500148E-1,1.097058978E1
1.324486765E0,8.470500112E-1,-1.051605034E1,-3.670500219E-1,1.055649251E1
1.326450260E0,1.000050068E0,-1.001805019E1,-4.060500264E-1,1.007602632E1
1.328413310E0,1.114950061E0,-9.481050491E0,-5.209500194E-1,9.560586853E0
1.330376491E0,1.269000053E0,-9.021000862E0,-6.360000372E-1,9.131993963E0
1.332339910E0,1.306950092E0,-8.638050079E0,-6.739500165E-1,8.762319119E0
1.334303259E0,1.345050097E0,-8.217000008E0,-7.890000343E-1,8.363657689E0
1.336266470E0,1.422000051E0,-7.717950344E0,-9.040500522E-1,7.899756209E0
1.338229722E0,1.575000048E0,-7.335000515E0,-8.659500480E-1,7.552001535E0
1.340192949E0,1.575000048E0,-6.913050175E0,-9.420000315E-1,7.152499698E0
1.342156184E0,1.690050125E0,-6.492000103E0,-1.018950105E0,6.785321958E0
1.344119189E0,1.690050125E0,-6.031950474E0,-1.018950105E0,6.346570354E0
1.346082261E0,1.729050040E0,-5.610000134E0,-1.018950105E0,5.958185534E0
1.348045203E0,1.767000079E0,-5.149950027E0,-9.810000658E-1,5.532326427E0
1.350008184E0,1.804950118E0,-4.804950237E0,-8.659500480E-1,5.205310865E0
1.351971456E0,1.843950033E0,-4.461000443E0,-9.040500522E-1,4.911006330E0
1.353934643E0,1.767000079E0,-4.116000175E0,-7.510500550E-1,4.541786313E0
1.355898031E0,1.729050040E0,-3.732000113E0,-7.510500550E-1,4.181090177E0
1.357861350E0,1.690050125E0,-3.387000084E0,-7.120500207E-1,3.851630074E0
1.359824746E0,1.651950121E0,-2.965950251E0,-5.209500194E-1,3.434703628E0
1.361788120E0,1.690050125E0,-2.659050226E0,-4.060500264E-1,3.176742696E0
1.363751372E0,1.614000082E0,-2.314050198E0,-3.289500177E-1,2.840428259E0
1.365714660E0,1.614000082E0,-1.969050050E0,-2.520000041E-1,2.558448429E0
1.367677981E0,1.575000048E0,-1.624050021E0,-2.140500098E-1,2.272439444E0
1.369641317E0,1.537050128E0,-1.279050112E0,-6.105000153E-2,2.000554770E0
1.371604576E0,1.498950124E0,-9.730500579E-1,-2.205000073E-2,1.787222452E0
1.373567857E0,1.498950124E0,-6.280500293E-1,5.295000225E-2,1.626069499E0
1.375531213E0,1.537050128E0,-3.589500189E-1,9.195000678E-2,1.581082862E0
1.377494547E0,1.614000082E0,-2.059500068E-1,1.680000126E-1,1.635737043E0
1.379457051E0,1.651950121E0,-1.290000081E-1,9.195000678E-2,1.659528550E0
1.381419823E0,1.767000079E0,-1.500000060E-2,1.300500035E-1,1.771842906E0
1.383382906E0,1.882050037E0,9.900000691E-2,1.680000126E-1,1.892125088E0
1.385345898E0,2.074050188E0,2.140500098E-1,9.195000678E-2,2.087092809E0
1.387309215E0,2.149950027E0,3.289500177E-1,-2.205000073E-2,2.175081478E0
1.389272436E0,2.265000105E0,4.060500264E-1,-1.369500011E-1,2.305180557E0
1.391236179E0,2.419050217E0,5.209500194E-1,-9.900000691E-2,2.476488214E0
1.393199759E0,2.494950056E0,5.590500236E-1,-1.759500057E-1,2.562863850E0
1.395163156E0,2.533950090E0,6.360000372E-1,-3.289500177E-1,2.633174362E0
1.397126607E0,2.610000134E0,7.890000343E-1,-4.440000355E-1,2.762563625E0
1.399090114E0,2.649000168E0,7.890000343E-1,-5.209500194E-1,2.812669882E0
1.401053605E0,2.610000134E0,9.430500269E-1,-5.970000029E-1,2.838635773E0
1.403017181E0,2.649000168E0,9.810000658E-1,-7.120500207E-1,2.913173227E0
1.404980711E0,2.649000168E0,1.018950105E0,-8.659500480E-1,2.967377747E0
1.406943937E0,2.610000134E0,1.096050024E0,-1.057050109E0,3.021718267E0
1.408907252E0,2.572050095E0,1.173000097E0,-1.171950102E0,3.060202274E0
1.410870783E0,2.533950090E0,1.249050021E0,-1.249050021E0,3.088876005E0
1.412834250E0,2.494950056E0,1.249050021E0,-1.326000094E0,3.089203455E0
1.414797649E0,2.419050217E0,1.326000094E0,-1.363950014E0,3.077407975E0
1.416761049E0,2.304000139E0,1.363950014E0,-1.402050018E0,3.022336933E0
1.418724610E0,2.304000139E0,1.363950014E0,-1.441050053E0,3.040625188E0
1.420688124E0,2.265000105E0,1.402950048E0,-1.441050053E0,3.029045983E0
1.422651532E0,2.227050066E0,1.441050053E0,-1.402050018E0,3.000353563E0
1.424614972E0,2.149950027E0,1.441050053E0,-1.441050053E0,2.962353056E0
1.426578182E0,2.111999989E0,1.479000092E0,-1.441050053E0,2.953745161E0
1.428541449E0,2.074050188E0,1.441050053E0,-1.363950014E0,2.870308185E0
1.430505033E0,1.959000111E0,1.518000126E0,-1.287000060E0,2.792557067E0
1.432468524E0,1.920000076E0,1.479000092E0,-1.134000063E0,2.675779831E0
1.434432251E0,1.804950118E0,1.518000126E0,-9.810000658E-1,2.554316042E0
1.436395908E0,1.690050125E0,1.479000092E0,-7.120500207E-1,2.355997863E0
1.438359577E0,1.614000082E0,1.518000126E0,-4.819500148E-1,2.267508867E0
1.440323232E0,1.498950124E0,1.479000092E0,-2.520000041E-1,2.120800968E0
1.442286570E0,1.345050097E0,1.441050053E0,-2.205000073E-2,1.971362782E0
1.444250001E0,1.306950092E0,1.363950014E0,2.070000172E-1,1.900349229E0
1.446212522E0,1.269000053E0,1.363950014E0,3.979500234E-1,1.905015747E0
1.448175309E0,1.192050099E0,1.326000094E0,7.429500222E-1,1.931640346E0
1.450138750E0,1.039050102E0,1.326000094E0,8.580000401E-1,1.890519885E0
1.452101999E0,9.619500637E-1,1.288050056E0,1.087950110E0,1.941148195E0
1.454065452E0,8.089500666E-1,1.173000097E0,1.318050027E0,1.941026870E0
1.456028845E0,8.089500666E-1,1.134000063E0,1.432950020E0,1.998424908E0
1.457992230E0,6.940500140E-1,1.096050024E0,1.585950017E0,2.048967675E0
1.459955617E0,5.790000558E-1,1.018950105E0,1.816050053E0,2.161374140E0
1.461918434E0,4.639500082E-1,9.810000658E-1,2.008050203E0,2.282515358E0
1.463881405E0,3.870000243E-1,9.040500522E-1,2.238000154E0,2.444528627E0
1.465845040E0,2.719500065E-1,8.280000687E-1,2.430000067E0,2.581557910E0
1.467808480E0,1.570500135E-1,7.510500550E-1,2.583000183E0,2.694555777E0
1.469771676E0,4.200000316E-2,6.739500165E-1,2.698050022E0,2.781267076E0
1.471734943E0,4.050000105E-3,5.209500194E-1,2.698050022E0,2.747886324E0
1.473698212E0,-3.299999982E-2,2.910000086E-1,2.698050022E0,2.713898290E0
1.475661480E0,-3.299999982E-2,9.900000691E-2,2.698050022E0,2.700067392E0
1.477625786E0,4.050000105E-3,-1.290000081E-1,2.620950222E0,2.624126039E0
1.479589787E0,4.200000316E-2,-1.680000126E-1,2.545050144E0,2.550934778E0
1.481553022E0,1.570500135E-1,-2.440500110E-1,2.391000032E0,2.408548582E0
1.483516482E0,1.570500135E-1,-3.589500189E-1,2.353049994E0,2.385446309E0
1.485479718E0,2.340000123E-1,-5.509500504E-1,2.122950077E0,2.205724143E0
1.487443020E0,1.960500032E-1,-6.280500293E-1,2.122950077E0,2.222565966E0
1.489406194E0,1.960500032E-1,-6.660000086E-1,1.969950080E0,2.088706521E0
1.491369405E0,1.960500032E-1,-7.039500475E-1,1.855050087E0,1.993788379E0
1.493332638E0,2.340000123E-1,-7.810500264E-1,1.740000129E0,1.921560719E0
1.495295864E0,2.340000123E-1,-7.429500222E-1,1.624950051E0,1.801997062E0
1.497258898E0,2.340000123E-1,-9.340500236E-1,1.548000097E0,1.823049575E0
1.499222001E0,2.719500065E-1,-8.959500194E-1,1.510050058E0,1.776776413E0
1.501185478E0,2.340000123E-1,-9.730500579E-1,1.471050024E0,1.779205046E0
1.503148845E0,1.960500032E-1,-9.730500579E-1,1.432950020E0,1.743160285E0
1.505112233E0,1.960500032E-1,-1.011000037E0,1.395000100E0,1.733949814E0
1.507075615E0,1.189500093E-1,-1.087950110E0,1.395000100E0,1.773079194E0
1.509039360E0,1.189500093E-1,-1.126049995E0,1.318050027E0,1.737640230E0
1.511002999E0,1.189500093E-1,-1.164000034E0,1.356000066E0,1.791028019E0
1.512966521E0,4.200000316E-2,-1.203000069E0,1.318050027E0,1.785001131E0
1.514930078E0,4.050000105E-3,-1.240950108E0,1.279950023E0,1.782763482E0
1.516893748E0,-3.299999982E-2,-1.318050027E0,1.279950023E0,1.837557328E0
1.518857384E0,4.050000105E-3,-1.393950105E0,1.240950108E0,1.866298601E0
1.520820961E0,-3.299999982E-2,-1.393950105E0,1.240950108E0,1.866585938E0
1.522784549E0,-3.299999982E-2,-1.432950020E0,1.203000069E0,1.871267999E0
1.524747898E0,-1.099500060E-1,-1.471050024E0,1.203000069E0,1.903493195E0
1.526711318E0,-1.099500060E-1,-1.509000063E0,1.240950108E0,1.956815618E0
1.528674831E0,-7.200000435E-2,-1.585950017E0,1.203000069E0,1.991891217E0
1.530638316E0,-3.299999982E-2,-1.663050056E0,1.240950108E0,2.075278694E0
1.532602031E0,-7.200000435E-2,-1.701000094E0,1.240950108E0,2.106784871E0
1.534565688E0,-1.480500102E-1,-1.701000094E0,1.203000069E0,2.088666870E0
1.536529207E0,-1.870500147E-1,-1.738950133E0,1.240950108E0,2.144502843E0
1.538492767E0,-1.870500147E-1,-1.816050053E0,1.240950108E0,2.207483334E0
1.540456301E0,-1.870500147E-1,-1.854000092E0,1.279950023E0,2.260658335E0
1.542419843E0,-1.870500147E-1,-1.893000126E0,1.240950108E0,2.271209888E0
1.544383264E0,-1.480500102E-1,-1.930950046E0,1.279950023E0,2.321370058E0
1.546346708E0,-7.200000435E-2,-1.930950046E0,1.318050027E0,2.339018587E0
1.548310217E0,-1.099500060E-1,-1.930950046E0,1.279950023E0,2.319251850E0
1.550273706E0,-3.299999982E-2,-1.969050050E0,1.356000066E0,2.391021388E0
1.552237433E0,4.050000105E-3,-1.930950046E0,1.318050027E0,2.337913676E0
1.554201090E0,4.200000316E-2,-1.930950046E0,1.356000066E0,2.359887340E0
1.556164643E0,1.570500135E-1,-1.893000126E0,1.395000100E0,2.356722186E0
1.558128203E0,3.109500110E-1,-1.854000092E0,1.432950020E0,2.363758027E0
1.560091917E0,4.639500082E-1,-1.701000094E0,1.432950020E0,2.272002793E0
1.562055586E0,5.410500169E-1,-1.624050021E0,1.471050024E0,2.257047134E0
1.564019823E0,6.169500351E-1,-1.548000097E0,1.471050024E0,2.222817991E0
1.565983894E0,7.320000529E-1,-1.432950020E0,1.471050024E0,2.180173849E0
1.567947546E0,8.470500112E-1,-1.318050027E0,1.471050024E0,2.149124884E0
1.569911304E0,9.240000248E-1,-1.126049995E0,1.471050024E0,2.070205983E0
1.571875030E0,1.000050068E0,-9.730500579E-1,1.471050024E0,2.027539081E0
1.573838766E0,1.077000022E0,-8.190000653E-1,1.432950020E0,1.970795756E0
1.575802271E0,1.269000053E0,-7.429500222E-1,1.318050027E0,1.974738399E0
1.577765843E0,1.306950092E0,-6.280500293E-1,1.087950110E0,1.812788136E0
1.579729841E0,1.498950124E0,-6.660000086E-1,7.429500222E-1,1.800661606E0
1.581693735E0,1.651950121E0,-5.890500546E-1,2.830500007E-1,1.776523704E0
1.583657259E0,1.920000076E0,-5.890500546E-1,-3.289500177E-1,2.035089279E0
1.585620891E0,2.227050066E0,-5.890500546E-1,-1.057050109E0,2.534578248E0
1.587584233E0,2.572050095E0,-5.509500504E-1,-2.092050076E0,3.360901838E0
1.589547660E0,2.955000162E0,-5.890500546E-1,-3.357000113E0,4.510926255E0
1.591511178E0,3.415050268E0,-5.509500504E-1,-4.621950150E0,5.773087344E0
1.593474696E0,3.798000097E0,-5.890500546E-1,-6.001950264E0,7.127074553E0
1.595438059E0,4.258049965E0,-5.130000114E-1,-7.075050354E0,8.273481494E0
1.597401467E0,4.642050266E0,-4.360500276E-1,-7.840950489E0,9.122459913E0
1.599365027E0,4.987050056E0,-3.589500189E-1,-8.224950790E0,9.625452139E0
1.601328542E0,5.254950047E0,-3.210000098E-1,-8.455050468E0,9.960191736E0
1.603292033E0,5.446050167E0,-2.059500068E-1,-8.608050346E0,1.018824855E1
1.605255536E0,5.676000118E0,-1.680000126E-1,-8.875950813E0,1.053696845E1
1.607219080E0,5.905950069E0,-1.290000081E-1,-9.373950005E0,1.108006435E1
1.609182611E0,6.175050259E0,-1.680000126E-1,-9.873000145E0,1.164626986E1
1.611146017E0,6.328050137E0,-9.105000645E-2,-1.006395054E1,1.188846538E1
1.613109459E0,6.366000175E0,-5.295000225E-2,-9.718950272E0,1.161838011E1
1.615072259E0,6.250950336E0,2.295000106E-2,-8.799000740E0,1.079339246E1
1.617035271E0,6.060000420E0,6.105000153E-2,-7.611000538E0,9.729062718E0
1.618998674E0,5.560950279E0,6.105000153E-2,-6.232050419E0,8.352625188E0
1.620961962E0,4.948050022E0,6.105000153E-2,-4.736999989E0,6.850262405E0
1.622926264E0,4.258049965E0,-9.105000645E-2,-3.204000235E0,5.329624481E0
1.624890269E0,3.682950258E0,-2.059500068E-1,-1.708950043E0,4.065347249E0
1.626852864E0,3.147000074E0,-3.589500189E-1,-3.670500219E-1,3.188601622E0
1.628815878E0,2.917050123E0,-8.190000653E-1,7.050000429E-1,3.110782472E0
1.630779505E0,2.725050211E0,-1.240950108E0,1.356000066E0,3.287033921E0
1.632742953E0,2.649000168E0,-1.663050056E0,1.585950017E0,3.506875366E0
1.634706507E0,2.649000168E0,-2.161050081E0,1.740000129E0,3.836005708E0
1.636670029E0,2.764050245E0,-2.659050226E0,1.740000129E0,4.211665028E0
1.638633560E0,2.955000162E0,-3.118950129E0,1.624950051E0,4.593510480E0
1.640597096E0,2.917050123E0,-3.502050161E0,1.471050024E0,4.789313618E0
1.642560635E0,2.725050211E0,-3.771000147E0,1.432950020E0,4.868232381E0
1.644524173E0,2.533950090E0,-4.000950336E0,1.395000100E0,4.937057012E0
1.646487533E0,2.304000139E0,-4.269000053E0,1.240950108E0,5.007268244E0
1.648450945E0,2.035050154E0,-4.537050247E0,1.165050030E0,5.107210163E0
1.650414444E0,1.767000079E0,-4.843950272E0,1.087950110E0,5.269703877E0
1.652377928E0,1.537050128E0,-5.227050304E0,9.349500537E-1,5.527993269E0
1.654341881E0,1.345050097E0,-5.802000046E0,5.899500251E-1,5.985015065E0
1.656305697E0,1.153950095E0,-6.454050541E0,2.830500007E-1,6.562506115E0
1.658267927E0,5.410500169E-1,-7.219950199E0,2.070000172E-1,7.243152974E0
1.660230622E0,-1.480500102E-1,-8.140049934E0,2.449500114E-1,8.145080248E0
1.662193043E0,-9.150000215E-1,-8.944950104E0,5.130000114E-1,9.006249298E0
1.664155545E0,-1.720050097E0,-9.750000000E0,8.580000401E-1,9.937667553E0
1.666119215E0,-2.524950027E0,-1.047795010E1,9.349500537E-1,1.081836136E1
1.668082543E0,-3.175950050E0,-1.135905075E1,8.580000401E-1,1.182585543E1
1.670045758E0,-3.712950230E0,-1.231800079E1,7.050000429E-1,1.288472615E1
1.672009007E0,-4.210950375E0,-1.335300064E1,4.750500321E-1,1.400929697E1
1.673972405E0,-4.671000004E0,-1.446405029E1,4.360500276E-1,1.520582558E1
1.675935765E0,-5.016000271E0,-1.565205097E1,3.220500052E-1,1.643930274E1
1.677899694E0,-5.284050465E0,-1.703205109E1,1.680000126E-1,1.783368099E1
1.679863457E0,-5.514000416E0,-1.852695084E1,1.680000126E-1,1.933081302E1
1.681826102E0,-5.629050255E0,-2.005995178E1,2.830500007E-1,2.083669814E1
1.683789075E0,-5.629050255E0,-2.167005157E1,4.360500276E-1,2.239346962E1
1.685752654E0,-5.629050255E0,-2.350905037E1,8.580000401E-1,2.418879534E1
1.687716063E0,-5.284050465E0,-2.534895134E1,1.318050027E0,2.592735581E1
1.689679488E0,-4.900950432E0,-2.692005157E1,1.624950051E0,2.741074524E1
1.691642909E0,-4.249050140E0,-2.841495132E1,1.816050053E0,2.878822543E1
1.693606108E0,-3.214950085E0,-2.964195061E1,2.085000038E0,2.988859925E1
1.695569372E0,-1.873050094E0,-3.056205177E1,2.046000004E0,3.068767572E1
1.697533507E0,-3.299999982E-2,-3.132795143E1,1.893000126E0,3.138510920E1
1.699497380E0,1.882050037E0,-3.190305138E1,1.585950017E0,3.199784425E1
1.701460682E0,3.990000248E0,-3.220995331E1,1.395000100E0,3.248610810E1
1.703424151E0,5.830050468E0,-3.240105057E1,1.279950023E0,3.294625682E1
1.705387161E0,7.516050339E0,-3.228600311E1,1.050000072E0,3.316593900E1
1.707350305E0,9.010950089E0,-3.209505081E1,6.280500293E-1,3.334192488E1
1.709314951E0,9.931050301E0,-3.175005150E1,-1.369500011E-1,3.326725546E1
1.711279154E0,1.027605057E1,-3.125100136E1,-8.269500136E-1,3.290753937E1
1.713242580E0,1.000695038E1,-3.060000229E1,-1.134000063E0,3.221467293E1
1.715206233E0,9.010950089E0,-2.964195061E1,-9.810000658E-1,3.099685175E1
1.717169437E0,7.554000378E0,-2.856900215E1,-9.420000315E-1,2.956582774E1
1.719132772E0,5.715000153E0,-2.737995148E1,-8.659500480E-1,2.798343866E1
1.721096012E0,3.760050297E0,-2.611605072E1,-5.590500236E-1,2.639126030E1
1.723059261E0,2.188950062E0,-2.504205132E1,-6.105000153E-2,2.513761253E1
1.725020686E0,1.039050102E0,-2.412300110E1,3.600000143E-1,2.414805183E1
1.726982646E0,2.719500065E-1,-2.350905037E1,8.200500607E-1,2.352492058E1
1.728946454E0,4.050000105E-3,-2.324100113E1,1.240950108E0,2.327410808E1
1.730909721E0,8.100000024E-2,-2.335605049E1,1.471050024E0,2.340247089E1
1.732873652E0,2.719500065E-1,-2.373900032E1,1.585950017E0,2.379347243E1
1.734837399E0,5.790000558E-1,-2.435295105E1,1.701000094E0,2.441914960E1
1.736800903E0,1.077000022E0,-2.508105087E1,1.701000094E0,2.516172576E1
1.738764478E0,1.459950089E0,-2.588595200E1,1.663050056E0,2.598037145E1
1.740727965E0,1.843950033E0,-2.665200043E1,1.663050056E0,2.676742449E1
1.742691478E0,2.304000139E0,-2.734200096E1,1.585950017E0,2.748469885E1
1.744654885E0,2.649000168E0,-2.791695213E1,1.548000097E0,2.808504446E1
1.746618324E0,3.070050240E0,-2.845395088E1,1.471050024E0,2.865687557E1
1.748582375E0,3.453000069E0,-2.887500191E1,1.356000066E0,2.911232867E1
1.750546246E0,3.913050175E0,-2.914305115E1,1.087950110E0,2.942470097E1
1.752509953E0,4.527000427E0,-2.929695129E1,8.580000401E-1,2.965706075E1
1.754473709E0,5.140050411E0,-2.937300110E1,4.750500321E-1,2.982312835E1
1.756438120E0,5.868000507E0,-2.941200066E1,1.680000126E-1,2.999212291E1
1.758402332E0,6.558000088E0,-2.929695129E1,-1.759500057E-1,3.002248622E1
1.760365936E0,7.210050106E0,-2.914305115E1,-5.590500236E-1,3.002690110E1
1.762329719E0,7.899000168E0,-2.891400146E1,-9.810000658E-1,2.998959896E1
1.764293215E0,8.589000702E0,-2.868405151E1,-1.402050018E0,2.997518121E1
1.766256796E0,9.279000282E0,-2.833905220E1,-1.939050078E0,2.988246377E1
1.768220507E0,9.816000938E0,-2.799405098E1,-2.437050104E0,2.976507984E1
1.770184179E0,1.039095020E1,-2.764905167E1,-2.935050249E0,2.968259463E1
1.772147651E0,1.069695091E1,-2.726505089E1,-3.394950151E0,2.948446108E1
1.774111181E0,1.088895035E1,-2.692005157E1,-3.702000141E0,2.927393417E1
1.776074586E0,1.088895035E1,-2.649900055E1,-3.817050219E0,2.890218231E1
1.778038027E0,1.073595047E1,-2.603895187E1,-4.047000408E0,2.845462809E1
1.780001785E0,1.039095020E1,-2.557905197E1,-4.123950005E0,2.791534900E1
1.781965433E0,9.816000938E0,-2.508105087E1,-4.200000286E0,2.725899833E1
1.783929133E0,9.088050842E0,-2.454405022E1,-4.200000286E0,2.650741541E1
1.785892818E0,8.398050308E0,-2.400795174E1,-4.047000408E0,2.575436289E1
1.787856512E0,7.746000290E0,-2.358600044E1,-3.894000292E0,2.512893105E1
1.789820203E0,7.018050194E0,-2.312595177E1,-3.739950180E0,2.445505880E1
1.791783516E0,6.328050137E0,-2.274300194E1,-3.510000229E0,2.386647140E1
1.793746954E0,5.599950314E0,-2.228295135E1,-3.165000200E0,2.319281335E1
1.795710869E0,4.872000217E0,-2.201505089E1,-2.820000172E0,2.272336359E1
1.797674644E0,4.143000126E0,-2.186100197E1,-2.322000027E0,2.237095307E1
1.799638143E0,3.337950230E0,-2.190000153E1,-1.824000120E0,2.222788688E1
1.801601723E0,2.419050217E0,-2.216805077E1,-1.249050021E0,2.233460106E1
1.803565264E0,1.729050040E0,-2.243595123E1,-8.269500136E-1,2.251766791E1
1.805528810E0,1.269000053E0,-2.266605186E1,-4.060500264E-1,2.270517881E1
1.807491581E0,8.850000501E-1,-2.281905174E1,-6.105000153E-2,2.283628855E1
1.809454579E0,4.639500082E-1,-2.285805130E1,1.300500035E-1,2.286312909E1
1.811417309E0,1.570500135E-1,-2.278095055E1,2.830500007E-1,2.278325020E1
1.813380118E0,-1.099500060E-1,-2.270400047E1,3.600000143E-1,2.270712061E1
1.815343610E0,-4.549500346E-1,-2.247405052E1,4.360500276E-1,2.248288385E1
1.817306895E0,-7.620000243E-1,-2.224500084E1,3.979500234E-1,2.226160530E1
1.819271063E0,-1.144950032E0,-2.197605133E1,3.220500052E-1,2.200821344E1
1.821234972E0,-1.375050068E0,-2.170800018E1,2.830500007E-1,2.175334806E1
1.823197682E0,-1.413000107E0,-2.147805023E1,3.600000143E-1,2.152748966E1
1.825160743E0,-1.567050099E0,-2.117100143E1,4.360500276E-1,2.123339557E1
1.827124251E0,-1.642950058E0,-2.094105148E1,4.750500321E-1,2.101077330E1
1.829087611E0,-1.567050099E0,-2.059605026E1,6.660000086E-1,2.066631289E1
1.831051000E0,-1.567050099E0,-2.036595154E1,8.959500194E-1,2.044579063E1
1.833014381E0,-1.567050099E0,-2.005995178E1,1.087950110E0,2.015045774E1
1.834977902E0,-1.489950061E0,-1.975305176E1,1.165050030E0,1.984339554E1
1.836941381E0,-1.297950029E0,-1.956195068E1,1.356000066E0,1.965180208E1
1.838905179E0,-1.144950032E0,-1.929300117E1,1.471050024E0,1.938284791E1
1.840868866E0,-9.919500351E-1,-1.894799995E1,1.471050024E0,1.903088688E1
1.842832560E0,-9.919500351E-1,-1.864200020E1,1.471050024E0,1.872624160E1
1.844796251E0,-8.380500674E-1,-1.833495140E1,1.548000097E0,1.841925827E1
1.846759764E0,-8.380500674E-1,-1.798995018E1,1.624950051E0,1.808261867E1
1.848723330E0,-7.620000243E-1,-1.756905174E1,1.510050058E0,1.765028256E1
1.850686883E0,-8.380500674E-1,-1.710900116E1,1.432950020E0,1.718934537E1
1.852650426E0,-6.850500107E-1,-1.691700172E1,1.356000066E0,1.698508101E1
1.854614278E0,-5.700000525E-1,-1.653404999E1,1.240950108E0,1.659034859E1
1.856578039E0,-4.170000255E-1,-1.622700119E1,1.165050030E0,1.627411436E1
1.858541586E0,-3.780000210E-1,-1.588200092E1,1.011000037E0,1.591863557E1
1.860505195E0,-1.099500060E-1,-1.561395073E1,1.050000072E0,1.564960212E1
1.862468875E0,-3.299999982E-2,-1.526895046E1,9.349500537E-1,1.529758376E1
1.864432520E0,1.189500093E-1,-1.492395115E1,7.050000429E-1,1.494106730E1
1.866397122E0,4.639500082E-1,-1.473195076E1,7.050000429E-1,1.475610544E1
1.868361443E0,6.940500140E-1,-1.434900093E1,7.050000429E-1,1.438306498E1
1.870324668E0,8.089500666E-1,-1.388895035E1,7.050000429E-1,1.393033980E1
1.872288214E0,1.039050102E0,-1.358205032E1,8.580000401E-1,1.364873182E1
1.874251458E0,9.240000248E-1,-1.323795033E1,8.200500607E-1,1.329547242E1
1.876214775E0,9.240000248E-1,-1.285395050E1,7.429500222E-1,1.290851635E1
1.878178171E0,1.039050102E0,-1.243305016E1,7.429500222E-1,1.249849335E1
1.880141543E0,1.153950095E0,-1.208805084E1,1.011000037E0,1.218501929E1
1.882104886E0,1.114950061E0,-1.155105019E1,8.200500607E-1,1.163367337E1
1.884068237E0,1.269000053E0,-1.116795063E1,8.959500194E-1,1.127546934E1
1.886031974E0,1.384050012E0,-1.086105061E1,9.349500537E-1,1.098872815E1
1.887995607E0,1.459950089E0,-1.036305046E1,9.730500579E-1,1.051052309E1
1.889958950E0,1.537050128E0,-9.903000832E0,8.959500194E-1,1.006154436E1
1.891922378E0,1.614000082E0,-9.481050491E0,6.280500293E-1,9.637933467E0
1.893885575E0,1.882050037E0,-9.175050735E0,5.899500251E-1,9.384652864E0
1.895848839E0,1.920000076E0,-8.715000153E0,5.130000114E-1,8.938724571E0
1.897813314E0,2.035050154E0,-8.332050323E0,3.600000143E-1,8.584526296E0
1.899777442E0,2.188950062E0,-7.909950256E0,1.300500035E-1,8.208271952E0
1.901740880E0,2.380050182E0,-7.527000427E0,-2.205000073E-2,7.894356244E0
1.903704521E0,2.533950090E0,-7.105050564E0,-2.910000086E-1,7.548995137E0
1.905668042E0,2.725050211E0,-6.760050297E0,-5.970000029E-1,7.313042299E0
1.907631598E0,2.917050123E0,-6.376950264E0,-7.120500207E-1,7.048524053E0
1.909595119E0,3.147000074E0,-6.031950474E0,-9.040500522E-1,6.863333190E0
1.911558661E0,3.262050152E0,-5.686950207E0,-1.171950102E0,6.660018085E0
1.913522063E0,3.492000103E0,-5.419050217E0,-1.210950017E0,6.559464148E0
1.915485507E0,3.529950142E0,-5.035050392E0,-1.363950014E0,6.298622079E0
1.917449556E0,3.568050146E0,-4.767000198E0,-1.479000092E0,6.135365841E0
1.919413428E0,3.682950258E0,-4.461000443E0,-1.402050018E0,5.952343388E0
1.921376775E0,3.837000132E0,-4.231050014E0,-1.326000094E0,5.863670394E0
1.923340276E0,3.952050209E0,-4.000950336E0,-1.249050021E0,5.760766477E0
1.925303820E0,4.027950287E0,-3.732000113E0,-1.134000063E0,5.606974630E0
1.927267351E0,4.105050087E0,-3.579000235E0,-9.810000658E-1,5.533808817E0
1.929230847E0,4.219950199E0,-3.310950041E0,-7.510500550E-1,5.416128326E0
1.931194353E0,4.258049965E0,-3.157050133E0,-4.440000355E-1,5.319313027E0
1.933157581E0,4.411950111E0,-2.926950216E0,-2.520000041E-1,5.300551420E0
1.935120891E0,4.450050354E0,-2.659050226E0,-6.105000153E-2,5.184324774E0
1.937083703E0,4.527000427E0,-2.467050076E0,1.680000126E-1,5.158322687E0
1.939046661E0,4.527000427E0,-2.238000154E0,4.360500276E-1,5.068778668E0
1.941010118E0,4.488000393E0,-2.008050203E0,6.280500293E-1,4.956698496E0
1.942973428E0,4.564949989E0,-1.893000126E0,8.200500607E-1,5.009461047E0
1.944937006E0,4.488000393E0,-1.738950133E0,9.730500579E-1,4.910490964E0
1.946900505E0,4.372950077E0,-1.548000097E0,1.050000072E0,4.756206138E0
1.948864095E0,4.335000038E0,-1.471050024E0,1.050000072E0,4.696670486E0
1.950827659E0,4.219950199E0,-1.356000066E0,9.730500579E-1,4.538010828E0
1.952791328E0,4.143000126E0,-1.164000034E0,8.580000401E-1,4.388110093E0
1.954754966E0,4.027950287E0,-1.011000037E0,8.200500607E-1,4.233082410E0
1.956718876E0,3.874950171E0,-8.580000401E-1,7.050000429E-1,4.030933881E0
1.958682687E0,3.798000097E0,-7.429500222E-1,4.750500321E-1,3.899032189E0
1.960647080E0,3.645000219E0,-5.130000114E-1,3.220500052E-1,3.694984684E0
1.962611302E0,3.568050146E0,-3.589500189E-1,9.195000678E-2,3.587238738E0
1.964574905E0,3.453000069E0,-2.440500110E-1,-9.900000691E-2,3.463029149E0
1.966538689E0,3.337950230E0,-1.680000126E-1,-4.819500148E-1,3.376745705E0
1.968502005E0,3.300000191E0,-1.290000081E-1,-7.510500550E-1,3.386844910E0
1.970465458E0,3.147000074E0,-1.500000060E-2,-1.057050109E0,3.319817676E0
1.972428110E0,2.955000162E0,1.380000114E-1,-1.249050021E0,3.211105093E0
1.974390996E0,2.917050123E0,2.910000086E-1,-1.632000089E0,3.355188030E0
1.976354645E0,2.764050245E0,3.679500222E-1,-1.977000117E0,3.418170628E0
1.978318071E0,2.649000168E0,5.980500579E-1,-2.359950066E0,3.597809066E0
1.980281529E0,2.572050095E0,7.129500508E-1,-2.704950094E0,3.800065062E0
1.982244954E0,2.380050182E0,8.659500480E-1,-3.088950157E0,3.994511413E0
1.984208466E0,2.265000105E0,1.018950105E0,-3.472050190E0,4.268912896E0
1.986171952E0,2.149950027E0,1.210950017E0,-3.931950092E0,4.642081063E0
1.988135320E0,2.074050188E0,1.363950014E0,-4.392000198E0,5.044968738E0
1.990098723E0,2.035050154E0,1.479000092E0,-4.736999989E0,5.363584556E0
1.992062294E0,1.996950150E0,1.594050050E0,-5.119950294E0,5.722123424E0
1.994025808E0,1.959000111E0,1.747950077E0,-5.464950085E0,6.062894551E0
1.995989711E0,1.996950150E0,1.900950074E0,-5.809950352E0,6.430936493E0
1.997953500E0,2.074050188E0,2.053950071E0,-6.001950264E0,6.674114327E0
1.999917177E0,2.188950062E0,2.131050110E0,-6.117000103E0,6.837438644E0
2.001880887E0,2.380050182E0,2.208000183E0,-6.232050419E0,7.026973467E0
2.003844400E0,2.533950090E0,2.322000027E0,-6.270000458E0,7.150209292E0
2.005807968E0,2.686950207E0,2.361000061E0,-6.154950142E0,7.118808464E0
2.007771725E0,2.917050123E0,2.361000061E0,-5.925000191E0,7.013496273E0
2.009735427E0,3.147000074E0,2.245950222E0,-5.695050240E0,6.883422049E0
2.011699119E0,3.415050268E0,2.131050110E0,-5.350050449E0,6.695295566E0
2.013662814E0,3.682950258E0,1.939050078E0,-4.890000343E0,6.421537290E0
2.015626456E0,3.952050209E0,1.671000123E0,-4.392000198E0,6.140082085E0
2.017590117E0,4.143000126E0,1.363950014E0,-3.855000257E0,5.821154239E0
2.019553634E0,4.219950199E0,9.810000658E-1,-3.357000113E0,5.480856737E0
2.021517194E0,4.182000160E0,4.440000355E-1,-2.743950129E0,5.021506117E0
2.023481494E0,4.066950321E0,-5.295000225E-2,-2.245050192E0,4.645765705E0
2.025445577E0,3.837000132E0,-3.979500234E-1,-1.747050047E0,4.234751244E0
2.027408999E0,3.682950258E0,-8.190000653E-1,-1.287000060E0,3.986383432E0
2.029372632E0,3.415050268E0,-1.164000034E0,-8.269500136E-1,3.701528163E0
2.031335974E0,3.147000074E0,-1.393950105E0,-3.670500219E-1,3.461420529E0
2.033299401E0,2.878050089E0,-1.585950017E0,-1.369500011E-1,3.288945891E0
2.035262192E0,2.572050095E0,-1.624050021E0,1.680000126E-1,3.046506879E0
2.037225170E0,2.265000105E0,-1.663050056E0,4.360500276E-1,2.843606968E0
2.039188804E0,1.959000111E0,-1.624050021E0,6.280500293E-1,2.621004911E0
2.041152245E0,1.614000082E0,-1.585950017E0,8.200500607E-1,2.406806146E0
2.043115621E0,1.269000053E0,-1.432950020E0,9.730500579E-1,2.147215245E0
2.045079017E0,1.039050102E0,-1.393950105E0,1.087950110E0,2.050940626E0
2.047041543E0,7.320000529E-1,-1.279050112E0,1.203000069E0,1.902367586E0
2.049004324E0,3.870000243E-1,-1.126049995E0,1.240950108E0,1.719800797E0
2.050968122E0,1.189500093E-1,-1.048950076E0,1.318050027E0,1.688698090E0
2.052931625E0,-7.200000435E-2,-9.730500579E-1,1.395000100E0,1.702361799E0
2.054895035E0,-1.870500147E-1,-8.580000401E-1,1.471050024E0,1.713225014E0
2.056858473E0,-3.780000210E-1,-8.580000401E-1,1.510050058E0,1.777441775E0
2.058822163E0,-4.170000255E-1,-7.810500264E-1,1.510050058E0,1.750479747E0
2.060785779E0,-4.930500090E-1,-7.810500264E-1,1.510050058E0,1.770138027E0
2.062749295E0,-5.320500135E-1,-7.810500264E-1,1.548000097E0,1.813676008E0
2.064712848E0,-4.930500090E-1,-7.810500264E-1,1.624950051E0,1.869117472E0
2.066676608E0,-4.549500346E-1,-8.190000653E-1,1.663050056E0,1.908789179E0
2.068640307E0,-4.170000255E-1,-8.190000653E-1,1.701000094E0,1.933404109E0
2.070604314E0,-3.780000210E-1,-8.580000401E-1,1.701000094E0,1.942279436E0
2.072568230E0,-3.400500119E-1,-8.580000401E-1,1.740000129E0,1.969618879E0
2.074531556E0,-2.629500031E-1,-9.340500236E-1,1.740000129E0,1.992283263E0
2.076495065E0,-1.480500102E-1,-1.011000037E0,1.701000094E0,1.984298668E0
2.078458563E0,-1.099500060E-1,-1.048950076E0,1.585950017E0,1.904631913E0
2.080422065E0,-3.299999982E-2,-1.087950110E0,1.585950017E0,1.923528502E0
2.082385474E0,4.050000105E-3,-1.048950076E0,1.548000097E0,1.869924321E0
2.084348911E0,1.189500093E-1,-1.087950110E0,1.548000097E0,1.895808231E0
2.086312816E0,1.570500135E-1,-1.087950110E0,1.510050058E0,1.867766401E0
2.088276591E0,2.719500065E-1,-1.048950076E0,1.471050024E0,1.827085450E0
2.090240404E0,2.340000123E-1,-1.087950110E0,1.471050024E0,1.844554044E0
2.092204206E0,1.960500032E-1,-1.011000037E0,1.471050024E0,1.795701771E0
2.094167700E0,1.960500032E-1,-9.730500579E-1,1.471050024E0,1.774612688E0
2.096131285E0,1.570500135E-1,-8.959500194E-1,1.471050024E0,1.729560440E0
2.098094856E0,1.189500093E-1,-8.580000401E-1,1.471050024E0,1.707132492E0
2.100058434E0,4.200000316E-2,-8.190000653E-1,1.471050024E0,1.684195143E0
2.102022280E0,4.200000316E-2,-7.810500264E-1,1.471050024E0,1.666070622E0
2.103986048E0,8.100000024E-2,-7.429500222E-1,1.510050058E0,1.684869999E0
2.105949728E0,8.100000024E-2,-7.039500475E-1,1.510050058E0,1.668040122E0
2.107913434E0,4.200000316E-2,-7.039500475E-1,1.548000097E0,1.701062600E0
2.109876794E0,4.200000316E-2,-6.660000086E-1,1.624950051E0,1.756639599E0
2.111840266E0,-3.299999982E-2,-6.280500293E-1,1.740000129E0,1.850171962E0
2.113803770E0,-3.299999982E-2,-5.509500504E-1,1.816050053E0,1.898070797E0
2.115767264E0,4.050000105E-3,-6.280500293E-1,1.893000126E0,1.994470536E0
2.117730496E0,4.200000316E-2,-6.660000086E-1,2.008050203E0,2.116030631E0
2.119693805E0,8.100000024E-2,-6.280500293E-1,2.200050116E0,2.289372916E0
2.121657362E0,4.050000105E-3,-6.280500293E-1,2.238000154E0,2.324458632E0
2.123620860E0,4.050000105E-3,-6.660000086E-1,2.353049994E0,2.445489048E0
2.125584541E0,4.050000105E-3,-6.660000086E-1,2.467950106E0,2.556237496E0
2.127548168E0,-7.200000435E-2,-7.039500475E-1,2.620950222E0,2.714794603E0
2.129511916E0,-1.099500060E-1,-6.660000086E-1,2.659050226E0,2.743390807E0
2.131475629E0,-1.870500147E-1,-6.280500293E-1,2.698050022E0,2.776492116E0
2.133439094E0,-1.870500147E-1,-5.890500546E-1,2.698050022E0,2.767930923E0
2.135402631E0,-2.629500031E-1,-6.280500293E-1,2.659050226E0,2.744838365E0
2.137366214E0,-3.400500119E-1,-5.890500546E-1,2.659050226E0,2.744660650E0
2.139329783E0,-4.549500346E-1,-6.280500293E-1,2.620950222E0,2.733277600E0
2.141293452E0,-4.549500346E-1,-5.509500504E-1,2.583000183E0,2.680002880E0
2.143257091E0,-5.700000525E-1,-5.509500504E-1,2.545050144E0,2.665656815E0
2.145220644E0,-5.320500135E-1,-5.509500504E-1,2.467950106E0,2.584066737E0
2.147184233E0,-5.320500135E-1,-5.130000114E-1,2.467950106E0,2.576242215E0
2.149147896E0,-5.700000525E-1,-5.130000114E-1,2.506050110E0,2.620754896E0
2.151111538E0,-5.320500135E-1,-4.740000367E-1,2.430000067E0,2.532321776E0
2.153075060E0,-3.780000210E-1,-5.130000114E-1,2.467950106E0,2.548888140E0
2.155038617E0,-3.400500119E-1,-5.509500504E-1,2.506050110E0,2.588332885E0
2.157002196E0,-1.480500102E-1,-5.130000114E-1,2.467950106E0,2.525047631E0
2.158965769E0,-7.200000435E-2,-4.740000367E-1,2.430000067E0,2.476844840E0
2.160929077E0,4.200000316E-2,-5.130000114E-1,2.391000032E0,2.445774758E0
2.162892463E0,1.570500135E-1,-5.130000114E-1,2.391000032E0,2.450451973E0
2.164855891E0,2.340000123E-1,-4.740000367E-1,2.314950228E0,2.374537133E0
2.166819307E0,2.719500065E-1,-4.740000367E-1,2.353049994E0,2.415673221E0
2.168782614E0,3.490500152E-1,-4.740000367E-1,2.391000032E0,2.462395806E0
2.170745973E0,4.639500082E-1,-5.130000114E-1,2.353049994E0,2.452603289E0
2.172710307E0,6.550500393E-1,-4.740000367E-1,2.275950193E0,2.415308649E0
2.174674355E0,7.699500322E-1,-5.509500504E-1,2.314950228E0,2.501072483E0
2.176637582E0,8.470500112E-1,-5.890500546E-1,2.200050116E0,2.429957654E0
2.178601050E0,8.850000501E-1,-6.280500293E-1,2.200050116E0,2.453139303E0
2.180564270E0,9.619500637E-1,-7.039500475E-1,2.200050116E0,2.502221834E0
2.182527573E0,1.000050068E0,-6.660000086E-1,2.122950077E0,2.439379671E0
2.184490792E0,9.619500637E-1,-8.190000653E-1,2.046000004E0,2.404625760E0
2.186454035E0,9.619500637E-1,-8.190000653E-1,1.893000126E0,2.275864343E0
2.188417443E0,9.240000248E-1,-8.959500194E-1,1.816050053E0,2.225879664E0
2.190380802E0,9.240000248E-1,-8.959500194E-1,1.740000129E0,2.164278848E0
2.192344371E0,8.470500112E-1,-8.959500194E-1,1.701000094E0,2.100862080E0
2.194307879E0,8.850000501E-1,-9.730500579E-1,1.548000097E0,2.031343350E0
2.196271918E0,1.039050102E0,-1.126049995E0,1.126049995E0,1.901473718E0
2.198235802E0,1.230000019E0,-1.203000069E0,1.500000060E-2,1.720562179E0
2.200198787E0,1.498950124E0,-1.356000066E0,-1.326000094E0,2.417408510E0
2.202162035E0,1.882050037E0,-1.509000063E0,-2.743950129E0,3.653553865E0
2.204125208E0,2.419050217E0,-1.816050053E0,-4.123950005E0,5.114372433E0
2.206088410E0,2.839950085E0,-2.161050081E0,-4.852050304E0,6.023109338E0
2.208051645E0,2.992950201E0,-2.428950071E0,-5.272950172E0,6.531581193E0
2.210014870E0,3.147000074E0,-2.773950100E0,-5.580000401E0,6.981032380E0
2.211978102E0,3.223050117E0,-3.196050167E0,-5.925000191E0,7.463807071E0
2.213941332E0,3.337950230E0,-3.616950274E0,-6.307950497E0,8.000904979E0
2.215904229E0,3.415050268E0,-4.116000175E0,-6.844950199E0,8.686620114E0
2.217867237E0,3.529950142E0,-4.729050159E0,-7.458000183E0,9.510322295E0
2.219830459E0,3.568050146E0,-5.457000256E0,-8.110050201E0,1.040589967E1
2.221793619E0,3.415050268E0,-6.300000191E0,-8.722949982E0,1.128904013E1
2.223757087E0,3.147000074E0,-7.297050476E0,-9.336000443E0,1.226015740E1
2.225720465E0,2.802000046E0,-8.407950401E0,-9.796050072E0,1.321012609E1
2.227683653E0,2.265000105E0,-9.673050880E0,-9.834000587E0,1.397875911E1
2.229646910E0,1.651950121E0,-1.101495075E1,-9.106050491E0,1.438673816E1
2.231609190E0,8.850000501E-1,-1.220295048E1,-7.495950222E0,1.434867573E1
2.233571756E0,-3.780000210E-1,-1.308405018E1,-5.542050362E0,1.421441435E1
2.235535145E0,-1.681950092E0,-1.373595047E1,-3.241950035E0,1.421321679E1
2.237498293E0,-2.793000221E0,-1.415700054E1,-1.326000094E0,1.449067945E1
2.239461109E0,-3.520950079E0,-1.469400024E1,9.195000678E-2,1.511023453E1
2.241424040E0,-4.096050262E0,-1.546095085E1,1.165050030E0,1.603670697E1
2.243387321E0,-4.708950043E0,-1.634205055E1,1.740000129E0,1.709574296E1
2.245350499E0,-5.169000149E0,-1.741500092E1,2.200050116E0,1.829866224E1
2.247313605E0,-5.706000328E0,-1.864200020E1,2.545050144E0,1.966112640E1
2.249276732E0,-6.166050434E0,-2.005995178E1,2.851050138E0,2.117900683E1
2.251239940E0,-6.549000263E0,-2.170800018E1,3.043050051E0,2.287764914E1
2.253203120E0,-6.817050457E0,-2.331795120E1,3.502950191E0,2.454525790E1
2.255166226E0,-6.970950127E0,-2.511900139E1,3.886050224E0,2.635639890E1
2.257129353E0,-6.970950127E0,-2.680500221E1,4.384050369E0,2.804143696E1
2.259092735E0,-6.970950127E0,-2.860695076E1,5.227050304E0,2.990441159E1
2.261056043E0,-6.741000175E0,-3.021705055E1,5.841000080E0,3.150600751E1
2.263019330E0,-6.241950512E0,-3.151995087E1,6.070950508E0,3.270054570E1
2.264982607E0,-5.590950489E0,-3.251595306E1,6.031950474E0,3.353998148E1
2.266945830E0,-4.594050407E0,-3.328305054E1,5.841000080E0,3.410255172E1
2.268909069E0,-3.330000162E0,-3.370395279E1,5.457000256E0,3.430487118E1
2.270872658E0,-1.720050097E0,-3.385800171E1,4.996950150E0,3.426794950E1
2.272836144E0,5.020500422E-1,-3.374295044E1,4.690950394E0,3.407115751E1
2.274800232E0,2.419050217E0,-3.316800308E1,4.153950214E0,3.351452722E1
2.276764144E0,4.066950321E0,-3.217095184E1,3.349050045E0,3.259948410E1
2.278727755E0,5.446050167E0,-3.086805153E1,2.545050144E0,3.144794664E1
2.280691454E0,6.558000088E0,-2.956500053E1,1.548000097E0,3.032314176E1
2.282655549E0,7.210050106E0,-2.826195145E1,5.130000114E-1,2.917166247E1
2.284619528E0,7.324050426E0,-2.718900108E1,-6.360000372E-1,2.816536864E1
2.286583132E0,7.018050194E0,-2.626905060E1,-1.747050047E0,2.724643521E1
2.288546843E0,6.136050224E0,-2.542605209E1,-2.629050016E0,2.628777551E1
2.290510352E0,4.872000217E0,-2.485095024E1,-3.088950157E0,2.551171745E1
2.292473920E0,3.453000069E0,-2.477400208E1,-3.357000113E0,2.523774630E1
2.294437633E0,2.265000105E0,-2.508105087E1,-3.472050190E0,2.542133889E1
2.296401303E0,1.384050012E0,-2.561700058E1,-3.280050039E0,2.586319859E1
2.298365013E0,9.619500637E-1,-2.626905060E1,-2.935050249E0,2.645000732E1
2.300328701E0,6.550500393E-1,-2.703495216E1,-2.629050016E0,2.717038154E1
2.302292080E0,5.790000558E-1,-2.787900162E1,-2.053950071E0,2.796055584E1
2.304255550E0,6.940500140E-1,-2.879895210E1,-1.632000089E0,2.885350537E1
2.306218875E0,9.619500637E-1,-2.971800232E1,-1.134000063E0,2.975518385E1
2.308182242E0,1.269000053E0,-3.071505165E1,-7.120500207E-1,3.074950039E1
2.310145693E0,1.651950121E0,-3.163500214E1,-4.440000355E-1,3.168121581E1
2.312109105E0,2.188950062E0,-3.247800064E1,-2.910000086E-1,3.255298310E1
2.314072486E0,2.764050245E0,-3.320595169E1,-6.105000153E-2,3.332084826E1
2.316035876E0,3.031950235E0,-3.378105164E1,1.500000060E-2,3.391684533E1
2.317998899E0,3.453000069E0,-3.408795166E1,5.295000225E-2,3.426243514E1
2.319962030E0,3.682950258E0,-3.447105026E1,-1.369500011E-1,3.466750906E1
2.321925438E0,4.027950287E0,-3.470100021E1,-2.910000086E-1,3.493520403E1
2.323888778E0,4.335000038E0,-3.470100021E1,-6.360000372E-1,3.497650836E1
2.325851811E0,4.603050232E0,-3.443295288E1,-9.420000315E-1,3.475203130E1
2.327814934E0,5.025000095E0,-3.408795166E1,-1.363950014E0,3.448332110E1
2.329778318E0,5.560950279E0,-3.358905029E1,-1.786050081E0,3.409308497E1
2.331741625E0,6.097950459E0,-3.301500320E1,-2.092050076E0,3.363855095E1
2.333704870E0,6.711000443E0,-3.232500076E1,-2.590050220E0,3.311572982E1
2.335668146E0,7.477950573E0,-3.155805206E1,-3.012000084E0,3.257149888E1
2.337631728E0,8.244000435E0,-3.079200172E1,-3.433950186E0,3.206092524E1
2.339595221E0,8.743050575E0,-2.994795227E1,-3.817050219E0,3.143072781E1
2.341558767E0,9.088050842E0,-2.906700134E1,-4.200000286E0,3.074285669E1
2.343522298E0,9.088050842E0,-2.814705086E1,-4.429950237E0,2.990775149E1
2.345485934E0,8.934000015E0,-2.730405045E1,-4.582950115E0,2.909176789E1
2.347449567E0,8.551050186E0,-2.646105194E1,-4.621950150E0,2.818989451E1
2.349412955E0,8.091000557E0,-2.561700058E1,-4.545000076E0,2.724613797E1
2.351376415E0,7.477950573E0,-2.488905144E1,-4.392000198E0,2.635667452E1
2.353339966E0,6.940950394E0,-2.423805046E1,-4.200000286E0,2.555973171E1
2.355303490E0,6.289950371E0,-2.362395096E1,-3.855000257E0,2.474905173E1
2.357267182E0,5.638050079E0,-2.312595177E1,-3.625050068E0,2.407775409E1
2.359230845E0,4.948050022E0,-2.266605186E1,-3.357000113E0,2.344147086E1
2.361194183E0,4.372950077E0,-2.224500084E1,-3.088950157E0,2.288021783E1
2.363157617E0,3.798000097E0,-2.193795013E1,-2.667000055E0,2.242345536E1
2.365120767E0,3.300000191E0,-2.182305145E1,-2.206950188E0,2.218121289E1
2.367084001E0,2.839950085E0,-2.182305145E1,-1.900950074E0,2.208901316E1
2.369047246E0,2.533950090E0,-2.197605133E1,-1.632000089E0,2.218177539E1
2.371010478E0,2.188950062E0,-2.216805077E1,-1.479000092E0,2.232490579E1
2.372974068E0,1.804950118E0,-2.224500084E1,-1.287000060E0,2.235518455E1
2.374937553E0,1.498950124E0,-2.235900116E1,-1.171950102E0,2.243981398E1
2.376900966E0,1.269000053E0,-2.228295135E1,-1.057050109E0,2.234407387E1
2.378864401E0,9.619500637E-1,-2.216805077E1,-8.269500136E-1,2.220431645E1
2.380827772E0,8.470500112E-1,-2.205300140E1,-6.360000372E-1,2.207842523E1
2.382791165E0,6.169500351E-1,-2.186100197E1,-2.910000086E-1,2.187164181E1
2.384753962E0,3.870000243E-1,-2.167005157E1,-2.205000073E-2,2.167351818E1
2.386716934E0,2.340000123E-1,-2.147805023E1,1.300500035E-1,2.147971859E1
2.388679308E0,4.050000105E-3,-2.124795151E1,2.830500007E-1,2.124983710E1
2.390641857E0,-3.299999982E-2,-2.109495163E1,4.750500321E-1,2.110032573E1
2.392605439E0,-1.480500102E-1,-2.090295029E1,7.810500264E-1,2.091806130E1
2.394568712E0,-2.629500031E-1,-2.059605026E1,1.050000072E0,2.062447404E1
2.396532476E0,-2.629500031E-1,-2.032800102E1,1.279950023E0,2.036995435E1
2.398496096E0,-3.019500077E-1,-2.002200127E1,1.395000100E0,2.007281081E1
2.400459261E0,-1.870500147E-1,-1.963800049E1,1.510050058E0,1.969686021E1
2.402422560E0,-3.299999982E-2,-1.933200073E1,1.585950017E0,1.939697344E1
2.404385991E0,-7.200000435E-2,-1.883295059E1,1.624950051E0,1.890305993E1
2.406349360E0,4.050000105E-3,-1.829700089E1,1.548000097E0,1.836236810E1
2.408313063E0,2.340000123E-1,-1.798995018E1,1.777950048E0,1.807910866E1
2.410276668E0,3.490500152E-1,-1.753005028E1,1.930950046E0,1.763953136E1
2.412240241E0,5.790000558E-1,-1.699394989E1,2.238000154E0,1.715045826E1
2.414203823E0,5.410500169E-1,-1.641900063E1,2.314950228E0,1.659021733E1
2.416168074E0,6.940500140E-1,-1.603499985E1,2.506050110E0,1.624448253E1
2.418132129E0,8.470500112E-1,-1.553700066E1,2.467950106E0,1.575457587E1
2.420095715E0,8.470500112E-1,-1.503900051E1,2.430000067E0,1.525758600E1
2.422059439E0,1.039050102E0,-1.461705112E1,2.314950228E0,1.483565985E1
2.424022991E0,1.077000022E0,-1.419600105E1,2.275950193E0,1.441756998E1
2.425986593E0,1.000050068E0,-1.362105083E1,1.969950080E0,1.379905175E1
2.427949959E0,1.000050068E0,-1.304595089E1,1.663050056E0,1.318949090E1
2.429913381E0,1.000050068E0,-1.254795074E1,1.471050024E0,1.267340350E1
2.431876759E0,9.619500637E-1,-1.204905033E1,1.432950020E0,1.217202972E1
2.433840150E0,8.470500112E-1,-1.147395039E1,1.050000072E0,1.155298798E1
2.435803489E0,8.089500666E-1,-1.101495075E1,7.429500222E-1,1.106957610E1
2.437766843E0,8.089500666E-1,-1.047795010E1,4.750500321E-1,1.051986269E1
2.439730988E0,7.320000529E-1,-9.940950394E0,2.449500114E-1,9.970873548E0
2.441694908E0,6.940500140E-1,-9.481050491E0,-6.105000153E-2,9.506616167E0
2.443658382E0,8.850000501E-1,-8.944950104E0,-1.759500057E-1,8.990345703E0
2.445621987E0,9.240000248E-1,-8.446949959E0,-4.060500264E-1,8.507033342E0
2.447585469E0,1.077000022E0,-8.025000572E0,-4.819500148E-1,8.111278509E0
2.449548987E0,1.153950095E0,-7.488000393E0,-4.819500148E-1,7.591707747E0
2.451512334E0,1.153950095E0,-7.027950287E0,-7.120500207E-1,7.157562524E0
2.453475742E0,1.306950092E0,-6.607050419E0,-7.890000343E-1,6.781132268E0
2.455439166E0,1.459950089E0,-6.223950386E0,-8.269500136E-1,6.446150712E0
2.457402586E0,1.614000082E0,-5.802000046E0,-8.659500480E-1,6.084247717E0
2.459365920E0,1.996950150E0,-5.419050217E0,-8.659500480E-1,5.839844573E0
2.461329280E0,2.304000139E0,-4.996950150E0,-7.510500550E-1,5.553557745E0
2.463293405E0,2.494950056E0,-4.614000320E0,-6.360000372E-1,5.283774294E0
2.465257294E0,2.725050211E0,-4.192049980E0,-5.590500236E-1,5.031075294E0
2.467220638E0,2.686950207E0,-3.808950186E0,-5.590500236E-1,4.694714034E0
2.469184142E0,2.649000168E0,-3.349050045E0,-5.209500194E-1,4.301712103E0
2.471148046E0,2.572050095E0,-2.851050138E0,-3.670500219E-1,3.857285872E0
2.473111833E0,2.380050182E0,-2.467050076E0,-1.369500011E-1,3.430704046E0
2.475075460E0,2.380050182E0,-2.161050081E0,-2.205000073E-2,3.214850312E0
2.477039137E0,2.304000139E0,-1.777950048E0,1.680000126E-1,2.915089539E0
2.479001931E0,2.380050182E0,-1.548000097E0,3.220500052E-1,2.857386809E0
2.480964983E0,2.494950056E0,-1.203000069E0,6.280500293E-1,2.840146438E0
2.482928649E0,2.494950056E0,-9.340500236E-1,8.200500607E-1,2.787419475E0
2.484892135E0,2.572050095E0,-6.280500293E-1,1.087950110E0,2.862433226E0
2.486855489E0,2.610000134E0,-4.360500276E-1,1.356000066E0,2.973377962E0
2.488818892E0,2.725050211E0,-2.440500110E-1,1.510050058E0,3.125013638E0
2.490782408E0,2.802000046E0,-1.680000126E-1,1.510050058E0,3.187425205E0
2.492745890E0,2.917050123E0,-1.680000126E-1,1.701000094E0,3.380947611E0
2.494708943E0,2.992950201E0,-9.105000645E-2,1.855050087E0,3.522392913E0
2.496672122E0,3.147000074E0,-1.500000060E-2,2.200050116E0,3.839798820E0
2.498634997E0,3.184950113E0,6.105000153E-2,2.430000067E0,4.006561450E0
2.500597964E0,3.223050117E0,9.900000691E-2,2.659050226E0,4.179521643E0
2.502561599E0,3.223050117E0,1.759500057E-1,2.736000061E0,4.231395372E0
2.504525038E0,3.223050117E0,2.140500098E-1,2.773950100E0,4.257777428E0
2.506488594E0,3.184950113E0,2.140500098E-1,2.698050022E0,4.179617034E0
2.508452115E0,3.147000074E0,3.679500222E-1,2.659050226E0,4.136368551E0
2.510415837E0,3.184950113E0,4.440000355E-1,2.467950106E0,4.053618258E0
2.512379500E0,3.147000074E0,5.209500194E-1,2.314950228E0,3.941318681E0
2.514343332E0,3.108000040E0,6.360000372E-1,2.161050081E0,3.838528071E0
2.516307115E0,3.070050240E0,7.129500508E-1,1.893000126E0,3.676541272E0
2.518270433E0,2.992950201E0,8.280000687E-1,1.663050056E0,3.522651062E0
2.520233887E0,2.917050123E0,9.430500269E-1,1.510050058E0,3.417422414E0
2.522197339E0,2.802000046E0,9.810000658E-1,1.432950020E0,3.296499832E0
2.524160767E0,2.764050245E0,1.018950105E0,1.240950108E0,3.196590409E0
2.526124459E0,2.649000168E0,1.096050024E0,1.011000037E0,3.039843519E0
2.528088073E0,2.572050095E0,1.134000063E0,7.429500222E-1,2.907468412E0
2.530052680E0,2.494950056E0,1.210950017E0,3.600000143E-1,2.796564989E0
2.532016996E0,2.380050182E0,1.249050021E0,1.300500035E-1,2.691036572E0
2.533980786E0,2.341950178E0,1.326000094E0,-1.369500011E-1,2.694765702E0
2.535944714E0,2.227050066E0,1.363950014E0,-4.440000355E-1,2.649008809E0
2.537908050E0,2.111999989E0,1.441050053E0,-7.890000343E-1,2.675759754E0
2.539871560E0,2.074050188E0,1.479000092E0,-9.810000658E-1,2.729741120E0
2.541835238E0,2.035050154E0,1.555950046E0,-1.249050021E0,2.850006251E0
2.543798866E0,1.882050037E0,1.633050084E0,-1.555950046E0,2.937676882E0
2.545762459E0,1.843950033E0,1.671000123E0,-1.824000120E0,3.085347561E0
2.547726046E0,1.729050040E0,1.786050081E0,-2.014950037E0,3.199939466E0
2.549689531E0,1.690050125E0,1.824000120E0,-2.206950188E0,3.324736831E0
2.551653046E0,1.614000082E0,1.863000035E0,-2.359950066E0,3.412496111E0
2.553616633E0,1.537050128E0,1.900950074E0,-2.475000143E0,3.478758398E0
2.555580198E0,1.537050128E0,1.900950074E0,-2.590050220E0,3.561529787E0
2.557543693E0,1.459950089E0,1.939050078E0,-2.551950216E0,3.521905646E0
2.559507205E0,1.422000051E0,1.939050078E0,-2.437050104E0,3.423625645E0
2.561470746E0,1.384050012E0,1.939050078E0,-2.359950066E0,3.353337733E0
2.563434279E0,1.384050012E0,1.900950074E0,-2.245050192E0,3.251069975E0
2.565397864E0,1.306950092E0,1.900950074E0,-2.092050076E0,3.114225947E0
2.567361433E0,1.306950092E0,1.900950074E0,-1.900950074E0,2.989204060E0
2.569324759E0,1.306950092E0,1.900950074E0,-1.671000123E0,2.848503316E0
2.571288176E0,1.269000053E0,1.863000035E0,-1.402050018E0,2.654594982E0
2.573251869E0,1.306950092E0,1.824000120E0,-1.134000063E0,2.514170067E0
2.575215481E0,1.269000053E0,1.786050081E0,-9.040500522E-1,2.370156646E0
2.577178828E0,1.269000053E0,1.708950043E0,-5.590500236E-1,2.200774480E0
2.579142252E0,1.306950092E0,1.671000123E0,-2.520000041E-1,2.136320191E0
2.581105854E0,1.306950092E0,1.555950046E0,-2.205000073E-2,2.032138108E0
2.583069404E0,1.269000053E0,1.441050053E0,2.070000172E-1,1.931278177E0
2.585032041E0,1.269000053E0,1.249050021E0,5.130000114E-1,1.853012710E0
2.586994945E0,1.269000053E0,1.096050024E0,8.200500607E-1,1.866592857E0
2.588958591E0,1.192050099E0,7.510500550E-1,1.011000037E0,1.734122458E0
2.590922020E0,1.153950095E0,4.440000355E-1,1.240950108E0,1.751768827E0
2.592886433E0,1.039050102E0,1.380000114E-1,1.318050027E0,1.684020484E0
2.594850558E0,1.114950061E0,-1.290000081E-1,1.395000100E0,1.790469190E0
2.596814042E0,1.077000022E0,-2.440500110E-1,1.471050024E0,1.839423178E0
2.598777714E0,1.153950095E0,-3.979500234E-1,1.471050024E0,1.911531642E0
2.600741049E0,1.077000022E0,-5.890500546E-1,1.432950020E0,1.886863740E0
2.602704483E0,1.077000022E0,-7.039500475E-1,1.395000100E0,1.897761839E0
2.604667833E0,1.000050068E0,-8.580000401E-1,1.240950108E0,1.810033529E0
2.606631195E0,8.850000501E-1,-9.340500236E-1,1.126049995E0,1.709872255E0
2.608594448E0,7.320000529E-1,-9.340500236E-1,1.050000072E0,1.584542102E0
2.610557733E0,6.940500140E-1,-9.340500236E-1,9.349500537E-1,1.492744610E0
2.612521314E0,6.940500140E-1,-1.011000037E0,9.349500537E-1,1.542062936E0
2.614484808E0,6.550500393E-1,-9.340500236E-1,8.200500607E-1,1.404998969E0
2.616448130E0,6.550500393E-1,-1.048950076E0,7.810500264E-1,1.462677668E0
2.618411502E0,6.550500393E-1,-1.011000037E0,7.050000429E-1,1.395792495E0
2.620374933E0,6.169500351E-1,-1.011000037E0,6.280500293E-1,1.340595114E0
2.622338347E0,5.790000558E-1,-9.730500579E-1,5.899500251E-1,1.276757029E0
2.624300826E0,5.790000558E-1,-9.730500579E-1,4.750500321E-1,1.227900653E0
2.626263579E0,5.410500169E-1,-9.730500579E-1,4.750500321E-1,1.210468533E0
2.628227011E0,4.639500082E-1,-9.340500236E-1,3.979500234E-1,1.116272045E0
2.630190255E0,4.260000288E-1,-8.190000653E-1,3.600000143E-1,9.908769560E-1
2.632153709E0,4.260000288E-1,-8.580000401E-1,3.600000143E-1,1.023347499E0
2.634117101E0,3.490500152E-1,-8.190000653E-1,3.600000143E-1,9.603109030E-1
2.636080799E0,3.109500110E-1,-8.580000401E-1,3.220500052E-1,9.677655625E-1
2.638044408E0,2.719500065E-1,-7.810500264E-1,3.220500052E-1,8.875314956E-1
2.640007926E0,2.719500065E-1,-7.810500264E-1,2.830500007E-1,8.741357175E-1
2.641971478E0,2.340000123E-1,-8.190000653E-1,3.220500052E-1,9.106224896E-1
2.643934879E0,2.340000123E-1,-7.810500264E-1,2.830500007E-1,8.630831086E-1
2.645898325E0,1.189500093E-1,-8.190000653E-1,3.220500052E-1,8.880464051E-1
2.647862193E0,8.100000024E-2,-8.580000401E-1,3.220500052E-1,9.200224316E-1
2.649825938E0,8.100000024E-2,-7.810500264E-1,3.220500052E-1,8.487145278E-1
2.651788890E0,4.200000316E-2,-8.959500194E-1,2.830500007E-1,9.405358793E-1
2.653752083E0,4.200000316E-2,-8.959500194E-1,3.220500052E-1,9.529987635E-1
2.655715680E0,8.100000024E-2,-8.959500194E-1,3.979500234E-1,9.836928679E-1
2.657679158E0,4.050000105E-3,-9.340500236E-1,3.220500052E-1,9.880192583E-1
2.659643248E0,-3.299999982E-2,-9.340500236E-1,3.600000143E-1,1.001567999E0
2.661607158E0,-3.299999982E-2,-1.048950076E0,2.830500007E-1,1.086969441E0
2.663569777E0,4.200000316E-2,-1.048950076E0,3.600000143E-1,1.109801907E0
2.665532775E0,4.050000105E-3,-1.164000034E0,3.220500052E-1,1.207737011E0
2.667496405E0,4.200000316E-2,-1.203000069E0,3.220500052E-1,1.246069569E0
2.669459850E0,8.100000024E-2,-1.240950108E0,3.979500234E-1,1.305711450E0
2.671423405E0,8.100000024E-2,-1.279050112E0,3.979500234E-1,1.341974072E0
2.673386927E0,1.570500135E-1,-1.393950105E0,4.360500276E-1,1.468979655E0
2.675350424E0,1.570500135E-1,-1.356000066E0,3.979500234E-1,1.421887867E0
2.677313929E0,1.960500032E-1,-1.548000097E0,3.600000143E-1,1.601355649E0
2.679278193E0,2.719500065E-1,-1.548000097E0,3.979500234E-1,1.621303589E0
2.681242235E0,3.870000243E-1,-1.663050056E0,2.449500114E-1,1.724965221E0
2.683205553E0,3.870000243E-1,-1.738950133E0,2.830500007E-1,1.803838654E0
2.685169083E0,3.870000243E-1,-1.816050053E0,2.830500007E-1,1.878276901E0
2.687133168E0,5.410500169E-1,-1.854000092E0,2.449500114E-1,1.946805581E0
2.689097086E0,5.790000558E-1,-1.969050050E0,1.680000126E-1,2.059277341E0
2.691060380E0,7.699500322E-1,-2.046000004E0,1.300500035E-1,2.189943395E0
2.693023857E0,8.850000501E-1,-2.161050081E0,-2.205000073E-2,2.335347671E0
2.694987405E0,1.000050068E0,-2.238000154E0,-9.900000691E-2,2.453272474E0
2.696950932E0,1.192050099E0,-2.351999998E0,-3.289500177E-1,2.657272200E0
2.698914288E0,1.345050097E0,-2.506050110E0,-5.970000029E-1,2.906175480E0
2.700877698E0,1.422000051E0,-2.544000149E0,-9.810000658E-1,3.075123092E0
2.702841212E0,1.537050128E0,-2.581950188E0,-1.171950102E0,3.225284004E0
2.704804696E0,1.690050125E0,-2.659050226E0,-1.402050018E0,3.448559378E0
2.706768469E0,1.843950033E0,-2.659050226E0,-1.594050050E0,3.607172770E0
2.708732158E0,2.035050154E0,-2.697000027E0,-1.900950074E0,3.876706006E0
2.710695477E0,2.227050066E0,-2.697000027E0,-2.130000114E0,4.095175409E0
2.712658915E0,2.265000105E0,-2.620950222E0,-2.284050226E0,4.149275958E0
2.714622605E0,2.380050182E0,-2.620950222E0,-2.437050104E0,4.298049807E0
2.716586221E0,2.380050182E0,-2.506050110E0,-2.437050104E0,4.228964322E0
2.718549567E0,2.341950178E0,-2.428950071E0,-2.398950100E0,4.139986796E0
2.720512992E0,2.304000139E0,-2.351999998E0,-2.322000027E0,4.028896221E0
2.722476349E0,2.265000105E0,-2.238000154E0,-2.130000114E0,3.830896847E0
2.724439741E0,2.111999989E0,-2.161050081E0,-2.014950037E0,3.631901025E0
2.726403304E0,1.959000111E0,-1.969050050E0,-1.900950074E0,3.365776391E0
2.728366816E0,1.690050125E0,-1.854000092E0,-1.824000120E0,3.101703113E0
2.730330000E0,1.459950089E0,-1.701000094E0,-1.786050081E0,2.866152557E0
2.732293280E0,1.345050097E0,-1.548000097E0,-1.900950074E0,2.796260941E0
2.734256701E0,1.153950095E0,-1.393950105E0,-2.092050076E0,2.766111212E0
2.736220067E0,9.619500637E-1,-1.318050027E0,-2.284050226E0,2.807042792E0
2.738183276E0,8.470500112E-1,-1.279050112E0,-2.667000055E0,3.076743767E0
2.740146531E0,7.699500322E-1,-1.318050027E0,-3.049950123E0,3.410612068E0
2.742110116E0,6.550500393E-1,-1.393950105E0,-3.357000113E0,3.693458705E0
2.744073605E0,6.940500140E-1,-1.509000063E0,-3.549000263E0,3.918442226E0
2.746036818E0,7.699500322E-1,-1.777950048E0,-3.510000229E0,4.009243200E0
2.748000126E0,7.320000529E-1,-2.083950043E0,-3.280050039E0,3.954415269E0
2.749962983E0,6.940500140E-1,-2.391000032E0,-2.896950245E0,3.819804615E0
2.751925972E0,6.169500351E-1,-2.736000061E0,-2.590050220E0,3.817680425E0
2.753889784E0,5.790000558E-1,-3.081000090E0,-2.245050192E0,3.855911433E0
2.755853355E0,6.169500351E-1,-3.463950157E0,-2.014950037E0,4.054577868E0
2.757816918E0,8.089500666E-1,-3.808950186E0,-1.786050081E0,4.283979064E0
2.759780463E0,9.619500637E-1,-4.192049980E0,-1.671000123E0,4.614203330E0
2.761743460E0,1.000050068E0,-4.498950005E0,-1.555950046E0,4.864322340E0
2.763706617E0,1.114950061E0,-4.882050037E0,-1.479000092E0,5.221586682E0
2.765669859E0,1.114950061E0,-5.341950417E0,-1.441050053E0,5.644127315E0
2.767633076E0,1.077000022E0,-5.878950119E0,-1.363950014E0,6.130443964E0
2.769596116E0,1.077000022E0,-6.568950176E0,-1.326000094E0,6.787437787E0
2.771559218E0,7.699500322E-1,-7.335000515E0,-1.096050024E0,7.456298094E0
2.773521750E0,4.260000288E-1,-8.217000008E0,-7.120500207E-1,8.258788070E0
2.775484449E0,-1.099500060E-1,-9.213000298E0,-1.369500011E-1,9.214674101E0
2.777447229E0,-6.850500107E-1,-1.009500027E1,3.220500052E-1,1.012334135E1
2.779409985E0,-1.106999993E0,-1.086105061E1,5.899500251E-1,1.093324793E1
2.781373486E0,-1.528050065E0,-1.162800026E1,8.200500607E-1,1.175660704E1
2.783336763E0,-2.065050125E0,-1.239405060E1,1.087950110E0,1.261192125E1
2.785299942E0,-2.640000105E0,-1.335300064E1,1.240950108E0,1.366792537E1
2.787263150E0,-3.100050211E0,-1.434900093E1,1.203000069E0,1.472926842E1
2.789226384E0,-3.636000156E0,-1.549905109E1,1.356000066E0,1.597747847E1
2.791189610E0,-4.134000301E0,-1.664895058E1,1.471050024E0,1.721747664E1
2.793153003E0,-4.518000126E0,-1.798995018E1,1.432950020E0,1.860386998E1
2.795116360E0,-4.824000359E0,-1.944705009E1,1.471050024E0,2.009036398E1
2.797079435E0,-4.978050232E0,-2.090295029E1,1.548000097E0,2.154322676E1
2.799042593E0,-5.016000271E0,-2.255100060E1,1.893000126E0,2.317954564E1
2.801006015E0,-4.900950432E0,-2.408400154E1,2.467950106E0,2.470119882E1
2.802969360E0,-4.786050320E0,-2.565600204E1,3.043050051E0,2.627540432E1
2.804932737E0,-4.479000092E0,-2.695905113E1,3.733050108E0,2.758237740E1
2.806896115E0,-3.790050268E0,-2.814705086E1,4.153950214E0,2.870324468E1
2.808859457E0,-2.908050060E0,-2.906700134E1,4.423050404E0,2.954506214E1
2.810822809E0,-1.642950058E0,-2.956500053E1,4.345950127E0,2.992784362E1
2.812786964E0,4.050000105E-3,-2.994795227E1,4.000950336E0,3.021402762E1
2.814750884E0,1.459950089E0,-2.991000175E1,3.541050196E0,3.015424839E1
2.816714152E0,2.802000046E0,-2.964195061E1,2.698050022E0,2.989608526E1
2.818677598E0,4.411950111E0,-2.933505058E1,1.816050053E0,2.972050697E1
2.820641692E0,5.638050079E0,-2.875995064E1,9.349500537E-1,2.932228676E1
2.822605596E0,6.289950371E0,-2.799405098E1,-6.105000153E-2,2.869205627E1
2.824568577E0,6.673050404E0,-2.722695160E1,-1.249050021E0,2.806058839E1
2.826531828E0,6.595950127E0,-2.669100189E1,-2.514000177E0,2.760862794E1
2.828495069E0,6.175050259E0,-2.634600067E1,-3.549000263E0,2.729172768E1
2.830458304E0,5.215950012E0,-2.611605072E1,-4.237950325E0,2.696691422E1
2.832421534E0,4.182000160E0,-2.611605072E1,-4.736999989E0,2.686961852E1
2.834384766E0,3.070050240E0,-2.619195175E1,-4.813050270E0,2.680688341E1
2.836347951E0,2.149950027E0,-2.611605072E1,-4.392000198E0,2.656990885E1
2.838311150E0,1.575000048E0,-2.611605072E1,-3.586950064E0,2.640823624E1
2.840274401E0,1.345050097E0,-2.623095131E1,-2.782050133E0,2.641234123E1
2.842237626E0,1.345050097E0,-2.642205048E1,-1.824000120E0,2.651906649E1
2.844200903E0,1.614000082E0,-2.669100189E1,-9.810000658E-1,2.675774541E1
2.846164164E0,1.996950150E0,-2.699700165E1,1.500000060E-2,2.707076159E1
2.848126850E0,2.494950056E0,-2.753400040E1,8.959500194E-1,2.766132101E1
2.850089705E0,2.917050123E0,-2.826195145E1,1.585950017E0,2.845632300E1
2.852053300E0,3.529950142E0,-2.891400146E1,2.430000067E0,2.922986365E1
2.854016688E0,3.837000132E0,-2.952705193E1,3.157950163E0,2.994231144E1
2.855980252E0,4.027950287E0,-3.006300163E1,3.388050079E0,3.052027742E1
2.857943765E0,3.952050209E0,-3.040800095E1,3.118950129E0,3.082195763E1
2.859907174E0,3.607050180E0,-3.044700050E1,2.620950222E0,3.077174078E1
2.861870613E0,3.337950230E0,-3.044700050E1,2.008050203E0,3.069517905E1
2.863833988E0,3.376950264E0,-3.040800095E1,1.548000097E0,3.063407611E1
2.865797382E0,3.682950258E0,-3.037005234E1,1.240950108E0,3.061770989E1
2.867760540E0,4.258049965E0,-3.040800095E1,8.580000401E-1,3.071666771E1
2.869723767E0,4.833000183E0,-3.040800095E1,4.750500321E-1,3.079334481E1
2.871688259E0,5.599950314E0,-3.029295158E1,9.195000678E-2,3.080634373E1
2.873652380E0,6.250950336E0,-3.017805099E1,-2.140500098E-1,3.081939259E1
2.875615509E0,6.903000355E0,-2.998695183E1,-5.970000029E-1,3.077702232E1
2.877578926E0,7.477950573E0,-2.968005180E1,-9.420000315E-1,3.062209307E1
2.879542124E0,7.975950241E0,-2.925795174E1,-1.018950105E0,3.034273853E1
2.881505387E0,8.436000824E0,-2.883705139E1,-1.096050024E0,3.006564432E1
2.883468432E0,8.781000137E0,-2.837700081E1,-1.171950102E0,2.972765725E1
2.885431541E0,9.126000404E0,-2.795505142E1,-1.171950102E0,2.943029477E1
2.887394937E0,9.433050156E0,-2.757195091E1,-1.210950017E0,2.916609868E1
2.889358241E0,9.700950623E0,-2.707395172E1,-1.134000063E0,2.878182171E1
2.891321280E0,9.816000938E0,-2.665200043E1,-1.134000063E0,2.842479476E1
2.893284397E0,9.853950500E0,-2.619195175E1,-1.018950105E0,2.800280229E1
2.895247692E0,9.816000938E0,-2.569395065E1,-1.057050109E0,2.752544876E1
2.897210934E0,9.739050865E0,-2.519595146E1,-1.057050109E0,2.703335785E1
2.899174293E0,9.586050034E0,-2.481195068E1,-1.134000063E0,2.662350856E1
2.901137621E0,9.394050598E0,-2.435295105E1,-1.249050021E0,2.613186823E1
2.903101015E0,9.163949966E0,-2.400795174E1,-1.249050021E0,2.572780308E1
2.905064390E0,8.781000137E0,-2.362395096E1,-1.363950014E0,2.523999568E1
2.907027776E0,8.398050308E0,-2.339400101E1,-1.402050018E0,2.489522598E1
2.908991159E0,7.975950241E0,-2.308800125E1,-1.555950046E0,2.447636747E1
2.910954398E0,7.438950539E0,-2.281905174E1,-1.708950043E0,2.406174594E1
2.912917656E0,6.865050316E0,-2.255100060E1,-1.632000089E0,2.362921852E1
2.914881061E0,6.097950459E0,-2.235900116E1,-1.632000089E0,2.323302298E1
2.916844423E0,5.370000362E0,-2.216805077E1,-1.441050053E0,2.285467138E1
2.918807633E0,4.603050232E0,-2.220600128E1,-1.326000094E0,2.271679644E1
2.920770887E0,3.837000132E0,-2.239800072E1,-1.057050109E0,2.274885406E1
2.922733969E0,3.262050152E0,-2.258895111E1,-9.040500522E-1,2.284116875E1
2.924697108E0,2.764050245E0,-2.266605186E1,-7.890000343E-1,2.284759073E1
2.926660669E0,2.341950178E0,-2.274300194E1,-6.360000372E-1,2.287210886E1
2.928624106E0,1.804950118E0,-2.266605186E1,-5.590500236E-1,2.274467606E1
2.930587167E0,1.345050097E0,-2.255100060E1,-5.590500236E-1,2.259799382E1
2.932550339E0,1.114950061E0,-2.239800072E1,-7.510500550E-1,2.243830711E1
2.934513008E0,6.169500351E-1,-2.220600128E1,-8.269500136E-1,2.222995651E1
2.936475815E0,2.719500065E-1,-2.201505089E1,-9.040500522E-1,2.203528373E1
2.938438937E0,4.200000316E-2,-2.178495026E1,-9.810000658E-1,2.180706727E1
2.940401967E0,-3.019500077E-1,-2.147805023E1,-9.810000658E-1,2.150256210E1
2.942365232E0,-4.930500090E-1,-2.117100143E1,-1.018950105E0,2.120124193E1
2.944328428E0,-6.850500107E-1,-2.078805161E1,-9.040500522E-1,2.081897427E1
2.946291880E0,-8.380500674E-1,-2.048100090E1,-7.890000343E-1,2.051331877E1
2.948255264E0,-9.529500604E-1,-2.009805107E1,-5.209500194E-1,2.012737339E1
2.950218289E0,-9.150000215E-1,-1.979205132E1,-3.670500219E-1,1.981659017E1
2.952181420E0,-9.150000215E-1,-1.948500061E1,-1.369500011E-1,1.950695335E1
2.954144802E0,-9.919500351E-1,-1.894799995E1,5.295000225E-2,1.897402095E1
2.956108111E0,-1.144950032E0,-1.845000076E1,1.500000060E-2,1.848549874E1
2.958071374E0,-1.144950032E0,-1.795200157E1,5.295000225E-2,1.798855399E1
2.960034651E0,-1.106999993E0,-1.760700035E1,9.195000678E-2,1.764200570E1
2.961997829E0,-1.183050036E0,-1.714695168E1,1.680000126E-1,1.718853639E1
2.963961036E0,-1.336950064E0,-1.657200050E1,5.295000225E-2,1.662592674E1
2.965924315E0,-1.183050036E0,-1.615005112E1,-6.105000153E-2,1.619343958E1
2.967887572E0,-1.183050036E0,-1.561395073E1,-9.900000691E-2,1.565901867E1
2.969850425E0,-9.150000215E-1,-1.523100090E1,-1.369500011E-1,1.525907496E1
2.971813406E0,-7.620000243E-1,-1.480905056E1,-1.369500011E-1,1.482927435E1
2.973776453E0,-5.320500135E-1,-1.446405029E1,-1.759500057E-1,1.447490195E1
2.975739481E0,-5.320500135E-1,-1.396605110E1,-2.520000041E-1,1.397845358E1
2.977702566E0,-3.780000210E-1,-1.358205032E1,-4.060500264E-1,1.359337528E1
2.979665635E0,-1.099500060E-1,-1.327605057E1,-3.289500177E-1,1.328058040E1
2.981628598E0,1.960500032E-1,-1.293105030E1,-3.670500219E-1,1.293774413E1
2.983591579E0,3.490500152E-1,-1.258605099E1,-2.520000041E-1,1.259341174E1
2.985555528E0,5.410500169E-1,-1.224105072E1,-1.759500057E-1,1.225426523E1
2.987519193E0,6.550500393E-1,-1.178100014E1,-2.140500098E-1,1.180113860E1
2.989482215E0,6.550500393E-1,-1.143600082E1,-3.670500219E-1,1.146062525E1
2.991445425E0,7.320000529E-1,-1.105305099E1,-4.819500148E-1,1.108774261E1
2.993408974E0,7.320000529E-1,-1.070805073E1,-5.970000029E-1,1.074963178E1
2.995372423E0,8.089500666E-1,-1.032495022E1,-5.590500236E-1,1.037166979E1
2.997335618E0,8.470500112E-1,-9.865050316E0,-5.590500236E-1,9.917118956E0
2.999298887E0,8.850000501E-1,-9.481050491E0,-4.440000355E-1,9.532611370E0
3.001262471E0,9.619500637E-1,-9.021000862E0,-5.209500194E-1,9.087089380E0
3.003225962E0,1.000050068E0,-8.446949959E0,-5.970000029E-1,8.526867699E0
3.005189194E0,9.240000248E-1,-7.948050499E0,-6.360000372E-1,8.026816232E0
3.007152502E0,9.619500637E-1,-7.603050232E0,-7.890000343E-1,7.704170417E0
3.009116034E0,9.619500637E-1,-7.105050564E0,-9.420000315E-1,7.231490545E0
3.011079500E0,9.619500637E-1,-6.721950531E0,-1.134000063E0,6.884469697E0
3.013043051E0,1.039050102E0,-6.223950386E0,-1.210950017E0,6.425230227E0
3.015006577E0,9.619500637E-1,-5.839950085E0,-1.326000094E0,6.065364059E0
3.016969983E0,1.153950095E0,-5.419050217E0,-1.402050018E0,5.715194688E0
3.018933425E0,1.192050099E0,-4.996950150E0,-1.402050018E0,5.325057604E0
3.020896934E0,1.306950092E0,-4.690050125E0,-1.287000060E0,5.035976358E0
3.022860423E0,1.345050097E0,-4.384050369E0,-1.287000060E0,4.762922061E0
3.024823476E0,1.422000051E0,-4.077000141E0,-1.210950017E0,4.484463651E0
3.026786656E0,1.651950121E0,-3.808950186E0,-1.134000063E0,4.303835134E0
3.028750060E0,1.729050040E0,-3.541050196E0,-9.040500522E-1,4.043013360E0
3.030713408E0,1.843950033E0,-3.234000206E0,-6.739500165E-1,3.783268122E0
3.032676799E0,1.804950118E0,-2.926950216E0,-4.440000355E-1,3.467278260E0
3.034640178E0,1.843950033E0,-2.506050110E0,-2.140500098E-1,3.118694644E0
3.036603204E0,1.843950033E0,-2.238000154E0,5.295000225E-2,2.900275869E0
3.038566334E0,1.920000076E0,-1.930950046E0,2.830500007E-1,2.737715412E0
3.040528676E0,1.920000076E0,-1.585950017E0,3.979500234E-1,2.521904433E0
3.042491252E0,1.996950150E0,-1.432950020E0,7.050000429E-1,2.556986648E0
3.044454594E0,2.074050188E0,-1.126049995E0,7.810500264E-1,2.485902637E0
3.046417711E0,2.111999989E0,-9.730500579E-1,9.730500579E-1,2.520753217E0
3.048380962E0,2.149950027E0,-7.429500222E-1,1.165050030E0,2.555699792E0
3.050344173E0,2.227050066E0,-5.509500504E-1,1.356000066E0,2.664964190E0
3.052307551E0,2.304000139E0,-3.589500189E-1,1.395000100E0,2.717220462E0
3.054270874E0,2.304000139E0,-2.059500068E-1,1.432950020E0,2.721061889E0
3.056234090E0,2.304000139E0,-1.680000126E-1,1.471050024E0,2.738727591E0
3.058197338E0,2.341950178E0,-1.290000081E-1,1.395000100E0,2.728991923E0
3.060159529E0,2.380050182E0,-5.295000225E-2,1.471050024E0,2.798469358E0
3.062122030E0,2.380050182E0,2.295000106E-2,1.510050058E0,2.818761563E0
3.064085696E0,2.419050217E0,9.900000691E-2,1.510050058E0,2.853393792E0
3.066049024E0,2.457000017E0,1.380000114E-1,1.624950051E0,2.948958419E0
3.068012239E0,2.494950056E0,1.759500057E-1,1.585950017E0,2.961582625E0
3.069975487E0,2.533950090E0,2.140500098E-1,1.510050058E0,2.957527962E0
3.071938715E0,2.494950056E0,2.530499995E-1,1.510050058E0,2.927295896E0
3.073901949E0,2.533950090E0,3.289500177E-1,1.510050058E0,2.968057000E0
3.075865223E0,2.533950090E0,3.679500222E-1,1.510050058E0,2.972632076E0
3.077828485E0,2.649000168E0,4.440000355E-1,1.510050058E0,3.081329113E0
3.079791712E0,2.686950207E0,5.209500194E-1,1.471050024E0,3.107262221E0
3.081754949E0,2.686950207E0,5.590500236E-1,1.510050058E0,3.132489349E0
3.083718313E0,2.725050211E0,6.360000372E-1,1.548000097E0,3.197921044E0
3.085681639E0,2.649000168E0,7.510500550E-1,1.548000097E0,3.158731134E0
3.087645093E0,2.572050095E0,8.659500480E-1,1.548000097E0,3.124358410E0
3.089608499E0,2.494950056E0,9.430500269E-1,1.510050058E0,3.065023705E0
3.091572015E0,2.341950178E0,1.018950105E0,1.471050024E0,2.947368000E0
3.093535499E0,2.188950062E0,1.057950020E0,1.471050024E0,2.841610246E0
3.095498868E0,2.074050188E0,1.173000097E0,1.432950020E0,2.780460244E0
3.097462271E0,1.882050037E0,1.249050021E0,1.356000066E0,2.634572921E0
3.099425517E0,1.690050125E0,1.326000094E0,1.279950023E0,2.500563484E0
3.101388809E0,1.614000082E0,1.363950014E0,1.087950110E0,2.376760684E0
3.103352164E0,1.498950124E0,1.402950048E0,7.429500222E-1,2.183367822E0
3.105315500E0,1.422000051E0,1.441050053E0,5.130000114E-1,2.088511051E0
3.107279434E0,1.384050012E0,1.441050053E0,2.449500114E-1,2.013012717E0
3.109243192E0,1.306950092E0,1.518000126E0,-2.205000073E-2,2.003229674E0
3.111206703E0,1.306950092E0,1.518000126E0,-4.060500264E-1,2.043849199E0
3.113170280E0,1.306950092E0,1.633050084E0,-7.510500550E-1,2.222396748E0
3.115133631E0,1.269000053E0,1.633050084E0,-1.057050109E0,2.322621072E0
3.117097049E0,1.230000019E0,1.708950043E0,-1.287000060E0,2.467747850E0
3.119060472E0,1.192050099E0,1.708950043E0,-1.594050050E0,2.623449875E0
3.121023893E0,1.114950061E0,1.708950043E0,-1.786050081E0,2.711751976E0
3.122987272E0,1.039050102E0,1.786050081E0,-1.900950074E0,2.807705681E0
3.124950664E0,1.000050068E0,1.747950077E0,-2.014950037E0,2.848763462E0
3.126914048E0,9.240000248E-1,1.747950077E0,-2.014950037E0,2.822964606E0
3.128877434E0,8.470500112E-1,1.708950043E0,-1.977000117E0,2.747095454E0
3.130840952E0,7.699500322E-1,1.708950043E0,-1.747050047E0,2.562326515E0
3.132804432E0,6.940500140E-1,1.633050084E0,-1.516950130E0,2.334458331E0
3.134767076E0,5.790000558E-1,1.594050050E0,-1.287000060E0,2.128991729E0
3.136729968E0,5.020500422E-1,1.518000126E0,-1.057050109E0,1.916698610E0
3.138693301E0,3.870000243E-1,1.518000126E0,-7.510500550E-1,1.737287997E0
3.140656505E0,3.109500110E-1,1.402950048E0,-4.440000355E-1,1.504026190E0
3.142619696E0,2.719500065E-1,1.363950014E0,-6.105000153E-2,1.392136326E0
3.144582891E0,2.340000123E-1,1.326000094E0,2.070000172E-1,1.362307331E0
3.146545227E0,1.189500093E-1,1.249050021E0,3.979500234E-1,1.316297566E0
3.148507814E0,8.100000024E-2,1.173000097E0,7.810500264E-1,1.411569825E0
3.150471019E0,4.200000316E-2,1.096050024E0,1.050000072E0,1.518416875E0
3.152434043E0,4.050000105E-3,1.018950105E0,1.279950023E0,1.636015825E0
3.154396905E0,-3.299999982E-2,8.659500480E-1,1.395000100E0,1.642249605E0
3.156359814E0,-3.299999982E-2,7.890000343E-1,1.510050058E0,1.704071957E0
3.158323280E0,4.050000105E-3,7.129500508E-1,1.585950017E0,1.738836287E0
3.160286582E0,4.200000316E-2,4.440000355E-1,1.663050056E0,1.721811697E0
3.162249801E0,-3.299999982E-2,2.140500098E-1,1.585950017E0,1.600669817E0
3.164213045E0,-3.299999982E-2,2.295000106E-2,1.585950017E0,1.586459315E0
3.166177038E0,-3.299999982E-2,-9.105000645E-2,1.548000097E0,1.551026565E0
3.168140812E0,-7.200000435E-2,-1.680000126E-1,1.510050058E0,1.521071722E0
3.170104315E0,-1.099500060E-1,-2.440500110E-1,1.510050058E0,1.533590751E0
3.172067895E0,-7.200000435E-2,-3.589500189E-1,1.471050024E0,1.515921268E0
3.174031201E0,-7.200000435E-2,-4.740000367E-1,1.471050024E0,1.547206582E0
3.175994588E0,-3.299999982E-2,-5.509500504E-1,1.471050024E0,1.571185263E0
3.177958016E0,-3.299999982E-2,-5.890500546E-1,1.471050024E0,1.584947046E0
3.179921432E0,-7.200000435E-2,-6.280500293E-1,1.471050024E0,1.601130542E0
3.181884841E0,-3.299999982E-2,-6.660000086E-1,1.432950020E0,1.580503328E0
3.183848232E0,-3.299999982E-2,-7.039500475E-1,1.395000100E0,1.562901132E0
3.185811570E0,-7.200000435E-2,-7.429500222E-1,1.395000100E0,1.582145384E0
3.187774924E0,-7.200000435E-2,-7.810500264E-1,1.356000066E0,1.566511833E0
3.189738538E0,-3.299999982E-2,-8.190000653E-1,1.356000066E0,1.584482971E0
3.191702076E0,4.050000105E-3,-8.580000401E-1,1.395000100E0,1.637744104E0
3.193665405E0,-7.200000435E-2,-8.959500194E-1,1.395000100E0,1.659498634E0
3.195628785E0,-7.200000435E-2,-8.959500194E-1,1.395000100E0,1.659498634E0
3.197592350E0,-7.200000435E-2,-9.340500236E-1,1.395000100E0,1.680374579E0
3.199555860E0,-1.099500060E-1,-9.340500236E-1,1.395000100E0,1.682427927E0
3.201519270E0,-7.200000435E-2,-1.011000037E0,1.356000066E0,1.692938645E0
3.203482709E0,4.050000105E-3,-1.048950076E0,1.318050027E0,1.684508397E0
3.205446419E0,4.050000105E-3,-1.087950110E0,1.279950023E0,1.679858299E0
3.207410067E0,1.189500093E-1,-1.164000034E0,1.165050030E0,1.651177385E0
3.209373588E0,1.960500032E-1,-1.240950108E0,1.011000037E0,1.612610879E0
3.211337146E0,3.490500152E-1,-1.356000066E0,8.959500194E-1,1.662317217E0
3.213301716E0,5.020500422E-1,-1.432950020E0,7.050000429E-1,1.674044523E0
3.215265990E0,7.320000529E-1,-1.509000063E0,4.360500276E-1,1.732929570E0
3.217230139E0,1.000050068E0,-1.548000097E0,1.680000126E-1,1.850575166E0
3.219194315E0,1.192050099E0,-1.624050021E0,-2.205000073E-2,2.014698020E0
3.221158104E0,1.306950092E0,-1.663050056E0,-2.910000086E-1,2.135072607E0
3.223122007E0,1.459950089E0,-1.738950133E0,-7.890000343E-1,2.403731034E0
3.225085708E0,1.767000079E0,-1.854000092E0,-1.249050021E0,2.849514270E0
3.227049469E0,2.111999989E0,-1.930950046E0,-1.671000123E0,3.313812524E0
3.229013321E0,2.457000017E0,-1.969050050E0,-2.130000114E0,3.801434949E0
3.230977120E0,2.802000046E0,-2.122950077E0,-2.437050104E0,4.277538369E0
3.232940975E0,3.147000074E0,-2.122950077E0,-2.782050133E0,4.706413649E0
3.234904813E0,3.529950142E0,-2.238000154E0,-2.935050249E0,5.107221619E0
3.236868301E0,3.798000097E0,-2.314050198E0,-3.127050161E0,5.436733925E0
3.238831892E0,4.027950287E0,-2.391000032E0,-3.319050074E0,5.740849942E0
3.240795392E0,4.372950077E0,-2.428950071E0,-3.394950151E0,6.045508858E0
3.242758939E0,4.564949989E0,-2.467050076E0,-3.433950186E0,6.222308121E0
3.244722296E0,4.795050144E0,-2.506050110E0,-3.319050074E0,6.347352710E0
3.246685709E0,4.948050022E0,-2.544000149E0,-3.127050161E0,6.382286306E0
3.248649268E0,5.062950134E0,-2.467050076E0,-2.896950245E0,6.333413050E0
3.250612784E0,5.101050377E0,-2.506050110E0,-2.514000177E0,6.214595642E0
3.252576336E0,5.101050377E0,-2.391000032E0,-2.014950037E0,5.983111210E0
3.254539871E0,4.987050056E0,-2.351999998E0,-1.402050018E0,5.689315997E0
3.256503455E0,4.833000183E0,-2.199000120E0,-7.510500550E-1,5.362608366E0
3.258467024E0,4.564949989E0,-2.008050203E0,1.500000060E-2,4.987109285E0
3.260429477E0,4.182000160E0,-1.701000094E0,6.660000086E-1,4.563560307E0
3.262392257E0,3.874950171E0,-1.432950020E0,1.356000066E0,4.348254910E0
3.264356105E0,3.529950142E0,-1.126049995E0,1.816050053E0,4.126326985E0
3.266319640E0,3.147000074E0,-8.959500194E-1,2.467950106E0,4.098428190E0
3.268283135E0,2.802000046E0,-7.039500475E-1,2.965950251E0,4.140484370E0
3.270246642E0,2.839950085E0,-7.039500475E-1,3.273000240E0,4.390147233E0
