"Time (s)","Acceleration x (m/s^2)","Acceleration y (m/s^2)","Acceleration z (m/s^2)","Absolute acceleration (m/s^2)"
3.263056000E-2,2.280900192E1,-6.513300323E1,1.454100037E1,7.052658627E1
3.459251700E-2,2.614305115E1,-6.352305222E1,1.201095104E1,6.973449814E1
3.655702200E-2,2.913300133E1,-6.118500137E1,8.064000130E0,6.824488448E1
3.852111500E-2,3.181605148E1,-5.811900330E1,1.893000126E0,6.628471261E1
4.048532900E-2,3.469005203E1,-5.424795151E1,-1.033305073E1,6.521512010E1
4.244857700E-2,3.737295151E1,-4.960995102E1,-2.781000137E1,6.805351513E1
4.441210400E-2,3.710505295E1,-4.435995102E1,-3.681705093E1,6.855716920E1
4.637532900E-2,3.242895126E1,-3.872505188E1,-3.819705200E1,6.332678189E1
4.833864200E-2,2.541495132E1,-3.378105164E1,-3.520695114E1,5.501462178E1
5.030217300E-2,1.759605026E1,-2.987205124E1,-3.034005165E1,4.607037187E1
5.226564000E-2,1.115700054E1,-2.715000153E1,-2.321100044E1,3.742127450E1
5.422902300E-2,6.520050526E0,-2.531100082E1,-1.635000038E1,3.082986108E1
5.619245400E-2,2.764050245E0,-2.404605103E1,-1.017900085E1,2.625765797E1
5.815470400E-2,-2.250000089E-1,-2.304900169E1,-5.043000221E0,2.359531639E1
6.011730000E-2,-2.601000071E0,-2.216805077E1,-1.171950102E0,2.235086448E1
6.207973800E-2,-4.671000004E0,-2.136300087E1,1.240950108E0,2.190287662E1
6.404222300E-2,-6.280950069E0,-2.098005104E1,3.081000090E0,2.211572827E1
6.600527100E-2,-7.123950481E0,-2.071095085E1,4.498950005E0,2.235921973E1
6.796815000E-2,-7.507050514E0,-2.063505173E1,5.611050129E0,2.266373868E1
6.993126000E-2,-7.813950539E0,-2.059605026E1,6.339000225E0,2.292243515E1
7.189430300E-2,-7.929000378E0,-2.067300034E1,6.876000404E0,2.318450714E1
7.385752100E-2,-7.852050304E0,-2.086500168E1,7.258950233E0,2.344558269E1
7.582068800E-2,-7.776000500E0,-2.105595016E1,7.450050354E0,2.364999940E1
7.778395500E-2,-7.660950184E0,-2.117100143E1,7.450050354E0,2.371507347E1
7.974720600E-2,-7.354050159E0,-2.132505035E1,7.335000515E0,2.372007713E1
8.171043500E-2,-6.894000530E0,-2.159295082E1,7.144050121E0,2.376594666E1
8.367367000E-2,-6.013050079E0,-2.193795013E1,6.952050209E0,2.378574004E1
8.563685500E-2,-5.169000149E0,-2.228295135E1,6.799050331E0,2.386368725E1
8.760005500E-2,-4.363950253E0,-2.266605186E1,6.531000137E0,2.398849582E1
8.956332100E-2,-3.636000156E0,-2.304900169E1,6.262050152E0,2.415968229E1
9.152657700E-2,-2.985000134E0,-2.339400101E1,5.878950119E0,2.430538137E1
9.349011900E-2,-2.179949999E0,-2.377800179E1,5.572050095E0,2.451924332E1
9.545357700E-2,-1.528050065E0,-2.396895027E1,5.380950451E0,2.461300757E1
9.741677000E-2,-8.770500422E-1,-2.416095161E1,5.151000023E0,2.471949840E1
9.938004100E-2,-2.250000089E-1,-2.431395149E1,5.035950184E0,2.483102206E1
1.013441640E-1,2.340000123E-1,-2.442900085E1,4.806000233E0,2.489836294E1
1.033080380E-1,6.169500351E-1,-2.446800041E1,4.576050282E0,2.489987766E1
1.052715200E-1,8.850000501E-1,-2.435295105E1,4.269000053E0,2.474012553E1
1.072351170E-1,1.153950095E0,-2.419905090E1,3.963000298E0,2.454854449E1
1.091984650E-1,1.345050097E0,-2.400795174E1,3.733050108E0,2.433365097E1
1.111618860E-1,1.422000051E0,-2.377800179E1,3.349050045E0,2.405476230E1
1.131252600E-1,1.651950121E0,-2.347095108E1,3.043050051E0,2.372497919E1
1.150886510E-1,1.959000111E0,-2.320305061E1,2.698050022E0,2.344138889E1
1.170522590E-1,2.265000105E0,-2.281905174E1,2.391000032E0,2.305550323E1
1.190158030E-1,2.457000017E0,-2.243595123E1,2.085000038E0,2.266618587E1
1.209789360E-1,2.610000134E0,-2.193795013E1,1.777950048E0,2.216408950E1
1.229421900E-1,2.839950085E0,-2.155500031E1,1.585950017E0,2.179905026E1
1.249055910E-1,3.147000074E0,-2.109495163E1,1.471050024E0,2.137906878E1
1.268689520E-1,3.415050268E0,-2.067300034E1,1.395000100E0,2.099956039E1
1.288321610E-1,3.682950258E0,-2.025105095E1,1.395000100E0,2.063044383E1
1.307954150E-1,3.874950171E0,-1.983000183E1,1.432950020E0,2.025580305E1
1.327584620E-1,4.066950321E0,-1.929300117E1,1.432950020E0,1.976899909E1
1.347215690E-1,4.182000160E0,-1.883295059E1,1.432950020E0,1.934483133E1
1.366850400E-1,4.258049965E0,-1.837305069E1,1.471050024E0,1.891729286E1
1.386484080E-1,4.297049999E0,-1.795200157E1,1.585950017E0,1.852712165E1
1.406115710E-1,4.372950077E0,-1.753005028E1,1.701000094E0,1.814714183E1
1.425747950E-1,4.372950077E0,-1.707000160E1,1.816050053E0,1.771456138E1
1.445377110E-1,4.219950199E0,-1.668704987E1,2.008050203E0,1.732910495E1
1.465007180E-1,4.219950199E0,-1.618905067E1,2.046000004E0,1.685465685E1
1.484639690E-1,4.258049965E0,-1.569000053E1,2.161050081E0,1.640052571E1
1.504271290E-1,4.297049999E0,-1.530705070E1,2.161050081E0,1.604495489E1
1.523904170E-1,4.372950077E0,-1.492395115E1,2.275950193E0,1.571709132E1
1.543536670E-1,4.335000038E0,-1.442595100E1,2.238000154E0,1.522855648E1
1.563170300E-1,4.219950199E0,-1.396605110E1,2.122950077E0,1.474331985E1
1.582803600E-1,4.105050087E0,-1.342905045E1,2.122950077E0,1.420203327E1
1.602436490E-1,4.066950321E0,-1.304595089E1,2.161050081E0,1.383499393E1
1.622069290E-1,3.874950171E0,-1.250895023E1,2.008050203E0,1.324844672E1
1.641699710E-1,3.721950293E0,-1.201095104E1,1.893000126E0,1.271610429E1
1.661330830E-1,3.529950142E0,-1.147395039E1,1.777950048E0,1.213561667E1
1.680961540E-1,3.300000191E0,-1.101495075E1,1.701000094E0,1.162379209E1
1.700592370E-1,3.070050240E0,-1.051605034E1,1.585950017E0,1.106922584E1
1.720222830E-1,2.992950201E0,-9.979950905E0,1.471050024E0,1.052241223E1
1.739853290E-1,2.917050123E0,-9.520050049E0,1.240950108E0,1.003396689E1
1.759491760E-1,2.686950207E0,-8.983050346E0,8.200500607E-1,9.412086753E0
1.779127880E-1,2.572050095E0,-8.407950401E0,2.830500007E-1,8.797112534E0
1.798761350E-1,2.419050217E0,-7.717950344E0,-2.520000041E-1,8.092098953E0
1.818395590E-1,2.265000105E0,-7.105050564E0,-9.810000658E-1,7.521590930E0
1.838027330E-1,2.035050154E0,-6.415050507E0,-1.671000123E0,6.934446160E0
1.857659970E-1,1.843950033E0,-5.686950207E0,-2.590050220E0,6.515359892E0
1.877294010E-1,1.767000079E0,-4.959000111E0,-3.510000229E0,6.327248453E0
1.896927640E-1,1.575000048E0,-4.269000053E0,-4.237950325E0,6.218135538E0
1.916561520E-1,1.537050128E0,-3.541050196E0,-4.890000343E0,6.230061231E0
1.936195330E-1,1.422000051E0,-2.926950216E0,-5.235000134E0,6.163955557E0
1.955828840E-1,1.345050097E0,-2.391000032E0,-5.350050449E0,6.012410559E0
1.975462370E-1,1.306950092E0,-1.777950048E0,-5.350050449E0,5.787250187E0
1.995094460E-1,1.306950092E0,-1.279050112E0,-5.235000134E0,5.545206410E0
2.014726980E-1,1.306950092E0,-8.580000401E-1,-4.966950417E0,5.207194931E0
2.034359690E-1,1.306950092E0,-3.979500234E-1,-4.621950150E0,4.819637533E0
2.053992350E-1,1.345050097E0,-1.290000081E-1,-4.162050247E0,4.375895683E0
2.073615550E-1,1.345050097E0,1.380000114E-1,-3.625050068E0,3.869003975E0
2.093241550E-1,1.306950092E0,4.440000355E-1,-3.165000200E0,3.452894560E0
2.112874930E-1,1.306950092E0,7.890000343E-1,-2.704950094E0,3.106025533E0
2.132506140E-1,1.306950092E0,1.057950020E0,-2.284050226E0,2.836240861E0
2.152136390E-1,1.269000053E0,1.210950017E0,-1.861950040E0,2.558049849E0
2.171766930E-1,1.230000019E0,1.402950048E0,-1.402050018E0,2.333862279E0
2.191397830E-1,1.192050099E0,1.555950046E0,-1.057050109E0,2.226952832E0
2.211028550E-1,1.230000019E0,1.747950077E0,-7.890000343E-1,2.278321877E0
2.230659330E-1,1.153950095E0,1.863000035E0,-5.209500194E-1,2.252500583E0
2.250290090E-1,1.153950095E0,1.978050113E0,-3.289500177E-1,2.313545155E0
2.269921310E-1,1.153950095E0,2.016000032E0,-2.140500098E-1,2.332739668E0
2.289552400E-1,1.192050099E0,2.131050110E0,-1.369500011E-1,2.445631475E0
2.309183130E-1,1.192050099E0,2.131050110E0,-2.205000073E-2,2.441893571E0
2.328813960E-1,1.192050099E0,2.169000149E0,-6.105000153E-2,2.475736696E0
2.348447860E-1,1.230000019E0,2.245950222E0,-1.369500011E-1,2.564361080E0
2.368080860E-1,1.192050099E0,2.284050226E0,-2.520000041E-1,2.588701002E0
2.387711710E-1,1.269000053E0,2.437050104E0,-2.910000086E-1,2.763015626E0
2.407343190E-1,1.192050099E0,2.514000177E0,-4.819500148E-1,2.823730892E0
2.426975820E-1,1.230000019E0,2.551950216E0,-5.970000029E-1,2.895126760E0
2.446607970E-1,1.230000019E0,2.629050016E0,-7.510500550E-1,2.998146131E0
2.466239870E-1,1.269000053E0,2.667000055E0,-8.269500136E-1,3.067099078E0
2.485871840E-1,1.306950092E0,2.706000090E0,-9.040500522E-1,3.138130260E0
2.505504640E-1,1.306950092E0,2.782050133E0,-1.134000063E0,3.276259701E0
2.525137200E-1,1.384050012E0,2.859000206E0,-1.287000060E0,3.427221290E0
2.544767860E-1,1.422000051E0,2.821050167E0,-1.516950130E0,3.504503658E0
2.564398950E-1,1.498950124E0,2.821050167E0,-1.516950130E0,3.536426617E0
2.584031460E-1,1.575000048E0,2.859000206E0,-1.632000089E0,3.649374141E0
2.603663550E-1,1.690050125E0,2.859000206E0,-1.671000123E0,3.717847901E0
2.623294100E-1,1.843950033E0,2.821050167E0,-1.632000089E0,3.744582762E0
2.642925110E-1,1.882050037E0,2.782050133E0,-1.594050050E0,3.717917542E0
2.662557180E-1,2.035050154E0,2.743950129E0,-1.516950130E0,3.737891001E0
2.682188930E-1,2.149950027E0,2.629050016E0,-1.516950130E0,3.719586914E0
2.701817740E-1,2.304000139E0,2.590950012E0,-1.479000092E0,3.769466790E0
2.721447410E-1,2.457000017E0,2.476050138E0,-1.363950014E0,3.745401582E0
2.741077020E-1,2.572050095E0,2.361000061E0,-1.210950017E0,3.695424593E0
2.760706650E-1,2.725050211E0,2.245950222E0,-1.134000063E0,3.708928038E0
2.780336050E-1,2.917050123E0,2.131050110E0,-9.810000658E-1,3.743383112E0
2.799965350E-1,3.031950235E0,2.053950071E0,-8.269500136E-1,3.754368049E0
2.819599960E-1,3.262050152E0,1.900950074E0,-6.739500165E-1,3.835204167E0
2.839233020E-1,3.415050268E0,1.747950077E0,-5.209500194E-1,3.871600022E0
2.858865210E-1,3.568050146E0,1.594050050E0,-2.520000041E-1,3.916054316E0
2.878497660E-1,3.798000097E0,1.441050053E0,1.500000060E-2,4.062222913E0
2.898122140E-1,3.952050209E0,1.288050056E0,2.070000172E-1,4.161805234E0
2.917749050E-1,4.143000126E0,1.096050024E0,4.750500321E-1,4.311780170E0
2.937378670E-1,4.335000038E0,8.659500480E-1,8.580000401E-1,4.503138781E0
2.957007500E-1,4.527000427E0,6.360000372E-1,1.165050030E0,4.717581000E0
2.976639050E-1,4.795050144E0,3.679500222E-1,1.432950020E0,5.018091157E0
2.996269800E-1,4.948050022E0,1.380000114E-1,1.663050056E0,5.221875000E0
3.015907230E-1,5.062950134E0,-1.680000126E-1,1.893000126E0,5.407877360E0
3.035542780E-1,4.833000183E0,-3.589500189E-1,2.122950077E0,5.290902845E0
3.055172740E-1,4.642050266E0,-7.039500475E-1,2.161050081E0,5.168589150E0
3.074804340E-1,4.411950111E0,-9.730500579E-1,2.238000154E0,5.041901912E0
3.094433160E-1,4.182000160E0,-1.240950108E0,2.353049994E0,4.956402605E0
3.114062800E-1,3.952050209E0,-1.356000066E0,2.353049994E0,4.795235271E0
3.133693650E-1,3.721950293E0,-1.471050024E0,2.391000032E0,4.661950591E0
3.153324220E-1,3.529950142E0,-1.585950017E0,2.430000067E0,4.569538903E0
3.172953680E-1,3.300000191E0,-1.624050021E0,2.430000067E0,4.408224138E0
3.192583470E-1,3.108000040E0,-1.701000094E0,2.353049994E0,4.253223465E0
3.212210800E-1,2.878050089E0,-1.663050056E0,2.353049994E0,4.072560874E0
3.231838850E-1,2.649000168E0,-1.701000094E0,2.275950193E0,3.884656033E0
3.251470080E-1,2.419050217E0,-1.777950048E0,2.122950077E0,3.676931786E0
3.271100370E-1,2.149950027E0,-1.816050053E0,2.008050203E0,3.457251587E0
3.290729430E-1,1.959000111E0,-1.777950048E0,1.816050053E0,3.208866716E0
3.310358850E-1,1.767000079E0,-1.738950133E0,1.740000129E0,3.028834313E0
3.329989840E-1,1.690050125E0,-1.777950048E0,1.548000097E0,2.900634431E0
3.349620370E-1,1.537050128E0,-1.816050053E0,1.548000097E0,2.838461765E0
3.369249200E-1,1.422000051E0,-1.854000092E0,1.548000097E0,2.802803023E0
3.388878670E-1,1.306950092E0,-1.816050053E0,1.624950051E0,2.765252069E0
3.408511000E-1,1.269000053E0,-1.777950048E0,1.701000094E0,2.768549951E0
3.428142490E-1,1.192050099E0,-1.701000094E0,1.740000129E0,2.709609789E0
3.447773600E-1,1.039050102E0,-1.663050056E0,1.701000094E0,2.595912542E0
3.467404820E-1,9.619500637E-1,-1.624050021E0,1.663050056E0,2.515675234E0
3.487035060E-1,7.699500322E-1,-1.548000097E0,1.585950017E0,2.346138276E0
3.506665590E-1,7.320000529E-1,-1.548000097E0,1.585950017E0,2.333959262E0
3.526298640E-1,6.169500351E-1,-1.548000097E0,1.471050024E0,2.222817991E0
3.545930950E-1,6.169500351E-1,-1.509000063E0,1.471050024E0,2.195836221E0
3.565554260E-1,5.790000558E-1,-1.548000097E0,1.356000066E0,2.137821682E0
3.585180200E-1,4.639500082E-1,-1.509000063E0,1.165050030E0,1.962058198E0
3.604811340E-1,3.870000243E-1,-1.432950020E0,1.011000037E0,1.795894165E0
3.624440950E-1,3.870000243E-1,-1.432950020E0,8.959500194E-1,1.733736201E0
3.644073720E-1,3.490500152E-1,-1.393950105E0,7.429500222E-1,1.617685860E0
3.663705570E-1,2.719500065E-1,-1.356000066E0,5.509500504E-1,1.488703779E0
3.683348770E-1,2.719500065E-1,-1.240950108E0,4.360500276E-1,1.343150625E0
3.702988650E-1,2.340000123E-1,-1.240950108E0,2.830500007E-1,1.294152417E0
3.722620260E-1,1.960500032E-1,-1.126049995E0,2.070000172E-1,1.161582198E0
3.742254190E-1,1.570500135E-1,-1.048950076E0,1.680000126E-1,1.073864504E0
3.761884420E-1,1.570500135E-1,-1.048950076E0,1.300500035E-1,1.068585033E0
3.781515730E-1,8.100000024E-2,-9.340500236E-1,1.500000060E-2,9.376755551E-1
3.801147750E-1,1.570500135E-1,-8.959500194E-1,5.295000225E-2,9.111502876E-1
3.820779560E-1,1.570500135E-1,-8.580000401E-1,-2.205000073E-2,8.725336544E-1
3.840413810E-1,1.570500135E-1,-7.810500264E-1,-2.205000073E-2,7.969881135E-1
3.860047300E-1,1.960500032E-1,-7.039500475E-1,-6.105000153E-2,7.332860123E-1
3.879675810E-1,1.570500135E-1,-5.890500546E-1,-1.759500057E-1,6.345101087E-1
3.899305780E-1,1.189500093E-1,-5.509500504E-1,-2.910000086E-1,6.343311972E-1
3.918940280E-1,1.189500093E-1,-4.740000367E-1,-4.060500264E-1,6.353752934E-1
3.938573450E-1,4.200000316E-2,-4.360500276E-1,-6.360000372E-1,7.722691721E-1
3.958205670E-1,4.050000105E-3,-3.210000098E-1,-9.040500522E-1,9.593559848E-1
3.977838140E-1,-7.200000435E-2,-2.440500110E-1,-1.210950017E0,1.237394178E0
3.997472660E-1,-1.099500060E-1,-1.680000126E-1,-1.402050018E0,1.416353509E0
4.017106580E-1,-1.099500060E-1,-1.680000126E-1,-1.516950130E0,1.530179959E0
4.036739970E-1,-3.299999982E-2,-1.680000126E-1,-1.594050050E0,1.603218190E0
4.056373520E-1,8.100000024E-2,-1.680000126E-1,-1.632000089E0,1.642622688E0
4.076005620E-1,1.189500093E-1,-1.680000126E-1,-1.708950043E0,1.721302808E0
4.095638140E-1,1.189500093E-1,-1.290000081E-1,-1.824000120E0,1.832420952E0
4.115265000E-1,4.200000316E-2,-9.105000645E-2,-1.900950074E0,1.903592732E0
4.134893520E-1,4.050000105E-3,-5.295000225E-2,-2.014950037E0,2.015649711E0
4.154521520E-1,-7.200000435E-2,-1.500000060E-2,-2.130000114E0,2.131269455E0
4.174149680E-1,-1.480500102E-1,-1.500000060E-2,-2.245050192E0,2.249976482E0
4.193784040E-1,-1.870500147E-1,6.105000153E-2,-2.169000149E0,2.177906439E0
4.213416580E-1,-2.250000089E-1,9.900000691E-2,-2.206950188E0,2.220597923E0
4.233049300E-1,-3.019500077E-1,1.380000114E-1,-2.130000114E0,2.155717583E0
4.252681960E-1,-3.780000210E-1,9.900000691E-2,-1.939050078E0,1.978029379E0
4.272315560E-1,-3.400500119E-1,2.140500098E-1,-1.555950046E0,1.606994699E0
4.291948890E-1,-3.780000210E-1,2.140500098E-1,-1.134000063E0,1.214354794E0
4.311577730E-1,-3.019500077E-1,2.910000086E-1,-5.970000029E-1,7.295641271E-1
4.331207990E-1,-3.780000210E-1,2.910000086E-1,-2.205000073E-2,4.775470902E-1
4.350831640E-1,-4.170000255E-1,3.289500177E-1,5.509500504E-1,7.652732149E-1
4.370457220E-1,-3.780000210E-1,2.530499995E-1,1.087950110E0,1.179217436E0
4.390090220E-1,-3.780000210E-1,2.140500098E-1,1.432950020E0,1.497346714E0
4.409721050E-1,-3.780000210E-1,1.759500057E-1,1.585950017E0,1.639841418E0
4.429352170E-1,-3.780000210E-1,1.380000114E-1,1.855050087E0,1.898193574E0
4.448983260E-1,-4.170000255E-1,2.295000106E-2,2.008050203E0,2.051019586E0
4.468619380E-1,-4.549500346E-1,-9.105000645E-2,2.122950077E0,2.173059288E0
4.488254030E-1,-3.780000210E-1,-1.290000081E-1,2.161050081E0,2.197649306E0
4.507881890E-1,-3.780000210E-1,-2.059500068E-1,2.200050116E0,2.241767145E0
4.527511740E-1,-3.780000210E-1,-2.059500068E-1,2.238000154E0,2.279022622E0
4.547142850E-1,-2.629500031E-1,-2.440500110E-1,2.238000154E0,2.266571817E0
4.566773450E-1,-2.629500031E-1,-2.830500007E-1,2.161050081E0,2.195312611E0
4.586406050E-1,-3.400500119E-1,-2.830500007E-1,2.046000004E0,2.093291028E0
4.606038070E-1,-3.400500119E-1,-2.830500007E-1,1.893000126E0,1.944016664E0
4.625668640E-1,-4.549500346E-1,-2.830500007E-1,1.777950048E0,1.856933820E0
4.645299630E-1,-5.700000525E-1,-2.059500068E-1,1.585950017E0,1.697808270E0
4.664929060E-1,-6.850500107E-1,-2.059500068E-1,1.432950020E0,1.601578809E0
4.684558910E-1,-7.999500632E-1,-2.830500007E-1,1.279950023E0,1.535678829E0
4.704185780E-1,-8.770500422E-1,-3.979500234E-1,1.011000037E0,1.396317325E0
4.723813520E-1,-8.380500674E-1,-5.509500504E-1,8.580000401E-1,1.319862850E0
4.743443450E-1,-6.469500065E-1,-8.580000401E-1,6.280500293E-1,1.244650641E0
4.763072730E-1,-4.930500090E-1,-1.126049995E0,3.979500234E-1,1.292072415E0
4.782710660E-1,-2.250000089E-1,-1.356000066E0,2.830500007E-1,1.403381091E0
4.802345950E-1,4.200000316E-2,-1.585950017E0,1.300500035E-1,1.591827396E0
4.821975960E-1,1.960500032E-1,-1.738950133E0,1.500000060E-2,1.750030905E0
4.841607510E-1,4.260000288E-1,-1.930950046E0,-2.205000073E-2,1.977506082E0
4.861242190E-1,6.940500140E-1,-2.161050081E0,-2.140500098E-1,2.279837775E0
4.880875950E-1,8.850000501E-1,-2.467050076E0,-3.670500219E-1,2.646561332E0
4.900506220E-1,1.039050102E0,-2.851050138E0,-5.970000029E-1,3.092655980E0
4.920137510E-1,1.192050099E0,-3.310950041E0,-1.096050024E0,3.685742702E0
4.939765930E-1,1.306950092E0,-4.000950336E0,-1.671000123E0,4.528571911E0
4.959395200E-1,1.306950092E0,-4.882050037E0,-2.169000149E0,5.499735699E0
4.979022620E-1,1.269000053E0,-5.839950085E0,-2.590050220E0,6.513350771E0
4.998650590E-1,1.114950061E0,-7.182000160E0,-3.165000200E0,7.927260952E0
5.018273420E-1,7.320000529E-1,-8.638050079E0,-3.664050102E0,9.411535284E0
5.037897650E-1,3.870000243E-1,-1.040100002E1,-4.392000198E0,1.129691269E1
5.057529080E-1,-1.099500060E-1,-1.247100067E1,-4.774950027E0,1.335432868E1
5.077158400E-1,-7.999500632E-1,-1.488600063E1,-5.197050095E0,1.578740842E1
5.096789420E-1,-1.375050068E0,-1.764495087E1,-5.043000221E0,1.840290480E1
5.116419940E-1,-2.103000164E0,-2.025105095E1,-4.927950382E0,2.094784880E1
5.136047510E-1,-2.601000071E0,-2.289600182E1,-4.660050392E0,2.350974628E1
5.155675690E-1,-2.985000134E0,-2.584695053E1,-4.507050037E0,2.640622233E1
5.175306890E-1,-3.253050089E0,-2.887500191E1,-3.855000257E0,2.931226871E1
5.194937210E-1,-3.291000128E0,-3.220995331E1,-2.359950066E0,3.246353552E1
5.214564470E-1,-3.291000128E0,-3.542895126E1,-1.057050109E0,3.559717158E1
5.234192620E-1,-2.985000134E0,-3.838005066E1,5.295000225E-2,3.849599094E1
5.253818620E-1,-2.448000193E0,-4.083300018E1,1.126049995E0,4.092181078E1
5.273445110E-1,-1.795950055E0,-4.297995377E1,1.701000094E0,4.305107738E1
5.293078860E-1,-1.068000078E0,-4.470405197E1,2.275950193E0,4.477468968E1
5.312710480E-1,4.050000105E-3,-4.612305069E1,2.965950251E0,4.621831544E1
5.332351470E-1,1.077000022E0,-4.719600296E1,3.463950157E0,4.733520440E1
5.351989710E-1,1.959000111E0,-4.792395401E1,3.694050074E0,4.810601891E1
5.371619310E-1,2.955000162E0,-4.838400269E1,3.733050108E0,4.861768613E1
5.391251370E-1,3.913050175E0,-4.846095276E1,3.579000235E0,4.875023227E1
5.410882370E-1,5.140050411E0,-4.823100281E1,3.157950163E0,4.860681433E1
5.430513680E-1,6.366000175E0,-4.784700394E1,2.161050081E0,4.831699371E1
5.450151550E-1,7.438950539E0,-4.688895035E1,9.730500579E-1,4.748535012E1
5.469787500E-1,8.320950508E0,-4.558605194E1,-4.819500148E-1,4.634175897E1
5.489418700E-1,8.589000702E0,-4.401495361E1,-1.708950043E0,4.487769585E1
5.509051320E-1,8.896050453E0,-4.244295120E1,-2.437050104E0,4.343366245E1
5.528682220E-1,9.202950478E0,-4.083300018E1,-2.896950245E0,4.195736553E1
5.548313630E-1,9.433050156E0,-3.910905075E1,-2.782050133E0,4.032666722E1
5.567946080E-1,9.739050865E0,-3.753705215E1,-2.322000027E0,3.884933822E1
5.587578220E-1,1.004595089E1,-3.627195358E1,-1.555950046E0,3.766957295E1
5.607210120E-1,1.031400013E1,-3.558300018E1,-8.269500136E-1,3.705687989E1
5.626842090E-1,1.027605057E1,-3.516105270E1,1.500000060E-2,3.663191324E1
5.646467700E-1,9.853950500E0,-3.477795029E1,1.011000037E0,3.616114334E1
5.666095170E-1,9.279000282E0,-3.454800034E1,1.585950017E0,3.580753288E1
5.685727840E-1,8.473950386E0,-3.420300293E1,2.122950077E0,3.530099378E1
5.705358990E-1,7.822950363E0,-3.424095154E1,2.583000183E0,3.521808065E1
5.724993750E-1,7.132950306E0,-3.408795166E1,2.583000183E0,3.492190313E1
5.744627450E-1,6.481050491E0,-3.389595032E1,2.008050203E0,3.456836312E1
5.764257730E-1,5.983050346E0,-3.355095291E1,1.548000097E0,3.411538710E1
5.783889010E-1,5.638050079E0,-3.313005066E1,1.318050027E0,3.363220363E1
5.803521490E-1,5.293050289E0,-3.278505325E1,8.959500194E-1,3.322166198E1
5.823153610E-1,5.215950012E0,-3.228600311E1,4.360500276E-1,3.270752622E1
5.842790950E-1,5.062950134E0,-3.175005150E1,1.300500035E-1,3.215145638E1
5.862426730E-1,4.948050022E0,-3.117495155E1,1.500000060E-2,3.156518697E1
5.882058910E-1,4.833000183E0,-3.056205177E1,-6.105000153E-2,3.094189113E1
5.901692140E-1,4.680000305E0,-2.991000175E1,-1.369500011E-1,3.027423596E1
5.921322490E-1,4.564949989E0,-2.929695129E1,1.500000060E-2,2.965046962E1
5.940953680E-1,4.411950111E0,-2.856900215E1,1.680000126E-1,2.890815476E1
5.960575650E-1,4.258049965E0,-2.787900162E1,3.979500234E-1,2.820510743E1
5.980200120E-1,4.066950321E0,-2.715000153E1,6.660000086E-1,2.746099459E1
5.999836920E-1,3.760050297E0,-2.649900055E1,1.011000037E0,2.678352347E1
6.019470100E-1,3.529950142E0,-2.584695053E1,1.203000069E0,2.611460528E1
6.039102270E-1,3.376950264E0,-2.531100082E1,1.432950020E0,2.557545506E1
6.058734740E-1,3.108000040E0,-2.488905144E1,1.510050058E0,2.512776944E1
6.078368610E-1,2.917050123E0,-2.442900085E1,1.585950017E0,2.465361032E1
6.098002210E-1,2.764050245E0,-2.404605103E1,1.701000094E0,2.426408756E1
6.117636100E-1,2.572050095E0,-2.370105171E1,1.740000129E0,2.390361676E1
6.137269900E-1,2.341950178E0,-2.335605049E1,1.740000129E0,2.353757476E1
6.156903750E-1,2.265000105E0,-2.312595177E1,1.585950017E0,2.329066569E1
6.176537590E-1,2.227050066E0,-2.289600182E1,1.548000097E0,2.305608283E1
6.196171850E-1,2.111999989E0,-2.270400047E1,1.548000097E0,2.285450690E1
6.215806020E-1,1.996950150E0,-2.251305199E1,1.510050058E0,2.265183372E1
6.235441160E-1,1.729050040E0,-2.235900116E1,1.548000097E0,2.247912034E1
6.255076020E-1,1.537050128E0,-2.220600128E1,1.624950051E0,2.231836640E1
6.274710150E-1,1.384050012E0,-2.201505089E1,1.740000129E0,2.212703461E1
6.294344500E-1,1.230000019E0,-2.182305145E1,1.701000094E0,2.192377422E1
6.313978640E-1,1.192050099E0,-2.155500031E1,1.701000094E0,2.165484756E1
6.333612570E-1,1.000050068E0,-2.124795151E1,1.740000129E0,2.134251962E1
6.353249550E-1,8.470500112E-1,-2.101800156E1,1.663050056E0,2.110070185E1
6.372885630E-1,6.550500393E-1,-2.071095085E1,1.624950051E0,2.078492334E1
6.392511890E-1,7.320000529E-1,-2.036595154E1,1.701000094E0,2.044996840E1
6.412141030E-1,5.020500422E-1,-1.998300171E1,1.740000129E0,2.006489502E1
6.431770260E-1,3.490500152E-1,-1.960005188E1,1.855050087E0,1.969073590E1
6.451399470E-1,4.639500082E-1,-1.921695137E1,1.855050087E0,1.931185337E1
6.471037720E-1,5.020500422E-1,-1.883295059E1,1.930950046E0,1.893833811E1
6.490673320E-1,6.169500351E-1,-1.833495140E1,2.085000038E0,1.846343130E1
6.510303720E-1,7.699500322E-1,-1.787505150E1,2.275950193E0,1.803580435E1
6.529935650E-1,9.619500637E-1,-1.733895111E1,2.275950193E0,1.751412352E1
6.549569510E-1,1.114950061E0,-1.684005165E1,2.122950077E0,1.700991976E1
6.569202700E-1,1.306950092E0,-1.626495171E1,1.930950046E0,1.643123065E1
6.588829910E-1,1.345050097E0,-1.569000053E1,1.740000129E0,1.584338591E1
6.608458870E-1,1.498950124E0,-1.515405083E1,1.624950051E0,1.531445626E1
6.628089490E-1,1.651950121E0,-1.461705112E1,1.624950051E0,1.479958058E1
6.647719620E-1,1.651950121E0,-1.396605110E1,1.548000097E0,1.414835068E1
6.667350060E-1,1.690050125E0,-1.339095020E1,1.432950020E0,1.357303071E1
6.686980720E-1,1.767000079E0,-1.277805042E1,1.318050027E0,1.296680831E1
6.706607920E-1,1.767000079E0,-1.208805084E1,1.165050030E0,1.227194378E1
6.726236130E-1,1.882050037E0,-1.155105019E1,9.349500537E-1,1.174065604E1
6.745867330E-1,2.035050154E0,-1.097595024E1,8.200500607E-1,1.119309586E1
6.765497650E-1,2.111999989E0,-1.040100002E1,7.050000429E-1,1.063665222E1
6.785128990E-1,2.074050188E0,-9.787950516E0,5.899500251E-1,1.002265935E1
6.804760000E-1,2.188950062E0,-9.136050224E0,6.280500293E-1,9.415591480E0
6.824392530E-1,2.035050154E0,-8.485050201E0,5.130000114E-1,8.740747969E0
6.844024620E-1,1.996950150E0,-7.909950256E0,4.750500321E-1,8.171951755E0
6.863665980E-1,1.767000079E0,-7.297050476E0,2.830500007E-1,7.513278394E0
6.883304620E-1,1.614000082E0,-6.760050297E0,2.070000172E-1,6.953137802E0
6.902937300E-1,1.422000051E0,-6.262050152E0,2.449500114E-1,6.426146338E0
6.922571660E-1,1.345050097E0,-5.764050484E0,2.449500114E-1,5.923971493E0
6.942194600E-1,1.269000053E0,-5.265000343E0,2.449500114E-1,5.421308906E0
6.961820890E-1,1.230000019E0,-4.843950272E0,4.360500276E-1,5.016661630E0
6.981452870E-1,1.230000019E0,-4.498950005E0,6.280500293E-1,4.706155334E0
7.001083180E-1,1.153950095E0,-4.116000175E0,7.810500264E-1,4.345468607E0
7.020713530E-1,9.619500637E-1,-3.771000147E0,8.580000401E-1,3.985216945E0
7.040343900E-1,8.089500666E-1,-3.426000118E0,9.730500579E-1,3.652218974E0
7.059966190E-1,7.320000529E-1,-3.234000206E0,1.050000072E0,3.478085905E0
7.079590840E-1,5.410500169E-1,-2.889000177E0,1.126049995E0,3.147545987E0
7.099229410E-1,4.639500082E-1,-2.659050226E0,1.126049995E0,2.924685677E0
7.118863900E-1,5.410500169E-1,-2.467050076E0,1.279950023E0,2.831491348E0
7.138495850E-1,6.940500140E-1,-2.238000154E0,1.318050027E0,2.688420724E0
7.158128540E-1,9.240000248E-1,-2.008050203E0,1.356000066E0,2.593217662E0
7.177760780E-1,9.619500637E-1,-1.777950048E0,1.356000066E0,2.434171415E0
7.197393150E-1,1.153950095E0,-1.585950017E0,1.318050027E0,2.363068800E0
7.217021840E-1,1.230000019E0,-1.318050027E0,1.203000069E0,2.167340556E0
7.236651610E-1,1.269000053E0,-1.048950076E0,1.165050030E0,2.016928102E0
7.256282540E-1,1.306950092E0,-7.429500222E-1,1.011000037E0,1.811688261E0
7.275913130E-1,1.345050097E0,-4.740000367E-1,7.429500222E-1,1.608045563E0
7.295547530E-1,1.384050012E0,-1.680000126E-1,2.830500007E-1,1.422650956E0
7.315180820E-1,1.345050097E0,2.295000106E-2,-2.520000041E-1,1.368645486E0
7.334812970E-1,1.306950092E0,2.910000086E-1,-9.040500522E-1,1.615582262E0
7.354445460E-1,1.269000053E0,6.360000372E-1,-1.594050050E0,2.134444364E0
7.374072630E-1,1.269000053E0,1.018950105E0,-2.437050104E0,2.930500582E0
7.393701460E-1,1.192050099E0,1.288050056E0,-3.241950035E0,3.686501921E0
7.413330750E-1,1.077000022E0,1.518000126E0,-4.162050247E0,4.559267012E0
7.432959900E-1,9.619500637E-1,1.824000120E0,-5.119950294E0,5.519620945E0
7.452587360E-1,9.619500637E-1,2.053950071E0,-6.040050507E0,6.451842291E0
7.472215310E-1,8.850000501E-1,2.208000183E0,-6.883050442E0,7.282504602E0
7.491847910E-1,1.039050102E0,2.322000027E0,-7.534950256E0,7.952784708E0
7.511479140E-1,1.077000022E0,2.437050104E0,-8.224950790E0,8.645747959E0
7.531110290E-1,1.153950095E0,2.590950012E0,-8.608050346E0,9.063286024E0
7.550741460E-1,1.230000019E0,2.629050016E0,-8.875950813E0,9.338485256E0
7.570375310E-1,1.306950092E0,2.743950129E0,-8.914050102E0,9.417944047E0
7.590008370E-1,1.459950089E0,2.706000090E0,-8.722949982E0,9.248986276E0
7.609638760E-1,1.537050128E0,2.629050016E0,-8.340000153E0,8.878627688E0
7.629269930E-1,1.767000079E0,2.629050016E0,-7.726050377E0,8.350212434E0
7.648901080E-1,1.959000111E0,2.551950216E0,-6.960000515E0,7.667577095E0
7.668532230E-1,2.188950062E0,2.437050104E0,-6.193050385E0,7.006039441E0
7.688162930E-1,2.380050182E0,2.398950100E0,-5.350050449E0,6.327925431E0
7.707793770E-1,2.494950056E0,2.322000027E0,-4.468050003E0,5.619602365E0
7.727425730E-1,2.572050095E0,2.245950222E0,-3.549000263E0,4.924950452E0
7.747057460E-1,2.725050211E0,2.131050110E0,-2.629050016E0,4.345017516E0
7.766689860E-1,2.764050245E0,2.053950071E0,-1.708950043E0,3.844371848E0
7.786322070E-1,2.764050245E0,2.016000032E0,-9.420000315E-1,3.548463604E0
7.805942240E-1,2.764050245E0,1.900950074E0,-6.105000153E-2,3.355191805E0
7.825565940E-1,2.802000046E0,1.863000035E0,7.050000429E-1,3.437877026E0
7.845197570E-1,2.725050211E0,1.786050081E0,1.395000100E0,3.544276911E0
7.864827120E-1,2.610000134E0,1.747950077E0,1.930950046E0,3.687275179E0
7.884458100E-1,2.572050095E0,1.633050084E0,2.506050110E0,3.944943779E0
7.904088660E-1,2.457000017E0,1.671000123E0,3.004050255E0,4.225329387E0
7.923719030E-1,2.380050182E0,1.633050084E0,3.388050079E0,4.450884720E0
7.943349450E-1,2.304000139E0,1.555950046E0,3.771000147E0,4.685065559E0
7.962975510E-1,2.035050154E0,1.518000126E0,4.000950336E0,4.738497347E0
7.982602710E-1,1.843950033E0,1.518000126E0,4.192950249E0,4.825485250E0
8.002233630E-1,1.651950121E0,1.441050053E0,4.269000053E0,4.798950501E0
8.021863460E-1,1.498950124E0,1.441050053E0,4.269000053E0,4.748456400E0
8.041493050E-1,1.306950092E0,1.441050053E0,4.269000053E0,4.691386283E0
8.061122710E-1,1.269000053E0,1.363950014E0,4.345950127E0,4.728425032E0
8.080753400E-1,1.077000022E0,1.288050056E0,4.269000053E0,4.587304595E0
8.100383650E-1,8.089500666E-1,1.288050056E0,4.116000175E0,4.388044052E0
8.120007760E-1,4.639500082E-1,1.249050021E0,4.000950336E0,4.216986977E0
8.139633670E-1,2.719500065E-1,1.210950017E0,3.886050224E0,4.079429261E0
8.159266620E-1,4.200000316E-2,1.134000063E0,3.655950069E0,3.828013983E0
8.178897500E-1,-1.480500102E-1,9.810000658E-1,3.541050196E0,3.677406209E0
8.198529760E-1,-2.629500031E-1,9.040500522E-1,3.310950041E0,3.442214313E0
8.218161820E-1,-3.019500077E-1,7.890000343E-1,3.118950129E0,3.231337922E0
8.237792380E-1,-4.170000255E-1,6.739500165E-1,2.928000212E0,3.033361648E0
8.257423380E-1,-4.549500346E-1,5.590500236E-1,2.851050138E0,2.940748775E0
8.277054550E-1,-4.549500346E-1,4.440000355E-1,2.659050226E0,2.733983115E0
8.296685670E-1,-4.930500090E-1,3.289500177E-1,2.506050110E0,2.575188067E0
8.316318290E-1,-4.549500346E-1,2.530499995E-1,2.275950193E0,2.334729774E0
8.335950390E-1,-3.400500119E-1,1.380000114E-1,2.085000038E0,2.117050583E0
8.355589490E-1,-3.400500119E-1,2.295000106E-2,1.930950046E0,1.960797999E0
8.375226540E-1,-3.019500077E-1,-5.295000225E-2,1.816050053E0,1.841742464E0
8.394856240E-1,-3.019500077E-1,-9.105000645E-2,1.701000094E0,1.729989951E0
8.414488100E-1,-2.629500031E-1,-1.680000126E-1,1.624950051E0,1.654638745E0
8.434115330E-1,-2.250000089E-1,-1.680000126E-1,1.548000097E0,1.573261996E0
8.453744060E-1,-1.870500147E-1,-2.059500068E-1,1.471050024E0,1.497127679E0
8.473373360E-1,-7.200000435E-2,-2.059500068E-1,1.471050024E0,1.487140740E0
8.493002500E-1,-1.099500060E-1,-2.059500068E-1,1.471050024E0,1.489460500E0
8.512634900E-1,-3.299999982E-2,-2.830500007E-1,1.395000100E0,1.423808829E0
8.532266350E-1,-7.200000435E-2,-2.830500007E-1,1.395000100E0,1.425246148E0
8.551896090E-1,4.200000316E-2,-3.589500189E-1,1.395000100E0,1.441053224E0
8.571526030E-1,4.050000105E-3,-3.589500189E-1,1.356000066E0,1.402710839E0
8.591156480E-1,4.200000316E-2,-3.979500234E-1,1.356000066E0,1.413812010E0
8.610786780E-1,4.050000105E-3,-4.740000367E-1,1.356000066E0,1.436463928E0
8.630419890E-1,1.189500093E-1,-5.130000114E-1,1.395000100E0,1.491087991E0
8.650052170E-1,1.570500135E-1,-5.509500504E-1,1.318050027E0,1.437173107E0
8.669680440E-1,1.960500032E-1,-5.890500546E-1,1.395000100E0,1.526905645E0
8.689309880E-1,2.340000123E-1,-6.280500293E-1,1.432950020E0,1.581944564E0
8.708939070E-1,2.340000123E-1,-7.039500475E-1,1.432950020E0,1.613582175E0
8.728568340E-1,3.109500110E-1,-8.190000653E-1,1.471050024E0,1.712144617E0
8.748196210E-1,3.109500110E-1,-8.190000653E-1,1.471050024E0,1.712144617E0
8.767824490E-1,3.870000243E-1,-8.580000401E-1,1.510050058E0,1.779377494E0
8.787455080E-1,4.260000288E-1,-8.959500194E-1,1.510050058E0,1.806779909E0
8.807085090E-1,4.260000288E-1,-9.730500579E-1,1.548000097E0,1.877393603E0
8.826714650E-1,4.260000288E-1,-1.011000037E0,1.548000097E0,1.897340613E0
8.846344340E-1,3.870000243E-1,-9.730500579E-1,1.548000097E0,1.868930104E0
8.865971690E-1,3.870000243E-1,-1.011000037E0,1.510050058E0,1.857993884E0
8.885599730E-1,3.870000243E-1,-1.048950076E0,1.548000097E0,1.909546957E0
8.905230760E-1,5.020500422E-1,-1.126049995E0,1.548000097E0,1.978976285E0
8.924861050E-1,5.020500422E-1,-1.203000069E0,1.624950051E0,2.083200921E0
8.944488300E-1,4.639500082E-1,-1.240950108E0,1.585950017E0,2.066505320E0
8.964116450E-1,5.410500169E-1,-1.279050112E0,1.663050056E0,2.166665594E0
8.983756220E-1,5.410500169E-1,-1.318050027E0,1.701000094E0,2.218871856E0
9.003392590E-1,5.790000558E-1,-1.393950105E0,1.816050053E0,2.361435104E0
9.023024120E-1,5.790000558E-1,-1.432950020E0,1.740000129E0,2.327270348E0
9.042657130E-1,5.790000558E-1,-1.432950020E0,1.701000094E0,2.298257632E0
9.062287510E-1,6.169500351E-1,-1.432950020E0,1.585950017E0,2.224682126E0
9.081918670E-1,6.169500351E-1,-1.432950020E0,1.624950051E0,2.252650833E0
9.101540810E-1,5.790000558E-1,-1.393950105E0,1.548000097E0,2.162092103E0
9.121165590E-1,5.410500169E-1,-1.356000066E0,1.510050058E0,2.100410074E0
9.140798730E-1,5.020500422E-1,-1.356000066E0,1.471050024E0,2.062711467E0
9.160429420E-1,5.020500422E-1,-1.356000066E0,1.432950020E0,2.035715153E0
9.180064260E-1,5.410500169E-1,-1.279050112E0,1.395000100E0,1.968433283E0
9.199697880E-1,5.790000558E-1,-1.240950108E0,1.279950023E0,1.874425324E0
9.219333120E-1,6.169500351E-1,-1.203000069E0,1.203000069E0,1.809708727E0
9.238967880E-1,7.699500322E-1,-1.048950076E0,1.050000072E0,1.672010605E0
9.258598470E-1,1.039050102E0,-9.730500579E-1,8.959500194E-1,1.682016043E0
9.278230250E-1,1.306950092E0,-8.580000401E-1,8.200500607E-1,1.765436126E0
9.297862630E-1,1.459950089E0,-7.429500222E-1,6.280500293E-1,1.754387596E0
9.317494840E-1,1.767000079E0,-6.660000086E-1,4.750500321E-1,1.947182021E0
9.337132570E-1,2.074050188E0,-6.280500293E-1,3.600000143E-1,2.196754659E0
9.356768690E-1,2.341950178E0,-5.509500504E-1,5.295000225E-2,2.406466351E0
9.376398550E-1,2.494950056E0,-4.740000367E-1,-2.140500098E-1,2.548581806E0
9.396030250E-1,2.764050245E0,-4.360500276E-1,-6.360000372E-1,2.869600919E0
9.415658600E-1,2.955000162E0,-3.589500189E-1,-1.018950105E0,3.146288351E0
9.435287940E-1,3.147000074E0,-3.210000098E-1,-1.210950017E0,3.387189162E0
9.454917590E-1,3.262050152E0,-2.440500110E-1,-1.441050053E0,3.574514912E0
9.474547150E-1,3.376950264E0,-2.830500007E-1,-1.632000089E0,3.761294282E0
9.494179790E-1,3.453000069E0,-2.830500007E-1,-1.786050081E0,3.897858601E0
9.513811630E-1,3.529950142E0,-2.059500068E-1,-1.824000120E0,3.978685694E0
9.533439970E-1,3.529950142E0,-2.059500068E-1,-1.824000120E0,3.978685694E0
9.553069340E-1,3.568050146E0,-2.830500007E-1,-1.594050050E0,3.918174921E0
9.572700340E-1,3.607050180E0,-2.440500110E-1,-1.708950043E0,3.998860045E0
9.592330860E-1,3.607050180E0,-2.059500068E-1,-1.786050081E0,4.030285511E0
9.611960430E-1,3.721950293E0,-2.440500110E-1,-1.747050047E0,4.118817580E0
9.631590210E-1,3.760050297E0,-2.440500110E-1,-1.747050047E0,4.153278525E0
9.651222490E-1,3.721950293E0,-2.440500110E-1,-1.555950046E0,4.041466928E0
9.670854040E-1,3.682950258E0,-2.440500110E-1,-1.363950014E0,3.934976830E0
9.690484680E-1,3.682950258E0,-2.059500068E-1,-1.134000063E0,3.859079444E0
9.710115590E-1,3.682950258E0,-1.680000126E-1,-8.659500480E-1,3.787111841E0
9.729744880E-1,3.645000219E0,-2.059500068E-1,-6.360000372E-1,3.705797897E0
9.749374720E-1,3.645000219E0,-2.059500068E-1,-4.060500264E-1,3.673325282E0
9.769003400E-1,3.568050146E0,-2.059500068E-1,-1.759500057E-1,3.578317434E0
9.788632420E-1,3.568050146E0,-1.680000126E-1,5.295000225E-2,3.572395492E0
9.808260330E-1,3.568050146E0,-1.680000126E-1,1.680000126E-1,3.575951601E0
9.827888570E-1,3.529950142E0,-1.680000126E-1,2.070000172E-1,3.540002968E0
9.847515980E-1,3.529950142E0,-1.290000081E-1,9.195000678E-2,3.533503051E0
9.867143770E-1,3.607050180E0,-1.680000126E-1,-9.900000691E-2,3.612317263E0
9.886775030E-1,3.645000219E0,-2.059500068E-1,-2.520000041E-1,3.659500786E0
9.906405280E-1,3.568050146E0,-1.680000126E-1,-6.739500165E-1,3.635026062E0
9.926037940E-1,3.492000103E0,-2.059500068E-1,-1.249050021E0,3.714378290E0
9.945669900E-1,3.337950230E0,-3.210000098E-1,-2.053950071E0,3.932386507E0
9.965298310E-1,3.184950113E0,-3.979500234E-1,-3.088950157E0,4.454647519E0
9.984927700E-1,3.070050240E0,-5.509500504E-1,-4.009050369E0,5.079492031E0
1.000456050E0,3.300000191E0,-9.340500236E-1,-5.082000256E0,6.131001330E0
1.002419230E0,3.376950264E0,-1.318050027E0,-6.270000458E0,7.242510248E0
1.004382155E0,3.337950230E0,-1.777950048E0,-7.150950432E0,8.089444368E0
1.006345155E0,3.031950235E0,-2.238000154E0,-7.918050289E0,8.769087028E0
1.008308223E0,2.686950207E0,-2.773950100E0,-8.569950104E0,9.399922625E0
1.010271254E0,2.380050182E0,-3.349050045E0,-8.991000175E0,9.885284985E0
1.012234384E0,1.996950150E0,-3.808950186E0,-9.144000053E0,1.010488240E1
1.014197485E0,1.729050040E0,-4.269000053E0,-9.106050491E0,1.020461322E1
1.016160918E0,1.575000048E0,-4.804950237E0,-8.953050613E0,1.028228025E1
1.018124254E0,1.384050012E0,-5.265000343E0,-8.224950790E0,9.863348243E0
1.020087427E0,1.153950095E0,-5.572050095E0,-6.805950165E0,8.871318996E0
1.022050645E0,8.470500112E-1,-5.839950085E0,-4.774950027E0,7.590958996E0
1.024013383E0,7.320000529E-1,-5.994000435E0,-2.704950094E0,6.616692550E0
1.025976261E0,3.109500110E-1,-6.300000191E0,-9.040500522E-1,6.372126710E0
1.027938966E0,-1.870500147E-1,-6.760050297E0,7.810500264E-1,6.807591855E0
1.029901722E0,-9.919500351E-1,-7.297050476E0,1.893000126E0,7.603575475E0
1.031865089E0,-1.720050097E0,-8.062950134E0,2.736000061E0,8.686508708E0
1.033828269E0,-2.256000042E0,-8.868000031E0,3.273000240E0,9.718204119E0
1.035791463E0,-2.677950144E0,-9.826050758E0,3.655950069E0,1.082075142E1
1.037754653E0,-3.022950172E0,-1.097595024E1,4.039050102E0,1.207988564E1
1.039717757E0,-3.636000156E0,-1.231800079E1,4.039050102E0,1.346356440E1
1.041680886E0,-4.441050053E0,-1.415700054E1,4.000950336E0,1.536721164E1
1.043643885E0,-5.245950222E0,-1.634205055E1,3.771000147E0,1.757279295E1
1.045606939E0,-6.166050434E0,-1.883295059E1,3.234000206E0,2.007881877E1
1.047570019E0,-6.970950127E0,-2.159295082E1,3.118950129E0,2.290365737E1
1.049533091E0,-7.813950539E0,-2.439105034E1,3.847950220E0,2.589957298E1
1.051496349E0,-8.427000046E0,-2.695905113E1,4.384050369E0,2.858364332E1
1.053459553E0,-8.734050751E0,-2.944995117E1,4.576050282E0,3.105677869E1
1.055422828E0,-8.964000702E0,-3.213300323E1,4.996950150E0,3.373207252E1
1.057386086E0,-9.079050064E0,-3.462405014E1,5.572050095E0,3.622570552E1
1.059349492E0,-8.964000702E0,-3.715395355E1,6.147000313E0,3.871117650E1
1.061312855E0,-8.619000435E0,-3.968400192E1,6.568950176E0,4.113706703E1
1.063276019E0,-7.966950417E0,-4.221300125E1,7.066950321E0,4.353563552E1
1.065239242E0,-7.123950481E0,-4.455105209E1,7.680000305E0,4.576602799E1
1.067202344E0,-6.088950157E0,-4.658295059E1,7.909950256E0,4.764046508E1
1.069165478E0,-4.671000004E0,-4.819200134E1,8.064000130E0,4.908477699E1
1.071128545E0,-2.793000221E0,-4.934205246E1,8.217000008E0,5.009948184E1
1.073091632E0,-2.250000089E-1,-5.029995346E1,8.524050713E0,5.101759876E1
1.075055742E0,2.610000134E0,-5.076000214E1,8.677050591E0,5.156240030E1
1.077019553E0,5.830050468E0,-5.106705093E1,8.254950523E0,5.205744315E1
1.078982750E0,9.010950089E0,-5.122005081E1,7.335000515E0,5.252135812E1
1.080946113E0,1.222995090E1,-5.125905228E1,6.070950508E0,5.304638140E1
1.082909141E0,1.522005081E1,-5.095200348E1,4.461000443E0,5.336344376E1
1.084872267E0,1.824795151E1,-5.083695221E1,2.430000067E0,5.406744256E1
1.086836190E0,2.142900085E1,-5.022405243E1,7.050000429E-1,5.460910680E1
1.088799880E0,2.407395172E1,-4.922700119E1,-1.939050078E0,5.483258806E1
1.090762893E0,2.591295052E1,-4.807695389E1,-5.848050117E0,5.492789992E1
1.092726108E0,2.694795036E1,-4.662105179E1,-9.796050072E0,5.473277899E1
1.094689116E0,2.671800041E1,-4.466595078E1,-1.385895061E1,5.386064627E1
1.096652185E0,2.480205154E1,-4.240500259E1,-1.734705162E1,5.209842805E1
1.098615443E0,2.181195068E1,-4.002900314E1,-1.784505081E1,4.895434734E1
1.100578645E0,1.836300087E1,-3.761400223E1,-1.657995033E1,4.502119187E1
1.102541746E0,1.422300053E1,-3.512295151E1,-1.458705044E1,4.060415628E1
1.104504877E0,1.004595089E1,-3.251595306E1,-1.094595051E1,3.574943588E1
1.106468259E0,6.595950127E0,-3.060000229E1,-7.803000450E0,3.226071162E1
1.108431568E0,3.721950293E0,-2.910495186E1,-4.813050270E0,2.973409810E1
1.110393390E0,1.422000051E0,-2.791695213E1,-2.169000149E0,2.803716930E1
1.112355647E0,-7.200000435E-2,-2.684400177E1,-1.759500057E-1,2.684467495E1
1.114318148E0,-1.144950032E0,-2.588595200E1,1.279950023E0,2.594285438E1
1.116280573E0,-1.795950055E0,-2.496600151E1,2.506050110E0,2.515565454E1
1.118243762E0,-1.911000133E0,-2.416095161E1,3.541050196E0,2.449372452E1
1.120206727E0,-1.950000048E0,-2.331795120E1,4.153950214E0,2.376519831E1
1.122169778E0,-1.911000133E0,-2.266605186E1,4.729050159E0,2.323285914E1
1.124132804E0,-1.950000048E0,-2.212995148E1,4.959000111E0,2.276244571E1
1.126096110E0,-1.987950087E0,-2.178495026E1,5.035950184E0,2.244764570E1
1.128059337E0,-1.987950087E0,-2.159295082E1,4.921050072E0,2.223565165E1
1.130022389E0,-2.140950203E0,-2.155500031E1,4.806000233E0,2.218781973E1
1.131985493E0,-2.179949999E0,-2.178495026E1,4.576050282E0,2.236686111E1
1.133948565E0,-2.065050125E0,-2.228295135E1,4.345950127E0,2.279652683E1
1.135911647E0,-1.911000133E0,-2.270400047E1,3.886050224E0,2.311330667E1
1.137874871E0,-1.681950092E0,-2.297295189E1,3.502950191E0,2.329927326E1
1.139838043E0,-1.489950061E0,-2.320305061E1,3.118950129E0,2.345909970E1
1.141800924E0,-1.375050068E0,-2.327895164E1,2.698050022E0,2.347508948E1
1.143763891E0,-1.297950029E0,-2.331795120E1,2.430000067E0,2.348012826E1
1.145726986E0,-1.336950064E0,-2.331795120E1,2.046000004E0,2.344569043E1
1.147690043E0,-1.222050071E0,-2.327895164E1,1.624950051E0,2.336757280E1
1.149653150E0,-1.260000110E0,-2.327895164E1,1.471050024E0,2.335939165E1
1.151616255E0,-1.183050036E0,-2.324100113E1,1.395000100E0,2.331286697E1
1.153579508E0,-1.144950032E0,-2.320305061E1,1.356000066E0,2.327082303E1
1.155542717E0,-1.068000078E0,-2.320305061E1,1.356000066E0,2.326716395E1
1.157505951E0,-1.030050039E0,-2.308800125E1,1.356000066E0,2.315071362E1
1.159469178E0,-9.919500351E-1,-2.297295189E1,1.318050027E0,2.303210236E1
1.161432230E0,-9.919500351E-1,-2.285805130E1,1.432950020E0,2.292439356E1
1.163395334E0,-9.529500604E-1,-2.270400047E1,1.510050058E0,2.277410816E1
1.165358720E0,-8.770500422E-1,-2.258895111E1,1.585950017E0,2.266153496E1
1.167322024E0,-7.230000496E-1,-2.239800072E1,1.740000129E0,2.247711649E1
1.169284748E0,-5.700000525E-1,-2.220600128E1,1.930950046E0,2.229708414E1
1.171247642E0,-3.400500119E-1,-2.193795013E1,2.161050081E0,2.204675549E1
1.173210884E0,-3.299999982E-2,-2.163105011E1,2.391000032E0,2.176281919E1
1.175174024E0,1.960500032E-1,-2.124795151E1,2.620950222E0,2.140988694E1
1.177137676E0,3.490500152E-1,-2.071095085E1,2.736000061E0,2.089380333E1
1.179101178E0,6.550500393E-1,-2.021295166E1,2.736000061E0,2.040779757E1
1.181064003E0,8.850000501E-1,-1.963800049E1,2.773950100E0,1.985268464E1
1.183027026E0,1.230000019E0,-1.910205078E1,2.773950100E0,1.934156259E1
1.184989877E0,1.306950092E0,-1.848795128E1,2.736000061E0,1.873494482E1
1.186952786E0,1.422000051E0,-1.795200157E1,2.659050226E0,1.820348848E1
1.188915935E0,1.537050128E0,-1.745400047E1,2.620950222E0,1.771649050E1
1.190879014E0,1.537050128E0,-1.687905121E1,2.545050144E0,1.713890816E1
1.192841867E0,1.537050128E0,-1.634205055E1,2.545050144E0,1.661031064E1
1.194804786E0,1.384050012E0,-1.572900105E1,2.506050110E0,1.598741241E1
1.196767685E0,1.306950092E0,-1.511595058E1,2.467950106E0,1.537175521E1
1.198730606E0,1.230000019E0,-1.457895088E1,2.506050110E0,1.484382013E1
1.200693755E0,1.230000019E0,-1.396605110E1,2.353049994E0,1.421619948E1
1.202656837E0,1.269000053E0,-1.339095020E1,2.391000032E0,1.366180038E1
1.204620048E0,1.269000053E0,-1.277805042E1,2.467950106E0,1.307592106E1
1.206583221E0,1.230000019E0,-1.216395092E1,2.430000067E0,1.246513146E1
1.208546424E0,1.230000019E0,-1.155105019E1,2.430000067E0,1.186779511E1
1.210509645E0,1.192050099E0,-1.105305099E1,2.391000032E0,1.137135880E1
1.212472698E0,1.230000019E0,-1.044000053E1,2.391000032E0,1.078069536E1
1.214435801E0,1.114950061E0,-9.979950905E0,2.238000154E0,1.028840019E1
1.216399052E0,1.153950095E0,-9.481050491E0,2.008050203E0,9.759825043E0
1.218362260E0,1.000050068E0,-8.944950104E0,1.855050087E0,9.189855457E0
1.220324990E0,9.619500637E-1,-8.523000717E0,1.585950017E0,8.722506899E0
1.222287868E0,9.619500637E-1,-8.025000572E0,1.471050024E0,8.215227951E0
1.224251113E0,8.470500112E-1,-7.527000427E0,1.318050027E0,7.688334347E0
1.226214250E0,8.470500112E-1,-7.027950287E0,9.730500579E-1,7.145376503E0
1.228178263E0,8.850000501E-1,-6.529950142E0,6.660000086E-1,6.623219003E0
1.230142019E0,8.470500112E-1,-6.031950474E0,2.449500114E-1,6.096057804E0
1.232105306E0,7.699500322E-1,-5.494950294E0,5.295000225E-2,5.548883265E0
1.234068724E0,8.470500112E-1,-4.959000111E0,-3.289500177E-1,5.041565623E0
1.236031922E0,7.320000529E-1,-4.461000443E0,-5.970000029E-1,4.559907678E0
1.237995185E0,8.089500666E-1,-3.886050224E0,-8.659500480E-1,4.062715353E0
1.239957329E0,5.790000558E-1,-3.387000084E0,-1.057050109E0,3.595047366E0
1.241919801E0,5.020500422E-1,-2.889000177E0,-1.249050021E0,3.187240535E0
1.243882850E0,5.020500422E-1,-2.467050076E0,-1.363950014E0,2.863345938E0
1.245845727E0,3.490500152E-1,-2.046000004E0,-1.402050018E0,2.504734753E0
1.247809154E0,1.960500032E-1,-1.663050056E0,-1.441050053E0,2.209252440E0
1.249772419E0,1.189500093E-1,-1.279050112E0,-1.441050053E0,1.930477544E0
1.251735330E0,1.960500032E-1,-9.340500236E-1,-1.402050018E0,1.696062883E0
1.253698344E0,1.960500032E-1,-5.890500546E-1,-1.363950014E0,1.498591075E0
1.255661251E0,2.340000123E-1,-2.830500007E-1,-1.287000060E0,1.338373066E0
1.257624190E0,2.340000123E-1,-9.105000645E-2,-1.171950102E0,1.198546266E0
1.259586525E0,3.109500110E-1,9.900000691E-2,-9.420000315E-1,9.969227503E-1
1.261549037E0,3.870000243E-1,3.679500222E-1,-9.810000658E-1,1.116923170E0
1.263512435E0,3.870000243E-1,5.209500194E-1,-9.040500522E-1,1.112863171E0
1.265475573E0,5.410500169E-1,6.360000372E-1,-8.269500136E-1,1.175192534E0
1.267439871E0,6.550500393E-1,7.890000343E-1,-7.890000343E-1,1.293882785E0
1.269403851E0,8.089500666E-1,9.040500522E-1,-7.890000343E-1,1.447144693E0
1.271367134E0,8.470500112E-1,9.430500269E-1,-8.659500480E-1,1.535156852E0
1.273330622E0,9.240000248E-1,1.018950105E0,-1.018950105E0,1.711810351E0
1.275293628E0,9.240000248E-1,1.134000063E0,-1.171950102E0,1.874353016E0
1.277256776E0,1.039050102E0,1.249050021E0,-1.555950046E0,2.249606991E0
1.279220044E0,1.000050068E0,1.363950014E0,-1.747050047E0,2.431592821E0
1.281183259E0,1.077000022E0,1.518000126E0,-2.092050076E0,2.800165522E0
1.283146449E0,1.077000022E0,1.633050084E0,-2.475000143E0,3.154743624E0
1.285109646E0,1.114950061E0,1.708950043E0,-2.820000172E0,3.480808075E0
1.287072522E0,1.192050099E0,1.786050081E0,-3.165000200E0,3.824680980E0
1.289035492E0,1.230000019E0,1.939050078E0,-3.472050190E0,4.162685164E0
1.290998432E0,1.269000053E0,1.978050113E0,-3.778950214E0,4.450113269E0
1.292961395E0,1.345050097E0,2.092950106E0,-4.047000408E0,4.750559147E0
1.294924131E0,1.384050012E0,2.169000149E0,-4.392000198E0,5.090169135E0
1.296886934E0,1.537050128E0,2.208000183E0,-4.698000431E0,5.413778344E0
1.298850192E0,1.651950121E0,2.245950222E0,-4.890000343E0,5.628972816E0
1.300813316E0,1.920000076E0,2.284050226E0,-5.043000221E0,5.859619182E0
1.302776247E0,2.149950027E0,2.322000027E0,-5.197050095E0,6.084677389E0
1.304739237E0,2.341950178E0,2.361000061E0,-5.311950207E0,6.267046108E0
1.306702463E0,2.572050095E0,2.361000061E0,-5.388000488E0,6.420304684E0
1.308665620E0,2.764050245E0,2.361000061E0,-5.272950172E0,6.404552956E0
1.310628729E0,2.992950201E0,2.361000061E0,-5.235000134E0,6.475901373E0
1.312591853E0,3.184950113E0,2.361000061E0,-5.119950294E0,6.475501489E0
1.314555240E0,3.376950264E0,2.361000061E0,-4.927950382E0,6.423613418E0
1.316518547E0,3.645000219E0,2.284050226E0,-4.698000431E0,6.369781793E0
1.318481586E0,3.837000132E0,2.245950222E0,-4.315050125E0,6.195685595E0
1.320444703E0,4.066950321E0,2.169000149E0,-3.894000292E0,6.033894665E0
1.322407952E0,4.297049999E0,2.092950106E0,-3.549000263E0,5.953190885E0
1.324371163E0,4.488000393E0,2.053950071E0,-3.127050161E0,5.842884659E0
1.326334048E0,4.756950378E0,1.900950074E0,-2.782050133E0,5.829407434E0
1.328297021E0,4.872000217E0,1.708950043E0,-2.398950100E0,5.693141308E0
1.330260475E0,5.101050377E0,1.518000126E0,-2.053950071E0,5.704712984E0
1.332223788E0,5.293050289E0,1.210950017E0,-1.671000123E0,5.681111046E0
1.334187005E0,5.523000240E0,8.659500480E-1,-1.363950014E0,5.754455733E0
1.336150251E0,5.676000118E0,3.679500222E-1,-1.057050109E0,5.785302023E0
1.338114399E0,5.638050079E0,-1.290000081E-1,-7.120500207E-1,5.684299863E0
1.340078269E0,5.331000328E0,-5.890500546E-1,-4.440000355E-1,5.381791569E0
1.342041571E0,4.948050022E0,-1.087950110E0,-2.910000086E-1,5.074595104E0
1.344005040E0,4.680000305E0,-1.471050024E0,-1.759500057E-1,4.908905116E0
1.345968229E0,4.335000038E0,-1.854000092E0,1.500000060E-2,4.714845350E0
1.347931501E0,4.105050087E0,-2.161050081E0,2.070000172E-1,4.643750928E0
1.349893852E0,3.798000097E0,-2.351999998E0,2.830500007E-1,4.476251337E0
1.351856453E0,3.529950142E0,-2.506050110E0,4.750500321E-1,4.355055418E0
1.353819836E0,3.300000191E0,-2.659050226E0,6.280500293E-1,4.284273124E0
1.355782990E0,2.992950201E0,-2.697000027E0,7.810500264E-1,4.103851751E0
1.357746189E0,2.802000046E0,-2.736000061E0,1.011000037E0,4.044628743E0
1.359709374E0,2.494950056E0,-2.697000027E0,1.240950108E0,3.877955917E0
1.361672099E0,2.227050066E0,-2.697000027E0,1.471050024E0,3.794410272E0
1.363634973E0,1.920000076E0,-2.697000027E0,1.624950051E0,3.687908907E0
1.365597903E0,1.729050040E0,-2.620950222E0,1.816050053E0,3.627262315E0
1.367560817E0,1.575000048E0,-2.581950188E0,2.200050116E0,3.739961555E0
1.369524102E0,1.422000051E0,-2.428950071E0,2.353049994E0,3.668613752E0
1.371487279E0,1.269000053E0,-2.314050198E0,2.583000183E0,3.692841643E0
1.373450644E0,1.192050099E0,-2.199000120E0,2.812950134E0,3.764209535E0
1.375413961E0,1.077000022E0,-2.161050081E0,2.928000212E0,3.795161622E0
1.377377178E0,9.619500637E-1,-2.046000004E0,3.118950129E0,3.852182997E0
1.379340424E0,8.089500666E-1,-1.930950046E0,3.234000206E0,3.852496025E0
1.381302616E0,6.550500393E-1,-1.816050053E0,3.349050045E0,3.865651892E0
1.383265117E0,5.410500169E-1,-1.701000094E0,3.273000240E0,3.728091605E0
1.385228071E0,5.020500422E-1,-1.585950017E0,3.196050167E0,3.603058197E0
1.387190889E0,5.410500169E-1,-1.624050021E0,3.118950129E0,3.557825670E0
1.389154777E0,5.790000558E-1,-1.624050021E0,3.004050255E0,3.463682646E0
1.391118351E0,5.790000558E-1,-1.624050021E0,2.889000177E0,3.364387249E0
1.393081343E0,6.550500393E-1,-1.585950017E0,2.736000061E0,3.229554821E0
1.395044506E0,5.790000558E-1,-1.585950017E0,2.620950222E0,3.117668774E0
1.397007902E0,5.410500169E-1,-1.585950017E0,2.430000067E0,2.951757595E0
1.398971216E0,5.790000558E-1,-1.585950017E0,2.200050116E0,2.773210961E0
1.400933938E0,5.020500422E-1,-1.471050024E0,2.085000038E0,2.600628304E0
1.402896833E0,4.639500082E-1,-1.432950020E0,1.893000126E0,2.419100007E0
1.404860300E0,4.260000288E-1,-1.393950105E0,1.855050087E0,2.359191333E0
1.406823600E0,4.260000288E-1,-1.356000066E0,1.816050053E0,2.306133126E0
1.408787105E0,4.639500082E-1,-1.393950105E0,1.701000094E0,2.247609358E0
1.410750571E0,5.020500422E-1,-1.393950105E0,1.548000097E0,2.142768172E0
1.412713763E0,4.639500082E-1,-1.356000066E0,1.624950051E0,2.166667593E0
1.414677035E0,4.260000288E-1,-1.356000066E0,1.701000094E0,2.216667211E0
1.416640124E0,3.870000243E-1,-1.318050027E0,1.701000094E0,2.186418581E0
1.418603266E0,5.020500422E-1,-1.240950108E0,1.740000129E0,2.195361442E0
1.420567782E0,5.020500422E-1,-1.164000034E0,1.777950048E0,2.183588033E0
1.422531889E0,6.169500351E-1,-9.730500579E-1,1.893000126E0,2.216055784E0
1.424495106E0,5.790000558E-1,-8.959500194E-1,1.930950046E0,2.206022570E0
1.426458583E0,5.790000558E-1,-7.429500222E-1,2.046000004E0,2.252405784E0
1.428421411E0,5.790000558E-1,-6.280500293E-1,2.161050081E0,2.323752430E0
1.430384430E0,5.020500422E-1,-4.740000367E-1,2.122950077E0,2.232408410E0
1.432347861E0,3.870000243E-1,-3.979500234E-1,2.085000038E0,2.157627957E0
1.434311182E0,3.490500152E-1,-2.830500007E-1,1.930950046E0,1.982554235E0
1.436274398E0,3.109500110E-1,-1.680000126E-1,1.893000126E0,1.925711139E0
1.438237645E0,2.340000123E-1,-1.290000081E-1,1.893000126E0,1.911765280E0
1.440201053E0,1.960500032E-1,-1.290000081E-1,1.855050087E0,1.869836204E0
1.442164413E0,1.570500135E-1,-5.295000225E-2,1.777950048E0,1.785658082E0
1.444126753E0,1.189500093E-1,-1.500000060E-2,1.701000094E0,1.705220052E0
1.446089401E0,8.100000024E-2,2.295000106E-2,1.663050056E0,1.665179627E0
1.448052685E0,1.189500093E-1,6.105000153E-2,1.585950017E0,1.591575843E0
1.450015783E0,8.100000024E-2,6.105000153E-2,1.585950017E0,1.589190221E0
1.451978857E0,8.100000024E-2,9.900000691E-2,1.510050058E0,1.515458076E0
1.453941939E0,8.100000024E-2,2.140500098E-1,1.471050024E0,1.488746647E0
1.455905219E0,4.200000316E-2,2.140500098E-1,1.471050024E0,1.487134688E0
1.457868424E0,8.100000024E-2,2.140500098E-1,1.471050024E0,1.488746647E0
1.459831839E0,8.100000024E-2,2.910000086E-1,1.432950020E0,1.464441110E0
1.461795193E0,4.200000316E-2,2.910000086E-1,1.356000066E0,1.387508985E0
1.463758583E0,8.100000024E-2,2.910000086E-1,1.432950020E0,1.464441110E0
1.465721962E0,8.100000024E-2,3.289500177E-1,1.471050024E0,1.509555328E0
1.467685369E0,4.200000316E-2,3.289500177E-1,1.432950020E0,1.470822176E0
1.469648784E0,4.200000316E-2,3.679500222E-1,1.395000100E0,1.443321343E0
1.471612299E0,4.200000316E-2,4.060500264E-1,1.356000066E0,1.416113273E0
1.473575784E0,8.100000024E-2,4.440000355E-1,1.279950023E0,1.357191620E0
1.475538792E0,1.189500093E-1,4.440000355E-1,1.126049995E0,1.216253974E0
1.477501940E0,8.100000024E-2,4.440000355E-1,1.050000072E0,1.142889838E0
1.479465024E0,8.100000024E-2,4.830000103E-1,1.011000037E0,1.123374864E0
1.481428113E0,8.100000024E-2,5.209500194E-1,8.959500194E-1,1.039555847E0
1.483391188E0,8.100000024E-2,4.440000355E-1,7.429500222E-1,8.692938324E-1
1.485354267E0,8.100000024E-2,4.830000103E-1,5.130000114E-1,7.092383391E-1
1.487318784E0,8.100000024E-2,4.830000103E-1,3.979500234E-1,6.310421785E-1
1.489282880E0,4.200000316E-2,4.830000103E-1,9.195000678E-2,4.934651091E-1
1.491246158E0,1.570500135E-1,4.060500264E-1,-1.369500011E-1,4.563952602E-1
1.493209665E0,1.189500093E-1,4.440000355E-1,-5.590500236E-1,7.237555286E-1
1.495172353E0,1.570500135E-1,4.830000103E-1,-1.096050024E0,1.208006362E0
1.497135281E0,1.189500093E-1,5.209500194E-1,-2.014950037E0,2.084601084E0
1.499098562E0,8.100000024E-2,6.360000372E-1,-3.127050161E0,3.192099585E0
1.501061740E0,-1.480500102E-1,8.280000687E-1,-4.890000343E0,4.961814817E0
1.503024621E0,-5.320500135E-1,1.057950020E0,-7.036050320E0,7.135008028E0
1.504987589E0,-7.999500632E-1,1.288050056E0,-8.838000298E0,8.967120068E0
1.506950863E0,-9.529500604E-1,1.555950046E0,-1.017900085E1,1.034123555E1
1.508914048E0,-8.770500422E-1,1.747950077E0,-1.083105087E1,1.100618959E1
1.510877242E0,-3.400500119E-1,1.747950077E0,-9.910950661E0,1.006965275E1
1.512840433E0,2.340000123E-1,1.518000126E0,-7.879950523E0,8.028243932E0
1.514804382E0,7.320000529E-1,1.249050021E0,-5.656950474E0,5.839266966E0
1.516768116E0,1.153950095E0,9.430500269E-1,-3.931950092E0,4.204899012E0
1.518731126E0,1.384050012E0,6.360000372E-1,-2.551950216E0,2.971959015E0
1.520694349E0,1.575000048E0,3.289500177E-1,-1.441050053E0,2.159967249E0
1.522658662E0,1.767000079E0,2.295000106E-2,-5.590500236E-1,1.853470505E0
1.524622655E0,1.882050037E0,-2.059500068E-1,1.500000060E-2,1.893344329E0
1.526585335E0,1.882050037E0,-5.509500504E-1,3.600000143E-1,1.993804983E0
1.528548411E0,1.882050037E0,-1.087950110E0,3.979500234E-1,2.210002717E0
1.530512388E0,1.882050037E0,-1.624050021E0,1.300500035E-1,2.489289822E0
1.532476101E0,1.767000079E0,-2.122950077E0,-3.670500219E-1,2.786383324E0
1.534439295E0,1.690050125E0,-2.581950188E0,-7.510500550E-1,3.175974241E0
1.536402642E0,1.575000048E0,-2.965950251E0,-1.057050109E0,3.520630763E0
1.538365959E0,1.537050128E0,-3.349050045E0,-1.287000060E0,3.903207457E0
1.540329305E0,1.384050012E0,-3.732000113E0,-1.747050047E0,4.346907308E0
1.542292695E0,1.306950092E0,-4.116000175E0,-2.284050226E0,4.885331250E0
1.544256072E0,1.306950092E0,-4.498950005E0,-2.514000177E0,5.316847429E0
1.546219503E0,1.114950061E0,-4.690050125E0,-2.130000114E0,5.270349543E0
1.548182918E0,9.619500637E-1,-4.843950272E0,-1.326000094E0,5.113460512E0
1.550145241E0,7.320000529E-1,-5.112000465E0,-7.510500550E-1,5.218471905E0
1.552107867E0,5.020500422E-1,-5.380050182E0,-6.105000153E-2,5.403769176E0
1.554070436E0,3.490500152E-1,-5.917050362E0,5.130000114E-1,5.949494929E0
1.556033021E0,-2.250000089E-1,-6.913050175E0,9.730500579E-1,6.984820265E0
1.557996362E0,-1.183050036E0,-8.562000275E0,1.240950108E0,8.731976481E0
1.559959481E0,-2.140950203E0,-1.070805073E1,1.510050058E0,1.102389538E1
1.561922367E0,-3.138000250E0,-1.293105030E1,1.624950051E0,1.340520683E1
1.563885325E0,-4.249050140E0,-1.492395115E1,1.663050056E0,1.560591172E1
1.565848286E0,-5.398950100E0,-1.687905121E1,1.777950048E0,1.781045025E1
1.567811246E0,-6.625950336E0,-1.887195015E1,1.930950046E0,2.009433473E1
1.569774298E0,-7.584000587E0,-2.105595016E1,2.085000038E0,2.247704001E1
1.571737323E0,-8.427000046E0,-2.362395096E1,2.430000067E0,2.519941049E1
1.573700564E0,-8.887050629E0,-2.630700111E1,2.736000061E0,2.790203707E1
1.575663760E0,-9.270000458E0,-2.914305115E1,3.004050255E0,3.072905232E1
1.577627042E0,-9.193950653E0,-3.201795197E1,3.388050079E0,3.348368050E1
1.579590298E0,-8.809950829E0,-3.504600143E1,4.116000175E0,3.637002760E1
1.581553481E0,-8.464950562E0,-3.772905350E1,5.151000023E0,3.900858453E1
1.583516685E0,-8.005949974E0,-4.014300156E1,6.186000347E0,4.139833824E1
1.585479444E0,-7.047000408E0,-4.259595108E1,7.105050564E0,4.375565114E1
1.587442320E0,-5.782950401E0,-4.497300339E1,7.948950291E0,4.603476251E1
1.589405430E0,-4.555950165E0,-4.723395157E1,8.524050713E0,4.821267783E1
1.591368472E0,-2.755050182E0,-4.934205246E1,9.136950493E0,5.025646532E1
1.593332456E0,-4.930500090E-1,-5.129700089E1,9.136950493E0,5.210671034E1
1.595296164E0,1.804950118E0,-5.298300171E1,8.446949959E0,5.368246714E1
1.597259167E0,4.450050354E0,-5.432505417E1,7.219950199E0,5.498310776E1
1.599222353E0,7.363050461E0,-5.528295135E1,5.035950184E0,5.599803583E1
1.601186446E0,1.054395008E1,-5.604900360E1,2.161050081E0,5.707307443E1
1.603150274E0,1.364895058E1,-5.639400101E1,-1.516950130E0,5.804203941E1
1.605113268E0,1.667595100E1,-5.616405106E1,-5.350050449E0,5.883120781E1
1.607076507E0,1.878404999E1,-5.512995148E1,-8.493000031E0,5.885816114E1
1.609039727E0,2.031795120E1,-5.325195312E1,-1.136700058E1,5.811882961E1
1.611002959E0,2.081595039E1,-5.045400238E1,-1.359000111E1,5.624587342E1
1.612966190E0,2.008800125E1,-4.734900284E1,-1.416495037E1,5.334886768E1
1.614929421E0,1.824795151E1,-4.405305099E1,-1.359000111E1,4.958172210E1
1.616892652E0,1.514295101E1,-4.075695038E1,-1.217205048E1,4.515082261E1
1.618855883E0,1.154100037E1,-3.761400223E1,-1.006395054E1,4.061146333E1
1.620819453E0,8.282999992E0,-3.493095016E1,-7.458000183E0,3.666607608E1
1.622782937E0,5.599950314E0,-3.270795059E1,-5.197050095E0,3.358837306E1
1.624746261E0,3.223050117E0,-3.094500160E1,-3.472050190E0,3.130553160E1
1.626709632E0,1.459950089E0,-2.964195061E1,-2.092050076E0,2.975152708E1
1.628672163E0,1.189500093E-1,-2.856900215E1,-1.287000060E0,2.859822376E1
1.630634940E0,-9.529500604E-1,-2.772495079E1,-9.040500522E-1,2.775605009E1
1.632598438E0,-1.567050099E0,-2.711205101E1,-6.739500165E-1,2.716566150E1
1.634561717E0,-1.950000048E0,-2.653695107E1,-5.209500194E-1,2.661359917E1
1.636525075E0,-1.873050094E0,-2.634600067E1,-5.590500236E-1,2.641841413E1
1.638488409E0,-1.681950092E0,-2.619195175E1,-5.209500194E-1,2.625107010E1
1.640451488E0,-1.222050071E0,-2.623095131E1,-6.739500165E-1,2.626804944E1
1.642414642E0,-6.850500107E-1,-2.638395119E1,-7.120500207E-1,2.640244665E1
1.644377520E0,-1.870500147E-1,-2.653695107E1,-7.510500550E-1,2.654823602E1
1.646340483E0,1.960500032E-1,-2.661405182E1,-6.360000372E-1,2.662237191E1
1.648304660E0,5.410500169E-1,-2.672895050E1,-4.440000355E-1,2.673811261E1
1.650268481E0,8.850000501E-1,-2.665200043E1,-2.910000086E-1,2.666827765E1
1.652231792E0,1.153950095E0,-2.646105194E1,-1.369500011E-1,2.648655557E1
1.654195252E0,1.306950092E0,-2.623095131E1,1.500000060E-2,2.626349463E1
1.656158787E0,1.384050012E0,-2.603895187E1,-6.105000153E-2,2.607578064E1
1.658122279E0,1.498950124E0,-2.577105141E1,-9.900000691E-2,2.581479698E1
1.660085331E0,1.614000082E0,-2.557905197E1,-2.140500098E-1,2.563081570E1
1.662048512E0,1.614000082E0,-2.523405075E1,-3.670500219E-1,2.528827869E1
1.664011571E0,1.767000079E0,-2.492700195E1,-3.289500177E-1,2.499171710E1
1.665974666E0,1.767000079E0,-2.465895081E1,-3.670500219E-1,2.472490384E1
1.667937855E0,1.804950118E0,-2.439105034E1,-3.670500219E-1,2.446049687E1
1.669901030E0,1.843950033E0,-2.412300110E1,-2.140500098E-1,2.419432064E1
1.671864091E0,1.729050040E0,-2.385405159E1,-1.759500057E-1,2.391728140E1
1.673827185E0,1.537050128E0,-2.350905037E1,-9.900000691E-2,2.355945189E1
1.675790303E0,1.575000048E0,-2.324100113E1,5.295000225E-2,2.329436761E1
1.677753414E0,1.422000051E0,-2.297295189E1,2.070000172E-1,2.301785072E1
1.679715745E0,1.269000053E0,-2.255100060E1,3.600000143E-1,2.258954601E1
1.681678319E0,1.153950095E0,-2.220600128E1,4.750500321E-1,2.224103789E1
1.683641797E0,1.039050102E0,-2.190000153E1,5.509500504E-1,2.193155804E1
1.685605010E0,8.470500112E-1,-2.151600075E1,7.429500222E-1,2.154548112E1
1.687568289E0,8.470500112E-1,-2.109495163E1,9.730500579E-1,2.113436312E1
1.689531548E0,6.940500140E-1,-2.067300034E1,1.126049995E0,2.071527545E1
1.691494954E0,7.320000529E-1,-2.025105095E1,1.165050030E0,2.029773953E1
1.693458317E0,8.089500666E-1,-1.983000183E1,1.165050030E0,1.988066182E1
1.695421301E0,8.089500666E-1,-1.936995125E1,1.165050030E0,1.942181127E1
1.697384396E0,1.000050068E0,-1.894799995E1,1.279950023E0,1.901749391E1
1.699347514E0,1.153950095E0,-1.860300064E1,1.432950020E0,1.869375777E1
1.701310625E0,1.306950092E0,-1.822005081E1,1.548000097E0,1.833233958E1
1.703273697E0,1.537050128E0,-1.783695030E1,1.510050058E0,1.796662379E1
1.705236781E0,1.690050125E0,-1.741500092E1,1.663050056E0,1.757567244E1
1.707199676E0,1.920000076E0,-1.695495033E1,1.777950048E0,1.715569432E1
1.709162627E0,2.035050154E0,-1.645695114E1,1.930950046E0,1.669434749E1
1.711125905E0,2.035050154E0,-1.591995049E1,2.046000004E0,1.617938097E1
1.713089087E0,2.111999989E0,-1.538400078E1,2.314950228E0,1.569990505E1
1.715052336E0,2.149950027E0,-1.496205044E1,2.430000067E0,1.530980531E1
1.717015558E0,1.882050037E0,-1.434900093E1,2.353049994E0,1.466195022E1
1.718978566E0,1.729050040E0,-1.385100079E1,2.238000154E0,1.413677762E1
1.720941637E0,1.767000079E0,-1.339095020E1,2.275950193E0,1.369743720E1
1.722904759E0,1.767000079E0,-1.293105030E1,2.467950106E0,1.328251214E1
1.724867866E0,1.575000048E0,-1.243305016E1,2.430000067E0,1.276582397E1
1.726830718E0,1.575000048E0,-1.204905033E1,2.314950228E0,1.237009432E1
1.728793642E0,1.422000051E0,-1.158900070E1,2.238000154E0,1.188846778E1
1.730756789E0,1.459950089E0,-1.105305099E1,2.122950077E0,1.134937477E1
1.732719871E0,1.459950089E0,-1.059300041E1,1.930950046E0,1.086607933E1
1.734682948E0,1.498950124E0,-1.017105007E1,1.740000129E0,1.042711425E1
1.736646027E0,1.575000048E0,-9.673050880E0,1.585950017E0,9.927929086E0
1.738609067E0,1.651950121E0,-9.175050735E0,1.471050024E0,9.437927917E0
1.740572113E0,1.804950118E0,-8.677050591E0,1.356000066E0,8.965923715E0
1.742535374E0,1.996950150E0,-8.178000450E0,1.126049995E0,8.493261438E0
1.744498572E0,2.074050188E0,-7.642050266E0,1.011000037E0,7.982777557E0
1.746461449E0,2.074050188E0,-6.990000248E0,8.200500607E-1,7.337184048E0
1.748424420E0,2.188950062E0,-6.415050507E0,5.899500251E-1,6.803853056E0
1.750388476E0,2.074050188E0,-5.839950085E0,3.600000143E-1,6.207761367E0
1.752352203E0,1.996950150E0,-5.341950417E0,2.070000172E-1,5.706758551E0
1.754315485E0,1.843950033E0,-4.804950237E0,-6.105000153E-2,5.146982185E0
1.756278897E0,1.804950118E0,-4.461000443E0,-1.759500057E-1,4.815529907E0
1.758242141E0,1.729050040E0,-3.961950302E0,-2.910000086E-1,4.332591054E0
1.760205435E0,1.690050125E0,-3.502050161E0,-2.520000041E-1,3.896681763E0
1.762168817E0,1.614000082E0,-3.081000090E0,-3.289500177E-1,3.493675132E0
1.764132154E0,1.614000082E0,-2.697000027E0,-2.140500098E-1,3.150336937E0
1.766095367E0,1.459950089E0,-2.275950193E0,-6.105000153E-2,2.704649820E0
1.768058617E0,1.384050012E0,-1.930950046E0,5.295000225E-2,2.376334618E0
1.770021349E0,1.345050097E0,-1.663050056E0,2.449500114E-1,2.152880804E0
1.771984233E0,1.306950092E0,-1.393950105E0,3.979500234E-1,1.951814453E0
1.773947508E0,1.306950092E0,-1.164000034E0,6.280500293E-1,1.859425036E0
1.775910678E0,1.306950092E0,-1.011000037E0,8.200500607E-1,1.844646774E0
1.777874054E0,1.306950092E0,-7.810500264E-1,1.087950110E0,1.871307866E0
1.779837370E0,1.422000051E0,-6.280500293E-1,1.203000069E0,1.965639883E0
1.781800767E0,1.498950124E0,-4.360500276E-1,1.318050027E0,2.043097397E0
1.783764140E0,1.575000048E0,-2.830500007E-1,1.510050058E0,2.200225814E0
1.785727373E0,1.575000048E0,-1.680000126E-1,1.510050058E0,2.188401319E0
1.787690661E0,1.690050125E0,-9.105000645E-2,1.510050058E0,2.268217518E0
1.789653116E0,1.729050040E0,-5.295000225E-2,1.510050058E0,2.296229284E0
1.791615815E0,1.804950118E0,9.900000691E-2,1.548000097E0,2.379905509E0
1.793579361E0,1.843950033E0,2.140500098E-1,1.510050058E0,2.392952216E0
1.795542659E0,1.920000076E0,3.679500222E-1,1.510050058E0,2.470230493E0
1.797506072E0,1.920000076E0,4.830000103E-1,1.471050024E0,2.466511195E0
1.799469442E0,1.959000111E0,5.980500579E-1,1.471050024E0,2.521771893E0
1.801432650E0,2.035050154E0,7.129500508E-1,1.395000100E0,2.568219652E0
1.803395906E0,1.959000111E0,7.510500550E-1,1.395000100E0,2.519480680E0
1.805359311E0,1.959000111E0,8.659500480E-1,1.279950023E0,2.495159911E0
1.807322673E0,1.959000111E0,9.040500522E-1,1.087950110E0,2.416324352E0
1.809286231E0,1.920000076E0,1.018950105E0,8.959500194E-1,2.351039354E0
1.811249707E0,1.882050037E0,1.018950105E0,7.429500222E-1,2.265468251E0
1.813213842E0,1.882050037E0,1.057950020E0,3.979500234E-1,2.195389444E0
1.815177784E0,1.843950033E0,1.096050024E0,1.300500035E-1,2.149044063E0
1.817140849E0,1.767000079E0,1.096050024E0,-6.105000153E-2,2.080226439E0
1.819104171E0,1.767000079E0,1.134000063E0,-3.670500219E-1,2.131424674E0
1.821067736E0,1.729050040E0,1.173000097E0,-7.120500207E-1,2.207387257E0
1.823031236E0,1.729050040E0,1.249050021E0,-1.096050024E0,2.398137955E0
1.824994602E0,1.651950121E0,1.288050056E0,-1.516950130E0,2.586339082E0
1.826958007E0,1.651950121E0,1.326000094E0,-1.900950074E0,2.846195116E0
1.828921612E0,1.614000082E0,1.363950014E0,-2.359950066E0,3.167762652E0
1.830885159E0,1.690050125E0,1.402950048E0,-2.743950129E0,3.514797373E0
1.832848331E0,1.651950121E0,1.518000126E0,-3.394950151E0,4.069268990E0
1.834811617E0,1.690050125E0,1.518000126E0,-3.894000292E0,4.508196100E0
1.836775018E0,1.690050125E0,1.594050050E0,-4.429950237E0,5.002171937E0
1.838738385E0,1.729050040E0,1.708950043E0,-4.966950417E0,5.529983791E0
1.840701593E0,1.804950118E0,1.747950077E0,-5.464950085E0,6.014886020E0
1.842664848E0,1.882050037E0,1.824000120E0,-5.887050152E0,6.444101820E0
1.844628195E0,1.959000111E0,1.900950074E0,-6.117000103E0,6.698431374E0
1.846591524E0,2.111999989E0,1.939050078E0,-6.307950497E0,6.928975294E0
1.848554424E0,2.188950062E0,1.978050113E0,-6.346950531E0,6.999140352E0
1.850517450E0,2.188950062E0,1.939050078E0,-6.270000458E0,6.918404680E0
1.852480669E0,2.304000139E0,2.016000032E0,-6.040050507E0,6.771623357E0
1.854443832E0,2.304000139E0,1.978050113E0,-5.733000278E0,6.487556634E0
1.856406963E0,2.380050182E0,1.978050113E0,-5.350050449E0,6.180644055E0
1.858370088E0,2.380050182E0,2.016000032E0,-4.890000343E0,5.800086065E0
1.860333291E0,2.380050182E0,2.016000032E0,-4.429950237E0,5.417873578E0
1.862296471E0,2.304000139E0,2.016000032E0,-3.817050219E0,4.893112010E0
1.864260071E0,2.304000139E0,1.978050113E0,-3.204000235E0,4.414376105E0
1.866223548E0,2.227050066E0,2.016000032E0,-2.475000143E0,3.892253054E0
1.868186754E0,2.188950062E0,1.939050078E0,-1.786050081E0,3.426571533E0
1.870150060E0,2.111999989E0,1.939050078E0,-1.134000063E0,3.083247525E0
1.872113457E0,1.996950150E0,1.863000035E0,-4.440000355E-1,2.766896287E0
1.874076827E0,1.882050037E0,1.824000120E0,2.449500114E-1,2.632316335E0
1.876039674E0,1.690050125E0,1.708950043E0,1.011000037E0,2.607470182E0
1.878002675E0,1.651950121E0,1.633050084E0,1.471050024E0,2.749505401E0
1.879966106E0,1.459950089E0,1.479000092E0,1.855050087E0,2.785696746E0
1.881929424E0,1.269000053E0,1.249050021E0,2.275950193E0,2.889712161E0
1.883892955E0,1.039050102E0,9.810000658E-1,2.659050226E0,3.018697459E0
1.885856424E0,6.169500351E-1,7.890000343E-1,2.851050138E0,3.021859575E0
1.887819300E0,3.490500152E-1,5.980500579E-1,3.004050255E0,3.082826255E0
1.889782349E0,1.570500135E-1,4.060500264E-1,2.965950251E0,2.997732847E0
1.891745925E0,4.050000105E-3,2.140500098E-1,2.851050138E0,2.859076897E0
1.893709347E0,-1.099500060E-1,6.105000153E-2,2.736000061E0,2.738888906E0
1.895673491E0,-1.870500147E-1,-9.105000645E-2,2.545050144E0,2.553538339E0
1.897637424E0,-1.480500102E-1,-1.290000081E-1,2.391000032E0,2.399050013E0
1.899601031E0,-1.480500102E-1,-1.290000081E-1,2.161050081E0,2.169953286E0
1.901564733E0,-1.099500060E-1,-1.680000126E-1,2.046000004E0,2.055828063E0
1.903528068E0,-7.200000435E-2,-1.680000126E-1,1.930950046E0,1.939581420E0
1.905491507E0,4.050000105E-3,-2.440500110E-1,1.855050087E0,1.871039186E0
1.907454882E0,4.050000105E-3,-2.830500007E-1,1.701000094E0,1.724394104E0
1.909418276E0,4.200000316E-2,-2.440500110E-1,1.663050056E0,1.681386302E0
1.911381659E0,4.050000105E-3,-2.830500007E-1,1.510050058E0,1.536354414E0
1.913345045E0,1.570500135E-1,-2.440500110E-1,1.510050058E0,1.537685369E0
1.915308804E0,1.570500135E-1,-2.830500007E-1,1.510050058E0,1.544355266E0
1.917272443E0,1.189500093E-1,-2.830500007E-1,1.510050058E0,1.540946977E0
1.919235830E0,1.189500093E-1,-2.830500007E-1,1.471050024E0,1.502749008E0
1.921199291E0,8.100000024E-2,-2.440500110E-1,1.471050024E0,1.493355142E0
1.923162977E0,8.100000024E-2,-2.059500068E-1,1.432950020E0,1.449938676E0
1.925126597E0,1.189500093E-1,-2.440500110E-1,1.356000066E0,1.382912033E0
1.927090172E0,1.189500093E-1,-2.440500110E-1,1.395000100E0,1.421173737E0
1.929053757E0,2.340000123E-1,-2.830500007E-1,1.240950108E0,1.294152417E0
1.931017287E0,2.340000123E-1,-2.830500007E-1,1.165050030E0,1.221562475E0
1.932980834E0,2.340000123E-1,-3.210000098E-1,1.165050030E0,1.230909657E0
1.934944505E0,2.719500065E-1,-3.210000098E-1,1.087950110E0,1.166461853E0
1.936908140E0,3.109500110E-1,-3.210000098E-1,1.126049995E0,1.211494741E0
1.938871703E0,2.719500065E-1,-2.440500110E-1,1.165050030E0,1.221007283E0
1.940835291E0,2.719500065E-1,-2.440500110E-1,1.126049995E0,1.183852105E0
1.942798776E0,2.340000123E-1,-1.680000126E-1,1.087950110E0,1.125440115E0
1.944762291E0,1.960500032E-1,-2.440500110E-1,1.087950110E0,1.132091628E0
1.946725878E0,2.340000123E-1,-2.059500068E-1,9.349500537E-1,9.855470633E-1
1.948689443E0,2.340000123E-1,-2.059500068E-1,8.959500194E-1,9.486294578E-1
1.950652576E0,1.960500032E-1,-2.440500110E-1,8.959500194E-1,9.490639856E-1
1.952615833E0,1.570500135E-1,-2.830500007E-1,8.959500194E-1,9.526323776E-1
1.954579239E0,1.960500032E-1,-3.210000098E-1,8.959500194E-1,9.717011100E-1
1.956542601E0,2.340000123E-1,-3.589500189E-1,9.349500537E-1,1.028461338E0
1.958505989E0,2.340000123E-1,-3.979500234E-1,1.011000037E0,1.111414100E0
1.960469370E0,2.340000123E-1,-4.360500276E-1,1.011000037E0,1.125618367E0
1.962433112E0,2.340000123E-1,-5.130000114E-1,1.126049995E0,1.259330620E0
1.964396751E0,2.340000123E-1,-5.509500504E-1,1.087950110E0,1.241747723E0
1.966360138E0,3.109500110E-1,-5.509500504E-1,1.165050030E0,1.325736565E0
1.968323599E0,2.340000123E-1,-6.280500293E-1,1.126049995E0,1.310416513E0
1.970287105E0,1.960500032E-1,-6.660000086E-1,1.165050030E0,1.356220184E0
1.972250597E0,2.719500065E-1,-7.039500475E-1,1.126049995E0,1.355540876E0
1.974213978E0,2.340000123E-1,-7.039500475E-1,1.087950110E0,1.316790461E0
1.976177382E0,1.960500032E-1,-7.429500222E-1,1.126049995E0,1.363231063E0
1.978140807E0,1.960500032E-1,-7.429500222E-1,1.087950110E0,1.331933100E0
1.980104226E0,8.100000024E-2,-7.810500264E-1,1.203000069E0,1.436596432E0
1.982067785E0,1.189500093E-1,-7.810500264E-1,1.203000069E0,1.439235010E0
1.984031303E0,1.189500093E-1,-8.190000653E-1,1.165050030E0,1.429073750E0
1.985994467E0,1.960500032E-1,-8.190000653E-1,1.203000069E0,1.468470591E0
1.987957748E0,1.570500135E-1,-9.340500236E-1,1.087950110E0,1.442480362E0
1.989921149E0,1.960500032E-1,-8.959500194E-1,1.087950110E0,1.422953788E0
1.991884515E0,1.960500032E-1,-9.340500236E-1,1.011000037E0,1.390325906E0
1.993847544E0,1.960500032E-1,-8.959500194E-1,1.011000037E0,1.365021288E0
1.995810671E0,2.340000123E-1,-8.190000653E-1,9.730500579E-1,1.293191219E0
1.997774279E0,2.340000123E-1,-8.580000401E-1,1.050000072E0,1.376016070E0
1.999737746E0,1.960500032E-1,-8.580000401E-1,1.087950110E0,1.399369542E0
2.001701072E0,1.960500032E-1,-8.580000401E-1,1.087950110E0,1.399369542E0
2.003664440E0,1.960500032E-1,-8.190000653E-1,1.240950108E0,1.499717934E0
2.005627512E0,1.960500032E-1,-8.580000401E-1,1.395000100E0,1.649431706E0
2.007590671E0,1.960500032E-1,-8.190000653E-1,1.471050024E0,1.695047163E0
2.009553923E0,2.340000123E-1,-8.190000653E-1,1.510050058E0,1.733715170E0
2.011517140E0,2.340000123E-1,-7.810500264E-1,1.510050058E0,1.716113728E0
2.013480373E0,2.340000123E-1,-8.580000401E-1,1.510050058E0,1.752475750E0
2.015443602E0,2.340000123E-1,-8.190000653E-1,1.548000097E0,1.766867684E0
2.017406968E0,2.340000123E-1,-8.190000653E-1,1.548000097E0,1.766867684E0
2.019370294E0,2.719500065E-1,-8.580000401E-1,1.548000097E0,1.790649373E0
2.021333489E0,2.719500065E-1,-8.580000401E-1,1.510050058E0,1.757945407E0
2.023296737E0,2.719500065E-1,-7.810500264E-1,1.471050024E0,1.687597145E0
2.025260009E0,3.109500110E-1,-7.810500264E-1,1.510050058E0,1.728288238E0
2.027223273E0,3.490500152E-1,-7.810500264E-1,1.510050058E0,1.735547820E0
2.029186859E0,3.870000243E-1,-7.810500264E-1,1.471050024E0,1.709911207E0
2.031150350E0,4.260000288E-1,-8.190000653E-1,1.471050024E0,1.736728334E0
2.033113658E0,4.260000288E-1,-8.190000653E-1,1.471050024E0,1.736728334E0
2.035077030E0,5.020500422E-1,-7.810500264E-1,1.471050024E0,1.739563612E0
2.037040461E0,5.020500422E-1,-8.580000401E-1,1.471050024E0,1.775445433E0
2.039003875E0,5.410500169E-1,-8.580000401E-1,1.471050024E0,1.786865234E0
2.040967976E0,6.550500393E-1,-8.580000401E-1,1.471050024E0,1.824621275E0
2.042931875E0,6.940500140E-1,-9.340500236E-1,1.432950020E0,1.845941664E0
2.044895298E0,7.699500322E-1,-9.340500236E-1,1.395000100E0,1.846969891E0
2.046858867E0,8.089500666E-1,-1.011000037E0,1.356000066E0,1.874901988E0
2.048822444E0,9.619500637E-1,-1.087950110E0,1.318050027E0,1.961183123E0
2.050786018E0,1.039050102E0,-1.126049995E0,1.240950108E0,1.971692389E0
2.052749551E0,1.039050102E0,-1.164000034E0,1.240950108E0,1.993609381E0
2.054713097E0,1.114950061E0,-1.240950108E0,1.165050030E0,2.034800329E0
2.056676428E0,1.077000022E0,-1.356000066E0,1.087950110E0,2.045067400E0
2.058639809E0,1.077000022E0,-1.432950020E0,1.126049995E0,2.116899478E0
2.060603193E0,1.077000022E0,-1.509000063E0,1.087950110E0,2.149568720E0
2.062566576E0,1.114950061E0,-1.663050056E0,1.087950110E0,2.278702387E0
2.064529827E0,9.619500637E-1,-1.969050050E0,1.050000072E0,2.430021846E0
2.066493116E0,1.039050102E0,-2.314050198E0,6.660000086E-1,2.622595936E0
2.068457417E0,8.470500112E-1,-2.736000061E0,-6.105000153E-2,2.864771746E0
2.070421422E0,8.089500666E-1,-3.196050167E0,-9.810000658E-1,3.439694465E0
2.072383981E0,5.410500169E-1,-3.924000263E0,-1.747050047E0,4.329283665E0
2.074346963E0,2.340000123E-1,-4.804950237E0,-2.245050192E0,5.308724249E0
2.076310235E0,-6.469500065E-1,-5.955000401E0,-2.551950216E0,6.510992550E0
2.078273422E0,-2.485950232E0,-7.680000305E0,-3.088950157E0,8.643145626E0
2.080236583E0,-4.479000092E0,-9.979950905E0,-3.088950157E0,1.136672666E1
2.082199774E0,-5.898000240E0,-1.254795074E1,-2.704950094E0,1.412636647E1
2.084163056E0,-7.431000233E0,-1.469400024E1,-2.475000143E0,1.665109706E1
2.086126312E0,-9.040050507E0,-1.684005165E1,-2.437050104E0,1.926782463E1
2.088089674E0,-1.065000057E1,-1.967700005E1,-2.437050104E0,2.250657807E1
2.090053005E0,-1.176195049E1,-2.278095055E1,-2.475000143E0,2.575734483E1
2.092016399E0,-1.291095066E1,-2.588595200E1,-2.322000027E0,2.902011099E1
2.093979774E0,-1.375500107E1,-2.902800179E1,-2.092050076E0,3.219008567E1
2.095942801E0,-1.421505070E1,-3.228600311E1,-9.810000658E-1,3.529045231E1
2.097905930E0,-1.413795090E1,-3.558300018E1,-1.369500011E-1,3.828903646E1
2.099868637E0,-1.367805099E1,-3.868695068E1,8.959500194E-1,4.104353736E1
2.101831468E0,-1.225995064E1,-4.163805008E1,1.855050087E0,4.344507814E1
2.103794616E0,-1.061205006E1,-4.443600082E1,2.238000154E0,4.574038063E1
2.105757682E0,-9.001950264E0,-4.711905289E1,2.545050144E0,4.803870870E1
2.107720941E0,-7.009050369E0,-4.964895248E1,2.812950134E0,5.022009516E1
2.109684143E0,-4.708950043E0,-5.187195206E1,3.118950129E0,5.217855374E1
2.111648235E0,-1.758000135E0,-5.371095276E1,3.004050255E0,5.382361311E1
2.113612067E0,1.269000053E0,-5.520600128E1,2.851050138E0,5.529413554E1
2.115575376E0,4.372950077E0,-5.631795120E1,2.659050226E0,5.655002094E1
2.117538838E0,7.363050461E0,-5.700795364E1,2.353049994E0,5.752962832E1
2.119502254E0,9.969000816E0,-5.727600098E1,1.777950048E0,5.816427057E1
2.121465684E0,1.295895100E1,-5.735295105E1,8.959500194E-1,5.880559609E1
2.123429781E0,1.621605110E1,-5.666295242E1,-7.120500207E-1,5.894198424E1
2.125393682E0,1.958895111E1,-5.528295135E1,-2.859000206E0,5.872057219E1
2.127356799E0,2.204205132E1,-5.279205322E1,-5.350050449E0,5.745847152E1
2.129320145E0,2.292405128E1,-4.960995102E1,-8.032950401E0,5.523755660E1
2.131283670E0,2.246400070E1,-4.662105179E1,-1.021800041E1,5.274998891E1
2.133247143E0,2.070105171E1,-4.336305237E1,-1.086900043E1,4.926482541E1
2.135210514E0,1.778805161E1,-4.006695175E1,-9.873000145E0,4.493608277E1
2.137173915E0,1.479795074E1,-3.692400360E1,-8.185950279E0,4.061245093E1
2.139137302E0,1.196205044E1,-3.412605286E1,-6.232050419E0,3.669491227E1
2.141100689E0,9.318000793E0,-3.190305138E1,-4.545000076E0,3.354529552E1
2.143063893E0,7.477950573E0,-3.021705055E1,-2.935050249E0,3.126666610E1
2.145027151E0,5.791050434E0,-2.883705139E1,-1.747050047E0,2.946462255E1
2.146990241E0,4.795050144E0,-2.780205154E1,-1.249050021E0,2.824016115E1
2.148953381E0,3.952050209E0,-2.699700165E1,-1.018950105E0,2.730375539E1
2.150916646E0,3.108000040E0,-2.638395119E1,-6.360000372E-1,2.657399181E1
2.152879860E0,2.494950056E0,-2.596200180E1,-7.510500550E-1,2.609242015E1
2.154843274E0,1.690050125E0,-2.550195122E1,-9.810000658E-1,2.557671102E1
2.156806629E0,1.269000053E0,-2.500395203E1,-1.171950102E0,2.506354813E1
2.158769795E0,1.114950061E0,-2.439105034E1,-1.018950105E0,2.443777219E1
2.160733016E0,1.114950061E0,-2.373900032E1,-6.360000372E-1,2.377367758E1
2.162696599E0,1.153950095E0,-2.304900169E1,-3.289500177E-1,2.308021421E1
2.164660082E0,1.039050102E0,-2.239800072E1,-9.900000691E-2,2.242230725E1
2.166623135E0,1.039050102E0,-2.178495026E1,9.195000678E-2,2.180990916E1
2.168586314E0,7.320000529E-1,-2.124795151E1,1.680000126E-1,2.126122036E1
2.170547932E0,3.870000243E-1,-2.086500168E1,3.600000143E-1,2.087169529E1
2.172510007E0,8.100000024E-2,-2.059605026E1,5.509500504E-1,2.060357720E1
2.174473439E0,-2.250000089E-1,-2.052000046E1,8.959500194E-1,2.054078310E1
2.176436470E0,-4.170000255E-1,-2.055795097E1,1.356000066E0,2.060684288E1
2.178400096E0,-5.700000525E-1,-2.067300034E1,1.548000097E0,2.073871132E1
2.180363547E0,-5.700000525E-1,-2.086500168E1,1.816050053E0,2.095164034E1
2.182327101E0,-7.620000243E-1,-2.098005104E1,2.085000038E0,2.109716594E1
2.184290624E0,-9.150000215E-1,-2.094105148E1,2.314950228E0,2.108847687E1
2.186254346E0,-9.919500351E-1,-2.105595016E1,2.467950106E0,2.122328391E1
2.188218009E0,-9.919500351E-1,-2.109495163E1,2.620950222E0,2.128028029E1
2.190181302E0,-1.106999993E0,-2.117100143E1,2.698050022E0,2.137092007E1
2.192144703E0,-1.222050071E0,-2.117100143E1,2.773950100E0,2.138690037E1
2.194107589E0,-1.222050071E0,-2.117100143E1,2.736000061E0,2.138201123E1
2.196070626E0,-1.260000110E0,-2.113305092E1,2.736000061E0,2.134664231E1
2.198034024E0,-1.297950029E0,-2.113305092E1,2.773950100E0,2.135381265E1
2.199997316E0,-1.489950061E0,-2.105595016E1,2.659050226E0,2.127542095E1
2.201960538E0,-1.528050065E0,-2.101800156E1,2.620950222E0,2.123583543E1
2.203923780E0,-1.489950061E0,-2.105595016E1,2.620950222E0,2.127069272E1
2.205887188E0,-1.413000107E0,-2.117100143E1,2.545050144E0,2.137019306E1
2.207850547E0,-1.336950064E0,-2.124795151E1,2.353049994E0,2.141961071E1
2.209813986E0,-1.297950029E0,-2.136300087E1,2.122950077E0,2.150742657E1
2.211777398E0,-1.413000107E0,-2.128605080E1,1.777950048E0,2.140685951E1
2.213740958E0,-1.375050068E0,-2.121000099E1,1.777950048E0,2.132876019E1
2.215704475E0,-1.297950029E0,-2.086500168E1,1.969950080E0,2.099794449E1
2.217667838E0,-1.297950029E0,-2.048100090E1,2.122950077E0,2.063160171E1
2.219631247E0,-1.297950029E0,-1.994505119E1,2.008050203E0,2.008785720E1
2.221594776E0,-1.336950064E0,-1.925505066E1,1.777950048E0,1.938312456E1
2.223558259E0,-1.144950032E0,-1.867995071E1,1.663050056E0,1.878875208E1
2.225521852E0,-1.030050039E0,-1.806705093E1,1.701000094E0,1.817615839E1
2.227485412E0,-1.068000078E0,-1.741500092E1,1.510050058E0,1.751294185E1
2.229448903E0,-9.150000215E-1,-1.680195045E1,1.471050024E0,1.689102579E1
2.231412414E0,-8.770500422E-1,-1.603499985E1,1.279950023E0,1.610989475E1
2.233375633E0,-9.919500351E-1,-1.549905109E1,8.200500607E-1,1.555239634E1
2.235338944E0,-9.529500604E-1,-1.488600063E1,5.509500504E-1,1.492664311E1
2.237303061E0,-6.850500107E-1,-1.427205086E1,9.195000678E-2,1.428877825E1
2.239266942E0,-5.320500135E-1,-1.365900040E1,-3.289500177E-1,1.367331625E1
2.241230063E0,-2.250000089E-1,-1.312305069E1,-7.120500207E-1,1.314428011E1
2.243193406E0,4.200000316E-2,-1.262400055E1,-1.096050024E0,1.267156184E1
2.245156612E0,2.340000123E-1,-1.212600040E1,-1.516950130E0,1.222275662E1
2.247119862E0,4.260000288E-1,-1.162800026E1,-1.747050047E0,1.176622496E1
2.249083944E0,5.790000558E-1,-1.113000011E1,-2.053950071E0,1.133273376E1
2.251047783E0,8.850000501E-1,-1.066995049E1,-2.130000114E0,1.091640824E1
2.253011091E0,1.114950061E0,-1.028595066E1,-2.169000149E0,1.057111424E1
2.254974554E0,1.114950061E0,-9.787950516E0,-2.437050104E0,1.014821670E1
2.256937740E0,1.269000053E0,-9.366000175E0,-2.551950216E0,9.790034235E0
2.258901011E0,1.422000051E0,-8.983050346E0,-2.514000177E0,9.435967071E0
2.260864459E0,1.537050128E0,-8.638050079E0,-2.551950216E0,9.137334522E0
2.262827855E0,1.843950033E0,-8.178000450E0,-2.514000177E0,8.752144879E0
2.264791059E0,2.227050066E0,-7.717950344E0,-2.359950066E0,8.372327862E0
2.266754319E0,2.380050182E0,-7.335000515E0,-2.169000149E0,8.010707401E0
2.268717568E0,2.419050217E0,-6.837000370E0,-2.014950037E0,7.527044683E0
2.270680804E0,2.494950056E0,-6.376950264E0,-1.671000123E0,7.048582259E0
2.272644168E0,2.533950090E0,-5.955000401E0,-1.479000092E0,6.638552109E0
2.274607495E0,2.533950090E0,-5.533950329E0,-1.096050024E0,6.184402555E0
2.276570755E0,2.610000134E0,-5.112000465E0,-8.269500136E-1,5.799008172E0
2.278534035E0,2.686950207E0,-4.614000320E0,-5.590500236E-1,5.368541450E0
2.280497386E0,2.610000134E0,-4.153950214E0,-3.289500177E-1,4.916870061E0
2.282460720E0,2.533950090E0,-3.732000113E0,-2.205000073E-2,4.511010320E0
2.284422853E0,2.457000017E0,-3.349050045E0,2.830500007E-1,4.163304288E0
2.286385338E0,2.380050182E0,-2.926950216E0,4.360500276E-1,3.797606623E0
2.288348740E0,2.304000139E0,-2.620950222E0,6.660000086E-1,3.552654320E0
2.290311874E0,2.188950062E0,-2.351999998E0,8.959500194E-1,3.335585826E0
2.292275506E0,2.111999989E0,-2.199000120E0,1.126049995E0,3.250251386E0
2.294238975E0,2.111999989E0,-2.083950043E0,1.279950023E0,3.231356340E0
2.296201941E0,2.111999989E0,-1.893000126E0,1.356000066E0,3.143680901E0
2.298165054E0,2.035050154E0,-1.738950133E0,1.356000066E0,3.000685401E0
2.300128125E0,2.074050188E0,-1.548000097E0,1.395000100E0,2.940070367E0
2.302091208E0,2.035050154E0,-1.432950020E0,1.395000100E0,2.853208749E0
2.304054508E0,1.959000111E0,-1.203000069E0,1.240950108E0,2.612440960E0
2.306017744E0,1.843950033E0,-9.340500236E-1,1.165050030E0,2.372750038E0
2.307981110E0,1.843950033E0,-6.280500293E-1,9.730500579E-1,2.177481338E0
2.309944437E0,1.767000079E0,-3.210000098E-1,7.429500222E-1,1.943529012E0
2.311908417E0,1.767000079E0,-1.290000081E-1,3.600000143E-1,1.807907711E0
2.313872206E0,1.690050125E0,-5.295000225E-2,2.070000172E-1,1.703502901E0
2.315834576E0,1.729050040E0,2.140500098E-1,-1.369500011E-1,1.747623172E0
2.317797362E0,1.729050040E0,3.679500222E-1,-3.289500177E-1,1.798112726E0
2.319760533E0,1.804950118E0,5.590500236E-1,-4.819500148E-1,1.950040429E0
2.321723591E0,1.804950118E0,6.739500165E-1,-7.120500207E-1,2.054037192E0
2.323686986E0,1.882050037E0,8.659500480E-1,-9.810000658E-1,2.292235363E0
2.325650283E0,1.996950150E0,9.430500269E-1,-1.210950017E0,2.518641141E0
2.327613498E0,2.074050188E0,9.810000658E-1,-1.326000094E0,2.649966332E0
2.329576741E0,2.111999989E0,1.096050024E0,-1.594050050E0,2.864064449E0
2.331540194E0,2.149950027E0,1.173000097E0,-1.671000123E0,2.964870277E0
2.333503586E0,2.227050066E0,1.210950017E0,-1.824000120E0,3.122999900E0
2.335466970E0,2.304000139E0,1.249050021E0,-1.900950074E0,3.237615447E0
2.337430357E0,2.341950178E0,1.288050056E0,-2.053950071E0,3.370832906E0
2.339393727E0,2.457000017E0,1.326000094E0,-2.245050192E0,3.582649257E0
2.341357112E0,2.572050095E0,1.402950048E0,-2.359950066E0,3.762057262E0
2.343320496E0,2.649000168E0,1.363950014E0,-2.514000177E0,3.898430251E0
2.345283881E0,2.686950207E0,1.402950048E0,-2.551950216E0,3.962375570E0
2.347247445E0,2.802000046E0,1.441050053E0,-2.782050133E0,4.203288290E0
2.349210956E0,2.839950085E0,1.441050053E0,-2.859000206E0,4.279699045E0
2.351174075E0,2.878050089E0,1.479000092E0,-3.012000084E0,4.420719182E0
2.353137323E0,2.955000162E0,1.441050053E0,-3.127050161E0,4.537300290E0
2.355100910E0,3.070050240E0,1.441050053E0,-3.241950035E0,4.691702650E0
2.357064398E0,3.147000074E0,1.402950048E0,-3.394950151E0,4.837102938E0
2.359027811E0,3.184950113E0,1.402950048E0,-3.433950186E0,4.889191134E0
2.360991246E0,3.337950230E0,1.363950014E0,-3.549000263E0,5.059414417E0
2.362954397E0,3.337950230E0,1.326000094E0,-3.549000263E0,5.049315880E0
2.364917631E0,3.415050268E0,1.326000094E0,-3.586950064E0,5.127090339E0
2.366880861E0,3.529950142E0,1.288050056E0,-3.549000263E0,5.168657835E0
2.368844092E0,3.607050180E0,1.249050021E0,-3.586950064E0,5.238048083E0
2.370807367E0,3.682950258E0,1.210950017E0,-3.549000263E0,5.256037045E0
2.372770629E0,3.837000132E0,1.173000097E0,-3.433950186E0,5.281146951E0
2.374734201E0,4.027950287E0,1.134000063E0,-3.319050074E0,5.341014234E0
2.376697692E0,4.219950199E0,9.430500269E-1,-3.165000200E0,5.358595833E0
2.378660653E0,4.297049999E0,8.659500480E-1,-2.935050249E0,5.275322563E0
2.380623770E0,4.488000393E0,7.510500550E-1,-2.667000055E0,5.274382713E0
2.382587019E0,4.680000305E0,5.209500194E-1,-2.437050104E0,5.302169838E0
2.384550230E0,4.795050144E0,3.289500177E-1,-2.014950037E0,5.211596459E0
2.386514235E0,4.909950256E0,2.295000106E-2,-1.747050047E0,5.211556590E0
2.388478004E0,5.025000095E0,-1.680000126E-1,-1.479000092E0,5.240829251E0
2.390441459E0,5.062950134E0,-3.210000098E-1,-1.057050109E0,5.182071015E0
2.392405006E0,5.025000095E0,-6.280500293E-1,-6.360000372E-1,5.103877824E0
2.394368363E0,4.872000217E0,-9.730500579E-1,-2.910000086E-1,4.976735229E0
2.396331775E0,4.680000305E0,-1.240950108E0,1.300500035E-1,4.843477370E0
2.398294103E0,4.488000393E0,-1.471050024E0,4.360500276E-1,4.743023859E0
2.400256760E0,4.335000038E0,-1.701000094E0,8.959500194E-1,4.742188639E0
2.402220224E0,4.182000160E0,-1.893000126E0,1.203000069E0,4.745501447E0
2.404183451E0,4.027950287E0,-2.122950077E0,1.471050024E0,4.784902164E0
2.406147043E0,3.913050175E0,-2.238000154E0,1.585950017E0,4.778686411E0
2.408110528E0,3.760050297E0,-2.391000032E0,1.816050053E0,4.811745752E0
2.410073747E0,3.529950142E0,-2.467050076E0,1.930950046E0,4.719687718E0
2.412037054E0,3.300000191E0,-2.620950222E0,1.969950080E0,4.651890437E0
2.414000406E0,3.070050240E0,-2.620950222E0,2.085000038E0,4.543326281E0
2.415963745E0,2.725050211E0,-2.620950222E0,2.200050116E0,4.374414158E0
2.417927003E0,2.457000017E0,-2.659050226E0,2.275950193E0,4.276370713E0
2.419890285E0,2.111999989E0,-2.620950222E0,2.314950228E0,4.085207287E0
2.421853483E0,1.882050037E0,-2.506050110E0,2.391000032E0,3.941989428E0
2.423816723E0,1.575000048E0,-2.467050076E0,2.430000067E0,3.804189999E0
2.425780131E0,1.384050012E0,-2.428950071E0,2.506050110E0,3.754421398E0
2.427743490E0,1.230000019E0,-2.351999998E0,2.467950106E0,3.624304314E0
2.429706700E0,9.619500637E-1,-2.351999998E0,2.506050110E0,3.568968908E0
2.431669953E0,7.699500322E-1,-2.314050198E0,2.391000032E0,3.415337835E0
2.433632433E0,5.020500422E-1,-2.161050081E0,2.353049994E0,3.234043285E0
2.435595126E0,2.719500065E-1,-2.083950043E0,2.275950193E0,3.097862791E0
2.437558268E0,1.189500093E-1,-2.008050203E0,2.046000004E0,2.869238704E0
2.439521278E0,-3.299999982E-2,-1.930950046E0,1.893000126E0,2.704275606E0
2.441484592E0,-1.480500102E-1,-1.777950048E0,1.624950051E0,2.413190388E0
2.443447817E0,-1.870500147E-1,-1.624050021E0,1.471050024E0,2.199207665E0
2.445411208E0,-3.400500119E-1,-1.548000097E0,1.356000066E0,2.085827052E0
2.447374533E0,-4.549500346E-1,-1.393950105E0,1.240950108E0,1.920946016E0
2.449337793E0,-3.780000210E-1,-1.240950108E0,1.126049995E0,1.717797944E0
2.451301073E0,-4.549500346E-1,-1.126049995E0,1.011000037E0,1.580218087E0
2.453264250E0,-4.170000255E-1,-1.048950076E0,1.011000037E0,1.515356842E0
2.455227458E0,-4.549500346E-1,-8.959500194E-1,9.730500579E-1,1.398761018E0
2.457190927E0,-3.400500119E-1,-7.429500222E-1,9.730500579E-1,1.270604250E0
2.459154312E0,-3.780000210E-1,-7.039500475E-1,9.730500579E-1,1.259069538E0
2.461117518E0,-3.400500119E-1,-5.890500546E-1,9.349500537E-1,1.156177141E0
2.463080776E0,-3.400500119E-1,-4.740000367E-1,1.011000037E0,1.167232248E0
2.465044316E0,-3.019500077E-1,-4.740000367E-1,9.730500579E-1,1.123688683E0
2.467007774E0,-3.019500077E-1,-3.979500234E-1,1.011000037E0,1.127678635E0
2.468970821E0,-3.780000210E-1,-3.210000098E-1,1.050000072E0,1.161217108E0
2.470933996E0,-4.549500346E-1,-2.440500110E-1,1.126049995E0,1.238760887E0
2.472897596E0,-4.549500346E-1,-2.440500110E-1,1.165050030E0,1.274316096E0
2.474861071E0,-4.549500346E-1,-2.059500068E-1,1.165050030E0,1.267571107E0
2.476824397E0,-4.549500346E-1,-2.059500068E-1,1.279950023E0,1.373923943E0
2.478787766E0,-4.930500090E-1,-1.290000081E-1,1.279950023E0,1.377683336E0
2.480751308E0,-4.930500090E-1,-1.680000126E-1,1.356000066E0,1.452604039E0
2.482714817E0,-4.930500090E-1,-1.680000126E-1,1.432950020E0,1.524686222E0
2.484678181E0,-5.320500135E-1,-1.680000126E-1,1.432950020E0,1.537740869E0
2.486641588E0,-5.320500135E-1,-1.680000126E-1,1.471050024E0,1.573305245E0
2.488604833E0,-5.700000525E-1,-1.290000081E-1,1.471050024E0,1.582886362E0
2.490568126E0,-5.700000525E-1,-1.290000081E-1,1.471050024E0,1.582886362E0
2.492531706E0,-6.469500065E-1,-1.290000081E-1,1.471050024E0,1.612195238E0
2.494495201E0,-7.620000243E-1,-1.290000081E-1,1.432950020E0,1.628075796E0
2.496458388E0,-7.230000496E-1,-1.290000081E-1,1.471050024E0,1.644189237E0
2.498421665E0,-7.620000243E-1,-9.105000645E-2,1.471050024E0,1.659193272E0
2.500385067E0,-7.999500632E-1,-5.295000225E-2,1.432950020E0,1.641971244E0
2.502348432E0,-7.999500632E-1,-5.295000225E-2,1.432950020E0,1.641971244E0
2.504310699E0,-7.999500632E-1,-9.105000645E-2,1.395000100E0,1.610663058E0
2.506273285E0,-7.620000243E-1,-1.500000060E-2,1.395000100E0,1.589620809E0
2.508236445E0,-7.620000243E-1,-1.500000060E-2,1.318050027E0,1.522538968E0
2.510199437E0,-7.620000243E-1,6.105000153E-2,1.279950023E0,1.490853179E0
2.512162754E0,-6.850500107E-1,2.295000106E-2,1.318050027E0,1.485623133E0
2.514125976E0,-6.079500318E-1,2.295000106E-2,1.240950108E0,1.382059012E0
2.516089140E0,-4.930500090E-1,-1.500000060E-2,1.126049995E0,1.229354263E0
2.518052338E0,-3.780000210E-1,2.295000106E-2,1.126049995E0,1.188023279E0
2.520015934E0,-3.019500077E-1,-1.500000060E-2,1.165050030E0,1.203636315E0
2.521979413E0,-2.250000089E-1,-1.500000060E-2,1.087950110E0,1.111074006E0
2.523941927E0,-1.870500147E-1,2.295000106E-2,1.165050030E0,1.180193197E0
2.525904723E0,-1.480500102E-1,2.295000106E-2,1.087950110E0,1.098217169E0
2.527867676E0,-1.870500147E-1,9.900000691E-2,1.050000072E0,1.071115708E0
2.529830576E0,-1.870500147E-1,1.759500057E-1,1.011000037E0,1.043104591E0
2.531793683E0,-1.099500060E-1,2.140500098E-1,9.730500579E-1,1.002363619E0
2.533756730E0,-1.480500102E-1,2.530499995E-1,9.730500579E-1,1.016257607E0
2.535719947E0,-1.099500060E-1,3.289500177E-1,9.730500579E-1,1.033016715E0
2.537683114E0,-1.480500102E-1,4.060500264E-1,9.349500537E-1,1.030013122E0
2.539646616E0,-1.870500147E-1,4.830000103E-1,8.580000401E-1,1.002217934E0
2.541609995E0,-3.019500077E-1,5.590500236E-1,6.660000086E-1,9.204709378E-1
2.543574057E0,-3.400500119E-1,5.980500579E-1,4.750500321E-1,8.360445056E-1
2.545537918E0,-3.400500119E-1,6.360000372E-1,9.195000678E-2,7.270384183E-1
2.547500726E0,-2.629500031E-1,5.590500236E-1,-6.739500165E-1,9.142692479E-1
2.549463843E0,-1.870500147E-1,5.590500236E-1,-1.632000089E0,1.735208612E0
2.551427047E0,-7.200000435E-2,3.289500177E-1,-2.629050016E0,2.650527514E0
2.553390225E0,1.570500135E-1,9.900000691E-2,-3.664050102E0,3.668750313E0
2.555354772E0,3.490500152E-1,-2.059500068E-1,-4.774950027E0,4.792118434E0
2.557318918E0,5.790000558E-1,-5.509500504E-1,-5.848050117E0,5.902412829E0
2.559281813E0,6.169500351E-1,-1.048950076E0,-7.036050320E0,7.140513126E0
2.561245074E0,7.320000529E-1,-1.509000063E0,-8.530950546E0,8.694252267E0
2.563208083E0,6.550500393E-1,-1.930950046E0,-9.681000710E0,9.893403528E0
2.565171160E0,7.320000529E-1,-2.506050110E0,-1.002600002E1,1.036034689E1
2.567133696E0,6.550500393E-1,-3.004050255E0,-9.834000587E0,1.030344486E1
2.569096390E0,3.870000243E-1,-3.463950157E0,-9.451050758E0,1.007328547E1
2.571059712E0,4.050000105E-3,-3.847050190E0,-9.106050491E0,9.885341022E0
2.573022850E0,-3.019500077E-1,-4.269000053E0,-8.569950104E0,9.579122092E0
2.574985968E0,-5.320500135E-1,-4.729050159E0,-7.611000538E0,8.976320060E0
2.576949088E0,-7.230000496E-1,-5.112000465E0,-6.346950531E0,8.181629353E0
2.578912652E0,-9.529500604E-1,-5.494950294E0,-4.698000431E0,7.292036794E0
2.580876086E0,-1.336950064E0,-5.994000435E0,-3.049950123E0,6.856943374E0
2.582839508E0,-1.911000133E0,-6.874950409E0,-1.326000094E0,7.257764179E0
2.584802934E0,-2.524950027E0,-8.025000572E0,-1.369500011E-1,8.413962332E0
2.586765625E0,-3.100050211E0,-9.250950813E0,4.360500276E-1,9.766296222E0
2.588728507E0,-3.636000156E0,-1.066995049E1,9.349500537E-1,1.131116582E1
2.590692112E0,-4.173000336E0,-1.220295048E1,1.356000066E0,1.296783206E1
2.592655505E0,-4.747950077E0,-1.385100079E1,1.548000097E0,1.472377523E1
2.594619294E0,-5.629050255E0,-1.576695061E1,2.008050203E0,1.686164891E1
2.596582967E0,-6.702000141E0,-1.791300011E1,2.620950222E0,1.930444920E1
2.598546092E0,-7.660950184E0,-2.009805107E1,3.234000206E0,2.175041544E1
2.600509367E0,-8.464950562E0,-2.239800072E1,3.579000235E0,2.421022649E1
2.602472410E0,-9.193950653E0,-2.500395203E1,4.078050137E0,2.695100812E1
2.604435521E0,-9.769050598E0,-2.776395226E1,4.690950394E0,2.980396635E1
2.606398952E0,-9.922050476E0,-3.079200172E1,5.572050095E0,3.282746104E1
2.608362289E0,-9.769050598E0,-3.378105164E1,6.646050453E0,3.578776028E1
2.610325896E0,-9.040050507E0,-3.680895233E1,7.948950291E0,3.872734558E1
2.612289399E0,-8.082000732E0,-3.952995300E1,8.446949959E0,4.122240755E1
2.614252810E0,-6.396000385E0,-4.202205276E1,8.217000008E0,4.329296512E1
2.616216248E0,-4.249050140E0,-4.443600082E1,7.795050144E0,4.531418545E1
2.618179758E0,-2.103000164E0,-4.669800186E1,7.297050476E0,4.731144611E1
2.620143246E0,5.020500422E-1,-4.888200378E1,6.415950298E0,4.930382101E1
2.622107720E0,2.992950201E0,-5.076000214E1,4.498950005E0,5.104680322E1
2.624071919E0,5.791050434E0,-5.256195068E1,2.353049994E0,5.293233198E1
2.626036426E0,8.473950386E0,-5.413305283E1,-3.289500177E-1,5.479327925E1
2.628000842E0,1.134900093E1,-5.547495270E1,-3.433950186E0,5.672796676E1
2.629964051E0,1.395495033E1,-5.627895355E1,-5.656950474E0,5.825858169E1
2.631927613E0,1.621605110E1,-5.650905228E1,-7.534950256E0,5.927064010E1
2.633891243E0,1.798005104E1,-5.608800125E1,-8.493000031E0,5.950863105E1
2.635854880E0,1.916805077E1,-5.478495407E1,-8.646000862E0,5.868184296E1
2.637818087E0,2.031795120E1,-5.252295303E1,-8.646000862E0,5.697572349E1
2.639781420E0,2.035605049E1,-4.918905258E1,-8.340000153E0,5.388401700E1
2.641745128E0,1.909095001E1,-4.524105072E1,-7.228050232E0,4.963327264E1
2.643708726E0,1.660004997E1,-4.125495148E1,-5.848050117E0,4.485233963E1
2.645671930E0,1.353405094E1,-3.757605362E1,-4.507050037E0,4.019258440E1
2.647635257E0,1.054395008E1,-3.427905273E1,-3.280050039E0,3.601370667E1
2.649598650E0,7.899000168E0,-3.140505219E1,-2.359950066E0,3.246907561E1
2.651562024E0,5.446050167E0,-2.891400146E1,-1.977000117E0,2.948876858E1
2.653525410E0,3.376950264E0,-2.680500221E1,-1.824000120E0,2.707838461E1
2.655488793E0,1.920000076E0,-2.511900139E1,-1.824000120E0,2.525821861E1
2.657451293E0,1.153950095E0,-2.385405159E1,-1.861950040E0,2.395441997E1
2.659414041E0,3.490500152E-1,-2.285805130E1,-2.014950037E0,2.294934354E1
2.661377128E0,-2.629500031E-1,-2.220600128E1,-2.206950188E0,2.231695017E1
2.663340116E0,-4.170000255E-1,-2.193795013E1,-2.398950100E0,2.207266424E1
2.665303569E0,-3.780000210E-1,-2.182305145E1,-2.704950094E0,2.199329929E1
2.667266885E0,-1.099500060E-1,-2.193795013E1,-2.820000172E0,2.211872840E1
2.669231197E0,2.340000123E-1,-2.205300140E1,-2.782050133E0,2.222902224E1
2.671195207E0,6.169500351E-1,-2.228295135E1,-2.437050104E0,2.242431184E1
2.673158891E0,8.470500112E-1,-2.258895111E1,-1.977000117E0,2.269111578E1
2.675122670E0,1.039050102E0,-2.281905174E1,-1.594050050E0,2.289824760E1
2.677085807E0,1.077000022E0,-2.293395042E1,-1.210950017E0,2.299113766E1
2.679049132E0,1.000050068E0,-2.301105118E1,-9.420000315E-1,2.305202682E1
2.681012817E0,8.850000501E-1,-2.297295189E1,-7.120500207E-1,2.300101647E1
2.682976414E0,7.699500322E-1,-2.278095055E1,-5.590500236E-1,2.280081288E1
2.684939087E0,5.790000558E-1,-2.255100060E1,-4.060500264E-1,2.256208646E1
2.686902031E0,4.639500082E-1,-2.232105064E1,-2.520000041E-1,2.232729396E1
2.688865625E0,3.870000243E-1,-2.212995148E1,-2.520000041E-1,2.213476960E1
2.690829029E0,3.490500152E-1,-2.201505089E1,-2.140500098E-1,2.201885826E1
2.692792441E0,2.340000123E-1,-2.190000153E1,-6.105000153E-2,2.190133672E1
2.694755861E0,1.189500093E-1,-2.182305145E1,-1.369500011E-1,2.182380533E1
2.696719240E0,-3.299999982E-2,-2.178495026E1,-2.140500098E-1,2.178602681E1
2.698682632E0,-1.870500147E-1,-2.178495026E1,-3.289500177E-1,2.178823659E1
2.700645971E0,-4.930500090E-1,-2.174595070E1,-4.819500148E-1,2.175687813E1
2.702609325E0,-6.469500065E-1,-2.182305145E1,-5.970000029E-1,2.184079962E1
2.704572738E0,-6.850500107E-1,-2.190000153E1,-6.360000372E-1,2.191994198E1
2.706536116E0,-6.850500107E-1,-2.197605133E1,-5.590500236E-1,2.199383237E1
2.708499727E0,-7.620000243E-1,-2.197605133E1,-4.819500148E-1,2.199453914E1
2.710463270E0,-6.850500107E-1,-2.190000153E1,-3.670500219E-1,2.191378758E1
2.712426764E0,-6.850500107E-1,-2.182305145E1,-1.759500057E-1,2.183450999E1
2.714390272E0,-7.620000243E-1,-2.178495026E1,-6.105000153E-2,2.179835840E1
2.716353800E0,-7.230000496E-1,-2.167005157E1,5.295000225E-2,2.168217397E1
2.718317332E0,-7.620000243E-1,-2.132505035E1,1.680000126E-1,2.133932147E1
2.720279836E0,-7.999500632E-1,-2.101800156E1,3.220500052E-1,2.103568458E1
2.722242641E0,-6.850500107E-1,-2.067300034E1,4.360500276E-1,2.068894333E1
2.724206800E0,-6.850500107E-1,-2.032800102E1,5.509500504E-1,2.034700138E1
2.726170563E0,-4.930500090E-1,-1.990695000E1,7.050000429E-1,1.992553090E1
2.728134225E0,-7.200000435E-2,-1.960005188E1,1.050000072E0,1.962828871E1
2.730097930E0,1.960500032E-1,-1.925505066E1,1.165050030E0,1.929126105E1
2.732062160E0,4.639500082E-1,-1.887195015E1,1.165050030E0,1.891356903E1
2.734026236E0,6.550500393E-1,-1.845000076E1,1.279950023E0,1.850594204E1
2.735989323E0,7.699500322E-1,-1.791300011E1,1.318050027E0,1.797792123E1
2.737952699E0,9.240000248E-1,-1.741500092E1,1.318050027E0,1.748923351E1
2.739915584E0,1.039050102E0,-1.687905121E1,1.432950020E0,1.697160395E1
2.741878617E0,9.619500637E-1,-1.618905067E1,1.471050024E0,1.628418551E1
2.743842061E0,1.114950061E0,-1.569000053E1,1.471050024E0,1.579820302E1
2.745805385E0,1.269000053E0,-1.515405083E1,1.471050024E0,1.527807598E1
2.747768780E0,1.384050012E0,-1.469400024E1,1.318050027E0,1.481777627E1
2.749732154E0,1.459950089E0,-1.423395061E1,1.318050027E0,1.436920528E1
2.751695516E0,1.345050097E0,-1.365900040E1,1.240950108E0,1.378105253E1
2.753658868E0,1.345050097E0,-1.316100025E1,1.203000069E0,1.328413703E1
2.755621762E0,1.306950092E0,-1.266300106E1,1.165050030E0,1.278346807E1
2.757584791E0,1.192050099E0,-1.212600040E1,1.011000037E0,1.222632366E1
2.759548191E0,1.077000022E0,-1.151295090E1,7.050000429E-1,1.158468785E1
2.761511482E0,1.000050068E0,-1.097595024E1,6.660000086E-1,1.104151891E1
2.763474563E0,1.000050068E0,-1.047795010E1,5.509500504E-1,1.053997554E1
2.765437709E0,1.000050068E0,-1.009500027E1,4.360500276E-1,1.015378108E1
2.767401854E0,1.000050068E0,-9.595950127E0,2.449500114E-1,9.651028934E0
2.769365707E0,1.039050102E0,-9.136050224E0,9.195000678E-2,9.195406115E0
2.771328968E0,1.039050102E0,-8.677050591E0,-9.900000691E-2,8.739601425E0
2.773292402E0,1.153950095E0,-8.217000008E0,-2.140500098E-1,8.300392000E0
2.775255773E0,1.114950061E0,-7.717950344E0,-4.060500264E-1,7.808632901E0
2.777219166E0,1.230000019E0,-7.182000160E0,-5.970000029E-1,7.310980464E0
2.779182369E0,1.306950092E0,-6.721950531E0,-6.739500165E-1,6.880911721E0
2.781145628E0,1.306950092E0,-6.223950386E0,-7.510500550E-1,6.403885784E0
2.783108718E0,1.384050012E0,-5.686950207E0,-8.269500136E-1,5.911078025E0
2.785071858E0,1.651950121E0,-5.188950062E0,-6.739500165E-1,5.487107669E0
2.787035053E0,1.729050040E0,-4.651950359E0,-5.209500194E-1,4.990154818E0
2.788998236E0,1.729050040E0,-4.192049980E0,-5.209500194E-1,4.564459004E0
2.790961341E0,1.804950118E0,-3.732000113E0,-5.209500194E-1,4.178164512E0
2.792924469E0,1.767000079E0,-3.310950041E0,-4.440000355E-1,3.779128932E0
2.794887671E0,1.690050125E0,-2.926950216E0,-4.440000355E-1,3.408877092E0
2.796850851E0,1.767000079E0,-2.581950188E0,-3.670500219E-1,3.150155833E0
2.798814122E0,1.804950118E0,-2.238000154E0,-2.140500098E-1,2.883107183E0
2.800777376E0,1.882050037E0,-1.930950046E0,1.500000060E-2,2.696461648E0
2.802739703E0,1.996950150E0,-1.701000094E0,2.449500114E-1,2.634617947E0
2.804702301E0,2.149950027E0,-1.432950020E0,6.280500293E-1,2.658961775E0
2.806665594E0,2.304000139E0,-1.240950108E0,1.011000037E0,2.805440230E0
2.808628684E0,2.380050182E0,-1.011000037E0,1.279950023E0,2.885313156E0
2.810592138E0,2.533950090E0,-7.429500222E-1,1.510050058E0,3.041895622E0
2.812555472E0,2.649000168E0,-5.890500546E-1,1.740000129E0,3.223628748E0
2.814519046E0,2.686950207E0,-4.740000367E-1,1.969950080E0,3.365275734E0
2.816482549E0,2.764050245E0,-3.210000098E-1,2.161050081E0,3.523230367E0
2.818445599E0,2.839950085E0,-1.680000126E-1,2.391000032E0,3.716237565E0
2.820408781E0,2.992950201E0,-1.290000081E-1,2.506050110E0,3.905723884E0
2.822371078E0,2.992950201E0,-1.500000060E-2,2.506050110E0,3.903621787E0
2.824333632E0,3.108000040E0,6.105000153E-2,2.545050144E0,4.017545468E0
2.826296842E0,3.108000040E0,2.140500098E-1,2.659050226E0,4.095855193E0
2.828259860E0,3.184950113E0,3.289500177E-1,2.430000067E0,4.019579040E0
2.830223263E0,3.070050240E0,5.209500194E-1,2.314950228E0,3.880153599E0
2.832186553E0,3.031950235E0,5.980500579E-1,2.161050081E0,3.771010946E0
2.834149990E0,3.031950235E0,7.510500550E-1,1.930950046E0,3.672242706E0
2.836113390E0,2.917050123E0,9.430500269E-1,1.701000094E0,3.505984326E0
2.838076728E0,2.917050123E0,1.018950105E0,1.510050058E0,3.439141160E0
2.840040084E0,2.725050211E0,1.173000097E0,1.432950020E0,3.294719053E0
2.842003653E0,2.686950207E0,1.249050021E0,1.165050030E0,3.183892106E0
2.843967159E0,2.610000134E0,1.326000094E0,8.200500607E-1,3.040207073E0
2.845931600E0,2.533950090E0,1.402950048E0,3.979500234E-1,2.923616959E0
2.847895770E0,2.572050095E0,1.479000092E0,2.070000172E-1,2.974177528E0
2.849858885E0,2.610000134E0,1.479000092E0,-6.105000153E-2,3.000544796E0
2.851822310E0,2.610000134E0,1.518000126E0,-2.910000086E-1,3.033332505E0
2.853785867E0,2.572050095E0,1.518000126E0,-5.970000029E-1,3.045681381E0
2.855749385E0,2.610000134E0,1.594050050E0,-8.659500480E-1,3.178516280E0
2.857712717E0,2.572050095E0,1.555950046E0,-1.057050109E0,3.186499202E0
2.859676093E0,2.649000168E0,1.555950046E0,-1.287000060E0,3.330848479E0
2.861639523E0,2.686950207E0,1.633050084E0,-1.516950130E0,3.491087465E0
2.863602937E0,2.725050211E0,1.633050084E0,-1.824000120E0,3.663294647E0
2.865566273E0,2.764050245E0,1.633050084E0,-2.092050076E0,3.831905512E0
2.867529632E0,2.802000046E0,1.633050084E0,-2.437050104E0,4.056756099E0
2.869492876E0,2.878050089E0,1.708950043E0,-2.782050133E0,4.352411458E0
2.871456161E0,2.955000162E0,1.708950043E0,-3.088950157E0,4.603710382E0
2.873419922E0,2.992950201E0,1.671000123E0,-3.472050190E0,4.879049584E0
2.875383544E0,3.070050240E0,1.747950077E0,-3.702000141E0,5.117161615E0
2.877346889E0,3.184950113E0,1.708950043E0,-3.894000292E0,5.312970520E0
2.879310315E0,3.300000191E0,1.708950043E0,-4.162050247E0,5.579710904E0
2.881273618E0,3.453000069E0,1.747950077E0,-4.276950359E0,5.768088359E0
2.883236978E0,3.568050146E0,1.671000123E0,-4.507050037E0,5.986378145E0
2.885200187E0,3.721950293E0,1.671000123E0,-4.545000076E0,6.107551153E0
2.887163440E0,3.952050209E0,1.594050050E0,-4.582950115E0,6.258045076E0
2.889126487E0,4.066950321E0,1.555950046E0,-4.545000076E0,6.294290361E0
2.891089594E0,4.219950199E0,1.402950048E0,-4.429950237E0,6.276998297E0
2.893052885E0,4.372950077E0,1.249050021E0,-4.200000286E0,6.190542847E0
2.895016125E0,4.527000427E0,1.057950020E0,-3.970050097E0,6.113451470E0
2.896979175E0,4.680000305E0,9.430500269E-1,-3.702000141E0,6.041237560E0
2.898942281E0,4.833000183E0,6.739500165E-1,-3.357000113E0,5.922967934E0
2.900905893E0,4.948050022E0,3.289500177E-1,-3.049950123E0,5.821821269E0
2.902869356E0,4.948050022E0,-1.500000060E-2,-2.743950129E0,5.657975462E0
2.904833273E0,4.756950378E0,-2.059500068E-1,-2.359950066E0,5.314165656E0
2.906797053E0,4.642050266E0,-5.130000114E-1,-2.053950071E0,5.102010445E0
2.908760010E0,4.450050354E0,-8.190000653E-1,-1.786050081E0,4.864533292E0
2.910723209E0,4.258049965E0,-1.087950110E0,-1.363950014E0,4.601628471E0
2.912686400E0,4.066950321E0,-1.356000066E0,-1.057050109E0,4.415447432E0
2.914649594E0,3.874950171E0,-1.509000063E0,-8.269500136E-1,4.239830933E0
2.916612680E0,3.721950293E0,-1.663050056E0,-5.209500194E-1,4.109749188E0
2.918575777E0,3.492000103E0,-1.854000092E0,-2.140500098E-1,3.959444212E0
2.920538895E0,3.300000191E0,-1.969050050E0,5.295000225E-2,3.843170964E0
2.922502006E0,3.147000074E0,-2.046000004E0,2.449500114E-1,3.761612153E0
2.924464537E0,2.917050123E0,-2.122950077E0,4.750500321E-1,3.638924427E0
2.926427238E0,2.725050211E0,-2.199000120E0,6.660000086E-1,3.564415267E0
2.928390694E0,2.533950090E0,-2.238000154E0,8.200500607E-1,3.478797185E0
2.930353929E0,2.265000105E0,-2.238000154E0,8.959500194E-1,3.307808429E0
2.932317204E0,2.035050154E0,-2.238000154E0,1.011000037E0,3.189387856E0
2.934280467E0,1.843950033E0,-2.199000120E0,9.730500579E-1,3.030277160E0
2.936243872E0,1.651950121E0,-2.275950193E0,1.050000072E0,3.001897506E0
2.938207236E0,1.459950089E0,-2.314050198E0,1.126049995E0,2.958761763E0
2.940170601E0,1.306950092E0,-2.275950193E0,1.240950108E0,2.903106095E0
2.942133982E0,1.230000019E0,-2.275950193E0,1.318050027E0,2.903464345E0
2.944097547E0,1.039050102E0,-2.238000154E0,1.395000100E0,2.834483213E0
2.946061058E0,8.850000501E-1,-2.238000154E0,1.471050024E0,2.820613046E0
2.948023476E0,6.550500393E-1,-2.199000120E0,1.471050024E0,2.725560540E0
2.949986214E0,5.020500422E-1,-2.161050081E0,1.548000097E0,2.705271890E0
2.951949569E0,3.490500152E-1,-2.083950043E0,1.585950017E0,2.641954040E0
2.953912746E0,1.960500032E-1,-2.046000004E0,1.548000097E0,2.573102392E0
2.955875986E0,8.100000024E-2,-2.008050203E0,1.663050056E0,2.608555559E0
2.957839207E0,-3.299999982E-2,-1.969050050E0,1.624950051E0,2.553176407E0
2.959802575E0,-1.480500102E-1,-1.854000092E0,1.663050056E0,2.494989105E0
2.961765900E0,-3.019500077E-1,-1.777950048E0,1.663050056E0,2.453164419E0
2.963729310E0,-3.019500077E-1,-1.738950133E0,1.548000097E0,2.347642578E0
2.965692716E0,-4.549500346E-1,-1.624050021E0,1.548000097E0,2.289284235E0
2.967656098E0,-4.930500090E-1,-1.585950017E0,1.471050024E0,2.218631096E0
2.969619487E0,-4.930500090E-1,-1.548000097E0,1.356000066E0,2.116161334E0
2.971583005E0,-4.170000255E-1,-1.432950020E0,1.279950023E0,1.966089225E0
2.973546485E0,-4.549500346E-1,-1.432950020E0,1.203000069E0,1.925495899E0
2.975509873E0,-4.170000255E-1,-1.393950105E0,1.240950108E0,1.912313543E0
2.977473275E0,-4.930500090E-1,-1.318050027E0,1.203000069E0,1.851367967E0
2.979436522E0,-4.549500346E-1,-1.240950108E0,1.279950023E0,1.839893683E0
2.981399814E0,-4.170000255E-1,-1.164000034E0,1.318050027E0,1.807219127E0
2.983363349E0,-4.170000255E-1,-1.126049995E0,1.356000066E0,1.811246475E0
2.985326812E0,-3.780000210E-1,-9.340500236E-1,1.395000100E0,1.720859884E0
2.987290203E0,-3.780000210E-1,-8.959500194E-1,1.432950020E0,1.731749466E0
2.989253602E0,-3.780000210E-1,-7.810500264E-1,1.432950020E0,1.675192204E0
2.991217163E0,-3.400500119E-1,-6.660000086E-1,1.471050024E0,1.650205501E0
2.993180677E0,-3.019500077E-1,-5.890500546E-1,1.432950020E0,1.578448458E0
2.995144040E0,-3.019500077E-1,-5.130000114E-1,1.510050058E0,1.623143246E0
2.997107448E0,-2.250000089E-1,-4.740000367E-1,1.510050058E0,1.598609464E0
2.999070685E0,-2.629500031E-1,-3.589500189E-1,1.471050024E0,1.536872146E0
3.001033978E0,-1.480500102E-1,-3.210000098E-1,1.471050024E0,1.512926960E0
3.002997512E0,-1.480500102E-1,-3.210000098E-1,1.432950020E0,1.475908388E0
3.004960976E0,-1.480500102E-1,-2.830500007E-1,1.395000100E0,1.431104953E0
3.006924393E0,-1.099500060E-1,-2.059500068E-1,1.395000100E0,1.414400823E0
3.008887824E0,-1.099500060E-1,-2.440500110E-1,1.279950023E0,1.307639657E0
3.010851219E0,-3.299999982E-2,-2.059500068E-1,1.203000069E0,1.220947816E0
3.012814612E0,-3.299999982E-2,-1.680000126E-1,1.087950110E0,1.101339388E0
3.014778174E0,8.100000024E-2,-1.680000126E-1,1.011000037E0,1.028059375E0
3.016741687E0,1.189500093E-1,-1.680000126E-1,8.200500607E-1,8.454911065E-1
3.018705365E0,1.189500093E-1,-1.680000126E-1,7.429500222E-1,7.709395855E-1
3.020668995E0,1.189500093E-1,-1.290000081E-1,6.280500293E-1,6.521019446E-1
3.022632514E0,1.189500093E-1,-1.290000081E-1,5.899500251E-1,6.154925986E-1
3.024596069E0,1.189500093E-1,-1.290000081E-1,4.750500321E-1,5.064214054E-1
3.026559605E0,1.570500135E-1,-1.290000081E-1,4.750500321E-1,5.166993728E-1
3.028523146E0,1.570500135E-1,-1.290000081E-1,3.979500234E-1,4.468444136E-1
3.030486504E0,2.340000123E-1,-1.290000081E-1,4.360500276E-1,5.114065256E-1
3.032449915E0,1.570500135E-1,-1.290000081E-1,3.220500052E-1,3.808174296E-1
3.034413509E0,1.570500135E-1,-9.105000645E-2,2.449500114E-1,3.048857466E-1
3.036377057E0,1.570500135E-1,-5.295000225E-2,1.680000126E-1,2.359924019E-1
3.038340729E0,1.570500135E-1,-9.105000645E-2,9.195000678E-2,2.034935237E-1
3.040304364E0,1.960500032E-1,-1.500000060E-2,-9.900000691E-2,2.201399671E-1
3.042267167E0,2.719500065E-1,2.295000106E-2,-3.289500177E-1,4.274244058E-1
3.044230213E0,3.109500110E-1,2.295000106E-2,-6.739500165E-1,7.425801214E-1
3.046194352E0,5.410500169E-1,2.295000106E-2,-1.134000063E0,1.256669394E0
3.048158187E0,6.550500393E-1,2.295000106E-2,-1.747050047E0,1.865958500E0
3.050121676E0,8.089500666E-1,9.900000691E-2,-2.590050220E0,2.715246095E0
3.052085266E0,9.619500637E-1,2.295000106E-2,-3.280050039E0,3.418274841E0
3.054049380E0,1.153950095E0,-9.105000645E-2,-4.009050369E0,4.172813893E0
3.056013340E0,1.269000053E0,-1.680000126E-1,-4.545000076E0,4.721822830E0
3.057976656E0,1.306950092E0,-2.830500007E-1,-4.852050304E0,5.032954202E0
3.059940141E0,1.384050012E0,-5.890500546E-1,-5.082000256E0,5.299934056E0
3.061903463E0,1.459950089E0,-8.580000401E-1,-5.082000256E0,5.356710271E0
3.063866833E0,1.384050012E0,-1.279050112E0,-4.890000343E0,5.240578878E0
3.065830264E0,1.345050097E0,-1.585950017E0,-4.660050392E0,5.102986074E0
3.067793677E0,1.306950092E0,-1.893000126E0,-4.392000198E0,4.957946527E0
3.069757261E0,1.269000053E0,-2.238000154E0,-4.315050125E0,5.023809651E0
3.071720778E0,1.306950092E0,-2.544000149E0,-4.315050125E0,5.176843911E0
3.073684276E0,1.153950095E0,-2.889000177E0,-4.392000198E0,5.382154642E0
3.075647780E0,1.077000022E0,-3.271950245E0,-4.353000164E0,5.551053763E0
3.077611323E0,1.000050068E0,-3.655950069E0,-4.353000164E0,5.771887168E0
3.079574855E0,9.240000248E-1,-4.153950214E0,-4.353000164E0,6.087502678E0
3.081537486E0,7.320000529E-1,-4.651950359E0,-4.200000286E0,6.310029210E0
3.083500387E0,3.870000243E-1,-5.112000465E0,-3.970050097E0,6.484104838E0
3.085463673E0,8.100000024E-2,-5.725050449E0,-3.510000229E0,6.715866679E0
3.087426846E0,-2.629500031E-1,-6.223950386E0,-3.049950123E0,6.936057732E0
3.089390312E0,-8.770500422E-1,-6.952050209E0,-2.551950216E0,7.457390213E0
3.091353692E0,-1.452000022E0,-7.833000183E0,-1.900950074E0,8.190104219E0
3.093317014E0,-2.103000164E0,-8.944950104E0,-9.810000658E-1,9.241055306E0
3.095280367E0,-2.640000105E0,-9.979950905E0,-3.670500219E-1,1.032975055E1
3.097242495E0,-3.061050177E0,-1.097595024E1,1.300500035E-1,1.139554408E1
3.099204982E0,-3.330000162E0,-1.212600040E1,5.130000114E-1,1.258538660E1
3.101168519E0,-3.636000156E0,-1.346700096E1,8.200500607E-1,1.397329933E1
3.103131749E0,-3.904950142E0,-1.488600063E1,1.240950108E0,1.543961164E1
3.105095367E0,-4.018949986E0,-1.638000107E1,1.471050024E0,1.692986657E1
3.107058884E0,-4.210950375E0,-1.822005081E1,1.701000094E0,1.877753328E1
3.109022426E0,-4.326000214E0,-2.017500114E1,2.200050116E0,2.075054625E1
3.110985961E0,-4.518000126E0,-2.224500084E1,2.851050138E0,2.287751897E1
3.112949636E0,-4.633050442E0,-2.427600098E1,3.426000118E0,2.495048810E1
3.114913269E0,-4.555950165E0,-2.626905060E1,3.924000263E0,2.694842258E1
3.116876631E0,-4.173000336E0,-2.826195145E1,4.423050404E0,2.890873927E1
3.118840059E0,-3.790050268E0,-3.010200119E1,4.461000443E0,3.066586835E1
3.120803301E0,-3.520950079E0,-3.167295074E1,4.461000443E0,3.217877287E1
3.122766597E0,-3.138000250E0,-3.324495316E1,3.924000263E0,3.362248852E1
3.124729951E0,-2.640000105E0,-3.485400009E1,3.043050051E0,3.508605245E1
3.126693288E0,-2.065050125E0,-3.646395111E1,2.085000038E0,3.658184506E1
3.128657442E0,-1.489950061E0,-3.803505325E1,1.126049995E0,3.808087730E1
3.130621360E0,-7.620000243E-1,-3.972195053E1,-2.205000073E-2,3.972926483E1
3.132585374E0,-7.200000435E-2,-4.133205032E1,-1.326000094E0,4.135337766E1
3.134549360E0,6.550500393E-1,-4.278795242E1,-3.049950123E0,4.290151698E1
3.136512778E0,1.614000082E0,-4.428300095E1,-4.927950382E0,4.458557910E1
3.138476362E0,2.649000168E0,-4.543305206E1,-6.844950199E0,4.602208997E1
3.140439698E0,3.913050175E0,-4.639095306E1,-8.493000031E0,4.732402706E1
3.142403117E0,5.370000362E0,-4.692705154E1,-9.681000710E0,4.821521384E1
3.144366495E0,6.940950394E0,-4.708095169E1,-9.757950783E0,4.857993833E1
3.146329886E0,8.359050751E0,-4.700400162E1,-8.493000031E0,4.849103986E1
3.148293494E0,9.471000671E0,-4.646805191E1,-6.576000214E0,4.787717077E1
3.150257038E0,1.039095020E1,-4.581600189E1,-4.276950359E0,4.717382940E1
3.152220596E0,1.123395061E1,-4.459005356E1,-1.977000117E0,4.602589545E1
3.154184136E0,1.173195076E1,-4.290300369E1,-6.105000153E-2,4.447819827E1
3.156146773E0,1.157895088E1,-4.090995026E1,1.356000066E0,4.253862797E1
3.158109674E0,1.104195023E1,-3.899400330E1,2.353049994E0,4.059548992E1
3.160073141E0,1.085100079E1,-3.746100235E1,2.467950106E0,3.907891622E1
3.162036442E0,1.000695038E1,-3.577395248E1,1.816050053E0,3.719156853E1
3.164000683E0,8.896050453E0,-3.408795166E1,1.126049995E0,3.524764036E1
3.165964658E0,8.014050484E0,-3.251595306E1,-2.205000073E-2,3.348899364E1
3.167927988E0,6.787950516E0,-3.082995224E1,-1.479000092E0,3.160300094E1
3.169891507E0,5.293050289E0,-2.944995117E1,-2.704950094E0,3.004384730E1
3.171854823E0,3.837000132E0,-2.822400093E1,-3.433950186E0,2.868987299E1
3.173818199E0,3.031950235E0,-2.734200096E1,-3.510000229E0,2.773261330E1
3.175781930E0,2.572050095E0,-2.661405182E1,-3.088950157E0,2.691588395E1
3.177745567E0,2.572050095E0,-2.611605072E1,-2.359950066E0,2.634829997E1
3.179708954E0,2.494950056E0,-2.554095078E1,-1.479000092E0,2.570510423E1
3.181672415E0,2.380050182E0,-2.515695190E1,-4.060500264E-1,2.527254923E1
3.183635201E0,2.265000105E0,-2.477400208E1,5.130000114E-1,2.488261589E1
3.185598184E0,2.149950027E0,-2.446800041E1,1.318050027E0,2.459761340E1
3.187561492E0,1.920000076E0,-2.416095161E1,1.777950048E0,2.430224454E1
3.189524711E0,1.729050040E0,-2.396895027E1,2.200050116E0,2.413173039E1
3.191487900E0,1.498950124E0,-2.373900032E1,2.545050144E0,2.392204565E1
3.193451098E0,1.345050097E0,-2.350905037E1,2.812950134E0,2.371491719E1
3.195414199E0,1.306950092E0,-2.335605049E1,2.928000212E0,2.357512245E1
3.197377329E0,1.306950092E0,-2.327895164E1,3.118950129E0,2.352329820E1
3.199340411E0,1.306950092E0,-2.320305061E1,3.196050167E0,2.345856801E1
3.201303497E0,1.192050099E0,-2.324100113E1,3.273000240E0,2.350058824E1
3.203266572E0,9.619500637E-1,-2.312595177E1,3.234000206E0,2.337078840E1
3.205229650E0,6.169500351E-1,-2.293395042E1,3.081000090E0,2.314820233E1
3.207192321E0,2.719500065E-1,-2.274300194E1,2.965950251E0,2.293719588E1
3.209155112E0,4.200000316E-2,-2.251305199E1,2.851050138E0,2.269290111E1
3.211118611E0,-7.200000435E-2,-2.228295135E1,2.812950134E0,2.245991526E1
3.213081893E0,-2.629500031E-1,-2.205300140E1,2.889000177E0,2.224298396E1
3.215045340E0,-4.549500346E-1,-2.174595070E1,2.965950251E0,2.195199791E1
3.217008739E0,-5.700000525E-1,-2.147805023E1,2.965950251E0,2.168936151E1
3.218971897E0,-7.620000243E-1,-2.117100143E1,2.851050138E0,2.137569724E1
3.220935126E0,-7.999500632E-1,-2.090295029E1,2.698050022E0,2.109153206E1
3.222898758E0,-7.620000243E-1,-2.071095085E1,2.545050144E0,2.088064677E1
3.224862274E0,-7.230000496E-1,-2.055795097E1,2.314950228E0,2.070050898E1
3.226825412E0,-6.469500065E-1,-2.032800102E1,2.353049994E0,2.047395942E1
3.228788661E0,-4.930500090E-1,-2.005995178E1,2.391000032E0,2.020795994E1
3.230752068E0,-3.400500119E-1,-1.979205132E1,2.391000032E0,1.993885178E1
3.232715428E0,-3.400500119E-1,-1.948500061E1,2.467950106E0,1.964361628E1
3.234678876E0,-3.019500077E-1,-1.921695137E1,2.506050110E0,1.938201953E1
3.236642288E0,-3.400500119E-1,-1.879500008E1,2.545050144E0,1.896957939E1
3.238605444E0,-3.780000210E-1,-1.845000076E1,2.506050110E0,1.862325695E1
3.240568675E0,-4.170000255E-1,-1.802805138E1,2.467950106E0,1.820096984E1
3.242532085E0,-3.780000210E-1,-1.760700035E1,2.314950228E0,1.776255443E1
3.244495442E0,-3.019500077E-1,-1.729995155E1,2.200050116E0,1.744189548E1
3.246459002E0,-1.870500147E-1,-1.695495033E1,2.161050081E0,1.709314090E1
3.248422509E0,-2.250000089E-1,-1.657200050E1,2.085000038E0,1.670416268E1
3.250385874E0,-3.299999982E-2,-1.615005112E1,1.816050053E0,1.625186998E1
3.252349280E0,8.100000024E-2,-1.576695061E1,1.548000097E0,1.584296679E1
3.254312346E0,1.960500032E-1,-1.530705070E1,1.432950020E0,1.537522626E1
3.256275511E0,3.109500110E-1,-1.492395115E1,1.279950023E0,1.498196515E1
3.258238726E0,4.639500082E-1,-1.446405029E1,9.730500579E-1,1.450416585E1
3.260201912E0,4.639500082E-1,-1.392705059E1,5.509500504E-1,1.394566362E1
3.262166773E0,5.790000558E-1,-1.342905045E1,1.680000126E-1,1.344257642E1
3.264131143E0,8.470500112E-1,-1.293105030E1,-1.759500057E-1,1.295995810E1
3.266094359E0,1.000050068E0,-1.247100067E1,-6.739500165E-1,1.252917262E1
3.268057914E0,1.230000019E0,-1.204905033E1,-1.018950105E0,1.215445487E1
3.270020765E0,1.384050012E0,-1.162800026E1,-1.210950017E0,1.177252668E1
