"Time (s)","Acceleration x (m/s^2)","Acceleration y (m/s^2)","Acceleration z (m/s^2)","Absolute acceleration (m/s^2)"
3.396400900E-2,3.682950258E0,-1.393950105E0,-2.935050249E0,4.911388751E0
3.592611900E-2,3.568050146E0,-1.701000094E0,-2.514000177E0,4.684504249E0
3.789077800E-2,3.492000103E0,-1.930950046E0,-2.169000149E0,4.541717125E0
3.985394400E-2,3.337950230E0,-2.161050081E0,-1.861950040E0,4.390775232E0
4.181754700E-2,3.184950113E0,-2.351999998E0,-1.516950130E0,4.239923220E0
4.378105400E-2,3.031950235E0,-2.506050110E0,-1.134000063E0,4.093771553E0
4.574460400E-2,2.878050089E0,-2.659050226E0,-6.360000372E-1,3.969662009E0
4.770796000E-2,2.686950207E0,-2.736000061E0,-2.520000041E-1,3.843032884E0
4.967137300E-2,2.494950056E0,-2.736000061E0,5.295000225E-2,3.703144045E0
5.163344600E-2,2.265000105E0,-2.773950100E0,4.360500276E-1,3.607653567E0
5.359591200E-2,2.074050188E0,-2.851050138E0,8.200500607E-1,3.619758718E0
5.555928800E-2,1.882050037E0,-2.812050104E0,1.126049995E0,3.566192188E0
5.752241800E-2,1.651950121E0,-2.812050104E0,1.432950020E0,3.562290099E0
5.948584600E-2,1.498950124E0,-2.773950100E0,1.585950017E0,3.529431695E0
6.144918700E-2,1.345050097E0,-2.697000027E0,1.740000129E0,3.480024332E0
6.341204000E-2,1.306950092E0,-2.659050226E0,1.930950046E0,3.536556903E0
6.537503600E-2,1.114950061E0,-2.581950188E0,2.122950077E0,3.523705073E0
6.733796100E-2,8.470500112E-1,-2.506050110E0,2.275950193E0,3.489660464E0
6.930089700E-2,6.169500351E-1,-2.428950071E0,2.353049994E0,3.437625644E0
7.126345700E-2,4.639500082E-1,-2.275950193E0,2.391000032E0,3.333478671E0
7.322612700E-2,2.340000123E-1,-2.161050081E0,2.391000032E0,3.231373487E0
7.518945300E-2,1.570500135E-1,-2.008050203E0,2.391000032E0,3.126309563E0
7.715258700E-2,4.050000105E-3,-1.969050050E0,2.200050116E0,2.952523499E0
7.911563500E-2,-7.200000435E-2,-1.816050053E0,2.200050116E0,2.853671723E0
8.107872300E-2,-1.099500060E-1,-1.701000094E0,2.046000004E0,2.663007011E0
8.304197700E-2,-1.480500102E-1,-1.585950017E0,2.008050203E0,2.563088348E0
8.500518200E-2,-3.780000210E-1,-1.356000066E0,2.122950077E0,2.547260729E0
8.696805800E-2,-4.549500346E-1,-1.164000034E0,2.008050203E0,2.365193699E0
8.893103100E-2,-4.549500346E-1,-1.011000037E0,1.930950046E0,2.226582289E0
9.089371700E-2,-4.549500346E-1,-9.340500236E-1,1.855050087E0,2.126179627E0
9.285652100E-2,-4.549500346E-1,-8.580000401E-1,1.701000094E0,1.958710015E0
9.481959900E-2,-3.780000210E-1,-8.190000653E-1,1.701000094E0,1.925369171E0
9.678259600E-2,-3.780000210E-1,-6.280500293E-1,1.663050056E0,1.817433999E0
9.874604700E-2,-3.780000210E-1,-4.740000367E-1,1.548000097E0,1.662487399E0
1.007093650E-1,-3.780000210E-1,-4.740000367E-1,1.471050024E0,1.591083978E0
1.026727720E-1,-2.250000089E-1,-3.979500234E-1,1.471050024E0,1.540447142E0
1.046361770E-1,-1.870500147E-1,-3.979500234E-1,1.356000066E0,1.425513279E0
1.065993340E-1,-1.099500060E-1,-3.210000098E-1,1.318050027E0,1.361023836E0
1.085625640E-1,-7.200000435E-2,-2.830500007E-1,1.318050027E0,1.350021176E0
1.105261540E-1,4.050000105E-3,-2.059500068E-1,1.318050027E0,1.334049355E0
1.124896390E-1,-3.299999982E-2,-1.290000081E-1,1.279950023E0,1.286857437E0
1.144526870E-1,4.200000316E-2,-1.290000081E-1,1.318050027E0,1.325013538E0
1.164158670E-1,4.200000316E-2,-9.105000645E-2,1.356000066E0,1.359702277E0
1.183785200E-1,1.570500135E-1,2.295000106E-2,1.395000100E0,1.404000245E0
1.203413280E-1,1.960500032E-1,1.380000114E-1,1.318050027E0,1.339677379E0
1.223046760E-1,4.200000316E-2,2.530499995E-1,1.165050030E0,1.192954263E0
1.242678650E-1,-1.099500060E-1,3.679500222E-1,1.050000072E0,1.118023422E0
1.262309140E-1,-1.099500060E-1,5.209500194E-1,8.959500194E-1,1.042211286E0
1.281940110E-1,4.050000105E-3,5.980500579E-1,6.280500293E-1,8.672526238E-1
1.301583000E-1,1.570500135E-1,6.360000372E-1,3.220500052E-1,7.299842189E-1
1.321222390E-1,2.719500065E-1,7.510500550E-1,5.295000225E-2,8.005227629E-1
1.340859350E-1,5.020500422E-1,7.890000343E-1,-2.520000041E-1,9.685449401E-1
1.360497030E-1,8.089500666E-1,8.659500480E-1,-5.590500236E-1,1.310269676E0
1.380127740E-1,1.039050102E0,9.430500269E-1,-9.420000315E-1,1.690068794E0
1.399760650E-1,1.192050099E0,9.040500522E-1,-1.249050021E0,1.948952511E0
1.419387890E-1,1.345050097E0,8.659500480E-1,-1.441050053E0,2.153057013E0
1.439016800E-1,1.498950124E0,7.890000343E-1,-1.747050047E0,2.433424828E0
1.458649230E-1,1.651950121E0,7.129500508E-1,-1.900950074E0,2.617412494E0
1.478280630E-1,1.882050037E0,6.739500165E-1,-1.939050078E0,2.785002006E0
1.497911560E-1,2.035050154E0,5.209500194E-1,-1.939050078E0,2.858799268E0
1.517542760E-1,2.227050066E0,3.679500222E-1,-1.939050078E0,2.975744348E0
1.537177050E-1,2.380050182E0,2.530499995E-1,-1.939050078E0,3.080355236E0
1.556810440E-1,2.380050182E0,1.380000114E-1,-1.861950040E0,3.024986087E0
1.576451570E-1,2.380050182E0,2.295000106E-2,-1.708950043E0,2.930132390E0
1.596090440E-1,2.419050217E0,-9.105000645E-2,-1.594050050E0,2.898463320E0
1.615724400E-1,2.533950090E0,-1.680000126E-1,-1.516950130E0,2.958084644E0
1.635360070E-1,2.610000134E0,-1.680000126E-1,-1.402050018E0,2.967502141E0
1.654993600E-1,2.649000168E0,-2.830500007E-1,-1.249050021E0,2.942353675E0
1.674627760E-1,2.686950207E0,-3.979500234E-1,-1.096050024E0,2.929059796E0
1.694257950E-1,2.686950207E0,-4.740000367E-1,-8.659500480E-1,2.862559507E0
1.713889300E-1,2.686950207E0,-5.130000114E-1,-6.360000372E-1,2.808445562E0
1.733521710E-1,2.610000134E0,-5.509500504E-1,-3.289500177E-1,2.687722971E0
1.753153840E-1,2.686950207E0,-7.039500475E-1,5.295000225E-2,2.778138007E0
1.772777630E-1,2.686950207E0,-7.429500222E-1,4.360500276E-1,2.821668970E0
1.792403860E-1,2.610000134E0,-8.959500194E-1,9.730500579E-1,2.926030340E0
1.812040350E-1,2.649000168E0,-1.011000037E0,1.356000066E0,3.142937979E0
1.831673840E-1,2.764050245E0,-1.126049995E0,1.548000097E0,3.362181829E0
1.851307960E-1,2.802000046E0,-1.203000069E0,1.777950048E0,3.529804498E0
1.870942060E-1,2.686950207E0,-1.318050027E0,2.046000004E0,3.625337681E0
1.890577220E-1,2.572050095E0,-1.240950108E0,2.391000032E0,3.724550981E0
1.910212060E-1,2.572050095E0,-1.279050112E0,2.698050022E0,3.940924359E0
1.929844400E-1,2.725050211E0,-1.393950105E0,2.391000032E0,3.884054158E0
1.949477470E-1,2.917050123E0,-1.585950017E0,2.046000004E0,3.900068575E0
1.969109010E-1,3.108000040E0,-1.777950048E0,1.701000094E0,3.964110486E0
1.988741130E-1,3.147000074E0,-2.008050203E0,1.395000100E0,3.985210204E0
2.008371660E-1,3.184950113E0,-2.199000120E0,1.126049995E0,4.030818446E0
2.028002660E-1,3.184950113E0,-2.351999998E0,7.429500222E-1,4.028372618E0
2.047642850E-1,3.184950113E0,-2.506050110E0,2.830500007E-1,4.062549899E0
2.067280340E-1,3.070050240E0,-2.659050226E0,-9.900000691E-2,4.062703236E0
2.086910940E-1,2.955000162E0,-2.851050138E0,-5.590500236E-1,4.144037859E0
2.106543820E-1,2.802000046E0,-3.042000055E0,-1.134000063E0,4.288464146E0
2.126177830E-1,2.649000168E0,-3.387000084E0,-1.824000120E0,4.670754532E0
2.145811500E-1,2.649000168E0,-3.732000113E0,-2.782050133E0,5.355822035E0
2.165443580E-1,2.572050095E0,-4.116000175E0,-3.894000292E0,6.222550715E0
2.185076130E-1,2.686950207E0,-4.575000286E0,-5.158050060E0,7.399716850E0
2.204708350E-1,2.764050245E0,-5.112000465E0,-6.154950142E0,8.464982798E0
2.224340700E-1,2.878050089E0,-5.649000168E0,-6.883050442E0,9.357924909E0
2.243974790E-1,2.955000162E0,-6.223950386E0,-7.266000271E0,1.001320849E1
2.263608370E-1,2.917050123E0,-6.760050297E0,-7.534950256E0,1.053484394E1
2.283242260E-1,2.725050211E0,-7.450050354E0,-7.495950222E0,1.091413848E1
2.302876060E-1,2.419050217E0,-8.254950523E0,-7.189950466E0,1.121121759E1
2.322513520E-1,1.920000076E0,-9.097949982E0,-6.232050419E0,1.119363867E1
2.342149910E-1,1.384050012E0,-1.017105007E1,-4.774950027E0,1.132104243E1
2.361772520E-1,5.020500422E-1,-1.139805031E1,-2.743950129E0,1.173443085E1
2.381399160E-1,-3.400500119E-1,-1.273905087E1,-7.510500550E-1,1.276570120E1
2.401023880E-1,-1.336950064E0,-1.388895035E1,9.349500537E-1,1.398443810E1
2.420649160E-1,-2.601000071E0,-1.465605068E1,2.583000183E0,1.510751180E1
2.440283810E-1,-3.790050268E0,-1.519200039E1,3.924000263E0,1.614184422E1
2.459915860E-1,-4.671000004E0,-1.557600117E1,4.882050037E0,1.697835286E1
2.479548670E-1,-5.437950134E0,-1.595895100E1,5.419050217E0,1.770947554E1
2.499181250E-1,-5.974050522E0,-1.638000107E1,5.496000290E0,1.828113054E1
2.518813520E-1,-6.319050312E0,-1.695495033E1,5.457000256E0,1.889919547E1
2.538445880E-1,-6.741000175E0,-1.776000023E1,5.380950451E0,1.974369062E1
2.558077650E-1,-7.162050247E0,-1.867995071E1,5.074050426E0,2.063931952E1
2.577709970E-1,-7.468950272E0,-1.983000183E1,4.690950394E0,2.170297690E1
2.597341820E-1,-7.507050514E0,-2.094105148E1,4.153950214E0,2.263048270E1
2.616973810E-1,-7.431000233E0,-2.209095192E1,3.733050108E0,2.360435520E1
2.636608410E-1,-7.201050282E0,-2.339400101E1,3.388050079E0,2.471059068E1
2.656242250E-1,-6.433950424E0,-2.485095024E1,3.157950163E0,2.586383760E1
2.675877990E-1,-5.514000416E0,-2.642205048E1,2.698050022E0,2.712578894E1
2.695513110E-1,-4.402950287E0,-2.799405098E1,1.777950048E0,2.839390723E1
2.715155300E-1,-2.830950022E0,-2.956500053E1,7.429500222E-1,2.970951883E1
2.734795420E-1,-6.469500065E-1,-3.132795143E1,-2.520000041E-1,3.133564407E1
2.754433610E-1,1.230000019E0,-3.274605179E1,-1.326000094E0,3.279596140E1
2.774072370E-1,2.917050123E0,-3.401100159E1,-2.551950216E0,3.423112415E1
2.793701950E-1,5.025000095E0,-3.527595139E1,-3.165000200E0,3.577234404E1
2.813334090E-1,6.673050404E0,-3.631095123E1,-2.859000206E0,3.702956472E1
2.832965080E-1,8.244000435E0,-3.742200089E1,-3.088950157E0,3.844361204E1
2.852596400E-1,9.892050743E0,-3.861000061E1,-2.859000206E0,3.995946317E1
2.872228420E-1,1.085100079E1,-3.941505051E1,-3.049950123E0,4.099503165E1
2.891860230E-1,1.131105042E1,-3.987495041E1,-3.394950151E0,4.158698376E1
2.911490880E-1,1.203900051E1,-4.052700043E1,-2.974050045E0,4.238183892E1
2.931121840E-1,1.246005058E1,-4.125495148E1,-2.437050104E0,4.316437298E1
2.950754360E-1,1.219200039E1,-4.167705154E1,-1.939050078E0,4.346701524E1
2.970386430E-1,1.180905056E1,-4.175295258E1,-1.171950102E0,4.340663764E1
2.990016990E-1,1.123395061E1,-4.152300262E1,-4.440000355E-1,4.301811862E1
3.009647990E-1,1.008405018E1,-4.102500153E1,-4.440000355E-1,4.224850239E1
3.029280960E-1,9.433050156E0,-4.079505157E1,-7.120500207E-1,4.187750809E1
3.048913360E-1,8.436000824E0,-4.025805283E1,-8.269500136E-1,4.114074347E1
3.068545660E-1,7.018050194E0,-3.952995300E1,-1.249050021E0,4.016752841E1
3.088177990E-1,5.560950279E0,-3.853395081E1,-1.900950074E0,3.897952211E1
3.107808490E-1,3.721950293E0,-3.715395355E1,-2.437050104E0,3.741935852E1
3.127439530E-1,1.882050037E0,-3.562095261E1,-2.859000206E0,3.578502842E1
3.147062500E-1,5.020500422E-1,-3.408795166E1,-2.935050249E0,3.421775888E1
3.166687900E-1,-2.250000089E-1,-3.263100052E1,-2.629050016E0,3.273751249E1
3.186321380E-1,-7.230000496E-1,-3.140505219E1,-2.206950188E0,3.149080280E1
3.205952500E-1,-8.770500422E-1,-3.029295158E1,-1.786050081E0,3.035822965E1
3.225583210E-1,-9.529500604E-1,-2.922000122E1,-1.516950130E0,2.927486504E1
3.245214050E-1,-9.150000215E-1,-2.822400093E1,-1.249050021E0,2.826643910E1
3.264843170E-1,-8.770500422E-1,-2.726505089E1,-1.018950105E0,2.729817716E1
3.284473000E-1,-7.620000243E-1,-2.638395119E1,-1.018950105E0,2.641461307E1
3.304103460E-1,-6.850500107E-1,-2.557905197E1,-1.096050024E0,2.561168716E1
3.323733740E-1,-5.700000525E-1,-2.469705200E1,-1.210950017E0,2.473329088E1
3.343365050E-1,-6.469500065E-1,-2.400795174E1,-1.326000094E0,2.405324442E1
3.362996050E-1,-6.469500065E-1,-2.347095108E1,-1.441050053E0,2.352404545E1
3.382624990E-1,-7.230000496E-1,-2.289600182E1,-1.479000092E0,2.295510988E1
3.402254530E-1,-7.999500632E-1,-2.251305199E1,-1.441050053E0,2.257330404E1
3.421885050E-1,-9.529500604E-1,-2.216805077E1,-1.402050018E0,2.223277609E1
3.441515280E-1,-1.068000078E0,-2.190000153E1,-1.326000094E0,2.196608675E1
3.461146590E-1,-1.183050036E0,-2.170800018E1,-1.210950017E0,2.177391282E1
3.480777590E-1,-1.375050068E0,-2.155500031E1,-1.018950105E0,2.162283654E1
3.500408380E-1,-1.452000022E0,-2.147805023E1,-8.659500480E-1,2.154448457E1
3.520039200E-1,-1.605000019E0,-2.155500031E1,-5.590500236E-1,2.162190094E1
3.539673100E-1,-1.758000135E0,-2.170800018E1,-1.759500057E-1,2.177977949E1
3.559306100E-1,-1.834950089E0,-2.197605133E1,9.195000678E-2,2.205271704E1
3.578927490E-1,-1.911000133E0,-2.216805077E1,2.449500114E-1,2.225161560E1
3.598552280E-1,-2.065050125E0,-2.247405052E1,3.600000143E-1,2.257159673E1
3.618182460E-1,-2.179949999E0,-2.281905174E1,3.979500234E-1,2.292639677E1
3.637811240E-1,-2.332950115E0,-2.312595177E1,5.130000114E-1,2.324898859E1
3.657445950E-1,-2.332950115E0,-2.343300056E1,4.750500321E-1,2.355363760E1
3.677078930E-1,-2.332950115E0,-2.370105171E1,5.509500504E-1,2.382196580E1
3.696709330E-1,-2.332950115E0,-2.389305115E1,5.509500504E-1,2.401299847E1
3.716340490E-1,-2.256000042E0,-2.404605103E1,5.509500504E-1,2.415793145E1
3.735971440E-1,-2.140950203E0,-2.416095161E1,6.280500293E-1,2.426375275E1
3.755602280E-1,-2.026050091E0,-2.416095161E1,7.050000429E-1,2.425599899E1
3.775229430E-1,-1.911000133E0,-2.408400154E1,7.810500264E-1,2.417232076E1
3.794857660E-1,-1.873050094E0,-2.408400154E1,7.429500222E-1,2.416814891E1
3.814488400E-1,-1.758000135E0,-2.385405159E1,7.810500264E-1,2.393149349E1
3.834118410E-1,-1.489950061E0,-2.377800179E1,7.429500222E-1,2.383621813E1
3.853747510E-1,-1.183050036E0,-2.358600044E1,8.959500194E-1,2.363264164E1
3.873376880E-1,-9.529500604E-1,-2.327895164E1,8.959500194E-1,2.331566919E1
3.893006090E-1,-7.230000496E-1,-2.293395042E1,8.200500607E-1,2.295999332E1
3.912635340E-1,-5.700000525E-1,-2.251305199E1,8.580000401E-1,2.253660520E1
3.932265010E-1,-2.250000089E-1,-2.212995148E1,7.810500264E-1,2.214487337E1
3.951894560E-1,4.050000105E-3,-2.174595070E1,7.810500264E-1,2.175997305E1
3.971525330E-1,1.189500093E-1,-2.121000099E1,8.580000401E-1,2.122768134E1
3.991155570E-1,2.719500065E-1,-2.071095085E1,8.200500607E-1,2.072896341E1
4.010792280E-1,4.260000288E-1,-2.021295166E1,8.959500194E-1,2.023728285E1
4.030427100E-1,6.550500393E-1,-1.983000183E1,9.730500579E-1,1.986466435E1
4.050054940E-1,8.470500112E-1,-1.921695137E1,1.087950110E0,1.926635277E1
4.069684820E-1,9.619500637E-1,-1.875705147E1,1.203000069E0,1.882018961E1
4.089310330E-1,1.077000022E0,-1.825800133E1,1.356000066E0,1.833993669E1
4.108937120E-1,1.230000019E0,-1.772205162E1,1.432950020E0,1.782238366E1
4.128569010E-1,1.306950092E0,-1.722405052E1,1.471050024E0,1.733609019E1
4.148199410E-1,1.345050097E0,-1.664895058E1,1.510050058E0,1.677131379E1
4.167829800E-1,1.422000051E0,-1.611194992E1,1.510050058E0,1.624491507E1
4.187460200E-1,1.384050012E0,-1.553700066E1,1.510050058E0,1.567144649E1
4.207089640E-1,1.459950089E0,-1.500105095E1,1.471050024E0,1.514354556E1
4.226719390E-1,1.498950124E0,-1.442595100E1,1.471050024E0,1.457802806E1
4.246349870E-1,1.537050128E0,-1.388895035E1,1.395000100E0,1.404320085E1
4.265980140E-1,1.575000048E0,-1.342905045E1,1.240950108E0,1.357792245E1
4.285612800E-1,1.422000051E0,-1.277805042E1,9.349500537E-1,1.289088005E1
4.305244760E-1,1.459950089E0,-1.220295048E1,6.660000086E-1,1.230800596E1
4.324882830E-1,1.306950092E0,-1.158900070E1,3.600000143E-1,1.166801850E1
4.344519220E-1,1.269000053E0,-1.093800068E1,-2.205000073E-2,1.101138984E1
4.364148590E-1,1.153950095E0,-1.036305046E1,-3.670500219E-1,1.043355842E1
4.383780010E-1,1.114950061E0,-9.787950516E0,-6.739500165E-1,9.874274533E0
4.403408860E-1,1.153950095E0,-9.175050735E0,-1.096050024E0,9.312061129E0
4.423038470E-1,1.114950061E0,-8.638050079E0,-1.479000092E0,8.834390985E0
4.442666340E-1,1.269000053E0,-8.178000450E0,-1.671000123E0,8.442884217E0
4.462294680E-1,1.230000019E0,-7.680000305E0,-2.014950037E0,8.034633059E0
4.481924050E-1,1.306950092E0,-7.258050442E0,-2.169000149E0,7.687130570E0
4.501553120E-1,1.306950092E0,-6.874950409E0,-2.245050192E0,7.349374942E0
4.521183730E-1,1.422000051E0,-6.454050541E0,-2.245050192E0,6.979763814E0
4.540813890E-1,1.537050128E0,-6.031950474E0,-2.169000149E0,6.591776032E0
4.560443020E-1,1.422000051E0,-5.610000134E0,-2.053950071E0,6.141082684E0
4.580072420E-1,1.345050097E0,-5.188950062E0,-1.900950074E0,5.687527907E0
4.599705210E-1,1.306950092E0,-4.804950237E0,-1.671000123E0,5.252419132E0
4.619337010E-1,1.269000053E0,-4.498950005E0,-1.363950014E0,4.869422134E0
4.638968070E-1,1.153950095E0,-4.077000141E0,-1.210950017E0,4.406805069E0
4.658599340E-1,1.077000022E0,-3.694050074E0,-9.040500522E-1,3.952624633E0
4.678229820E-1,8.850000501E-1,-3.271950245E0,-6.360000372E-1,3.448677941E0
4.697860680E-1,8.470500112E-1,-2.926950216E0,-1.759500057E-1,3.052128715E0
4.717484220E-1,8.089500666E-1,-2.506050110E0,1.680000126E-1,2.638732909E0
4.737109910E-1,7.320000529E-1,-2.199000120E0,5.130000114E-1,2.373730106E0
4.756743340E-1,7.699500322E-1,-1.893000126E0,8.959500194E-1,2.231367062E0
4.776374510E-1,9.240000248E-1,-1.624050021E0,1.165050030E0,2.201966414E0
4.796007010E-1,9.619500637E-1,-1.356000066E0,1.471050024E0,2.219926187E0
4.815639120E-1,1.192050099E0,-1.240950108E0,1.624950051E0,2.366728391E0
4.835272820E-1,1.345050097E0,-1.048950076E0,1.893000126E0,2.548118031E0
4.854906050E-1,1.537050128E0,-8.959500194E-1,2.046000004E0,2.711340176E0
4.874536400E-1,1.690050125E0,-7.429500222E-1,2.122950077E0,2.813389627E0
4.894167600E-1,1.843950033E0,-5.509500504E-1,2.200050116E0,2.922998152E0
4.913796760E-1,1.920000076E0,-4.360500276E-1,2.200050116E0,2.952416033E0
4.933426650E-1,2.111999989E0,-2.830500007E-1,2.122950077E0,3.007919262E0
4.953058910E-1,2.149950027E0,-1.680000126E-1,2.046000004E0,2.972646151E0
4.972690470E-1,2.227050066E0,-9.105000645E-2,1.930950046E0,2.949001556E0
4.992312560E-1,2.227050066E0,2.295000106E-2,1.740000129E0,2.826283628E0
5.011937420E-1,2.341950178E0,1.759500057E-1,1.548000097E0,2.812826575E0
5.031567240E-1,2.227050066E0,3.289500177E-1,1.432950020E0,2.668577499E0
5.051195710E-1,2.149950027E0,4.440000355E-1,1.203000069E0,2.503323854E0
5.070828220E-1,2.035050154E0,6.739500165E-1,9.349500537E-1,2.338753804E0
5.090459550E-1,1.920000076E0,8.659500480E-1,4.750500321E-1,2.159153147E0
5.110096080E-1,1.804950118E0,9.810000658E-1,1.300500035E-1,2.058426356E0
5.129731090E-1,1.690050125E0,1.096050024E0,-1.369500011E-1,2.018997371E0
5.149359680E-1,1.498950124E0,1.210950017E0,-4.819500148E-1,1.986335126E0
5.168989910E-1,1.384050012E0,1.402950048E0,-8.269500136E-1,2.137220063E0
5.188618520E-1,1.345050097E0,1.518000126E0,-1.096050024E0,2.305387126E0
5.208247610E-1,1.306950092E0,1.594050050E0,-1.402050018E0,2.492961764E0
5.227879100E-1,1.269000053E0,1.671000123E0,-1.671000123E0,2.682320629E0
5.247509890E-1,1.230000019E0,1.747950077E0,-1.900950074E0,2.860391705E0
5.267140170E-1,1.153950095E0,1.824000120E0,-2.206950188E0,3.086941268E0
5.286770630E-1,1.077000022E0,1.978050113E0,-2.514000177E0,3.375323420E0
5.306401440E-1,1.000050068E0,2.092950106E0,-2.782050133E0,3.622201433E0
5.326032150E-1,9.240000248E-1,2.169000149E0,-3.012000084E0,3.824981333E0
5.345659790E-1,8.850000501E-1,2.208000183E0,-3.127050161E0,3.928986206E0
5.365288330E-1,8.850000501E-1,2.245950222E0,-3.357000113E0,4.134847911E0
5.384919160E-1,8.089500666E-1,2.322000027E0,-3.472050190E0,4.254552486E0
5.404549220E-1,8.470500112E-1,2.322000027E0,-3.625050068E0,4.387501093E0
5.424180560E-1,9.240000248E-1,2.361000061E0,-3.586950064E0,4.392528667E0
5.443811530E-1,9.619500637E-1,2.398950100E0,-3.664050102E0,4.483923802E0
5.463440470E-1,1.039050102E0,2.437050104E0,-3.549000263E0,4.428796811E0
5.483070010E-1,1.269000053E0,2.322000027E0,-3.394950151E0,4.304385181E0
5.502699380E-1,1.345050097E0,2.284050226E0,-3.241950035E0,4.187634801E0
5.522328670E-1,1.498950124E0,2.245950222E0,-3.049950123E0,4.073492313E0
5.541961480E-1,1.767000079E0,2.131050110E0,-2.782050133E0,3.924725059E0
5.561593260E-1,2.111999989E0,1.978050113E0,-2.437050104E0,3.783178480E0
5.581227460E-1,2.419050217E0,1.786050081E0,-2.206950188E0,3.729934044E0
5.600860950E-1,2.764050245E0,1.518000126E0,-1.861950040E0,3.662124533E0
5.620496060E-1,2.992950201E0,1.249050021E0,-1.555950046E0,3.597062330E0
5.640130800E-1,3.300000191E0,9.040500522E-1,-1.134000063E0,3.604617025E0
5.659761350E-1,3.568050146E0,4.440000355E-1,-7.120500207E-1,3.665396719E0
5.679393130E-1,3.721950293E0,-1.500000060E-2,-2.910000086E-1,3.733338986E0
5.699021920E-1,3.798000097E0,-2.440500110E-1,9.195000678E-2,3.806943650E0
5.718651590E-1,3.798000097E0,-5.130000114E-1,4.750500321E-1,3.861819038E0
5.738285510E-1,3.721950293E0,-8.580000401E-1,9.349500537E-1,3.932328782E0
5.757918310E-1,3.492000103E0,-1.126049995E0,1.318050027E0,3.898629142E0
5.777550990E-1,3.376950264E0,-1.393950105E0,1.510050058E0,3.953117903E0
5.797183710E-1,3.147000074E0,-1.585950017E0,1.624950051E0,3.880632628E0
5.816815950E-1,2.955000162E0,-1.738950133E0,1.855050087E0,3.898356622E0
5.836448330E-1,2.839950085E0,-1.854000092E0,1.969950080E0,3.922159627E0
5.856080120E-1,2.725050211E0,-1.930950046E0,1.969950080E0,3.877521122E0
5.875712120E-1,2.494950056E0,-2.008050203E0,2.008050203E0,3.780119974E0
5.895339530E-1,2.341950178E0,-2.008050203E0,1.930950046E0,3.639445608E0
5.914968280E-1,2.074050188E0,-1.969050050E0,1.855050087E0,3.408819899E0
5.934599390E-1,1.843950033E0,-1.893000126E0,1.777950048E0,3.185075757E0
5.954229800E-1,1.651950121E0,-1.969050050E0,1.663050056E0,3.061344931E0
5.973860240E-1,1.498950124E0,-1.854000092E0,1.548000097E0,2.842617124E0
5.993490630E-1,1.345050097E0,-1.816050053E0,1.510050058E0,2.717986154E0
6.013123710E-1,1.306950092E0,-1.701000094E0,1.471050024E0,2.601059022E0
6.032756000E-1,1.230000019E0,-1.663050056E0,1.471050024E0,2.538232398E0
6.052386070E-1,1.077000022E0,-1.585950017E0,1.510050058E0,2.440372447E0
6.072016790E-1,9.619500637E-1,-1.509000063E0,1.548000097E0,2.366164283E0
6.091647610E-1,9.619500637E-1,-1.471050024E0,1.510050058E0,2.317236992E0
6.111278360E-1,8.470500112E-1,-1.318050027E0,1.471050024E0,2.149124884E0
6.130909580E-1,6.940500140E-1,-1.279050112E0,1.471050024E0,2.069217916E0
6.150540660E-1,5.790000558E-1,-1.164000034E0,1.395000100E0,1.906872419E0
6.170165980E-1,5.410500169E-1,-1.048950076E0,1.203000069E0,1.685301323E0
6.189792990E-1,4.260000288E-1,-8.959500194E-1,1.050000072E0,1.444542354E0
6.209426050E-1,3.870000243E-1,-8.580000401E-1,8.580000401E-1,1.273615780E0
6.229057120E-1,3.870000243E-1,-7.039500475E-1,7.810500264E-1,1.120425737E0
6.248684690E-1,3.870000243E-1,-6.660000086E-1,6.660000086E-1,1.018273559E0
6.268313290E-1,3.109500110E-1,-6.280500293E-1,5.899500251E-1,9.160664718E-1
6.287944420E-1,2.340000123E-1,-5.130000114E-1,5.130000114E-1,7.622952376E-1
6.307574810E-1,2.719500065E-1,-4.360500276E-1,4.360500276E-1,6.739703697E-1
6.327208990E-1,1.570500135E-1,-3.210000098E-1,4.360500276E-1,5.637777395E-1
6.346841920E-1,1.570500135E-1,-2.440500110E-1,4.750500321E-1,5.566845136E-1
6.366472330E-1,4.200000316E-2,-2.059500068E-1,4.360500276E-1,4.840651115E-1
6.386103480E-1,4.200000316E-2,-1.680000126E-1,4.750500321E-1,5.056288536E-1
6.405735980E-1,8.100000024E-2,-1.290000081E-1,4.750500321E-1,4.988732656E-1
6.425368080E-1,4.200000316E-2,-1.680000126E-1,5.130000114E-1,5.414397623E-1
6.444995290E-1,4.050000105E-3,-1.290000081E-1,5.130000114E-1,5.289862156E-1
6.464624060E-1,-3.299999982E-2,-9.105000645E-2,5.509500504E-1,5.593970519E-1
6.484252910E-1,-7.200000435E-2,-1.500000060E-2,5.899500251E-1,5.945166379E-1
6.503881730E-1,-7.200000435E-2,-5.295000225E-2,7.050000429E-1,7.106425008E-1
6.523503840E-1,-3.299999982E-2,6.105000153E-2,7.429500222E-1,7.461841852E-1
6.543127910E-1,-7.200000435E-2,9.900000691E-2,7.429500222E-1,7.529672885E-1
6.562758150E-1,-3.299999982E-2,9.900000691E-2,8.580000401E-1,8.643228969E-1
6.582386490E-1,-3.299999982E-2,1.380000114E-1,8.959500194E-1,9.071160016E-1
6.602021280E-1,4.050000105E-3,9.900000691E-2,9.349500537E-1,9.401856236E-1
6.621654180E-1,4.050000105E-3,2.140500098E-1,1.126049995E0,1.146220922E0
6.641286400E-1,8.100000024E-2,2.140500098E-1,1.240950108E0,1.261877798E0
6.660918820E-1,1.189500093E-1,2.530499995E-1,1.318050027E0,1.347382381E0
6.680551740E-1,1.570500135E-1,2.140500098E-1,1.356000066E0,1.381744655E0
6.700184370E-1,2.340000123E-1,2.910000086E-1,1.356000066E0,1.406475449E0
6.719819780E-1,3.109500110E-1,2.910000086E-1,1.318050027E0,1.385145042E0
6.739454370E-1,3.870000243E-1,2.530499995E-1,1.279950023E0,1.360909762E0
6.759093950E-1,5.790000558E-1,1.759500057E-1,1.279950023E0,1.415793604E0
6.778732070E-1,5.790000558E-1,9.900000691E-2,1.318050027E0,1.443016957E0
6.798368680E-1,7.320000529E-1,2.295000106E-2,1.318050027E0,1.507848352E0
6.818005500E-1,8.470500112E-1,-5.295000225E-2,1.318050027E0,1.567658540E0
6.837637040E-1,9.240000248E-1,-1.290000081E-1,1.318050027E0,1.614829069E0
6.857270120E-1,9.240000248E-1,-1.290000081E-1,1.318050027E0,1.614829069E0
6.876898690E-1,1.000050068E0,-1.290000081E-1,1.318050027E0,1.659517103E0
6.896528580E-1,1.039050102E0,-1.680000126E-1,1.318050027E0,1.686743902E0
6.916161630E-1,1.230000019E0,-2.059500068E-1,1.318050027E0,1.814544385E0
6.935793520E-1,1.345050097E0,-3.210000098E-1,1.318050027E0,1.910355109E0
6.955424550E-1,1.384050012E0,-4.360500276E-1,1.240950108E0,1.909369328E0
6.975055840E-1,1.459950089E0,-3.979500234E-1,1.126049995E0,1.886215013E0
6.994684720E-1,1.537050128E0,-4.360500276E-1,9.349500537E-1,1.851160265E0
7.014314300E-1,1.651950121E0,-5.130000114E-1,6.660000086E-1,1.853554484E0
7.033954040E-1,1.804950118E0,-5.890500546E-1,3.220500052E-1,1.925757280E0
7.053590970E-1,1.996950150E0,-6.280500293E-1,-1.369500011E-1,2.097858918E0
7.073220690E-1,2.188950062E0,-7.039500475E-1,-5.209500194E-1,2.357633764E0
7.092852530E-1,2.457000017E0,-8.190000653E-1,-9.040500522E-1,2.743158160E0
7.112484450E-1,2.725050211E0,-8.190000653E-1,-1.402050018E0,3.172129255E0
7.132116350E-1,2.839950085E0,-9.730500579E-1,-1.786050081E0,3.493152987E0
7.151747430E-1,2.955000162E0,-1.011000037E0,-2.169000149E0,3.802460871E0
7.171378720E-1,3.070050240E0,-1.087950110E0,-2.437050104E0,4.067930325E0
7.191012990E-1,3.147000074E0,-1.126049995E0,-2.590050220E0,4.228469960E0
7.210646390E-1,3.184950113E0,-1.203000069E0,-2.704950094E0,4.348318227E0
7.230276720E-1,3.184950113E0,-1.203000069E0,-2.782050133E0,4.396694137E0
7.249907950E-1,3.184950113E0,-1.240950108E0,-2.704950094E0,4.358969994E0
7.269538640E-1,3.147000074E0,-1.240950108E0,-2.514000177E0,4.214708001E0
7.289169490E-1,3.070050240E0,-1.279050112E0,-2.398950100E0,4.100748620E0
7.308802040E-1,2.992950201E0,-1.279050112E0,-2.053950071E0,3.848692114E0
7.328434090E-1,2.764050245E0,-1.240950108E0,-1.708950043E0,3.478568840E0
7.348064650E-1,2.725050211E0,-1.318050027E0,-1.441050053E0,3.352578080E0
7.367695640E-1,2.725050211E0,-1.279050112E0,-1.171950102E0,3.230376895E0
7.387324220E-1,2.649000168E0,-1.318050027E0,-9.810000658E-1,3.117181241E0
7.406953440E-1,2.649000168E0,-1.279050112E0,-7.510500550E-1,3.035991973E0
7.426583110E-1,2.649000168E0,-1.203000069E0,-5.970000029E-1,2.969986542E0
7.446212650E-1,2.572050095E0,-1.164000034E0,-5.970000029E-1,2.885610295E0
7.465841390E-1,2.572050095E0,-1.203000069E0,-6.360000372E-1,2.909836233E0
7.485470360E-1,2.494950056E0,-1.164000034E0,-8.269500136E-1,2.874633574E0
7.505097920E-1,2.457000017E0,-1.164000034E0,-1.096050024E0,2.931394006E0
7.524725830E-1,2.419050217E0,-1.126049995E0,-1.516950130E0,3.069353391E0
7.544357530E-1,2.341950178E0,-1.240950108E0,-1.900950074E0,3.261640537E0
7.563988120E-1,2.380050182E0,-1.432950020E0,-2.130000114E0,3.500697804E0
7.583618920E-1,2.380050182E0,-1.701000094E0,-2.475000143E0,3.831927178E0
7.603249660E-1,2.341950178E0,-2.083950043E0,-2.743950129E0,4.166154189E0
7.622878840E-1,2.149950027E0,-2.467050076E0,-2.935050249E0,4.395809500E0
7.642508340E-1,2.074050188E0,-2.926950216E0,-3.088950157E0,4.733955516E0
7.662137520E-1,1.996950150E0,-3.426000118E0,-3.433950186E0,5.245693528E0
7.681766800E-1,1.959000111E0,-3.847050190E0,-3.855000257E0,5.787789179E0
7.701401420E-1,1.843950033E0,-4.231050014E0,-4.123950005E0,6.189418356E0
7.721034480E-1,1.767000079E0,-4.614000320E0,-4.621950150E0,6.765627201E0
7.740662650E-1,1.690050125E0,-4.959000111E0,-5.235000134E0,7.406293130E0
7.760292230E-1,1.651950121E0,-5.494950294E0,-5.772000313E0,8.138759460E0
7.779926800E-1,1.498950124E0,-5.917050362E0,-6.307950497E0,8.777731821E0
7.799559900E-1,1.384050012E0,-6.454050541E0,-6.652950287E0,9.371878698E0
7.819190730E-1,1.192050099E0,-6.913050175E0,-6.652950287E0,9.668143238E0
7.838822230E-1,8.850000501E-1,-7.411950588E0,-6.117000103E0,9.650799287E0
7.858445520E-1,5.020500422E-1,-8.062950134E0,-5.464950085E0,9.753404459E0
7.878071320E-1,-7.200000435E-2,-9.213000298E0,-4.813050270E0,1.039471074E1
7.897701130E-1,-1.106999993E0,-1.082295036E1,-3.664050102E0,1.147985047E1
7.917329760E-1,-2.371050119E0,-1.250895023E1,-2.359950066E0,1.294855509E1
7.936955050E-1,-3.636000156E0,-1.377405071E1,-9.810000658E-1,1.427961244E1
7.956581320E-1,-4.824000359E0,-1.457895088E1,3.600000143E-1,1.536054648E1
7.976213300E-1,-5.629050255E0,-1.526895046E1,1.510050058E0,1.634341782E1
7.995843610E-1,-6.472050190E0,-1.580505085E1,2.430000067E0,1.725085408E1
8.015476260E-1,-7.239000320E0,-1.653404999E1,3.426000118E0,1.837159251E1
8.035108220E-1,-8.005949974E0,-1.733895111E1,4.000950336E0,1.951261295E1
8.054736990E-1,-8.542050362E0,-1.822005081E1,4.345950127E0,2.058699003E1
8.074366700E-1,-9.232050896E0,-1.933200073E1,4.576050282E0,2.190655729E1
8.093998840E-1,-9.883950233E0,-2.048100090E1,4.806000233E0,2.324352616E1
8.113630380E-1,-1.045905018E1,-2.170800018E1,4.996950150E0,2.460891126E1
8.133263270E-1,-1.091805077E1,-2.320305061E1,5.227050304E0,2.617073643E1
8.152895770E-1,-1.122495079E1,-2.454405022E1,5.419050217E0,2.752773195E1
8.172528050E-1,-1.130205059E1,-2.607705116E1,5.764050484E0,2.899953832E1
8.192160400E-1,-1.072695065E1,-2.795505142E1,6.721950531E0,3.068773353E1
8.211792700E-1,-9.769050598E0,-2.983305168E1,8.140049934E0,3.243001288E1
8.231425020E-1,-8.695050240E0,-3.136605072E1,9.252000809E0,3.383832968E1
8.251055520E-1,-7.047000408E0,-3.301500320E1,9.712050438E0,3.512797425E1
8.270686560E-1,-5.092950344E0,-3.458595276E1,1.017195034E1,3.640871936E1
8.290316830E-1,-2.524950027E0,-3.615705109E1,1.059300041E1,3.776134761E1
8.309947320E-1,3.109500110E-1,-3.730695343E1,1.047795010E1,3.875168257E1
8.329585480E-1,3.108000040E0,-3.807405090E1,9.673050880E0,3.940635646E1
8.349221290E-1,6.481050491E0,-3.891705322E1,8.064000130E0,4.026871174E1
8.368849850E-1,9.624000549E0,-3.949200058E1,5.686950207E0,4.104364627E1
8.388480540E-1,1.234500027E1,-3.991395187E1,2.545050144E0,4.185689747E1
8.408116720E-1,1.537305069E1,-4.056495285E1,-1.555950046E0,4.340814518E1
8.427751290E-1,1.817100143E1,-4.106295013E1,-7.266000271E0,4.548786571E1
8.447379560E-1,1.958895111E1,-4.114005280E1,-1.194195080E1,4.710457662E1
8.467009720E-1,2.012595177E1,-4.087200165E1,-1.489395046E1,4.793124465E1
8.486638790E-1,1.924395180E1,-4.006695175E1,-1.600500107E1,4.724246355E1
8.506268180E-1,1.705994987E1,-3.853395081E1,-1.604295158E1,4.509194551E1
8.525899180E-1,1.376400089E1,-3.631095123E1,-1.447200108E1,4.144118380E1
8.545529700E-1,9.241050720E0,-3.366600037E1,-1.132905006E1,3.670345998E1
8.565161680E-1,5.293050289E0,-3.132795143E1,-8.071050644E0,3.278107351E1
8.584793360E-1,2.341950178E0,-2.952705193E1,-5.197050095E0,3.007226057E1
8.604413170E-1,4.639500082E-1,-2.845395088E1,-2.359950066E0,2.855541866E1
8.624036460E-1,-6.850500107E-1,-2.764905167E1,-2.205000073E-2,2.765754577E1
8.643661740E-1,-1.336950064E0,-2.722695160E1,1.624950051E0,2.730814515E1
8.663286440E-1,-1.605000019E0,-2.695905113E1,2.698050022E0,2.714122210E1
8.682917650E-1,-1.452000022E0,-2.695905113E1,3.273000240E0,2.719579513E1
8.702547060E-1,-1.260000110E0,-2.722695160E1,3.081000090E0,2.742967472E1
8.722180310E-1,-1.030050039E0,-2.737995148E1,2.583000183E0,2.752080369E1
8.741812440E-1,-4.549500346E-1,-2.757195091E1,1.816050053E0,2.763543910E1
8.761453790E-1,8.100000024E-2,-2.761005211E1,1.011000037E0,2.762867459E1
8.781092440E-1,5.020500422E-1,-2.757195091E1,-9.900000691E-2,2.757669908E1
8.800730600E-1,8.850000501E-1,-2.753400040E1,-1.171950102E0,2.757313675E1
8.820369100E-1,1.192050099E0,-2.730405045E1,-1.977000117E0,2.740147229E1
8.839998540E-1,1.345050097E0,-2.715000153E1,-2.590050220E0,2.730641139E1
8.859630640E-1,1.651950121E0,-2.703495216E1,-2.974050045E0,2.724816602E1
8.879264330E-1,2.111999989E0,-2.680500221E1,-3.049950123E0,2.706050412E1
8.898897550E-1,2.533950090E0,-2.661405182E1,-2.782050133E0,2.687877341E1
8.918530350E-1,2.839950085E0,-2.642205048E1,-2.514000177E0,2.669288791E1
8.938163140E-1,3.070050240E0,-2.623095131E1,-2.206950188E0,2.650204981E1
8.957793560E-1,3.184950113E0,-2.592405128E1,-1.939050078E0,2.619084301E1
8.977424680E-1,3.147000074E0,-2.554095078E1,-1.786050081E0,2.579600261E1
8.997055390E-1,3.070050240E0,-2.515695190E1,-1.671000123E0,2.539861569E1
9.016686220E-1,3.031950235E0,-2.481195068E1,-1.671000123E0,2.505230250E1
9.036314970E-1,2.955000162E0,-2.439105034E1,-1.747050047E0,2.463143411E1
9.055944480E-1,2.802000046E0,-2.412300110E1,-1.977000117E0,2.436552720E1
9.075576800E-1,2.533950090E0,-2.373900032E1,-2.092050076E0,2.396534399E1
9.095208300E-1,2.188950062E0,-2.335605049E1,-2.014950037E0,2.354477905E1
9.114841200E-1,1.843950033E0,-2.304900169E1,-2.053950071E0,2.321368867E1
9.134473690E-1,1.384050012E0,-2.281905174E1,-2.014950037E0,2.294961308E1
9.154105440E-1,1.039050102E0,-2.262795067E1,-1.900950074E0,2.273141852E1
9.173737470E-1,6.169500351E-1,-2.255100060E1,-1.708950043E0,2.262407491E1
9.193364410E-1,1.960500032E-1,-2.251305199E1,-1.516950130E0,2.256495254E1
9.212992850E-1,-1.099500060E-1,-2.258895111E1,-1.363950014E0,2.263035928E1
9.232626260E-1,-3.019500077E-1,-2.270400047E1,-1.096050024E0,2.273244679E1
9.252258220E-1,-6.469500065E-1,-2.278095055E1,-8.269500136E-1,2.280513316E1
9.271890540E-1,-8.380500674E-1,-2.281905174E1,-7.120500207E-1,2.284553492E1
9.291522780E-1,-9.919500351E-1,-2.293395042E1,-4.440000355E-1,2.295968604E1
9.311156900E-1,-1.106999993E0,-2.293395042E1,-2.140500098E-1,2.296164952E1
9.330790470E-1,-1.222050071E0,-2.297295189E1,-9.900000691E-2,2.300564552E1
9.350424370E-1,-1.489950061E0,-2.297295189E1,9.195000678E-2,2.302140144E1
9.370058170E-1,-1.567050099E0,-2.285805130E1,2.070000172E-1,2.291263853E1
9.389684820E-1,-1.605000019E0,-2.281905174E1,3.600000143E-1,2.287825928E1
9.409313570E-1,-1.834950089E0,-2.266605186E1,4.750500321E-1,2.274516699E1
9.428946480E-1,-1.911000133E0,-2.247405052E1,6.280500293E-1,2.256389406E1
9.448578170E-1,-2.026050091E0,-2.232105064E1,8.200500607E-1,2.242781003E1
9.468212390E-1,-2.103000164E0,-2.212995148E1,9.730500579E-1,2.225093680E1
9.487845860E-1,-2.179949999E0,-2.186100197E1,1.087950110E0,2.199634571E1
9.507481070E-1,-2.179949999E0,-2.155500031E1,1.165050030E0,2.169625686E1
9.527115810E-1,-2.218050003E0,-2.128605080E1,1.279950023E0,2.143954235E1
9.546746360E-1,-2.140950203E0,-2.094105148E1,1.356000066E0,2.109383894E1
9.566378140E-1,-2.103000164E0,-2.055795097E1,1.432950020E0,2.071485708E1
9.586010520E-1,-1.987950087E0,-2.021295166E1,1.432950020E0,2.036096034E1
9.605642730E-1,-1.834950089E0,-1.986795044E1,1.395000100E0,2.000121301E1
9.625275880E-1,-1.681950092E0,-1.952295113E1,1.432950020E0,1.964759330E1
9.644909120E-1,-1.528050065E0,-1.917795181E1,1.395000100E0,1.928924047E1
9.664544870E-1,-1.297950029E0,-1.883295059E1,1.395000100E0,1.892909738E1
9.684179890E-1,-1.183050036E0,-1.841205025E1,1.395000100E0,1.850268162E1
9.703812200E-1,-9.150000215E-1,-1.810500145E1,1.471050024E0,1.818769614E1
9.723445300E-1,-7.230000496E-1,-1.776000023E1,1.432950020E0,1.783237738E1
9.743078760E-1,-5.700000525E-1,-1.745400047E1,1.471050024E0,1.752515394E1
9.762712150E-1,-3.019500077E-1,-1.707000160E1,1.510050058E0,1.713932261E1
9.782340680E-1,-3.299999982E-2,-1.680195045E1,1.585950017E0,1.687666630E1
9.801970630E-1,1.960500032E-1,-1.645695114E1,1.816050053E0,1.655801058E1
9.821601980E-1,3.109500110E-1,-1.615005112E1,1.930950046E0,1.626804872E1
9.841232920E-1,4.260000288E-1,-1.569000053E1,2.008050203E0,1.582371190E1
9.860865430E-1,5.790000558E-1,-1.530705070E1,1.930950046E0,1.543922312E1
9.880497500E-1,5.410500169E-1,-1.477095032E1,1.969950080E0,1.491155296E1
9.900136610E-1,5.790000558E-1,-1.423395061E1,1.893000126E0,1.437094432E1
9.919773650E-1,8.089500666E-1,-1.388895035E1,1.855050087E0,1.403561729E1
9.939405160E-1,9.619500637E-1,-1.331400108E1,1.663050056E0,1.345190352E1
9.959038290E-1,1.000050068E0,-1.289295101E1,1.548000097E0,1.302400055E1
9.978670550E-1,1.039050102E0,-1.235595036E1,1.471050024E0,1.248651763E1
9.998303000E-1,1.153950095E0,-1.189605045E1,1.318050027E0,1.202434502E1
1.001793573E0,1.192050099E0,-1.143600082E1,1.050000072E0,1.154580437E1
1.003756837E0,1.077000022E0,-1.090005016E1,7.810500264E-1,1.098094084E1
1.005720197E0,1.077000022E0,-1.051605034E1,5.509500504E-1,1.058540456E1
1.007683529E0,1.039050102E0,-1.001805019E1,3.220500052E-1,1.007693758E1
1.009647259E0,1.039050102E0,-9.595950127E0,-2.205000073E-2,9.652065590E0
1.011610890E0,1.077000022E0,-9.136050224E0,-2.140500098E-1,9.201802006E0
1.013574278E0,1.230000019E0,-8.791950226E0,-3.670500219E-1,8.885156979E0
1.015537738E0,1.230000019E0,-8.293050766E0,-5.209500194E-1,8.399939284E0
1.017501064E0,1.306950092E0,-7.909950256E0,-5.590500236E-1,8.036664018E0
1.019464430E0,1.422000051E0,-7.527000427E0,-5.970000029E-1,7.683373516E0
1.021427488E0,1.459950089E0,-7.143000126E0,-5.970000029E-1,7.315074440E0
1.023390647E0,1.729050040E0,-6.645000458E0,-5.590500236E-1,6.888989915E0
1.025353665E0,1.843950033E0,-6.184950352E0,-4.440000355E-1,6.469227049E0
1.027316724E0,2.035050154E0,-5.764050484E0,-1.369500011E-1,6.114283475E0
1.029279803E0,2.227050066E0,-5.341950417E0,5.295000225E-2,5.787831196E0
1.031242876E0,2.341950178E0,-4.920000076E0,1.680000126E-1,5.451546147E0
1.033205449E0,2.494950056E0,-4.537050247E0,5.130000114E-1,5.203149982E0
1.035168175E0,2.649000168E0,-4.116000175E0,8.200500607E-1,4.962977074E0
1.037131627E0,2.686950207E0,-3.694050074E0,1.165050030E0,4.714132893E0
1.039094866E0,2.649000168E0,-3.234000206E0,1.395000100E0,4.407038064E0
1.041058276E0,2.764050245E0,-2.889000177E0,1.510050058E0,4.273938109E0
1.043021635E0,2.725050211E0,-2.620950222E0,1.777950048E0,4.178083902E0
1.044985034E0,2.764050245E0,-2.314050198E0,1.969950080E0,4.107980695E0
1.046948414E0,2.802000046E0,-1.930950046E0,2.314950228E0,4.115673322E0
1.048911980E0,2.764050245E0,-1.548000097E0,2.467950106E0,4.015850568E0
1.050875491E0,2.802000046E0,-1.318050027E0,2.620950222E0,4.056826370E0
1.052838720E0,2.839950085E0,-1.011000037E0,2.620950222E0,3.994598556E0
1.054802032E0,2.878050089E0,-7.039500475E-1,2.583000183E0,3.930726133E0
1.056765068E0,2.878050089E0,-4.360500276E-1,2.430000067E0,3.791861319E0
1.058728185E0,2.764050245E0,-2.059500068E-1,2.122950077E0,3.491318690E0
1.060690534E0,2.686950207E0,-9.105000645E-2,1.930950046E0,3.310069425E0
1.062653108E0,2.572050095E0,9.900000691E-2,1.663050056E0,3.064470293E0
1.064616631E0,2.457000017E0,2.910000086E-1,1.432950020E0,2.859173980E0
1.066579876E0,2.380050182E0,4.440000355E-1,1.203000069E0,2.703513282E0
1.068543309E0,2.265000105E0,5.980500579E-1,9.349500537E-1,2.522304690E0
1.070506669E0,2.188950062E0,7.129500508E-1,5.509500504E-1,2.367138802E0
1.072470193E0,2.035050154E0,7.890000343E-1,2.449500114E-1,2.196349401E0
1.074433669E0,1.920000076E0,9.040500522E-1,-6.105000153E-2,2.123071806E0
1.076396679E0,1.729050040E0,9.810000658E-1,-4.060500264E-1,2.029002660E0
1.078359825E0,1.614000082E0,1.096050024E0,-7.890000343E-1,2.104481640E0
1.080322894E0,1.537050128E0,1.173000097E0,-1.171950102E0,2.260955410E0
1.082285983E0,1.422000051E0,1.249050021E0,-1.594050050E0,2.474511196E0
1.084249101E0,1.384050012E0,1.326000094E0,-2.014950037E0,2.780988014E0
1.086212211E0,1.384050012E0,1.402950048E0,-2.398950100E0,3.104645689E0
1.088175463E0,1.345050097E0,1.479000092E0,-2.782050133E0,3.425843542E0
1.090138673E0,1.306950092E0,1.594050050E0,-3.280050039E0,3.873995659E0
1.092101523E0,1.269000053E0,1.671000123E0,-3.586950064E0,4.155576170E0
1.094064464E0,1.269000053E0,1.708950043E0,-4.009050369E0,4.539092007E0
1.096027608E0,1.230000019E0,1.786050081E0,-4.429950237E0,4.932274733E0
1.097990693E0,1.077000022E0,1.900950074E0,-4.736999989E0,5.216580213E0
1.099953589E0,1.039050102E0,1.900950074E0,-5.082000256E0,5.524487569E0
1.101916541E0,9.619500637E-1,1.900950074E0,-5.464950085E0,5.865546738E0
1.103879769E0,8.850000501E-1,1.978050113E0,-5.695050240E0,6.093398442E0
1.105842919E0,8.470500112E-1,2.053950071E0,-6.040050507E0,6.435714004E0
1.107805849E0,8.089500666E-1,2.131050110E0,-6.232050419E0,6.635829052E0
1.109768844E0,7.699500322E-1,2.208000183E0,-6.615000248E0,7.016146816E0
1.111732430E0,6.940500140E-1,2.208000183E0,-6.844950199E0,7.225670450E0
1.113695842E0,6.940500140E-1,2.284050226E0,-7.075050354E0,7.466922282E0
1.115658707E0,6.940500140E-1,2.322000027E0,-7.266000271E0,7.659513658E0
1.117621747E0,7.699500322E-1,2.398950100E0,-7.305000305E0,7.727277276E0
1.119584829E0,7.699500322E-1,2.437050104E0,-7.342950344E0,7.775021287E0
1.121547899E0,7.320000529E-1,2.476050138E0,-7.113000393E0,7.567127788E0
1.123510977E0,7.699500322E-1,2.551950216E0,-6.652950287E0,7.167078936E0
1.125474053E0,8.850000501E-1,2.782050133E0,-5.848050117E0,6.536261791E0
1.127437130E0,9.619500637E-1,2.896950245E0,-4.890000343E0,5.764527041E0
1.129400207E0,1.114950061E0,2.935950041E0,-3.855000257E0,4.972317696E0
1.131363239E0,1.269000053E0,2.896950245E0,-2.896950245E0,4.288939563E0
1.133326285E0,1.345050097E0,2.782050133E0,-1.977000117E0,3.668445470E0
1.135289233E0,1.498950124E0,2.551950216E0,-1.096050024E0,3.156046108E0
1.137252209E0,1.729050040E0,2.322000027E0,-3.289500177E-1,2.913675733E0
1.139214353E0,1.804950118E0,2.053950071E0,2.449500114E-1,2.745278917E0
1.141176743E0,1.843950033E0,1.671000123E0,7.429500222E-1,2.596992082E0
1.143139982E0,1.959000111E0,1.288050056E0,1.126049995E0,2.600911950E0
1.145102972E0,1.882050037E0,9.040500522E-1,1.432950020E0,2.532343697E0
1.147066199E0,1.729050040E0,4.060500264E-1,1.585950017E0,2.381119090E0
1.149029356E0,1.384050012E0,9.900000691E-2,1.816050053E0,2.285483150E0
1.150993553E0,1.230000019E0,-1.680000126E-1,1.969950080E0,2.328481773E0
1.152957408E0,1.039050102E0,-2.830500007E-1,2.085000038E0,2.346692902E0
1.154920353E0,8.850000501E-1,-4.740000367E-1,2.008050203E0,2.245031568E0
1.156883564E0,6.940500140E-1,-6.660000086E-1,1.855050087E0,2.089610552E0
1.158845942E0,5.410500169E-1,-7.810500264E-1,1.777950048E0,2.015906902E0
1.160808564E0,4.639500082E-1,-8.190000653E-1,1.624950051E0,1.877890675E0
1.162772039E0,3.870000243E-1,-8.959500194E-1,1.510050058E0,1.797984047E0
1.164735260E0,3.109500110E-1,-9.340500236E-1,1.471050024E0,1.770064273E0
1.166698313E0,2.719500065E-1,-9.340500236E-1,1.432950020E0,1.731979218E0
1.168661415E0,2.340000123E-1,-8.580000401E-1,1.432950020E0,1.686495133E0
1.170624667E0,1.960500032E-1,-8.580000401E-1,1.395000100E0,1.649431706E0
1.172587875E0,1.960500032E-1,-8.580000401E-1,1.395000100E0,1.649431706E0
1.174550967E0,1.189500093E-1,-8.580000401E-1,1.279950023E0,1.545504848E0
1.176514099E0,1.189500093E-1,-7.810500264E-1,1.395000100E0,1.603188550E0
1.178477345E0,1.189500093E-1,-7.429500222E-1,1.471050024E0,1.652305061E0
1.180440558E0,1.189500093E-1,-6.660000086E-1,1.471050024E0,1.619164380E0
1.182403927E0,1.189500093E-1,-7.039500475E-1,1.471050024E0,1.635140039E0
1.184367251E0,8.100000024E-2,-6.660000086E-1,1.471050024E0,1.616819466E0
1.186330655E0,1.189500093E-1,-6.660000086E-1,1.395000100E0,1.550396851E0
1.188294029E0,1.189500093E-1,-6.660000086E-1,1.318050027E0,1.481540074E0
1.190257415E0,1.189500093E-1,-6.280500293E-1,1.203000069E0,1.362279380E0
1.192220798E0,8.100000024E-2,-5.509500504E-1,1.050000072E0,1.188531492E0
1.194184004E0,4.200000316E-2,-4.740000367E-1,1.050000072E0,1.152796680E0
1.196147262E0,1.189500093E-1,-4.360500276E-1,9.730500579E-1,1.072900343E0
1.198110566E0,1.960500032E-1,-4.360500276E-1,1.050000072E0,1.153722402E0
1.200073832E0,2.719500065E-1,-4.740000367E-1,1.165050030E0,1.286846694E0
1.202037372E0,3.109500110E-1,-4.740000367E-1,1.240950108E0,1.364303160E0
1.204000832E0,3.109500110E-1,-4.740000367E-1,1.279950023E0,1.399870710E0
1.205964025E0,3.490500152E-1,-4.740000367E-1,1.279950023E0,1.408823626E0
1.207927296E0,3.490500152E-1,-4.360500276E-1,1.279950023E0,1.396512657E0
1.209890519E0,3.870000243E-1,-3.979500234E-1,1.356000066E0,1.465219922E0
1.211853757E0,4.260000288E-1,-3.589500189E-1,1.395000100E0,1.502113984E0
1.213817526E0,4.639500082E-1,-3.210000098E-1,1.356000066E0,1.468681992E0
1.215781140E0,5.410500169E-1,-3.210000098E-1,1.356000066E0,1.494828520E0
1.217744667E0,5.410500169E-1,-2.830500007E-1,1.395000100E0,1.522786165E0
1.219708219E0,5.020500422E-1,-2.830500007E-1,1.432950020E0,1.544511996E0
1.221671629E0,4.260000288E-1,-2.830500007E-1,1.471050024E0,1.557427848E0
1.223635074E0,3.870000243E-1,-2.059500068E-1,1.510050058E0,1.572398042E0
1.225598088E0,3.490500152E-1,-1.680000126E-1,1.471050024E0,1.521199556E0
1.227561228E0,3.490500152E-1,-1.680000126E-1,1.471050024E0,1.521199556E0
1.229524294E0,4.639500082E-1,-1.680000126E-1,1.395000100E0,1.479695541E0
1.231487382E0,4.260000288E-1,-2.059500068E-1,1.395000100E0,1.473063715E0
1.233450771E0,4.639500082E-1,-2.830500007E-1,1.318050027E0,1.425700805E0
1.235414072E0,5.410500169E-1,-3.210000098E-1,1.395000100E0,1.530294549E0
1.237377516E0,6.169500351E-1,-3.979500234E-1,1.395000100E0,1.576393620E0
1.239340918E0,7.320000529E-1,-4.360500276E-1,1.471050024E0,1.699985846E0
1.241303940E0,7.699500322E-1,-4.740000367E-1,1.510050058E0,1.760042689E0
1.243267074E0,7.320000529E-1,-5.509500504E-1,1.585950017E0,1.831558760E0
1.245230450E0,6.940500140E-1,-5.890500546E-1,1.777950048E0,1.997446311E0
1.247193759E0,7.699500322E-1,-6.660000086E-1,1.855050087E0,2.116031637E0
1.249157157E0,8.470500112E-1,-7.429500222E-1,1.969950080E0,2.269398990E0
1.251120529E0,8.470500112E-1,-7.039500475E-1,2.122950077E0,2.391643038E0
1.253083781E0,8.470500112E-1,-7.429500222E-1,2.200050116E0,2.471778503E0
1.255047069E0,1.000050068E0,-7.429500222E-1,2.353049994E0,2.662502422E0
1.257010231E0,1.039050102E0,-7.810500264E-1,2.430000067E0,2.755823758E0
1.258973440E0,1.114950061E0,-8.580000401E-1,2.467950106E0,2.840784299E0
1.260936314E0,1.192050099E0,-8.959500194E-1,2.430000067E0,2.851071764E0
1.262899286E0,1.269000053E0,-8.580000401E-1,2.314950228E0,2.775881799E0
1.264862740E0,1.306950092E0,-9.340500236E-1,2.122950077E0,2.662233089E0
1.266826053E0,1.384050012E0,-8.959500194E-1,1.930950046E0,2.539072459E0
1.268789271E0,1.537050128E0,-1.011000037E0,1.740000129E0,2.532241027E0
1.270752517E0,1.767000079E0,-1.011000037E0,1.432950020E0,2.489529296E0
1.272715969E0,2.035050154E0,-1.048950076E0,1.165050030E0,2.568864917E0
1.274679361E0,2.341950178E0,-1.048950076E0,9.349500537E-1,2.731146005E0
1.276642385E0,2.533950090E0,-1.087950110E0,7.429500222E-1,2.855961001E0
1.278605517E0,2.610000134E0,-1.087950110E0,6.280500293E-1,2.896581257E0
1.280568763E0,2.764050245E0,-1.011000037E0,7.050000429E-1,3.026403789E0
1.282531976E0,2.802000046E0,-9.340500236E-1,6.660000086E-1,3.027740034E0
1.284494986E0,2.839950085E0,-8.580000401E-1,8.580000401E-1,3.088307728E0
1.286458055E0,2.878050089E0,-7.810500264E-1,1.050000072E0,3.161599533E0
1.288421132E0,2.839950085E0,-6.660000086E-1,1.165050030E0,3.141053019E0
1.290384207E0,2.764050245E0,-6.660000086E-1,1.240950108E0,3.102174550E0
1.292347465E0,2.725050211E0,-6.280500293E-1,1.240950108E0,3.059461172E0
1.294310669E0,2.649000168E0,-6.280500293E-1,1.318050027E0,3.024715623E0
1.296274130E0,2.649000168E0,-5.890500546E-1,1.279950023E0,3.000408958E0
1.298237515E0,2.572050095E0,-5.890500546E-1,1.203000069E0,2.899936348E0
1.300201080E0,2.494950056E0,-5.890500546E-1,1.126049995E0,2.799954346E0
1.302164592E0,2.457000017E0,-5.509500504E-1,1.011000037E0,2.713395680E0
1.304128110E0,2.457000017E0,-4.740000367E-1,9.349500537E-1,2.671265004E0
1.306091613E0,2.419050217E0,-4.740000367E-1,1.011000037E0,2.664320000E0
1.308054977E0,2.419050217E0,-4.360500276E-1,8.959500194E-1,2.616232026E0
1.310018382E0,2.380050182E0,-3.589500189E-1,6.660000086E-1,2.497406655E0
1.311981628E0,2.341950178E0,-3.979500234E-1,6.280500293E-1,2.457140960E0
1.313944920E0,2.341950178E0,-3.210000098E-1,3.600000143E-1,2.391102602E0
1.315909157E0,2.341950178E0,-3.210000098E-1,1.300500035E-1,2.367421519E0
1.317873130E0,2.304000139E0,-3.589500189E-1,-1.759500057E-1,2.338422580E0
1.319836235E0,2.304000139E0,-3.589500189E-1,-4.440000355E-1,2.373688646E0
1.321799594E0,2.265000105E0,-3.589500189E-1,-7.890000343E-1,2.425199300E0
1.323762847E0,2.149950027E0,-4.360500276E-1,-1.057050109E0,2.435113895E0
1.325726132E0,2.035050154E0,-5.509500504E-1,-1.287000060E0,2.470089926E0
1.327689463E0,1.959000111E0,-7.039500475E-1,-1.516950130E0,2.575726073E0
1.329652798E0,1.920000076E0,-1.011000037E0,-1.708950043E0,2.762070169E0
1.331616192E0,1.959000111E0,-1.240950108E0,-1.977000117E0,3.047321458E0
1.333579568E0,1.996950150E0,-1.393950105E0,-2.284050226E0,3.338830968E0
1.335542999E0,1.959000111E0,-1.701000094E0,-2.743950129E0,3.776287206E0
1.337506414E0,1.920000076E0,-2.083950043E0,-3.280050039E0,4.334509930E0
1.339469710E0,1.996950150E0,-2.467050076E0,-4.009050369E0,5.113377635E0
1.341433069E0,2.111999989E0,-3.042000055E0,-4.890000343E0,6.134037141E0
1.343396278E0,2.149950027E0,-3.655950069E0,-6.117000103E0,7.443517065E0
1.345359531E0,2.227050066E0,-4.498950005E0,-7.573050499E0,9.085779933E0
1.347322982E0,2.188950062E0,-5.227050304E0,-8.838000298E0,1.049875262E1
1.349286375E0,1.767000079E0,-5.764050484E0,-9.144000053E0,1.095259349E1
1.351249549E0,1.575000048E0,-6.031950474E0,-8.185950279E0,1.028954973E1
1.353212777E0,1.345050097E0,-6.070050240E0,-6.460950375E0,8.966523820E0
1.355176187E0,1.269000053E0,-5.878950119E0,-4.123950005E0,7.292419302E0
1.357139544E0,1.192050099E0,-5.494950294E0,-2.053950071E0,5.986165139E0
1.359102213E0,1.114950061E0,-5.304000378E0,-2.910000086E-1,5.427726471E0
1.361065084E0,1.039050102E0,-5.149950027E0,1.203000069E0,5.389695684E0
1.363028556E0,9.240000248E-1,-5.227050304E0,2.122950077E0,5.716882714E0
1.364991851E0,7.320000529E-1,-6.109050274E0,2.659050226E0,6.702750736E0
1.366954396E0,-1.480500102E-1,-8.254950523E0,2.965950251E0,8.772855170E0
1.368917161E0,-2.946000099E0,-1.158900070E1,2.659050226E0,1.224966946E1
1.370880786E0,-6.970950127E0,-1.622700119E1,2.736000061E0,1.787163702E1
1.372844159E0,-1.053495026E1,-1.998300171E1,3.004050255E0,2.278880980E1
1.374807716E0,-1.413795090E1,-2.262795067E1,2.889000177E0,2.683751347E1
1.376771226E0,-1.685895157E1,-2.592405128E1,3.310950041E0,3.110053172E1
1.378734455E0,-1.850699997E1,-2.968005180E1,4.000950336E0,3.520542752E1
1.380697767E0,-1.961895180E1,-3.347400284E1,4.921050072E0,3.911047007E1
1.382660983E0,-1.992495155E1,-3.700094986E1,6.223950386E0,4.248307361E1
1.384624228E0,-1.919700050E1,-4.064205170E1,7.029000282E0,4.549404400E1
1.386587236E0,-1.774095154E1,-4.409100342E1,8.217000008E0,4.823149420E1
1.388550310E0,-1.517295074E1,-4.662105179E1,8.907000542E0,4.983046822E1
1.390513252E0,-1.160805035E1,-4.849905396E1,9.481950760E0,5.076231336E1
1.392476233E0,-7.776000500E0,-4.995495224E1,9.558000565E0,5.145210211E1
1.394439686E0,-4.018949986E0,-5.125905228E1,8.485050201E0,5.211178827E1
1.396403000E0,-4.930500090E-1,-5.290695190E1,6.876000404E0,5.335417547E1
1.398366762E0,3.184950113E0,-5.478495407E1,5.266050339E0,5.512954186E1
1.400330389E0,6.136050224E0,-5.635605240E1,2.965950251E0,5.676665055E1
1.402294453E0,9.126000404E0,-5.773605347E1,-5.590500236E-1,5.845552404E1
1.404258389E0,1.215405083E1,-5.888595200E1,-5.388000488E0,6.036809458E1
1.406221275E0,1.491300106E1,-5.942205429E1,-1.006395054E1,6.208591819E1
1.408184468E0,1.767300034E1,-5.942205429E1,-1.401195049E1,6.355824285E1
1.410147516E0,2.012595177E1,-5.823405457E1,-1.688700104E1,6.388606929E1
1.412110613E0,2.100705147E1,-5.478495407E1,-1.795995140E1,6.136161062E1
1.414073731E0,2.031795120E1,-5.007000351E1,-1.734705162E1,5.675160432E1
1.416036842E0,1.836300087E1,-4.554795074E1,-1.577505112E1,5.158166201E1
1.417999869E0,1.533495045E1,-4.163805008E1,-1.339905071E1,4.635107852E1
1.419962921E0,1.242195034E1,-3.857205200E1,-1.067805004E1,4.190619046E1
1.421926186E0,9.931050301E0,-3.615705109E1,-7.840950489E0,3.830716131E1
1.423889385E0,7.822950363E0,-3.416400146E1,-5.158050060E0,3.542573964E1
1.425852262E0,6.213000298E0,-3.255495071E1,-2.859000206E0,3.326559891E1
1.427815233E0,4.450050354E0,-3.102195168E1,-7.510500550E-1,3.134850092E1
1.429777652E0,2.955000162E0,-2.956500053E1,1.087950110E0,2.973222020E1
1.431740233E0,1.729050040E0,-2.860695076E1,1.777950048E0,2.871425347E1
1.433702420E0,8.470500112E-1,-2.803200150E1,1.893000126E0,2.810861169E1
1.435664743E0,1.960500032E-1,-2.776395226E1,1.624950051E0,2.781215459E1
1.437629030E0,8.100000024E-2,-2.772495079E1,1.126049995E0,2.774792688E1
1.439592741E0,5.790000558E-1,-2.776395226E1,2.449500114E-1,2.777106923E1
1.441555890E0,1.269000053E0,-2.784000206E1,-4.060500264E-1,2.787186668E1
1.443519204E0,2.111999989E0,-2.787900162E1,-1.171950102E0,2.798343693E1
1.445482270E0,2.992950201E0,-2.787900162E1,-1.708950043E0,2.809122625E1
1.447445420E0,3.645000219E0,-2.780205154E1,-2.206950188E0,2.812669063E1
1.449408484E0,4.066950321E0,-2.764905167E1,-2.704950094E0,2.807715972E1
1.451371574E0,4.411950111E0,-2.737995148E1,-2.935050249E0,2.788801833E1
1.453334828E0,4.258049965E0,-2.695905113E1,-2.935050249E0,2.745060924E1
1.455298033E0,4.027950287E0,-2.642205048E1,-2.935050249E0,2.688798347E1
1.457261459E0,3.682950258E0,-2.584695053E1,-2.667000055E0,2.624389193E1
1.459224813E0,3.262050152E0,-2.515695190E1,-2.514000177E0,2.549183001E1
1.461187798E0,2.839950085E0,-2.450595093E1,-2.206950188E0,2.476847949E1
1.463150892E0,2.227050066E0,-2.389305115E1,-1.939050078E0,2.407483251E1
1.465114190E0,1.690050125E0,-2.331795120E1,-1.786050081E0,2.344724062E1
1.467077428E0,1.230000019E0,-2.297295189E1,-1.516950130E0,2.305581394E1
1.469040248E0,8.850000501E-1,-2.274300194E1,-1.326000094E0,2.279880783E1
1.471003194E0,5.790000558E-1,-2.274300194E1,-1.096050024E0,2.277675798E1
1.472966337E0,3.490500152E-1,-2.293395042E1,-1.018950105E0,2.295922859E1
1.474929423E0,1.189500093E-1,-2.304900169E1,-7.510500550E-1,2.306154167E1
1.476892814E0,4.050000105E-3,-2.316405106E1,-6.739500165E-1,2.317385351E1
1.478856115E0,-7.200000435E-2,-2.324100113E1,-5.590500236E-1,2.324783548E1
1.480819395E0,-1.480500102E-1,-2.324100113E1,-2.140500098E-1,2.324245834E1
1.482782671E0,-2.250000089E-1,-2.324100113E1,5.295000225E-2,2.324215055E1
1.484744993E0,-4.170000255E-1,-2.312595177E1,3.220500052E-1,2.313195302E1
1.486707594E0,-4.549500346E-1,-2.304900169E1,7.050000429E-1,2.306426855E1
1.488670932E0,-5.700000525E-1,-2.285805130E1,1.050000072E0,2.288925314E1
1.490634054E0,-6.850500107E-1,-2.266605186E1,1.318050027E0,2.271467492E1
1.492597484E0,-8.770500422E-1,-2.239800072E1,1.356000066E0,2.245614368E1
1.494560823E0,-8.770500422E-1,-2.220600128E1,1.471050024E0,2.227194868E1
1.496524036E0,-1.068000078E0,-2.190000153E1,1.548000097E0,2.198060498E1
1.498487286E0,-1.144950032E0,-2.170800018E1,1.585950017E0,2.179594962E1
1.500451053E0,-1.144950032E0,-2.155500031E1,1.816050053E0,2.166164783E1
1.502414669E0,-1.183050036E0,-2.124795151E1,1.930950046E0,2.136828535E1
1.504377979E0,-1.222050071E0,-2.094105148E1,2.046000004E0,2.107622261E1
1.506341372E0,-1.183050036E0,-2.063505173E1,2.275950193E0,2.079386728E1
1.508304575E0,-1.068000078E0,-2.036595154E1,2.314950228E0,2.052490197E1
1.510267834E0,-8.770500422E-1,-2.009805107E1,2.275950193E0,2.024551365E1
1.512230744E0,-6.079500318E-1,-1.971495056E1,2.200050116E0,1.984663950E1
1.514193757E0,-4.170000255E-1,-1.917795181E1,2.122950077E0,1.929960211E1
1.516156813E0,-1.870500147E-1,-1.867995071E1,1.969950080E0,1.878446831E1
1.518119846E0,-1.870500147E-1,-1.806705093E1,1.777950048E0,1.815528638E1
1.520083110E0,-7.200000435E-2,-1.749195099E1,1.624950051E0,1.756741290E1
1.522046307E0,4.050000105E-3,-1.691700172E1,1.432950020E0,1.697758256E1
1.524009364E0,4.200000316E-2,-1.626495171E1,1.356000066E0,1.632143236E1
1.525972463E0,-3.299999982E-2,-1.565205097E1,1.203000069E0,1.569824824E1
1.527935975E0,4.200000316E-2,-1.500105095E1,1.050000072E0,1.503781213E1
1.529899341E0,-1.099500060E-1,-1.438695049E1,9.730500579E-1,1.442023786E1
1.531862909E0,-1.870500147E-1,-1.369695091E1,9.349500537E-1,1.373009773E1
1.533826418E0,-1.480500102E-1,-1.312305069E1,8.580000401E-1,1.315190261E1
1.535789557E0,-2.250000089E-1,-1.243305016E1,5.899500251E-1,1.244907234E1
1.537752805E0,-3.019500077E-1,-1.181895065E1,3.979500234E-1,1.182950263E1
1.539716978E0,-4.549500346E-1,-1.116795063E1,3.979500234E-1,1.118429546E1
1.541680880E0,-3.780000210E-1,-1.059300041E1,2.070000172E-1,1.060176357E1
1.543644132E0,-4.549500346E-1,-9.940950394E0,9.195000678E-2,9.951780196E0
1.545607574E0,-4.170000255E-1,-9.366000175E0,-9.900000691E-2,9.375801262E0
1.547570769E0,-4.930500090E-1,-8.715000153E0,-3.670500219E-1,8.736649912E0
1.549534036E0,-4.549500346E-1,-8.101950645E0,-5.590500236E-1,8.133948655E0
1.551497094E0,-5.700000525E-1,-7.411950588E0,-7.120500207E-1,7.467859587E0
1.553460204E0,-5.700000525E-1,-6.760050297E0,-7.120500207E-1,6.821304516E0
1.555423454E0,-6.850500107E-1,-6.147000313E0,-7.510500550E-1,6.230488147E0
1.557386663E0,-9.150000215E-1,-5.494950294E0,-7.510500550E-1,5.621012361E0
1.559350123E0,-1.144950032E0,-4.920000076E0,-8.269500136E-1,5.118706639E0
1.561313509E0,-1.183050036E0,-4.384050369E0,-7.120500207E-1,4.596359457E0
1.563276880E0,-1.336950064E0,-3.808950186E0,-7.510500550E-1,4.106045930E0
1.565240266E0,-1.489950061E0,-3.234000206E0,-7.120500207E-1,3.631215189E0
1.567203605E0,-1.452000022E0,-2.736000061E0,-7.120500207E-1,3.178209501E0
1.569166958E0,-1.452000022E0,-2.238000154E0,-6.360000372E-1,2.742525260E0
1.571130213E0,-1.375050068E0,-1.816050053E0,-5.970000029E-1,2.354826848E0
1.573093496E0,-1.260000110E0,-1.393950105E0,-4.060500264E-1,1.922387525E0
1.575056704E0,-1.106999993E0,-9.730500579E-1,-9.900000691E-2,1.477185297E0
1.577019944E0,-9.150000215E-1,-6.280500293E-1,1.500000060E-2,1.109908500E0
1.578982407E0,-7.620000243E-1,-2.440500110E-1,2.449500114E-1,8.367825004E-1
1.580945098E0,-4.170000255E-1,-1.290000081E-1,4.750500321E-1,6.451376259E-1
1.582907745E0,-7.200000435E-2,-1.500000060E-2,7.810500264E-1,7.845050315E-1
1.584870405E0,3.109500110E-1,2.140500098E-1,1.050000072E0,1.115799026E0
1.586834783E0,5.790000558E-1,4.060500264E-1,1.318050027E0,1.495785266E0
1.588798648E0,8.470500112E-1,5.590500236E-1,1.471050024E0,1.787181810E0
1.590761996E0,1.192050099E0,6.739500165E-1,1.585950017E0,2.095335181E0
1.592725496E0,1.345050097E0,7.510500550E-1,1.855050087E0,2.411316398E0
1.594689175E0,1.614000082E0,7.890000343E-1,2.008050203E0,2.694398437E0
1.596652802E0,1.920000076E0,8.659500480E-1,2.314950228E0,3.129738701E0
1.598616006E0,2.265000105E0,9.040500522E-1,2.506050110E0,3.496829868E0
1.600579338E0,2.457000017E0,9.040500522E-1,2.583000183E0,3.677777254E0
1.602542866E0,2.610000134E0,9.810000658E-1,2.698050022E0,3.879940173E0
1.604506336E0,2.725050211E0,9.810000658E-1,2.812950134E0,4.037443280E0
1.606469526E0,2.839950085E0,9.810000658E-1,2.851050138E0,4.142000061E0
1.608432799E0,2.839950085E0,1.018950105E0,2.812950134E0,4.125077485E0
1.610396049E0,2.917050123E0,1.096050024E0,2.659050226E0,4.096468623E0
1.612359319E0,2.917050123E0,1.096050024E0,2.430000067E0,3.951633510E0
1.614322677E0,2.917050123E0,1.134000063E0,2.238000154E0,3.847568356E0
1.616286009E0,2.878050089E0,1.173000097E0,2.008050203E0,3.700184747E0
1.618249223E0,2.878050089E0,1.173000097E0,1.740000129E0,3.561839692E0
1.620212472E0,2.839950085E0,1.210950017E0,1.548000097E0,3.453696676E0
1.622175714E0,2.839950085E0,1.249050021E0,1.432950020E0,3.417424205E0
1.624138948E0,2.802000046E0,1.249050021E0,1.318050027E0,3.338949848E0
1.626102043E0,2.764050245E0,1.326000094E0,1.011000037E0,3.228059957E0
1.628065179E0,2.725050211E0,1.363950014E0,8.200500607E-1,3.155747201E0
1.630029281E0,2.649000168E0,1.402950048E0,4.360500276E-1,3.029126995E0
1.631993100E0,2.610000134E0,1.402950048E0,2.070000172E-1,2.970390301E0
1.633956490E0,2.610000134E0,1.441050053E0,-6.105000153E-2,2.982021639E0
1.635919982E0,2.494950056E0,1.441050053E0,-1.759500057E-1,2.886582658E0
1.637883482E0,2.457000017E0,1.479000092E0,-3.289500177E-1,2.886606740E0
1.639846980E0,2.380050182E0,1.518000126E0,-4.440000355E-1,2.857638760E0
1.641810211E0,2.380050182E0,1.479000092E0,-5.590500236E-1,2.857379406E0
1.643773521E0,2.265000105E0,1.518000126E0,-5.590500236E-1,2.783358904E0
1.645736683E0,2.227050066E0,1.479000092E0,-4.819500148E-1,2.716517823E0
1.647699895E0,2.111999989E0,1.441050053E0,-4.060500264E-1,2.588830977E0
1.649663353E0,1.996950150E0,1.479000092E0,-2.520000041E-1,2.497750022E0
1.651626739E0,1.882050037E0,1.441050053E0,-2.140500098E-1,2.380032564E0
1.653590304E0,1.804950118E0,1.441050053E0,-1.369500011E-1,2.313703846E0
1.655553816E0,1.729050040E0,1.402950048E0,1.500000060E-2,2.226680911E0
1.657517140E0,1.575000048E0,1.402950048E0,9.195000678E-2,2.111243423E0
1.659480516E0,1.614000082E0,1.441050053E0,2.830500007E-1,2.182140880E0
1.661443000E0,1.498950124E0,1.441050053E0,3.220500052E-1,2.104089574E0
1.663405746E0,1.422000051E0,1.479000092E0,3.979500234E-1,2.089949673E0
1.665369240E0,1.384050012E0,1.479000092E0,5.509500504E-1,2.099185953E0
1.667332514E0,1.345050097E0,1.518000126E0,5.509500504E-1,2.101673167E0
1.669295913E0,1.306950092E0,1.518000126E0,6.280500293E-1,2.099259337E0
1.671259278E0,1.269000053E0,1.518000126E0,7.429500222E-1,2.113447481E0
1.673222711E0,1.269000053E0,1.479000092E0,8.200500607E-1,2.114304734E0
1.675186124E0,1.192050099E0,1.479000092E0,8.580000401E-1,2.084367717E0
1.677149460E0,1.153950095E0,1.441050053E0,9.349500537E-1,2.069385822E0
1.679112818E0,1.077000022E0,1.479000092E0,8.959500194E-1,2.037178626E0
1.681076266E0,9.619500637E-1,1.479000092E0,9.349500537E-1,1.996727522E0
1.683039677E0,9.240000248E-1,1.441050053E0,8.580000401E-1,1.914827765E0
1.685003192E0,8.850000501E-1,1.479000092E0,9.349500537E-1,1.960815637E0
1.686966677E0,7.699500322E-1,1.441050053E0,9.349500537E-1,1.882439882E0
1.688930091E0,7.320000529E-1,1.363950014E0,8.959500194E-1,1.788549735E0
1.690893526E0,7.699500322E-1,1.326000094E0,9.349500537E-1,1.795892788E0
1.692856370E0,6.169500351E-1,1.363950014E0,9.349500537E-1,1.764969855E0
1.694819381E0,4.260000288E-1,1.326000094E0,9.349500537E-1,1.677463525E0
1.696782828E0,3.870000243E-1,1.249050021E0,9.730500579E-1,1.629945211E0
1.698746148E0,2.340000123E-1,1.249050021E0,1.011000037E0,1.623885167E0
1.700710039E0,1.570500135E-1,1.173000097E0,9.730500579E-1,1.532129352E0
1.702673763E0,4.200000316E-2,1.096050024E0,1.011000037E0,1.491714024E0
1.704637336E0,4.050000105E-3,9.810000658E-1,1.011000037E0,1.408722331E0
1.706600939E0,-1.099500060E-1,8.659500480E-1,1.011000037E0,1.335694413E0
1.708564106E0,-1.480500102E-1,7.890000343E-1,1.011000037E0,1.290953498E0
1.710527401E0,-1.870500147E-1,6.739500165E-1,1.011000037E0,1.229356502E0
1.712490800E0,-1.480500102E-1,4.830000103E-1,9.730500579E-1,1.096373217E0
1.714454168E0,-7.200000435E-2,3.679500222E-1,9.349500537E-1,1.007324586E0
1.716417515E0,-7.200000435E-2,1.759500057E-1,7.810500264E-1,8.038541838E-1
1.718380866E0,-3.299999982E-2,6.105000153E-2,6.660000086E-1,6.696059394E-1
1.720344842E0,4.050000105E-3,-1.500000060E-2,6.660000086E-1,6.661812171E-1
1.722308634E0,4.050000105E-3,-5.295000225E-2,7.050000429E-1,7.069972884E-1
1.724272085E0,-3.299999982E-2,-9.105000645E-2,8.200500607E-1,8.257488757E-1
1.726235636E0,-7.200000435E-2,-1.290000081E-1,8.200500607E-1,8.332509255E-1
1.728198877E0,-1.099500060E-1,-1.290000081E-1,8.200500607E-1,8.373840863E-1
1.730162194E0,-7.200000435E-2,-1.290000081E-1,8.580000401E-1,8.706256781E-1
1.732125365E0,-1.480500102E-1,-1.680000126E-1,8.200500607E-1,8.500734744E-1
1.734088579E0,-2.250000089E-1,-1.680000126E-1,8.959500194E-1,9.389224917E-1
1.736051632E0,-2.250000089E-1,-1.680000126E-1,8.959500194E-1,9.389224917E-1
1.738014733E0,-2.629500031E-1,-1.680000126E-1,9.730500579E-1,1.021857683E0
1.739978145E0,-2.629500031E-1,-2.059500068E-1,9.349500537E-1,9.928190733E-1
1.741941480E0,-2.629500031E-1,-2.059500068E-1,9.730500579E-1,1.028778171E0
1.743904873E0,-2.629500031E-1,-2.440500110E-1,1.011000037E0,1.072764740E0
1.745868249E0,-3.019500077E-1,-2.440500110E-1,1.011000037E0,1.082984437E0
1.747831456E0,-3.780000210E-1,-2.830500007E-1,9.730500579E-1,1.081585750E0
1.749794713E0,-4.549500346E-1,-2.830500007E-1,1.011000037E0,1.144210607E0
1.751757949E0,-5.700000525E-1,-3.210000098E-1,8.959500194E-1,1.109354544E0
1.753721184E0,-5.700000525E-1,-3.210000098E-1,1.011000037E0,1.204185260E0
1.755684458E0,-6.469500065E-1,-3.210000098E-1,1.087950110E0,1.305841016E0
1.757647721E0,-7.999500632E-1,-3.210000098E-1,1.050000072E0,1.358477552E0
1.759610767E0,-8.770500422E-1,-3.979500234E-1,1.011000037E0,1.396317325E0
1.761573877E0,-9.919500351E-1,-4.360500276E-1,1.011000037E0,1.481966792E0
1.763537108E0,-1.030050039E0,-4.360500276E-1,8.959500194E-1,1.433132634E0
1.765500317E0,-1.106999993E0,-5.509500504E-1,8.580000401E-1,1.505044522E0
1.767463552E0,-1.144950032E0,-6.280500293E-1,7.050000429E-1,1.484042613E0
1.769426779E0,-1.144950032E0,-7.039500475E-1,6.280500293E-1,1.483544096E0
1.771391092E0,-1.297950029E0,-8.580000401E-1,4.750500321E-1,1.626810032E0
1.773355086E0,-1.375050068E0,-9.730500579E-1,1.680000126E-1,1.692871262E0
1.775317983E0,-1.489950061E0,-1.126049995E0,-6.105000153E-2,1.868600246E0
1.777281218E0,-1.452000022E0,-1.318050027E0,-4.819500148E-1,2.019365186E0
1.779244223E0,-1.413000107E0,-1.471050024E0,-9.420000315E-1,2.246758005E0
1.781207295E0,-1.375050068E0,-1.738950133E0,-1.708950043E0,2.799146388E0
1.783170372E0,-1.183050036E0,-2.008050203E0,-2.743950129E0,3.600157679E0
1.785133447E0,-9.150000215E-1,-2.199000120E0,-3.664050102E0,4.370136121E0
1.787096782E0,-4.930500090E-1,-2.428950071E0,-4.507050037E0,5.143578210E0
1.789060018E0,-1.099500060E-1,-2.659050226E0,-5.427000046E0,6.044416151E0
1.791024330E0,5.020500422E-1,-2.812050104E0,-6.232050419E0,6.855518394E0
1.792988326E0,1.077000022E0,-2.889000177E0,-6.921000481E0,7.576707644E0
1.794951246E0,1.459950089E0,-2.926950216E0,-7.189950466E0,7.898979652E0
1.796914482E0,2.035050154E0,-3.004050255E0,-7.305000305E0,8.156517426E0
1.798878045E0,2.494950056E0,-2.926950216E0,-7.150950432E0,8.119600078E0
1.800841499E0,2.802000046E0,-2.851050138E0,-6.805950165E0,7.893076003E0
1.802804737E0,2.992950201E0,-2.544000149E0,-6.117000103E0,7.269620205E0
1.804768039E0,2.955000162E0,-2.314050198E0,-5.235000134E0,6.441434675E0
1.806731258E0,3.031950235E0,-1.969050050E0,-4.429950237E0,5.717896417E0
1.808694501E0,2.992950201E0,-1.738950133E0,-3.625050068E0,5.012253632E0
1.810657685E0,2.917050123E0,-1.432950020E0,-2.820000172E0,4.302897646E0
1.812620886E0,2.802000046E0,-1.164000034E0,-2.014950037E0,3.642269071E0
1.814583986E0,2.802000046E0,-8.580000401E-1,-1.249050021E0,3.185513190E0
1.816547116E0,2.839950085E0,-5.890500546E-1,-5.209500194E-1,2.946809355E0
1.818509283E0,2.839950085E0,-2.830500007E-1,1.680000126E-1,2.858960963E0
1.820471732E0,2.917050123E0,-1.680000126E-1,7.429500222E-1,3.014859891E0
1.822434181E0,3.031950235E0,-9.105000645E-2,1.240950108E0,3.277341835E0
1.824396639E0,3.184950113E0,-1.500000060E-2,1.510050058E0,3.524823883E0
1.826359822E0,3.337950230E0,2.295000106E-2,1.701000094E0,3.746443615E0
1.828322793E0,3.529950142E0,9.900000691E-2,1.893000126E0,4.006719167E0
1.830286023E0,3.645000219E0,9.900000691E-2,2.161050081E0,4.238627732E0
1.832249177E0,3.721950293E0,6.105000153E-2,2.620950222E0,4.552584008E0
1.834212793E0,3.721950293E0,-1.500000060E-2,2.889000177E0,4.711630398E0
1.836176297E0,3.721950293E0,-1.500000060E-2,3.273000240E0,4.956376656E0
1.838140202E0,3.760050297E0,-9.105000645E-2,3.541050196E0,5.165782112E0
1.840103990E0,3.682950258E0,-9.105000645E-2,3.886050224E0,5.354792158E0
1.842066900E0,3.607050180E0,-1.680000126E-1,4.153950214E0,5.504029196E0
1.844030068E0,3.568050146E0,-2.059500068E-1,4.345950127E0,5.626782362E0
1.845993484E0,3.453000069E0,-2.830500007E-1,4.576050282E0,5.739648330E0
1.847956831E0,3.376950264E0,-3.979500234E-1,4.806000233E0,5.887257047E0
1.849920043E0,3.108000040E0,-4.740000367E-1,4.882050037E0,5.806785070E0
1.851883294E0,2.878050089E0,-5.890500546E-1,4.996950150E0,5.796521636E0
1.853846701E0,2.610000134E0,-6.660000086E-1,4.959000111E0,5.643344647E0
1.855810062E0,2.380050182E0,-8.580000401E-1,4.729050159E0,5.363274965E0
1.857773252E0,2.111999989E0,-1.011000037E0,4.345950127E0,4.936592705E0
1.859736506E0,1.882050037E0,-1.048950076E0,3.886050224E0,4.443399031E0
1.861699733E0,1.614000082E0,-1.164000034E0,3.502950191E0,4.028715973E0
1.863662968E0,1.459950089E0,-1.164000034E0,3.081000090E0,3.602625695E0
1.865626242E0,1.345050097E0,-1.318050027E0,2.736000061E0,3.321462324E0
1.867589504E0,1.306950092E0,-1.356000066E0,2.391000032E0,3.043638592E0
1.869552652E0,1.230000019E0,-1.393950105E0,2.085000038E0,2.793424798E0
1.871515857E0,1.153950095E0,-1.393950105E0,1.816050053E0,2.563734680E0
1.873479091E0,1.077000022E0,-1.432950020E0,1.663050056E0,2.445201483E0
1.875442316E0,9.619500637E-1,-1.471050024E0,1.471050024E0,2.292013148E0
1.877405773E0,8.470500112E-1,-1.432950020E0,1.318050027E0,2.123227579E0
1.879369162E0,8.470500112E-1,-1.548000097E0,1.203000069E0,2.135651467E0
1.881332517E0,8.089500666E-1,-1.624050021E0,8.959500194E-1,2.023527889E0
1.883295872E0,8.089500666E-1,-1.738950133E0,5.509500504E-1,1.995468300E0
1.885259846E0,7.320000529E-1,-1.969050050E0,2.830500007E-1,2.119693251E0
1.887223639E0,7.320000529E-1,-2.122950077E0,5.295000225E-2,2.246229020E0
1.889186775E0,6.940500140E-1,-2.275950193E0,-1.369500011E-1,2.383361074E0
1.891150103E0,5.790000558E-1,-2.428950071E0,-2.140500098E-1,2.506163786E0
1.893112371E0,5.410500169E-1,-2.659050226E0,-9.900000691E-2,2.715342378E0
1.895074949E0,3.490500152E-1,-2.926950216E0,9.195000678E-2,2.949123308E0
1.897037795E0,1.570500135E-1,-3.426000118E0,4.360500276E-1,3.457207131E0
1.899000562E0,-1.870500147E-1,-4.804950237E0,3.600000143E-1,4.822046713E0
1.900964593E0,-2.332950115E0,-8.523000717E0,9.195000678E-2,8.837004711E0
1.902928254E0,-5.553000450E0,-1.373595047E1,-4.819500148E-1,1.482377904E1
1.904891768E0,-9.232050896E0,-1.741500092E1,-9.040500522E-1,1.973145527E1
1.906855328E0,-1.352505112E1,-1.795200157E1,-2.520000041E-1,2.247809761E1
1.908818097E0,-1.616895103E1,-1.994505119E1,-2.140500098E-1,2.567656250E1
1.910781098E0,-1.781700134E1,-2.312595177E1,5.509500504E-1,2.919860832E1
1.912744367E0,-1.904400063E1,-2.619195175E1,1.777950048E0,3.243228951E1
1.914707557E0,-1.977195168E1,-2.933505058E1,2.467950106E0,3.546217765E1
1.916670642E0,-1.965705109E1,-3.259305191E1,3.388050079E0,3.821237461E1
1.918633771E0,-1.912095070E1,-3.565904999E1,4.537950039E0,4.071574133E1
1.920596973E0,-1.716600037E1,-3.895500183E1,5.380950451E0,4.290825520E1
1.922560154E0,-1.417605114E1,-4.263495255E1,5.994000435E0,4.532800068E1
1.924523393E0,-1.049700069E1,-4.642905045E1,7.029000282E0,4.811705097E1
1.926486615E0,-5.782950401E0,-5.007000351E1,7.872000217E0,5.101388198E1
1.928450407E0,-1.375050068E0,-5.325195312E1,7.756950378E0,5.383151079E1
1.930414019E0,2.725050211E0,-5.597295380E1,6.607050419E0,5.642739202E1
1.932377050E0,6.405000210E0,-5.842605209E1,4.768050194E0,5.896916053E1
1.934340251E0,9.816000938E0,-6.037995148E1,2.620950222E0,6.122876607E1
1.936304342E0,1.326495075E1,-6.214395142E1,5.295000225E-2,6.354394086E1
1.938268173E0,1.671495056E1,-6.360000229E1,-3.012000084E0,6.582873239E1
1.940231191E0,1.997295189E1,-6.451995087E1,-5.962950230E0,6.780338961E1
1.942194430E0,2.311500168E1,-6.463500214E1,-8.838000298E0,6.921052704E1
1.944157479E0,2.610495186E1,-6.352305222E1,-1.060095024E1,6.949119959E1
1.946120584E0,2.782995224E1,-6.041895294E1,-1.209600067E1,6.761116290E1
1.948083296E0,2.737005043E1,-5.539800262E1,-1.270905018E1,6.308389899E1
1.950046123E0,2.487900162E1,-5.014695358E1,-1.305405045E1,5.748121352E1
1.952008992E0,2.066205025E1,-4.516395187E1,-1.240200043E1,5.119094142E1
1.953972025E0,1.617794991E1,-4.083300018E1,-1.052400017E1,4.516430611E1
1.955935244E0,1.238400078E1,-3.742200089E1,-8.416049957E0,4.030632112E1
1.957898409E0,9.586050034E0,-3.458595276E1,-6.117000103E0,3.640739175E1
1.959861876E0,7.285950184E0,-3.209505081E1,-3.855000257E0,3.313666223E1
1.961825255E0,5.715000153E0,-3.002505112E1,-2.014950037E0,3.063045780E1
1.963787765E0,4.603050232E0,-2.830005074E1,-6.105000153E-2,2.867201894E1
1.965750512E0,4.372950077E0,-2.695905113E1,1.395000100E0,2.734701365E1
1.967713645E0,3.990000248E0,-2.588595200E1,1.777950048E0,2.625192791E1
1.969676664E0,3.645000219E0,-2.504205132E1,1.969950080E0,2.538249523E1
1.971639706E0,3.453000069E0,-2.446800041E1,1.740000129E0,2.477163406E1
1.973602741E0,3.453000069E0,-2.404605103E1,1.432950020E0,2.433493631E1
1.975565995E0,3.607050180E0,-2.377800179E1,1.087950110E0,2.407463012E1
1.977529192E0,3.837000132E0,-2.354805183E1,5.509500504E-1,2.386497143E1
1.979493150E0,4.105050087E0,-2.335605049E1,-6.105000153E-2,2.371413625E1
1.981456885E0,4.027950287E0,-2.324100113E1,-7.120500207E-1,2.359821036E1
1.983419895E0,3.798000097E0,-2.304900169E1,-1.287000060E0,2.339524851E1
1.985383118E0,3.492000103E0,-2.285805130E1,-1.671000123E0,2.318354622E1
1.987346524E0,3.031950235E0,-2.274300194E1,-1.977000117E0,2.302922901E1
1.989309880E0,2.457000017E0,-2.255100060E1,-2.092050076E0,2.278071883E1
1.991272730E0,1.882050037E0,-2.239800072E1,-1.939050078E0,2.256041807E1
1.993235728E0,1.269000053E0,-2.243595123E1,-1.671000123E0,2.253385254E1
1.995198278E0,7.320000529E-1,-2.243595123E1,-1.134000063E0,2.247651414E1
1.997160959E0,2.340000123E-1,-2.274300194E1,-5.970000029E-1,2.275203952E1
1.999124068E0,4.050000105E-3,-2.327895164E1,-6.105000153E-2,2.327903205E1
2.001087044E0,-1.870500147E-1,-2.377800179E1,1.680000126E-1,2.377933095E1
2.003049238E0,-3.019500077E-1,-2.412300110E1,3.220500052E-1,2.412704027E1
2.005011661E0,-5.320500135E-1,-2.435295105E1,4.750500321E-1,2.436339415E1
2.006974714E0,-7.620000243E-1,-2.439105034E1,5.899500251E-1,2.441008033E1
2.008937582E0,-1.030050039E0,-2.423805046E1,5.509500504E-1,2.426618304E1
2.010900510E0,-1.183050036E0,-2.419905090E1,5.509500504E-1,2.423421585E1
2.012863423E0,-1.452000022E0,-2.400795174E1,7.050000429E-1,2.406215027E1
2.014826889E0,-1.567050099E0,-2.385405159E1,7.429500222E-1,2.391701064E1
2.016790193E0,-1.681950092E0,-2.366295052E1,8.959500194E-1,2.373956423E1
2.018753412E0,-1.834950089E0,-2.347095108E1,1.050000072E0,2.356597307E1
2.020716656E0,-1.987950087E0,-2.320305061E1,1.165050030E0,2.331717918E1
2.022680052E0,-2.179949999E0,-2.285805130E1,1.240950108E0,2.299527448E1
2.024643380E0,-2.218050003E0,-2.258895111E1,1.356000066E0,2.273805608E1
2.026606415E0,-2.026050091E0,-2.239800072E1,1.548000097E0,2.254266221E1
2.028569536E0,-1.911000133E0,-2.209095192E1,1.740000129E0,2.224162041E1
2.030532650E0,-1.795950055E0,-2.174595070E1,2.161050081E0,2.192674043E1
2.032495767E0,-1.795950055E0,-2.140095139E1,2.467950106E0,2.161751453E1
2.034458822E0,-1.758000135E0,-2.117100143E1,2.698050022E0,2.141451237E1
2.036421906E0,-1.681950092E0,-2.082600021E1,2.889000177E0,2.109259498E1
2.038385161E0,-1.605000019E0,-2.055795097E1,3.004050255E0,2.083817869E1
2.040348365E0,-1.681950092E0,-2.017500114E1,3.043050051E0,2.047241512E1
2.042311736E0,-1.489950061E0,-1.983000183E1,3.118950129E0,2.012900330E1
2.044275058E0,-1.413000107E0,-1.952295113E1,3.273000240E0,1.984577337E1
2.046238343E0,-1.260000110E0,-1.925505066E1,3.234000206E0,1.956536055E1
2.048201622E0,-1.068000078E0,-1.898700142E1,3.310950041E0,1.930308880E1
2.050164800E0,-8.380500674E-1,-1.856505013E1,3.273000240E0,1.886997469E1
2.052128007E0,-6.469500065E-1,-1.810500145E1,3.349050045E0,1.842351101E1
2.054091240E0,-4.549500346E-1,-1.768395042E1,3.349050045E0,1.800403339E1
2.056054466E0,-3.780000210E-1,-1.726200104E1,3.349050045E0,1.758794189E1
2.058017727E0,-3.019500077E-1,-1.684005165E1,3.273000240E0,1.715782748E1
2.059980957E0,-3.019500077E-1,-1.638000107E1,3.118950129E0,1.667703387E1
2.061944054E0,-2.629500031E-1,-1.591995049E1,2.928000212E0,1.618910595E1
2.063907190E0,-3.019500077E-1,-1.542195034E1,2.659050226E0,1.565242071E1
2.065870031E0,-2.629500031E-1,-1.492395115E1,2.391000032E0,1.511655853E1
2.067832959E0,-2.250000089E-1,-1.434900093E1,2.046000004E0,1.449588110E1
2.069796437E0,-1.099500060E-1,-1.377405071E1,1.816050053E0,1.389368921E1
2.071759774E0,-7.200000435E-2,-1.319895077E1,1.585950017E0,1.329408601E1
2.073722988E0,4.200000316E-2,-1.258605099E1,1.318050027E0,1.265494762E1
2.075686238E0,1.189500093E-1,-1.197300053E1,1.011000037E0,1.201619789E1
2.077649780E0,1.960500032E-1,-1.128300095E1,7.050000429E-1,1.130670469E1
2.079613236E0,1.189500093E-1,-1.059300041E1,3.220500052E-1,1.059856231E1
2.081577194E0,8.100000024E-2,-9.979950905E0,-6.105000153E-2,9.980466330E0
2.083541005E0,4.050000105E-3,-9.328050613E0,-5.590500236E-1,9.344789007E0
2.085504317E0,-3.299999982E-2,-8.677050591E0,-9.810000658E-1,8.732391258E0
2.087467776E0,-7.200000435E-2,-8.062950134E0,-1.441050053E0,8.191030101E0
2.089431103E0,8.100000024E-2,-7.527000427E0,-1.977000117E0,7.782726122E0
2.091394468E0,1.570500135E-1,-6.952050209E0,-2.398950100E0,7.355992686E0
2.093357565E0,2.340000123E-1,-6.376950264E0,-2.629050016E0,6.901605224E0
2.095320723E0,3.870000243E-1,-5.839950085E0,-2.820000172E0,6.496705856E0
2.097285002E0,5.410500169E-1,-5.304000378E0,-2.935050249E0,6.086022929E0
2.099248952E0,7.320000529E-1,-4.804950237E0,-2.896950245E0,5.658241032E0
2.101212105E0,7.320000529E-1,-4.345950127E0,-2.859000206E0,5.253283617E0
2.103175492E0,8.470500112E-1,-3.924000263E0,-2.590050220E0,4.777408495E0
2.105138516E0,1.077000022E0,-3.541050196E0,-2.322000027E0,4.369284800E0
2.107101646E0,1.114950061E0,-3.157050133E0,-1.977000117E0,3.888265506E0
2.109064893E0,1.269000053E0,-2.812050104E0,-1.516950130E0,3.437895377E0
2.111028106E0,1.384050012E0,-2.581950188E0,-1.134000063E0,3.141340056E0
2.112991475E0,1.537050128E0,-2.391000032E0,-6.739500165E-1,2.921234820E0
2.114954798E0,1.690050125E0,-2.161050081E0,-3.289500177E-1,2.763080707E0
2.116916933E0,1.843950033E0,-1.893000126E0,1.300500035E-1,2.645848485E0
2.118879416E0,1.920000076E0,-1.738950133E0,6.280500293E-1,2.665482076E0
2.120842459E0,1.996950150E0,-1.509000063E0,1.126049995E0,2.744609204E0
2.122805337E0,2.111999989E0,-1.393950105E0,1.510050058E0,2.946844418E0
2.124768763E0,2.149950027E0,-1.126049995E0,1.816050053E0,3.031222774E0
2.126732029E0,2.188950062E0,-9.340500236E-1,2.122950077E0,3.189179965E0
2.128695415E0,2.265000105E0,-7.039500475E-1,2.430000067E0,3.395684242E0
2.130658779E0,2.341950178E0,-5.130000114E-1,2.659050226E0,3.580285988E0
2.132621853E0,2.457000017E0,-3.589500189E-1,2.889000177E0,3.809464034E0
2.134585012E0,2.610000134E0,-1.680000126E-1,3.081000090E0,4.041396572E0
2.136547489E0,2.802000046E0,-1.290000081E-1,3.118950129E0,4.194722299E0
2.138510166E0,2.992950201E0,-1.500000060E-2,3.157950163E0,4.350933824E0
2.140473398E0,3.147000074E0,1.380000114E-1,3.349050045E0,4.597693952E0
2.142436278E0,3.376950264E0,2.530499995E-1,3.234000206E0,4.682583125E0
2.144399569E0,3.376950264E0,4.060500264E-1,3.234000206E0,4.693338582E0
2.146362740E0,3.492000103E0,5.590500236E-1,3.234000206E0,4.792218586E0
2.148325801E0,3.376950264E0,6.360000372E-1,3.043050051E0,4.590037336E0
2.150288895E0,3.300000191E0,7.510500550E-1,2.965950251E0,4.500104258E0
2.152252027E0,3.147000074E0,8.659500480E-1,2.773950100E0,4.283489011E0
2.154215138E0,3.070050240E0,9.430500269E-1,2.545050144E0,4.097783799E0
2.156178210E0,3.070050240E0,1.018950105E0,2.200050116E0,3.911992881E0
2.158141294E0,2.955000162E0,1.057950020E0,1.855050087E0,3.645887413E0
2.160104504E0,2.878050089E0,1.096050024E0,1.510050058E0,3.429978010E0
2.162067677E0,2.764050245E0,1.173000097E0,1.240950108E0,3.248978325E0
2.164031819E0,2.649000168E0,1.210950017E0,7.429500222E-1,3.005923580E0
2.165995677E0,2.572050095E0,1.288050056E0,1.680000126E-1,2.881447317E0
2.167958981E0,2.533950090E0,1.402950048E0,-3.670500219E-1,2.919571478E0
2.169922448E0,2.533950090E0,1.518000126E0,-1.134000063E0,3.164045446E0
2.171885503E0,2.533950090E0,1.708950043E0,-2.169000149E0,3.747796013E0
2.173848679E0,2.572050095E0,1.900950074E0,-3.586950064E0,4.805753181E0
2.175812073E0,2.649000168E0,2.092950106E0,-4.852050304E0,5.911009575E0
2.177775389E0,2.764050245E0,2.284050226E0,-6.078000069E0,7.056836687E0
2.179738471E0,2.992950201E0,2.398950100E0,-7.266000271E0,8.216293107E0
2.181701622E0,3.147000074E0,2.514000177E0,-8.224950790E0,9.158254302E0
2.183664506E0,3.184950113E0,2.667000055E0,-8.991000175E0,9.904285975E0
2.185627468E0,3.415050268E0,2.743950129E0,-9.489000320E0,1.045145721E1
2.187591049E0,3.529950142E0,2.706000090E0,-9.718950272E0,1.068835716E1
2.189554456E0,3.645000219E0,2.743950129E0,-9.604050636E0,1.063264208E1
2.191517702E0,3.645000219E0,2.667000055E0,-9.298050880E0,1.033695633E1
2.193480996E0,3.760050297E0,2.551950216E0,-8.761050224E0,9.869469549E0
2.195444216E0,3.760050297E0,2.476050138E0,-8.071050644E0,9.241788843E0
2.197407458E0,3.721950293E0,2.398950100E0,-7.150950432E0,8.410943326E0
2.199370471E0,3.682950258E0,2.284050226E0,-6.232050419E0,7.590748347E0
2.201333545E0,3.607050180E0,2.169000149E0,-5.311950207E0,6.777328946E0
2.203297027E0,3.529950142E0,2.092950106E0,-4.276950359E0,5.927334352E0
2.205260389E0,3.415050268E0,2.053950071E0,-3.280050039E0,5.161395886E0
2.207223599E0,3.300000191E0,1.900950074E0,-2.322000027E0,4.460414394E0
2.209186853E0,3.223050117E0,1.747950077E0,-1.441050053E0,3.939543982E0
2.211150078E0,3.108000040E0,1.671000123E0,-5.590500236E-1,3.572736009E0
2.213113313E0,2.992950201E0,1.518000126E0,2.449500114E-1,3.364829237E0
2.215075642E0,2.955000162E0,1.326000094E0,9.730500579E-1,3.381882408E0
2.217038236E0,2.802000046E0,1.210950017E0,1.548000097E0,3.422558765E0
2.219001575E0,2.802000046E0,1.057950020E0,2.008050203E0,3.605929578E0
2.220964696E0,2.686950207E0,9.040500522E-1,2.467950106E0,3.758694672E0
2.222928086E0,2.649000168E0,7.890000343E-1,2.812950134E0,3.943654574E0
2.224891393E0,2.494950056E0,5.980500579E-1,3.118950129E0,4.038599950E0
2.226854612E0,2.457000017E0,4.060500264E-1,3.388050079E0,4.204831631E0
2.228817857E0,2.188950062E0,2.530499995E-1,3.541050196E0,4.170680180E0
2.230781264E0,2.035050154E0,9.900000691E-2,3.655950069E0,4.185355545E0
2.232744624E0,1.804950118E0,2.295000106E-2,3.655950069E0,4.077295984E0
2.234708534E0,1.498950124E0,-5.295000225E-2,3.541050196E0,3.845606801E0
2.236672297E0,1.306950092E0,-1.290000081E-1,3.349050045E0,3.597345653E0
2.238635663E0,1.230000019E0,-1.290000081E-1,3.273000240E0,3.498867191E0
2.240599145E0,9.240000248E-1,-1.290000081E-1,3.043050051E0,3.182855740E0
2.242561432E0,6.940500140E-1,-1.290000081E-1,2.736000061E0,2.825604848E0
2.244524069E0,5.020500422E-1,-1.290000081E-1,2.506050110E0,2.559097966E0
2.246487526E0,3.490500152E-1,-1.680000126E-1,2.200050116E0,2.233893558E0
2.248450749E0,2.719500065E-1,-1.680000126E-1,1.930950046E0,1.957229902E0
2.250414342E0,2.340000123E-1,-1.680000126E-1,1.777950048E0,1.801134749E0
2.252377826E0,2.340000123E-1,-1.680000126E-1,1.585950017E0,1.611898715E0
2.254341059E0,1.570500135E-1,-1.290000081E-1,1.471050024E0,1.485023192E0
2.256304366E0,1.960500032E-1,-1.290000081E-1,1.395000100E0,1.414603084E0
2.258267967E0,1.960500032E-1,-1.290000081E-1,1.279950023E0,1.301287311E0
2.260231465E0,1.570500135E-1,-1.680000126E-1,1.126049995E0,1.149294263E0
2.262194786E0,1.570500135E-1,-1.680000126E-1,1.011000037E0,1.036826787E0
2.264158159E0,1.960500032E-1,-2.059500068E-1,7.810500264E-1,8.311980226E-1
2.266121545E0,1.960500032E-1,-2.059500068E-1,6.280500293E-1,6.894184856E-1
2.268084927E0,1.960500032E-1,-2.059500068E-1,5.130000114E-1,5.865321993E-1
2.270048298E0,1.570500135E-1,-2.440500110E-1,4.750500321E-1,5.566845136E-1
2.272011682E0,1.570500135E-1,-2.440500110E-1,3.600000143E-1,4.624122889E-1
2.273976013E0,1.570500135E-1,-2.059500068E-1,3.220500052E-1,4.132751117E-1
2.275940067E0,1.570500135E-1,-2.440500110E-1,2.449500114E-1,3.797704869E-1
2.277903473E0,1.189500093E-1,-2.440500110E-1,2.070000172E-1,3.414066779E-1
2.279867069E0,8.100000024E-2,-2.830500007E-1,1.300500035E-1,3.218560336E-1
2.281830608E0,8.100000024E-2,-2.440500110E-1,5.295000225E-2,2.625359226E-1
2.283794188E0,1.189500093E-1,-2.440500110E-1,5.295000225E-2,2.766102228E-1
2.285757674E0,8.100000024E-2,-2.440500110E-1,-2.205000073E-2,2.580845026E-1
2.287721188E0,4.200000316E-2,-2.830500007E-1,-6.105000153E-2,2.925891417E-1
2.289684551E0,4.050000105E-3,-3.210000098E-1,-6.105000153E-2,3.267789948E-1
2.291647958E0,4.200000316E-2,-3.210000098E-1,-6.105000153E-2,3.294421182E-1
2.293611339E0,-3.299999982E-2,-2.830500007E-1,-9.900000691E-2,3.016741690E-1
2.295574727E0,-7.200000435E-2,-3.210000098E-1,-9.900000691E-2,3.435491352E-1
2.297537751E0,-1.099500060E-1,-3.589500189E-1,-9.900000691E-2,3.882462121E-1
2.299500881E0,-1.099500060E-1,-3.979500234E-1,-6.105000153E-2,4.173491675E-1
2.301463994E0,-2.250000089E-1,-4.360500276E-1,1.500000060E-2,4.909069470E-1
2.303427112E0,-2.629500031E-1,-4.740000367E-1,5.295000225E-2,5.446305552E-1
2.305390837E0,-3.019500077E-1,-5.130000114E-1,1.500000060E-2,5.954559756E-1
2.307354398E0,-3.019500077E-1,-5.509500504E-1,1.500000060E-2,6.284463105E-1
2.309317619E0,-4.170000255E-1,-6.280500293E-1,5.295000225E-2,7.557377609E-1
2.311280939E0,-4.549500346E-1,-6.660000086E-1,1.300500035E-1,8.169752437E-1
2.313243974E0,-4.930500090E-1,-7.429500222E-1,1.680000126E-1,9.073571795E-1
2.315207093E0,-5.700000525E-1,-7.810500264E-1,2.449500114E-1,9.974666469E-1
2.317169457E0,-6.079500318E-1,-8.190000653E-1,3.600000143E-1,1.081648907E0
2.319132031E0,-6.850500107E-1,-9.340500236E-1,4.750500321E-1,1.251964655E0
2.321095148E0,-7.620000243E-1,-9.730500579E-1,5.899500251E-1,1.369493149E0
2.323058106E0,-8.380500674E-1,-1.087950110E0,6.660000086E-1,1.526276308E0
2.325021564E0,-9.150000215E-1,-1.126049995E0,7.810500264E-1,1.647802408E0
2.326984875E0,-9.919500351E-1,-1.203000069E0,8.959500194E-1,1.798304889E0
2.328948317E0,-9.919500351E-1,-1.318050027E0,8.580000401E-1,1.859404425E0
2.330911721E0,-1.068000078E0,-1.432950020E0,8.959500194E-1,1.999173920E0
2.332874923E0,-1.106999993E0,-1.509000063E0,9.349500537E-1,2.092047270E0
2.334838185E0,-1.144950032E0,-1.585950017E0,9.349500537E-1,2.168012831E0
2.336801365E0,-1.183050036E0,-1.624050021E0,9.349500537E-1,2.216140217E0
2.338764569E0,-1.183050036E0,-1.777950048E0,8.959500194E-1,2.315910232E0
2.340727835E0,-1.222050071E0,-1.816050053E0,8.959500194E-1,2.365199908E0
2.342691092E0,-1.183050036E0,-1.893000126E0,8.580000401E-1,2.391489271E0
2.344654274E0,-1.144950032E0,-2.083950043E0,9.730500579E-1,2.569160324E0
2.346617478E0,-1.068000078E0,-2.161050081E0,9.349500537E-1,2.585516046E0
2.348580758E0,-9.529500604E-1,-2.238000154E0,1.050000072E0,2.649388356E0
2.350544015E0,-7.999500632E-1,-2.238000154E0,1.050000072E0,2.598281152E0
2.352507067E0,-6.850500107E-1,-2.275950193E0,1.203000069E0,2.663916659E0
2.354470176E0,-4.930500090E-1,-2.275950193E0,1.165050030E0,2.603918041E0
2.356433381E0,-3.019500077E-1,-2.199000120E0,1.203000069E0,2.524675128E0
2.358396558E0,-1.099500060E-1,-2.199000120E0,1.203000069E0,2.508963869E0
2.360359798E0,4.050000105E-3,-1.969050050E0,1.318050027E0,2.369478925E0
2.362323020E0,1.189500093E-1,-1.738950133E0,1.356000066E0,2.208355236E0
2.364286282E0,3.490500152E-1,-1.548000097E0,1.432950020E0,2.138103359E0
2.366249543E0,5.020500422E-1,-1.393950105E0,1.471050024E0,2.087855194E0
2.368213850E0,6.940500140E-1,-1.279050112E0,1.510050058E0,2.097123217E0
2.370177851E0,7.699500322E-1,-1.126049995E0,1.471050024E0,2.006190374E0
2.372141311E0,8.850000501E-1,-1.011000037E0,1.471050024E0,1.992318834E0
2.374104930E0,9.240000248E-1,-8.580000401E-1,1.471050024E0,1.937505687E0
2.376068068E0,9.240000248E-1,-7.039500475E-1,1.432950020E0,1.844632070E0
2.378031334E0,1.000050068E0,-5.130000114E-1,1.356000066E0,1.761251069E0
2.379994602E0,9.240000248E-1,-4.740000367E-1,1.318050027E0,1.678007138E0
2.381957870E0,9.240000248E-1,-3.979500234E-1,1.240950108E0,1.597528540E0
2.383921051E0,9.240000248E-1,-2.830500007E-1,1.126049995E0,1.483873964E0
2.385884257E0,8.470500112E-1,-1.680000126E-1,1.087950110E0,1.389011580E0
2.387847842E0,7.320000529E-1,-1.680000126E-1,9.730500579E-1,1.229176349E0
2.389811323E0,6.940500140E-1,-1.680000126E-1,8.959500194E-1,1.145711946E0
2.391774512E0,7.320000529E-1,-1.290000081E-1,8.200500607E-1,1.106773320E0
2.393737786E0,6.940500140E-1,-1.290000081E-1,6.660000086E-1,9.705165818E-1
2.395701010E0,6.550500393E-1,-9.105000645E-2,7.429500222E-1,9.946634572E-1
2.397664248E0,5.790000558E-1,-1.290000081E-1,8.200500607E-1,1.012108773E0
2.399627342E0,5.790000558E-1,-1.680000126E-1,9.349500537E-1,1.112473223E0
2.401590478E0,6.169500351E-1,-2.830500007E-1,1.050000072E0,1.250297884E0
2.403553185E0,8.089500666E-1,-4.740000367E-1,1.050000072E0,1.407684764E0
2.405516017E0,1.000050068E0,-8.959500194E-1,1.050000072E0,1.704501900E0
2.407478775E0,1.192050099E0,-1.126049995E0,9.730500579E-1,1.906776979E0
2.409441555E0,1.153950095E0,-1.318050027E0,8.959500194E-1,1.967633892E0
2.411404891E0,1.306950092E0,-1.509000063E0,8.200500607E-1,2.158166313E0
2.413368044E0,1.422000051E0,-1.663050056E0,5.899500251E-1,2.266243734E0
2.415331784E0,1.498950124E0,-1.816050053E0,1.680000126E-1,2.360744220E0
2.417295352E0,1.575000048E0,-1.930950046E0,-6.105000153E-2,2.492573034E0
2.419258030E0,1.729050040E0,-2.083950043E0,-4.819500148E-1,2.750406813E0
2.421220969E0,1.804950118E0,-2.351999998E0,-9.810000658E-1,3.122836859E0
2.423183908E0,1.843950033E0,-2.544000149E0,-1.555950046E0,3.506147320E0
2.425146834E0,1.920000076E0,-2.812050104E0,-2.245050192E0,4.078514000E0
2.427109936E0,1.920000076E0,-3.234000206E0,-3.088950157E0,4.866905660E0
2.429072986E0,1.920000076E0,-3.616950274E0,-3.894000292E0,5.650837800E0
2.431036248E0,1.767000079E0,-4.153950214E0,-4.582950115E0,6.432808362E0
2.432999448E0,1.690050125E0,-4.804950237E0,-4.813050270E0,7.007800590E0
2.434962504E0,1.575000048E0,-5.649000168E0,-4.545000076E0,7.419491474E0
2.436925603E0,1.000050068E0,-7.066950321E0,-3.970050097E0,8.167201770E0
2.438887775E0,-1.870500147E-1,-9.289950371E0,-3.280050039E0,9.853775614E0
2.440850219E0,-1.605000019E0,-1.174305058E1,-2.590050220E0,1.213192573E1
2.442813043E0,-3.291000128E0,-1.415700054E1,-1.747050047E0,1.463910961E1
2.444775755E0,-5.169000149E0,-1.595895100E1,-1.326000094E0,1.682750593E1
2.446738859E0,-7.086000443E0,-1.756905174E1,-1.018950105E0,1.897159036E1
2.448701841E0,-8.695050240E0,-1.956195068E1,-5.590500236E-1,2.141462935E1
2.450663899E0,-1.011405087E1,-2.193795013E1,-6.105000153E-2,2.415722269E1
2.452626228E0,-1.141695023E1,-2.450595093E1,8.200500607E-1,2.704738186E1
2.454589567E0,-1.260495090E1,-2.707395172E1,1.548000097E0,2.990451393E1
2.456552610E0,-1.329495049E1,-2.979495049E1,1.893000126E0,3.268146619E1
2.458515748E0,-1.344795036E1,-3.270795059E1,2.620950222E0,3.546162406E1
2.460478851E0,-1.283505058E1,-3.588899994E1,3.847950220E0,3.830881832E1
2.462442104E0,-1.164705086E1,-3.941505051E1,5.802000046E0,4.150738735E1
2.464405313E0,-9.922050476E0,-4.290300369E1,7.909950256E0,4.474016232E1
2.466368503E0,-7.546050549E0,-4.589295197E1,9.826950073E0,4.753603756E1
2.468331699E0,-4.518000126E0,-4.846095276E1,1.044000053E1,4.977820686E1
2.470295531E0,-1.144950032E0,-5.076000214E1,1.047795010E1,5.184280245E1
2.472259169E0,2.111999989E0,-5.340495300E1,1.082295036E1,5.453151203E1
2.474222286E0,5.676000118E0,-5.559000397E1,1.051695061E1,5.686010700E1
2.476185556E0,9.739050865E0,-5.762100220E1,9.787950516E0,5.925228250E1
2.478148825E0,1.341900063E1,-5.949900436E1,9.022050858E0,6.165710421E1
2.480112094E0,1.686795044E1,-6.126195145E1,7.411950588E0,6.397258365E1
2.482075073E0,1.978095055E1,-6.260295486E1,5.304000378E0,6.586765809E1
2.484038151E0,2.208105087E1,-6.367695236E1,2.812950134E0,6.745546500E1
2.486001948E0,2.392005157E1,-6.429000092E1,-4.440000355E-1,6.859715899E1
2.487965534E0,2.568300056E1,-6.429000092E1,-4.315050125E0,6.936454709E1
2.489928750E0,2.675700188E1,-6.321705246E1,-8.263050079E0,6.914196170E1
2.491892074E0,2.760000038E1,-6.133905411E1,-1.159695053E1,6.825488145E1
2.493855309E0,2.660295105E1,-5.846400452E1,-1.424205112E1,6.579204244E1
2.495818556E0,2.437995148E1,-5.493795395E1,-1.569795036E1,6.212074101E1
2.497781784E0,2.112195015E1,-5.087505341E1,-1.600500107E1,5.736347179E1
2.499745017E0,1.698300171E1,-4.642905045E1,-1.497000027E1,5.165442847E1
2.501708742E0,1.246005058E1,-4.186800385E1,-1.286205101E1,4.553696260E1
2.503672323E0,8.398050308E0,-3.761400223E1,-1.056300068E1,3.996144887E1
2.505635290E0,4.948050022E0,-3.389595032E1,-8.530950546E0,3.530149804E1
2.507598454E0,2.341950178E0,-3.067695236E1,-7.189950466E0,3.159518198E1
2.509560795E0,5.410500169E-1,-2.803200150E1,-6.385050297E0,2.875508147E1
2.511523377E0,-7.230000496E-1,-2.573205185E1,-5.925000191E0,2.641527681E1
2.513486538E0,-1.452000022E0,-2.389305115E1,-5.733000278E0,2.461409128E1
2.515449529E0,-1.681950092E0,-2.258895111E1,-5.464950085E0,2.330140227E1
2.517412801E0,-1.642950058E0,-2.178495026E1,-5.043000221E0,2.242131115E1
2.519375990E0,-1.873050094E0,-2.117100143E1,-4.507050037E0,2.172632317E1
2.521339228E0,-2.218050003E0,-2.052000046E1,-3.817050219E0,2.098952208E1
2.523302452E0,-2.677950144E0,-2.002200127E1,-3.088950157E0,2.043510618E1
2.525265729E0,-3.291000128E0,-1.979205132E1,-2.475000143E0,2.021587502E1
2.527228990E0,-4.018949986E0,-1.944705009E1,-1.977000117E0,1.995615809E1
2.529192217E0,-4.594050407E0,-1.921695137E1,-1.555950046E0,1.981962410E1
2.531155454E0,-5.053950310E0,-1.894799995E1,-1.134000063E0,1.964319404E1
2.533118863E0,-5.476050377E0,-1.871805000E1,-6.360000372E-1,1.951299617E1
2.535082221E0,-5.706000328E0,-1.845000076E1,-1.369500011E-1,1.931268296E1
2.537044530E0,-6.166050434E0,-1.814295006E1,3.979500234E-1,1.916625104E1
2.539007146E0,-6.127950191E0,-1.810500145E1,9.349500537E-1,1.913679656E1
2.540970305E0,-6.204000473E0,-1.810500145E1,1.432950020E0,1.919203077E1
2.542933302E0,-6.319050312E0,-1.806705093E1,1.585950017E0,1.920583150E1
2.544896033E0,-6.127950191E0,-1.818195152E1,1.893000126E0,1.928000478E1
2.546858842E0,-5.935950279E0,-1.833495140E1,2.200050116E0,1.939706599E1
2.548821964E0,-5.668050289E0,-1.864200020E1,2.430000067E0,1.963557653E1
2.550784994E0,-5.323050022E0,-1.898700142E1,2.545050144E0,1.988261463E1
2.552748219E0,-5.053950310E0,-1.936995125E1,2.545050144E0,2.017956157E1
2.554711384E0,-5.016000271E0,-1.967700005E1,2.391000032E0,2.044655156E1
2.556674312E0,-4.786050320E0,-1.998300171E1,2.161050081E0,2.066148040E1
2.558637309E0,-4.671000004E0,-2.040495110E1,1.893000126E0,2.101817594E1
2.560600714E0,-4.402950287E0,-2.078805161E1,1.701000094E0,2.131718701E1
2.562563999E0,-4.134000301E0,-2.094105148E1,1.395000100E0,2.139073680E1
2.564527041E0,-3.712950230E0,-2.124795151E1,1.432950020E0,2.161746489E1
2.566490155E0,-3.445050240E0,-2.132505035E1,1.318050027E0,2.164170510E1
2.568453226E0,-3.100050211E0,-2.136300087E1,1.087950110E0,2.161415631E1
2.570416309E0,-2.869950056E0,-2.140095139E1,8.580000401E-1,2.160956958E1
2.572380285E0,-2.485950232E0,-2.132505035E1,4.750500321E-1,2.147471522E1
2.574343999E0,-2.218050003E0,-2.113305092E1,2.070000172E-1,2.125013967E1
2.576307158E0,-2.065050125E0,-2.098005104E1,5.295000225E-2,2.108150321E1
2.578270473E0,-1.987950087E0,-2.074995041E1,-2.205000073E-2,2.084497238E1
2.580233554E0,-1.681950092E0,-2.044305038E1,1.500000060E-2,2.051213032E1
2.582196704E0,-1.336950064E0,-2.005995178E1,2.070000172E-1,2.010552039E1
2.584159047E0,-9.529500604E-1,-1.960005188E1,4.750500321E-1,1.962895362E1
2.586121627E0,-5.320500135E-1,-1.910205078E1,7.050000429E-1,1.912245921E1
2.588085176E0,-1.099500060E-1,-1.860300064E1,9.349500537E-1,1.862680470E1
2.590048422E0,3.490500152E-1,-1.806705093E1,1.279950023E0,1.811569589E1
2.592012326E0,5.790000558E-1,-1.745400047E1,1.585950017E0,1.753546723E1
2.593976037E0,1.077000022E0,-1.680195045E1,2.046000004E0,1.696029434E1
2.595939187E0,1.306950092E0,-1.607400131E1,2.275950193E0,1.628685316E1
2.597902501E0,1.384050012E0,-1.538400078E1,2.620950222E0,1.566692230E1
2.599865402E0,1.498950124E0,-1.469400024E1,2.851050138E0,1.504290469E1
2.601828424E0,1.498950124E0,-1.404195023E1,2.851050138E0,1.440665487E1
2.603791509E0,1.729050040E0,-1.339095020E1,2.506050110E0,1.373271454E1
2.605754576E0,1.729050040E0,-1.277805042E1,2.161050081E0,1.307433838E1
2.607717611E0,1.804950118E0,-1.216395092E1,1.777950048E0,1.242500114E1
2.609680655E0,1.767000079E0,-1.147395039E1,1.510050058E0,1.170700978E1
2.611643962E0,1.882050037E0,-1.086105061E1,1.165050030E0,1.108430756E1
2.613607191E0,2.149950027E0,-1.032495022E1,7.429500222E-1,1.057255205E1
2.615571278E0,2.265000105E0,-9.787950516E0,3.220500052E-1,1.005176188E1
2.617535114E0,2.533950090E0,-9.213000298E0,-6.105000153E-2,9.555312902E0
2.619498468E0,2.802000046E0,-8.715000153E0,-4.060500264E-1,9.163367751E0
2.621461963E0,3.031950235E0,-8.217000008E0,-6.360000372E-1,8.781589116E0
2.623425139E0,3.300000191E0,-7.603050232E0,-9.420000315E-1,8.341686769E0
2.625388415E0,3.721950293E0,-7.066950321E0,-1.057050109E0,8.056801832E0
2.627351817E0,3.913050175E0,-6.529950142E0,-1.134000063E0,7.696633463E0
2.629315182E0,4.182000160E0,-6.109050274E0,-1.210950017E0,7.501734502E0
2.631278211E0,4.219950199E0,-5.610000134E0,-1.249050021E0,7.130231913E0
2.633241338E0,4.258049965E0,-5.188950062E0,-1.057050109E0,6.795112006E0
2.635204692E0,4.182000160E0,-4.804950237E0,-9.420000315E-1,6.439257425E0
2.637168000E0,3.990000248E0,-4.575000286E0,-7.890000343E-1,6.121539892E0
2.639131083E0,3.913050175E0,-4.269000053E0,-6.739500165E-1,5.830139943E0
2.641094232E0,3.760050297E0,-4.077000141E0,-4.060500264E-1,5.561005755E0
2.643057476E0,3.645000219E0,-3.886050224E0,-2.520000041E-1,5.333940096E0
2.645020692E0,3.645000219E0,-3.616950274E0,-2.205000073E-2,5.135060086E0
2.646982985E0,3.568050146E0,-3.387000084E0,3.600000143E-1,4.932783334E0
2.648945545E0,3.529950142E0,-3.157050133E0,6.280500293E-1,4.777233549E0
2.650908890E0,3.415050268E0,-3.004050255E0,1.011000037E0,4.659292580E0
2.652872005E0,3.376950264E0,-2.812050104E0,1.356000066E0,4.598929772E0
2.654835481E0,3.300000191E0,-2.620950222E0,1.510050058E0,4.476564811E0
2.656798851E0,3.337950230E0,-2.391000032E0,1.663050056E0,4.429958056E0
2.658762018E0,3.453000069E0,-2.238000154E0,1.930950046E0,4.545373719E0
2.660725241E0,3.529950142E0,-2.046000004E0,2.122950077E0,4.599302235E0
2.662688293E0,3.607050180E0,-1.854000092E0,2.353049994E0,4.688813455E0
2.664651395E0,3.721950293E0,-1.663050056E0,2.506050110E0,4.785283338E0
2.666614512E0,3.760050297E0,-1.471050024E0,2.620950222E0,4.813662480E0
2.668577624E0,3.760050297E0,-1.279050112E0,2.583000183E0,4.737703808E0
2.670541010E0,3.798000097E0,-1.048950076E0,2.467950106E0,4.649287980E0
2.672504316E0,3.760050297E0,-8.190000653E-1,2.353049994E0,4.510607898E0
2.674467715E0,3.721950293E0,-5.890500546E-1,2.238000154E0,4.382754686E0
2.676431086E0,3.760050297E0,-3.589500189E-1,2.046000004E0,4.295688462E0
2.678394473E0,3.721950293E0,-1.680000126E-1,1.969950080E0,4.214479956E0
2.680357855E0,3.682950258E0,-9.105000645E-2,1.816050053E0,4.107365397E0
2.682320385E0,3.607050180E0,2.295000106E-2,1.624950051E0,3.956235632E0
2.684283164E0,3.568050146E0,2.140500098E-1,1.510050058E0,3.880341535E0
2.686246426E0,3.415050268E0,3.289500177E-1,1.432950020E0,3.718080447E0
2.688209547E0,3.300000191E0,4.830000103E-1,1.240950108E0,3.558545691E0
2.690172842E0,3.223050117E0,5.590500236E-1,1.011000037E0,3.423844340E0
2.692136086E0,3.070050240E0,6.739500165E-1,6.660000086E-1,3.212938392E0
2.694100055E0,2.955000162E0,8.280000687E-1,3.600000143E-1,3.089855997E0
2.696063798E0,2.878050089E0,9.040500522E-1,-6.105000153E-2,3.017317669E0
2.698026762E0,2.764050245E0,1.057950020E0,-4.819500148E-1,2.998584303E0
2.699989954E0,2.764050245E0,1.134000063E0,-1.134000063E0,3.195604175E0
2.701953146E0,2.802000046E0,1.363950014E0,-2.206950188E0,3.818663775E0
2.703916338E0,2.992950201E0,1.708950043E0,-3.894000292E0,5.200144174E0
2.705879751E0,3.262050152E0,2.016000032E0,-6.385050297E0,7.448093354E0
2.707843102E0,3.682950258E0,2.361000061E0,-8.914050102E0,9.929689477E0
2.709806537E0,4.182000160E0,2.743950129E0,-1.178895092E1,1.280616068E1
2.711769948E0,4.833000183E0,3.051000118E0,-1.416495037E1,1.527456420E1
2.713733463E0,5.407950401E0,3.166050196E0,-1.550700092E1,1.672533644E1
2.715696948E0,5.944950104E0,3.204000235E0,-1.592805099E1,1.730060281E1
2.717659965E0,6.328050137E0,3.166050196E0,-1.543005085E1,1.697511595E1
2.719623113E0,6.558000088E0,3.051000118E0,-1.435695076E1,1.607600703E1
2.721586582E0,6.673050404E0,3.012000084E0,-1.278600025E1,1.473375542E1
2.723549957E0,6.750000477E0,2.821050167E0,-1.132905006E1,1.348585206E1
2.725513659E0,6.787950516E0,2.706000090E0,-9.718950272E0,1.215963417E1
2.727477265E0,6.787950516E0,2.590950012E0,-8.110050201E0,1.088862748E1
2.729440311E0,6.750000477E0,2.437050104E0,-6.538050175E0,9.708131629E0
2.731403511E0,6.711000443E0,2.169000149E0,-4.927950382E0,8.603881889E0
2.733366702E0,6.634950161E0,1.978050113E0,-3.394950151E0,7.711091519E0
2.735329896E0,6.520050526E0,1.708950043E0,-1.747050047E0,6.963027572E0
2.737292232E0,6.442950249E0,1.479000092E0,-2.910000086E-1,6.616927549E0
2.739254819E0,6.250950336E0,1.210950017E0,1.240950108E0,6.486966720E0
2.741218335E0,6.021000385E0,9.040500522E-1,2.506050110E0,6.584074672E0
2.743181582E0,5.752950191E0,6.360000372E-1,3.618000269E0,6.825749622E0
2.745145035E0,5.407950401E0,2.910000086E-1,4.614000320E0,7.114745779E0
2.747108428E0,4.987050056E0,2.295000106E-2,5.419050217E0,7.364597764E0
2.749072532E0,4.603050232E0,-1.680000126E-1,6.147000313E0,7.681269966E0
2.751036428E0,4.182000160E0,-3.589500189E-1,6.607050419E0,7.827584921E0
2.752999861E0,3.760050297E0,-5.890500546E-1,6.799050331E0,7.791793350E0
2.754963430E0,3.376950264E0,-7.039500475E-1,6.952050209E0,7.760820889E0
2.756926783E0,2.878050089E0,-7.429500222E-1,6.876000404E0,7.490963130E0
2.758890200E0,2.419050217E0,-7.039500475E-1,6.721950531E0,7.178577057E0
2.760853083E0,1.843950033E0,-6.660000086E-1,6.415950298E0,6.708809579E0
2.762816123E0,1.306950092E0,-5.130000114E-1,5.956050396E0,6.119299296E0
2.764778600E0,8.850000501E-1,-3.210000098E-1,5.419050217E0,5.500215573E0
2.766741257E0,3.870000243E-1,-1.680000126E-1,4.843950272E0,4.862288274E0
2.768704585E0,-3.299999982E-2,-1.290000081E-1,4.269000053E0,4.271076148E0
2.770667716E0,-4.930500090E-1,-9.105000645E-2,3.694050074E0,3.727920917E0
2.772629523E0,-7.999500632E-1,2.295000106E-2,3.004050255E0,3.108820474E0
2.774591718E0,-9.919500351E-1,6.105000153E-2,2.430000067E0,2.625374697E0
2.776554976E0,-1.030050039E0,1.380000114E-1,1.930950046E0,2.192855482E0
2.778517933E0,-1.068000078E0,1.380000114E-1,1.510050058E0,1.854701957E0
2.780481166E0,-9.529500604E-1,1.380000114E-1,1.318050027E0,1.632303187E0
2.782444318E0,-9.150000215E-1,1.380000114E-1,1.011000037E0,1.370543731E0
2.784407383E0,-7.999500632E-1,1.380000114E-1,8.200500607E-1,1.153883100E0
2.786370473E0,-7.620000243E-1,9.900000691E-2,5.899500251E-1,9.687549074E-1
2.788334284E0,-7.230000496E-1,1.380000114E-1,4.360500276E-1,8.555189662E-1
2.790297904E0,-6.079500318E-1,9.900000691E-2,2.070000172E-1,6.498101643E-1
2.792260844E0,-4.930500090E-1,9.900000691E-2,9.195000678E-2,5.112280475E-1
2.794223983E0,-4.930500090E-1,9.900000691E-2,1.500000060E-2,5.031146120E-1
2.796186914E0,-3.400500119E-1,9.900000691E-2,-2.205000073E-2,3.548537931E-1
2.798149906E0,-3.019500077E-1,9.900000691E-2,-1.369500011E-1,3.460203915E-1
2.800112965E0,-2.629500031E-1,1.380000114E-1,-2.140500098E-1,3.660657236E-1
2.802075995E0,-1.870500147E-1,1.759500057E-1,-2.910000086E-1,3.881070954E-1
2.804039080E0,-1.480500102E-1,9.900000691E-2,-3.289500177E-1,3.740694067E-1
2.806002149E0,-7.200000435E-2,9.900000691E-2,-4.819500148E-1,4.972532743E-1
2.807965048E0,4.050000105E-3,9.900000691E-2,-5.970000029E-1,6.051664294E-1
2.809927997E0,4.200000316E-2,6.105000153E-2,-6.739500165E-1,6.780115985E-1
2.811890999E0,4.200000316E-2,2.295000106E-2,-7.890000343E-1,7.904503507E-1
2.813853957E0,8.100000024E-2,-1.500000060E-2,-8.269500136E-1,8.310429141E-1
2.815817776E0,1.189500093E-1,2.295000106E-2,-9.420000315E-1,9.497577936E-1
2.817781342E0,1.189500093E-1,-5.295000225E-2,-9.810000658E-1,9.896029186E-1
2.819743930E0,1.189500093E-1,-5.295000225E-2,-1.018950105E0,1.027235184E0
2.821706805E0,1.189500093E-1,-9.105000645E-2,-1.057050109E0,1.067611419E0
2.823669809E0,1.960500032E-1,-9.105000645E-2,-1.057050109E0,1.078925688E0
2.825632755E0,1.570500135E-1,-9.105000645E-2,-1.096050024E0,1.110981758E0
2.827595495E0,1.189500093E-1,-1.290000081E-1,-1.096050024E0,1.110007100E0
2.829558296E0,1.189500093E-1,-1.290000081E-1,-1.057050109E0,1.071515301E0
2.831521194E0,8.100000024E-2,-1.680000126E-1,-9.810000658E-1,9.985720472E-1
2.833484063E0,4.050000105E-3,-1.680000126E-1,-9.040500522E-1,9.195362437E-1
2.835446866E0,-7.200000435E-2,-1.680000126E-1,-8.269500136E-1,8.469086904E-1
2.837409685E0,-1.099500060E-1,-1.290000081E-1,-7.120500207E-1,7.319461988E-1
2.839372401E0,-2.250000089E-1,-1.290000081E-1,-5.590500236E-1,6.162815387E-1
2.841335147E0,-2.629500031E-1,-1.290000081E-1,-5.209500194E-1,5.976392130E-1
2.843297964E0,-3.400500119E-1,-1.680000126E-1,-3.289500177E-1,5.020618776E-1
2.845260760E0,-4.170000255E-1,-1.290000081E-1,-3.289500177E-1,5.465694261E-1
2.847223508E0,-5.700000525E-1,-1.680000126E-1,-1.759500057E-1,6.197438733E-1
2.849186251E0,-6.850500107E-1,-1.680000126E-1,-2.205000073E-2,7.056937891E-1
2.851148304E0,-8.770500422E-1,-1.290000081E-1,1.680000126E-1,9.022648075E-1
2.853110559E0,-9.529500604E-1,-1.290000081E-1,3.220500052E-1,1.014135605E0
2.855073100E0,-1.068000078E0,-1.680000126E-1,3.600000143E-1,1.139494704E0
2.857035557E0,-1.183050036E0,-1.680000126E-1,3.220500052E-1,1.237557109E0
2.858999320E0,-1.222050071E0,-1.680000126E-1,3.220500052E-1,1.274890813E0
2.860962673E0,-1.260000110E0,-2.440500110E-1,2.449500114E-1,1.306583787E0
2.862925343E0,-1.336950064E0,-2.440500110E-1,2.070000172E-1,1.374716294E0
2.864888213E0,-1.375050068E0,-2.830500007E-1,9.195000678E-2,1.406888338E0
2.866851144E0,-1.489950061E0,-3.210000098E-1,-2.205000073E-2,1.524296032E0
2.868814057E0,-1.528050065E0,-2.830500007E-1,-2.910000086E-1,1.581055125E0
2.870776938E0,-1.567050099E0,-3.210000098E-1,-5.970000029E-1,1.707365229E0
2.872739828E0,-1.642950058E0,-3.979500234E-1,-9.810000658E-1,1.954484649E0
2.874702441E0,-1.720050097E0,-4.740000367E-1,-1.516950130E0,2.341876612E0
2.876665136E0,-1.834950089E0,-4.740000367E-1,-2.092050076E0,2.822833928E0
2.878628277E0,-1.873050094E0,-5.890500546E-1,-2.590050220E0,3.250177959E0
2.880591288E0,-1.873050094E0,-6.280500293E-1,-2.859000206E0,3.475146856E0
2.882554376E0,-1.720050097E0,-6.660000086E-1,-2.820000172E0,3.369648248E0
2.884517442E0,-1.413000107E0,-5.509500504E-1,-2.551950216E0,2.968596498E0
2.886480521E0,-1.106999993E0,-4.360500276E-1,-2.284050226E0,2.575359013E0
2.888443596E0,-9.919500351E-1,-2.440500110E-1,-2.053950071E0,2.293956446E0
2.890406629E0,-8.770500422E-1,-1.680000126E-1,-1.671000123E0,1.894645664E0
2.892369675E0,-8.770500422E-1,-9.105000645E-2,-1.287000060E0,1.560088470E0
2.894331865E0,-7.999500632E-1,2.295000106E-2,-8.269500136E-1,1.150779358E0
2.896294299E0,-7.620000243E-1,1.759500057E-1,-3.289500177E-1,8.484164989E-1
2.898256089E0,-7.230000496E-1,3.289500177E-1,1.680000126E-1,8.118874245E-1
2.900218068E0,-7.230000496E-1,4.060500264E-1,6.280500293E-1,1.040217542E0
2.902181107E0,-7.230000496E-1,5.980500579E-1,1.011000037E0,1.379316504E0
2.904143835E0,-6.850500107E-1,7.129500508E-1,1.279950023E0,1.617363086E0
2.906106828E0,-6.469500065E-1,7.890000343E-1,1.395000100E0,1.728320180E0
2.908069750E0,-6.469500065E-1,9.040500522E-1,1.510050058E0,1.875127192E0
2.910032808E0,-6.079500318E-1,9.810000658E-1,1.548000097E0,1.930872516E0
2.911995826E0,-6.079500318E-1,1.018950105E0,1.624950051E0,2.012045036E0
2.913958779E0,-7.230000496E-1,1.057950020E0,1.701000094E0,2.129645190E0
2.915921752E0,-7.230000496E-1,1.134000063E0,1.930950046E0,2.353136905E0
2.917884786E0,-7.230000496E-1,1.018950105E0,1.930950046E0,2.299903578E0
2.919847812E0,-6.469500065E-1,1.018950105E0,1.969950080E0,2.310304513E0
2.921810942E0,-6.469500065E-1,9.430500269E-1,1.930950046E0,2.244204924E0
2.923774042E0,-4.930500090E-1,8.280000687E-1,1.855050087E0,2.090428963E0
2.925737116E0,-3.780000210E-1,6.739500165E-1,1.701000094E0,1.868286370E0
2.927700198E0,-2.629500031E-1,5.590500236E-1,1.510050058E0,1.631542464E0
2.929663437E0,4.050000105E-3,3.289500177E-1,1.432950020E0,1.470227967E0
2.931626610E0,3.870000243E-1,6.105000153E-2,1.356000066E0,1.411464594E0
2.933591293E0,8.089500666E-1,-1.680000126E-1,1.356000066E0,1.587879212E0
2.935555533E0,1.306950092E0,-4.740000367E-1,1.471050024E0,2.024051074E0
2.937518231E0,1.729050040E0,-1.011000037E0,1.816050053E0,2.703659171E0
2.939481381E0,2.111999989E0,-1.393950105E0,2.353049994E0,3.455500704E0
2.941444135E0,2.304000139E0,-1.738950133E0,2.773950100E0,4.003393981E0
2.943407001E0,2.304000139E0,-1.930950046E0,3.043050051E0,4.277515439E0
2.945370248E0,2.380050182E0,-2.161050081E0,3.118950129E0,4.479132308E0
2.947333384E0,2.494950056E0,-2.391000032E0,3.043050051E0,4.604542382E0
2.949296631E0,2.572050095E0,-2.620950222E0,2.928000212E0,4.696595256E0
2.951259846E0,2.686950207E0,-2.851050138E0,2.889000177E0,4.867700723E0
2.953222964E0,2.725050211E0,-3.196050167E0,2.773950100E0,5.033431680E0
2.955186097E0,2.802000046E0,-3.463950157E0,2.620950222E0,5.169094216E0
2.957148804E0,2.955000162E0,-3.808950186E0,2.200050116E0,5.299089354E0
2.959111636E0,3.147000074E0,-4.192049980E0,1.624950051E0,5.487928131E0
2.961075610E0,3.529950142E0,-4.767000198E0,1.050000072E0,6.023897330E0
2.963039249E0,3.952050209E0,-5.494950294E0,-9.900000691E-2,6.769267360E0
2.965002262E0,4.795050144E0,-7.066950321E0,-1.479000092E0,8.667279504E0
2.966965468E0,5.140050411E0,-9.595950127E0,-2.667000055E0,1.120782166E1
2.968928837E0,4.872000217E0,-1.296900082E1,-3.931950092E0,1.440109717E1
2.970892158E0,3.760050297E0,-1.664895058E1,-5.388000488E0,1.789849387E1
2.972854158E0,1.920000076E0,-2.009805107E1,-6.001950264E0,2.106279811E1
2.974816545E0,-7.200000435E-2,-2.354805183E1,-5.311950207E0,2.413985800E1
2.976779348E0,-1.834950089E0,-2.718900108E1,-3.586950064E0,2.748590607E1
2.978742019E0,-3.138000250E0,-3.102195168E1,-1.900950074E0,3.123815203E1
2.980704850E0,-3.904950142E0,-3.470100021E1,-9.040500522E-1,3.493172423E1
2.982667634E0,-3.483000278E0,-3.880200195E1,-9.810000658E-1,3.897036063E1
2.984631257E0,-1.987950087E0,-4.317105103E1,-1.900950074E0,4.325858531E1
2.986594634E0,2.340000123E-1,-4.742595291E1,-3.241950035E0,4.753720654E1
2.988559087E0,2.457000017E0,-5.079900360E1,-3.394950151E0,5.097157347E1
2.990523235E0,5.715000153E0,-5.421000290E1,-2.667000055E0,5.457562213E1
2.992485949E0,9.049050331E0,-5.693100357E1,-9.420000315E-1,5.765337669E1
2.994449083E0,1.146405029E1,-5.865600204E1,6.280500293E-1,5.976910131E1
2.996412330E0,1.433805084E1,-5.961405182E1,1.777950048E0,6.133984009E1
2.998375543E0,1.652295113E1,-5.969100189E1,2.353049994E0,6.198032321E1
3.000339139E0,1.801800156E1,-5.850195312E1,2.391000032E0,6.126045854E1
3.002302653E0,1.863105011E1,-5.597295380E1,2.085000038E0,5.902910138E1
3.004266917E0,1.943595123E1,-5.236995316E1,1.050000072E0,5.587012345E1
3.006230961E0,1.897605133E1,-4.757895279E1,-7.890000343E-1,5.122957928E1
3.008194369E0,1.763505173E1,-4.225200272E1,-2.169000149E0,4.583591763E1
3.010157963E0,1.583295059E1,-3.723105240E1,-2.896950245E0,4.056138444E1
3.012121328E0,1.357200050E1,-3.282300186E1,-3.433950186E0,3.568389921E1
3.014084780E0,1.119600010E1,-2.922000122E1,-3.817050219E0,3.152346367E1
3.016048108E0,8.628000259E0,-2.626905060E1,-3.970050097E0,2.793325448E1
3.018011472E0,6.250950336E0,-2.377800179E1,-3.855000257E0,2.488631704E1
3.019974680E0,4.297049999E0,-2.174595070E1,-3.549000263E0,2.244875082E1
3.021937934E0,2.686950207E0,-2.017500114E1,-3.241950035E0,2.060972131E1
3.023901390E0,1.575000048E0,-1.906305122E1,-2.743950129E0,1.932381457E1
3.025864783E0,8.850000501E-1,-1.814295006E1,-2.322000027E0,1.831233317E1
3.027827266E0,1.570500135E-1,-1.741500092E1,-2.014950037E0,1.753188368E1
3.029790016E0,-4.170000255E-1,-1.691700172E1,-1.594050050E0,1.699705362E1
3.031753328E0,-8.380500674E-1,-1.657200050E1,-1.210950017E0,1.663730533E1
3.033716475E0,-1.030050039E0,-1.626495171E1,-8.659500480E-1,1.632052470E1
3.035679652E0,-1.297950029E0,-1.603499985E1,-4.819500148E-1,1.609466279E1
3.037642837E0,-1.452000022E0,-1.607400131E1,-2.140500098E-1,1.614086862E1
3.039604995E0,-1.605000019E0,-1.622700119E1,1.680000126E-1,1.630704807E1
3.041567454E0,-1.528050065E0,-1.660995102E1,7.050000429E-1,1.669498233E1
3.043530996E0,-1.106999993E0,-1.741500092E1,1.318050027E0,1.749985605E1
3.045494221E0,-7.620000243E-1,-1.864200020E1,1.624950051E0,1.872819474E1
3.047457596E0,-3.400500119E-1,-2.017500114E1,1.777950048E0,2.025604630E1
3.049420953E0,2.719500065E-1,-2.190000153E1,1.701000094E0,2.196764496E1
3.051385784E0,1.114950061E0,-2.370105171E1,1.279950023E0,2.376175999E1
3.053350183E0,1.882050037E0,-2.531100082E1,2.449500114E-1,2.538205814E1
3.055313755E0,2.802000046E0,-2.680500221E1,-1.210950017E0,2.697824583E1
3.057277570E0,3.798000097E0,-2.814705086E1,-2.859000206E0,2.854566795E1
3.059240916E0,4.717950344E0,-2.929695129E1,-4.392000198E0,2.999766785E1
3.061204406E0,5.638050079E0,-3.021705055E1,-5.809950352E0,3.128279521E1
3.063167772E0,6.442950249E0,-3.094500160E1,-6.768000126E0,3.232507630E1
3.065131175E0,7.171050549E0,-3.129000092E1,-7.150950432E0,3.288805582E1
3.067094557E0,7.822950363E0,-3.132795143E1,-6.844950199E0,3.300746032E1
3.069057945E0,8.206049919E0,-3.086805153E1,-6.117000103E0,3.252066344E1
3.071021254E0,8.167950630E0,-2.991000175E1,-5.197050095E0,3.143776315E1
3.072984607E0,7.783950329E0,-2.868405151E1,-4.392000198E0,3.004420676E1
3.074947682E0,7.171050549E0,-2.722695160E1,-3.664050102E0,2.839288859E1
3.076910838E0,6.442950249E0,-2.573205185E1,-3.204000235E0,2.671920129E1
3.078873856E0,5.868000507E0,-2.458200073E1,-2.743950129E0,2.542120084E1
3.080836915E0,5.446050167E0,-2.366295052E1,-2.398950100E0,2.439978793E1
3.082799841E0,4.948050022E0,-2.297295189E1,-2.245050192E0,2.360677801E1
3.084762819E0,4.527000427E0,-2.243595123E1,-2.130000114E0,2.298700809E1
3.086726407E0,4.182000160E0,-2.220600128E1,-2.092050076E0,2.269300094E1
3.088689817E0,3.798000097E0,-2.201505089E1,-2.053950071E0,2.243448197E1
3.090653198E0,3.376950264E0,-2.197605133E1,-2.014950037E0,2.232511252E1
3.092616588E0,2.878050089E0,-2.209095192E1,-1.977000117E0,2.236519301E1
3.094579792E0,2.265000105E0,-2.209095192E1,-1.900950074E0,2.228797867E1
3.096543050E0,1.575000048E0,-2.212995148E1,-1.786050081E0,2.225770322E1
3.098505555E0,1.077000022E0,-2.209095192E1,-1.632000089E0,2.217731972E1
3.100468280E0,5.020500422E-1,-2.193795013E1,-1.594050050E0,2.200151599E1
3.102431642E0,4.050000105E-3,-2.186100197E1,-1.555950046E0,2.191630452E1
3.104394817E0,-3.400500119E-1,-2.170800018E1,-1.479000092E0,2.176098222E1
3.106358004E0,-6.850500107E-1,-2.147805023E1,-1.326000094E0,2.152984467E1
3.108321225E0,-9.150000215E-1,-2.124795151E1,-1.249050021E0,2.130429051E1
3.110284458E0,-1.144950032E0,-2.105595016E1,-1.134000063E0,2.111752599E1
3.112247687E0,-1.260000110E0,-2.090295029E1,-1.018950105E0,2.096566694E1
3.114211098E0,-1.222050071E0,-2.063505173E1,-7.890000343E-1,2.068625842E1
3.116174456E0,-1.144950032E0,-2.048100090E1,-5.209500194E-1,2.051959301E1
3.118137758E0,-9.529500604E-1,-2.032800102E1,-1.759500057E-1,2.035108591E1
3.120101107E0,-9.529500604E-1,-2.009805107E1,5.295000225E-2,2.012070015E1
3.122063461E0,-7.999500632E-1,-1.994505119E1,2.830500007E-1,1.996309356E1
3.124026107E0,-6.469500065E-1,-1.979205132E1,5.130000114E-1,1.980926573E1
3.125989392E0,-5.320500135E-1,-1.960005188E1,6.660000086E-1,1.961857964E1
3.127952490E0,-4.930500090E-1,-1.948500061E1,8.580000401E-1,1.951011305E1
3.129915784E0,-5.320500135E-1,-1.925505066E1,8.959500194E-1,1.928322534E1
3.131879024E0,-4.549500346E-1,-1.898700142E1,1.011000037E0,1.901934077E1
3.133842254E0,-3.780000210E-1,-1.883295059E1,1.087950110E0,1.886813577E1
3.135805487E0,-2.250000089E-1,-1.864200020E1,1.318050027E0,1.868989171E1
3.137769077E0,-7.200000435E-2,-1.837305069E1,1.471050024E0,1.843198752E1
3.139732562E0,1.570500135E-1,-1.833495140E1,1.471050024E0,1.839453984E1
3.141696826E0,3.490500152E-1,-1.810500145E1,1.548000097E0,1.817441107E1
3.143660865E0,5.790000558E-1,-1.779900169E1,1.585950017E0,1.787889649E1
3.145624138E0,7.699500322E-1,-1.756905174E1,1.548000097E0,1.765391476E1
3.147587636E0,8.470500112E-1,-1.733895111E1,1.432950020E0,1.741867002E1
3.149550821E0,1.114950061E0,-1.699394989E1,1.432950020E0,1.709066389E1
3.151514098E0,1.306950092E0,-1.676399994E1,1.395000100E0,1.687263577E1
3.153477100E0,1.345050097E0,-1.645695114E1,1.279950023E0,1.656136083E1
3.155440179E0,1.575000048E0,-1.607400131E1,1.279950023E0,1.620161768E1
3.157403615E0,1.537050128E0,-1.561395073E1,1.165050030E0,1.573261968E1
3.159366947E0,1.614000082E0,-1.530705070E1,1.087950110E0,1.543030891E1
3.161330341E0,1.959000111E0,-1.500105095E1,1.240950108E0,1.517923477E1
3.163293716E0,2.265000105E0,-1.473195076E1,1.279950023E0,1.495990878E1
3.165257087E0,2.457000017E0,-1.434900093E1,1.356000066E0,1.462085541E1
3.167220470E0,2.494950056E0,-1.392705059E1,1.318050027E0,1.421002357E1
3.169183855E0,2.572050095E0,-1.350600052E1,1.240950108E0,1.380461694E1
3.171147239E0,2.610000134E0,-1.312305069E1,1.203000069E0,1.343405260E1
3.173110669E0,2.457000017E0,-1.247100067E1,9.349500537E-1,1.274507114E1
3.175074086E0,2.494950056E0,-1.212600040E1,8.200500607E-1,1.240714083E1
3.177037291E0,2.572050095E0,-1.166595078E1,6.280500293E-1,1.196262078E1
3.179000554E0,2.649000168E0,-1.124400043E1,5.130000114E-1,1.156321394E1
3.180964274E0,2.764050245E0,-1.082295036E1,3.979500234E-1,1.117741439E1
3.182927860E0,2.802000046E0,-1.044000053E1,3.220500052E-1,1.081427444E1
3.184891976E0,2.917050123E0,-9.940950394E0,1.300500035E-1,1.036091642E1
3.186855937E0,2.955000162E0,-9.481050491E0,1.300500035E-1,9.931729828E0
3.188819253E0,3.031950235E0,-9.021000862E0,1.680000126E-1,9.518371856E0
3.190782737E0,2.992950201E0,-8.523000717E0,1.300500035E-1,9.034168757E0
3.192745744E0,2.917050123E0,-8.140049934E0,9.195000678E-2,8.647430206E0
3.194708891E0,3.031950235E0,-7.603050232E0,9.195000678E-2,8.185813940E0
3.196671775E0,2.992950201E0,-7.143000126E0,-2.205000073E-2,7.744720002E0
3.198634737E0,2.955000162E0,-6.645000458E0,-1.759500057E-1,7.274545721E0
3.200597802E0,3.031950235E0,-6.184950352E0,-3.670500219E-1,6.897902493E0
3.202560826E0,3.031950235E0,-5.802000046E0,-6.360000372E-1,6.577265603E0
3.204523912E0,3.070050240E0,-5.341950417E0,-9.040500522E-1,6.227274622E0
3.206486980E0,3.070050240E0,-4.920000076E0,-9.810000658E-1,5.881663910E0
3.208449744E0,3.262050152E0,-4.614000320E0,-9.420000315E-1,5.728641568E0
3.210412597E0,3.376950264E0,-4.231050014E0,-1.210950017E0,5.547249522E0
3.212375883E0,3.415050268E0,-3.886050224E0,-1.134000063E0,5.296216652E0
3.214339048E0,3.415050268E0,-3.579000235E0,-1.326000094E0,5.121531730E0
3.216302425E0,3.415050268E0,-3.349050045E0,-1.402050018E0,4.984420607E0
3.218265740E0,3.453000069E0,-3.157050133E0,-1.363950014E0,4.873452027E0
3.220229003E0,3.492000103E0,-2.851050138E0,-1.363950014E0,4.709873804E0
3.222192281E0,3.492000103E0,-2.620950222E0,-1.287000060E0,4.551902233E0
3.224155493E0,3.453000069E0,-2.391000032E0,-1.096050024E0,4.340670027E0
3.226118732E0,3.376950264E0,-2.161050081E0,-9.420000315E-1,4.118409232E0
3.228081962E0,3.337950230E0,-1.930950046E0,-7.890000343E-1,3.936114946E0
3.230045194E0,3.262050152E0,-1.663050056E0,-5.970000029E-1,3.709867340E0
3.232008379E0,3.223050117E0,-1.471050024E0,-3.289500177E-1,3.558124274E0
3.233971578E0,3.184950113E0,-1.279050112E0,-1.759500057E-1,3.436689514E0
3.235933939E0,3.184950113E0,-1.048950076E0,9.195000678E-2,3.354498217E0
3.237896559E0,3.223050117E0,-9.340500236E-1,3.600000143E-1,3.374922446E0
3.239859849E0,3.223050117E0,-7.039500475E-1,5.899500251E-1,3.351363717E0
3.241822942E0,3.147000074E0,-6.280500293E-1,7.429500222E-1,3.293938531E0
3.243786422E0,3.070050240E0,-3.979500234E-1,8.959500194E-1,3.222778170E0
3.245749788E0,2.992950201E0,-2.059500068E-1,1.011000037E0,3.165799644E0
3.247713132E0,2.992950201E0,-1.680000126E-1,1.203000069E0,3.230043974E0
3.249676482E0,2.955000162E0,-9.105000645E-2,1.318050027E0,3.236907774E0
3.251638476E0,2.878050089E0,-5.295000225E-2,1.356000066E0,3.181935291E0
3.253600867E0,2.878050089E0,6.105000153E-2,1.395000100E0,3.198894293E0
3.255564376E0,2.764050245E0,1.380000114E-1,1.471050024E0,3.134167503E0
3.257527557E0,2.764050245E0,2.530499995E-1,1.471050024E0,3.141336695E0
3.259491002E0,2.764050245E0,2.530499995E-1,1.471050024E0,3.141336695E0
3.261454352E0,2.686950207E0,4.060500264E-1,1.510050058E0,3.108830844E0
3.263417428E0,2.533950090E0,5.209500194E-1,1.471050024E0,2.975950295E0
