"Time (s)","Acceleration x (m/s^2)","Acceleration y (m/s^2)","Acceleration z (m/s^2)","Absolute acceleration (m/s^2)"
3.420198900E-2,2.111999989E0,-9.787950516E0,2.449500114E-1,1.001621285E1
3.616356600E-2,2.341950178E0,-9.865050316E0,9.195000678E-2,1.013964512E1
3.812791200E-2,2.419050217E0,-9.903000832E0,-2.205000073E-2,1.019420010E1
4.009077100E-2,2.494950056E0,-9.903000832E0,-1.369500011E-1,1.021337146E1
4.205406600E-2,2.572050095E0,-9.826050758E0,-3.289500177E-1,1.016242704E1
4.401724100E-2,2.572050095E0,-9.711000443E0,-4.060500264E-1,1.005404635E1
4.598045100E-2,2.572050095E0,-9.558000565E0,-6.739500165E-1,9.920938721E0
4.794337000E-2,2.649000168E0,-9.405000687E0,-1.018950105E0,9.823924833E0
4.990637400E-2,2.610000134E0,-9.213000298E0,-1.326000094E0,9.666941162E0
5.186959700E-2,2.649000168E0,-8.983050346E0,-1.671000123E0,9.513392498E0
5.383275600E-2,2.610000134E0,-8.791950226E0,-2.014950037E0,9.389915501E0
5.579568500E-2,2.533950090E0,-8.523000717E0,-2.359950066E0,9.199554804E0
5.775868100E-2,2.380050182E0,-8.178000450E0,-2.629050016E0,8.913822649E0
5.972172600E-2,2.457000017E0,-7.948050499E0,-2.743950129E0,8.760001035E0
6.168475600E-2,2.572050095E0,-7.756950378E0,-2.935050249E0,8.683331206E0
6.364752700E-2,2.725050211E0,-7.603050232E0,-3.049950123E0,8.633334653E0
6.561037400E-2,2.992950201E0,-7.372950554E0,-3.165000200E0,8.563607712E0
6.757383300E-2,3.147000074E0,-7.182000160E0,-3.394950151E0,8.544613643E0
6.953709200E-2,3.529950142E0,-7.219950199E0,-3.510000229E0,8.769739477E0
7.150000400E-2,3.760050297E0,-7.105050564E0,-4.084949970E0,9.017013808E0
7.346301700E-2,4.027950287E0,-7.105050564E0,-4.927950382E0,9.538910944E0
7.542628400E-2,3.990000248E0,-6.990000248E0,-6.117000103E0,1.010929749E1
7.738947700E-2,3.453000069E0,-6.529950142E0,-7.918050289E0,1.082861850E1
7.935236500E-2,2.992950201E0,-6.184950352E0,-1.025595093E1,1.234487307E1
8.131533500E-2,2.686950207E0,-6.031950474E0,-1.362900066E1,1.514443089E1
8.327860900E-2,2.533950090E0,-6.070050240E0,-1.769099998E1,1.887426537E1
8.524179400E-2,2.533950090E0,-6.300000191E0,-2.148600197E1,2.253351251E1
8.720503300E-2,2.572050095E0,-6.760050297E0,-2.447505188E1,2.552140055E1
8.916825600E-2,2.533950090E0,-7.372950554E0,-2.658300209E1,2.770265877E1
9.113151200E-2,2.419050217E0,-8.178000450E0,-2.750295067E1,2.879485702E1
9.309474100E-2,2.341950178E0,-9.213000298E0,-2.727300072E1,2.888218609E1
9.505810800E-2,2.074050188E0,-1.024800014E1,-2.639205170E1,2.838773651E1
9.702143400E-2,1.651950121E0,-1.139805031E1,-2.508900070E1,2.760620304E1
9.898410900E-2,1.306950092E0,-1.247100067E1,-2.351700020E1,2.665114021E1
1.009469740E-1,1.039050102E0,-1.365900040E1,-2.148600197E1,2.548129113E1
1.029090830E-1,6.169500351E-1,-1.480905056E1,-1.872600174E1,2.388203817E1
1.048713910E-1,1.189500093E-1,-1.576695061E1,-1.550700092E1,2.211510701E1
1.068345540E-1,-4.930500090E-1,-1.676399994E1,-1.247895050E1,2.090452099E1
1.087974660E-1,-1.030050039E0,-1.768395042E1,-9.412950516E0,2.005957983E1
1.107600760E-1,-1.642950058E0,-1.841205025E1,-6.883050442E0,1.972509221E1
1.127227750E-1,-2.563050032E0,-1.891005135E1,-5.082000256E0,1.974806304E1
1.146858950E-1,-3.406050205E0,-1.933200073E1,-3.702000141E0,1.997579123E1
1.166488740E-1,-3.790050268E0,-1.990695000E1,-3.049950123E0,2.049276299E1
1.186120130E-1,-3.865950108E0,-2.052000046E1,-2.629050016E0,2.104585216E1
1.205751050E-1,-4.018949986E0,-2.094105148E1,-2.053950071E0,2.142191185E1
1.225383600E-1,-4.173000336E0,-2.132505035E1,-1.786050081E0,2.180279063E1
1.245015670E-1,-3.904950142E0,-2.159295082E1,-1.824000120E0,2.201888138E1
1.264645920E-1,-3.214950085E0,-2.163105011E1,-1.594050050E0,2.192667846E1
1.284276600E-1,-2.218050003E0,-2.143995094E1,-1.134000063E0,2.158418862E1
1.303905580E-1,-1.222050071E0,-2.098005104E1,-7.890000343E-1,2.103041771E1
1.323535060E-1,-6.079500318E-1,-2.040495110E1,-8.659500480E-1,2.043236408E1
1.343167840E-1,-1.099500060E-1,-1.971495056E1,-1.171950102E0,1.975005903E1
1.362799650E-1,3.870000243E-1,-1.902495003E1,-1.555950046E0,1.909239307E1
1.382437500E-1,8.470500112E-1,-1.814295006E1,-2.092050076E0,1.828280077E1
1.402073550E-1,1.230000019E0,-1.718505096E1,-2.551950216E0,1.741698385E1
1.421705670E-1,1.422000051E0,-1.626495171E1,-3.012000084E0,1.660249628E1
1.441338950E-1,1.959000111E0,-1.530705070E1,-3.357000113E0,1.579281268E1
1.460974230E-1,2.341950178E0,-1.446405029E1,-3.625050068E0,1.509418661E1
1.480608930E-1,2.649000168E0,-1.365900040E1,-3.510000229E0,1.434941098E1
1.500238900E-1,3.108000040E0,-1.312305069E1,-3.625050068E0,1.396478112E1
1.519870350E-1,3.492000103E0,-1.262400055E1,-3.778950214E0,1.363231159E1
1.539499650E-1,3.874950171E0,-1.224105072E1,-4.315050125E0,1.354541321E1
1.559129580E-1,4.182000160E0,-1.193400097E1,-5.082000256E0,1.362850803E1
1.578761840E-1,4.527000427E0,-1.189605045E1,-5.887050152E0,1.402380507E1
1.598393410E-1,4.909950256E0,-1.193400097E1,-6.576000214E0,1.448349990E1
1.618024450E-1,5.062950134E0,-1.212600040E1,-7.075050354E0,1.492413104E1
1.637655690E-1,5.062950134E0,-1.258605099E1,-7.150950432E0,1.533552202E1
1.657286380E-1,4.642050266E0,-1.308405018E1,-6.805950165E0,1.546162855E1
1.676917230E-1,4.105050087E0,-1.377405071E1,-6.001950264E0,1.557560003E1
1.696547530E-1,3.492000103E0,-1.457895088E1,-5.043000221E0,1.581681778E1
1.716178000E-1,2.917050123E0,-1.526895046E1,-3.894000292E0,1.602539447E1
1.735807320E-1,2.341950178E0,-1.580505085E1,-2.820000172E0,1.622457284E1
1.755437080E-1,1.843950033E0,-1.630395126E1,-1.708950043E0,1.649665084E1
1.775062160E-1,1.306950092E0,-1.668704987E1,-5.590500236E-1,1.674748604E1
1.794688620E-1,1.192050099E0,-1.714695168E1,6.660000086E-1,1.720123517E1
1.814316960E-1,1.000050068E0,-1.760700035E1,1.777950048E0,1.772477554E1
1.833944750E-1,5.790000558E-1,-1.798995018E1,2.773950100E0,1.821176399E1
1.853566440E-1,2.340000123E-1,-1.848795128E1,3.579000235E0,1.883264031E1
1.873190010E-1,4.050000105E-3,-1.906305122E1,4.000950336E0,1.947838653E1
1.892822000E-1,-2.250000089E-1,-1.983000183E1,4.345950127E0,2.030189351E1
1.912451530E-1,-5.700000525E-1,-2.063505173E1,4.498950005E0,2.112748946E1
1.932079370E-1,-9.529500604E-1,-2.143995094E1,4.423050404E0,2.191216523E1
1.951707710E-1,-1.106999993E0,-2.232105064E1,4.423050404E0,2.278196931E1
1.971335290E-1,-1.260000110E0,-2.327895164E1,4.116000175E0,2.367358544E1
1.990963090E-1,-1.222050071E0,-2.419905090E1,3.771000147E0,2.452158056E1
2.010592550E-1,-1.106999993E0,-2.504205132E1,3.426000118E0,2.529955059E1
2.030221530E-1,-1.106999993E0,-2.577105141E1,2.965950251E0,2.596477230E1
2.049850370E-1,-9.919500351E-1,-2.649900055E1,2.467950106E0,2.663215674E1
2.069479250E-1,-8.380500674E-1,-2.715000153E1,2.046000004E0,2.723987935E1
2.089106790E-1,-4.930500090E-1,-2.761005211E1,1.548000097E0,2.765780866E1
2.108734690E-1,-1.870500147E-1,-2.806995201E1,1.050000072E0,2.809020637E1
2.128375400E-1,2.340000123E-1,-2.845395088E1,4.360500276E-1,2.845825392E1
2.148012360E-1,5.790000558E-1,-2.864505196E1,-9.900000691E-2,2.865107404E1
2.167639820E-1,9.240000248E-1,-2.875995064E1,-7.120500207E-1,2.878359866E1
2.187270070E-1,1.153950095E0,-2.864505196E1,-9.810000658E-1,2.868506517E1
2.206898930E-1,1.153950095E0,-2.845395088E1,-1.402050018E0,2.851183379E1
2.226528340E-1,1.192050099E0,-2.803200150E1,-1.479000092E0,2.809629037E1
2.246147180E-1,7.699500322E-1,-2.741895103E1,-1.786050081E0,2.748784593E1
2.265769110E-1,2.340000123E-1,-2.665200043E1,-2.169000149E0,2.674113768E1
2.285401380E-1,-2.629500031E-1,-2.588595200E1,-2.092050076E0,2.597168318E1
2.305030620E-1,-6.469500065E-1,-2.523405075E1,-2.130000114E0,2.533205010E1
2.324661610E-1,-1.106999993E0,-2.454405022E1,-1.900950074E0,2.464243213E1
2.344292120E-1,-1.452000022E0,-2.396895027E1,-1.747050047E0,2.407635905E1
2.363924290E-1,-1.873050094E0,-2.347095108E1,-1.287000060E0,2.358071734E1
2.383555970E-1,-2.332950115E0,-2.297295189E1,-9.420000315E-1,2.311031239E1
2.403187050E-1,-2.677950144E0,-2.251305199E1,-4.060500264E-1,2.267540084E1
2.422818300E-1,-2.869950056E0,-2.209095192E1,-6.105000153E-2,2.227668057E1
2.442439710E-1,-3.100050211E0,-2.167005157E1,2.449500114E-1,2.189204072E1
2.462063870E-1,-3.291000128E0,-2.124795151E1,5.899500251E-1,2.150939716E1
2.481692160E-1,-3.406050205E0,-2.090295029E1,9.730500579E-1,2.120097486E1
2.501319240E-1,-3.483000278E0,-2.036595154E1,1.126049995E0,2.069229957E1
2.520949290E-1,-3.559950113E0,-2.002200127E1,1.011000037E0,2.036113702E1
2.540578470E-1,-3.598050117E0,-1.960005188E1,1.087950110E0,1.995724515E1
2.560212570E-1,-3.675000191E0,-1.917795181E1,7.810500264E-1,1.954250499E1
2.579845290E-1,-3.559950113E0,-1.883295059E1,3.979500234E-1,1.917059303E1
2.599482940E-1,-3.636000156E0,-1.829700089E1,9.195000678E-2,1.865500451E1
2.619119140E-1,-3.445050240E0,-1.779900169E1,-3.670500219E-1,1.813305154E1
2.638747180E-1,-3.291000128E0,-1.729995155E1,-9.040500522E-1,1.763338629E1
2.658377620E-1,-2.985000134E0,-1.684005165E1,-1.249050021E0,1.714811043E1
2.678007090E-1,-2.755050182E0,-1.630395126E1,-1.671000123E0,1.661930714E1
2.697636850E-1,-2.448000193E0,-1.584405041E1,-2.014950037E0,1.615817632E1
2.717267330E-1,-2.103000164E0,-1.538400078E1,-2.398950100E0,1.571130329E1
2.736897600E-1,-1.795950055E0,-1.492395115E1,-2.629050016E0,1.525980532E1
2.756527110E-1,-1.413000107E0,-1.457895088E1,-2.820000172E0,1.491625888E1
2.776156850E-1,-1.068000078E0,-1.423395061E1,-2.935050249E0,1.457259394E1
2.795787550E-1,-7.230000496E-1,-1.381200027E1,-2.974050045E0,1.414705108E1
2.815418130E-1,-3.019500077E-1,-1.354395103E1,-3.127050161E0,1.390353287E1
2.835048490E-1,4.200000316E-2,-1.327605057E1,-3.319050074E0,1.368471323E1
2.854678920E-1,2.340000123E-1,-1.296900082E1,-3.625050068E0,1.346813744E1
2.874317390E-1,4.260000288E-1,-1.254795074E1,-3.817050219E0,1.312259183E1
2.893953510E-1,6.169500351E-1,-1.216395092E1,-4.084949970E0,1.284636702E1
2.913579430E-1,6.940500140E-1,-1.189605045E1,-4.237950325E0,1.264744815E1
2.933208580E-1,7.320000529E-1,-1.162800026E1,-4.392000198E0,1.245134048E1
2.952836020E-1,1.000050068E0,-1.135905075E1,-4.736999989E0,1.234776510E1
2.972463960E-1,1.192050099E0,-1.101495075E1,-4.890000343E0,1.211041811E1
2.992092950E-1,1.269000053E0,-1.051605034E1,-5.043000221E0,1.173156115E1
3.011721630E-1,1.345050097E0,-1.001805019E1,-5.272950172E0,1.140063564E1
3.031351410E-1,1.384050012E0,-9.673050880E0,-5.350050449E0,1.114031183E1
3.050980870E-1,1.345050097E0,-9.175050735E0,-5.580000401E0,1.082252837E1
3.070609620E-1,1.306950092E0,-8.638050079E0,-5.542050362E0,1.034593398E1
3.090238580E-1,1.306950092E0,-8.293050766E0,-5.542050362E0,1.005967851E1
3.109866050E-1,1.192050099E0,-7.756950378E0,-5.542050362E0,9.607579551E0
3.129493960E-1,1.114950061E0,-7.182000160E0,-5.580000401E0,9.163004115E0
3.149122060E-1,1.000050068E0,-6.721950531E0,-5.464950085E0,8.720687961E0
3.168750100E-1,9.240000248E-1,-6.223950386E0,-5.311950207E0,8.234570387E0
3.188380890E-1,9.240000248E-1,-5.649000168E0,-5.119950294E0,7.679770176E0
3.208010870E-1,8.470500112E-1,-5.149950027E0,-4.890000343E0,7.152033443E0
3.227641770E-1,7.320000529E-1,-4.690050125E0,-4.774950027E0,6.732944528E0
3.247272400E-1,6.169500351E-1,-4.192049980E0,-4.660050392E0,6.298410914E0
3.266900150E-1,6.940500140E-1,-3.732000113E0,-4.392000198E0,5.805100861E0
3.286528680E-1,5.790000558E-1,-3.349050045E0,-4.123950005E0,5.344000459E0
3.306150370E-1,5.020500422E-1,-2.889000177E0,-3.894000292E0,4.874588654E0
3.325774060E-1,4.260000288E-1,-2.428950071E0,-3.778950214E0,4.512398386E0
3.345399270E-1,3.490500152E-1,-2.122950077E0,-3.625050068E0,4.215417054E0
3.365024040E-1,1.960500032E-1,-1.816050053E0,-3.549000263E0,3.991475450E0
3.384651740E-1,4.050000105E-3,-1.509000063E0,-3.357000113E0,3.680563455E0
3.404278610E-1,-1.480500102E-1,-1.240950108E0,-3.394950151E0,3.617673632E0
3.423906890E-1,-2.250000089E-1,-1.126049995E0,-3.394950151E0,3.583894547E0
3.443534760E-1,-4.170000255E-1,-9.730500579E-1,-3.433950186E0,3.593428629E0
3.463160630E-1,-5.320500135E-1,-8.580000401E-1,-3.472050190E0,3.615850357E0
3.482787090E-1,-6.469500065E-1,-6.660000086E-1,-3.472050190E0,3.594055209E0
3.502416040E-1,-8.380500674E-1,-4.740000367E-1,-3.472050190E0,3.603073198E0
3.522044470E-1,-9.919500351E-1,-2.440500110E-1,-3.549000263E0,3.693091950E0
3.541670700E-1,-1.144950032E0,-1.290000081E-1,-3.549000263E0,3.731347538E0
3.561297570E-1,-1.297950029E0,-5.295000225E-2,-3.433950186E0,3.671442749E0
3.580918190E-1,-1.413000107E0,9.900000691E-2,-3.241950035E0,3.537882182E0
3.600540650E-1,-1.489950061E0,2.140500098E-1,-2.974050045E0,3.333278005E0
3.620169230E-1,-1.681950092E0,2.140500098E-1,-2.590050220E0,3.095663687E0
3.639796010E-1,-1.795950055E0,3.679500222E-1,-2.437050104E0,3.049596208E0
3.659427470E-1,-1.950000048E0,6.360000372E-1,-2.284050226E0,3.069834144E0
3.679057550E-1,-1.950000048E0,7.510500550E-1,-2.169000149E0,3.011832999E0
3.698687990E-1,-1.911000133E0,8.659500480E-1,-1.861950040E0,2.805111218E0
3.718318320E-1,-1.873050094E0,9.810000658E-1,-1.671000123E0,2.694980370E0
3.737949620E-1,-1.873050094E0,1.096050024E0,-1.441050053E0,2.605046557E0
3.757580630E-1,-1.758000135E0,1.173000097E0,-1.134000063E0,2.398426536E0
3.777214510E-1,-1.642950058E0,1.210950017E0,-7.510500550E-1,2.174801375E0
3.796847550E-1,-1.528050065E0,1.288050056E0,-5.590500236E-1,2.075222127E0
3.816474340E-1,-1.489950061E0,1.363950014E0,-4.060500264E-1,2.060385267E0
3.836102960E-1,-1.375050068E0,1.479000092E0,-9.900000691E-2,2.021881540E0
3.855728640E-1,-1.413000107E0,1.594050050E0,9.195000678E-2,2.132139692E0
3.875355210E-1,-1.297950029E0,1.708950043E0,2.830500007E-1,2.164555804E0
3.894990740E-1,-1.260000110E0,1.824000120E0,2.449500114E-1,2.230376027E0
3.914623650E-1,-1.183050036E0,1.900950074E0,2.830500007E-1,2.256842014E0
3.934246860E-1,-1.144950032E0,1.939050078E0,4.750500321E-1,2.301412244E0
3.953872910E-1,-1.106999993E0,1.939050078E0,6.280500293E-1,2.319441965E0
3.973504470E-1,-1.068000078E0,1.978050113E0,7.810500264E-1,2.379778469E0
3.993134420E-1,-9.529500604E-1,2.016000032E0,9.730500579E-1,2.432939860E0
4.012767140E-1,-7.999500632E-1,2.016000032E0,1.240950108E0,2.498826405E0
4.032399040E-1,-6.469500065E-1,1.978050113E0,1.356000066E0,2.483940969E0
4.052029180E-1,-5.320500135E-1,1.939050078E0,1.471050024E0,2.491381263E0
4.071659830E-1,-3.400500119E-1,1.939050078E0,1.471050024E0,2.457547027E0
4.091289420E-1,-2.250000089E-1,1.863000035E0,1.510050058E0,2.408660481E0
4.110919210E-1,-1.099500060E-1,1.786050081E0,1.471050024E0,2.316474060E0
4.130548340E-1,8.100000024E-2,1.671000123E0,1.432950020E0,2.202759218E0
4.150177670E-1,3.490500152E-1,1.518000126E0,1.240950108E0,1.991511352E0
4.169815440E-1,5.410500169E-1,1.326000094E0,1.011000037E0,1.753035210E0
4.189450730E-1,7.699500322E-1,1.173000097E0,7.429500222E-1,1.587679759E0
4.209082380E-1,9.619500637E-1,9.810000658E-1,5.130000114E-1,1.466587217E0
4.228715210E-1,1.114950061E0,7.129500508E-1,4.360500276E-1,1.393395507E0
4.248351470E-1,1.192050099E0,4.060500264E-1,3.220500052E-1,1.299837016E0
4.267986730E-1,1.306950092E0,9.900000691E-2,2.449500114E-1,1.333386686E0
4.287620340E-1,1.345050097E0,-9.105000645E-2,1.300500035E-1,1.354386529E0
4.307254440E-1,1.306950092E0,-2.059500068E-1,1.680000126E-1,1.333700849E0
4.326873630E-1,1.345050097E0,-2.830500007E-1,3.220500052E-1,1.411734136E0
4.346497330E-1,1.459950089E0,-5.890500546E-1,4.360500276E-1,1.633577013E0
4.366130660E-1,1.651950121E0,-8.959500194E-1,6.280500293E-1,1.981442020E0
4.385761160E-1,1.959000111E0,-1.203000069E0,8.200500607E-1,2.440772972E0
4.405388830E-1,2.188950062E0,-1.432950020E0,9.730500579E-1,2.791357116E0
4.425017330E-1,2.572050095E0,-1.663050056E0,1.087950110E0,3.250355768E0
4.444645030E-1,2.725050211E0,-1.893000126E0,1.240950108E0,3.542499866E0
4.464272860E-1,3.108000040E0,-2.199000120E0,1.356000066E0,4.041534604E0
4.483903670E-1,3.453000069E0,-2.391000032E0,1.395000100E0,4.425620398E0
4.503533610E-1,3.721950293E0,-2.659050226E0,1.510050058E0,4.817023278E0
4.523161380E-1,3.913050175E0,-2.851050138E0,1.548000097E0,5.082986609E0
4.542789780E-1,4.027950287E0,-3.004050255E0,1.624950051E0,5.281019231E0
4.562420350E-1,4.027950287E0,-3.157050133E0,1.740000129E0,5.405455531E0
4.582050390E-1,4.027950287E0,-3.387000084E0,1.855050087E0,5.580086371E0
4.601681740E-1,3.837000132E0,-3.349050045E0,2.085000038E0,5.503265519E0
4.621312700E-1,3.607050180E0,-3.234000206E0,2.353049994E0,5.385760170E0
4.640941190E-1,3.376950264E0,-3.118950129E0,2.430000067E0,5.199667616E0
4.660570410E-1,3.376950264E0,-3.081000090E0,2.506050110E0,5.213122077E0
4.680197980E-1,3.492000103E0,-3.196050167E0,2.238000154E0,5.236167117E0
4.699825930E-1,3.568050146E0,-3.271950245E0,2.046000004E0,5.255735559E0
4.719453580E-1,3.607050180E0,-3.157050133E0,1.855050087E0,5.139940405E0
4.739081320E-1,3.492000103E0,-3.042000055E0,1.624950051E0,4.907982450E0
4.758713050E-1,3.337950230E0,-2.889000177E0,1.471050024E0,4.653194809E0
4.778343610E-1,3.415050268E0,-3.004050255E0,1.471050024E0,4.780258826E0
4.797970570E-1,3.376950264E0,-3.004050255E0,1.356000066E0,4.718776027E0
4.817598440E-1,3.337950230E0,-3.042000055E0,1.395000100E0,4.726700895E0
4.837228340E-1,3.337950230E0,-2.965950251E0,1.356000066E0,4.666637848E0
4.856857650E-1,3.300000191E0,-2.926950216E0,1.318050027E0,4.603726176E0
4.876486880E-1,3.070050240E0,-2.926950216E0,1.240950108E0,4.419525225E0
4.896116130E-1,2.878050089E0,-2.965950251E0,1.087950110E0,4.273601367E0
4.915748450E-1,2.725050211E0,-2.889000177E0,1.203000069E0,4.149630085E0
4.935379910E-1,2.610000134E0,-2.812050104E0,1.240950108E0,4.032329805E0
4.955010570E-1,2.419050217E0,-2.697000027E0,1.240950108E0,3.829565284E0
4.974641470E-1,2.188950062E0,-2.620950222E0,1.318050027E0,3.660346748E0
4.994272220E-1,1.882050037E0,-2.467050076E0,1.432950020E0,3.417863979E0
5.013903010E-1,1.729050040E0,-2.351999998E0,1.471050024E0,3.268869255E0
5.033535560E-1,1.614000082E0,-2.314050198E0,1.510050058E0,3.200011838E0
5.053167600E-1,1.614000082E0,-2.161050081E0,1.510050058E0,3.091178561E0
5.072800410E-1,1.459950089E0,-2.008050203E0,1.663050056E0,2.988219431E0
5.092432990E-1,1.384050012E0,-1.816050053E0,1.777950048E0,2.893914063E0
5.112064810E-1,1.384050012E0,-1.701000094E0,1.816050053E0,2.847285295E0
5.131696850E-1,1.345050097E0,-1.624050021E0,1.930950046E0,2.859242262E0
5.151325600E-1,1.306950092E0,-1.471050024E0,1.930950046E0,2.756932135E0
5.170955320E-1,1.345050097E0,-1.432950020E0,1.969950080E0,2.782662186E0
5.190588060E-1,1.306950092E0,-1.318050027E0,1.969950080E0,2.706672816E0
5.210219910E-1,1.306950092E0,-1.318050027E0,2.008050203E0,2.734527388E0
5.229849150E-1,1.269000053E0,-1.164000034E0,2.008050203E0,2.645283129E0
5.249479160E-1,1.192050099E0,-1.048950076E0,2.122950077E0,2.651074637E0
5.269113400E-1,1.114950061E0,-8.959500194E-1,2.046000004E0,2.496388610E0
5.288746260E-1,9.619500637E-1,-7.429500222E-1,1.969950080E0,2.314741017E0
5.308378480E-1,7.699500322E-1,-5.130000114E-1,2.008050203E0,2.210940452E0
5.328010890E-1,6.940500140E-1,-3.589500189E-1,1.930950046E0,2.083055116E0
5.347632810E-1,5.410500169E-1,-1.680000126E-1,1.816050053E0,1.902366137E0
5.367257810E-1,4.639500082E-1,-1.290000081E-1,1.740000129E0,1.805406065E0
5.386880490E-1,4.639500082E-1,2.295000106E-2,1.624950051E0,1.690041118E0
5.406503580E-1,3.870000243E-1,2.530499995E-1,1.548000097E0,1.615582750E0
5.426137910E-1,2.340000123E-1,4.830000103E-1,1.510050058E0,1.602590464E0
5.445768940E-1,1.960500032E-1,7.510500550E-1,1.471050024E0,1.663279881E0
5.465402820E-1,1.960500032E-1,9.810000658E-1,1.356000066E0,1.685091366E0
5.485035870E-1,1.960500032E-1,1.210950017E0,1.240950108E0,1.744933442E0
5.504666990E-1,3.109500110E-1,1.402950048E0,1.203000069E0,1.874077883E0
5.524298480E-1,3.870000243E-1,1.633050084E0,1.126049995E0,2.021041857E0
5.543930470E-1,4.260000288E-1,1.747950077E0,8.580000401E-1,1.993230936E0
5.563562310E-1,1.960500032E-1,2.016000032E0,5.509500504E-1,2.099104021E0
5.583203710E-1,1.189500093E-1,2.284050226E0,2.830500007E-1,2.304593640E0
5.602842310E-1,-3.299999982E-2,2.476050138E0,1.500000060E-2,2.476315466E0
5.622473600E-1,-3.299999982E-2,2.590950012E0,-1.369500011E-1,2.594776728E0
5.642107000E-1,-1.099500060E-1,2.706000090E0,-1.759500057E-1,2.713942500E0
5.661741360E-1,-1.099500060E-1,2.743950129E0,-1.369500011E-1,2.749564805E0
5.681375440E-1,-1.099500060E-1,2.667000055E0,5.295000225E-2,2.669790629E0
5.700998440E-1,4.050000105E-3,2.551950216E0,1.680000126E-1,2.557477334E0
5.720624690E-1,4.200000316E-2,2.514000177E0,4.360500276E-1,2.551881760E0
5.740254520E-1,8.100000024E-2,2.476050138E0,5.899500251E-1,2.546650019E0
5.759883230E-1,8.100000024E-2,2.551950216E0,7.050000429E-1,2.648780090E0
5.779516160E-1,1.570500135E-1,2.476050138E0,6.660000086E-1,2.568860644E0
5.799147850E-1,1.960500032E-1,2.361000061E0,7.050000429E-1,2.471797312E0
5.818782070E-1,3.109500110E-1,2.322000027E0,7.050000429E-1,2.446507530E0
5.838415540E-1,1.189500093E-1,2.476050138E0,5.509500504E-1,2.539393501E0
5.858058010E-1,4.050000105E-3,2.706000090E0,1.500000060E-2,2.706044694E0
5.877697850E-1,-1.480500102E-1,2.859000206E0,-9.040500522E-1,3.002183785E0
5.897327520E-1,-3.780000210E-1,2.896950245E0,-2.322000027E0,3.731874711E0
5.916960170E-1,-5.700000525E-1,2.935950041E0,-4.200000286E0,5.156035794E0
5.936596010E-1,-6.850500107E-1,2.821050167E0,-6.307950497E0,6.943907908E0
5.956230920E-1,-8.380500674E-1,2.551950216E0,-8.646000862E0,9.053624066E0
5.975864190E-1,-1.106999993E0,2.053950071E0,-1.098405075E1,1.122913758E1
5.995497910E-1,-1.489950061E0,1.402950048E0,-1.263195038E1,1.279665544E1
6.015139430E-1,-1.834950089E0,5.209500194E-1,-1.293900108E1,1.307884474E1
6.034778660E-1,-2.103000164E0,-3.210000098E-1,-1.167405033E1,1.186630110E1
6.054409340E-1,-2.524950027E0,-1.471050024E0,-9.604050636E0,1.003878227E1
6.074042520E-1,-2.793000221E0,-2.697000027E0,-7.687950134E0,8.612736885E0
6.093674880E-1,-2.985000134E0,-4.116000175E0,-6.652950287E0,8.373376306E0
6.113307340E-1,-3.214950085E0,-5.572050095E0,-6.460950375E0,9.117429794E0
6.132939620E-1,-3.445050240E0,-7.297050476E0,-6.997950554E0,1.068113424E1
6.152571950E-1,-3.904950142E0,-9.289950371E0,-8.263050079E0,1.303187669E1
6.172206050E-1,-4.863000393E0,-1.162800026E1,-1.033305073E1,1.629819316E1
6.191839630E-1,-6.817050457E0,-1.450200081E1,-1.301595020E1,2.064449476E1
6.211472320E-1,-8.848950386E0,-1.822005081E1,-1.562205029E1,2.557973084E1
6.231105170E-1,-1.068795013E1,-2.209095192E1,-1.462500095E1,2.856804312E1
6.250738720E-1,-1.260495090E1,-2.561700058E1,-1.086900043E1,3.054915181E1
6.270372070E-1,-1.429095078E1,-2.841495132E1,-6.997950554E0,3.256703924E1
6.290002860E-1,-1.551795101E1,-3.056205177E1,-4.047000408E0,3.451411341E1
6.309634400E-1,-1.659105110E1,-3.155805206E1,-2.206950188E0,3.572176166E1
6.329266590E-1,-1.728105164E1,-3.228600311E1,-1.134000063E0,3.663750399E1
6.348898760E-1,-1.762605095E1,-3.274605179E1,-3.289500177E-1,3.718991514E1
6.368525690E-1,-1.728105164E1,-3.320595169E1,4.360500276E-1,3.743608036E1
6.388154160E-1,-1.647599983E1,-3.362805176E1,1.816050053E0,3.749136532E1
6.407790270E-1,-1.540305042E1,-3.408795166E1,2.698050022E0,3.750362495E1
6.427424140E-1,-1.383105087E1,-3.477795029E1,3.388050079E0,3.758034962E1
6.447057990E-1,-1.183800030E1,-3.565904999E1,3.310950041E0,3.771827789E1
6.466691850E-1,-9.691950798E0,-3.646395111E1,3.234000206E0,3.786835616E1
6.486320740E-1,-7.468950272E0,-3.776700211E1,3.081000090E0,3.862155134E1
6.505951080E-1,-4.863000393E0,-3.960705185E1,2.430000067E0,3.997839703E1
6.525581910E-1,-2.677950144E0,-4.163805008E1,1.969950080E0,4.177055583E1
6.545212600E-1,-9.150000215E-1,-4.370805359E1,2.353049994E0,4.378090929E1
6.564855360E-1,6.940500140E-1,-4.589295197E1,2.928000212E0,4.599149846E1
6.584494720E-1,2.341950178E0,-4.838400269E1,2.928000212E0,4.852905966E1
6.604129430E-1,4.027950287E0,-5.072205353E1,1.855050087E0,5.091554093E1
6.623765510E-1,5.485050201E0,-5.271495438E1,2.449500114E-1,5.300011501E1
6.643404820E-1,6.979950428E0,-5.451600266E1,-3.049950123E0,5.504558519E1
6.663043180E-1,8.512949944E0,-5.581905365E1,-7.650000572E0,5.698034377E1
6.682675960E-1,1.023705006E1,-5.677800369E1,-1.259400082E1,5.905207663E1
6.702310270E-1,1.219200039E1,-5.689305115E1,-1.681005096E1,6.056436209E1
6.721942230E-1,1.429995060E1,-5.639400101E1,-1.957005119E1,6.138207263E1
6.741574880E-1,1.548795033E1,-5.482305145E1,-1.991400146E1,6.034907647E1
6.761205780E-1,1.698300171E1,-5.283000183E1,-1.826595116E1,5.842154065E1
6.780837190E-1,1.694505119E1,-5.033895111E1,-1.539195061E1,5.529970074E1
6.800469100E-1,1.617794991E1,-4.708095169E1,-1.236405087E1,5.129533925E1
6.820100930E-1,1.495200062E1,-4.370805359E1,-9.718950272E0,4.720608293E1
6.839729720E-1,1.203900051E1,-4.010505295E1,-7.611000538E0,4.255913691E1
6.859359410E-1,7.593000412E0,-3.615705109E1,-6.078000069E0,3.744233010E1
6.878979540E-1,3.070050240E0,-3.270795059E1,-4.966950417E0,3.322507843E1
6.898602480E-1,-3.400500119E-1,-2.979495049E1,-4.276950359E0,3.010227587E1
6.918236190E-1,-2.946000099E0,-2.741895103E1,-3.739950180E0,2.782921163E1
6.937866880E-1,-4.708950043E0,-2.538705063E1,-3.319050074E0,2.603253049E1
6.957501720E-1,-5.782950401E0,-2.362395096E1,-2.667000055E0,2.446725288E1
6.977135340E-1,-6.549000263E0,-2.197605133E1,-2.130000114E0,2.302983146E1
6.996767440E-1,-7.009050369E0,-2.044305038E1,-1.671000123E0,2.167573153E1
7.016399980E-1,-7.660950184E0,-1.906305122E1,-1.363950014E0,2.059005681E1
7.036030350E-1,-8.005949974E0,-1.787505150E1,-1.057050109E0,1.961453685E1
7.055661420E-1,-8.311950684E0,-1.680195045E1,-1.057050109E0,1.877528743E1
7.075291690E-1,-8.427000046E0,-1.607400131E1,-1.249050021E0,1.819197554E1
7.094922190E-1,-8.236050606E0,-1.549905109E1,-1.363950014E0,1.760435952E1
7.114553450E-1,-7.891050339E0,-1.511595058E1,-1.632000089E0,1.712962527E1
7.134184480E-1,-7.431000233E0,-1.488600063E1,-1.786050081E0,1.673328283E1
7.153811410E-1,-7.009050369E0,-1.477095032E1,-1.939050078E0,1.646413300E1
7.173439690E-1,-6.433950424E0,-1.477095032E1,-2.130000114E0,1.625157198E1
7.193070880E-1,-6.013050079E0,-1.492395115E1,-2.130000114E0,1.623015680E1
7.212701210E-1,-5.590950489E0,-1.511595058E1,-2.014950037E0,1.624225086E1
7.232333850E-1,-5.284050465E0,-1.534605026E1,-1.900950074E0,1.634123799E1
7.251965820E-1,-4.939050198E0,-1.561395073E1,-1.824000120E0,1.647776231E1
7.271598000E-1,-4.594050407E0,-1.591995049E1,-1.747050047E0,1.666140170E1
7.291230250E-1,-4.210950375E0,-1.626495171E1,-1.632000089E0,1.688028973E1
7.310862570E-1,-3.904950142E0,-1.649505043E1,-1.516950130E0,1.701870918E1
7.330494860E-1,-3.636000156E0,-1.684005165E1,-1.249050021E0,1.727333097E1
7.350128970E-1,-3.367950201E0,-1.718505096E1,-9.420000315E-1,1.753728683E1
7.369762550E-1,-3.100050211E0,-1.741500092E1,-5.970000029E-1,1.769884113E1
7.389398110E-1,-2.946000099E0,-1.764495087E1,-2.140500098E-1,1.789047303E1
7.409033180E-1,-2.869950056E0,-1.776000023E1,9.195000678E-2,1.799062746E1
7.428656010E-1,-2.793000221E0,-1.795200157E1,3.600000143E-1,1.817153848E1
7.448282430E-1,-2.755050182E0,-1.814295006E1,5.899500251E-1,1.836041882E1
7.467917090E-1,-2.640000105E0,-1.822005081E1,7.429500222E-1,1.842530398E1
7.487549340E-1,-2.601000071E0,-1.822005081E1,1.011000037E0,1.843251405E1
7.507181460E-1,-2.563050032E0,-1.818195152E1,1.087950110E0,1.839391807E1
7.526813750E-1,-2.485950232E0,-1.810500145E1,1.356000066E0,1.832511288E1
7.546444270E-1,-2.332950115E0,-1.791300011E1,1.471050024E0,1.812407838E1
7.566075310E-1,-2.179949999E0,-1.768395042E1,1.548000097E0,1.788492630E1
7.585706470E-1,-2.103000164E0,-1.741500092E1,1.510050058E0,1.760639423E1
7.605337600E-1,-1.950000048E0,-1.707000160E1,1.585950017E0,1.725406307E1
7.624968130E-1,-1.795950055E0,-1.664895058E1,1.701000094E0,1.683170797E1
7.644598970E-1,-1.567050099E0,-1.622700119E1,1.777950048E0,1.639915608E1
7.664231060E-1,-1.375050068E0,-1.572900105E1,1.930950046E0,1.590662770E1
7.683862790E-1,-1.030050039E0,-1.534605026E1,1.969950080E0,1.550622343E1
7.703495650E-1,-7.230000496E-1,-1.488600063E1,1.930950046E0,1.502811738E1
7.723128180E-1,-3.400500119E-1,-1.438695049E1,1.893000126E0,1.451493810E1
7.742761410E-1,-7.200000435E-2,-1.392705059E1,1.777950048E0,1.404026455E1
7.762394710E-1,1.189500093E-1,-1.342905045E1,1.701000094E0,1.353687358E1
7.782028650E-1,2.340000123E-1,-1.285395050E1,1.624950051E0,1.295836649E1
7.801662400E-1,3.109500110E-1,-1.231800079E1,1.585950017E0,1.242356917E1
7.821293120E-1,4.639500082E-1,-1.170405102E1,1.510050058E0,1.181017828E1
7.840924730E-1,4.260000288E-1,-1.109100056E1,1.471050024E0,1.119623854E1
7.860554990E-1,4.639500082E-1,-1.051605034E1,1.432950020E0,1.062336623E1
7.880185590E-1,4.260000288E-1,-1.001805019E1,1.240950108E0,1.010360148E1
7.899818630E-1,5.020500422E-1,-9.481050491E0,1.165050030E0,9.565548298E0
7.919450960E-1,4.260000288E-1,-8.944950104E0,1.087950110E0,9.020933645E0
7.939092280E-1,5.410500169E-1,-8.407950401E0,1.011000037E0,8.485781411E0
7.958730960E-1,8.089500666E-1,-7.872000217E0,1.087950110E0,7.987892280E0
7.978358530E-1,9.240000248E-1,-7.372950554E0,9.730500579E-1,7.494064473E0
7.997989390E-1,9.619500637E-1,-6.874950409E0,9.730500579E-1,7.009787263E0
8.017620140E-1,1.077000022E0,-6.415050507E0,7.429500222E-1,6.547119732E0
8.037250930E-1,1.077000022E0,-5.917050362E0,6.660000086E-1,6.051030494E0
8.056881700E-1,1.077000022E0,-5.494950294E0,5.130000114E-1,5.622950898E0
8.076512470E-1,9.619500637E-1,-4.996950150E0,3.979500234E-1,5.104235784E0
8.096150430E-1,9.240000248E-1,-4.651950359E0,1.680000126E-1,4.745802587E0
8.115786290E-1,9.240000248E-1,-4.231050014E0,5.295000225E-2,4.331092700E0
8.135416200E-1,9.619500637E-1,-3.961950302E0,-6.105000153E-2,4.077514589E0
8.155047850E-1,8.470500112E-1,-3.541050196E0,-2.520000041E-1,3.649662205E0
8.174679810E-1,8.470500112E-1,-3.157050133E0,-2.910000086E-1,3.281636827E0
8.194311680E-1,6.940500140E-1,-2.773950100E0,-4.440000355E-1,2.893724349E0
8.213937550E-1,6.550500393E-1,-2.391000032E0,-4.440000355E-1,2.518552708E0
8.233565010E-1,5.410500169E-1,-1.969050050E0,-5.970000029E-1,2.127510804E0
8.253196340E-1,3.870000243E-1,-1.624050021E0,-6.739500165E-1,1.800421094E0
8.272826530E-1,2.340000123E-1,-1.240950108E0,-7.890000343E-1,1.489038021E0
8.292459200E-1,4.200000316E-2,-7.039500475E-1,-6.739500165E-1,9.754579921E-1
8.312091150E-1,-3.299999982E-2,-3.210000098E-1,-7.890000343E-1,8.524383030E-1
8.331712410E-1,-7.200000435E-2,-5.295000225E-2,-7.890000343E-1,7.940458158E-1
8.351336700E-1,-1.099500060E-1,2.910000086E-1,-9.810000658E-1,1.029140971E0
8.370968570E-1,4.050000105E-3,6.360000372E-1,-1.096050024E0,1.267216676E0
8.390598220E-1,8.100000024E-2,7.890000343E-1,-1.479000092E0,1.678250078E0
8.410231440E-1,1.570500135E-1,1.096050024E0,-1.786050081E0,2.101419819E0
8.429863610E-1,2.340000123E-1,1.249050021E0,-2.092050076E0,2.447765405E0
8.449499290E-1,3.109500110E-1,1.441050053E0,-2.322000027E0,2.750454378E0
8.469133800E-1,4.639500082E-1,1.479000092E0,-2.437050104E0,2.888235463E0
8.488775190E-1,7.320000529E-1,1.594050050E0,-2.475000143E0,3.033553254E0
8.508414560E-1,1.114950061E0,1.594050050E0,-2.629050016E0,3.270475988E0
8.528045220E-1,1.306950092E0,1.708950043E0,-2.667000055E0,3.426589863E0
8.547678430E-1,1.498950124E0,1.671000123E0,-2.667000055E0,3.485969331E0
8.567308440E-1,1.575000048E0,1.708950043E0,-2.704950094E0,3.566215138E0
8.586939630E-1,1.575000048E0,1.824000120E0,-2.629050016E0,3.566441585E0
8.606572120E-1,1.614000082E0,1.900950074E0,-2.743950129E0,3.707811991E0
8.626204220E-1,1.767000079E0,1.863000035E0,-2.974050045E0,3.929126122E0
8.645835220E-1,1.959000111E0,1.900950074E0,-3.127050161E0,4.150871635E0
8.665466550E-1,2.188950062E0,1.824000120E0,-3.280050039E0,4.344790797E0
8.685100320E-1,2.457000017E0,1.633050084E0,-3.357000113E0,4.469133184E0
8.704733410E-1,2.686950207E0,1.479000092E0,-3.394950151E0,4.575240891E0
8.724363790E-1,2.917050123E0,1.326000094E0,-3.472050190E0,4.724678846E0
8.743994960E-1,3.223050117E0,1.173000097E0,-3.433950186E0,4.853451882E0
8.763624310E-1,3.492000103E0,9.810000658E-1,-3.472050190E0,5.021111268E0
8.783254200E-1,3.760050297E0,8.659500480E-1,-3.472050190E0,5.190662794E0
8.802883370E-1,4.027950287E0,7.129500508E-1,-3.586950064E0,5.440486380E0
8.822512710E-1,4.219950199E0,5.980500579E-1,-3.664050102E0,5.620578859E0
8.842145510E-1,4.411950111E0,4.830000103E-1,-3.472050190E0,5.635044394E0
8.861777300E-1,4.680000305E0,2.530499995E-1,-3.510000229E0,5.855470841E0
8.881413300E-1,4.833000183E0,1.759500057E-1,-3.433950186E0,5.931345805E0
8.901048070E-1,5.140050411E0,2.295000106E-2,-3.472050190E0,6.202884608E0
8.920684810E-1,5.293050289E0,-1.680000126E-1,-3.472050190E0,6.332435384E0
8.940321050E-1,5.560950279E0,-3.210000098E-1,-3.510000229E0,6.583867452E0
8.959952690E-1,5.830050468E0,-6.280500293E-1,-3.510000229E0,6.834035185E0
8.979585680E-1,6.175050259E0,-1.126049995E0,-3.702000141E0,7.287251837E0
8.999212920E-1,6.405000210E0,-1.663050056E0,-4.047000408E0,7.756801885E0
9.018841840E-1,6.481050491E0,-2.238000154E0,-4.468050003E0,8.183894610E0
9.038470870E-1,6.405000210E0,-2.736000061E0,-4.966950417E0,8.554549694E0
9.058099730E-1,6.213000298E0,-3.234000206E0,-5.617950439E0,8.978947442E0
9.077725420E-1,5.983050346E0,-3.655950069E0,-6.307950497E0,9.431495206E0
9.097352040E-1,5.752950191E0,-4.000950336E0,-7.305000305E0,1.012260189E1
9.116981710E-1,5.523000240E0,-4.345950127E0,-8.148000717E0,1.076014544E1
9.136610480E-1,5.293050289E0,-4.614000320E0,-8.953050613E0,1.137815871E1
9.156238450E-1,4.948050022E0,-4.729050159E0,-9.451050758E0,1.166916770E1
9.175866650E-1,4.680000305E0,-4.920000076E0,-9.873000145E0,1.198269316E1
9.195496050E-1,4.297049999E0,-4.959000111E0,-1.002600002E1,1.198236192E1
9.215125100E-1,3.990000248E0,-4.920000076E0,-9.988050461E0,1.182741116E1
9.234752120E-1,3.721950293E0,-4.882050037E0,-9.834000587E0,1.159288118E1
9.254379730E-1,3.300000191E0,-4.767000198E0,-9.451050758E0,1.108768022E1
9.274009630E-1,2.917050123E0,-4.614000320E0,-8.875950813E0,1.042020553E1
9.293638890E-1,2.649000168E0,-4.422000408E0,-8.377950668E0,9.836734565E0
9.313264520E-1,2.341950178E0,-4.192049980E0,-7.803000450E0,9.162141109E0
9.332891220E-1,2.074050188E0,-3.924000263E0,-7.113000393E0,8.384165840E0
9.352520870E-1,1.920000076E0,-3.655950069E0,-6.538050175E0,7.732947128E0
9.372149660E-1,1.804950118E0,-3.463950157E0,-5.809950352E0,7.000879853E0
9.391780460E-1,1.804950118E0,-3.196050167E0,-5.043000221E0,6.237341808E0
9.411410570E-1,1.882050037E0,-2.965950251E0,-4.392000198E0,5.623934475E0
9.431040110E-1,1.996950150E0,-2.851050138E0,-3.817050219E0,5.165865771E0
9.450669820E-1,2.074050188E0,-2.697000027E0,-3.357000113E0,4.779638384E0
9.470298970E-1,2.111999989E0,-2.506050110E0,-2.820000172E0,4.323567054E0
9.489928280E-1,2.149950027E0,-2.314050198E0,-2.169000149E0,3.831667402E0
9.509558790E-1,2.111999989E0,-2.122950077E0,-1.632000089E0,3.410408373E0
9.529188980E-1,2.074050188E0,-1.893000126E0,-1.096050024E0,3.014375444E0
9.548818510E-1,2.149950027E0,-1.777950048E0,-5.590500236E-1,2.845334501E0
9.568448230E-1,2.188950062E0,-1.738950133E0,-6.105000153E-2,2.796279142E0
9.588068370E-1,2.227050066E0,-1.624050021E0,4.750500321E-1,2.796956024E0
9.607691310E-1,2.227050066E0,-1.548000097E0,1.050000072E0,2.908359752E0
9.627323110E-1,2.227050066E0,-1.432950020E0,1.510050058E0,3.048499456E0
9.646952210E-1,2.227050066E0,-1.393950105E0,1.969950080E0,3.283831940E0
9.666583720E-1,2.149950027E0,-1.279050112E0,2.583000183E0,3.595850978E0
9.686214520E-1,2.074050188E0,-1.164000034E0,3.081000090E0,3.892189848E0
9.705844840E-1,1.804950118E0,-1.011000037E0,3.502950191E0,4.068246065E0
9.725475310E-1,1.614000082E0,-8.190000653E-1,3.924000263E0,4.321288632E0
9.745106170E-1,1.422000051E0,-6.280500293E-1,4.308000088E0,4.579890363E0
9.764736880E-1,1.306950092E0,-4.740000367E-1,4.806000233E0,5.003042356E0
9.784369910E-1,1.230000019E0,-3.979500234E-1,5.074050426E0,5.236148584E0
9.804002260E-1,1.077000022E0,-2.440500110E-1,5.304000378E0,5.417740254E0
9.823623300E-1,8.089500666E-1,-1.290000081E-1,5.457000256E0,5.518142169E0
9.843247660E-1,5.020500422E-1,-5.295000225E-2,5.649000168E0,5.671513100E0
9.862874110E-1,1.960500032E-1,6.105000153E-2,5.764050484E0,5.767706709E0
9.882499950E-1,-7.200000435E-2,2.140500098E-1,5.917050362E0,5.921358492E0
9.902131570E-1,-3.019500077E-1,2.910000086E-1,6.031950474E0,6.046509847E0
9.921761490E-1,-4.549500346E-1,4.060500264E-1,6.147000313E0,6.177173221E0
9.941391060E-1,-6.079500318E-1,4.830000103E-1,6.223950386E0,6.272196637E0
9.961020740E-1,-7.999500632E-1,6.739500165E-1,6.376950264E0,6.462168630E0
9.980649890E-1,-9.529500604E-1,8.280000687E-1,6.568950176E0,6.689155728E0
1.000027920E0,-1.030050039E0,1.018950105E0,6.721950531E0,6.876327606E0
1.001991021E0,-9.529500604E-1,1.096050024E0,6.760950089E0,6.915192374E0
1.003954072E0,-9.150000215E-1,1.210950017E0,6.760950089E0,6.929218649E0
1.005917154E0,-9.150000215E-1,1.210950017E0,6.646050453E0,6.817155683E0
1.007880226E0,-8.770500422E-1,1.249050021E0,6.568950176E0,6.743919420E0
1.009843443E0,-8.380500674E-1,1.210950017E0,6.492000103E0,6.656935721E0
1.011806615E0,-8.770500422E-1,1.249050021E0,6.376950264E0,6.557044868E0
1.013769721E0,-7.999500632E-1,1.249050021E0,6.301050186E0,6.473274249E0
1.015732847E0,-9.150000215E-1,1.173000097E0,6.301050186E0,6.474286657E0
1.017695736E0,-9.919500351E-1,1.173000097E0,6.186000347E0,6.373891621E0
1.019658694E0,-1.068000078E0,1.288050056E0,6.147000313E0,6.370660088E0
1.021621800E0,-1.260000110E0,1.249050021E0,6.031950474E0,6.287459960E0
1.023584855E0,-1.297950029E0,1.363950014E0,5.994000435E0,6.282760152E0
1.025548071E0,-1.413000107E0,1.402950048E0,5.802000046E0,6.134170088E0
1.027511240E0,-1.528050065E0,1.441050053E0,5.686950207E0,6.062422363E0
1.029474527E0,-1.567050099E0,1.479000092E0,5.572050095E0,5.974180240E0
1.031437779E0,-1.605000019E0,1.518000126E0,5.457000256E0,5.887206573E0
1.033400461E0,-1.567050099E0,1.555950046E0,5.304000378E0,5.745349995E0
1.035363314E0,-1.489950061E0,1.594050050E0,5.112000465E0,5.558191748E0
1.037326203E0,-1.489950061E0,1.555950046E0,4.959000111E0,5.406719322E0
1.039289081E0,-1.452000022E0,1.594050050E0,4.729050159E0,5.197423885E0
1.041252237E0,-1.413000107E0,1.594050050E0,4.423050404E0,4.909270795E0
1.043215312E0,-1.336950064E0,1.594050050E0,4.039050102E0,4.543386046E0
1.045178769E0,-1.336950064E0,1.594050050E0,3.733050108E0,4.273651149E0
1.047142100E0,-1.336950064E0,1.555950046E0,3.426000118E0,3.993230876E0
1.049105494E0,-1.375050068E0,1.555950046E0,2.965950251E0,3.620580633E0
1.051068870E0,-1.413000107E0,1.555950046E0,2.391000032E0,3.183462109E0
1.053032256E0,-1.489950061E0,1.555950046E0,1.930950046E0,2.893008781E0
1.054995639E0,-1.452000022E0,1.555950046E0,1.471050024E0,2.587136019E0
1.056959009E0,-1.375050068E0,1.594050050E0,1.126049995E0,2.387414259E0
1.058922362E0,-1.336950064E0,1.633050084E0,6.280500293E-1,2.201984307E0
1.060886472E0,-1.260000110E0,1.633050084E0,1.680000126E-1,2.069462939E0
1.062850360E0,-1.260000110E0,1.708950043E0,-1.369500011E-1,2.127643257E0
1.064813344E0,-1.222050071E0,1.747950077E0,-4.819500148E-1,2.186552461E0
1.066776593E0,-1.183050036E0,1.786050081E0,-9.420000315E-1,2.340287662E0
1.068739299E0,-1.183050036E0,1.824000120E0,-1.326000094E0,2.546538843E0
1.070702150E0,-1.144950032E0,1.863000035E0,-1.671000123E0,2.752075784E0
1.072665220E0,-1.030050039E0,1.863000035E0,-2.130000114E0,3.011423700E0
1.074628225E0,-9.919500351E-1,1.863000035E0,-2.514000177E0,3.282518986E0
1.076591540E0,-9.150000215E-1,1.900950074E0,-2.935050249E0,3.614603185E0
1.078554764E0,-9.529500604E-1,1.863000035E0,-3.433950186E0,4.021305364E0
1.080517827E0,-1.030050039E0,1.824000120E0,-3.894000292E0,4.421675903E0
1.082480930E0,-1.106999993E0,1.671000123E0,-4.545000076E0,4.967365105E0
1.084444181E0,-1.183050036E0,1.402950048E0,-5.350050449E0,5.656051276E0
1.086407389E0,-1.183050036E0,1.173000097E0,-6.768000126E0,6.970033165E0
1.088370759E0,-1.413000107E0,7.890000343E-1,-9.259050369E0,9.399420413E0
1.090334081E0,-1.681950092E0,4.440000355E-1,-1.343700027E1,1.354913534E1
1.092298048E0,-2.026050091E0,-1.500000060E-2,-1.945500183E1,1.956021984E1
1.094261836E0,-2.179949999E0,-3.589500189E-1,-2.336400032E1,2.346822401E1
1.096224612E0,-2.485950232E0,-1.048950076E0,-2.458995056E1,2.473754057E1
1.098187684E0,-2.869950056E0,-1.663050056E0,-2.547195053E1,2.568701253E1
1.100150896E0,-3.520950079E0,-2.391000032E0,-2.539500046E1,2.574917511E1
1.102114067E0,-4.173000336E0,-3.157050133E0,-2.386200142E1,2.442899935E1
1.104077349E0,-4.671000004E0,-4.077000141E0,-2.148600197E1,2.236265753E1
1.106040601E0,-5.092950344E0,-5.227050304E0,-1.853505135E1,1.992004836E1
1.108003649E0,-5.553000450E0,-6.529950142E0,-1.523895073E1,1.748432676E1
1.109966757E0,-5.782950401E0,-7.680000305E0,-1.171200085E1,1.515242172E1
1.111930143E0,-6.013050079E0,-8.868000031E0,-8.110050201E0,1.343767502E1
1.113893447E0,-6.088950157E0,-1.032495022E1,-4.429950237E0,1.277905983E1
1.115855601E0,-6.357000351E0,-1.197300053E1,-8.659500480E-1,1.358359542E1
1.117818112E0,-6.856050491E0,-1.404195023E1,2.008050203E0,1.575481070E1
1.119781601E0,-7.354050159E0,-1.660995102E1,4.384050369E0,1.868669110E1
1.121744803E0,-8.121000290E0,-1.936995125E1,6.070950508E0,2.186325907E1
1.123707905E0,-8.925000191E0,-2.239800072E1,6.799050331E0,2.505101096E1
1.125671036E0,-9.654000282E0,-2.542605209E1,7.105050564E0,2.810988421E1
1.127634098E0,-1.045905018E1,-2.853000069E1,6.952050209E0,3.117184101E1
1.129597184E0,-1.118700027E1,-3.201795197E1,6.339000225E0,3.450334979E1
1.131560080E0,-1.195305061E1,-3.542895126E1,5.802000046E0,3.783846206E1
1.133523031E0,-1.233705044E1,-3.883995056E1,5.341950417E0,4.110086383E1
1.135486308E0,-1.218300056E1,-4.186800385E1,4.921050072E0,4.388133980E1
1.137449490E0,-1.134000015E1,-4.497300339E1,4.959000111E0,4.664502459E1
1.139412904E0,-1.011405087E1,-4.777095413E1,4.498950005E0,4.903670701E1
1.141376254E0,-8.311950684E0,-5.014695358E1,4.116000175E0,5.099751891E1
1.143339645E0,-5.514000416E0,-5.202495193E1,3.886050224E0,5.246047284E1
1.145303024E0,-1.987950087E0,-5.329005432E1,3.234000206E0,5.342509328E1
1.147267986E0,2.227050066E0,-5.390295410E1,1.548000097E0,5.397114523E1
1.149232485E0,6.289950371E0,-5.378805161E1,-2.130000114E0,5.419644704E1
1.151195510E0,1.027605057E1,-5.332800293E1,-7.726050377E0,5.485585626E1
1.153158959E0,1.407000065E1,-5.248500061E1,-1.370505047E1,5.603988415E1
1.155121972E0,1.713600159E1,-5.167995071E1,-1.884105110E1,5.761462542E1
1.157085113E0,1.928295135E1,-5.068395233E1,-2.106405067E1,5.817550574E1
1.159048178E0,2.008800125E1,-4.957200241E1,-2.125605011E1,5.755632792E1
1.161011266E0,2.024100113E1,-4.846095276E1,-1.960800171E1,5.605921691E1
1.162974321E0,1.943595123E1,-4.696605301E1,-1.585200119E1,5.324333082E1
1.164937400E0,1.851600075E1,-4.596900177E1,-1.182705021E1,5.094968620E1
1.166900296E0,1.752000046E1,-4.512600327E1,-7.687950134E0,4.901439752E1
1.168863246E0,1.660004997E1,-4.420605087E1,-3.586950064E0,4.735612741E1
1.170825624E0,1.564200115E1,-4.301805115E1,2.449500114E-1,4.577428235E1
1.172788170E0,1.472205067E1,-4.186800385E1,2.812950134E0,4.447000349E1
1.174751747E0,1.357200050E1,-4.056495285E1,4.231050014E0,4.298390840E1
1.176715019E0,1.154100037E1,-3.899400330E1,4.153950214E0,4.087765019E1
1.178679144E0,8.320950508E0,-3.692400360E1,2.122950077E0,3.790946025E1
1.180643019E0,5.905950069E0,-3.496905136E1,-6.739500165E-1,3.547067814E1
1.182606275E0,4.105050087E0,-3.313005066E1,-3.049950123E0,3.352243858E1
1.184569713E0,2.227050066E0,-3.151995087E1,-4.890000343E0,3.197466431E1
1.186532057E0,3.490500152E-1,-2.994795227E1,-6.040050507E0,3.055296862E1
1.188494718E0,-1.413000107E0,-2.856900215E1,-6.423000336E0,2.931619666E1
1.190458046E0,-2.908050060E0,-2.730405045E1,-6.423000336E0,2.819969608E1
1.192421178E0,-4.210950375E0,-2.626905060E1,-5.887050152E0,2.724798124E1
1.194384425E0,-5.245950222E0,-2.527200127E1,-5.272950172E0,2.634384264E1
1.196347639E0,-6.204000473E0,-2.419905090E1,-4.813050270E0,2.544109155E1
1.198311048E0,-6.970950127E0,-2.324100113E1,-4.276950359E0,2.463799066E1
1.200274403E0,-7.699050426E0,-2.216805077E1,-3.817050219E0,2.377535961E1
1.202237749E0,-8.197050095E0,-2.132505035E1,-3.472050190E0,2.310853815E1
1.204201098E0,-8.580000877E0,-2.055795097E1,-3.280050039E0,2.251676024E1
1.206164353E0,-8.964000702E0,-1.979205132E1,-3.012000084E0,2.193514870E1
1.208127636E0,-9.232050896E0,-1.906305122E1,-2.629050016E0,2.134344372E1
1.210090973E0,-9.309000015E0,-1.837305069E1,-2.322000027E0,2.072723226E1
1.212054307E0,-9.270000458E0,-1.787505150E1,-1.977000117E0,2.023261980E1
1.214017701E0,-9.424050331E0,-1.753005028E1,-1.632000089E0,1.996944695E1
1.215981077E0,-9.346950531E0,-1.733895111E1,-1.326000094E0,1.974241591E1
1.217944463E0,-9.577050209E0,-1.729995155E1,-9.810000658E-1,1.979824678E1
1.219907846E0,-9.654000282E0,-1.753005028E1,-8.269500136E-1,2.002963381E1
1.221871236E0,-9.654000282E0,-1.764495087E1,-5.590500236E-1,2.012104742E1
1.223834620E0,-9.577050209E0,-1.783695030E1,-4.440000355E-1,2.025027957E1
1.225797826E0,-9.309000015E0,-1.810500145E1,-3.670500219E-1,2.036131834E1
1.227761084E0,-8.848950386E0,-1.833495140E1,-9.900000691E-2,2.035888422E1
1.229724534E0,-8.236050606E0,-1.867995071E1,-6.105000153E-2,2.041511243E1
1.231687928E0,-7.546050549E0,-1.887195015E1,1.680000126E-1,2.032539312E1
1.233651136E0,-7.047000408E0,-1.910205078E1,2.449500114E-1,2.036193899E1
1.235614395E0,-6.511050224E0,-1.929300117E1,2.449500114E-1,2.036353775E1
1.237576720E0,-6.204000473E0,-1.952295113E1,4.360500276E-1,2.048964085E1
1.239539319E0,-6.013050079E0,-1.963800049E1,4.360500276E-1,2.054258927E1
1.241503378E0,-5.935950279E0,-1.979205132E1,2.830500007E-1,2.066496838E1
1.243467009E0,-5.859000206E0,-1.986795044E1,1.300500035E-1,2.071425237E1
1.245430118E0,-5.782950401E0,-1.986795044E1,-6.105000153E-2,2.069255173E1
1.247393386E0,-5.590950489E0,-1.967700005E1,-2.520000041E-1,2.045743293E1
1.249356250E0,-5.284050465E0,-1.963800049E1,-5.590500236E-1,2.034415861E1
1.251319233E0,-5.131050110E0,-1.952295113E1,-1.096050024E0,2.021570235E1
1.253282370E0,-4.900950432E0,-1.925505066E1,-1.555950046E0,1.992980862E1
1.255245461E0,-4.747950077E0,-1.891005135E1,-2.014950037E0,1.960084425E1
1.257208342E0,-4.402950287E0,-1.864200020E1,-2.475000143E0,1.931413390E1
1.259171295E0,-4.057950020E0,-1.833495140E1,-2.935050249E0,1.900662835E1
1.261134572E0,-3.712950230E0,-1.802805138E1,-3.549000263E0,1.874545381E1
1.263097754E0,-3.367950201E0,-1.753005028E1,-3.894000292E0,1.827044032E1
1.265060948E0,-3.061050177E0,-1.695495033E1,-4.047000408E0,1.769798241E1
1.267024139E0,-2.755050182E0,-1.630395126E1,-4.123950005E0,1.704159887E1
1.268987213E0,-2.410050154E0,-1.561395073E1,-4.047000408E0,1.630895495E1
1.270950310E0,-2.026050091E0,-1.492395115E1,-3.970050097E0,1.557531684E1
1.272913562E0,-1.681950092E0,-1.431105042E1,-3.970050097E0,1.494645168E1
1.274876769E0,-1.297950029E0,-1.377405071E1,-3.817050219E0,1.435196919E1
1.276839870E0,-9.529500604E-1,-1.319895077E1,-3.778950214E0,1.376229922E1
1.278803002E0,-4.549500346E-1,-1.262400055E1,-3.586950064E0,1.313158712E1
1.280766429E0,-3.299999982E-2,-1.216395092E1,-3.472050190E0,1.264981911E1
1.282729769E0,4.639500082E-1,-1.166595078E1,-3.394950151E0,1.215875584E1
1.284694063E0,8.850000501E-1,-1.116795063E1,-3.241950035E0,1.166261490E1
1.286658077E0,1.192050099E0,-1.066995049E1,-3.127050161E0,1.118245364E1
1.288621535E0,1.345050097E0,-1.021005058E1,-3.012000084E0,1.072969884E1
1.290585156E0,1.498950124E0,-9.750000000E0,-2.974050045E0,1.030312211E1
1.292548499E0,1.575000048E0,-9.366000175E0,-2.974050045E0,9.952263969E0
1.294511924E0,1.651950121E0,-9.021000862E0,-2.974050045E0,9.641180915E0
1.296475256E0,1.804950118E0,-8.715000153E0,-3.012000084E0,9.395808485E0
1.298438616E0,1.920000076E0,-8.370000839E0,-3.165000200E0,9.152078486E0
1.300401644E0,1.996950150E0,-7.948050499E0,-3.049950123E0,8.744227375E0
1.302364770E0,1.959000111E0,-7.527000427E0,-2.896950245E0,8.299743224E0
1.304327844E0,1.767000079E0,-7.066950321E0,-2.859000206E0,7.825468567E0
1.306290929E0,1.767000079E0,-6.645000458E0,-2.820000172E0,7.431737437E0
1.308254409E0,1.690050125E0,-6.262050152E0,-2.782050133E0,7.057573554E0
1.310217773E0,1.690050125E0,-5.839950085E0,-2.743950129E0,6.670123591E0
1.312181118E0,1.804950118E0,-5.419050217E0,-2.629050016E0,6.287754302E0
1.314144468E0,1.729050040E0,-4.996950150E0,-2.475000143E0,5.838214671E0
1.316107669E0,1.690050125E0,-4.575000286E0,-2.398950100E0,5.435242278E0
1.318070920E0,1.729050040E0,-4.192049980E0,-2.206950188E0,5.043166288E0
1.320034507E0,1.690050125E0,-3.886050224E0,-1.977000117E0,4.676129301E0
1.321997995E0,1.537050128E0,-3.579000235E0,-1.708950043E0,4.253501619E0
1.323961228E0,1.422000051E0,-3.196050167E0,-1.479000092E0,3.797928657E0
1.325924536E0,1.345050097E0,-2.812050104E0,-1.326000094E0,3.387486059E0
1.327888087E0,1.306950092E0,-2.467050076E0,-1.171950102E0,3.027857602E0
1.329851553E0,1.269000053E0,-2.046000004E0,-9.810000658E-1,2.599776583E0
1.331814789E0,1.230000019E0,-1.663050056E0,-5.970000029E-1,2.152915358E0
1.333778093E0,1.306950092E0,-1.356000066E0,-3.289500177E-1,1.911821863E0
1.335741266E0,1.230000019E0,-1.048950076E0,-1.369500011E-1,1.622329070E0
1.337704478E0,1.192050099E0,-6.660000086E-1,9.195000678E-2,1.368573803E0
1.339666856E0,1.114950061E0,-3.210000098E-1,3.600000143E-1,1.214806427E0
1.341629478E0,1.039050102E0,-1.290000081E-1,6.660000086E-1,1.240895696E0
1.343591867E0,8.850000501E-1,9.900000691E-2,9.730500579E-1,1.319034687E0
1.345554324E0,6.940500140E-1,3.679500222E-1,1.279950023E0,1.501787169E0
1.347516651E0,5.410500169E-1,7.510500550E-1,1.510050058E0,1.771175453E0
1.349479016E0,3.870000243E-1,1.134000063E0,1.777950048E0,2.144022280E0
1.351442349E0,3.109500110E-1,1.326000094E0,2.161050081E0,2.554428236E0
1.353405399E0,2.340000123E-1,1.518000126E0,2.698050022E0,3.104602118E0
1.355368481E0,1.570500135E-1,1.747950077E0,2.928000212E0,3.413675353E0
1.357331553E0,1.570500135E-1,1.900950074E0,3.234000206E0,3.754601607E0
1.359294271E0,1.189500093E-1,2.016000032E0,3.618000269E0,4.143468496E0
1.361257093E0,8.100000024E-2,2.169000149E0,3.847950220E0,4.417900354E0
1.363220198E0,1.189500093E-1,2.361000061E0,4.116000175E0,4.746570113E0
1.365183230E0,1.570500135E-1,2.398950100E0,4.231050014E0,4.866354951E0
1.367146360E0,1.960500032E-1,2.476050138E0,4.384050369E0,5.038765477E0
1.369109461E0,2.719500065E-1,2.551950216E0,4.498950005E0,5.179474670E0
1.371072894E0,4.260000288E-1,2.590950012E0,4.537950039E0,5.242851185E0
1.373036230E0,4.260000288E-1,2.706000090E0,4.498950005E0,5.267301363E0
1.375000520E0,5.790000558E-1,2.782050133E0,4.345950127E0,5.192526024E0
1.376964534E0,6.940500140E-1,2.859000206E0,4.269000053E0,5.184587646E0
1.378927631E0,8.470500112E-1,2.859000206E0,3.963000298E0,4.959510788E0
1.380890997E0,9.619500637E-1,2.935950041E0,3.579000235E0,4.728043279E0
1.382854160E0,1.039050102E0,2.974050045E0,3.234000206E0,4.514793032E0
1.384817382E0,1.153950095E0,2.935950041E0,2.773950100E0,4.200738342E0
1.386780299E0,1.269000053E0,2.859000206E0,2.238000154E0,3.846152364E0
1.388743305E0,1.269000053E0,2.743950129E0,1.432950020E0,3.345589515E0
1.390707474E0,1.269000053E0,2.706000090E0,7.050000429E-1,3.070801635E0
1.392671303E0,1.192050099E0,2.590950012E0,-2.520000041E-1,2.863129303E0
1.394634252E0,1.077000022E0,2.398950100E0,-1.134000063E0,2.863712062E0
1.396597459E0,1.039050102E0,2.092950106E0,-1.900950074E0,3.012254379E0
1.398560662E0,8.850000501E-1,1.824000120E0,-2.667000055E0,3.350088181E0
1.400523857E0,9.619500637E-1,1.518000126E0,-3.280050039E0,3.740107026E0
1.402487274E0,1.039050102E0,1.249050021E0,-4.047000408E0,4.360958997E0
1.404450625E0,1.077000022E0,9.430500269E-1,-4.736999989E0,4.948579725E0
1.406414015E0,1.077000022E0,5.209500194E-1,-5.311950207E0,5.445009914E0
1.408377394E0,1.114950061E0,9.900000691E-2,-5.772000313E0,5.879532486E0
1.410341360E0,1.153950095E0,-2.059500068E-1,-6.385050297E0,6.491755042E0
1.412305158E0,1.192050099E0,-5.509500504E-1,-6.883050442E0,7.007204348E0
1.414268293E0,1.153950095E0,-9.730500579E-1,-7.189950466E0,7.346687345E0
1.416231622E0,1.114950061E0,-1.318050027E0,-7.458000183E0,7.655203214E0
1.418194656E0,1.039050102E0,-1.624050021E0,-7.573050499E0,7.814618189E0
1.420157776E0,8.850000501E-1,-1.893000126E0,-7.420050144E0,7.708684629E0
1.422120855E0,8.470500112E-1,-2.046000004E0,-7.075050354E0,7.413497639E0
1.424083939E0,6.940500140E-1,-2.275950193E0,-6.499950409E0,6.921777952E0
1.426046249E0,5.410500169E-1,-2.275950193E0,-5.925000191E0,6.370110805E0
1.428008786E0,3.870000243E-1,-2.351999998E0,-5.197050095E0,5.717604629E0
1.429971954E0,1.960500032E-1,-2.391000032E0,-4.545000076E0,5.139293964E0
1.431934937E0,1.189500093E-1,-2.506050110E0,-3.970050097E0,4.696353269E0
1.433897706E0,4.050000105E-3,-2.506050110E0,-3.319050074E0,4.158893717E0
1.435860545E0,-1.480500102E-1,-2.544000149E0,-2.667000055E0,3.688732148E0
1.437823436E0,-2.250000089E-1,-2.506050110E0,-2.130000114E0,3.296636565E0
1.439786312E0,-2.629500031E-1,-2.506050110E0,-1.594050050E0,2.981681643E0
1.441749604E0,-3.780000210E-1,-2.506050110E0,-1.171950102E0,2.792246087E0
1.443712774E0,-4.170000255E-1,-2.428950071E0,-7.120500207E-1,2.565288035E0
1.445676025E0,-4.930500090E-1,-2.428950071E0,-2.520000041E-1,2.491264892E0
1.447639245E0,-5.700000525E-1,-2.314050198E0,1.680000126E-1,2.389132140E0
1.449601577E0,-6.469500065E-1,-2.314050198E0,6.280500293E-1,2.483509506E0
1.451564170E0,-6.469500065E-1,-2.351999998E0,9.730500579E-1,2.626266307E0
1.453527194E0,-6.469500065E-1,-2.238000154E0,1.279950023E0,2.658093502E0
1.455490091E0,-5.700000525E-1,-2.161050081E0,1.510050058E0,2.697274308E0
1.457453139E0,-5.700000525E-1,-2.122950077E0,1.777950048E0,2.827175881E0
1.459416153E0,-4.549500346E-1,-2.083950043E0,2.085000038E0,2.982792731E0
1.461379286E0,-4.930500090E-1,-2.008050203E0,2.430000067E0,3.190652638E0
1.463342384E0,-4.170000255E-1,-1.893000126E0,2.736000061E0,3.353063500E0
1.465305413E0,-3.780000210E-1,-1.893000126E0,2.965950251E0,3.538812567E0
1.467268463E0,-2.629500031E-1,-1.854000092E0,3.196050167E0,3.704213238E0
1.469231379E0,-1.480500102E-1,-1.738950133E0,3.426000118E0,3.844911336E0
1.471194324E0,-1.480500102E-1,-1.663050056E0,3.579000235E0,3.949290692E0
1.473157468E0,4.050000105E-3,-1.624050021E0,3.694050074E0,4.035289435E0
1.475120553E0,1.189500093E-1,-1.624050021E0,3.886050224E0,4.213439678E0
1.477083809E0,2.340000123E-1,-1.548000097E0,4.000950336E0,4.296354723E0
1.479047014E0,3.490500152E-1,-1.509000063E0,4.153950214E0,4.433307962E0
1.481010945E0,4.639500082E-1,-1.585950017E0,4.269000053E0,4.577646614E0
1.482974649E0,6.169500351E-1,-1.509000063E0,4.384050369E0,4.677350337E0
1.484936898E0,6.550500393E-1,-1.471050024E0,4.537950039E0,4.815191511E0
1.486899574E0,5.410500169E-1,-1.279050112E0,4.690950394E0,4.892210125E0
1.488862583E0,5.020500422E-1,-1.048950076E0,4.690950394E0,4.832945903E0
1.490825495E0,4.260000288E-1,-8.190000653E-1,4.653000355E0,4.743695757E0
1.492789496E0,4.639500082E-1,-7.039500475E-1,4.614000320E0,4.690393825E0
1.494753182E0,5.790000558E-1,-6.280500293E-1,4.423050404E0,4.504782212E0
1.496716291E0,6.940500140E-1,-5.890500546E-1,4.308000088E0,4.403129585E0
1.498679569E0,8.470500112E-1,-5.509500504E-1,4.192950249E0,4.312988693E0
1.500642476E0,1.000050068E0,-4.740000367E-1,4.078050137E0,4.225549561E0
1.502605492E0,1.153950095E0,-4.740000367E-1,4.000950336E0,4.190928352E0
1.504568597E0,1.230000019E0,-3.979500234E-1,4.000950336E0,4.204624580E0
1.506531663E0,1.345050097E0,-3.589500189E-1,3.963000298E0,4.200401914E0
1.508495283E0,1.306950092E0,-2.830500007E-1,3.924000263E0,4.145601755E0
1.510458740E0,1.384050012E0,-2.440500110E-1,3.886050224E0,4.132377184E0
1.512421933E0,1.459950089E0,-2.059500068E-1,3.733050108E0,4.013668245E0
1.514385203E0,1.575000048E0,-2.059500068E-1,3.579000235E0,3.915645954E0
1.516348553E0,1.614000082E0,-1.680000126E-1,3.349050045E0,3.721472353E0
1.518311885E0,1.651950121E0,-1.680000126E-1,3.157950163E0,3.567886270E0
1.520274964E0,1.729050040E0,-1.290000081E-1,2.851050138E0,3.336876074E0
1.522238117E0,1.804950118E0,-1.290000081E-1,2.545050144E0,3.122781799E0
1.524200415E0,1.882050037E0,-5.295000225E-2,2.161050081E0,2.866191462E0
1.526162964E0,1.843950033E0,6.105000153E-2,1.701000094E0,2.509438214E0
1.528126370E0,1.996950150E0,6.105000153E-2,1.395000100E0,2.436711366E0
1.530089515E0,2.111999989E0,1.759500057E-1,9.730500579E-1,2.332022464E0
1.532053617E0,2.227050066E0,2.140500098E-1,3.600000143E-1,2.266091219E0
1.534017438E0,2.265000105E0,2.910000086E-1,-1.369500011E-1,2.287719778E0
1.535980388E0,2.380050182E0,4.060500264E-1,-5.970000029E-1,2.487151885E0
1.537943594E0,2.419050217E0,3.679500222E-1,-1.134000063E0,2.696877326E0
1.539906892E0,2.572050095E0,4.060500264E-1,-1.786050081E0,3.157577110E0
1.541870149E0,2.649000168E0,4.830000103E-1,-2.322000027E0,3.555583640E0
1.543833511E0,2.686950207E0,5.209500194E-1,-2.820000172E0,3.929820773E0
1.545796842E0,2.764050245E0,5.209500194E-1,-3.241950035E0,4.292039458E0
1.547760056E0,2.764050245E0,5.980500579E-1,-3.586950064E0,4.567696180E0
1.549723305E0,2.839950085E0,5.980500579E-1,-3.931950092E0,4.887045312E0
1.551686726E0,2.764050245E0,5.980500579E-1,-4.200000286E0,5.063362522E0
1.553650087E0,2.764050245E0,7.129500508E-1,-4.315050125E0,5.173773199E0
1.555613116E0,2.764050245E0,8.280000687E-1,-4.392000198E0,5.255018898E0
1.557576242E0,2.802000046E0,9.810000658E-1,-4.237950325E0,5.174339411E0
1.559539535E0,2.725050211E0,1.173000097E0,-4.009050369E0,4.987415437E0
1.561502779E0,2.839950085E0,1.249050021E0,-3.855000257E0,4.948380485E0
1.563466148E0,2.917050123E0,1.288050056E0,-3.702000141E0,4.886006489E0
1.565429476E0,2.992950201E0,1.402950048E0,-3.664050102E0,4.934701905E0
1.567392691E0,2.992950201E0,1.402950048E0,-3.702000141E0,4.962945173E0
1.569355940E0,3.184950113E0,1.402950048E0,-3.586950064E0,4.997838215E0
1.571319347E0,3.415050268E0,1.363950014E0,-3.394950151E0,5.004859090E0
1.573282707E0,3.607050180E0,1.326000094E0,-3.127050161E0,4.954546394E0
1.575245931E0,3.760050297E0,1.288050056E0,-2.859000206E0,4.896011985E0
1.577209185E0,3.913050175E0,1.249050021E0,-2.475000143E0,4.795593116E0
1.579172231E0,3.990000248E0,1.210950017E0,-1.900950074E0,4.582588036E0
1.581135338E0,3.798000097E0,1.173000097E0,-1.210950017E0,4.155374100E0
1.583097509E0,3.721950293E0,1.173000097E0,-3.289500177E-1,3.916254757E0
1.585059954E0,3.492000103E0,1.210950017E0,7.050000429E-1,3.762643980E0
1.587023338E0,3.337950230E0,1.173000097E0,1.471050024E0,3.831687505E0
1.588986433E0,3.262050152E0,1.057950020E0,1.893000126E0,3.917100830E0
1.590949552E0,3.108000040E0,9.430500269E-1,2.122950077E0,3.880196468E0
1.592912664E0,2.649000168E0,7.890000343E-1,2.238000154E0,3.556454363E0
1.594875736E0,1.767000079E0,6.360000372E-1,2.085000038E0,2.806066729E0
1.596838820E0,8.470500112E-1,3.679500222E-1,1.740000129E0,1.969893751E0
1.598802214E0,-7.200000435E-2,-5.295000225E-2,1.471050024E0,1.473762490E0
1.600765514E0,-7.230000496E-1,-5.130000114E-1,1.126049995E0,1.433138750E0
1.602729679E0,-9.919500351E-1,-1.356000066E0,6.280500293E-1,1.793640959E0
1.604693591E0,-9.919500351E-1,-2.199000120E0,-6.105000153E-2,2.413150120E0
1.606656842E0,-9.150000215E-1,-2.965950251E0,-8.269500136E-1,3.212153834E0
1.608620286E0,-7.620000243E-1,-3.732000113E0,-1.632000089E0,4.143898306E0
1.610583151E0,-4.930500090E-1,-4.651950359E0,-2.743950129E0,5.423375588E0
1.612546195E0,-2.250000089E-1,-5.725050449E0,-4.429950237E0,7.242326060E0
1.614508917E0,-3.299999982E-2,-7.027950287E0,-6.538050175E0,9.598920477E0
1.616471733E0,1.960500032E-1,-9.021000862E0,-9.604050636E0,1.317781017E1
1.618435034E0,-3.400500119E-1,-1.174305058E1,-1.290105057E1,1.744855228E1
1.620398193E0,-2.371050119E0,-1.515405083E1,-1.466400051E1,2.122027441E1
1.622361257E0,-5.284050465E0,-1.856505013E1,-1.512405109E1,2.452181064E1
1.624324349E0,-7.966950417E0,-2.147805023E1,-1.489395046E1,2.732414136E1
1.626287783E0,-9.999000549E0,-2.370105171E1,-1.355205059E1,2.907538374E1
1.628251116E0,-1.160805035E1,-2.546400070E1,-1.240200043E1,3.060999476E1
1.630213970E0,-1.302600098E1,-2.737995148E1,-1.067805004E1,3.214590482E1
1.632176964E0,-1.436805058E1,-2.960295105E1,-8.799000740E0,3.406167938E1
1.634140355E0,-1.547895050E1,-3.194100189E1,-6.960000515E0,3.616997536E1
1.636103640E0,-1.662900162E1,-3.439395142E1,-4.852050304E0,3.850986862E1
1.638066322E0,-1.731900024E1,-3.700094986E1,-2.245050192E0,4.091525767E1
1.640029181E0,-1.754895020E1,-3.956895065E1,-9.900000691E-2,4.328599438E1
1.641991394E0,-1.716600037E1,-4.183005142E1,1.930950046E0,4.525652813E1
1.643953796E0,-1.628400040E1,-4.370805359E1,3.694050074E0,4.678897972E1
1.645916871E0,-1.448295116E1,-4.504905319E1,5.533950329E0,4.764239367E1
1.647879736E0,-1.210695076E1,-4.573905182E1,6.952050209E0,4.782227640E1
1.649843165E0,-9.999000549E0,-4.627605057E1,7.987050533E0,4.801297579E1
1.651806429E0,-8.427000046E0,-4.704195404E1,8.830050468E0,4.859968684E1
1.653769520E0,-7.392000198E0,-4.784700394E1,9.597000122E0,4.935665977E1
1.655732661E0,-6.817050457E0,-4.838400269E1,9.750000000E0,4.982515823E1
1.657695532E0,-6.166050434E0,-4.899705124E1,9.597000122E0,5.030739130E1
1.659658492E0,-5.323050022E0,-4.991700363E1,9.328050613E0,5.105932472E1
1.661621904E0,-4.173000336E0,-5.095200348E1,7.834050179E0,5.171936709E1
1.663585183E0,-2.448000193E0,-5.191005325E1,5.725950241E0,5.228224211E1
1.665550072E0,-2.250000089E-1,-5.260005188E1,2.430000067E0,5.265663285E1
1.667514490E0,2.188950062E0,-5.252295303E1,-2.206950188E0,5.261485272E1
1.669477293E0,4.948050022E0,-5.141205215E1,-8.569950104E0,5.235576712E1
1.671440569E0,8.014050484E0,-4.976400375E1,-1.627305031E1,5.296690704E1
1.673403477E0,1.096605015E1,-4.738695145E1,-2.393895149E1,5.421116879E1
1.675366493E0,1.330395031E1,-4.474305344E1,-2.991795158E1,5.544384323E1
1.677329400E0,1.437705040E1,-4.175295258E1,-3.129795074E1,5.412550552E1
1.679292339E0,1.391700077E1,-3.872505188E1,-2.838495064E1,4.999017880E1
1.681255293E0,1.203900051E1,-3.562095261E1,-2.275095177E1,4.394764617E1
1.683218219E0,9.394050598E0,-3.301500320E1,-1.688700104E1,3.825453473E1
1.685181681E0,6.405000210E0,-3.071505165E1,-1.144395065E1,3.339764112E1
1.687144986E0,3.837000132E0,-2.872200203E1,-6.805950165E0,2.976570053E1
1.689107259E0,1.882050037E0,-2.695905113E1,-3.204000235E0,2.721393334E1
1.691069834E0,4.050000105E-3,-2.542605209E1,-4.819500148E-1,2.543061968E1
1.693032316E0,-1.911000133E0,-2.400795174E1,1.165050030E0,2.411205113E1
1.694994829E0,-3.445050240E0,-2.278095055E1,1.624950051E0,2.309719770E1
1.696958497E0,-4.594050407E0,-2.167005157E1,1.624950051E0,2.221118856E1
1.698921827E0,-5.743950367E0,-2.071095085E1,1.050000072E0,2.151833988E1
1.700886168E0,-6.741000175E0,-1.986795044E1,2.070000172E-1,2.098140575E1
1.702850212E0,-7.507050514E0,-1.914000130E1,-7.120500207E-1,2.057188548E1
1.704813800E0,-8.197050095E0,-1.848795128E1,-1.210950017E0,2.025987099E1
1.706777522E0,-8.695050240E0,-1.791300011E1,-1.555950046E0,1.997249238E1
1.708740849E0,-8.964000702E0,-1.745400047E1,-1.632000089E0,1.968905446E1
1.710704291E0,-9.117000580E0,-1.707000160E1,-1.441050053E0,1.940570224E1
1.712667305E0,-9.040050507E0,-1.703205109E1,-1.287000060E0,1.932536278E1
1.714630445E0,-8.809950829E0,-1.707000160E1,-1.096050024E0,1.924062145E1
1.716593690E0,-8.464950562E0,-1.714695168E1,-9.040500522E-1,1.914394542E1
1.718556904E0,-8.197050095E0,-1.726200104E1,-7.510500550E-1,1.912413099E1
1.720520183E0,-7.852050304E0,-1.733895111E1,-4.819500148E-1,1.904012068E1
1.722483443E0,-7.507050514E0,-1.745400047E1,-2.520000041E-1,1.900161688E1
1.724446129E0,-7.047000408E0,-1.753005028E1,1.500000060E-2,1.889346719E1
1.726408983E0,-6.741000175E0,-1.756905174E1,3.220500052E-1,1.882063704E1
1.728372057E0,-6.511050224E0,-1.768395042E1,5.509500504E-1,1.885257074E1
1.730335063E0,-6.280950069E0,-1.779900169E1,9.730500579E-1,1.889977834E1
1.732298018E0,-6.088950157E0,-1.779900169E1,1.318050027E0,1.885781088E1
1.734260988E0,-5.821050167E0,-1.783695030E1,1.510050058E0,1.882343413E1
1.736224218E0,-5.629050255E0,-1.787505150E1,1.510050058E0,1.880116816E1
1.738187371E0,-5.361000061E0,-1.776000023E1,1.777950048E0,1.863649742E1
1.740150610E0,-5.208000183E0,-1.764495087E1,2.161050081E0,1.852397621E1
1.742113827E0,-5.092950344E0,-1.756905174E1,2.314950228E0,1.843824061E1
1.744077060E0,-4.900950432E0,-1.760700035E1,2.200050116E0,1.840831326E1
1.746040289E0,-4.747950077E0,-1.764495087E1,2.046000004E0,1.838677343E1
1.748003520E0,-4.594050407E0,-1.764495087E1,1.816050053E0,1.832341748E1
1.749966750E0,-4.402950287E0,-1.764495087E1,1.624950051E0,1.825844257E1
1.751930026E0,-4.249050140E0,-1.753005028E1,1.585950017E0,1.810724516E1
1.753893289E0,-3.981000185E0,-1.729995155E1,1.548000097E0,1.781945539E1
1.755856694E0,-3.751050234E0,-1.695495033E1,1.510050058E0,1.743046098E1
1.757820058E0,-3.520950079E0,-1.664895058E1,1.548000097E0,1.708745005E1
1.759783446E0,-3.253050089E0,-1.638000107E1,1.624950051E0,1.677877327E1
1.761746827E0,-3.022950172E0,-1.603499985E1,1.855050087E0,1.642256553E1
1.763710019E0,-2.830950022E0,-1.576695061E1,1.969950080E0,1.613975566E1
1.765673277E0,-2.524950027E0,-1.557600117E1,2.122950077E0,1.592149811E1
1.767636637E0,-1.987950087E0,-1.549905109E1,2.275950193E0,1.579089863E1
1.769599967E0,-1.489950061E0,-1.534605026E1,2.430000067E0,1.560852684E1
1.771563406E0,-9.150000215E-1,-1.507695103E1,2.736000061E0,1.535048448E1
1.773526813E0,-4.930500090E-1,-1.473195076E1,2.965950251E0,1.503563542E1
1.775489981E0,-1.480500102E-1,-1.431105042E1,3.081000090E0,1.463969413E1
1.777453243E0,4.050000105E-3,-1.388895035E1,3.157950163E0,1.424344086E1
1.779417008E0,1.189500093E-1,-1.339095020E1,3.004050255E0,1.372428557E1
1.781380626E0,3.490500152E-1,-1.281600094E1,2.965950251E0,1.315935321E1
1.783345052E0,5.410500169E-1,-1.224105072E1,2.928000212E0,1.259798568E1
1.785309241E0,8.089500666E-1,-1.166595078E1,2.851050138E0,1.203649844E1
1.787272128E0,1.039050102E0,-1.120605087E1,2.773950100E0,1.159094476E1
1.789235397E0,1.153950095E0,-1.070805073E1,2.698050022E0,1.110285662E1
1.791198621E0,1.192050099E0,-1.017105007E1,2.545050144E0,1.055218097E1
1.793161858E0,1.153950095E0,-9.673050880E0,2.545050144E0,1.006860439E1
1.795125447E0,1.114950061E0,-9.175050735E0,2.506050110E0,9.576270505E0
1.797088933E0,1.000050068E0,-8.638050079E0,2.353049994E0,9.008487863E0
1.799052062E0,1.000050068E0,-8.101950645E0,2.275950193E0,8.474765701E0
1.801015306E0,1.000050068E0,-7.642050266E0,2.391000032E0,8.069567124E0
1.802978578E0,8.850000501E-1,-7.219950199E0,2.238000154E0,7.610489515E0
1.804941842E0,7.699500322E-1,-6.798000336E0,2.122950077E0,7.163277786E0
1.806905383E0,6.550500393E-1,-6.454050541E0,2.008050203E0,6.790885403E0
1.808868842E0,6.550500393E-1,-6.109050274E0,1.930950046E0,6.440353553E0
1.810832269E0,6.169500351E-1,-5.686950207E0,1.816050053E0,6.001672083E0
1.812795700E0,6.169500351E-1,-5.341950417E0,1.663050056E0,5.628747382E0
1.814759031E0,6.550500393E-1,-4.920000076E0,1.471050024E0,5.176821368E0
1.816722392E0,6.940500140E-1,-4.575000286E0,1.240950108E0,4.790854852E0
1.818686185E0,7.699500322E-1,-4.192049980E0,8.200500607E-1,4.340344248E0
1.820649851E0,8.470500112E-1,-3.847050190E0,2.449500114E-1,3.946807494E0
1.822613028E0,9.619500637E-1,-3.387000084E0,-1.369500011E-1,3.523616437E0
1.824576335E0,1.039050102E0,-2.926950216E0,-4.819500148E-1,3.143077871E0
1.826539553E0,1.077000022E0,-2.467050076E0,-9.420000315E-1,2.851951820E0
1.828502797E0,1.192050099E0,-2.161050081E0,-1.516950130E0,2.896939522E0
1.830465800E0,1.306950092E0,-1.701000094E0,-1.939050078E0,2.891614613E0
1.832428873E0,1.422000051E0,-1.356000066E0,-2.475000143E0,3.160133863E0
1.834391990E0,1.614000082E0,-1.011000037E0,-2.896950245E0,3.466906122E0
1.836355097E0,1.959000111E0,-7.039500475E-1,-3.394950151E0,3.982325154E0
1.838318665E0,2.304000139E0,-4.740000367E-1,-3.817050219E0,4.483633019E0
1.840282097E0,2.572050095E0,-3.589500189E-1,-4.315050125E0,5.036262939E0
1.842245340E0,2.917050123E0,-1.680000126E-1,-4.621950150E0,5.468073574E0
1.844208638E0,3.184950113E0,-1.290000081E-1,-4.927950382E0,5.869007003E0
1.846171316E0,3.529950142E0,-5.295000225E-2,-5.197050095E0,6.282728817E0
1.848134176E0,3.798000097E0,6.105000153E-2,-5.464950085E0,6.655389641E0
1.850097785E0,3.990000248E0,2.140500098E-1,-5.617950439E0,6.894003664E0
1.852061174E0,4.143000126E0,2.910000086E-1,-5.809950352E0,7.141754276E0
1.854024379E0,4.335000038E0,4.830000103E-1,-5.772000313E0,7.234742701E0
1.855987638E0,4.488000393E0,5.209500194E-1,-5.772000313E0,7.330042569E0
1.857950936E0,4.680000305E0,5.980500579E-1,-5.925000191E0,7.574014391E0
1.859914202E0,4.872000217E0,6.739500165E-1,-6.001950264E0,7.759768148E0
1.861877428E0,4.987050056E0,7.510500550E-1,-6.117000103E0,7.927952744E0
1.863840666E0,5.178000450E0,8.280000687E-1,-6.040050507E0,7.998717578E0
1.865804029E0,5.331000328E0,9.810000658E-1,-6.270000458E0,8.288234514E0
1.867767356E0,5.485050201E0,1.018950105E0,-6.385050297E0,8.478968234E0
1.869730750E0,5.599950314E0,1.096050024E0,-6.805950165E0,8.881538539E0
1.871694125E0,5.715000153E0,1.096050024E0,-7.228050232E0,9.279399903E0
1.873657152E0,5.868000507E0,1.096050024E0,-7.726050377E0,9.763534710E0
1.875620281E0,5.983050346E0,1.057950020E0,-8.224950790E0,1.022575010E1
1.877583394E0,6.021000385E0,1.018950105E0,-8.761050224E0,1.067926524E1
1.879546512E0,5.983050346E0,9.040500522E-1,-9.336000443E0,1.112542593E1
1.881509542E0,5.868000507E0,6.360000372E-1,-9.988050461E0,1.160168427E1
1.883472594E0,5.752950191E0,2.530499995E-1,-1.079295063E1,1.223308030E1
1.885436440E0,5.523000240E0,-2.059500068E-1,-1.140600014E1,1.267449353E1
1.887400053E0,5.331000328E0,-6.660000086E-1,-1.182705021E1,1.299008226E1
1.889363039E0,5.025000095E0,-1.356000066E0,-1.228695011E1,1.334385646E1
1.891326209E0,4.642050266E0,-1.969050050E0,-1.247895050E1,1.345919739E1
1.893289303E0,4.143000126E0,-2.467050076E0,-1.209600067E1,1.302167494E1
1.895252396E0,3.607050180E0,-2.812050104E0,-1.136700058E1,1.225263804E1
1.897215470E0,2.992950201E0,-2.926950216E0,-1.037100029E1,1.118402591E1
1.899178550E0,2.494950056E0,-3.004050255E0,-9.336000443E0,1.011978251E1
1.901141581E0,1.959000111E0,-3.042000055E0,-8.530950546E0,9.266529177E0
1.903104627E0,1.459950089E0,-3.081000090E0,-7.879950523E0,8.585897511E0
1.905067753E0,1.269000053E0,-3.042000055E0,-7.228050232E0,7.944106975E0
1.907030856E0,1.114950061E0,-2.926950216E0,-6.883050442E0,7.562177900E0
1.908993885E0,9.619500637E-1,-2.889000177E0,-6.538050175E0,7.212334576E0
1.910956935E0,8.470500112E-1,-2.812050104E0,-6.193050385E0,6.854122305E0
1.912919836E0,7.699500322E-1,-2.773950100E0,-5.887050152E0,6.553242075E0
1.914882781E0,7.320000529E-1,-2.773950100E0,-5.656950474E0,6.342847302E0
1.916846110E0,6.550500393E-1,-2.736000061E0,-5.350050449E0,6.044652736E0
1.918809322E0,6.169500351E-1,-2.736000061E0,-5.005050182E0,5.737320891E0
1.920772512E0,7.320000529E-1,-2.620950222E0,-4.736999989E0,5.463000369E0
1.922735709E0,7.320000529E-1,-2.581950188E0,-4.392000198E0,5.147033766E0
1.924698765E0,7.320000529E-1,-2.506050110E0,-4.047000408E0,4.816048539E0
1.926661863E0,7.699500322E-1,-2.391000032E0,-3.739950180E0,4.505211600E0
1.928624815E0,7.320000529E-1,-2.314050198E0,-3.394950151E0,4.173288742E0
1.930587800E0,6.940500140E-1,-2.199000120E0,-2.896950245E0,3.702651438E0
1.932551072E0,6.940500140E-1,-2.046000004E0,-2.359950066E0,3.199560243E0
1.934514259E0,7.699500322E-1,-1.969050050E0,-1.861950040E0,2.817239624E0
1.936477138E0,7.699500322E-1,-1.893000126E0,-1.210950017E0,2.375431008E0
1.938440108E0,8.089500666E-1,-1.854000092E0,-6.739500165E-1,2.132117533E0
1.940402121E0,8.850000501E-1,-1.816050053E0,-6.105000153E-2,2.021135816E0
1.942364415E0,9.619500637E-1,-1.777950048E0,5.130000114E-1,2.085575055E0
1.944327806E0,1.114950061E0,-1.816050053E0,1.165050030E0,2.428681330E0
1.946290875E0,1.192050099E0,-1.854000092E0,1.585950017E0,2.715425793E0
1.948253909E0,1.345050097E0,-1.816050053E0,2.161050081E0,3.126873040E0
1.950216954E0,1.384050012E0,-1.854000092E0,2.812950134E0,3.642197034E0
1.952180035E0,1.498950124E0,-1.816050053E0,3.426000118E0,4.157206523E0
1.954143106E0,1.537050128E0,-1.738950133E0,4.078050137E0,4.692223735E0
1.956106544E0,1.690050125E0,-1.663050056E0,4.729050159E0,5.290172050E0
1.958069875E0,1.651950121E0,-1.624050021E0,5.419050217E0,5.893435579E0
1.960033269E0,1.537050128E0,-1.548000097E0,6.109050274E0,6.486857687E0
1.961996644E0,1.384050012E0,-1.471050024E0,6.721950531E0,7.018846169E0
1.963959865E0,1.153950095E0,-1.279050112E0,7.335000515E0,7.534573814E0
1.965923122E0,6.169500351E-1,-1.011000037E0,7.872000217E0,7.960598963E0
1.967885672E0,1.189500093E-1,-8.959500194E-1,8.370000839E0,8.418657232E0
1.969848429E0,-2.629500031E-1,-7.810500264E-1,8.791950226E0,8.830490962E0
1.971811740E0,-6.079500318E-1,-6.660000086E-1,9.098999977E0,9.143574784E0
1.973774889E0,-7.999500632E-1,-7.039500475E-1,9.289950371E0,9.350863258E0
1.975738314E0,-8.380500674E-1,-7.039500475E-1,9.442950249E0,9.506165525E0
1.977701658E0,-9.150000215E-1,-5.890500546E-1,9.405000687E0,9.467747510E0
1.979664871E0,-9.529500604E-1,-6.660000086E-1,9.405000687E0,9.476587347E0
1.981628122E0,-1.030050039E0,-6.660000086E-1,9.214050293E0,9.295336567E0
1.983591709E0,-9.919500351E-1,-6.280500293E-1,9.022050858E0,9.098121421E0
1.985555197E0,-9.150000215E-1,-6.660000086E-1,8.754000664E0,8.826851572E0
1.987518565E0,-7.999500632E-1,-7.039500475E-1,8.293950081E0,8.362121365E0
1.989481968E0,-7.620000243E-1,-7.429500222E-1,8.025000572E0,8.095261142E0
1.991444989E0,-6.469500065E-1,-6.660000086E-1,7.834050179E0,7.888880942E0
1.993408122E0,-5.700000525E-1,-5.890500546E-1,7.603950500E0,7.648002565E0
1.995371368E0,-6.079500318E-1,-5.509500504E-1,7.335000515E0,7.380743984E0
1.997334581E0,-6.850500107E-1,-5.130000114E-1,7.182000160E0,7.232813341E0
1.999297776E0,-7.999500632E-1,-5.130000114E-1,6.876000404E0,6.941359426E0
2.001260973E0,-9.150000215E-1,-3.979500234E-1,6.760950089E0,6.834181396E0
2.003224389E0,-1.030050039E0,-3.589500189E-1,6.568950176E0,6.658900406E0
2.005187740E0,-1.183050036E0,-2.830500007E-1,6.376950264E0,6.491934947E0
2.007150951E0,-1.375050068E0,-2.059500068E-1,6.147000313E0,6.302284581E0
2.009114204E0,-1.528050065E0,-1.680000126E-1,5.917050362E0,6.113480677E0
2.011077660E0,-1.567050099E0,-1.680000126E-1,5.611050129E0,5.828186130E0
2.013041053E0,-1.720050097E0,-1.290000081E-1,5.341950417E0,5.613523634E0
2.015004437E0,-1.681950092E0,-9.105000645E-2,4.996950150E0,5.273211262E0
2.016967824E0,-1.720050097E0,-9.105000645E-2,4.614000320E0,4.925023999E0
2.018930487E0,-1.720050097E0,-5.295000225E-2,4.308000088E0,4.638991355E0
2.020893363E0,-1.681950092E0,-1.500000060E-2,3.963000298E0,4.305177403E0
2.022856789E0,-1.681950092E0,-1.500000060E-2,3.502950191E0,3.885851407E0
2.024820053E0,-1.681950092E0,9.900000691E-2,3.004050255E0,3.444281500E0
2.026783458E0,-1.567050099E0,2.140500098E-1,2.506050110E0,2.963401858E0
2.028746822E0,-1.489950061E0,2.910000086E-1,1.930950046E0,2.456257370E0
2.030710391E0,-1.297950029E0,3.679500222E-1,1.471050024E0,1.996008435E0
2.032673899E0,-1.183050036E0,4.830000103E-1,1.050000072E0,1.653903428E0
2.034638159E0,-1.068000078E0,6.360000372E-1,3.600000143E-1,1.294109819E0
2.036602202E0,-8.770500422E-1,7.129500508E-1,-2.520000041E-1,1.158023555E0
2.038565655E0,-7.999500632E-1,7.510500550E-1,-9.420000315E-1,1.446153639E0
2.040529281E0,-6.469500065E-1,7.890000343E-1,-1.516950130E0,1.828169320E0
2.042492489E0,-4.170000255E-1,9.040500522E-1,-2.130000114E0,2.351190338E0
2.044455819E0,-3.019500077E-1,1.018950105E0,-2.667000055E0,2.870944517E0
2.046419148E0,-2.250000089E-1,1.134000063E0,-3.049950123E0,3.261713798E0
2.048382490E0,4.050000105E-3,1.288050056E0,-3.510000229E0,3.738875627E0
2.050345882E0,1.960500032E-1,1.402950048E0,-3.625050068E0,3.892003653E0
2.052309260E0,3.109500110E-1,1.518000126E0,-3.855000257E0,4.154761278E0
2.054273051E0,4.639500082E-1,1.671000123E0,-3.894000292E0,4.262713841E0
2.056236721E0,5.790000558E-1,1.863000035E0,-3.894000292E0,4.355370073E0
2.058200238E0,6.550500393E-1,2.016000032E0,-3.970050097E0,4.500516021E0
2.060163800E0,6.940500140E-1,2.131050110E0,-3.970050097E0,4.558988677E0
2.062126794E0,6.169500351E-1,2.245950222E0,-4.047000408E0,4.669382406E0
2.064089954E0,5.790000558E-1,2.322000027E0,-3.855000257E0,4.537394866E0
2.066053376E0,5.790000558E-1,2.361000061E0,-3.739950180E0,4.460581767E0
2.068016721E0,6.550500393E-1,2.361000061E0,-3.625050068E0,4.375431389E0
2.069980068E0,7.699500322E-1,2.361000061E0,-3.472050190E0,4.268755892E0
2.071943414E0,8.089500666E-1,2.322000027E0,-3.357000113E0,4.161193830E0
2.073906805E0,8.850000501E-1,2.322000027E0,-3.165000200E0,4.023945263E0
2.075870183E0,1.039050102E0,2.208000183E0,-2.974050045E0,3.847059084E0
2.077833569E0,1.269000053E0,2.131050110E0,-2.743950129E0,3.698783315E0
2.079796952E0,1.345050097E0,2.053950071E0,-2.590050220E0,3.568785620E0
2.081760008E0,1.537050128E0,1.978050113E0,-2.322000027E0,3.415682870E0
2.083723170E0,1.729050040E0,1.863000035E0,-2.092050076E0,3.291968513E0
2.085686727E0,1.920000076E0,1.824000120E0,-2.322000027E0,3.522081892E0
2.087650168E0,1.882050037E0,1.708950043E0,-3.012000084E0,3.941416890E0
2.089613409E0,1.690050125E0,1.633050084E0,-4.392000198E0,4.981243594E0
2.091576708E0,1.422000051E0,1.479000092E0,-6.499950409E0,6.816075171E0
2.093540068E0,1.306950092E0,1.363950014E0,-9.373950005E0,9.562395980E0
2.095503405E0,1.000050068E0,1.288050056E0,-1.232595062E1,1.243335159E1
2.097465582E0,3.490500152E-1,1.018950105E0,-1.405005074E1,1.409127464E1
2.099428099E0,-6.079500318E-1,5.590500236E-1,-1.466400051E1,1.468724110E1
2.101392307E0,-1.605000019E0,2.295000106E-2,-1.405005074E1,1.414144538E1
2.103356020E0,-2.448000193E0,-4.360500276E-1,-1.201905060E1,1.227356598E1
2.105319024E0,-3.100050211E0,-1.203000069E0,-8.991000175E0,9.586219517E0
2.107282243E0,-3.483000278E0,-2.083950043E0,-5.733000278E0,7.024345586E0
2.109244710E0,-3.598050117E0,-3.081000090E0,-2.322000027E0,5.275434610E0
2.111207397E0,-3.636000156E0,-4.306950092E0,8.580000401E-1,5.701445457E0
2.113170540E0,-3.636000156E0,-5.725050449E0,3.388050079E0,7.581265272E0
2.115133549E0,-3.790050268E0,-7.258050442E0,5.380950451E0,9.797877577E0
2.117096642E0,-4.096050262E0,-8.868000031E0,6.109050274E0,1.152126501E1
2.119059707E0,-4.479000092E0,-1.070805073E1,5.841000080E0,1.299388603E1
2.121022967E0,-4.978050232E0,-1.277805042E1,5.380950451E0,1.473140131E1
2.122986169E0,-5.398950100E0,-1.492395115E1,4.843950272E0,1.659327678E1
2.124949405E0,-5.898000240E0,-1.726200104E1,3.808950186E0,1.863521366E1
2.126912631E0,-6.586950302E0,-1.983000183E1,3.081000090E0,2.112130319E1
2.128876043E0,-7.431000233E0,-2.278095055E1,2.161050081E0,2.405954301E1
2.130839400E0,-8.542050362E0,-2.630700111E1,1.624950051E0,2.770677525E1
2.132802834E0,-9.730050087E0,-3.029295158E1,1.893000126E0,3.187350373E1
2.134766246E0,-1.076505089E1,-3.473895264E1,2.506050110E0,3.645492337E1
2.136729806E0,-1.172295094E1,-3.941505051E1,3.196050167E0,4.124546668E1
2.138693323E0,-1.203000069E1,-4.393800354E1,3.502950191E0,4.568960201E1
2.140656641E0,-1.122495079E1,-4.842195129E1,3.310950041E0,4.981613471E1
2.142620017E0,-9.346950531E0,-5.279205322E1,3.043050051E0,5.369940895E1
2.144583402E0,-6.511050224E0,-5.673900223E1,2.583000183E0,5.716974758E1
2.146546784E0,-3.520950079E0,-5.969100189E1,1.356000066E0,5.981012901E1
2.148511972E0,-1.870500147E-1,-6.222000122E1,-1.363950014E0,6.223523037E1
2.150476631E0,3.453000069E0,-6.448200226E1,-6.538050175E0,6.490452931E1
2.152439833E0,7.363050461E0,-6.678105164E1,-1.420395088E1,6.867077683E1
2.154403469E0,1.173195076E1,-6.808395386E1,-2.409195137E1,7.316751713E1
2.156366946E0,1.564200115E1,-6.758595276E1,-3.348195267E1,7.702969794E1
2.158330469E0,1.981905174E1,-6.620595551E1,-4.241295242E1,8.108564540E1
2.160294009E0,2.254095078E1,-6.371505356E1,-4.570905304E1,8.159056343E1
2.162257544E0,2.292405128E1,-6.095505142E1,-4.222095108E1,7.761210686E1
2.164221098E0,2.204205132E1,-5.785095215E1,-3.352095032E1,7.040055966E1
2.166184636E0,2.070105171E1,-5.490000153E1,-2.209905052E1,6.269698353E1
2.168147995E0,1.943595123E1,-5.122005081E1,-1.167405033E1,5.601368812E1
2.170111407E0,1.821000099E1,-4.796205139E1,-3.280050039E0,5.140740451E1
2.172073886E0,1.736595154E1,-4.512600327E1,1.240950108E0,4.836809280E1
2.174036638E0,1.556505108E1,-4.217505264E1,2.085000038E0,4.500392323E1
2.176001060E0,1.188495064E1,-3.853395081E1,-4.819500148E-1,4.032802614E1
2.177964972E0,8.589000702E0,-3.481605148E1,-4.507050037E0,3.614196832E1
2.179928312E0,6.136050224E0,-3.167295074E1,-8.455050468E0,3.335138377E1
2.181891820E0,3.682950258E0,-2.879895210E1,-1.167405033E1,3.129260641E1
2.183854102E0,6.169500351E-1,-2.607705116E1,-1.297695065E1,2.913407752E1
2.185816744E0,-2.985000134E0,-2.400795174E1,-1.274700069E1,2.734552978E1
2.187780038E0,-6.741000175E0,-2.251305199E1,-1.102200031E1,2.595694674E1
2.189743135E0,-9.922050476E0,-2.132505035E1,-8.340000153E0,2.495516902E1
2.191706434E0,-1.268205070E1,-2.017500114E1,-5.272950172E0,2.440633288E1
2.193669674E0,-1.482795048E1,-1.902495003E1,-2.704950094E0,2.427207436E1
2.195632138E0,-1.636095047E1,-1.791300011E1,-7.890000343E-1,2.427300546E1
2.197594830E0,-1.743405151E1,-1.680195045E1,4.360500276E-1,2.421656109E1
2.199557832E0,-1.793205070E1,-1.565205097E1,1.203000069E0,2.383259011E1
2.201520746E0,-1.816200066E1,-1.461705112E1,1.395000100E0,2.335513812E1
2.203484392E0,-1.820100021E1,-1.365900040E1,1.432950020E0,2.280127291E1
2.205447823E0,-1.812405014E1,-1.300800037E1,1.395000100E0,2.235252318E1
2.207410975E0,-1.804695129E1,-1.266300106E1,1.395000100E0,2.209049733E1
2.209374209E0,-1.800900078E1,-1.247100067E1,1.432950020E0,2.195229629E1
2.211337628E0,-1.758705139E1,-1.247100067E1,1.395000100E0,2.160500543E1
2.213300986E0,-1.693605042E1,-1.254795074E1,1.395000100E0,2.112408334E1
2.215264421E0,-1.620795059E1,-1.273905087E1,1.510050058E0,2.067030069E1
2.217227833E0,-1.521105099E1,-1.304595089E1,1.624950051E0,2.010505830E1
2.219190988E0,-1.390800095E1,-1.331400108E1,1.969950080E0,1.935396131E1
2.221154219E0,-1.264305019E1,-1.339095020E1,2.391000032E0,1.857097592E1
2.223117468E0,-1.134000015E1,-1.331400108E1,2.698050022E0,1.769569728E1
2.225080699E0,-1.007505035E1,-1.316100025E1,2.928000212E0,1.683127305E1
2.227043929E0,-9.040050507E0,-1.304595089E1,3.043050051E0,1.616104889E1
2.229007160E0,-8.427000046E0,-1.281600094E1,3.043050051E0,1.563727481E1
2.230970391E0,-7.929000378E0,-1.250895023E1,2.928000212E0,1.509688935E1
2.232933622E0,-7.776000500E0,-1.227900028E1,2.851050138E0,1.481109444E1
2.234897068E0,-7.929000378E0,-1.227900028E1,2.545050144E0,1.483644752E1
2.236860457E0,-7.966950417E0,-1.247100067E1,2.200050116E0,1.496122913E1
2.238823797E0,-8.121000290E0,-1.258605099E1,1.930950046E0,1.510257903E1
2.240787151E0,-8.197050095E0,-1.273905087E1,1.740000129E0,1.524803750E1
2.242750045E0,-8.274000168E0,-1.308405018E1,1.510050058E0,1.555415375E1
2.244713074E0,-8.197050095E0,-1.354395103E1,1.395000100E0,1.589264815E1
2.246675939E0,-7.929000378E0,-1.400400066E1,1.203000069E0,1.613779076E1
2.248638849E0,-7.584000587E0,-1.461705112E1,8.580000401E-1,1.648973658E1
2.250601639E0,-7.201050282E0,-1.542195034E1,6.660000086E-1,1.703335649E1
2.252564464E0,-6.817050457E0,-1.618905067E1,5.899500251E-1,1.757570993E1
2.254527583E0,-6.204000473E0,-1.703205109E1,6.660000086E-1,1.813901712E1
2.256490616E0,-5.553000450E0,-1.760700035E1,9.730500579E-1,1.848753909E1
2.258453696E0,-4.671000004E0,-1.806705093E1,1.471050024E0,1.871898925E1
2.260416765E0,-3.751050234E0,-1.829700089E1,2.122950077E0,1.879780669E1
2.262379978E0,-2.677950144E0,-1.837305069E1,2.773950100E0,1.877325778E1
2.264343149E0,-1.758000135E0,-1.848795128E1,3.426000118E0,1.888471296E1
2.266306211E0,-7.620000243E-1,-1.852695084E1,3.886050224E0,1.894544636E1
2.268269305E0,3.490500152E-1,-1.871805000E1,4.192950249E0,1.918510004E1
2.270233153E0,1.422000051E0,-1.887195015E1,4.384050369E0,1.942659219E1
2.272196774E0,2.610000134E0,-1.906305122E1,4.192950249E0,1.969245679E1
2.274159893E0,3.645000219E0,-1.902495003E1,3.963000298E0,1.977220578E1
2.276123160E0,4.372950077E0,-1.879500008E1,3.808950186E0,1.966933710E1
2.278086429E0,5.062950134E0,-1.837305069E1,3.463950157E0,1.937011632E1
2.280049697E0,5.560950279E0,-1.776000023E1,3.118950129E0,1.886980726E1
2.282012737E0,6.097950459E0,-1.726200104E1,2.583000183E0,1.848874170E1
2.283975848E0,6.634950161E0,-1.684005165E1,1.893000126E0,1.819871844E1
2.285938919E0,7.095000267E0,-1.626495171E1,1.395000100E0,1.779982326E1
2.287902002E0,7.477950573E0,-1.576695061E1,5.509500504E-1,1.745909569E1
2.289866113E0,7.630950451E0,-1.511595058E1,-2.205000073E-2,1.693292217E1
2.291829923E0,7.401000500E0,-1.427205086E1,-5.590500236E-1,1.608660253E1
2.293793055E0,7.095000267E0,-1.350600052E1,-1.171950102E0,1.530112891E1
2.295756386E0,6.750000477E0,-1.258605099E1,-1.671000123E0,1.437927075E1
2.297719464E0,6.289950371E0,-1.189605045E1,-2.130000114E0,1.362411071E1
2.299682617E0,5.868000507E0,-1.113000011E1,-2.437050104E0,1.281598789E1
2.301645500E0,5.485050201E0,-1.059300041E1,-2.782050133E0,1.224896879E1
2.303608463E0,5.140050411E0,-9.979950905E0,-2.859000206E0,1.158418838E1
2.305571548E0,4.872000217E0,-9.405000687E0,-3.241950035E0,1.107703318E1
2.307534605E0,4.680000305E0,-8.944950104E0,-3.510000229E0,1.068806048E1
2.309497641E0,4.564949989E0,-8.599950790E0,-3.778950214E0,1.044405988E1
2.311460684E0,4.335000038E0,-8.140049934E0,-3.778950214E0,9.966599369E0
2.313423631E0,4.143000126E0,-7.717950344E0,-3.625050068E0,9.480094702E0
2.315386607E0,4.066950321E0,-7.258050442E0,-3.433950186E0,9.000633034E0
2.317349700E0,3.952050209E0,-6.721950531E0,-2.896950245E0,8.318391703E0
2.319312759E0,3.874950171E0,-6.262050152E0,-2.359950066E0,7.732908589E0
2.321275795E0,3.760050297E0,-5.917050362E0,-2.092050076E0,7.316155871E0
2.323238838E0,3.760050297E0,-5.572050095E0,-1.747050047E0,6.945351277E0
2.325201965E0,3.645000219E0,-5.188950062E0,-1.594050050E0,6.538518556E0
2.327165067E0,3.645000219E0,-4.920000076E0,-1.516950130E0,6.308214093E0
2.329127960E0,3.529950142E0,-4.575000286E0,-1.441050053E0,5.955484940E0
2.331090915E0,3.337950230E0,-4.231050014E0,-1.363950014E0,5.559141625E0
2.333053832E0,3.147000074E0,-3.886050224E0,-1.363950014E0,5.183180052E0
2.335016761E0,2.917050123E0,-3.463950157E0,-1.363950014E0,4.729533989E0
2.336979862E0,2.686950207E0,-3.042000055E0,-1.402050018E0,4.294090125E0
2.338942913E0,2.610000134E0,-2.620950222E0,-1.402050018E0,3.955657343E0
2.340905780E0,2.380050182E0,-2.275950193E0,-1.479000092E0,3.609990225E0
2.342868694E0,2.074050188E0,-1.854000092E0,-1.516950130E0,3.168617714E0
2.344831978E0,1.882050037E0,-1.393950105E0,-1.516950130E0,2.790402648E0
2.346795154E0,1.651950121E0,-1.011000037E0,-1.516950130E0,2.460121537E0
2.348758035E0,1.498950124E0,-5.890500546E-1,-1.555950046E0,2.239377589E0
2.350721002E0,1.306950092E0,-2.440500110E-1,-1.594050050E0,2.075734692E0
2.352683412E0,1.269000053E0,-5.295000225E-2,-1.516950130E0,1.978459637E0
2.354645992E0,1.153950095E0,2.530499995E-1,-1.441050053E0,1.863400220E0
2.356609108E0,9.240000248E-1,5.980500579E-1,-1.402050018E0,1.782465756E0
2.358572067E0,8.850000501E-1,7.890000343E-1,-1.402050018E0,1.836161866E0
2.360535029E0,8.470500112E-1,9.810000658E-1,-1.479000092E0,1.966544208E0
2.362497990E0,7.320000529E-1,1.018950105E0,-1.747050047E0,2.150875929E0
2.364461248E0,7.320000529E-1,1.134000063E0,-1.861950040E0,2.299703931E0
2.366424432E0,6.940500140E-1,1.173000097E0,-2.092050076E0,2.496859661E0
2.368386410E0,5.790000558E-1,1.210950017E0,-2.551950216E0,2.883416535E0
2.370348742E0,5.020500422E-1,1.134000063E0,-2.896950245E0,3.151242788E0
2.372311765E0,4.260000288E-1,1.057950020E0,-3.357000113E0,3.545445533E0
2.374274586E0,4.260000288E-1,9.430500269E-1,-3.817050219E0,3.954831444E0
2.376238007E0,2.340000123E-1,7.510500550E-1,-4.507050037E0,4.575186579E0
2.378201263E0,4.200000316E-2,6.739500165E-1,-4.966950417E0,5.012640927E0
2.380164176E0,-7.200000435E-2,7.129500508E-1,-5.542050362E0,5.588184319E0
2.382127189E0,-1.870500147E-1,5.590500236E-1,-6.193050385E0,6.221044744E0
2.384090771E0,-2.629500031E-1,4.830000103E-1,-6.883050442E0,6.904984801E0
2.386054187E0,-3.400500119E-1,3.289500177E-1,-7.611000538E0,7.625691530E0
2.388017963E0,-4.930500090E-1,1.759500057E-1,-8.263050079E0,8.279616738E0
2.389981639E0,-6.079500318E-1,-1.680000126E-1,-9.067950249E0,9.089859678E0
2.391944795E0,-5.700000525E-1,-4.360500276E-1,-9.873000145E0,9.899049022E0
2.393908103E0,-6.850500107E-1,-8.959500194E-1,-1.079295063E1,1.085171891E1
2.395871680E0,-7.230000496E-1,-1.318050027E0,-1.152105045E1,1.161871716E1
2.397835178E0,-7.230000496E-1,-1.624050021E0,-1.205700016E1,1.218735084E1
2.399798173E0,-7.230000496E-1,-1.893000126E0,-1.251705074E1,1.268001332E1
2.401761323E0,-7.230000496E-1,-2.046000004E0,-1.282395077E1,1.300625074E1
2.403724387E0,-7.620000243E-1,-2.238000154E0,-1.282395077E1,1.304005376E1
2.405687477E0,-7.230000496E-1,-2.314050198E0,-1.255605030E1,1.278796139E1
2.407650371E0,-6.850500107E-1,-2.391000032E0,-1.186605072E1,1.212391580E1
2.409613323E0,-7.230000496E-1,-2.351999998E0,-1.094595051E1,1.121911162E1
2.411576425E0,-7.230000496E-1,-2.351999998E0,-1.002600002E1,1.032353183E1
2.413539480E0,-6.850500107E-1,-2.275950193E0,-8.914050102E0,9.225482753E0
2.415502696E0,-6.469500065E-1,-2.275950193E0,-7.995000362E0,8.337776945E0
2.417465865E0,-6.850500107E-1,-2.122950077E0,-7.189950466E0,7.528054081E0
2.419428747E0,-7.230000496E-1,-2.122950077E0,-6.576000214E0,6.947907952E0
2.421391713E0,-6.850500107E-1,-2.046000004E0,-6.001950264E0,6.377994709E0
2.423355047E0,-6.469500065E-1,-2.122950077E0,-5.617950439E0,6.040432806E0
2.425318264E0,-6.469500065E-1,-2.046000004E0,-5.311950207E0,5.729002996E0
2.427281497E0,-6.850500107E-1,-1.969050050E0,-4.927950382E0,5.350808031E0
2.429244725E0,-7.620000243E-1,-1.816050053E0,-4.507050037E0,4.918554856E0
2.431208091E0,-7.230000496E-1,-1.624050021E0,-4.009050369E0,4.385516208E0
2.433171417E0,-7.620000243E-1,-1.548000097E0,-3.549000263E0,3.946181852E0
2.435134629E0,-6.850500107E-1,-1.393950105E0,-2.935050249E0,3.320679204E0
2.437097877E0,-5.320500135E-1,-1.279050112E0,-2.284050226E0,2.671316500E0
2.439060925E0,-4.170000255E-1,-1.203000069E0,-1.632000089E0,2.069908809E0
2.441024031E0,-2.250000089E-1,-1.164000034E0,-8.659500480E-1,1.468124848E0
2.442986607E0,-3.299999982E-2,-1.164000034E0,-6.105000153E-2,1.166066972E0
2.444949339E0,1.960500032E-1,-1.126049995E0,6.660000086E-1,1.322868175E0
2.446913334E0,4.260000288E-1,-1.164000034E0,1.395000100E0,1.866118266E0
2.448876956E0,6.940500140E-1,-1.203000069E0,1.893000126E0,2.347842427E0
2.450840166E0,1.114950061E0,-1.356000066E0,2.545050144E0,3.091784283E0
2.452803496E0,1.345050097E0,-1.432950020E0,3.118950129E0,3.686509925E0
2.454766710E0,1.537050128E0,-1.548000097E0,3.618000269E0,4.224778496E0
2.456729958E0,1.767000079E0,-1.624050021E0,4.153950214E0,4.797408690E0
2.458693132E0,1.920000076E0,-1.624050021E0,4.614000320E0,5.254801397E0
2.460656334E0,2.074050188E0,-1.624050021E0,5.304000378E0,5.922131598E0
2.462619434E0,2.149950027E0,-1.663050056E0,5.841000080E0,6.442460907E0
2.464582564E0,2.227050066E0,-1.816050053E0,6.376950264E0,6.994518172E0
2.466545632E0,2.265000105E0,-1.854000092E0,6.799050331E0,7.402339307E0
2.468508718E0,2.457000017E0,-1.854000092E0,7.182000160E0,7.813788564E0
2.470471793E0,2.533950090E0,-1.738950133E0,7.450050354E0,8.059038460E0
2.472434872E0,2.457000017E0,-1.624050021E0,7.719000340E0,8.261800881E0
2.474398083E0,2.227050066E0,-1.471050024E0,8.179050446E0,8.603522904E0
2.476361255E0,1.996950150E0,-1.393950105E0,8.446949959E0,8.791010772E0
2.478324541E0,1.729050040E0,-1.279050112E0,8.599950790E0,8.864803259E0
2.480287793E0,1.537050128E0,-1.164000034E0,8.677050591E0,8.888679662E0
2.482250791E0,1.498950124E0,-1.126049995E0,8.791950226E0,8.989617836E0
2.484213867E0,1.575000048E0,-1.164000034E0,8.830050468E0,9.044628931E0
2.486176809E0,1.767000079E0,-1.279050112E0,8.715000153E0,8.983845843E0
2.488139790E0,1.959000111E0,-1.393950105E0,8.409000397E0,8.745974274E0
2.490103198E0,2.074050188E0,-1.509000063E0,8.140049934E0,8.534587178E0
2.492066481E0,2.149950027E0,-1.548000097E0,7.909950256E0,8.341816498E0
2.494029739E0,2.188950062E0,-1.548000097E0,7.603950500E0,8.062745803E0
2.495993011E0,2.111999989E0,-1.471050024E0,7.297050476E0,7.737666171E0
2.497956369E0,2.074050188E0,-1.432950020E0,6.991050243E0,7.431676355E0
2.499919701E0,1.996950150E0,-1.279050112E0,6.607050419E0,7.019750304E0
2.501882735E0,1.959000111E0,-1.203000069E0,6.223950386E0,6.634941522E0
2.503845857E0,1.920000076E0,-1.087950110E0,5.878950119E0,6.279497610E0
2.505808768E0,1.882050037E0,-9.340500236E-1,5.457000256E0,5.847513453E0
2.507771757E0,1.767000079E0,-7.810500264E-1,5.074050426E0,5.429393719E0
2.509734983E0,1.575000048E0,-5.890500546E-1,4.614000320E0,4.910865919E0
2.511698140E0,1.422000051E0,-4.360500276E-1,4.116000175E0,4.376491884E0
2.513661249E0,1.306950092E0,-3.210000098E-1,3.694050074E0,3.931560186E0
2.515624373E0,1.230000019E0,-2.059500068E-1,3.196050167E0,3.430750956E0
2.517586896E0,1.039050102E0,-1.290000081E-1,2.698050022E0,2.894087082E0
2.519549598E0,9.240000248E-1,-1.500000060E-2,2.122950077E0,2.315365646E0
2.521512558E0,8.089500666E-1,9.900000691E-2,1.624950051E0,1.817873450E0
2.523475443E0,7.320000529E-1,2.140500098E-1,1.240950108E0,1.456570854E0
2.525439094E0,7.320000529E-1,3.289500177E-1,7.810500264E-1,1.119853265E0
2.527402520E0,6.550500393E-1,4.060500264E-1,2.830500007E-1,8.210264800E-1
2.529365132E0,6.169500351E-1,6.360000372E-1,-1.369500011E-1,8.965928262E-1
2.531327983E0,5.020500422E-1,6.739500165E-1,-5.209500194E-1,9.887627583E-1
2.533291458E0,4.639500082E-1,8.280000687E-1,-8.659500480E-1,1.284796953E0
2.535254750E0,5.410500169E-1,9.040500522E-1,-1.134000063E0,1.547901082E0
2.537218017E0,5.410500169E-1,9.810000658E-1,-1.479000092E0,1.855407643E0
2.539181291E0,5.410500169E-1,1.018950105E0,-1.861950040E0,2.190400052E0
2.541144490E0,5.410500169E-1,9.810000658E-1,-2.130000114E0,2.406656755E0
2.543107728E0,4.639500082E-1,1.018950105E0,-2.475000143E0,2.716456264E0
2.545070597E0,4.639500082E-1,9.810000658E-1,-2.859000206E0,3.058021079E0
2.547033575E0,4.639500082E-1,9.430500269E-1,-3.357000113E0,3.517675755E0
2.548996622E0,4.639500082E-1,9.040500522E-1,-3.739950180E0,3.875536538E0
2.550959649E0,4.639500082E-1,9.040500522E-1,-4.047000408E0,4.172621288E0
2.552923783E0,5.410500169E-1,8.280000687E-1,-4.200000286E0,4.314895322E0
2.554887616E0,6.169500351E-1,8.280000687E-1,-4.315050125E0,4.436876045E0
2.556850790E0,5.790000558E-1,8.280000687E-1,-4.468050003E0,4.580861929E0
2.558814157E0,6.169500351E-1,9.040500522E-1,-4.429950237E0,4.563156029E0
2.560777319E0,6.550500393E-1,1.018950105E0,-4.392000198E0,4.555986788E0
2.562740542E0,5.790000558E-1,1.018950105E0,-4.353000164E0,4.508005192E0
2.564703652E0,5.790000558E-1,1.057950020E0,-4.468050003E0,4.627955287E0
2.566666786E0,6.940500140E-1,1.096050024E0,-4.468050003E0,4.652580134E0
2.568629987E0,6.940500140E-1,1.134000063E0,-4.429950237E0,4.625161691E0
2.570593169E0,6.169500351E-1,1.134000063E0,-4.123950005E0,4.321289984E0
2.572555328E0,5.410500169E-1,1.134000063E0,-3.778950214E0,3.982355583E0
2.574517786E0,4.639500082E-1,1.210950017E0,-3.165000200E0,3.420361943E0
2.576480973E0,3.490500152E-1,1.288050056E0,-2.359950066E0,2.711138722E0
2.578443943E0,3.870000243E-1,1.326000094E0,-1.708950043E0,2.197397442E0
2.580407984E0,5.790000558E-1,1.288050056E0,-9.040500522E-1,1.676788748E0
2.582371712E0,6.940500140E-1,1.326000094E0,-2.520000041E-1,1.517723847E0
2.584333913E0,7.320000529E-1,1.441050053E0,3.979500234E-1,1.664576088E0
2.586296561E0,8.850000501E-1,1.594050050E0,1.165050030E0,2.163691804E0
2.588259755E0,9.619500637E-1,1.671000123E0,1.471050024E0,2.425196386E0
2.590222789E0,8.470500112E-1,1.671000123E0,1.510050058E0,2.406239039E0
2.592185514E0,6.169500351E-1,1.479000092E0,1.203000069E0,2.003815805E0
2.594148330E0,2.340000123E-1,1.173000097E0,3.220500052E-1,1.238709587E0
2.596112532E0,-1.480500102E-1,7.890000343E-1,-9.040500522E-1,1.209027029E0
2.598076328E0,-7.620000243E-1,2.910000086E-1,-2.245050192E0,2.388634632E0
2.600040520E0,-1.106999993E0,-1.290000081E-1,-3.931950092E0,4.086847381E0
2.602004612E0,-1.375050068E0,-5.130000114E-1,-5.503050327E0,5.695392401E0
2.603967831E0,-1.489950061E0,-1.203000069E0,-7.228050232E0,7.477424055E0
2.605931306E0,-1.489950061E0,-1.930950046E0,-8.569950104E0,8.910250504E0
2.607894494E0,-1.528050065E0,-2.697000027E0,-9.183000565E0,9.692071271E0
2.609857767E0,-1.834950089E0,-3.579000235E0,-8.493000031E0,9.397198201E0
2.611820821E0,-2.256000042E0,-4.498950005E0,-6.615000248E0,8.311938138E0
2.613783964E0,-2.677950144E0,-5.686950207E0,-4.315050125E0,7.624465700E0
2.615746489E0,-3.061050177E0,-7.219950199E0,-1.824000120E0,8.051377863E0
2.617709195E0,-3.483000278E0,-9.060000420E0,7.810500264E-1,9.737809697E0
2.619672154E0,-4.249050140E0,-1.109100056E1,3.043050051E0,1.226070447E1
2.621635039E0,-5.208000183E0,-1.342905045E1,4.423050404E0,1.506738321E1
2.623598085E0,-6.166050434E0,-1.626495171E1,5.496000290E0,1.824211751E1
2.625561097E0,-7.162050247E0,-1.944705009E1,5.802000046E0,2.152082539E1
2.627524185E0,-8.274000168E0,-2.281905174E1,5.496000290E0,2.488723007E1
2.629487251E0,-9.232050896E0,-2.619195175E1,4.843950272E0,2.819065367E1
2.631450196E0,-1.015200043E1,-2.937300110E1,3.426000118E0,3.126617634E1
2.633413176E0,-1.084200096E1,-3.255495071E1,2.275950193E0,3.438827926E1
2.635376065E0,-1.156995010E1,-3.619605255E1,2.275950193E0,3.806833218E1
2.637338998E0,-1.225995064E1,-4.037295151E1,2.620950222E0,4.227470855E1
2.639302054E0,-1.225995064E1,-4.470405197E1,2.161050081E0,4.640505134E1
2.641265073E0,-1.156995010E1,-4.926495361E1,1.471050024E0,5.062670627E1
2.643228881E0,-1.011405087E1,-5.367300415E1,8.200500607E-1,5.462378494E1
2.645192458E0,-8.350950241E0,-5.765895462E1,-2.205000073E-2,5.826056903E1
2.647155295E0,-5.743950367E0,-6.095505142E1,-3.670500219E-1,6.122618709E1
2.649118363E0,-2.716050148E0,-6.371505356E1,-1.824000120E0,6.379899650E1
2.651082477E0,2.340000123E-1,-6.570795441E1,-4.582950115E0,6.586800027E1
2.653046284E0,3.108000040E0,-6.766305542E1,-9.718950272E0,6.842811357E1
2.655009237E0,5.868000507E0,-6.911894989E1,-1.573695087E1,7.113026280E1
2.656972440E0,7.708050251E0,-6.927194977E1,-2.186895180E1,7.304976465E1
2.658935360E0,9.088050842E0,-6.812295532E1,-2.708205223E1,7.386993477E1
2.660898363E0,1.019895077E1,-6.563100433E1,-3.026295090E1,7.298831087E1
2.662861407E0,1.111905098E1,-6.199005127E1,-3.014805222E1,6.982338293E1
2.664824438E0,1.157895088E1,-5.788905334E1,-2.685195160E1,6.485554645E1
2.666787344E0,1.207695103E1,-5.352000427E1,-2.152395058E1,5.893661045E1
2.668750286E0,1.161705017E1,-4.872900391E1,-1.550700092E1,5.243985845E1
2.670713390E0,1.104195023E1,-4.447500229E1,-1.040895081E1,4.699251802E1
2.672676443E0,8.973000526E0,-4.021995163E1,-6.040050507E0,4.164902709E1
2.674639569E0,5.560950279E0,-3.569700241E1,-3.549000263E0,3.630145386E1
2.676602674E0,1.996950150E0,-3.175005150E1,-2.284050226E0,3.189467770E1
2.678565026E0,-8.380500674E-1,-2.837700081E1,-2.130000114E0,2.846916583E1
2.680527599E0,-2.946000099E0,-2.565600204E1,-2.859000206E0,2.598236401E1
2.682490576E0,-4.210950375E0,-2.366295052E1,-4.047000408E0,2.437304951E1
2.684453438E0,-5.284050465E0,-2.220600128E1,-5.925000191E0,2.358247887E1
2.686416687E0,-6.511050224E0,-2.086500168E1,-7.726050377E0,2.318262117E1
2.688379822E0,-7.621950150E0,-1.983000183E1,-9.298050880E0,2.319001610E1
2.690343115E0,-9.193950653E0,-1.887195015E1,-1.025595093E1,2.336372745E1
2.692306361E0,-1.080300045E1,-1.795200157E1,-1.071600056E1,2.353320733E1
2.694269803E0,-1.214505100E1,-1.714695168E1,-1.071600056E1,2.358713386E1
2.696233164E0,-1.341000080E1,-1.645695114E1,-1.021800041E1,2.355985770E1
2.698196509E0,-1.436805058E1,-1.576695061E1,-9.183000565E0,2.322423536E1
2.700159858E0,-1.490505028E1,-1.503900051E1,-7.918050289E0,2.260591915E1
2.702123069E0,-1.521105099E1,-1.434900093E1,-6.538050175E0,2.190926744E1
2.704086320E0,-1.505805111E1,-1.369695091E1,-5.197050095E0,2.100858627E1
2.706049367E0,-1.463595104E1,-1.323795033E1,-3.702000141E0,2.007882459E1
2.708012474E0,-1.413795090E1,-1.281600094E1,-2.437050104E0,1.923722300E1
2.709975410E0,-1.379295063E1,-1.277805042E1,-1.363950014E0,1.885164235E1
2.711938397E0,-1.348605061E1,-1.296900082E1,-7.120500207E-1,1.872366306E1
2.713901264E0,-1.287300014E1,-1.331400108E1,-2.520000041E-1,1.852134611E1
2.715864166E0,-1.176195049E1,-1.335300064E1,2.830500007E-1,1.779680372E1
2.717826547E0,-1.084200096E1,-1.316100025E1,8.959500194E-1,1.707523467E1
2.719789084E0,-1.022895050E1,-1.293105030E1,1.203000069E0,1.653150626E1
2.721752117E0,-9.807000160E0,-1.289295101E1,1.318050027E0,1.625246731E1
2.723715005E0,-9.232050896E0,-1.304595089E1,1.432950020E0,1.604621277E1
2.725678115E0,-8.925000191E0,-1.323795033E1,1.471050024E0,1.603318263E1
2.727641159E0,-8.656949997E0,-1.339095020E1,1.548000097E0,1.602050670E1
2.729604377E0,-8.274000168E0,-1.381200027E1,1.701000094E0,1.619023878E1
2.731567544E0,-8.044050217E0,-1.427205086E1,1.777950048E0,1.647905598E1
2.733530607E0,-7.966950417E0,-1.454100037E1,1.624950051E0,1.665993557E1
2.735493700E0,-7.852050304E0,-1.484700108E1,1.471050024E0,1.685977826E1
2.737456639E0,-7.737000465E0,-1.511595058E1,1.279950023E0,1.702913416E1
2.739419623E0,-7.699050426E0,-1.534605026E1,1.011000037E0,1.719880104E1
2.741382889E0,-7.621950150E0,-1.561395073E1,8.580000401E-1,1.739614169E1
2.743346044E0,-7.315950394E0,-1.584405041E1,5.130000114E-1,1.745910171E1
2.745308794E0,-7.086000443E0,-1.607400131E1,3.979500234E-1,1.757109230E1
2.747271662E0,-6.894000530E0,-1.626495171E1,3.220500052E-1,1.766860531E1
2.749234548E0,-6.625950336E0,-1.649505043E1,4.360500276E-1,1.778145231E1
2.751197429E0,-6.166050434E0,-1.676399994E1,5.130000114E-1,1.786938838E1
2.753160191E0,-5.743950367E0,-1.695495033E1,5.130000114E-1,1.790883792E1
2.755123012E0,-5.323050022E0,-1.707000160E1,5.509500504E-1,1.788919680E1
2.757086132E0,-4.939050198E0,-1.718505096E1,7.810500264E-1,1.789777172E1
2.759049164E0,-4.210950375E0,-1.737705040E1,1.050000072E0,1.791079238E1
2.761012384E0,-3.330000162E0,-1.749195099E1,1.203000069E0,1.784669324E1
2.762975549E0,-2.485950232E0,-1.749195099E1,1.203000069E0,1.770862804E1
2.764938831E0,-1.795950055E0,-1.741500092E1,1.203000069E0,1.754864390E1
2.766902082E0,-1.144950032E0,-1.718505096E1,1.165050030E0,1.726250934E1
2.768865311E0,-5.700000525E-1,-1.684005165E1,1.011000037E0,1.687999884E1
2.770828546E0,-1.480500102E-1,-1.641900063E1,8.200500607E-1,1.644013329E1
2.772792316E0,1.570500135E-1,-1.588200092E1,8.580000401E-1,1.590593544E1
2.774755929E0,6.169500351E-1,-1.534605026E1,8.580000401E-1,1.538239416E1
2.776719026E0,1.077000022E0,-1.473195076E1,9.730500579E-1,1.480328101E1
2.778682291E0,1.345050097E0,-1.415700054E1,1.240950108E0,1.427479531E1
2.780645200E0,1.614000082E0,-1.362105083E1,1.395000100E0,1.378709713E1
2.782608214E0,1.882050037E0,-1.308405018E1,1.624950051E0,1.331821850E1
2.784571301E0,1.729050040E0,-1.227900028E1,2.161050081E0,1.258704093E1
2.786534366E0,1.614000082E0,-1.128300095E1,2.812950134E0,1.173983795E1
2.788497266E0,1.575000048E0,-1.047795010E1,3.234000206E0,1.107821379E1
2.790460214E0,1.498950124E0,-9.750000000E0,3.694050074E0,1.053353490E1
2.792423267E0,1.422000051E0,-9.136050224E0,3.924000263E0,1.004426582E1
2.794386289E0,1.459950089E0,-8.523000717E0,4.345950127E0,9.677824032E0
2.796349421E0,1.651950121E0,-8.101950645E0,4.384050369E0,9.358976499E0
2.798312520E0,2.111999989E0,-7.717950344E0,4.537950039E0,9.198928852E0
2.800275774E0,2.457000017E0,-7.527000427E0,4.690950394E0,9.203129908E0
2.802238982E0,2.725050211E0,-7.258050442E0,4.729050159E0,9.081250480E0
2.804202532E0,3.108000040E0,-7.143000126E0,4.614000320E0,9.053790035E0
2.806165982E0,3.415050268E0,-6.874950409E0,4.576050282E0,8.936875720E0
2.808129041E0,3.645000219E0,-6.529950142E0,4.537950039E0,8.747529137E0
2.810092214E0,3.837000132E0,-6.147000313E0,4.345950127E0,8.449583739E0
2.812055444E0,4.027950287E0,-5.802000046E0,4.231050014E0,8.233430164E0
2.814018664E0,4.182000160E0,-5.419050217E0,4.116000175E0,7.987282894E0
2.815981537E0,4.297049999E0,-4.959000111E0,3.847950220E0,7.606776038E0
2.817944512E0,4.411950111E0,-4.498950005E0,3.541050196E0,7.228062771E0
2.819907966E0,4.527000427E0,-4.116000175E0,3.004050255E0,6.816121202E0
2.821871279E0,4.527000427E0,-3.655950069E0,2.698050022E0,6.413982983E0
2.823834476E0,4.603050232E0,-3.157050133E0,2.238000154E0,6.013624670E0
2.825797690E0,4.680000305E0,-2.620950222E0,1.777950048E0,5.650919332E0
2.827760922E0,4.717950344E0,-2.122950077E0,1.395000100E0,5.358357748E0
2.829724149E0,4.717950344E0,-1.624050021E0,9.349500537E-1,5.076487518E0
2.831688147E0,4.909950256E0,-1.279050112E0,3.220500052E-1,5.084023693E0
2.833651919E0,5.062950134E0,-7.810500264E-1,-1.369500011E-1,5.124671551E0
2.835615073E0,5.140050411E0,-3.589500189E-1,-6.739500165E-1,5.196457637E0
2.837578397E0,5.293050289E0,-9.105000645E-2,-1.171950102E0,5.422005027E0
2.839540665E0,5.485050201E0,2.530499995E-1,-1.479000092E0,5.686585204E0
2.841503243E0,5.560950279E0,6.360000372E-1,-1.900950074E0,5.911199137E0
2.843466450E0,5.638050079E0,9.040500522E-1,-2.322000027E0,6.164138165E0
2.845429472E0,5.715000153E0,1.173000097E0,-2.590050220E0,6.383221453E0
2.847392748E0,5.752950191E0,1.363950014E0,-2.896950245E0,6.584004577E0
2.849355943E0,5.830050468E0,1.518000126E0,-3.088950157E0,6.770186550E0
2.851319315E0,5.905950069E0,1.671000123E0,-3.165000200E0,6.905773954E0
2.853282635E0,6.021000385E0,1.747950077E0,-3.394950151E0,7.129758877E0
2.855245897E0,6.021000385E0,1.786050081E0,-3.510000229E0,7.194617581E0
2.857209176E0,6.060000420E0,1.824000120E0,-3.586950064E0,7.274392915E0
2.859172218E0,6.060000420E0,1.900950074E0,-3.702000141E0,7.351327861E0
2.861135329E0,6.021000385E0,1.900950074E0,-3.778950214E0,7.358432003E0
2.863098400E0,6.060000420E0,1.824000120E0,-4.084949970E0,7.532423102E0
2.865061483E0,5.944950104E0,1.900950074E0,-4.582950115E0,7.743350352E0
2.867024738E0,5.638050079E0,2.092950106E0,-4.966950417E0,7.799913159E0
2.868987943E0,5.446050167E0,2.092950106E0,-5.617950439E0,8.099461075E0
2.870951485E0,5.254950047E0,2.092950106E0,-6.078000069E0,8.302832346E0
2.872914934E0,5.025000095E0,2.016000032E0,-6.768000126E0,8.667220304E0
2.874877993E0,4.872000217E0,1.786050081E0,-7.305000305E0,8.960434726E0
2.876841167E0,4.680000305E0,1.479000092E0,-7.995000362E0,9.381357840E0
2.878804227E0,4.488000393E0,1.057950020E0,-8.683950424E0,9.832212403E0
2.880767320E0,4.258049965E0,5.980500579E-1,-9.259050369E0,1.020875444E1
2.882731235E0,3.952050209E0,2.295000106E-2,-9.796050072E0,1.056322984E1
2.884694919E0,3.529950142E0,-4.360500276E-1,-1.037100029E1,1.096395616E1
2.886658298E0,3.223050117E0,-9.730500579E-1,-1.106100082E1,1.156203346E1
2.888621767E0,2.839950085E0,-1.432950020E0,-1.175100040E1,1.217393415E1
2.890585092E0,2.419050217E0,-1.816050053E0,-1.201905060E1,1.239384601E1
2.892548459E0,2.035050154E0,-2.161050081E0,-1.201905060E1,1.238019159E1
2.894511682E0,1.614000082E0,-2.351999998E0,-1.198095036E1,1.231584636E1
2.896474936E0,1.345050097E0,-2.467050076E0,-1.175100040E1,1.208228068E1
2.898437307E0,1.000050068E0,-2.544000149E0,-1.129095078E1,1.161712556E1
2.900399936E0,5.790000558E-1,-2.581950188E0,-1.067805004E1,1.100102089E1
2.902363044E0,2.340000123E-1,-2.581950188E0,-9.988050461E0,1.031902974E1
2.904326011E0,-3.299999982E-2,-2.544000149E0,-9.183000565E0,9.528930954E0
2.906289286E0,-1.480500102E-1,-2.467050076E0,-8.377950668E0,8.734890513E0
2.908252471E0,-2.629500031E-1,-2.428950071E0,-7.650000572E0,8.030656879E0
2.910215710E0,-3.019500077E-1,-2.351999998E0,-6.883050442E0,7.280072883E0
2.912178933E0,-2.629500031E-1,-2.238000154E0,-6.307950497E0,6.698360013E0
2.914141986E0,-3.019500077E-1,-2.161050081E0,-5.617950439E0,6.026829880E0
2.916105089E0,-4.170000255E-1,-2.046000004E0,-5.005050182E0,5.423147828E0
2.918067981E0,-5.700000525E-1,-2.008050203E0,-4.507050037E0,4.966957390E0
2.920030935E0,-6.850500107E-1,-1.893000126E0,-3.931950092E0,4.417349264E0
2.921994077E0,-7.620000243E-1,-1.816050053E0,-3.357000113E0,3.892060070E0
2.923957164E0,-9.150000215E-1,-1.701000094E0,-2.704950094E0,3.323760126E0
2.925920015E0,-1.068000078E0,-1.585950017E0,-2.130000114E0,2.862300143E0
2.927882935E0,-1.144950032E0,-1.432950020E0,-1.555950046E0,2.405251937E0
2.929845723E0,-1.222050071E0,-1.356000066E0,-9.420000315E-1,2.054143766E0
2.931808550E0,-1.297950029E0,-1.203000069E0,-3.289500177E-1,1.800025433E0
2.933770543E0,-1.375050068E0,-1.164000034E0,3.220500052E-1,1.830129770E0
2.935732781E0,-1.375050068E0,-1.126049995E0,9.349500537E-1,2.008203895E0
2.937695820E0,-1.336950064E0,-1.087950110E0,1.510050058E0,2.291576334E0
2.939658625E0,-1.260000110E0,-1.048950076E0,2.085000038E0,2.652380383E0
2.941621958E0,-1.183050036E0,-1.087950110E0,2.659050226E0,3.107055026E0
2.943585116E0,-1.068000078E0,-1.126049995E0,3.157950163E0,3.518701748E0
2.945548180E0,-9.919500351E-1,-1.164000034E0,3.694050074E0,3.998107915E0
2.947511272E0,-9.529500604E-1,-1.203000069E0,4.231050014E0,4.500789620E0
2.949474570E0,-9.919500351E-1,-1.318050027E0,4.690950394E0,4.972548274E0
2.951437808E0,-9.529500604E-1,-1.356000066E0,5.227050304E0,5.483512094E0
2.953401044E0,-9.150000215E-1,-1.432950020E0,5.649000168E0,5.899302814E0
2.955364277E0,-8.770500422E-1,-1.509000063E0,6.031950474E0,6.279388862E0
2.957327327E0,-8.380500674E-1,-1.624050021E0,6.415950298E0,6.671153170E0
2.959290431E0,-8.380500674E-1,-1.738950133E0,6.684000492E0,6.957164513E0
2.961253323E0,-7.230000496E-1,-1.930950046E0,6.991050243E0,7.288764001E0
2.963216277E0,-5.700000525E-1,-2.008050203E0,7.219950199E0,7.515640130E0
2.965179398E0,-4.549500346E-1,-2.122950077E0,7.489050388E0,7.797420874E0
2.967142453E0,-2.629500031E-1,-2.238000154E0,7.680000305E0,8.003761121E0
2.969105490E0,4.200000316E-2,-2.351999998E0,7.756950378E0,8.105797133E0
2.971068532E0,1.189500093E-1,-2.544000149E0,7.795050144E0,8.200542215E0
2.973031480E0,3.109500110E-1,-2.620950222E0,7.834050179E0,8.266705037E0
2.974994455E0,4.639500082E-1,-2.659050226E0,7.909950256E0,8.357817345E0
2.976958108E0,6.940500140E-1,-2.736000061E0,8.025000572E0,8.506940457E0
2.978921549E0,8.850000501E-1,-2.851050138E0,8.025000572E0,8.562262911E0
2.980884384E0,1.000050068E0,-2.812050104E0,7.987050533E0,8.526470674E0
2.982847397E0,1.192050099E0,-2.889000177E0,7.872000217E0,8.469692609E0
2.984810484E0,1.306950092E0,-2.926950216E0,7.756950378E0,8.393177901E0
2.986773549E0,1.345050097E0,-2.926950216E0,7.489050388E0,8.152427433E0
2.988736583E0,1.422000051E0,-2.851050138E0,7.297050476E0,7.962255754E0
2.990699627E0,1.498950124E0,-2.736000061E0,7.029000282E0,7.690214092E0
2.992662530E0,1.575000048E0,-2.697000027E0,6.721950531E0,7.412088318E0
2.994625474E0,1.651950121E0,-2.620950222E0,6.492000103E0,7.193356977E0
2.996588573E0,1.729050040E0,-2.506050110E0,6.186000347E0,6.894671964E0
2.998551626E0,1.729050040E0,-2.351999998E0,5.841000080E0,6.529839199E0
3.000514342E0,1.651950121E0,-2.199000120E0,5.611050129E0,6.248873841E0
3.002477161E0,1.575000048E0,-1.930950046E0,5.266050339E0,5.825845810E0
3.004440101E0,1.498950124E0,-1.777950048E0,4.996950150E0,5.511575877E0
3.006403005E0,1.422000051E0,-1.585950017E0,4.729050159E0,5.186640243E0
3.008365976E0,1.384050012E0,-1.393950105E0,4.345950127E0,4.769273931E0
3.010328928E0,1.306950092E0,-1.164000034E0,4.078050137E0,4.437736759E0
3.012292174E0,1.306950092E0,-9.340500236E-1,3.771000147E0,4.098903524E0
3.014255357E0,1.230000019E0,-7.810500264E-1,3.463950157E0,3.757910308E0
3.016218551E0,1.153950095E0,-5.509500504E-1,3.234000206E0,3.477629094E0
3.018181741E0,1.039050102E0,-3.979500234E-1,2.928000212E0,3.132279454E0
3.020144845E0,8.850000501E-1,-2.059500068E-1,2.736000061E0,2.882938922E0
3.022107974E0,7.320000529E-1,-1.290000081E-1,2.659050226E0,2.760980475E0
3.024069405E0,4.639500082E-1,2.295000106E-2,2.314950228E0,2.361095269E0
3.026031344E0,4.260000288E-1,2.530499995E-1,2.085000038E0,2.143066841E0
3.027994435E0,3.109500110E-1,4.440000355E-1,1.855050087E0,1.932624321E0
3.029957188E0,1.570500135E-1,6.360000372E-1,1.663050056E0,1.787427269E0
3.031920321E0,1.189500093E-1,7.510500550E-1,1.585950017E0,1.758824251E0
3.033883342E0,4.200000316E-2,9.810000658E-1,1.432950020E0,1.737086897E0
3.035846710E0,-3.299999982E-2,1.134000063E0,1.395000100E0,1.798074087E0
3.037810000E0,-3.299999982E-2,1.326000094E0,1.356000066E0,1.896866213E0
3.039773087E0,4.050000105E-3,1.518000126E0,1.395000100E0,2.061641594E0
3.041736233E0,-7.200000435E-2,1.708950043E0,1.395000100E0,2.207197211E0
3.043699432E0,-3.299999982E-2,1.863000035E0,1.471050024E0,2.373993746E0
3.045662616E0,8.100000024E-2,2.092950106E0,1.471050024E0,2.559490050E0
3.047625835E0,8.100000024E-2,2.245950222E0,1.165050030E0,2.531441283E0
3.049589057E0,4.200000316E-2,2.361000061E0,3.220500052E-1,2.383233412E0
3.051551930E0,4.200000316E-2,2.476050138E0,-5.970000029E-1,2.547351034E0
3.053514905E0,8.100000024E-2,2.590950012E0,-1.786050081E0,3.147945022E0
3.055477819E0,1.189500093E-1,2.514000177E0,-3.049950123E0,3.954306734E0
3.057440751E0,1.960500032E-1,2.398950100E0,-4.429950237E0,5.041612469E0
3.059404453E0,3.490500152E-1,2.361000061E0,-5.887050152E0,6.352441790E0
3.061367918E0,5.410500169E-1,2.361000061E0,-7.687950134E0,8.060498352E0
3.063330884E0,7.320000529E-1,2.361000061E0,-9.604050636E0,9.917052687E0
3.065293997E0,9.240000248E-1,2.322000027E0,-1.221105099E1,1.246415767E1
3.067257068E0,1.000050068E0,2.322000027E0,-1.500900078E1,1.522044312E1
3.069220151E0,8.089500666E-1,2.398950100E0,-1.623495102E1,1.643115931E1
3.071182000E0,5.410500169E-1,2.437050104E0,-1.746195030E1,1.763949140E1
3.073144218E0,3.870000243E-1,2.514000177E0,-1.884105110E1,1.901197445E1
3.075107216E0,3.490500152E-1,2.476050138E0,-2.002905083E1,2.018453708E1
3.077069985E0,3.870000243E-1,2.245950222E0,-2.075805092E1,2.088278572E1
3.079033656E0,6.169500351E-1,1.824000120E0,-2.071905136E1,2.080833230E1
3.080997062E0,7.320000529E-1,1.363950014E0,-1.972305107E1,1.978370358E1
3.082959768E0,8.089500666E-1,9.040500522E-1,-1.761495018E1,1.765667513E1
3.084922680E0,8.089500666E-1,6.105000153E-2,-1.462500095E1,1.464748375E1
3.086885379E0,6.169500351E-1,-1.011000037E0,-1.125195026E1,1.131411212E1
3.088848141E0,4.050000105E-3,-1.969050050E0,-7.420050144E0,7.676869065E0
3.090810191E0,-7.230000496E-1,-2.697000027E0,-3.088950157E0,4.163910577E0
3.092772449E0,-1.260000110E0,-3.387000084E0,9.349500537E-1,3.732760567E0
3.094735321E0,-1.642950058E0,-4.192049980E0,4.345950127E0,6.257783188E0
3.096698033E0,-1.795950055E0,-5.112000465E0,7.029000282E0,8.874955230E0
3.098660633E0,-1.873050094E0,-6.147000313E0,8.944950104E0,1.101390312E1
3.100623266E0,-2.026050091E0,-7.335000515E0,1.001805019E1,1.258047858E1
3.102585878E0,-2.256000042E0,-8.944950104E0,1.009500027E1,1.367518552E1
3.104548497E0,-2.640000105E0,-1.086105061E1,9.442950249E0,1.463220182E1
3.106511311E0,-3.291000128E0,-1.323795033E1,8.101950645E0,1.586554805E1
3.108474053E0,-4.441050053E0,-1.615005112E1,6.913950443E0,1.812042459E1
3.110437188E0,-5.974050522E0,-1.925505066E1,5.802000046E0,2.097878595E1
3.112400207E0,-7.699050426E0,-2.235900116E1,4.423050404E0,2.405750788E1
3.114363835E0,-9.462000847E0,-2.527200127E1,2.583000183E0,2.710858532E1
3.116327284E0,-1.103295040E1,-2.761005211E1,-6.105000153E-2,2.973288918E1
3.118290298E0,-1.222200012E1,-2.998695183E1,-2.896950245E0,3.251133476E1
3.120253440E0,-1.314105034E1,-3.267000198E1,-4.927950382E0,3.555700956E1
3.122216461E0,-1.394595051E1,-3.519900131E1,-6.001950264E0,3.833383148E1
3.124179517E0,-1.413795090E1,-3.784395218E1,-6.001950264E0,4.084200998E1
3.126142597E0,-1.348605061E1,-4.045005035E1,-4.582950115E0,4.288453761E1
3.128105669E0,-1.252800083E1,-4.336305237E1,-3.280050039E0,4.525553937E1
3.130067863E0,-1.091805077E1,-4.623795319E1,-1.210950017E0,4.752492554E1
3.132030334E0,-8.772000313E0,-4.899705124E1,1.011000037E0,4.978635496E1
3.133993469E0,-6.472050190E0,-5.133495331E1,2.238000154E0,5.178970467E1
3.135956409E0,-3.751050234E0,-5.355795288E1,3.004050255E0,5.377312537E1
3.137920095E0,-1.297950029E0,-5.524500275E1,2.965950251E0,5.533978554E1
3.139883563E0,1.077000022E0,-5.689305115E1,2.161050081E0,5.694426517E1
3.141846934E0,3.300000191E0,-5.815695190E1,1.279950023E0,5.826456323E1
3.143810334E0,5.254950047E0,-5.892405319E1,5.130000114E-1,5.916013619E1
3.145774076E0,6.711000443E0,-5.915400314E1,-2.910000086E-1,5.953417754E1
3.147737717E0,7.746000290E0,-5.873205185E1,-9.420000315E-1,5.924813751E1
3.149700653E0,8.359050751E0,-5.788905334E1,-2.092050076E0,5.852685623E1
3.151663796E0,8.896050453E0,-5.658600235E1,-3.510000229E0,5.738846119E1
3.153626531E0,9.547050476E0,-5.505300140E1,-5.542050362E0,5.614885091E1
3.155589396E0,1.016100025E1,-5.305995178E1,-7.075050354E0,5.448541774E1
3.157552328E0,1.096605015E1,-5.049195099E1,-7.956000328E0,5.227800027E1
3.159515240E0,1.138695049E1,-4.742595291E1,-7.495950222E0,4.934645804E1
3.161478121E0,1.138695049E1,-4.409100342E1,-6.499950409E0,4.599922368E1
3.163441011E0,1.100400066E1,-4.071795273E1,-5.464950085E0,4.253122834E1
3.165404159E0,9.892050743E0,-3.734595108E1,-4.084949970E0,3.884918978E1
3.167367235E0,8.359050751E0,-3.427905273E1,-3.088950157E0,3.541848104E1
3.169330268E0,6.442950249E0,-3.136605072E1,-2.859000206E0,3.214832232E1
3.171293314E0,3.645000219E0,-2.849205208E1,-3.165000200E0,2.889810175E1
3.173255720E0,1.345050097E0,-2.619195175E1,-4.047000408E0,2.653687451E1
3.175218314E0,-5.320500135E-1,-2.439105034E1,-4.698000431E0,2.484507239E1
3.177181677E0,-2.026050091E0,-2.293395042E1,-4.736999989E0,2.350553403E1
3.179144798E0,-3.445050240E0,-2.174595070E1,-4.736999989E0,2.252096605E1
3.181108002E0,-4.671000004E0,-2.086500168E1,-4.582950115E0,2.186709784E1
3.183071182E0,-5.935950279E0,-2.009805107E1,-4.162050247E0,2.136562250E1
3.185034242E0,-7.086000443E0,-1.960005188E1,-3.702000141E0,2.116785868E1
3.186997338E0,-8.082000732E0,-1.914000130E1,-3.394950151E0,2.105193749E1
3.188960611E0,-8.887050629E0,-1.887195015E1,-3.088950157E0,2.108724222E1
3.190923818E0,-9.232050896E0,-1.887195015E1,-2.667000055E0,2.117768060E1
3.192886558E0,-9.193950653E0,-1.902495003E1,-2.245050192E0,2.124894592E1
3.194849435E0,-9.001950264E0,-1.925505066E1,-2.014950037E0,2.135069339E1
3.196812681E0,-8.580000877E0,-1.956195068E1,-1.708950043E0,2.142911197E1
3.198775818E0,-7.891050339E0,-1.979205132E1,-1.402050018E0,2.135321322E1
3.200739124E0,-7.431000233E0,-1.975305176E1,-1.057050109E0,2.113102395E1
3.202702370E0,-6.894000530E0,-1.979205132E1,-7.890000343E-1,2.097319860E1
3.204665239E0,-6.396000385E0,-1.975305176E1,-4.440000355E-1,2.076749890E1
3.206628218E0,-6.013050079E0,-1.960005188E1,-3.670500219E-1,2.050496356E1
3.208591446E0,-5.668050289E0,-1.940805054E1,-4.060500264E-1,2.022286074E1
3.210554601E0,-5.398950100E0,-1.917795181E1,-4.440000355E-1,1.992836255E1
3.212517721E0,-5.092950344E0,-1.902495003E1,-6.360000372E-1,1.970511007E1
3.214480844E0,-4.786050320E0,-1.894799995E1,-7.890000343E-1,1.955902607E1
3.216444092E0,-4.594050407E0,-1.871805000E1,-1.171950102E0,1.930917300E1
3.218407303E0,-4.441050053E0,-1.856505013E1,-1.479000092E0,1.914605581E1
3.220370358E0,-4.363950253E0,-1.829700089E1,-1.900950074E0,1.890602852E1
3.222333459E0,-4.288050175E0,-1.802805138E1,-2.206950188E0,1.866195702E1
3.224296686E0,-4.249050140E0,-1.772205162E1,-2.551950216E0,1.840211919E1
3.226259862E0,-4.210950375E0,-1.733895111E1,-2.859000206E0,1.807056200E1
3.228222743E0,-4.210950375E0,-1.695495033E1,-3.127050161E0,1.774770088E1
3.230185710E0,-4.096050262E0,-1.668704987E1,-3.204000235E0,1.747858342E1
3.232148490E0,-4.173000336E0,-1.630395126E1,-3.357000113E0,1.716106664E1
3.234111325E0,-4.173000336E0,-1.591995049E1,-3.357000113E0,1.679667244E1
3.236074559E0,-4.134000301E0,-1.546095085E1,-3.319050074E0,1.634463377E1
3.238037689E0,-4.134000301E0,-1.496205044E1,-3.357000113E0,1.588151005E1
3.240000623E0,-4.134000301E0,-1.434900093E1,-3.241950035E0,1.528051132E1
3.241963614E0,-4.210950375E0,-1.388895035E1,-3.204000235E0,1.486272728E1
3.243926705E0,-4.173000336E0,-1.331400108E1,-3.049950123E0,1.428211302E1
3.245889766E0,-4.173000336E0,-1.281600094E1,-2.896950245E0,1.378608474E1
3.247852651E0,-4.096050262E0,-1.231800079E1,-2.743950129E0,1.326800790E1
3.249815599E0,-4.057950020E0,-1.185795021E1,-2.743950129E0,1.282993390E1
3.251778473E0,-4.057950020E0,-1.143600082E1,-2.667000055E0,1.242424897E1
3.253741368E0,-3.943050146E0,-1.105305099E1,-2.514000177E0,1.200157397E1
3.255704475E0,-3.712950230E0,-1.063095093E1,-2.551950216E0,1.154623605E1
3.257667520E0,-3.559950113E0,-1.013295078E1,-2.437050104E0,1.101313532E1
3.259630598E0,-3.483000278E0,-9.750000000E0,-2.359950066E0,1.061899973E1
3.261593669E0,-3.291000128E0,-9.289950371E0,-2.206950188E0,1.009972717E1
3.263556928E0,-3.100050211E0,-8.868000031E0,-2.053950071E0,9.616155508E0
3.265520131E0,-3.022950172E0,-8.407950401E0,-1.861950040E0,9.126813006E0
3.267483007E0,-2.869950056E0,-8.025000572E0,-1.708950043E0,8.692396549E0
3.269445979E0,-2.716050148E0,-7.564950466E0,-1.479000092E0,8.172688984E0
