"Time (s)","Acceleration x (m/s^2)","Acceleration y (m/s^2)","Acceleration z (m/s^2)","Absolute acceleration (m/s^2)"
3.724871900E-2,6.169500351E-1,-2.350905037E1,4.461000443E0,2.393651189E1
3.921014200E-2,8.470500112E-1,-2.347095108E1,3.963000298E0,2.381823691E1
4.117433400E-2,1.114950061E0,-2.343300056E1,3.463950157E0,2.371386893E1
4.313699400E-2,1.345050097E0,-2.339400101E1,2.965950251E0,2.361959576E1
4.510010300E-2,1.459950089E0,-2.327895164E1,2.467950106E0,2.345488908E1
4.706315100E-2,1.843950033E0,-2.320305061E1,2.008050203E0,2.336266199E1
4.902623400E-2,2.188950062E0,-2.308800125E1,1.548000097E0,2.324314111E1
5.098935400E-2,2.419050217E0,-2.293395042E1,1.050000072E0,2.308506847E1
5.295246300E-2,2.686950207E0,-2.281905174E1,5.509500504E-1,2.298330633E1
5.491603000E-2,3.070050240E0,-2.266605186E1,-6.105000153E-2,2.287310304E1
5.687946300E-2,3.337950230E0,-2.255100060E1,-5.209500194E-1,2.280265179E1
5.884227000E-2,3.682950258E0,-2.232105064E1,-7.120500207E-1,2.263405487E1
6.080528100E-2,3.952050209E0,-2.201505089E1,-8.269500136E-1,2.238224772E1
6.276805400E-2,4.258049965E0,-2.178495026E1,-7.890000343E-1,2.221120366E1
6.473089700E-2,4.488000393E0,-2.143995094E1,-6.739500165E-1,2.191501432E1
6.669365300E-2,4.717950344E0,-2.105595016E1,-4.060500264E-1,2.158186668E1
6.865643500E-2,4.948050022E0,-2.063505173E1,-1.369500011E-1,2.122044566E1
7.061831000E-2,5.178000450E0,-2.021295166E1,1.300500035E-1,2.086604937E1
7.258044400E-2,5.215950012E0,-1.975305176E1,3.979500234E-1,2.043398034E1
7.454345600E-2,5.331000328E0,-1.929300117E1,5.899500251E-1,2.002467228E1
7.650621100E-2,5.293050289E0,-1.871805000E1,8.959500194E-1,1.947266042E1
7.846916300E-2,5.293050289E0,-1.825800133E1,1.087950110E0,1.904086735E1
8.043205700E-2,5.370000362E0,-1.779900169E1,1.356000066E0,1.864081815E1
8.239495200E-2,5.485050201E0,-1.733895111E1,1.471050024E0,1.824524567E1
8.435787000E-2,5.407950401E0,-1.672500038E1,1.432950020E0,1.763589836E1
8.632097400E-2,5.331000328E0,-1.607400131E1,1.471050024E0,1.699873733E1
8.828402300E-2,5.331000328E0,-1.561395073E1,1.432950020E0,1.656104971E1
9.024710500E-2,5.293050289E0,-1.503900051E1,1.356000066E0,1.600083291E1
9.221017700E-2,5.293050289E0,-1.450200081E1,1.165050030E0,1.548165852E1
9.417257100E-2,5.215950012E0,-1.396605110E1,9.730500579E-1,1.493999814E1
9.613517000E-2,5.178000450E0,-1.342905045E1,8.580000401E-1,1.441829562E1
9.809792300E-2,5.178000450E0,-1.285395050E1,8.200500607E-1,1.388193842E1
1.000606300E-1,5.140050411E0,-1.231800079E1,5.509500504E-1,1.335877269E1
1.020246720E-1,4.987050056E0,-1.166595078E1,9.195000678E-2,1.268753446E1
1.039883220E-1,4.987050056E0,-1.120605087E1,-1.369500011E-1,1.226641756E1
1.059509480E-1,4.909950256E0,-1.070805073E1,-3.670500219E-1,1.178578328E1
1.079139010E-1,4.717950344E0,-1.017105007E1,-5.209500194E-1,1.122411261E1
1.098765930E-1,4.488000393E0,-9.595950127E0,-8.269500136E-1,1.062582951E1
1.118393620E-1,4.297049999E0,-9.060000420E0,-8.659500480E-1,1.006469651E1
1.138021310E-1,4.027950287E0,-8.485050201E0,-1.057050109E0,9.451868353E0
1.157649000E-1,3.721950293E0,-8.025000572E0,-1.287000060E0,8.939234717E0
1.177278800E-1,3.492000103E0,-7.527000427E0,-1.479000092E0,8.428359355E0
1.196908080E-1,3.184950113E0,-7.027950287E0,-1.708950043E0,7.902942661E0
1.216536860E-1,2.955000162E0,-6.607050419E0,-1.786050081E0,7.454871970E0
1.236165790E-1,2.725050211E0,-6.147000313E0,-1.977000117E0,7.008569109E0
1.255793270E-1,2.419050217E0,-5.725050449E0,-2.130000114E0,6.570000539E0
1.275421170E-1,2.111999989E0,-5.265000343E0,-2.169000149E0,6.073329747E0
1.295048580E-1,1.804950118E0,-4.843950272E0,-2.130000114E0,5.590939067E0
1.314676310E-1,1.690050125E0,-4.422000408E0,-2.014950037E0,5.144937384E0
1.334300840E-1,1.537050128E0,-4.116000175E0,-1.861950040E0,4.771879975E0
1.353926310E-1,1.422000051E0,-3.732000113E0,-1.708950043E0,4.344009580E0
1.373552570E-1,1.422000051E0,-3.349050045E0,-1.402050018E0,3.899226154E0
1.393178600E-1,1.345050097E0,-3.042000055E0,-1.134000063E0,3.514097358E0
1.412807740E-1,1.269000053E0,-2.620950222E0,-9.810000658E-1,3.072800405E0
1.432436100E-1,1.153950095E0,-2.351999998E0,-7.510500550E-1,2.725358875E0
1.452063690E-1,1.039050102E0,-2.008050203E0,-4.819500148E-1,2.311745347E0
1.471691500E-1,1.077000022E0,-1.738950133E0,-1.759500057E-1,2.053006337E0
1.491311960E-1,1.114950061E0,-1.585950017E0,1.300500035E-1,1.943003885E0
1.510934580E-1,1.153950095E0,-1.393950105E0,4.360500276E-1,1.861407356E0
1.530565330E-1,1.153950095E0,-1.126049995E0,7.050000429E-1,1.759719999E0
1.550193740E-1,1.192050099E0,-8.190000653E-1,9.349500537E-1,1.722171928E0
1.569824920E-1,1.192050099E0,-6.280500293E-1,1.203000069E0,1.806277787E0
1.589455280E-1,1.192050099E0,-3.979500234E-1,1.279950023E0,1.793772483E0
1.609082520E-1,1.230000019E0,-2.059500068E-1,1.356000066E0,1.842295207E0
1.628710680E-1,1.269000053E0,-9.105000645E-2,1.318050027E0,1.831913511E0
1.648330390E-1,1.306950092E0,9.900000691E-2,1.395000100E0,1.914143366E0
1.667952750E-1,1.306950092E0,2.910000086E-1,1.279950023E0,1.852315202E0
1.687583150E-1,1.306950092E0,5.209500194E-1,1.203000069E0,1.851139279E0
1.707211190E-1,1.345050097E0,7.510500550E-1,1.087950110E0,1.885966964E0
1.726838840E-1,1.306950092E0,9.810000658E-1,9.349500537E-1,1.882713806E0
1.746466600E-1,1.345050097E0,1.210950017E0,5.509500504E-1,1.891852442E0
1.766105190E-1,1.345050097E0,1.402950048E0,2.449500114E-1,1.958935708E0
1.785740850E-1,1.306950092E0,1.594050050E0,-2.205000073E-2,2.061455871E0
1.805370790E-1,1.345050097E0,1.786050081E0,-2.910000086E-1,2.254731838E0
1.825002410E-1,1.345050097E0,1.939050078E0,-6.360000372E-1,2.444088995E0
1.844634830E-1,1.345050097E0,2.092950106E0,-9.810000658E-1,2.674315059E0
1.864267010E-1,1.345050097E0,2.284050226E0,-1.441050053E0,3.017063216E0
1.883895740E-1,1.345050097E0,2.437050104E0,-1.861950040E0,3.348914887E0
1.903525490E-1,1.345050097E0,2.551950216E0,-2.284050226E0,3.679469405E0
1.923156420E-1,1.345050097E0,2.629050016E0,-2.629050016E0,3.953854795E0
1.942787010E-1,1.384050012E0,2.821050167E0,-2.859000206E0,4.248270314E0
1.962417370E-1,1.422000051E0,2.821050167E0,-3.012000084E0,4.364922988E0
1.982047800E-1,1.537050128E0,2.821050167E0,-3.127050161E0,4.483223154E0
2.001676580E-1,1.614000082E0,2.859000206E0,-3.280050039E0,4.640862711E0
2.021306020E-1,1.729050040E0,2.859000206E0,-3.241950035E0,4.655506014E0
2.040937460E-1,1.804950118E0,2.821050167E0,-3.280050039E0,4.687739032E0
2.060568310E-1,1.959000111E0,2.743950129E0,-3.165000200E0,4.624302110E0
2.080199080E-1,2.188950062E0,2.706000090E0,-3.012000084E0,4.602834275E0
2.099829870E-1,2.341950178E0,2.590950012E0,-2.935050249E0,4.562046971E0
2.119458880E-1,2.533950090E0,2.514000177E0,-2.782050133E0,4.525583155E0
2.139088380E-1,2.649000168E0,2.437050104E0,-2.667000055E0,4.479877721E0
2.158715760E-1,2.878050089E0,2.322000027E0,-2.437050104E0,4.428777444E0
2.178343760E-1,2.992950201E0,2.208000183E0,-2.322000027E0,4.384598025E0
2.197976800E-1,3.262050152E0,2.131050110E0,-2.169000149E0,4.459473894E0
2.217608360E-1,3.492000103E0,1.978050113E0,-1.939050078E0,4.457203403E0
2.237238690E-1,3.645000219E0,1.900950074E0,-1.824000120E0,4.497400830E0
2.256869290E-1,3.913050175E0,1.594050050E0,-1.594050050E0,4.515966429E0
2.276498740E-1,4.182000160E0,1.402950048E0,-1.402050018E0,4.628513631E0
2.296128520E-1,4.488000393E0,1.057950020E0,-1.134000063E0,4.748406250E0
2.315761250E-1,4.756950378E0,6.360000372E-1,-8.269500136E-1,4.870001979E0
2.335393110E-1,5.101050377E0,6.105000153E-2,-5.209500194E-1,5.127946077E0
2.355032810E-1,5.254950047E0,-5.130000114E-1,-1.759500057E-1,5.282861668E0
2.374670140E-1,4.909950256E0,-1.203000069E0,-2.205000073E-2,5.055225701E0
2.394299340E-1,4.411950111E0,-1.701000094E0,1.500000060E-2,4.728523036E0
2.413930930E-1,3.874950171E0,-2.046000004E0,1.500000060E-2,4.381960730E0
2.433563350E-1,3.492000103E0,-2.391000032E0,5.295000225E-2,4.232463772E0
2.453195520E-1,2.992950201E0,-2.544000149E0,1.500000060E-2,3.928092751E0
2.472823050E-1,2.686950207E0,-2.697000027E0,-2.205000073E-2,3.807098207E0
2.492451840E-1,2.341950178E0,-2.773950100E0,-2.205000073E-2,3.630429175E0
2.512077090E-1,1.996950150E0,-2.773950100E0,-2.205000073E-2,3.418054309E0
2.531703370E-1,1.614000082E0,-2.812050104E0,-2.205000073E-2,3.242392366E0
2.551331300E-1,1.345050097E0,-2.812050104E0,9.195000678E-2,3.118531763E0
2.570958740E-1,1.153950095E0,-2.736000061E0,1.680000126E-1,2.974142088E0
2.590579440E-1,9.619500637E-1,-2.697000027E0,3.220500052E-1,2.881470679E0
2.610202320E-1,8.089500666E-1,-2.697000027E0,3.979500234E-1,2.843690134E0
2.629823180E-1,6.169500351E-1,-2.659050226E0,5.509500504E-1,2.784730042E0
2.649444630E-1,5.020500422E-1,-2.581950188E0,7.050000429E-1,2.723150028E0
2.669073390E-1,4.260000288E-1,-2.620950222E0,8.959500194E-1,2.802424402E0
2.688700000E-1,3.490500152E-1,-2.620950222E0,1.011000037E0,2.830783823E0
2.708330320E-1,2.719500065E-1,-2.581950188E0,1.126049995E0,2.829913810E0
2.727959420E-1,2.340000123E-1,-2.581950188E0,1.203000069E0,2.858046876E0
2.747588670E-1,1.570500135E-1,-2.581950188E0,1.356000066E0,2.920593717E0
2.767217880E-1,8.100000024E-2,-2.506050110E0,1.432950020E0,2.887939389E0
2.786847110E-1,4.050000105E-3,-2.467050076E0,1.471050024E0,2.872340622E0
2.806476340E-1,-7.200000435E-2,-2.467050076E0,1.510050058E0,2.893401330E0
2.826103380E-1,-1.870500147E-1,-2.391000032E0,1.548000097E0,2.854500510E0
2.845731030E-1,-1.480500102E-1,-2.275950193E0,1.624950051E0,2.800416176E0
2.865358720E-1,-2.250000089E-1,-2.161050081E0,1.624950051E0,2.713157778E0
2.884986390E-1,-3.400500119E-1,-2.083950043E0,1.663050056E0,2.687790408E0
2.904615890E-1,-4.170000255E-1,-1.969050050E0,1.548000097E0,2.539163528E0
2.924244850E-1,-4.930500090E-1,-1.930950046E0,1.510050058E0,2.500383484E0
2.943869270E-1,-5.320500135E-1,-1.777950048E0,1.510050058E0,2.392579104E0
2.963494960E-1,-5.320500135E-1,-1.738950133E0,1.471050024E0,2.339019657E0
2.983122990E-1,-4.930500090E-1,-1.701000094E0,1.471050024E0,2.302278829E0
3.002750330E-1,-5.320500135E-1,-1.585950017E0,1.432950020E0,2.202648504E0
3.022379890E-1,-5.320500135E-1,-1.509000063E0,1.432950020E0,2.147906927E0
3.042008790E-1,-4.930500090E-1,-1.471050024E0,1.356000066E0,2.060539411E0
3.061637450E-1,-4.930500090E-1,-1.356000066E0,1.395000100E0,2.006952857E0
3.081266310E-1,-4.930500090E-1,-1.279050112E0,1.356000066E0,1.928160698E0
3.100895590E-1,-3.780000210E-1,-1.164000034E0,1.432950020E0,1.884443115E0
3.120524750E-1,-3.780000210E-1,-1.048950076E0,1.471050024E0,1.845851687E0
3.140154440E-1,-3.019500077E-1,-8.959500194E-1,1.510050058E0,1.781614836E0
3.159783980E-1,-3.780000210E-1,-6.660000086E-1,1.471050024E0,1.658441497E0
3.179413070E-1,-4.549500346E-1,-5.509500504E-1,1.471050024E0,1.635394040E0
3.199042370E-1,-4.549500346E-1,-3.589500189E-1,1.510050058E0,1.617428771E0
3.218673380E-1,-4.930500090E-1,-2.059500068E-1,1.510050058E0,1.601800517E0
3.238303880E-1,-5.700000525E-1,-1.290000081E-1,1.471050024E0,1.582886362E0
3.257927500E-1,-5.700000525E-1,-9.105000645E-2,1.432950020E0,1.544841714E0
3.277553140E-1,-6.079500318E-1,-1.500000060E-2,1.240950108E0,1.381949858E0
3.297181040E-1,-7.230000496E-1,1.759500057E-1,1.011000037E0,1.255312133E0
3.316808370E-1,-7.999500632E-1,3.679500222E-1,7.429500222E-1,1.152077280E0
3.336448740E-1,-7.999500632E-1,4.830000103E-1,4.360500276E-1,1.031188024E0
3.356085290E-1,-7.999500632E-1,7.129500508E-1,1.300500035E-1,1.079412285E0
3.375712830E-1,-7.620000243E-1,7.510500550E-1,-2.205000073E-2,1.070143180E0
3.395343010E-1,-7.999500632E-1,9.040500522E-1,-2.520000041E-1,1.233179063E0
3.414974170E-1,-6.850500107E-1,9.810000658E-1,-4.819500148E-1,1.289934286E0
3.434605140E-1,-6.850500107E-1,1.057950020E0,-7.510500550E-1,1.467183679E0
3.454235440E-1,-5.700000525E-1,1.134000063E0,-9.040500522E-1,1.558256301E0
3.473865930E-1,-4.930500090E-1,1.173000097E0,-1.096050024E0,1.679390721E0
3.493493140E-1,-3.400500119E-1,1.173000097E0,-1.287000060E0,1.774241357E0
3.513121320E-1,-2.629500031E-1,1.210950017E0,-1.402050018E0,1.871172601E0
3.532749240E-1,-1.480500102E-1,1.210950017E0,-1.326000094E0,1.801831013E0
3.552377330E-1,-7.200000435E-2,1.288050056E0,-1.249050021E0,1.795656677E0
3.572004510E-1,4.050000105E-3,1.363950014E0,-1.096050024E0,1.749771899E0
3.591631950E-1,8.100000024E-2,1.363950014E0,-7.890000343E-1,1.577796468E0
3.611260120E-1,1.570500135E-1,1.326000094E0,-4.060500264E-1,1.395642354E0
3.630888080E-1,2.340000123E-1,1.249050021E0,5.295000225E-2,1.271882724E0
3.650506320E-1,1.960500032E-1,1.210950017E0,6.280500293E-1,1.378144545E0
3.670127380E-1,1.960500032E-1,1.134000063E0,1.203000069E0,1.664812576E0
3.689758000E-1,1.960500032E-1,1.096050024E0,1.548000097E0,1.906847021E0
3.709385820E-1,1.570500135E-1,1.057950020E0,1.930950046E0,2.207371974E0
3.729013500E-1,1.570500135E-1,1.096050024E0,2.314950228E0,2.566122546E0
3.748641230E-1,1.189500093E-1,1.057950020E0,2.620950222E0,2.828919832E0
3.768268710E-1,1.960500032E-1,9.430500269E-1,2.736000061E0,2.900599126E0
3.787896410E-1,2.719500065E-1,8.280000687E-1,2.851050138E0,2.981279559E0
3.807522300E-1,3.870000243E-1,7.890000343E-1,2.812950134E0,2.947028763E0
3.827148720E-1,4.260000288E-1,7.129500508E-1,2.812950134E0,2.932995441E0
3.846778870E-1,3.870000243E-1,6.739500165E-1,2.812950134E0,2.918332761E0
3.866407930E-1,4.260000288E-1,5.209500194E-1,2.812950134E0,2.892326642E0
3.886042110E-1,6.169500351E-1,4.060500264E-1,2.773950100E0,2.870592818E0
3.905674810E-1,7.320000529E-1,2.910000086E-1,2.698050022E0,2.810690130E0
3.925302110E-1,1.077000022E0,2.140500098E-1,2.467950106E0,2.701207911E0
3.944930990E-1,1.269000053E0,6.105000153E-2,2.200050116E0,2.540533162E0
3.964565680E-1,1.498950124E0,-5.295000225E-2,1.855050087E0,2.385553605E0
3.984198660E-1,1.729050040E0,-1.680000126E-1,1.548000097E0,2.326830967E0
4.003826810E-1,2.035050154E0,-3.210000098E-1,1.279950023E0,2.425436496E0
4.023456370E-1,2.188950062E0,-6.280500293E-1,1.011000037E0,2.491599945E0
4.043084200E-1,2.341950178E0,-1.048950076E0,7.429500222E-1,2.671516729E0
4.062712530E-1,2.494950056E0,-1.393950105E0,5.899500251E-1,2.918203850E0
4.082343260E-1,2.572050095E0,-1.663050056E0,5.130000114E-1,3.105534767E0
4.101973280E-1,2.610000134E0,-2.046000004E0,4.360500276E-1,3.344900049E0
4.121598780E-1,2.649000168E0,-2.391000032E0,6.280500293E-1,3.623331324E0
4.141225600E-1,2.802000046E0,-2.659050226E0,7.429500222E-1,3.933665860E0
4.160853890E-1,2.955000162E0,-2.926950216E0,6.660000086E-1,4.212198896E0
4.180481740E-1,3.070050240E0,-3.310950041E0,6.280500293E-1,4.558732882E0
4.200121570E-1,3.262050152E0,-3.616950274E0,4.360500276E-1,4.890137023E0
4.219757890E-1,3.300000191E0,-4.039050102E0,1.300500035E-1,5.217359485E0
4.239385950E-1,3.529950142E0,-4.651950359E0,-4.819500148E-1,5.859476595E0
4.259016410E-1,3.721950293E0,-5.572050095E0,-1.402050018E0,6.845903921E0
4.278641830E-1,3.837000132E0,-6.721950531E0,-2.629050016E0,8.174294645E0
4.298268720E-1,3.682950258E0,-8.293050766E0,-3.778950214E0,9.829510585E0
4.317900600E-1,3.529950142E0,-1.017105007E1,-4.545000076E0,1.168622408E1
4.337531010E-1,3.184950113E0,-1.220295048E1,-5.082000256E0,1.359715537E1
4.357163300E-1,2.725050211E0,-1.446405029E1,-5.119950294E0,1.558359845E1
4.376794960E-1,2.304000139E0,-1.668704987E1,-4.736999989E0,1.749872049E1
4.396424230E-1,1.804950118E0,-1.879500008E1,-4.009050369E0,1.930239254E1
4.416054210E-1,1.345050097E0,-2.086500168E1,-2.820000172E0,2.109762678E1
4.435681510E-1,1.230000019E0,-2.308800125E1,-1.555950046E0,2.317303783E1
4.455309590E-1,1.269000053E0,-2.523405075E1,-2.140500098E-1,2.526684578E1
4.474930200E-1,1.269000053E0,-2.749500084E1,1.240950108E0,2.755223021E1
4.494552860E-1,1.575000048E0,-2.979495049E1,2.046000004E0,2.990661826E1
4.514184560E-1,2.149950027E0,-3.190305138E1,2.467950106E0,3.207051216E1
4.533813610E-1,2.764050245E0,-3.420300293E1,2.467950106E0,3.440314173E1
4.553442870E-1,3.453000069E0,-3.631095123E1,1.893000126E0,3.652385301E1
4.573072070E-1,4.143000126E0,-3.834195328E1,1.240950108E0,3.858509801E1
4.592705500E-1,4.603050232E0,-4.021995163E1,3.600000143E-1,4.048409787E1
4.612337590E-1,5.101050377E0,-4.190700150E1,-9.040500522E-1,4.222599668E1
4.631962740E-1,5.523000240E0,-4.324800110E1,-2.359950066E0,4.366305641E1
4.651589920E-1,5.485050201E0,-4.420605087E1,-3.778950214E0,4.470504641E1
4.671219040E-1,5.446050167E0,-4.485795212E1,-5.158050060E0,4.548077408E1
4.690847590E-1,5.599950314E0,-4.520295334E1,-5.962950230E0,4.593716588E1
4.710475650E-1,5.676000118E0,-4.501095200E1,-6.193050385E0,4.578817151E1
4.730103820E-1,5.868000507E0,-4.432095337E1,-6.270000458E0,4.514524608E1
4.749731430E-1,5.905950069E0,-4.271100235E1,-5.925000191E0,4.352258718E1
4.769359200E-1,6.060000420E0,-4.060305023E1,-5.235000134E0,4.138522103E1
4.788984630E-1,6.136050224E0,-3.822705078E1,-4.582950115E0,3.898668947E1
4.808610740E-1,6.250950336E0,-3.569700241E1,-3.739950180E0,3.643264455E1
4.828235550E-1,6.366000175E0,-3.347400284E1,-2.820000172E0,3.419045518E1
4.847860740E-1,6.136050224E0,-3.151995087E1,-1.977000117E0,3.217245630E1
4.867486600E-1,5.752950191E0,-2.975700188E1,-1.018950105E0,3.032513571E1
4.887112260E-1,5.370000362E0,-2.837700081E1,-2.910000086E-1,2.888210103E1
4.906731750E-1,4.833000183E0,-2.726505089E1,2.070000172E-1,2.769086022E1
4.926353050E-1,4.297049999E0,-2.646105194E1,5.899500251E-1,2.681417441E1
4.945988300E-1,3.682950258E0,-2.603895187E1,5.130000114E-1,2.630312351E1
4.965619660E-1,3.184950113E0,-2.577105141E1,1.300500035E-1,2.596743944E1
4.985245380E-1,2.649000168E0,-2.577105141E1,-4.060500264E-1,2.591002063E1
5.004872760E-1,2.265000105E0,-2.603895187E1,-1.134000063E0,2.616186531E1
5.024500490E-1,2.111999989E0,-2.669100189E1,-1.747050047E0,2.683136802E1
5.044128120E-1,2.149950027E0,-2.745705223E1,-1.977000117E0,2.761196356E1
5.063759430E-1,2.265000105E0,-2.833905220E1,-2.014950037E0,2.850073909E1
5.083389660E-1,2.494950056E0,-2.902800179E1,-1.977000117E0,2.920202378E1
5.103016930E-1,2.610000134E0,-2.964195061E1,-1.747050047E0,2.980787682E1
5.122645070E-1,2.764050245E0,-3.006300163E1,-1.516950130E0,3.022788743E1
5.142272680E-1,2.802000046E0,-3.033195114E1,-1.210950017E0,3.048515810E1
5.161900450E-1,2.992950201E0,-3.056205177E1,-7.890000343E-1,3.071838669E1
5.181528280E-1,3.262050152E0,-3.056205177E1,-4.440000355E-1,3.073885352E1
5.201155990E-1,3.453000069E0,-3.048495102E1,-1.369500011E-1,3.068019236E1
5.220783680E-1,3.645000219E0,-3.017805099E1,-2.205000073E-2,3.039738927E1
5.240411370E-1,3.798000097E0,-2.968005180E1,-2.205000073E-2,2.992207824E1
5.260042210E-1,3.913050175E0,-2.910495186E1,-1.759500057E-1,2.936734824E1
5.279672120E-1,3.913050175E0,-2.853000069E1,-3.289500177E-1,2.879897757E1
5.299298230E-1,3.990000248E0,-2.784000206E1,-5.590500236E-1,2.813002584E1
5.318925360E-1,3.952050209E0,-2.711205101E1,-6.739500165E-1,2.740686446E1
5.338556740E-1,3.952050209E0,-2.649900055E1,-8.269500136E-1,2.680484242E1
5.358186880E-1,3.874950171E0,-2.588595200E1,-9.420000315E-1,2.619131752E1
5.377815960E-1,3.760050297E0,-2.534895134E1,-9.810000658E-1,2.564507113E1
5.397445360E-1,3.721950293E0,-2.485095024E1,-9.810000658E-1,2.514726631E1
5.417072950E-1,3.607050180E0,-2.446800041E1,-8.659500480E-1,2.474760038E1
5.436700930E-1,3.645000219E0,-2.412300110E1,-7.890000343E-1,2.440958274E1
5.456331720E-1,3.645000219E0,-2.381595039E1,-5.970000029E-1,2.410066241E1
5.475961680E-1,3.645000219E0,-2.366295052E1,-4.060500264E-1,2.394548246E1
5.495589450E-1,3.645000219E0,-2.343300056E1,-2.520000041E-1,2.371613472E1
5.515217860E-1,3.682950258E0,-2.327895164E1,-1.759500057E-1,2.356914658E1
5.534848330E-1,3.568050146E0,-2.312595177E1,1.500000060E-2,2.339959085E1
5.554478370E-1,3.568050146E0,-2.297295189E1,9.195000678E-2,2.324856888E1
5.574105670E-1,3.529950142E0,-2.285805130E1,1.680000126E-1,2.312961913E1
5.593733770E-1,3.453000069E0,-2.262795067E1,1.680000126E-1,2.289051299E1
5.613359590E-1,3.300000191E0,-2.243595123E1,1.680000126E-1,2.267796580E1
5.632986080E-1,3.070050240E0,-2.212995148E1,2.070000172E-1,2.234284695E1
5.652612610E-1,2.955000162E0,-2.182305145E1,2.070000172E-1,2.202317983E1
5.672239130E-1,2.839950085E0,-2.151600075E1,2.449500114E-1,2.170399975E1
5.691862980E-1,2.802000046E0,-2.121000099E1,3.600000143E-1,2.139731166E1
5.711487620E-1,2.725050211E0,-2.082600021E1,4.360500276E-1,2.100805377E1
5.731117630E-1,2.649000168E0,-2.044305038E1,4.750500321E-1,2.061943703E1
5.750746060E-1,2.533950090E0,-2.005995178E1,5.130000114E-1,2.022586803E1
5.770370030E-1,2.457000017E0,-1.960005188E1,5.130000114E-1,1.976011265E1
5.789995310E-1,2.457000017E0,-1.914000130E1,5.509500504E-1,1.930492281E1
5.809623400E-1,2.494950056E0,-1.867995071E1,7.429500222E-1,1.886046949E1
5.829250670E-1,2.419050217E0,-1.810500145E1,7.429500222E-1,1.828099713E1
5.848882490E-1,2.457000017E0,-1.764495087E1,7.810500264E-1,1.783230718E1
5.868512980E-1,2.533950090E0,-1.707000160E1,8.580000401E-1,1.727836861E1
5.888141550E-1,2.572050095E0,-1.660995102E1,8.959500194E-1,1.683177474E1
5.907770690E-1,2.533950090E0,-1.603499985E1,8.580000401E-1,1.625663825E1
5.927396780E-1,2.610000134E0,-1.546095085E1,8.200500607E-1,1.570113321E1
5.947023770E-1,2.572050095E0,-1.484700108E1,7.429500222E-1,1.508644615E1
5.966652920E-1,2.649000168E0,-1.431105042E1,7.429500222E-1,1.457310333E1
5.986281440E-1,2.494950056E0,-1.369695091E1,7.810500264E-1,1.394422028E1
6.005909410E-1,2.419050217E0,-1.312305069E1,5.130000114E-1,1.335400436E1
6.025537570E-1,2.419050217E0,-1.258605099E1,3.220500052E-1,1.282046019E1
6.045173730E-1,2.341950178E0,-1.212600040E1,1.680000126E-1,1.235122830E1
6.064807550E-1,2.419050217E0,-1.178100014E1,1.300500035E-1,1.202749688E1
6.084434200E-1,2.341950178E0,-1.132095051E1,1.300500035E-1,1.156138245E1
6.104062950E-1,2.111999989E0,-1.078500080E1,9.195000678E-2,1.099023389E1
6.123692510E-1,2.074050188E0,-1.032495022E1,-6.105000153E-2,1.053138207E1
6.143321970E-1,2.188950062E0,-9.903000832E0,-2.520000041E-1,1.014516791E1
6.162949370E-1,2.227050066E0,-9.366000175E0,-2.910000086E-1,9.631531150E0
6.182577380E-1,2.188950062E0,-8.791950226E0,-3.289500177E-1,9.066316742E0
6.202206810E-1,2.227050066E0,-8.293050766E0,-4.060500264E-1,8.596471347E0
6.221835820E-1,2.149950027E0,-7.756950378E0,-4.060500264E-1,8.059617914E0
6.241466390E-1,2.035050154E0,-7.219950199E0,-4.440000355E-1,7.514402574E0
6.261096540E-1,1.843950033E0,-6.721950531E0,-6.360000372E-1,6.999233295E0
6.280726070E-1,1.690050125E0,-6.262050152E0,-6.739500165E-1,6.521023704E0
6.300355790E-1,1.459950089E0,-5.802000046E0,-7.510500550E-1,6.029820477E0
6.319986280E-1,1.459950089E0,-5.419050217E0,-5.970000029E-1,5.643932009E0
6.339616540E-1,1.422000051E0,-5.035050392E0,-4.060500264E-1,5.247732198E0
6.359247260E-1,1.459950089E0,-4.690050125E0,-1.369500011E-1,4.913937295E0
6.378877940E-1,1.498950124E0,-4.269000053E0,5.295000225E-2,4.524822276E0
6.398499720E-1,1.459950089E0,-3.771000147E0,2.830500007E-1,4.053642026E0
6.418124110E-1,1.422000051E0,-3.502050161E0,4.750500321E-1,3.809476606E0
6.437754160E-1,1.422000051E0,-3.118950129E0,8.200500607E-1,3.524544815E0
6.457382550E-1,1.345050097E0,-2.851050138E0,8.959500194E-1,3.277250844E0
6.477011870E-1,1.384050012E0,-2.697000027E0,1.203000069E0,3.261382030E0
6.496640960E-1,1.422000051E0,-2.581950188E0,1.395000100E0,3.261069793E0
6.516272470E-1,1.422000051E0,-2.428950071E0,1.432950020E0,3.158358490E0
6.535903270E-1,1.498950124E0,-2.275950193E0,1.471050024E0,3.096899890E0
6.555534050E-1,1.614000082E0,-2.083950043E0,1.510050058E0,3.037778008E0
6.575164830E-1,1.804950118E0,-1.930950046E0,1.548000097E0,3.063122150E0
6.594796890E-1,2.074050188E0,-1.701000094E0,1.548000097E0,3.096996901E0
6.614428610E-1,2.149950027E0,-1.471050024E0,1.548000097E0,3.030276818E0
6.634055620E-1,2.380050182E0,-1.240950108E0,1.510050058E0,3.079747915E0
6.653684010E-1,2.419050217E0,-9.730500579E-1,1.510050058E0,3.013118243E0
6.673315180E-1,2.494950056E0,-7.429500222E-1,1.510050058E0,3.009485288E0
6.692945530E-1,2.649000168E0,-4.360500276E-1,1.471050024E0,3.061262761E0
6.712571030E-1,2.610000134E0,-2.059500068E-1,1.432950020E0,2.984604138E0
6.732197910E-1,2.649000168E0,-9.105000645E-2,1.318050027E0,2.960193890E0
6.751820330E-1,2.649000168E0,1.380000114E-1,1.203000069E0,2.912637131E0
6.771444060E-1,2.572050095E0,3.679500222E-1,1.087950110E0,2.816818125E0
6.791076030E-1,2.457000017E0,5.980500579E-1,8.959500194E-1,2.682767115E0
6.810705580E-1,2.419050217E0,8.280000687E-1,7.429500222E-1,2.662585736E0
6.830335060E-1,2.304000139E0,1.018950105E0,6.280500293E-1,2.596367231E0
6.849964350E-1,2.304000139E0,1.210950017E0,5.130000114E-1,2.652920202E0
6.869602570E-1,2.265000105E0,1.210950017E0,2.449500114E-1,2.580043784E0
6.889238180E-1,2.188950062E0,1.402950048E0,1.500000060E-2,2.599999271E0
6.908866780E-1,2.111999989E0,1.518000126E0,-1.369500011E-1,2.604539045E0
6.928497430E-1,2.035050154E0,1.594050050E0,-3.670500219E-1,2.610967332E0
6.948127860E-1,1.920000076E0,1.671000123E0,-5.209500194E-1,2.598082105E0
6.967758290E-1,1.843950033E0,1.747950077E0,-6.739500165E-1,2.628628886E0
6.987389110E-1,1.804950118E0,1.824000120E0,-8.269500136E-1,2.696046678E0
7.007019810E-1,1.767000079E0,1.863000035E0,-9.810000658E-1,2.748712342E0
7.026650590E-1,1.767000079E0,1.939050078E0,-1.096050024E0,2.843154963E0
7.046281350E-1,1.767000079E0,2.016000032E0,-1.171950102E0,2.925749896E0
7.065910280E-1,1.651950121E0,1.978050113E0,-1.249050021E0,2.863869307E0
7.085539780E-1,1.690050125E0,2.053950071E0,-1.363950014E0,2.989203901E0
7.105170760E-1,1.729050040E0,2.053950071E0,-1.402050018E0,3.028872594E0
7.124801300E-1,1.729050040E0,2.016000032E0,-1.516950130E0,3.058595735E0
7.144432560E-1,1.729050040E0,2.053950071E0,-1.632000089E0,3.141933995E0
7.164063600E-1,1.843950033E0,2.053950071E0,-1.671000123E0,3.226624247E0
7.183694190E-1,1.920000076E0,2.053950071E0,-1.747050047E0,3.310180517E0
7.203325020E-1,1.920000076E0,2.092950106E0,-1.786050081E0,3.355117782E0
7.222955780E-1,1.920000076E0,2.092950106E0,-1.824000120E0,3.375472837E0
7.242586560E-1,1.996950150E0,2.092950106E0,-1.824000120E0,3.419828429E0
7.262220470E-1,2.035050154E0,2.092950106E0,-1.786050081E0,3.422257174E0
7.281853460E-1,2.111999989E0,2.053950071E0,-1.861950040E0,3.485127372E0
7.301487910E-1,2.188950062E0,2.053950071E0,-2.053950071E0,3.637158804E0
7.321121930E-1,2.304000139E0,1.978050113E0,-2.092050076E0,3.687515750E0
7.340757100E-1,2.380050182E0,1.863000035E0,-2.014950037E0,3.632551673E0
7.360391930E-1,2.419050217E0,1.863000035E0,-2.014950037E0,3.658223166E0
7.380022460E-1,2.533950090E0,1.747950077E0,-1.900950074E0,3.617988905E0
7.399654250E-1,2.610000134E0,1.633050084E0,-1.824000120E0,3.578537371E0
7.419286400E-1,2.725050211E0,1.555950046E0,-1.671000123E0,3.555154091E0
7.438918610E-1,2.839950085E0,1.363950014E0,-1.594050050E0,3.530817425E0
7.458549140E-1,2.878050089E0,1.210950017E0,-1.402050018E0,3.422764455E0
7.478180170E-1,2.992950201E0,1.018950105E0,-1.249050021E0,3.399431743E0
7.497809090E-1,3.070050240E0,7.129500508E-1,-1.057050109E0,3.324283559E0
7.517438630E-1,3.223050117E0,2.910000086E-1,-8.659500480E-1,3.350015306E0
7.537078750E-1,3.184950113E0,-1.290000081E-1,-7.120500207E-1,3.266123613E0
7.556715670E-1,3.070050240E0,-4.740000367E-1,-4.440000355E-1,3.137996262E0
7.576349000E-1,2.764050245E0,-8.190000653E-1,-2.910000086E-1,2.897484404E0
7.595983380E-1,2.457000017E0,-1.279050112E0,-9.900000691E-2,2.771753826E0
7.615604520E-1,2.227050066E0,-1.509000063E0,9.195000678E-2,2.691707263E0
7.635229540E-1,1.959000111E0,-1.585950017E0,2.830500007E-1,2.536343075E0
7.654862640E-1,1.690050125E0,-1.816050053E0,4.750500321E-1,2.525862180E0
7.674493370E-1,1.575000048E0,-1.930950046E0,6.280500293E-1,2.569754865E0
7.694122350E-1,1.422000051E0,-2.046000004E0,7.050000429E-1,2.589444964E0
7.713751850E-1,1.306950092E0,-2.083950043E0,7.810500264E-1,2.580892378E0
7.733384630E-1,1.230000019E0,-2.122950077E0,7.429500222E-1,2.563550626E0
7.753016440E-1,1.077000022E0,-2.161050081E0,7.810500264E-1,2.537736323E0
7.772647040E-1,8.850000501E-1,-2.122950077E0,7.810500264E-1,2.429028872E0
7.792278000E-1,8.089500666E-1,-2.083950043E0,7.429500222E-1,2.355678825E0
7.811899720E-1,5.790000558E-1,-2.008050203E0,7.050000429E-1,2.205568349E0
7.831524150E-1,5.020500422E-1,-1.930950046E0,6.280500293E-1,2.091666599E0
7.851156000E-1,3.109500110E-1,-1.893000126E0,5.509500504E-1,1.995917169E0
7.870785670E-1,1.960500032E-1,-1.816050053E0,5.130000114E-1,1.897272360E0
7.890414700E-1,1.570500135E-1,-1.777950048E0,4.750500321E-1,1.847009370E0
7.910044010E-1,4.050000105E-3,-1.701000094E0,3.979500234E-1,1.746935014E0
7.929680430E-1,-7.200000435E-2,-1.663050056E0,3.979500234E-1,1.711515033E0
7.949314760E-1,-1.480500102E-1,-1.585950017E0,3.220500052E-1,1.625076142E0
7.968943580E-1,-2.629500031E-1,-1.471050024E0,2.830500007E-1,1.520936613E0
7.988574020E-1,-3.400500119E-1,-1.432950020E0,2.830500007E-1,1.499698994E0
8.008201480E-1,-3.780000210E-1,-1.393950105E0,2.830500007E-1,1.471767038E0
8.027829640E-1,-4.549500346E-1,-1.279050112E0,2.449500114E-1,1.379474259E0
8.047460400E-1,-5.320500135E-1,-1.203000069E0,2.449500114E-1,1.338016028E0
8.067090390E-1,-6.079500318E-1,-1.126049995E0,2.070000172E-1,1.296318186E0
8.086721290E-1,-6.850500107E-1,-1.087950110E0,2.070000172E-1,1.302220399E0
8.106351930E-1,-7.620000243E-1,-9.340500236E-1,2.070000172E-1,1.223087278E0
8.125982510E-1,-8.770500422E-1,-9.340500236E-1,1.680000126E-1,1.292242325E0
8.145613260E-1,-9.150000215E-1,-8.580000401E-1,1.300500035E-1,1.261071811E0
8.165245830E-1,-1.030050039E0,-7.429500222E-1,1.500000060E-2,1.270119214E0
8.184877870E-1,-1.068000078E0,-7.039500475E-1,-2.205000073E-2,1.279318584E0
8.204507080E-1,-1.106999993E0,-5.890500546E-1,-6.105000153E-2,1.255450539E0
8.224137120E-1,-1.144950032E0,-4.740000367E-1,-1.369500011E-1,1.246732495E0
8.243767550E-1,-1.260000110E0,-3.979500234E-1,-2.520000041E-1,1.345164860E0
8.263397870E-1,-1.336950064E0,-3.589500189E-1,-3.289500177E-1,1.422845284E0
8.283025580E-1,-1.413000107E0,-2.440500110E-1,-3.670500219E-1,1.480153853E0
8.302654050E-1,-1.452000022E0,-2.059500068E-1,-4.819500148E-1,1.543695335E0
8.322281610E-1,-1.489950061E0,-1.680000126E-1,-5.970000029E-1,1.613872421E0
8.341909430E-1,-1.489950061E0,-1.290000081E-1,-7.120500207E-1,1.656383838E0
8.361537010E-1,-1.452000022E0,-1.290000081E-1,-7.120500207E-1,1.622331747E0
8.381164730E-1,-1.144950032E0,-1.290000081E-1,-6.739500165E-1,1.334825907E0
8.400785200E-1,-1.106999993E0,-1.290000081E-1,-6.739500165E-1,1.302420290E0
8.420407800E-1,-9.529500604E-1,-1.500000060E-2,-6.360000372E-1,1.145790061E0
8.440041310E-1,-9.150000215E-1,2.295000106E-2,-5.970000029E-1,1.092776622E0
8.459671630E-1,-7.999500632E-1,1.380000114E-1,-4.440000355E-1,9.252567959E-1
8.479300580E-1,-6.850500107E-1,2.140500098E-1,-4.440000355E-1,8.439472468E-1
8.498930010E-1,-5.320500135E-1,2.530499995E-1,-4.060500264E-1,7.155334675E-1
8.518557400E-1,-4.170000255E-1,2.910000086E-1,-2.520000041E-1,5.675156635E-1
8.538185390E-1,-2.629500031E-1,3.289500177E-1,-1.369500011E-1,4.428387078E-1
8.557815280E-1,-1.099500060E-1,3.679500222E-1,-9.900000691E-2,3.965819260E-1
8.577444610E-1,-3.299999982E-2,4.440000355E-1,-2.205000073E-2,4.457703827E-1
8.597073480E-1,8.100000024E-2,4.830000103E-1,1.500000060E-2,4.899744993E-1
8.616702420E-1,1.570500135E-1,4.830000103E-1,1.680000126E-1,5.349558121E-1
8.636324940E-1,1.960500032E-1,4.830000103E-1,2.449500114E-1,5.759558331E-1
8.655949340E-1,1.960500032E-1,4.830000103E-1,3.220500052E-1,6.127322576E-1
8.675581190E-1,1.570500135E-1,4.440000355E-1,6.660000086E-1,8.156940295E-1
8.695210860E-1,1.570500135E-1,4.440000355E-1,9.730500579E-1,1.081030598E0
8.714839880E-1,8.100000024E-2,3.289500177E-1,1.203000069E0,1.249791294E0
8.734469190E-1,4.200000316E-2,2.530499995E-1,1.471050024E0,1.493246957E0
8.754096610E-1,4.050000105E-3,2.140500098E-1,1.663050056E0,1.676773478E0
8.773724580E-1,-3.299999982E-2,1.380000114E-1,1.930950046E0,1.936156265E0
8.793361230E-1,-3.299999982E-2,-1.500000060E-2,2.200050116E0,2.200348725E0
8.812995330E-1,-3.299999982E-2,-1.290000081E-1,2.391000032E0,2.394704816E0
8.832617930E-1,-3.299999982E-2,-1.680000126E-1,2.698050022E0,2.703476822E0
8.852243860E-1,4.200000316E-2,-2.830500007E-1,2.965950251E0,2.979721831E0
8.871873650E-1,4.050000105E-3,-4.360500276E-1,3.273000240E0,3.301921653E0
8.891502300E-1,4.200000316E-2,-5.509500504E-1,3.463950157E0,3.507742957E0
8.911130290E-1,4.200000316E-2,-6.660000086E-1,3.655950069E0,3.716354520E0
8.930758470E-1,1.960500032E-1,-8.190000653E-1,3.733050108E0,3.826860308E0
8.950390930E-1,3.870000243E-1,-9.340500236E-1,3.808950186E0,3.940852697E0
8.970022200E-1,5.790000558E-1,-1.011000037E0,3.733050108E0,3.910629776E0
8.989647940E-1,8.089500666E-1,-1.164000034E0,3.541050196E0,3.814227678E0
9.009275300E-1,8.850000501E-1,-1.240950108E0,3.349050045E0,3.679581289E0
9.028901240E-1,8.850000501E-1,-1.203000069E0,3.196050167E0,3.527771382E0
9.048527600E-1,8.470500112E-1,-1.240950108E0,3.043050051E0,3.393759641E0
9.068155660E-1,8.850000501E-1,-1.240950108E0,2.928000212E0,3.300964631E0
9.087783120E-1,1.039050102E0,-1.240950108E0,2.698050022E0,3.146276562E0
9.107409060E-1,1.077000022E0,-1.203000069E0,2.545050144E0,3.014036902E0
9.127035450E-1,1.230000019E0,-1.203000069E0,2.353049994E0,2.914953427E0
9.146661560E-1,1.306950092E0,-1.203000069E0,1.969950080E0,2.652551795E0
9.166287750E-1,1.306950092E0,-1.279050112E0,1.701000094E0,2.497496557E0
9.185913300E-1,1.345050097E0,-1.318050027E0,1.548000097E0,2.437769459E0
9.205539140E-1,1.384050012E0,-1.318050027E0,1.395000100E0,2.366194326E0
9.225168940E-1,1.537050128E0,-1.432950020E0,1.087950110E0,2.366327175E0
9.244797580E-1,1.651950121E0,-1.471050024E0,7.810500264E-1,2.345840259E0
9.264429170E-1,1.729050040E0,-1.624050021E0,4.360500276E-1,2.411906329E0
9.284059890E-1,1.843950033E0,-1.777950048E0,1.500000060E-2,2.561539205E0
9.303685060E-1,1.920000076E0,-2.008050203E0,-4.819500148E-1,2.819741429E0
9.323311690E-1,2.149950027E0,-2.199000120E0,-9.040500522E-1,3.205494212E0
9.342938210E-1,2.227050066E0,-2.506050110E0,-1.402050018E0,3.633976252E0
9.362564770E-1,2.265000105E0,-2.889000177E0,-2.092050076E0,4.225307210E0
9.382195800E-1,2.265000105E0,-3.349050045E0,-2.859000206E0,4.951791984E0
9.401825520E-1,2.380050182E0,-4.000950336E0,-3.931950092E0,6.093642096E0
9.421454540E-1,2.419050217E0,-4.729050159E0,-5.119950294E0,7.377642603E0
9.441083860E-1,2.265000105E0,-5.686950207E0,-6.423000336E0,8.872798963E0
9.460713070E-1,2.074050188E0,-6.990000248E0,-7.687950134E0,1.059558233E1
9.480342320E-1,1.384050012E0,-8.562000275E0,-8.683950424E0,1.227332221E1
9.499962990E-1,6.169500351E-1,-1.024800014E1,-9.336000443E0,1.387670849E1
9.519586170E-1,-4.170000255E-1,-1.224105072E1,-9.412950516E0,1.544735735E1
9.539218040E-1,-1.260000110E0,-1.434900093E1,-8.991000175E0,1.697997386E1
9.558847500E-1,-2.026050091E0,-1.641900063E1,-8.185950279E0,1.845801296E1
9.578473090E-1,-2.755050182E0,-1.837305069E1,-7.036050320E0,1.986618477E1
9.598099820E-1,-3.330000162E0,-2.009805107E1,-5.772000313E0,2.117395914E1
9.617727670E-1,-3.636000156E0,-2.182305145E1,-4.353000164E0,2.254805274E1
9.637355190E-1,-3.790050268E0,-2.366295052E1,-2.896950245E0,2.413901466E1
9.656981070E-1,-3.828000069E0,-2.573205185E1,-1.326000094E0,2.604899908E1
9.676607470E-1,-3.712950230E0,-2.780205154E1,1.500000060E-2,2.804889115E1
9.696227720E-1,-3.598050117E0,-2.991000175E1,1.279950023E0,3.015281814E1
9.715849770E-1,-3.214950085E0,-3.205605316E1,2.275950193E0,3.229715773E1
9.735480220E-1,-2.677950144E0,-3.420300293E1,2.965950251E0,3.443564559E1
9.755108210E-1,-2.332950115E0,-3.619605255E1,3.349050045E0,3.642544458E1
9.774736500E-1,-1.950000048E0,-3.818895340E1,3.502950191E0,3.839881928E1
9.794364560E-1,-1.758000135E0,-3.983700180E1,3.196050167E0,4.000365000E1
9.813993990E-1,-1.452000022E0,-4.163805008E1,2.889000177E0,4.176340312E1
9.833623020E-1,-1.068000078E0,-4.340100098E1,3.004050255E0,4.351794834E1
9.853259500E-1,-1.870500147E-1,-4.489605331E1,3.426000118E0,4.502697045E1
9.872893790E-1,1.000050068E0,-4.612305069E1,3.924000263E0,4.630047174E1
9.892518010E-1,2.188950062E0,-4.673595047E1,4.384050369E0,4.699213196E1
9.912145250E-1,4.143000126E0,-4.719600296E1,4.653000355E0,4.760543622E1
9.931771670E-1,6.175050259E0,-4.761705399E1,4.653000355E0,4.824070365E1
9.951398330E-1,8.167950630E0,-4.792395401E1,4.308000088E0,4.880552889E1
9.971026190E-1,9.969000816E0,-4.823100281E1,3.541050196E0,4.937762292E1
9.990653690E-1,1.203900051E1,-4.857600403E1,2.391000032E0,5.010272030E1
1.001028822E0,1.410795021E1,-4.884405136E1,1.011000037E0,5.085073975E1
1.002992066E0,1.602495003E1,-4.899705124E1,-7.510500550E-1,5.155651394E1
1.004954620E0,1.790295029E1,-4.876695251E1,-2.284050226E0,5.199950165E1
1.006917376E0,1.962795067E1,-4.846095276E1,-4.009050369E0,5.243846751E1
1.008880281E0,2.077695084E1,-4.788600159E1,-5.962950230E0,5.253862969E1
1.010843143E0,2.066205025E1,-4.662105179E1,-8.263050079E0,5.165966305E1
1.012805772E0,1.924395180E1,-4.451295090E1,-1.048605061E1,4.961541833E1
1.014768463E0,1.732800102E1,-4.175295258E1,-1.190400028E1,4.674691317E1
1.016731380E0,1.533495045E1,-3.891705322E1,-1.213395023E1,4.355376545E1
1.018694230E0,1.280505085E1,-3.592695236E1,-1.198095036E1,3.997822413E1
1.020656987E0,9.586050034E0,-3.286095047E1,-1.117605019E1,3.600886722E1
1.022619771E0,6.366000175E0,-3.013995171E1,-9.718950272E0,3.230171267E1
1.024582712E0,3.529950142E0,-2.791695213E1,-7.918050289E0,2.923204209E1
1.026545610E0,1.192050099E0,-2.615400124E1,-6.117000103E0,2.688625028E1
1.028507502E0,-4.930500090E-1,-2.488905144E1,-4.621950150E0,2.531936814E1
1.030469689E0,-1.528050065E0,-2.404605103E1,-3.394950151E0,2.433255419E1
1.032432557E0,-2.065050125E0,-2.354805183E1,-2.245050192E0,2.374479791E1
1.034395225E0,-2.065050125E0,-2.335605049E1,-1.287000060E0,2.348245932E1
1.036357482E0,-1.795950055E0,-2.354805183E1,-4.440000355E-1,2.362061214E1
1.038319853E0,-1.567050099E0,-2.381595039E1,3.220500052E-1,2.386962202E1
1.040282644E0,-1.413000107E0,-2.389305115E1,1.087950110E0,2.395950955E1
1.042245312E0,-1.413000107E0,-2.385405159E1,1.624950051E0,2.395105027E1
1.044208279E0,-1.413000107E0,-2.373900032E1,2.085000038E0,2.387224184E1
1.046171158E0,-1.605000019E0,-2.350905037E1,2.506050110E0,2.369666140E1
1.048133935E0,-1.681950092E0,-2.324100113E1,2.812950134E0,2.347095605E1
1.050096756E0,-1.758000135E0,-2.297295189E1,3.004050255E0,2.323513290E1
1.052059695E0,-1.795950055E0,-2.270400047E1,3.310950041E0,2.301433171E1
1.054022600E0,-1.795950055E0,-2.239800072E1,3.541050196E0,2.274719563E1
1.055985526E0,-1.795950055E0,-2.216805077E1,3.694050074E0,2.254537463E1
1.057948446E0,-1.795950055E0,-2.201505089E1,3.808950186E0,2.241419202E1
1.059911505E0,-1.681950092E0,-2.190000153E1,3.771000147E0,2.228585796E1
1.061874523E0,-1.681950092E0,-2.174595070E1,3.771000147E0,2.213449277E1
1.063837295E0,-1.720050097E0,-2.163105011E1,3.808950186E0,2.203109173E1
1.065800140E0,-1.720050097E0,-2.147805023E1,3.808950186E0,2.188088928E1
1.067762896E0,-1.605000019E0,-2.136300087E1,3.579000235E0,2.172010759E1
1.069725679E0,-1.567050099E0,-2.124795151E1,3.426000118E0,2.157935509E1
1.071687855E0,-1.528050065E0,-2.113305092E1,3.157950163E0,2.142226476E1
1.073650212E0,-1.375050068E0,-2.109495163E1,2.736000061E0,2.131603723E1
1.075612690E0,-1.260000110E0,-2.101800156E1,2.314950228E0,2.118261042E1
1.077575133E0,-9.919500351E-1,-2.090295029E1,2.046000004E0,2.102625529E1
1.079538004E0,-9.150000215E-1,-2.059605026E1,1.777950048E0,2.069288810E1
1.081500749E0,-6.850500107E-1,-2.036595154E1,1.663050056E0,2.044521976E1
1.083463853E0,-6.850500107E-1,-2.009805107E1,1.548000097E0,2.016921552E1
1.085426841E0,-2.250000089E-1,-1.986795044E1,1.548000097E0,1.992943511E1
1.087390158E0,1.960500032E-1,-1.967700005E1,1.740000129E0,1.975475555E1
1.089353379E0,6.169500351E-1,-1.936995125E1,1.969950080E0,1.947963917E1
1.091316612E0,1.039050102E0,-1.891005135E1,2.085000038E0,1.905300218E1
1.093279841E0,1.269000053E0,-1.848795128E1,2.161050081E0,1.865703195E1
1.095242898E0,1.537050128E0,-1.802805138E1,2.161050081E0,1.822205523E1
1.097206002E0,1.804950118E0,-1.756905174E1,2.314950228E0,1.781259158E1
1.099168713E0,2.111999989E0,-1.714695168E1,2.275950193E0,1.742579826E1
1.101131540E0,2.265000105E0,-1.668704987E1,2.161050081E0,1.697816233E1
1.103094478E0,2.380050182E0,-1.615005112E1,2.122950077E0,1.646194724E1
1.105057384E0,2.533950090E0,-1.569000053E1,2.085000038E0,1.602948050E1
1.107020654E0,2.572050095E0,-1.515405083E1,2.085000038E0,1.551154162E1
1.108983797E0,2.686950207E0,-1.465605068E1,2.008050203E0,1.503501874E1
1.110946864E0,2.839950085E0,-1.411905098E1,1.969950080E0,1.453594236E1
1.112909953E0,2.917050123E0,-1.346700096E1,1.816050053E0,1.389846517E1
1.114872667E0,3.031950235E0,-1.285395050E1,1.663050056E0,1.331099174E1
1.116835491E0,3.070050240E0,-1.224105072E1,1.432950020E0,1.270125494E1
1.118798316E0,3.070050240E0,-1.166595078E1,1.165050030E0,1.211928040E1
1.120761127E0,3.184950113E0,-1.105305099E1,7.429500222E-1,1.152674361E1
1.122724969E0,3.184950113E0,-1.044000053E1,3.600000143E-1,1.092094860E1
1.124688509E0,3.108000040E0,-9.865050316E0,1.500000060E-2,1.034307048E1
1.126651463E0,3.184950113E0,-9.328050613E0,-2.910000086E-1,9.861091039E0
1.128614588E0,3.223050117E0,-8.791950226E0,-4.060500264E-1,9.372903363E0
1.130577680E0,3.147000074E0,-8.217000008E0,-7.120500207E-1,8.827780798E0
1.132540765E0,3.184950113E0,-7.642050266E0,-7.120500207E-1,8.309744565E0
1.134503885E0,3.184950113E0,-7.027950287E0,-7.510500550E-1,7.752423405E0
1.136466994E0,3.184950113E0,-6.492000103E0,-8.269500136E-1,7.278311541E0
1.138430067E0,3.070050240E0,-6.031950474E0,-8.269500136E-1,6.818612859E0
1.140393150E0,2.955000162E0,-5.533950329E0,-7.510500550E-1,6.318283658E0
1.142356025E0,2.955000162E0,-5.112000465E0,-6.739500165E-1,5.942960823E0
1.144318944E0,2.839950085E0,-4.729050159E0,-5.590500236E-1,5.544526023E0
1.146282047E0,2.764050245E0,-4.345950127E0,-5.970000029E-1,5.184946023E0
1.148245096E0,2.649000168E0,-3.847050190E0,-4.060500264E-1,4.688483089E0
1.150208044E0,2.494950056E0,-3.502050161E0,-3.289500177E-1,4.312463244E0
1.152171021E0,2.419050217E0,-3.157050133E0,-3.289500177E-1,3.990861762E0
1.154134258E0,2.380050182E0,-2.851050138E0,-1.369500011E-1,3.716433918E0
1.156097412E0,2.341950178E0,-2.581950188E0,-9.900000691E-2,3.487262309E0
1.158060297E0,2.265000105E0,-2.351999998E0,1.500000060E-2,3.265326089E0
1.160023261E0,2.341950178E0,-2.161050081E0,1.680000126E-1,3.191095751E0
1.161985636E0,2.380050182E0,-2.046000004E0,3.979500234E-1,3.163719189E0
1.163948184E0,2.380050182E0,-1.930950046E0,7.050000429E-1,3.144873926E0
1.165911571E0,2.533950090E0,-1.854000092E0,9.730500579E-1,3.287102952E0
1.167874715E0,2.725050211E0,-1.816050053E0,1.240950108E0,3.501984240E0
1.169838141E0,2.802000046E0,-1.663050056E0,1.432950020E0,3.559534450E0
1.171801484E0,2.839950085E0,-1.548000097E0,1.432950020E0,3.537649862E0
1.173764831E0,2.802000046E0,-1.432950020E0,1.432950020E0,3.458019054E0
1.175728177E0,2.725050211E0,-1.240950108E0,1.471050024E0,3.336142083E0
1.177691069E0,2.725050211E0,-1.011000037E0,1.471050024E0,3.257607696E0
1.179654097E0,2.610000134E0,-8.190000653E-1,1.471050024E0,3.105937858E0
1.181617181E0,2.533950090E0,-5.890500546E-1,1.471050024E0,2.988623630E0
1.183580249E0,2.380050182E0,-3.589500189E-1,1.432950020E0,2.801219332E0
1.185543507E0,2.304000139E0,-1.680000126E-1,1.395000100E0,2.698641496E0
1.187506710E0,2.149950027E0,-1.290000081E-1,1.279950023E0,2.505433732E0
1.189469001E0,1.959000111E0,6.105000153E-2,1.203000069E0,2.299699481E0
1.191431559E0,1.843950033E0,2.530499995E-1,1.126049995E0,2.175356205E0
1.193394724E0,1.690050125E0,4.440000355E-1,1.050000072E0,2.038603838E0
1.195357711E0,1.575000048E0,6.739500165E-1,8.200500607E-1,1.899293521E0
1.197320804E0,1.498950124E0,8.280000687E-1,7.050000429E-1,1.851880301E0
1.199283865E0,1.422000051E0,9.810000658E-1,4.360500276E-1,1.781736484E0
1.201247340E0,1.345050097E0,1.018950105E0,2.449500114E-1,1.705115710E0
1.203210701E0,1.306950092E0,1.173000097E0,-2.205000073E-2,1.756284138E0
1.205173550E0,1.306950092E0,1.249050021E0,-3.289500177E-1,1.837512616E0
1.207136549E0,1.230000019E0,1.402950048E0,-6.739500165E-1,1.983778594E0
1.209099279E0,1.153950095E0,1.479000092E0,-1.057050109E0,2.153229441E0
1.211062088E0,1.039050102E0,1.633050084E0,-1.441050053E0,2.413110637E0
1.213024850E0,9.619500637E-1,1.786050081E0,-1.861950040E0,2.753575997E0
1.214987626E0,9.619500637E-1,1.900950074E0,-2.322000027E0,3.151292312E0
1.216950889E0,8.850000501E-1,2.053950071E0,-2.859000206E0,3.629850983E0
1.218914009E0,8.089500666E-1,2.169000149E0,-3.319050074E0,4.046610340E0
1.220876719E0,6.940500140E-1,2.361000061E0,-3.778950214E0,4.509599919E0
1.222839549E0,7.699500322E-1,2.514000177E0,-4.200000286E0,4.955100639E0
1.224802672E0,7.699500322E-1,2.629050016E0,-4.660050392E0,5.405626393E0
1.226765706E0,8.089500666E-1,2.743950129E0,-5.082000256E0,5.831842686E0
1.228728790E0,9.240000248E-1,2.859000206E0,-5.388000488E0,6.169133447E0
1.230691860E0,1.077000022E0,2.935950041E0,-5.656950474E0,6.463808502E0
1.232654759E0,1.269000053E0,2.974050045E0,-5.848050117E0,6.682441544E0
1.234617708E0,1.345050097E0,2.974050045E0,-5.887050152E0,6.731381205E0
1.236580806E0,1.575000048E0,3.012000084E0,-5.887050152E0,6.797803259E0
1.238543860E0,1.767000079E0,2.974050045E0,-5.733000278E0,6.695861046E0
1.240506627E0,2.111999989E0,2.896950245E0,-5.503050327E0,6.567832792E0
1.242469478E0,2.419050217E0,2.782050133E0,-5.272950172E0,6.433942059E0
1.244432592E0,2.725050211E0,2.706000090E0,-4.890000343E0,6.217751884E0
1.246395629E0,3.070050240E0,2.476050138E0,-4.392000198E0,5.903024522E0
1.248358852E0,3.376950264E0,2.245950222E0,-3.931950092E0,5.648744729E0
1.250322018E0,3.607050180E0,2.131050110E0,-3.549000263E0,5.490681965E0
1.252285260E0,3.874950171E0,1.824000120E0,-3.127050161E0,5.302891473E0
1.254248480E0,4.143000126E0,1.518000126E0,-2.667000055E0,5.155740851E0
1.256211533E0,4.335000038E0,1.210950017E0,-2.169000149E0,4.996317336E0
1.258174635E0,4.527000427E0,7.890000343E-1,-1.671000123E0,4.889631411E0
1.260138038E0,4.603050232E0,3.289500177E-1,-1.171950102E0,4.761275732E0
1.262101374E0,4.717950344E0,-9.105000645E-2,-7.120500207E-1,4.772249028E0
1.264064227E0,4.756950378E0,-4.740000367E-1,-2.910000086E-1,4.789356318E0
1.266027222E0,4.603050232E0,-8.959500194E-1,2.449500114E-1,4.695827763E0
1.267989411E0,4.527000427E0,-1.318050027E0,5.899500251E-1,4.751739658E0
1.269951837E0,4.335000038E0,-1.663050056E0,9.349500537E-1,4.736252994E0
1.271914664E0,4.066950321E0,-2.008050203E0,1.050000072E0,4.655625703E0
1.273877374E0,3.760050297E0,-2.199000120E0,1.165050030E0,4.508982295E0
1.275840559E0,3.529950142E0,-2.391000032E0,1.165050030E0,4.419815690E0
1.277803605E0,3.300000191E0,-2.506050110E0,1.126049995E0,4.293981486E0
1.279766822E0,3.031950235E0,-2.620950222E0,1.050000072E0,4.143018519E0
1.281729989E0,2.725050211E0,-2.697000027E0,9.349500537E-1,3.946370408E0
1.283692682E0,2.419050217E0,-2.736000061E0,7.810500264E-1,3.734640468E0
1.285655521E0,2.227050066E0,-2.659050226E0,6.660000086E-1,3.531834667E0
1.287618278E0,1.843950033E0,-2.620950222E0,5.509500504E-1,3.251626939E0
1.289581059E0,1.459950089E0,-2.544000149E0,4.360500276E-1,2.965388785E0
1.291544005E0,1.269000053E0,-2.428950071E0,3.979500234E-1,2.769209961E0
1.293506903E0,1.000050068E0,-2.275950193E0,3.220500052E-1,2.506744029E0
1.295468901E0,6.550500393E-1,-2.161050081E0,3.220500052E-1,2.280996320E0
1.297431184E0,4.639500082E-1,-2.046000004E0,3.600000143E-1,2.128606501E0
1.299394216E0,3.490500152E-1,-1.930950046E0,4.360500276E-1,2.010110350E0
1.301357028E0,2.340000123E-1,-1.854000092E0,5.509500504E-1,1.948234663E0
1.303319970E0,8.100000024E-2,-1.777950048E0,6.660000086E-1,1.900321916E0
1.305282874E0,4.050000105E-3,-1.738950133E0,8.580000401E-1,1.939104958E0
1.307245814E0,-1.480500102E-1,-1.624050021E0,9.730500579E-1,1.899021772E0
1.309208734E0,-2.250000089E-1,-1.548000097E0,1.011000037E0,1.862538692E0
1.311171658E0,-2.250000089E-1,-1.509000063E0,1.165050030E0,1.919647823E0
1.313134581E0,-3.019500077E-1,-1.471050024E0,1.203000069E0,1.924154657E0
1.315097504E0,-3.400500119E-1,-1.393950105E0,1.279950023E0,1.922759206E0
1.317060427E0,-3.019500077E-1,-1.356000066E0,1.356000066E0,1.941300122E0
1.319023346E0,-3.780000210E-1,-1.318050027E0,1.432950020E0,1.983301704E0
1.320986269E0,-4.549500346E-1,-1.203000069E0,1.432950020E0,1.925495899E0
1.322948878E0,-5.700000525E-1,-1.087950110E0,1.432950020E0,1.887294694E0
1.324911579E0,-6.469500065E-1,-8.959500194E-1,1.395000100E0,1.779689868E0
1.326874313E0,-6.850500107E-1,-8.190000653E-1,1.356000066E0,1.725917380E0
1.328837038E0,-7.620000243E-1,-7.039500475E-1,1.356000066E0,1.707315403E0
1.330799681E0,-7.620000243E-1,-6.280500293E-1,1.318050027E0,1.646920384E0
1.332762348E0,-7.999500632E-1,-5.890500546E-1,1.318050027E0,1.650501725E0
1.334725133E0,-7.999500632E-1,-5.130000114E-1,1.279950023E0,1.594164727E0
1.336687884E0,-8.380500674E-1,-3.979500234E-1,1.240950108E0,1.549402887E0
1.338650972E0,-7.999500632E-1,-2.830500007E-1,1.279950023E0,1.535678829E0
1.340613961E0,-7.999500632E-1,-1.680000126E-1,1.279950023E0,1.518688964E0
1.342576554E0,-7.999500632E-1,-1.680000126E-1,1.279950023E0,1.518688964E0
1.344539266E0,-7.999500632E-1,-9.105000645E-2,1.318050027E0,1.544495413E0
1.346501504E0,-7.999500632E-1,-1.500000060E-2,1.356000066E0,1.574446341E0
1.348463881E0,-7.999500632E-1,9.900000691E-2,1.395000100E0,1.611132020E0
1.350427077E0,-7.620000243E-1,1.759500057E-1,1.471050024E0,1.666010389E0
1.352390033E0,-6.469500065E-1,2.530499995E-1,1.471050024E0,1.626827215E0
1.354352911E0,-6.469500065E-1,2.910000086E-1,1.510050058E0,1.668375406E0
1.356315809E0,-5.700000525E-1,2.910000086E-1,1.510050058E0,1.640070804E0
1.358278556E0,-5.700000525E-1,3.679500222E-1,1.510050058E0,1.655457175E0
1.360241348E0,-6.469500065E-1,3.289500177E-1,1.510050058E0,1.675411473E0
1.362203978E0,-5.700000525E-1,4.060500264E-1,1.510050058E0,1.664340068E0
1.364166656E0,-6.079500318E-1,5.209500194E-1,1.548000097E0,1.742784113E0
1.366129444E0,-6.850500107E-1,5.590500236E-1,1.624950051E0,1.849944084E0
1.368092196E0,-7.999500632E-1,5.980500579E-1,1.777950048E0,2.039286726E0
1.370054789E0,-8.380500674E-1,5.590500236E-1,1.893000126E0,2.144368047E0
1.372017429E0,-8.770500422E-1,6.739500165E-1,1.930950046E0,2.225307502E0
1.373980174E0,-8.770500422E-1,7.129500508E-1,1.893000126E0,2.204759404E0
1.375942888E0,-8.770500422E-1,7.129500508E-1,1.969950080E0,2.271171035E0
1.377905703E0,-8.770500422E-1,8.280000687E-1,1.969950080E0,2.309871037E0
1.379868495E0,-8.380500674E-1,1.018950105E0,1.893000126E0,2.307387420E0
1.381831441E0,-8.380500674E-1,1.096050024E0,1.893000126E0,2.342456627E0
1.383794341E0,-7.999500632E-1,1.134000063E0,1.816050053E0,2.285588336E0
1.385757224E0,-7.999500632E-1,1.249050021E0,1.740000129E0,2.286404712E0
1.387720112E0,-8.380500674E-1,1.363950014E0,1.663050056E0,2.308337723E0
1.389683229E0,-7.230000496E-1,1.363950014E0,1.585950017E0,2.213216250E0
1.391646273E0,-7.230000496E-1,1.441050053E0,1.510050058E0,2.208982912E0
1.393609176E0,-6.850500107E-1,1.441050053E0,1.471050024E0,2.170232002E0
1.395572121E0,-6.079500318E-1,1.479000092E0,1.471050024E0,2.172793751E0
1.397534905E0,-4.930500090E-1,1.402950048E0,1.471050024E0,2.091735003E0
1.399497737E0,-3.019500077E-1,1.363950014E0,1.471050024E0,2.028674844E0
1.401460695E0,-1.480500102E-1,1.210950017E0,1.471050024E0,1.911100971E0
1.403423601E0,8.100000024E-2,1.057950020E0,1.471050024E0,1.813782627E0
1.405386662E0,3.109500110E-1,9.040500522E-1,1.510050058E0,1.787245810E0
1.407349678E0,5.020500422E-1,7.510500550E-1,1.548000097E0,1.792326625E0
1.409313126E0,7.699500322E-1,6.360000372E-1,1.585950017E0,1.874181570E0
1.411276447E0,9.619500637E-1,4.440000355E-1,1.585950017E0,1.907281157E0
1.413239167E0,1.114950061E0,2.910000086E-1,1.548000097E0,1.929792461E0
1.415202064E0,1.230000019E0,1.380000114E-1,1.471050024E0,1.922480747E0
1.417165666E0,1.306950092E0,-1.500000060E-2,1.395000100E0,1.911640349E0
1.419129062E0,1.345050097E0,-9.105000645E-2,1.240950108E0,1.832322852E0
1.421091906E0,1.384050012E0,-1.290000081E-1,1.087950110E0,1.765182959E0
1.423054911E0,1.498950124E0,-2.830500007E-1,8.200500607E-1,1.731892283E0
1.425018724E0,1.575000048E0,-5.130000114E-1,4.750500321E-1,1.723214060E0
1.426982297E0,1.651950121E0,-8.580000401E-1,1.300500035E-1,1.866016151E0
1.428944975E0,1.690050125E0,-1.203000069E0,-2.140500098E-1,2.085496583E0
1.430907915E0,1.767000079E0,-1.393950105E0,-5.590500236E-1,2.319034951E0
1.432870835E0,1.804950118E0,-1.624050021E0,-9.040500522E-1,2.590885929E0
1.434833761E0,1.882050037E0,-1.893000126E0,-1.134000063E0,2.900261706E0
1.436797013E0,1.996950150E0,-2.083950043E0,-1.287000060E0,3.160225757E0
1.438760158E0,2.035050154E0,-2.275950193E0,-1.363950014E0,3.343910593E0
1.440723089E0,2.035050154E0,-2.467050076E0,-1.479000092E0,3.523521885E0
1.442686083E0,2.074050188E0,-2.736000061E0,-1.708950043E0,3.835086800E0
1.444648949E0,2.111999989E0,-3.081000090E0,-2.206950188E0,4.338632807E0
1.446611853E0,2.074050188E0,-3.541050196E0,-2.743950129E0,4.936596295E0
1.448574852E0,2.111999989E0,-4.077000141E0,-3.394950151E0,5.710355561E0
1.450537803E0,2.111999989E0,-4.537050247E0,-4.084949970E0,6.460045291E0
1.452500857E0,1.996950150E0,-5.149950027E0,-4.698000431E0,7.251275973E0
1.454463880E0,1.804950118E0,-5.955000401E0,-5.119950294E0,8.058149026E0
1.456426607E0,1.575000048E0,-7.027950287E0,-5.388000488E0,8.994623930E0
1.458389420E0,9.240000248E-1,-8.638050079E0,-5.809950352E0,1.045108647E1
1.460351486E0,-4.170000255E-1,-1.070805073E1,-5.733000278E0,1.215333418E1
1.462313785E0,-1.834950089E0,-1.316100025E1,-5.733000278E0,1.447225835E1
1.464276814E0,-3.022950172E0,-1.641900063E1,-5.580000401E0,1.760278994E1
1.466239629E0,-4.402950287E0,-1.914000130E1,-5.158050060E0,2.030593759E1
1.468202751E0,-5.590950489E0,-2.178495026E1,-4.736999989E0,2.298438500E1
1.470165783E0,-6.280950069E0,-2.439105034E1,-3.970050097E0,2.549774437E1
1.472128873E0,-6.856050491E0,-2.722695160E1,-3.165000200E0,2.825472612E1
1.474091942E0,-7.123950481E0,-3.033195114E1,-2.014950037E0,3.122239507E1
1.476054075E0,-7.086000443E0,-3.374295044E1,-5.209500194E-1,3.448288700E1
1.478016482E0,-6.511050224E0,-3.707700348E1,1.011000037E0,3.765793519E1
1.479979358E0,-5.821050167E0,-3.991395187E1,2.353049994E0,4.040476486E1
1.481942096E0,-4.863000393E0,-4.252005386E1,3.502950191E0,4.294035879E1
1.483904860E0,-3.675000191E0,-4.501095200E1,4.078050137E0,4.534448058E1
1.485867624E0,-2.371050119E0,-4.711905289E1,4.345950127E0,4.737841604E1
1.487830574E0,-1.068000078E0,-4.911195374E1,4.614000320E0,4.933977729E1
1.489793470E0,2.719500065E-1,-5.083695221E1,5.035950184E0,5.108649979E1
1.491757299E0,1.614000082E0,-5.202495193E1,5.304000378E0,5.231952829E1
1.493720855E0,3.453000069E0,-5.305995178E1,5.227050304E0,5.342849191E1
1.495683832E0,5.293050289E0,-5.371095276E1,4.498950005E0,5.415831772E1
1.497646992E0,7.248000145E0,-5.405595398E1,3.502950191E0,5.465208438E1
1.499610054E0,9.355950356E0,-5.398005295E1,2.046000004E0,5.482304296E1
1.501573145E0,1.123395061E1,-5.348205185E1,5.509500504E-1,5.465194473E1
1.503536940E0,1.276695061E1,-5.229300308E1,-6.739500165E-1,5.383314414E1
1.505500528E0,1.426200104E1,-5.083695221E1,-1.441050053E0,5.281928633E1
1.507463298E0,1.552695084E1,-4.861395264E1,-1.939050078E0,5.107017239E1
1.509426304E0,1.617794991E1,-4.596900177E1,-2.437050104E0,4.879358974E1
1.511389213E0,1.591005039E1,-4.301805115E1,-2.782050133E0,4.595021470E1
1.513352151E0,1.491300106E1,-4.006695175E1,-3.165000200E0,4.286928329E1
1.515315250E0,1.341900063E1,-3.738405228E1,-3.817050219E0,3.990246627E1
1.517278302E0,1.207695103E1,-3.519900131E1,-4.353000164E0,3.746693275E1
1.519241249E0,1.088895035E1,-3.324495316E1,-4.890000343E0,3.532291400E1
1.521204227E0,9.394050598E0,-3.132795143E1,-5.656950474E0,3.319171306E1
1.523167141E0,7.938000202E0,-2.960295105E1,-6.193050385E0,3.126820160E1
1.525130074E0,6.366000175E0,-2.791695213E1,-6.538050175E0,2.937053412E1
1.527092770E0,4.795050144E0,-2.653695107E1,-6.538050175E0,2.774794367E1
1.529055535E0,3.568050146E0,-2.550195122E1,-6.154950142E0,2.647572301E1
1.531018700E0,2.686950207E0,-2.473605156E1,-5.542050362E0,2.549129793E1
1.532981754E0,2.074050188E0,-2.412300110E1,-4.660050392E0,2.465637718E1
1.534944835E0,1.459950089E0,-2.370105171E1,-3.778950214E0,2.404478678E1
1.536907908E0,1.269000053E0,-2.347095108E1,-2.974050045E0,2.369263344E1
1.538871121E0,1.192050099E0,-2.327895164E1,-2.284050226E0,2.342109004E1
1.540834292E0,1.153950095E0,-2.320305061E1,-1.671000123E0,2.329174532E1
1.542797389E0,1.153950095E0,-2.312595177E1,-1.096050024E0,2.318065080E1
1.544760515E0,1.114950061E0,-2.304900169E1,-5.209500194E-1,2.308183229E1
1.546722637E0,1.114950061E0,-2.293395042E1,5.295000225E-2,2.296109752E1
1.548685054E0,1.000050068E0,-2.289600182E1,5.130000114E-1,2.292357233E1
1.550648108E0,8.089500666E-1,-2.281905174E1,8.959500194E-1,2.285095729E1
1.552610975E0,6.550500393E-1,-2.270400047E1,1.318050027E0,2.275165893E1
1.554573548E0,4.639500082E-1,-2.251305199E1,1.510050058E0,2.256840736E1
1.556536208E0,3.490500152E-1,-2.235900116E1,1.548000097E0,2.241524198E1
1.558499130E0,2.340000123E-1,-2.220600128E1,1.701000094E0,2.227228435E1
1.560461975E0,1.189500093E-1,-2.205300140E1,1.663050056E0,2.211593895E1
1.562424732E0,1.570500135E-1,-2.193795013E1,1.740000129E0,2.200740605E1
1.564387515E0,1.960500032E-1,-2.190000153E1,1.777950048E0,2.197292900E1
1.566350531E0,2.340000123E-1,-2.186100197E1,1.740000129E0,2.193138763E1
1.568313461E0,2.719500065E-1,-2.190000153E1,1.740000129E0,2.197069922E1
1.570276699E0,3.109500110E-1,-2.205300140E1,1.624950051E0,2.211497284E1
1.572239846E0,4.639500082E-1,-2.216805077E1,1.585950017E0,2.222955154E1
1.574202732E0,5.020500422E-1,-2.224500084E1,1.510050058E0,2.230184673E1
1.576165694E0,5.020500422E-1,-2.228295135E1,1.432950020E0,2.233462158E1
1.578129316E0,5.410500169E-1,-2.235900116E1,1.279950023E0,2.240214142E1
1.580092755E0,5.790000558E-1,-2.232105064E1,1.011000037E0,2.235143539E1
1.582056131E0,5.790000558E-1,-2.228295135E1,5.899500251E-1,2.229827803E1
1.584019526E0,5.410500169E-1,-2.212995148E1,2.449500114E-1,2.213791969E1
1.585982953E0,5.020500422E-1,-2.205300140E1,1.500000060E-2,2.205872050E1
1.587946370E0,5.790000558E-1,-2.182305145E1,-1.369500011E-1,2.183116055E1
1.589909390E0,6.940500140E-1,-2.151600075E1,-3.289500177E-1,2.152970510E1
1.591872526E0,8.089500666E-1,-2.117100143E1,-4.819500148E-1,2.119193190E1
1.593835772E0,1.000050068E0,-2.078805161E1,-5.590500236E-1,2.081959958E1
1.595798986E0,1.192050099E0,-2.032800102E1,-5.970000029E-1,2.037167195E1
1.597762175E0,1.306950092E0,-1.990695000E1,-6.739500165E-1,1.996118697E1
1.599725372E0,1.345050097E0,-1.933200073E1,-7.510500550E-1,1.939328462E1
1.601688289E0,1.575000048E0,-1.883295059E1,-7.510500550E-1,1.891361228E1
1.603651291E0,1.729050040E0,-1.829700089E1,-7.510500550E-1,1.839385581E1
1.605614515E0,1.882050037E0,-1.779900169E1,-7.120500207E-1,1.791238646E1
1.607577673E0,2.074050188E0,-1.726200104E1,-5.970000029E-1,1.739640115E1
1.609540917E0,2.227050066E0,-1.672500038E1,-5.209500194E-1,1.688066286E1
1.611504135E0,2.380050182E0,-1.611194992E1,-5.209500194E-1,1.629512068E1
1.613467049E0,2.419050217E0,-1.565205097E1,-4.060500264E-1,1.584308620E1
1.615430055E0,2.494950056E0,-1.523100090E1,-2.910000086E-1,1.543673687E1
1.617393098E0,2.533950090E0,-1.477095032E1,-2.910000086E-1,1.498954827E1
1.619356130E0,2.610000134E0,-1.431105042E1,-4.060500264E-1,1.455277091E1
1.621319260E0,2.533950090E0,-1.381200027E1,-6.360000372E-1,1.405691114E1
1.623282361E0,2.494950056E0,-1.327605057E1,-9.040500522E-1,1.353867058E1
1.625245545E0,2.572050095E0,-1.289295101E1,-9.420000315E-1,1.318070527E1
1.627208721E0,2.610000134E0,-1.243305016E1,-9.810000658E-1,1.274186792E1
1.629172141E0,2.610000134E0,-1.193400097E1,-1.096050024E0,1.226514596E1
1.631135490E0,2.572050095E0,-1.143600082E1,-1.210950017E0,1.178405518E1
1.633098567E0,2.533950090E0,-1.090005016E1,-1.287000060E0,1.126447361E1
1.635061723E0,2.572050095E0,-1.047795010E1,-1.441050053E0,1.088482913E1
1.637025087E0,2.610000134E0,-1.001805019E1,-1.479000092E0,1.045757485E1
1.638988400E0,2.649000168E0,-9.520050049E0,-1.479000092E0,9.991796440E0
1.640951617E0,2.725050211E0,-9.060000420E0,-1.363950014E0,9.558758596E0
1.642914863E0,2.839950085E0,-8.562000275E0,-1.287000060E0,9.112054343E0
1.644877730E0,2.802000046E0,-8.062950134E0,-1.171950102E0,8.616022062E0
1.646840709E0,2.839950085E0,-7.564950466E0,-1.210950017E0,8.170691035E0
1.648803821E0,2.802000046E0,-7.143000126E0,-1.134000063E0,7.756262708E0
1.650766880E0,2.649000168E0,-6.760050297E0,-1.018950105E0,7.331694294E0
1.652729645E0,2.494950056E0,-6.339000225E0,-9.420000315E-1,6.877140663E0
1.654692497E0,2.380050182E0,-5.917050362E0,-9.040500522E-1,6.441539439E0
1.656655747E0,2.265000105E0,-5.494950294E0,-7.120500207E-1,5.985960194E0
1.658618880E0,2.227050066E0,-5.188950062E0,-4.819500148E-1,5.667206592E0
1.660582013E0,2.111999989E0,-4.920000076E0,-4.440000355E-1,5.372530199E0
1.662545132E0,2.074050188E0,-4.575000286E0,-3.289500177E-1,5.033936821E0
1.664508021E0,1.767000079E0,-4.269000053E0,-9.900000691E-2,4.621304116E0
1.666470978E0,1.459950089E0,-4.039050102E0,2.449500114E-1,4.301788058E0
1.668433174E0,1.306950092E0,-3.808950186E0,4.750500321E-1,4.054860367E0
1.670395593E0,1.153950095E0,-3.579000235E0,8.580000401E-1,3.857072409E0
1.672358927E0,8.850000501E-1,-3.349050045E0,1.240950108E0,3.679581289E0
1.674321986E0,6.550500393E-1,-3.157050133E0,1.432950020E0,3.528370992E0
1.676284707E0,6.550500393E-1,-2.926950216E0,1.585950017E0,3.392840341E0
1.678247527E0,7.699500322E-1,-2.812050104E0,1.893000126E0,3.476190201E0
1.680210827E0,9.240000248E-1,-2.659050226E0,2.200050116E0,3.572750294E0
1.682173986E0,1.114950061E0,-2.544000149E0,2.506050110E0,3.741034289E0
1.684136924E0,1.230000019E0,-2.391000032E0,2.698050022E0,3.809101616E0
1.686099920E0,1.269000053E0,-2.199000120E0,2.773950100E0,3.760420431E0
1.688062651E0,1.269000053E0,-2.122950077E0,2.773950100E0,3.716460322E0
1.690025459E0,1.306950092E0,-1.969050050E0,2.812950134E0,3.673957689E0
1.691988536E0,1.306950092E0,-1.738950133E0,2.773950100E0,3.525175920E0
1.693951534E0,1.345050097E0,-1.585950017E0,2.773950100E0,3.466871266E0
1.695914664E0,1.345050097E0,-1.393950105E0,2.659050226E0,3.289803149E0
1.697877759E0,1.459950089E0,-1.164000034E0,2.583000183E0,3.187199443E0
1.699840609E0,1.537050128E0,-9.340500236E-1,2.467950106E0,3.053809140E0
1.701803531E0,1.690050125E0,-6.660000086E-1,2.314950228E0,2.942587296E0
1.703766453E0,1.729050040E0,-3.979500234E-1,2.122950077E0,2.766748144E0
1.705729375E0,1.767000079E0,-2.059500068E-1,1.816050053E0,2.542192455E0
1.707691214E0,1.804950118E0,-9.105000645E-2,1.585950017E0,2.404448479E0
1.709653373E0,1.767000079E0,1.380000114E-1,1.356000066E0,2.231606924E0
1.711615885E0,1.804950118E0,4.060500264E-1,9.349500537E-1,2.072885225E0
1.713578294E0,1.767000079E0,7.890000343E-1,5.130000114E-1,2.001993843E0
1.715542071E0,1.804950118E0,9.810000658E-1,9.195000678E-2,2.056370799E0
1.717505448E0,1.767000079E0,1.210950017E0,-4.060500264E-1,2.180267380E0
1.719468253E0,1.767000079E0,1.402950048E0,-9.040500522E-1,2.430609927E0
1.721431223E0,1.767000079E0,1.708950043E0,-1.441050053E0,2.849460437E0
1.723393642E0,1.614000082E0,1.900950074E0,-2.053950071E0,3.230683882E0
1.725356223E0,1.651950121E0,2.053950071E0,-2.551950216E0,3.668800895E0
1.727319339E0,1.614000082E0,2.322000027E0,-3.204000235E0,4.273440990E0
1.729282298E0,1.575000048E0,2.398950100E0,-3.664050102E0,4.654121817E0
1.731245270E0,1.537050128E0,2.551950216E0,-4.084949970E0,5.055866816E0
1.733208231E0,1.537050128E0,2.706000090E0,-4.468050003E0,5.445037228E0
1.735170743E0,1.537050128E0,2.743950129E0,-4.736999989E0,5.686031507E0
1.737133387E0,1.614000082E0,2.896950245E0,-5.005050182E0,6.003985702E0
1.739096402E0,1.690050125E0,3.012000084E0,-5.235000134E0,6.271653716E0
1.741059308E0,1.767000079E0,3.051000118E0,-5.388000488E0,6.439055852E0
1.743022190E0,1.920000076E0,3.127050161E0,-5.464950085E0,6.582592379E0
1.744985079E0,2.035050154E0,3.204000235E0,-5.503050327E0,6.685103555E0
1.746948187E0,2.188950062E0,3.204000235E0,-5.464950085E0,6.702447262E0
1.748911231E0,2.265000105E0,3.241950035E0,-5.388000488E0,6.683637839E0
1.750874134E0,2.419050217E0,3.241950035E0,-5.119950294E0,6.525023755E0
1.752837079E0,2.572050095E0,3.280950069E0,-4.852050304E0,6.397067078E0
1.754799858E0,2.725050211E0,3.280950069E0,-4.353000164E0,6.094189236E0
1.756762690E0,2.878050089E0,3.204000235E0,-3.817050219E0,5.754881596E0
1.758725762E0,3.070050240E0,3.127050161E0,-3.241950035E0,5.451044965E0
1.760688764E0,3.337950230E0,3.088950157E0,-2.551950216E0,5.214976003E0
1.762652079E0,3.492000103E0,3.012000084E0,-1.939050078E0,5.002611761E0
1.764615303E0,3.682950258E0,2.896950245E0,-1.287000060E0,4.859301645E0
1.766578013E0,3.913050175E0,2.706000090E0,-6.360000372E-1,4.799884811E0
1.768540861E0,4.066950321E0,2.551950216E0,-6.105000153E-2,4.801693652E0
1.770502896E0,4.219950199E0,2.245950222E0,5.509500504E-1,4.812049256E0
1.772465169E0,4.372950077E0,1.939050078E0,1.165050030E0,4.923408286E0
1.774428518E0,4.488000393E0,1.555950046E0,1.585950017E0,5.007830421E0
1.776391552E0,4.603050232E0,1.134000063E0,2.085000038E0,5.178923898E0
1.778354876E0,4.564949989E0,5.209500194E-1,2.545050144E0,5.252374469E0
1.780318105E0,4.258049965E0,9.900000691E-2,2.889000177E0,5.146563177E0
1.782281832E0,3.952050209E0,-1.680000126E-1,3.081000090E0,5.013929239E0
1.784245413E0,3.568050146E0,-2.830500007E-1,3.234000206E0,4.823883962E0
1.786208269E0,3.376950264E0,-4.360500276E-1,3.273000240E0,4.722971870E0
1.788171338E0,2.917050123E0,-6.280500293E-1,3.118950129E0,4.316419600E0
1.790134245E0,2.457000017E0,-6.660000086E-1,2.851050138E0,3.822158028E0
1.792097193E0,2.227050066E0,-8.190000653E-1,2.851050138E0,3.709312604E0
1.794060112E0,1.959000111E0,-8.190000653E-1,2.545050144E0,3.314471719E0
1.796023039E0,1.614000082E0,-8.580000401E-1,2.314950228E0,2.949602497E0
1.797986276E0,1.345050097E0,-7.810500264E-1,2.008050203E0,2.539973332E0
1.799949422E0,1.192050099E0,-7.039500475E-1,1.740000129E0,2.223539871E0
1.801912137E0,9.619500637E-1,-6.280500293E-1,1.548000097E0,1.927718617E0
1.803874972E0,6.940500140E-1,-5.130000114E-1,1.471050024E0,1.705538803E0
1.805837189E0,5.410500169E-1,-5.509500504E-1,1.432950020E0,1.627767440E0
1.807799588E0,3.870000243E-1,-5.130000114E-1,1.279950023E0,1.432204626E0
1.809762825E0,3.109500110E-1,-4.360500276E-1,1.203000069E0,1.316829033E0
1.811725817E0,2.340000123E-1,-3.979500234E-1,1.087950110E0,1.181844182E0
1.813688568E0,1.960500032E-1,-3.979500234E-1,1.011000037E0,1.104047508E0
1.815651376E0,1.570500135E-1,-3.589500189E-1,8.580000401E-1,9.432252602E-1
1.817614498E0,1.189500093E-1,-3.210000098E-1,6.660000086E-1,7.488298354E-1
1.819577528E0,1.570500135E-1,-2.830500007E-1,5.509500504E-1,6.390054519E-1
1.821540613E0,1.189500093E-1,-2.440500110E-1,3.979500234E-1,4.817403177E-1
1.823503682E0,8.100000024E-2,-2.059500068E-1,3.979500234E-1,4.553467102E-1
1.825467306E0,8.100000024E-2,-1.680000126E-1,3.220500052E-1,3.721575072E-1
1.827430764E0,8.100000024E-2,-1.680000126E-1,2.449500114E-1,3.078725586E-1
1.829393551E0,1.189500093E-1,-1.680000126E-1,1.680000126E-1,2.657011728E-1
1.831356535E0,1.570500135E-1,-1.290000081E-1,2.449500114E-1,3.182863756E-1
1.833319312E0,1.960500032E-1,-2.059500068E-1,1.680000126E-1,3.302650652E-1
1.835282150E0,1.570500135E-1,-1.680000126E-1,2.449500114E-1,3.359899092E-1
1.837245101E0,1.960500032E-1,-2.059500068E-1,2.449500114E-1,3.753019013E-1
1.839208009E0,1.960500032E-1,-2.440500110E-1,2.449500114E-1,3.974877604E-1
1.841170891E0,1.570500135E-1,-2.440500110E-1,2.449500114E-1,3.797704869E-1
1.843133780E0,1.570500135E-1,-2.440500110E-1,2.449500114E-1,3.797704869E-1
1.845096528E0,1.960500032E-1,-2.830500007E-1,2.830500007E-1,4.457243649E-1
1.847059318E0,1.960500032E-1,-2.830500007E-1,2.830500007E-1,4.457243649E-1
1.849021004E0,1.960500032E-1,-2.830500007E-1,2.830500007E-1,4.457243649E-1
1.850983044E0,1.189500093E-1,-2.830500007E-1,3.220500052E-1,4.449523721E-1
1.852946298E0,1.189500093E-1,-2.830500007E-1,2.830500007E-1,4.175927567E-1
1.854909196E0,4.050000105E-3,-2.830500007E-1,3.600000143E-1,4.579669373E-1
1.856872665E0,-3.299999982E-2,-2.830500007E-1,3.220500052E-1,4.300261721E-1
1.858835966E0,-3.299999982E-2,-3.210000098E-1,2.830500007E-1,4.292403862E-1
1.860798795E0,-1.099500060E-1,-2.830500007E-1,1.680000126E-1,3.470307061E-1
1.862761752E0,-1.480500102E-1,-2.830500007E-1,9.195000678E-2,3.324017331E-1
1.864724669E0,-2.250000089E-1,-2.830500007E-1,1.500000060E-2,3.618940548E-1
1.866687598E0,-3.019500077E-1,-3.210000098E-1,-9.900000691E-2,4.516810985E-1
1.868650160E0,-3.780000210E-1,-3.589500189E-1,-1.369500011E-1,5.389660794E-1
1.870612829E0,-4.170000255E-1,-3.589500189E-1,-2.140500098E-1,5.903825404E-1
1.872575415E0,-4.549500346E-1,-3.210000098E-1,-2.520000041E-1,6.111665422E-1
1.874538040E0,-4.549500346E-1,-3.589500189E-1,-3.289500177E-1,6.663578349E-1
1.876500697E0,-2.629500031E-1,-2.830500007E-1,-2.520000041E-1,4.612634920E-1
1.878463345E0,-2.629500031E-1,-2.440500110E-1,-9.900000691E-2,3.721614077E-1
1.880426090E0,-1.870500147E-1,-2.059500068E-1,-2.205000073E-2,2.790865741E-1
1.882388807E0,-1.480500102E-1,-2.059500068E-1,1.300500035E-1,2.850389697E-1
1.884351090E0,-1.099500060E-1,-1.680000126E-1,2.830500007E-1,3.470307061E-1
1.886313501E0,-7.200000435E-2,-1.290000081E-1,5.130000114E-1,5.338483066E-1
1.888276286E0,-1.480500102E-1,-1.290000081E-1,7.429500222E-1,7.684624539E-1
1.890238961E0,-2.250000089E-1,-5.295000225E-2,1.050000072E0,1.075141320E0
1.892200891E0,-1.870500147E-1,-5.295000225E-2,1.318050027E0,1.332309005E0
1.894163040E0,-1.870500147E-1,-1.500000060E-2,1.510050058E0,1.521664840E0
1.896125919E0,-2.250000089E-1,-1.500000060E-2,1.663050056E0,1.678268599E0
1.898088581E0,-1.480500102E-1,-1.500000060E-2,1.969950080E0,1.975562483E0
1.900051145E0,-1.870500147E-1,6.105000153E-2,2.314950228E0,2.323297090E0
1.902013737E0,-1.480500102E-1,2.295000106E-2,2.659050226E0,2.663267469E0
1.903976041E0,-7.200000435E-2,-1.500000060E-2,2.889000177E0,2.889936163E0
1.905938429E0,-7.200000435E-2,2.295000106E-2,3.043050051E0,3.043988225E0
1.907901983E0,4.200000316E-2,-5.295000225E-2,3.118950129E0,3.119682293E0
1.909865196E0,1.960500032E-1,-1.290000081E-1,3.234000206E0,3.242504270E0
1.911827890E0,2.340000123E-1,-1.290000081E-1,3.157950163E0,3.169234330E0
1.913790737E0,3.109500110E-1,-1.680000126E-1,3.081000090E0,3.101205486E0
1.915753493E0,4.260000288E-1,-1.680000126E-1,2.965950251E0,3.001093287E0
1.917716275E0,5.020500422E-1,-1.680000126E-1,2.773950100E0,2.824017954E0
1.919678983E0,5.410500169E-1,-1.680000126E-1,2.620950222E0,2.681480783E0
1.921641723E0,5.410500169E-1,-2.059500068E-1,2.353049994E0,2.423219924E0
1.923604676E0,5.020500422E-1,-2.059500068E-1,2.122950077E0,2.191206672E0
1.925567567E0,4.639500082E-1,-2.059500068E-1,1.893000126E0,1.959876142E0
1.927530496E0,4.260000288E-1,-2.440500110E-1,1.624950051E0,1.697497894E0
1.929493413E0,2.719500065E-1,-2.440500110E-1,1.432950020E0,1.478804576E0
1.931456503E0,1.570500135E-1,-2.830500007E-1,1.087950110E0,1.135084778E0
1.933419552E0,1.570500135E-1,-3.210000098E-1,6.280500293E-1,7.226012402E-1
1.935383175E0,2.340000123E-1,-4.360500276E-1,1.300500035E-1,5.116723910E-1
1.937346629E0,4.260000288E-1,-5.509500504E-1,-6.360000372E-1,9.431426350E-1
1.939310227E0,7.320000529E-1,-8.959500194E-1,-1.555950046E0,1.938951020E0
1.941273783E0,1.114950061E0,-1.164000034E0,-2.629050016E0,3.083814798E0
1.943236598E0,1.345050097E0,-1.548000097E0,-3.702000141E0,4.232052588E0
1.945199631E0,1.537050128E0,-1.893000126E0,-4.507050037E0,5.124399732E0
1.947162895E0,1.767000079E0,-2.275950193E0,-5.197050095E0,5.942353763E0
1.949126091E0,2.035050154E0,-2.697000027E0,-6.001950264E0,6.887571796E0
1.951088968E0,2.149950027E0,-3.196050167E0,-6.805950165E0,7.820356733E0
1.953051939E0,2.227050066E0,-3.694050074E0,-7.420050144E0,8.582709484E0
1.955014859E0,2.188950062E0,-4.192049980E0,-7.611000538E0,8.960586733E0
1.956977790E0,2.149950027E0,-4.729050159E0,-7.611000538E0,9.214853755E0
1.958940487E0,2.111999989E0,-5.188950062E0,-7.266000271E0,9.174993549E0
1.960903252E0,1.996950150E0,-5.572050095E0,-6.652950287E0,8.904903126E0
1.962865886E0,1.882050037E0,-5.994000435E0,-5.809950352E0,8.557200281E0
1.964828559E0,1.690050125E0,-6.684000492E0,-4.698000431E0,8.342861623E0
1.966790405E0,1.269000053E0,-7.642050266E0,-3.702000141E0,8.585807967E0
1.968752521E0,5.020500422E-1,-9.060000420E0,-2.743950129E0,9.479711185E0
1.970715041E0,-9.150000215E-1,-1.124400043E1,-1.402050018E0,1.136796002E1
1.972677442E0,-1.950000048E0,-1.400400066E1,1.300500035E-1,1.413971173E1
1.974639374E0,-2.716050148E0,-1.668704987E1,1.701000094E0,1.699199703E1
1.976601444E0,-3.406050205E0,-1.956195068E1,3.388050079E0,2.014323648E1
1.978564624E0,-3.598050117E0,-2.293395042E1,4.921050072E0,2.373033461E1
1.980527495E0,-3.828000069E0,-2.619195175E1,6.147000313E0,2.717457514E1
1.982490472E0,-4.057950020E0,-2.948805046E1,6.454050541E0,3.045762379E1
1.984453418E0,-4.173000336E0,-3.251595306E1,6.760950089E0,3.347254967E1
1.986416518E0,-3.943050146E0,-3.550605011E1,7.411950588E0,3.648512369E1
1.988379572E0,-3.406050205E0,-3.845700073E1,7.909950256E0,3.940950896E1
1.990342460E0,-2.716050148E0,-4.125495148E1,8.485050201E0,4.220597146E1
1.992305406E0,-2.179949999E0,-4.366995239E1,8.599950790E0,4.456204750E1
1.994268685E0,-1.297950029E0,-4.600800323E1,8.064000130E0,4.672739169E1
1.996231866E0,-2.629500031E-1,-4.830705261E1,7.182000160E0,4.883873054E1
1.998195826E0,8.089500666E-1,-5.033895111E1,5.841000080E0,5.068314987E1
2.000159558E0,1.690050125E0,-5.214000320E1,4.461000443E0,5.235777620E1
2.002122455E0,2.878050089E0,-5.371095276E1,2.928000212E0,5.386764153E1
2.004085613E0,4.527000427E0,-5.509095383E1,8.959500194E-1,5.528390049E1
2.006049216E0,6.558000088E0,-5.612595367E1,-1.708950043E0,5.653362319E1
2.008012688E0,8.551050186E0,-5.681595230E1,-4.698000431E0,5.764758541E1
2.009975563E0,1.085100079E1,-5.735295105E1,-7.803000450E0,5.888965977E1
2.011938613E0,1.269000053E1,-5.731395340E1,-1.017900085E1,5.957799448E1
2.013901673E0,1.418505096E1,-5.643300247E1,-1.098405075E1,5.921611951E1
2.015864714E0,1.502805042E1,-5.440095139E1,-1.033305073E1,5.737663068E1
2.017827662E0,1.537305069E1,-5.152695084E1,-8.875950813E0,5.449898947E1
2.019790637E0,1.525800037E1,-4.788600159E1,-7.036050320E0,5.074821896E1
2.021753911E0,1.368705082E1,-4.386105347E1,-5.656950474E0,4.629393546E1
2.023717097E0,1.115700054E1,-4.002900314E1,-4.890000343E0,4.184150878E1
2.025679730E0,8.781000137E0,-3.680895233E1,-4.237950325E0,3.807840803E1
2.027642540E0,6.711000443E0,-3.404895020E1,-3.433950186E0,3.487349352E1
2.029605481E0,4.756950378E0,-3.171105194E1,-3.088950157E0,3.221429815E1
2.031568384E0,2.839950085E0,-2.968005180E1,-3.204000235E0,2.998727078E1
2.033530456E0,1.077000022E0,-2.799405098E1,-3.394950151E0,2.821971839E1
2.035492771E0,-5.320500135E-1,-2.672895050E1,-3.739950180E0,2.699457537E1
2.037455993E0,-2.140950203E0,-2.569395065E1,-3.894000292E0,2.607539082E1
2.039418938E0,-3.598050117E0,-2.477400208E1,-3.586950064E0,2.528958984E1
2.041382038E0,-4.633050442E0,-2.416095161E1,-3.165000200E0,2.480391029E1
2.043345092E0,-5.514000416E0,-2.358600044E1,-2.359950066E0,2.433665922E1
2.045308308E0,-5.821050167E0,-2.347095108E1,-1.632000089E0,2.423702940E1
2.047271476E0,-5.706000328E0,-2.339400101E1,-9.040500522E-1,2.409678463E1
2.049233783E0,-5.476050377E0,-2.339400101E1,-1.369500011E-1,2.402675938E1
2.051196367E0,-5.016000271E0,-2.347095108E1,5.130000114E-1,2.400643606E1
2.053159348E0,-4.594050407E0,-2.354805183E1,1.203000069E0,2.402214090E1
2.055122212E0,-4.249050140E0,-2.354805183E1,1.624950051E0,2.398344502E1
2.057085145E0,-4.096050262E0,-2.347095108E1,2.046000004E0,2.391337049E1
2.059048058E0,-4.057950020E0,-2.343300056E1,2.391000032E0,2.390166009E1
2.061011023E0,-3.790050268E0,-2.347095108E1,2.698050022E0,2.392758867E1
2.062973976E0,-3.636000156E0,-2.347095108E1,2.928000212E0,2.393071723E1
2.064936715E0,-3.559950113E0,-2.339400101E1,3.043050051E0,2.385817850E1
2.066899516E0,-3.520950079E0,-2.335605049E1,3.196050167E0,2.383520339E1
2.068862280E0,-3.406050205E0,-2.335605049E1,3.349050045E0,2.383951360E1
2.070825055E0,-3.367950201E0,-2.331795120E1,3.273000240E0,2.378618228E1
2.072788313E0,-3.330000162E0,-2.324100113E1,3.157950163E0,2.368978016E1
2.074751433E0,-3.291000128E0,-2.316405106E1,2.851050138E0,2.356973547E1
2.076714324E0,-3.138000250E0,-2.304900169E1,2.467950106E0,2.339218464E1
2.078677282E0,-3.022950172E0,-2.289600182E1,1.969950080E0,2.317856402E1
2.080640199E0,-2.830950022E0,-2.270400047E1,1.548000097E0,2.293212201E1
2.082603128E0,-2.677950144E0,-2.262795067E1,1.203000069E0,2.281759798E1
2.084566810E0,-2.485950232E0,-2.243595123E1,7.050000429E-1,2.258426181E1
2.086530275E0,-2.332950115E0,-2.228295135E1,1.680000126E-1,2.240537439E1
2.088493061E0,-2.218050003E0,-2.212995148E1,-2.520000041E-1,2.224225713E1
2.090456046E0,-2.026050091E0,-2.190000153E1,-5.590500236E-1,2.200062460E1
2.092418958E0,-1.911000133E0,-2.159295082E1,-9.040500522E-1,2.169619213E1
2.094381892E0,-1.642950058E0,-2.132505035E1,-1.018950105E0,2.141250375E1
2.096344847E0,-1.375050068E0,-2.098005104E1,-1.134000063E0,2.105562301E1
2.098307803E0,-1.183050036E0,-2.055795097E1,-1.210950017E0,2.062753877E1
2.100270676E0,-9.919500351E-1,-1.998300171E1,-1.287000060E0,2.004895736E1
2.102233574E0,-7.999500632E-1,-1.936995125E1,-1.171950102E0,1.942185363E1
2.104196321E0,-4.930500090E-1,-1.883295059E1,-9.040500522E-1,1.886108249E1
2.106159113E0,-1.099500060E-1,-1.825800133E1,-7.510500550E-1,1.827377295E1
2.108123149E0,2.340000123E-1,-1.764495087E1,-4.440000355E-1,1.765208722E1
2.110086813E0,6.169500351E-1,-1.695495033E1,-2.520000041E-1,1.696804267E1
2.112049835E0,1.039050102E0,-1.634205055E1,-9.900000691E-2,1.637534862E1
2.114013046E0,1.306950092E0,-1.565205097E1,5.295000225E-2,1.570661077E1
2.115976055E0,1.422000051E0,-1.500105095E1,9.195000678E-2,1.506857885E1
2.117939123E0,1.651950121E0,-1.438695049E1,1.300500035E-1,1.448206466E1
2.119902080E0,1.882050037E0,-1.377405071E1,9.195000678E-2,1.390233938E1
2.121865060E0,2.188950062E0,-1.323795033E1,5.295000225E-2,1.341781036E1
2.123827928E0,2.419050217E0,-1.273905087E1,9.195000678E-2,1.296702262E1
2.125790829E0,2.686950207E0,-1.212600040E1,-9.900000691E-2,1.242052286E1
2.127753935E0,2.878050089E0,-1.162800026E1,-2.140500098E-1,1.198079212E1
2.129716981E0,3.108000040E0,-1.120605087E1,-4.819500148E-1,1.163905135E1
2.131680228E0,3.415050268E0,-1.070805073E1,-6.360000372E-1,1.125741599E1
2.133643427E0,3.645000219E0,-1.013295078E1,-7.510500550E-1,1.079475773E1
2.135606304E0,3.874950171E0,-9.673050880E0,-9.420000315E-1,1.046281588E1
2.137569275E0,3.990000248E0,-9.175050735E0,-1.171950102E0,1.007348624E1
2.139532054E0,4.066950321E0,-8.677050591E0,-1.287000060E0,9.668901748E0
2.141494890E0,4.143000126E0,-8.217000008E0,-1.363950014E0,9.302897334E0
2.143457594E0,4.143000126E0,-7.795050144E0,-1.363950014E0,8.932391417E0
2.145420343E0,4.105050087E0,-7.297050476E0,-1.363950014E0,8.482849846E0
2.147383295E0,4.105050087E0,-6.874950409E0,-1.326000094E0,8.116320323E0
2.149346187E0,4.066950321E0,-6.492000103E0,-1.326000094E0,7.774601373E0
2.151308801E0,4.027950287E0,-5.994000435E0,-1.134000063E0,7.310156009E0
2.153271497E0,3.837000132E0,-5.610000134E0,-9.810000658E-1,6.867097832E0
2.155234103E0,3.607050180E0,-5.265000343E0,-8.269500136E-1,6.435439841E0
2.157196732E0,3.415050268E0,-4.920000076E0,-7.120500207E-1,6.031250643E0
2.159159705E0,3.147000074E0,-4.690050125E0,-6.360000372E-1,5.683720233E0
2.161122577E0,2.955000162E0,-4.537050247E0,-4.819500148E-1,5.435910846E0
2.163085284E0,2.686950207E0,-4.306950092E0,-2.520000041E-1,5.082619847E0
2.165048040E0,2.533950090E0,-4.192049980E0,9.195000678E-2,4.899249014E0
2.167009760E0,2.419050217E0,-4.116000175E0,3.220500052E-1,4.785078641E0
2.168971794E0,2.341950178E0,-4.039050102E0,5.899500251E-1,4.706027773E0
2.170934508E0,2.380050182E0,-3.847050190E0,1.011000037E0,4.635359221E0
2.172897023E0,2.380050182E0,-3.655950069E0,1.356000066E0,4.568297928E0
2.174859971E0,2.380050182E0,-3.426000118E0,1.548000097E0,4.449541547E0
2.176822792E0,2.227050066E0,-3.157050133E0,1.740000129E0,4.237253590E0
2.178785442E0,2.035050154E0,-2.926950216E0,2.046000004E0,4.110302022E0
2.180748126E0,1.882050037E0,-2.620950222E0,2.200050116E0,3.905344149E0
2.182710864E0,1.729050040E0,-2.391000032E0,2.353049994E0,3.774034906E0
2.184673586E0,1.575000048E0,-2.122950077E0,2.506050110E0,3.642503169E0
2.186636229E0,1.498950124E0,-1.854000092E0,2.545050144E0,3.487326777E0
2.188598895E0,1.422000051E0,-1.585950017E0,2.545050144E0,3.318825370E0
2.190561660E0,1.345050097E0,-1.356000066E0,2.620950222E0,3.243034999E0
2.192524379E0,1.306950092E0,-1.126049995E0,2.583000183E0,3.106122516E0
2.194486797E0,1.345050097E0,-8.190000653E-1,2.391000032E0,2.863005767E0
2.196449304E0,1.345050097E0,-5.130000114E-1,2.238000154E0,2.661009858E0
2.198412297E0,1.345050097E0,-2.440500110E-1,1.969950080E0,2.397795547E0
2.200375148E0,1.422000051E0,-9.105000645E-2,1.701000094E0,2.218958217E0
2.202337159E0,1.422000051E0,1.759500057E-1,1.395000100E0,1.999766943E0
2.204299434E0,1.537050128E0,5.209500194E-1,1.011000037E0,1.912075598E0
2.206263413E0,1.575000048E0,7.890000343E-1,3.220500052E-1,1.790771457E0
2.208226893E0,1.690050125E0,1.134000063E0,-4.060500264E-1,2.075355919E0
2.210189677E0,1.729050040E0,1.363950014E0,-1.096050024E0,2.459938889E0
2.212152665E0,1.804950118E0,1.786050081E0,-1.861950040E0,3.148758132E0
2.214115941E0,1.920000076E0,2.016000032E0,-2.782050133E0,3.935792089E0
2.216079129E0,2.111999989E0,2.245950222E0,-3.510000229E0,4.671716811E0
2.218042053E0,2.265000105E0,2.551950216E0,-4.353000164E0,5.530938963E0
2.220005054E0,2.533950090E0,2.667000055E0,-5.235000134E0,6.398360630E0
2.221967964E0,2.725050211E0,2.896950245E0,-5.809950352E0,7.040862338E0
2.223930900E0,2.992950201E0,2.974050045E0,-6.346950531E0,7.621450362E0
2.225894176E0,3.223050117E0,3.051000118E0,-6.730050087E0,8.061651689E0
2.227857355E0,3.453000069E0,3.127050161E0,-6.844950199E0,8.279794407E0
2.229820370E0,3.607050180E0,3.127050161E0,-6.768000126E0,8.282214645E0
2.231783434E0,3.798000097E0,3.088950157E0,-6.499950409E0,8.137307487E0
2.233746197E0,3.837000132E0,3.051000118E0,-5.887050152E0,7.660844028E0
2.235709049E0,3.874950171E0,2.974050045E0,-5.158050060E0,7.103920954E0
2.237672513E0,3.913050175E0,2.896950245E0,-4.276950359E0,6.480477356E0
2.239635774E0,3.913050175E0,2.821050167E0,-3.394950151E0,5.898811087E0
2.241598820E0,3.837000132E0,2.706000090E0,-2.475000143E0,5.307601361E0
2.243561929E0,3.645000219E0,2.667000055E0,-1.555950046E0,4.777017525E0
2.245525045E0,3.492000103E0,2.629050016E0,-7.120500207E-1,4.428654868E0
2.247488158E0,3.262050152E0,2.476050138E0,5.295000225E-2,4.095680552E0
2.249450478E0,2.878050089E0,2.322000027E0,8.200500607E-1,3.787788080E0
2.251413020E0,2.419050217E0,2.092950106E0,1.432950020E0,3.505080578E0
2.253376188E0,2.035050154E0,1.824000120E0,1.740000129E0,3.239754005E0
2.255339172E0,1.651950121E0,1.402950048E0,2.161050081E0,3.060611948E0
2.257302131E0,1.345050097E0,9.430500269E-1,2.467950106E0,2.964672130E0
2.259265097E0,1.230000019E0,5.209500194E-1,2.583000183E0,2.907950982E0
2.261229038E0,1.077000022E0,9.900000691E-2,2.620950222E0,2.835332452E0
2.263192701E0,8.470500112E-1,-1.680000126E-1,2.430000067E0,2.578879224E0
2.265155318E0,7.320000529E-1,-3.210000098E-1,2.122950077E0,2.268431642E0
2.267118241E0,6.550500393E-1,-5.509500504E-1,2.046000004E0,2.217826081E0
2.269081208E0,7.320000529E-1,-8.190000653E-1,2.008050203E0,2.288853600E0
2.271044162E0,6.169500351E-1,-9.340500236E-1,1.930950046E0,2.231959872E0
2.273006135E0,4.639500082E-1,-1.011000037E0,1.777950048E0,2.097254648E0
2.274968395E0,2.340000123E-1,-1.087950110E0,1.663050056E0,2.001031468E0
2.276931251E0,4.200000316E-2,-1.126049995E0,1.548000097E0,1.914694987E0
2.278893932E0,-1.480500102E-1,-1.164000034E0,1.510050058E0,1.912345697E0
2.280856942E0,-3.019500077E-1,-1.164000034E0,1.471050024E0,1.900015279E0
2.282819855E0,-4.549500346E-1,-1.126049995E0,1.356000066E0,1.820358290E0
2.284782795E0,-4.930500090E-1,-1.087950110E0,1.395000100E0,1.836507292E0
2.286745716E0,-5.700000525E-1,-1.126049995E0,1.356000066E0,1.852464529E0
2.288709000E0,-5.320500135E-1,-1.087950110E0,1.395000100E0,1.847359721E0
2.290672177E0,-4.930500090E-1,-1.087950110E0,1.432950020E0,1.865497122E0
2.292635238E0,-5.700000525E-1,-1.087950110E0,1.432950020E0,1.887294694E0
2.294598333E0,-4.549500346E-1,-1.087950110E0,1.395000100E0,1.826647272E0
2.296561367E0,-4.170000255E-1,-1.126049995E0,1.356000066E0,1.811246475E0
2.298524415E0,-3.019500077E-1,-1.164000034E0,1.356000066E0,1.812403395E0
2.300487541E0,-2.629500031E-1,-1.203000069E0,1.318050027E0,1.803775968E0
2.302450644E0,-2.250000089E-1,-1.240950108E0,1.318050027E0,1.824236291E0
2.304413718E0,-2.250000089E-1,-1.240950108E0,1.203000069E0,1.742926085E0
2.306376800E0,-2.250000089E-1,-1.279050112E0,1.126049995E0,1.718889986E0
2.308339871E0,-2.250000089E-1,-1.203000069E0,1.087950110E0,1.637519347E0
2.310302949E0,-2.629500031E-1,-1.318050027E0,1.087950110E0,1.729171484E0
2.312265800E0,-2.250000089E-1,-1.318050027E0,9.730500579E-1,1.653695042E0
2.314228718E0,-2.250000089E-1,-1.318050027E0,9.730500579E-1,1.653695042E0
2.316191506E0,-1.870500147E-1,-1.318050027E0,9.349500537E-1,1.626768325E0
2.318154333E0,-3.019500077E-1,-1.356000066E0,9.349500537E-1,1.674527273E0
2.320117412E0,-3.019500077E-1,-1.393950105E0,8.959500194E-1,1.684338784E0
2.322080413E0,-3.780000210E-1,-1.356000066E0,8.959500194E-1,1.668636159E0
2.324043369E0,-3.400500119E-1,-1.393950105E0,8.580000401E-1,1.671793939E0
2.326006338E0,-3.400500119E-1,-1.393950105E0,8.959500194E-1,1.691584270E0
2.327969613E0,-3.019500077E-1,-1.393950105E0,8.959500194E-1,1.684338784E0
2.329932798E0,-3.019500077E-1,-1.393950105E0,8.959500194E-1,1.684338784E0
2.331895829E0,-2.250000089E-1,-1.356000066E0,8.959500194E-1,1.640758245E0
2.333858925E0,-1.870500147E-1,-1.356000066E0,9.349500537E-1,1.657665675E0
2.335821998E0,-1.870500147E-1,-1.318050027E0,1.011000037E0,1.671635324E0
2.337785078E0,-1.099500060E-1,-1.203000069E0,1.011000037E0,1.575252121E0
2.339747794E0,-7.200000435E-2,-1.203000069E0,1.011000037E0,1.573058880E0
2.341710617E0,4.200000316E-2,-1.126049995E0,1.165050030E0,1.620831319E0
2.343673556E0,8.100000024E-2,-1.087950110E0,1.165050030E0,1.596100879E0
2.345636461E0,1.960500032E-1,-1.048950076E0,1.240950108E0,1.636670106E0
2.347599163E0,2.719500065E-1,-9.730500579E-1,1.318050027E0,1.660734505E0
2.349561925E0,3.109500110E-1,-8.580000401E-1,1.395000100E0,1.666997078E0
2.351524739E0,4.260000288E-1,-7.429500222E-1,1.432950020E0,1.669370097E0
2.353487538E0,5.020500422E-1,-6.660000086E-1,1.471050024E0,1.691034722E0
2.355451037E0,6.169500351E-1,-5.890500546E-1,1.510050058E0,1.734317875E0
2.357414321E0,7.699500322E-1,-4.740000367E-1,1.471050024E0,1.726698370E0
2.359377364E0,8.850000501E-1,-3.589500189E-1,1.471050024E0,1.753869544E0
2.361340477E0,1.000050068E0,-3.589500189E-1,1.471050024E0,1.814644160E0
2.363303727E0,1.077000022E0,-2.440500110E-1,1.395000100E0,1.779189348E0
2.365266937E0,1.269000053E0,-1.680000126E-1,1.240950108E0,1.782846687E0
2.367230513E0,1.384050012E0,-1.290000081E-1,7.050000429E-1,1.558608513E0
2.369193995E0,1.614000082E0,-9.105000645E-2,-2.205000073E-2,1.616716602E0
2.371156057E0,2.035050154E0,-1.500000060E-2,-7.890000343E-1,2.182699059E0
2.373118535E0,2.341950178E0,6.105000153E-2,-1.441050053E0,2.750469595E0
2.375081714E0,2.649000168E0,1.380000114E-1,-2.169000149E0,3.426486179E0
2.377044687E0,2.839950085E0,2.140500098E-1,-2.743950129E0,3.954794078E0
2.379007412E0,2.955000162E0,2.530499995E-1,-3.012000084E0,4.227079934E0
2.380970217E0,2.917050123E0,2.910000086E-1,-3.165000200E0,4.314057104E0
2.382933340E0,2.839950085E0,3.679500222E-1,-3.165000200E0,4.268246709E0
2.384896369E0,2.839950085E0,4.440000355E-1,-3.127050161E0,4.247457501E0
2.386859320E0,2.839950085E0,4.060500264E-1,-2.896950245E0,4.077071722E0
2.388822294E0,2.764050245E0,4.060500264E-1,-2.514000177E0,3.758330384E0
2.390785383E0,2.686950207E0,4.440000355E-1,-2.092050076E0,3.434168162E0
2.392748441E0,2.533950090E0,4.440000355E-1,-1.594050050E0,3.026389706E0
2.394711477E0,2.380050182E0,4.440000355E-1,-1.134000063E0,2.673524087E0
2.396674520E0,2.265000105E0,4.440000355E-1,-5.970000029E-1,2.384065962E0
2.398637242E0,2.111999989E0,3.289500177E-1,-1.759500057E-1,2.144693561E0
2.400600059E0,1.920000076E0,3.289500177E-1,2.830500007E-1,1.968432298E0
2.402562099E0,1.767000079E0,2.910000086E-1,6.660000086E-1,1.910635050E0
2.404524366E0,1.614000082E0,1.380000114E-1,1.087950110E0,1.951326654E0
2.406487446E0,1.614000082E0,1.380000114E-1,1.318050027E0,2.088371648E0
2.408450287E0,1.651950121E0,-1.500000060E-2,1.471050024E0,2.212047101E0
2.410414126E0,1.767000079E0,-1.290000081E-1,1.471050024E0,2.302806647E0
2.412377672E0,1.843950033E0,-2.059500068E-1,1.471050024E0,2.367816569E0
2.414340454E0,1.920000076E0,-3.589500189E-1,1.432950020E0,2.422517527E0
2.416303453E0,2.074050188E0,-4.740000367E-1,1.318050027E0,2.502721737E0
2.418266363E0,2.188950062E0,-6.280500293E-1,1.279950023E0,2.612321051E0
2.420229299E0,2.265000105E0,-7.429500222E-1,1.318050027E0,2.723867854E0
2.422192399E0,2.227050066E0,-7.429500222E-1,1.279950023E0,2.673948166E0
2.424155451E0,2.188950062E0,-8.580000401E-1,1.165050030E0,2.623929880E0
2.426118393E0,2.149950027E0,-8.190000653E-1,9.730500579E-1,2.497973707E0
2.428081371E0,1.996950150E0,-8.190000653E-1,8.200500607E-1,2.308907341E0
2.430044825E0,1.920000076E0,-8.959500194E-1,5.509500504E-1,2.189217369E0
2.432008139E0,1.843950033E0,-8.190000653E-1,2.449500114E-1,2.032464843E0
2.433971491E0,1.729050040E0,-8.190000653E-1,9.195000678E-2,1.915419002E0
2.435934831E0,1.651950121E0,-8.580000401E-1,-6.105000153E-2,1.862479630E0
2.437897869E0,1.651950121E0,-8.959500194E-1,-9.900000691E-2,1.881878487E0
2.439860992E0,1.575000048E0,-1.011000037E0,-1.759500057E-1,1.879815052E0
2.441823700E0,1.575000048E0,-1.164000034E0,-3.670500219E-1,1.992547854E0
2.443786530E0,1.498950124E0,-1.548000097E0,-6.739500165E-1,2.257734351E0
2.445749334E0,1.537050128E0,-1.930950046E0,-9.810000658E-1,2.655833636E0
2.447712146E0,1.498950124E0,-2.314050198E0,-1.326000094E0,3.059404524E0
2.449675042E0,1.422000051E0,-2.659050226E0,-1.555950046E0,3.393171495E0
2.451637913E0,1.345050097E0,-3.081000090E0,-1.747050047E0,3.788654798E0
2.453600845E0,1.306950092E0,-3.502050161E0,-1.900950074E0,4.193576643E0
2.455563759E0,1.192050099E0,-3.961950302E0,-2.092050076E0,4.636238470E0
2.457526144E0,1.000050068E0,-4.575000286E0,-2.322000027E0,5.227084453E0
2.459488684E0,5.790000558E-1,-5.419050217E0,-2.782050133E0,6.118917327E0
2.461451837E0,8.100000024E-2,-6.339000225E0,-3.357000113E0,7.173488315E0
2.463414821E0,-6.850500107E-1,-7.450050354E0,-3.702000141E0,8.347295900E0
2.465377735E0,-1.489950061E0,-8.677050591E0,-3.664050102E0,9.536059002E0
2.467340669E0,-2.371050119E0,-1.028595066E1,-3.280050039E0,1.105356901E1
2.469303950E0,-3.253050089E0,-1.178100014E1,-2.974050045E0,1.257852427E1
2.471267129E0,-4.096050262E0,-1.316100025E1,-2.398950100E0,1.399087263E1
2.473230395E0,-4.939050198E0,-1.450200081E1,-1.516950130E0,1.539491416E1
2.475193648E0,-5.514000416E0,-1.588200092E1,-7.890000343E-1,1.683046865E1
2.477155975E0,-6.013050079E0,-1.737705040E1,-2.205000073E-2,1.838801615E1
2.479118573E0,-6.433950424E0,-1.891005135E1,7.050000429E-1,1.998706544E1
2.481081686E0,-6.778950214E0,-2.055795097E1,1.432950020E0,2.169416650E1
2.483044648E0,-7.009050369E0,-2.247405052E1,2.085000038E0,2.363380966E1
2.485007407E0,-7.315950394E0,-2.450595093E1,2.812950134E0,2.572892243E1
2.486970242E0,-7.621950150E0,-2.649900055E1,3.502950191E0,2.779499621E1
2.488933179E0,-7.966950417E0,-2.856900215E1,4.116000175E0,2.994330710E1
2.490896086E0,-8.389050484E0,-3.056205177E1,4.498950005E0,3.201024411E1
2.492859192E0,-8.580000877E0,-3.247800064E1,4.996950150E0,3.396183816E1
2.494822240E0,-8.656949997E0,-3.450900269E1,5.341950417E0,3.597708276E1
2.496785476E0,-8.848950386E0,-3.665595245E1,5.764050484E0,3.814691405E1
2.498748643E0,-8.734050751E0,-3.876405334E1,6.339000225E0,4.023827032E1
2.500711751E0,-8.389050484E0,-4.106295013E1,7.029000282E0,4.249645734E1
2.502674876E0,-7.891050339E0,-4.332495117E1,7.719000340E0,4.470909343E1
2.504638079E0,-6.931950092E0,-4.531800079E1,8.217000008E0,4.657566121E1
2.506601259E0,-5.284050465E0,-4.731105042E1,8.562000275E0,4.836904516E1
2.508564513E0,-3.022950172E0,-4.907400131E1,8.562000275E0,4.990695023E1
2.510527735E0,-1.099500060E-1,-5.072205353E1,8.332050323E0,5.140196364E1
2.512491553E0,2.955000162E0,-5.206305313E1,7.564950466E0,5.269271300E1
2.514455197E0,6.175050259E0,-5.321295166E1,6.301050186E0,5.393934282E1
2.516418493E0,9.163949966E0,-5.432505417E1,4.653000355E0,5.528869597E1
2.518381891E0,1.219200039E1,-5.520600128E1,2.889000177E0,5.661001478E1
2.520345707E0,1.556505108E1,-5.612595367E1,9.349500537E-1,5.825176068E1
2.522309380E0,1.893795013E1,-5.662395096E1,-1.824000120E0,5.973478680E1
2.524272536E0,2.169705009E1,-5.685405350E1,-5.809950352E0,6.113019634E1
2.526235843E0,2.441895103E1,-5.685405350E1,-1.086900043E1,6.282359222E1
2.528198880E0,2.648805046E1,-5.604900360E1,-1.627305031E1,6.409305569E1
2.530161997E0,2.629695129E1,-5.405595398E1,-1.918605042E1,6.310055736E1
2.532124852E0,2.376705170E1,-5.045400238E1,-1.941600037E1,5.905472185E1
2.534087776E0,2.004900169E1,-4.616100311E1,-1.876500130E1,5.371150669E1
2.536050203E0,1.533495045E1,-4.175295258E1,-1.654200172E1,4.745637549E1
2.538012776E0,1.062105083E1,-3.780600357E1,-1.278600025E1,4.129869767E1
2.539975578E0,6.213000298E0,-3.427905273E1,-8.991000175E0,3.597906215E1
2.541938313E0,2.917050123E0,-3.144300079E1,-5.887050152E0,3.212209271E1
2.543900328E0,8.089500666E-1,-2.914305115E1,-3.241950035E0,2.933397468E1
2.545862551E0,-4.170000255E-1,-2.726505089E1,-1.134000063E0,2.729180912E1
2.547824692E0,-1.375050068E0,-2.565600204E1,1.300500035E-1,2.569315311E1
2.549786858E0,-1.873050094E0,-2.423805046E1,1.050000072E0,2.433297982E1
2.551749955E0,-2.065050125E0,-2.320305061E1,1.585950017E0,2.334868791E1
2.553712779E0,-2.103000164E0,-2.239800072E1,1.930950046E0,2.257922970E1
2.555676020E0,-2.026050091E0,-2.190000153E1,2.122950077E0,2.209574309E1
2.557639149E0,-2.332950115E0,-2.143995094E1,2.200050116E0,2.167843106E1
2.559601902E0,-2.563050032E0,-2.124795151E1,2.122950077E0,2.150701248E1
2.561564766E0,-2.677950144E0,-2.113305092E1,1.930950046E0,2.138938583E1
2.563527698E0,-2.640000105E0,-2.098005104E1,1.893000126E0,2.123006339E1
2.565490610E0,-2.601000071E0,-2.086500168E1,1.930950046E0,2.111497252E1
2.567453546E0,-2.601000071E0,-2.078805161E1,1.855050087E0,2.103210645E1
2.569416467E0,-2.601000071E0,-2.090295029E1,1.701000094E0,2.113272186E1
2.571379211E0,-2.793000221E0,-2.094105148E1,1.624950051E0,2.118888742E1
2.573342007E0,-2.716050148E0,-2.105595016E1,1.585950017E0,2.128955620E1
2.575304951E0,-2.716050148E0,-2.109495163E1,1.548000097E0,2.132534213E1
2.577267851E0,-2.716050148E0,-2.117100143E1,1.510050058E0,2.139786161E1
2.579230568E0,-2.601000071E0,-2.124795151E1,1.471050024E0,2.145704157E1
2.581193329E0,-2.677950144E0,-2.117100143E1,1.471050024E0,2.139034144E1
2.583156279E0,-2.830950022E0,-2.105595016E1,1.471050024E0,2.129627441E1
2.585119173E0,-2.985000134E0,-2.094105148E1,1.471050024E0,2.120381690E1
2.587082101E0,-3.022950172E0,-2.078805161E1,1.395000100E0,2.105296517E1
2.589045019E0,-2.830950022E0,-2.074995041E1,1.395000100E0,2.098858607E1
2.591007764E0,-2.716050148E0,-2.059605026E1,1.471050024E0,2.082638238E1
2.592970560E0,-2.716050148E0,-2.029005051E1,1.395000100E0,2.051850636E1
2.594933549E0,-2.677950144E0,-1.990695000E1,1.395000100E0,2.013464925E1
2.596896481E0,-2.716050148E0,-1.952295113E1,1.356000066E0,1.975756274E1
2.598859043E0,-2.485950232E0,-1.929300117E1,1.279950023E0,1.949456629E1
2.600821714E0,-2.295000076E0,-1.891005135E1,1.203000069E0,1.908675657E1
2.602784644E0,-2.103000164E0,-1.860300064E1,1.203000069E0,1.876010266E1
2.604747491E0,-2.065050125E0,-1.810500145E1,1.126049995E0,1.825714923E1
2.606710787E0,-2.103000164E0,-1.753005028E1,9.349500537E-1,1.768048088E1
2.608673952E0,-1.834950089E0,-1.699394989E1,1.011000037E0,1.712260190E1
2.610636519E0,-1.681950092E0,-1.645695114E1,1.087950110E0,1.657841465E1
2.612599262E0,-1.452000022E0,-1.588200092E1,1.203000069E0,1.599354453E1
2.614562220E0,-1.413000107E0,-1.526895046E1,1.165050030E0,1.537838610E1
2.616525111E0,-1.144950032E0,-1.473195076E1,1.240950108E0,1.482839307E1
2.618487995E0,-9.150000215E-1,-1.419600105E1,1.318050027E0,1.428638957E1
2.620450882E0,-7.620000243E-1,-1.354395103E1,1.356000066E0,1.363297436E1
2.622413451E0,-5.700000525E-1,-1.300800037E1,1.356000066E0,1.309090180E1
2.624376113E0,-3.780000210E-1,-1.250895023E1,1.432950020E0,1.259643067E1
2.626338780E0,-1.099500060E-1,-1.201095104E1,1.510050058E0,1.210600203E1
2.628301435E0,1.570500135E-1,-1.158900070E1,1.548000097E0,1.169298534E1
2.630264403E0,1.960500032E-1,-1.105305099E1,1.585950017E0,1.116797248E1
2.632227279E0,3.490500152E-1,-1.055505085E1,1.510050058E0,1.066823254E1
2.634190886E0,3.870000243E-1,-1.005600071E1,1.510050058E0,1.017610783E1
2.636154279E0,6.169500351E-1,-9.558000565E0,1.471050024E0,9.690200736E0
2.638116987E0,6.940500140E-1,-9.097949982E0,1.395000100E0,9.230407606E0
2.640079896E0,8.850000501E-1,-8.599950790E0,1.165050030E0,8.723515361E0
2.642042956E0,1.077000022E0,-8.178000450E0,1.087950110E0,8.320051433E0
2.644005971E0,1.306950092E0,-7.717950344E0,8.959500194E-1,7.878934096E0
2.645968745E0,1.384050012E0,-7.182000160E0,7.050000429E-1,7.348043671E0
2.647931589E0,1.537050128E0,-6.684000492E0,5.130000114E-1,6.877612572E0
2.649895366E0,1.804950118E0,-6.223950386E0,3.600000143E-1,6.490377751E0
2.651858880E0,1.920000076E0,-5.764050484E0,2.830500007E-1,6.082005884E0
2.653821703E0,1.996950150E0,-5.265000343E0,2.070000172E-1,5.634792589E0
2.655784729E0,1.996950150E0,-4.767000198E0,1.300500035E-1,5.170011005E0
2.657747634E0,2.035050154E0,-4.231050014E0,1.300500035E-1,4.696820878E0
2.659710575E0,2.035050154E0,-3.694050074E0,9.195000678E-2,4.218517498E0
2.661673558E0,2.035050154E0,-3.234000206E0,9.195000678E-2,3.822125229E0
2.663636515E0,1.996950150E0,-2.851050138E0,2.070000172E-1,3.486996673E0
2.665598532E0,1.920000076E0,-2.428950071E0,3.600000143E-1,3.117017605E0
2.667560825E0,1.959000111E0,-2.046000004E0,4.360500276E-1,2.865996698E0
2.669524170E0,1.882050037E0,-1.624050021E0,6.280500293E-1,2.564000322E0
2.671487207E0,1.843950033E0,-1.279050112E0,9.349500537E-1,2.431101091E0
2.673450166E0,1.920000076E0,-1.011000037E0,1.279950023E0,2.519284309E0
2.675413141E0,1.996950150E0,-7.429500222E-1,1.432950020E0,2.567709173E0
2.677376189E0,2.111999989E0,-4.740000367E-1,1.624950051E0,2.706599833E0
2.679339216E0,2.265000105E0,-2.440500110E-1,1.893000126E0,2.961964780E0
2.681302122E0,2.341950178E0,-1.680000126E-1,2.122950077E0,3.165418088E0
2.683265064E0,2.457000017E0,-1.290000081E-1,2.161050081E0,3.274695030E0
2.685226768E0,2.533950090E0,-5.295000225E-2,2.275950193E0,3.406413957E0
2.687188834E0,2.494950056E0,9.900000691E-2,2.275950193E0,3.378539043E0
2.689151723E0,2.533950090E0,1.380000114E-1,2.238000154E0,3.383576770E0
2.691114370E0,2.572050095E0,2.910000086E-1,2.008050203E0,3.276032404E0
2.693077115E0,2.533950090E0,3.289500177E-1,1.930950046E0,3.202761192E0
2.695039832E0,2.494950056E0,4.440000355E-1,1.777950048E0,3.095645036E0
2.697002476E0,2.419050217E0,5.980500579E-1,1.663050056E0,2.995864368E0
2.698965141E0,2.419050217E0,7.129500508E-1,1.510050058E0,2.939447721E0
2.700927388E0,2.380050182E0,7.510500550E-1,1.471050024E0,2.897016263E0
2.702889757E0,2.304000139E0,8.659500480E-1,1.356000066E0,2.810164107E0
2.704852548E0,2.265000105E0,9.430500269E-1,1.011000037E0,2.653618266E0
2.706815216E0,2.304000139E0,9.810000658E-1,7.429500222E-1,2.612039913E0
2.708779075E0,2.265000105E0,1.096050024E0,4.360500276E-1,2.553760121E0
2.710742592E0,2.265000105E0,1.134000063E0,1.680000126E-1,2.538583389E0
2.712705414E0,2.227050066E0,1.173000097E0,-9.900000691E-2,2.519024062E0
2.714668440E0,2.265000105E0,1.288050056E0,-4.819500148E-1,2.649825322E0
2.716631165E0,2.227050066E0,1.363950014E0,-8.659500480E-1,2.751359868E0
2.718593979E0,2.227050066E0,1.402950048E0,-1.249050021E0,2.913442430E0
2.720556770E0,2.265000105E0,1.555950046E0,-1.747050047E0,3.256284675E0
2.722519579E0,2.304000139E0,1.594050050E0,-2.130000114E0,3.519419368E0
2.724482116E0,2.380050182E0,1.747950077E0,-2.551950216E0,3.902873076E0
2.726444733E0,2.380050182E0,1.824000120E0,-3.012000084E0,4.250148211E0
2.728407392E0,2.494950056E0,1.939050078E0,-3.586950064E0,4.780261682E0
2.730370039E0,2.610000134E0,2.053950071E0,-4.123950005E0,5.295070843E0
2.732332633E0,2.686950207E0,2.169000149E0,-4.736999989E0,5.862033090E0
2.734295223E0,2.839950085E0,2.284050226E0,-5.350050449E0,6.473425811E0
2.736258022E0,3.070050240E0,2.322000027E0,-5.887050152E0,7.033793577E0
2.738220760E0,3.223050117E0,2.437050104E0,-6.385050297E0,7.556198288E0
2.740183220E0,3.376950264E0,2.476050138E0,-6.691050529E0,7.893337353E0
2.742145762E0,3.568050146E0,2.514000177E0,-6.844950199E0,8.118160011E0
2.744108413E0,3.760050297E0,2.437050104E0,-6.997950554E0,8.309542912E0
2.746071015E0,3.952050209E0,2.437050104E0,-6.844950199E0,8.271109798E0
2.748033632E0,4.105050087E0,2.361000061E0,-6.615000248E0,8.135354066E0
2.749996245E0,4.143000126E0,2.284050226E0,-6.232050419E0,7.824307503E0
2.751958861E0,4.182000160E0,2.131050110E0,-5.772000313E0,7.439521996E0
2.753921476E0,4.182000160E0,2.092950106E0,-5.197050095E0,6.991344304E0
2.755884457E0,4.027950287E0,1.900950074E0,-4.507050037E0,6.336520712E0
2.757847327E0,3.952050209E0,1.671000123E0,-3.778950214E0,5.717639984E0
2.759810215E0,3.837000132E0,1.363950014E0,-3.088950157E0,5.111217343E0
2.761773097E0,3.568050146E0,1.018950105E0,-2.322000027E0,4.377319418E0
2.763735848E0,3.223050117E0,6.739500165E-1,-1.671000123E0,3.692492667E0
2.765698637E0,2.878050089E0,1.759500057E-1,-1.096050024E0,3.084713337E0
2.767662153E0,2.380050182E0,-1.680000126E-1,-5.590500236E-1,2.450591725E0
2.769625466E0,2.074050188E0,-4.360500276E-1,-6.105000153E-2,2.120271424E0
2.771586836E0,1.729050040E0,-7.429500222E-1,3.600000143E-1,1.916034652E0
2.773548776E0,1.459950089E0,-1.011000037E0,7.429500222E-1,1.924980539E0
2.775511506E0,1.306950092E0,-1.279050112E0,9.349500537E-1,2.053830406E0
2.777474005E0,1.269000053E0,-1.471050024E0,1.165050030E0,2.265323571E0
2.779436685E0,1.192050099E0,-1.585950017E0,1.318050027E0,2.381906121E0
2.781399312E0,1.039050102E0,-1.663050056E0,1.471050024E0,2.451397311E0
2.783362421E0,9.619500637E-1,-1.777950048E0,1.471050024E0,2.500088493E0
2.785325389E0,9.240000248E-1,-1.816050053E0,1.471050024E0,2.513125944E0
2.787288171E0,7.699500322E-1,-1.854000092E0,1.471050024E0,2.488800427E0
2.789251007E0,6.169500351E-1,-1.777950048E0,1.432950020E0,2.365392035E0
2.791212818E0,5.790000558E-1,-1.777950048E0,1.471050024E0,2.379145984E0
2.793174930E0,3.870000243E-1,-1.738950133E0,1.471050024E0,2.310347324E0
2.795137856E0,3.109500110E-1,-1.663050056E0,1.395000100E0,2.192817976E0
2.797100543E0,2.340000123E-1,-1.624050021E0,1.395000100E0,2.153675871E0
2.799063327E0,1.189500093E-1,-1.471050024E0,1.395000100E0,2.030803427E0
2.801026082E0,4.200000316E-2,-1.393950105E0,1.471050024E0,2.027029617E0
2.802989184E0,-7.200000435E-2,-1.164000034E0,1.432950020E0,1.847545897E0
2.804952174E0,-1.480500102E-1,-1.011000037E0,1.395000100E0,1.729180488E0
2.806915132E0,-2.250000089E-1,-8.580000401E-1,1.471050024E0,1.717782654E0
2.808878099E0,-2.250000089E-1,-7.429500222E-1,1.432950020E0,1.629707182E0
2.810840789E0,-2.629500031E-1,-6.660000086E-1,1.432950020E0,1.601887785E0
2.812803560E0,-3.400500119E-1,-5.509500504E-1,1.395000100E0,1.537922380E0
2.814766325E0,-3.780000210E-1,-4.740000367E-1,1.395000100E0,1.521047445E0
2.816729126E0,-3.019500077E-1,-4.360500276E-1,1.356000066E0,1.456039015E0
2.818692250E0,-3.019500077E-1,-3.589500189E-1,1.395000100E0,1.471748689E0
2.820655279E0,-3.400500119E-1,-3.210000098E-1,1.395000100E0,1.471292050E0
2.822618319E0,-3.400500119E-1,-3.210000098E-1,1.356000066E0,1.434367873E0
2.824581356E0,-3.400500119E-1,-2.440500110E-1,1.471050024E0,1.529438652E0
2.826544485E0,-4.170000255E-1,-2.059500068E-1,1.432950020E0,1.506535823E0
2.828507587E0,-3.780000210E-1,-2.440500110E-1,1.471050024E0,1.538321357E0
2.830470616E0,-3.400500119E-1,-1.680000126E-1,1.510050058E0,1.556955103E0
2.832433666E0,-3.019500077E-1,-1.680000126E-1,1.624950051E0,1.661282782E0
2.834396747E0,-3.019500077E-1,-1.680000126E-1,1.663050056E0,1.698568014E0
2.836359818E0,-2.629500031E-1,-2.059500068E-1,1.777950048E0,1.809050714E0
2.838322795E0,-2.629500031E-1,-2.059500068E-1,1.816050053E0,1.846509113E0
2.840285776E0,-2.629500031E-1,-1.680000126E-1,1.969950080E0,1.994509971E0
2.842248868E0,-1.870500147E-1,-2.059500068E-1,2.085000038E0,2.103480039E0
2.844211928E0,-1.870500147E-1,-2.059500068E-1,2.122950077E0,2.141102553E0
2.846175143E0,-2.250000089E-1,-2.059500068E-1,2.200050116E0,2.221094532E0
2.848138313E0,-1.870500147E-1,-1.680000126E-1,2.314950228E0,2.328563134E0
2.850101356E0,-3.019500077E-1,-1.680000126E-1,2.391000032E0,2.415839185E0
2.852064449E0,-3.019500077E-1,-1.290000081E-1,2.391000032E0,2.413440690E0
2.854027208E0,-4.170000255E-1,-1.290000081E-1,2.430000067E0,2.468892535E0
2.855990065E0,-4.170000255E-1,-5.295000225E-2,2.353049994E0,2.390300608E0
2.857952413E0,-4.930500090E-1,-1.500000060E-2,2.353049994E0,2.404197909E0
2.859914911E0,-4.549500346E-1,6.105000153E-2,2.353049994E0,2.397405036E0
2.861877906E0,-4.549500346E-1,6.105000153E-2,2.275950193E0,2.321778611E0
2.863840755E0,-4.549500346E-1,9.900000691E-2,2.314950228E0,2.361307920E0
2.865803871E0,-4.549500346E-1,1.380000114E-1,2.161050081E0,2.212727048E0
2.867766909E0,-4.170000255E-1,9.900000691E-2,2.046000004E0,2.090408103E0
2.869729993E0,-4.549500346E-1,1.380000114E-1,1.893000126E0,1.951787133E0
2.871693063E0,-3.780000210E-1,1.380000114E-1,1.701000094E0,1.747950039E0
2.873655948E0,-3.780000210E-1,1.380000114E-1,1.510050058E0,1.562747324E0
2.875618897E0,-3.400500119E-1,1.380000114E-1,1.471050024E0,1.516135280E0
2.877581995E0,-2.629500031E-1,9.900000691E-2,1.395000100E0,1.423014049E0
2.879545049E0,-2.250000089E-1,9.900000691E-2,1.203000069E0,1.227857960E0
2.881507951E0,-1.480500102E-1,9.900000691E-2,1.011000037E0,1.026567524E0
2.883470897E0,-7.200000435E-2,9.900000691E-2,8.200500607E-1,8.291363604E-1
2.885434746E0,-3.299999982E-2,9.900000691E-2,5.509500504E-1,5.607458955E-1
2.887398341E0,8.100000024E-2,9.900000691E-2,2.830500007E-1,3.106111786E-1
2.889361645E0,1.570500135E-1,9.900000691E-2,-6.105000153E-2,1.954298104E-1
2.891325035E0,3.109500110E-1,2.295000106E-2,-3.289500177E-1,4.532380457E-1
2.893288778E0,4.639500082E-1,2.295000106E-2,-4.819500148E-1,6.693669617E-1
2.895252418E0,6.169500351E-1,2.295000106E-2,-6.360000372E-1,8.863690516E-1
2.897215449E0,6.550500393E-1,-1.500000060E-2,-5.970000029E-1,8.864110544E-1
2.899178655E0,6.550500393E-1,-1.500000060E-2,-7.120500207E-1,9.676418687E-1
2.901142745E0,6.940500140E-1,-9.105000645E-2,-7.890000343E-1,1.054759015E0
2.903106576E0,6.550500393E-1,-1.290000081E-1,-8.659500480E-1,1.093435431E0
2.905069525E0,6.169500351E-1,-9.105000645E-2,-9.420000315E-1,1.129726298E0
2.907032732E0,6.550500393E-1,-1.290000081E-1,-1.096050024E0,1.283377268E0
2.908995842E0,6.550500393E-1,-9.105000645E-2,-1.210950017E0,1.379775562E0
2.910958973E0,6.169500351E-1,-5.295000225E-2,-1.363950014E0,1.497928800E0
2.912922175E0,5.790000558E-1,-9.105000645E-2,-1.516950130E0,1.626243791E0
2.914885356E0,5.790000558E-1,-9.105000645E-2,-1.747050047E0,1.842746601E0
2.916847695E0,5.020500422E-1,-1.290000081E-1,-1.900950074E0,1.970356930E0
2.918810281E0,3.870000243E-1,-1.290000081E-1,-1.977000117E0,2.018647935E0
2.920773291E0,3.490500152E-1,-1.680000126E-1,-2.130000114E0,2.164938892E0
2.922736187E0,3.490500152E-1,-2.440500110E-1,-2.284050226E0,2.323420271E0
2.924699250E0,3.490500152E-1,-3.589500189E-1,-2.437050104E0,2.487949806E0
2.926662264E0,4.260000288E-1,-3.979500234E-1,-2.629050016E0,2.692906280E0
2.928625218E0,3.109500110E-1,-5.130000114E-1,-2.935050249E0,2.995726771E0
2.930588189E0,3.870000243E-1,-5.509500504E-1,-3.012000084E0,3.086334312E0
2.932551254E0,3.490500152E-1,-6.280500293E-1,-3.165000200E0,3.245536785E0
2.934514312E0,3.870000243E-1,-7.039500475E-1,-3.165000200E0,3.265354645E0
2.936478248E0,5.410500169E-1,-8.190000653E-1,-2.935050249E0,3.094837022E0
2.938441927E0,7.320000529E-1,-1.048950076E0,-2.475000143E0,2.785991035E0
2.940404766E0,9.619500637E-1,-1.164000034E0,-1.900950074E0,2.427726342E0
2.942367852E0,1.153950095E0,-1.393950105E0,-1.210950017E0,2.177406177E0
2.944330728E0,1.230000019E0,-1.548000097E0,-5.590500236E-1,2.054687635E0
2.946293679E0,1.269000053E0,-1.701000094E0,1.500000060E-2,2.122259988E0
2.948255696E0,1.269000053E0,-1.854000092E0,5.130000114E-1,2.304527389E0
2.950217987E0,1.306950092E0,-2.008050203E0,9.730500579E-1,2.585964149E0
2.952181153E0,1.306950092E0,-2.161050081E0,1.432950020E0,2.903722052E0
2.954144062E0,1.345050097E0,-2.314050198E0,1.585950017E0,3.111145374E0
2.956106794E0,1.306950092E0,-2.544000149E0,1.816050053E0,3.387933455E0
2.958069588E0,1.345050097E0,-2.851050138E0,1.893000126E0,3.677104313E0
2.960032712E0,1.306950092E0,-3.196050167E0,1.930950046E0,3.956187975E0
2.961995740E0,1.306950092E0,-3.616950274E0,1.893000126E0,4.286478427E0
2.963958511E0,1.114950061E0,-4.192049980E0,1.855050087E0,4.717796890E0
2.965921358E0,6.550500393E-1,-5.074050426E0,1.740000129E0,5.403950290E0
2.967883733E0,-7.200000435E-2,-6.376950264E0,1.663050056E0,6.590630786E0
2.969846261E0,-1.144950032E0,-8.407950401E0,1.471050024E0,8.612115228E0
2.971809251E0,-2.295000076E0,-1.116795063E1,1.279950023E0,1.147294290E1
2.973772105E0,-3.330000162E0,-1.404195023E1,1.087950110E0,1.447234959E1
2.975735400E0,-4.518000126E0,-1.664895058E1,7.429500222E-1,1.726707431E1
2.977698566E0,-5.398950100E0,-1.910205078E1,7.429500222E-1,1.986426392E1
2.979661629E0,-6.127950191E0,-2.182305145E1,1.203000069E0,2.269899904E1
2.981624722E0,-6.702000141E0,-2.462100029E1,1.510050058E0,2.556150841E1
2.983587571E0,-6.894000530E0,-2.730405045E1,1.740000129E0,2.821464185E1
2.985550492E0,-6.856050491E0,-3.010200119E1,1.777950048E0,3.092405230E1
2.987513459E0,-6.511050224E0,-3.259305191E1,1.893000126E0,3.329090352E1
2.989476413E0,-5.743950367E0,-3.493095016E1,1.777950048E0,3.544468016E1
2.991439479E0,-4.633050442E0,-3.707700348E1,1.510050058E0,3.739584996E1
2.993402535E0,-3.520950079E0,-3.907005310E1,1.471050024E0,3.925595658E1
2.995365615E0,-2.256000042E0,-4.106295013E1,1.318050027E0,4.114599210E1
2.997328688E0,-1.106999993E0,-4.282605362E1,1.165050030E0,4.285619744E1
2.999292622E0,-1.870500147E-1,-4.447500229E1,9.349500537E-1,4.448522168E1
3.001256304E0,8.089500666E-1,-4.600800323E1,6.660000086E-1,4.601993392E1
3.003220075E0,1.614000082E0,-4.727205276E1,4.750500321E-1,4.730198348E1
3.005183797E0,2.764050245E0,-4.826895142E1,2.830500007E-1,4.834885481E1
3.007147080E0,3.874950171E0,-4.892100143E1,-1.759500057E-1,4.907454104E1
3.009110492E0,4.680000305E0,-4.930395126E1,-4.060500264E-1,4.952723382E1
3.011073511E0,5.599950314E0,-4.915005112E1,-2.520000041E-1,4.946868173E1
3.013036645E0,6.865050316E0,-4.880595398E1,2.449500114E-1,4.928701716E1
3.014998866E0,8.244000435E0,-4.823100281E1,1.011000037E0,4.894093681E1
3.016961348E0,9.471000671E0,-4.700400162E1,1.471050024E0,4.797124149E1
3.018924706E0,1.050600052E1,-4.535595322E1,1.356000066E0,4.657657432E1
3.020887807E0,1.161705017E1,-4.405305099E1,8.959500194E-1,4.556786020E1
3.022851916E0,1.257495022E1,-4.290300369E1,1.500000060E-2,4.470791120E1
3.024815730E0,1.387905025E1,-4.255800247E1,-1.096050024E0,4.477737080E1
3.026778727E0,1.483695030E1,-4.248105240E1,-2.284050226E0,4.505543022E1
3.028741963E0,1.529700089E1,-4.240500259E1,-3.357000113E0,4.520455653E1
3.030704968E0,1.491300106E1,-4.183005142E1,-4.621950150E0,4.464877631E1
3.032668040E0,1.391700077E1,-4.087200165E1,-6.385050297E0,4.364598832E1
3.034630803E0,1.303500080E1,-3.979905319E1,-8.148000717E0,4.266457309E1
3.036593656E0,1.165605068E1,-3.838005066E1,-9.796050072E0,4.128988258E1
3.038556919E0,9.739050865E0,-3.669405365E1,-1.067805004E1,3.943758915E1
3.040520052E0,7.630950451E0,-3.489300156E1,-1.075395012E1,3.730147994E1
3.042482985E0,5.830050468E0,-3.324495316E1,-1.010295010E1,3.523188896E1
3.044445977E0,3.913050175E0,-3.163500214E1,-9.028950691E0,3.313015654E1
3.046408347E0,1.843950033E0,-3.017805099E1,-7.803000450E0,3.122501769E1
3.048370900E0,-7.200000435E-2,-2.895195198E1,-6.270000458E0,2.962319384E1
3.050334216E0,-1.605000019E0,-2.784000206E1,-4.890000343E0,2.831172625E1
3.052297298E0,-2.677950144E0,-2.703495216E1,-3.625050068E0,2.740804706E1
3.054260375E0,-3.406050205E0,-2.649900055E1,-2.437050104E0,2.682792242E1
3.056223454E0,-3.675000191E0,-2.653695107E1,-1.671000123E0,2.684227337E1
3.058186531E0,-3.636000156E0,-2.672895050E1,-9.420000315E-1,2.699156639E1
3.060149608E0,-3.445050240E0,-2.672895050E1,-2.910000086E-1,2.695162049E1
3.062111603E0,-3.330000162E0,-2.653695107E1,2.449500114E-1,2.674618989E1
3.064073915E0,-3.367950201E0,-2.615400124E1,8.200500607E-1,2.638270932E1
3.066036942E0,-3.367950201E0,-2.565600204E1,1.165050030E0,2.590233331E1
3.067999760E0,-3.483000278E0,-2.515695190E1,1.471050024E0,2.543948718E1
3.069962746E0,-3.598050117E0,-2.458200073E1,1.548000097E0,2.489210776E1
3.071925683E0,-3.636000156E0,-2.416095161E1,1.624950051E0,2.448698721E1
3.073888458E0,-3.598050117E0,-2.373900032E1,1.740000129E0,2.407309081E1
3.075851257E0,-3.483000278E0,-2.339400101E1,1.930950046E0,2.373055293E1
3.077814155E0,-3.367950201E0,-2.312595177E1,2.238000154E0,2.347682641E1
3.079777024E0,-3.291000128E0,-2.285805130E1,2.430000067E0,2.322124225E1
3.081739956E0,-3.253050089E0,-2.262795067E1,2.467950106E0,2.299341784E1
3.083702870E0,-3.100050211E0,-2.243595123E1,2.620950222E0,2.280025436E1
3.085665626E0,-2.946000099E0,-2.220600128E1,2.698050022E0,2.256246625E1
3.087628421E0,-2.908050060E0,-2.197605133E1,2.659050226E0,2.232653433E1
3.089591230E0,-2.793000221E0,-2.178495026E1,2.545050144E0,2.211022813E1
3.091554034E0,-2.601000071E0,-2.155500031E1,2.583000183E0,2.186447185E1
3.093517158E0,-2.371050119E0,-2.136300087E1,2.698050022E0,2.166285205E1
3.095480188E0,-2.140950203E0,-2.109495163E1,2.698050022E0,2.137428656E1
3.097443463E0,-1.834950089E0,-2.082600021E1,2.506050110E0,2.105634379E1
3.099406659E0,-1.489950061E0,-2.052000046E1,2.314950228E0,2.070384903E1
3.101369356E0,-1.106999993E0,-2.029005051E1,2.353049994E0,2.045601239E1
3.103332199E0,-7.230000496E-1,-1.998300171E1,2.430000067E0,2.014318710E1
3.105294911E0,-6.469500065E-1,-1.948500061E1,2.545050144E0,1.966115646E1
3.107257661E0,-6.469500065E-1,-1.883295059E1,2.698050022E0,1.903622983E1
3.109220599E0,-7.230000496E-1,-1.814295006E1,2.620950222E0,1.834553749E1
3.111183491E0,-8.380500674E-1,-1.749195099E1,2.506050110E0,1.769042013E1
3.113146419E0,-8.770500422E-1,-1.687905121E1,2.391000032E0,1.707010450E1
3.115109337E0,-8.770500422E-1,-1.618905067E1,2.200050116E0,1.636138133E1
3.117071947E0,-8.770500422E-1,-1.561395073E1,2.008050203E0,1.576695721E1
3.119034647E0,-9.150000215E-1,-1.500105095E1,1.855050087E0,1.514298403E1
3.120997567E0,-8.770500422E-1,-1.438695049E1,1.585950017E0,1.450064822E1
3.122960419E0,-8.380500674E-1,-1.369695091E1,1.432950020E0,1.379717862E1
3.124923399E0,-6.850500107E-1,-1.319895077E1,1.356000066E0,1.328609540E1
3.126886342E0,-4.549500346E-1,-1.266300106E1,1.279950023E0,1.273565261E1
3.128849577E0,-1.870500147E-1,-1.216395092E1,1.165050030E0,1.222104870E1
3.130812727E0,-3.299999982E-2,-1.158900070E1,1.126049995E0,1.164362550E1
3.132775768E0,2.719500065E-1,-1.113000011E1,1.126049995E0,1.119012279E1
3.134738858E0,4.639500082E-1,-1.070805073E1,1.087950110E0,1.077317202E1
3.136702472E0,8.470500112E-1,-1.036305046E1,1.203000069E0,1.046697271E1
3.138665933E0,1.114950061E0,-9.979950905E0,1.203000069E0,1.011383918E1
3.140629125E0,1.422000051E0,-9.595950127E0,1.126049995E0,9.765875873E0
3.142592396E0,1.767000079E0,-9.250950813E0,1.203000069E0,9.494713761E0
3.144555158E0,1.996950150E0,-8.830050468E0,1.050000072E0,9.113731471E0
3.146518045E0,2.304000139E0,-8.485050201E0,8.580000401E-1,8.834062352E0
3.148481469E0,2.457000017E0,-8.062950134E0,6.280500293E-1,8.452364213E0
3.150444736E0,2.572050095E0,-7.642050266E0,2.830500007E-1,8.068239663E0
3.152407646E0,2.572050095E0,-7.182000160E0,9.195000678E-2,7.629221638E0
3.154370661E0,2.533950090E0,-6.645000458E0,-9.900000691E-2,7.112435247E0
3.156333597E0,2.494950056E0,-6.223950386E0,-9.900000691E-2,6.706126691E0
3.158296536E0,2.419050217E0,-5.686950207E0,-1.759500057E-1,6.182569450E0
3.160259276E0,2.341950178E0,-5.188950062E0,-2.520000041E-1,5.698546954E0
3.162222075E0,2.265000105E0,-4.729050159E0,-2.520000041E-1,5.249537588E0
3.164184839E0,2.265000105E0,-4.231050014E0,-1.759500057E-1,4.802391915E0
3.166147613E0,2.227050066E0,-3.808950186E0,-1.369500011E-1,4.414363920E0
3.168110677E0,2.149950027E0,-3.426000118E0,-9.900000691E-2,4.045931652E0
3.170073669E0,2.111999989E0,-3.004050255E0,1.500000060E-2,3.672204636E0
3.172036806E0,2.035050154E0,-2.773950100E0,1.300500035E-1,3.442839132E0
3.173999900E0,1.996950150E0,-2.467050076E0,2.449500114E-1,3.183417422E0
3.175962389E0,1.920000076E0,-2.314050198E0,3.220500052E-1,3.024060981E0
3.177925056E0,1.882050037E0,-2.083950043E0,4.360500276E-1,2.841671999E0
3.179888251E0,1.843950033E0,-1.854000092E0,6.280500293E-1,2.689221989E0
3.181851288E0,1.804950118E0,-1.738950133E0,8.959500194E-1,2.661675963E0
3.183814193E0,1.767000079E0,-1.663050056E0,1.050000072E0,2.643960082E0
3.185777137E0,1.767000079E0,-1.509000063E0,1.165050030E0,2.599367623E0
3.187739876E0,1.882050037E0,-1.432950020E0,1.356000066E0,2.726571892E0
3.189702675E0,1.804950118E0,-1.279050112E0,1.356000066E0,2.594715841E0
3.191665585E0,1.920000076E0,-1.203000069E0,1.395000100E0,2.660758301E0
3.193628486E0,1.959000111E0,-1.126049995E0,1.356000066E0,2.635224128E0
3.195591369E0,1.996950150E0,-1.011000037E0,1.395000100E0,2.637414691E0
3.197554257E0,2.035050154E0,-8.580000401E-1,1.395000100E0,2.612205673E0
3.199517051E0,2.074050188E0,-6.660000086E-1,1.279950023E0,2.526561350E0
3.201479873E0,2.111999989E0,-4.360500276E-1,1.356000066E0,2.547433955E0
3.203443012E0,2.111999989E0,-2.440500110E-1,1.240950108E0,2.461719222E0
3.205406044E0,2.035050154E0,-9.105000645E-2,1.165050030E0,2.346712765E0
3.207368228E0,1.996950150E0,2.295000106E-2,9.730500579E-1,2.221522680E0
3.209330661E0,1.959000111E0,2.530499995E-1,7.810500264E-1,2.124089188E0
3.211294523E0,1.959000111E0,4.060500264E-1,4.750500321E-1,2.056266177E0
3.213257967E0,1.920000076E0,5.980500579E-1,2.449500114E-1,2.025849124E0
3.215220481E0,1.882050037E0,7.129500508E-1,-6.105000153E-2,2.013488818E0
3.217183271E0,1.920000076E0,9.040500522E-1,-3.289500177E-1,2.147536939E0
3.219146037E0,1.959000111E0,1.018950105E0,-6.360000372E-1,2.297920102E0
3.221108810E0,2.074050188E0,1.134000063E0,-1.057050109E0,2.589400560E0
3.223071758E0,2.074050188E0,1.288050056E0,-1.479000092E0,2.854504931E0
3.225034654E0,2.149950027E0,1.479000092E0,-1.939050078E0,3.251098522E0
3.226997524E0,2.188950062E0,1.633050084E0,-2.437050104E0,3.660268864E0
3.228960411E0,2.304000139E0,1.786050081E0,-2.935050249E0,4.136775495E0
3.230923339E0,2.380050182E0,1.939050078E0,-3.510000229E0,4.663116520E0
3.232886255E0,2.457000017E0,2.131050110E0,-4.084949970E0,5.221593618E0
3.234849225E0,2.572050095E0,2.284050226E0,-4.621950150E0,5.761488550E0
3.236812179E0,2.686950207E0,2.437050104E0,-5.158050060E0,6.305901605E0
3.238775637E0,2.839950085E0,2.551950216E0,-5.542050362E0,6.729939717E0
3.240738948E0,2.917050123E0,2.706000090E0,-5.887050152E0,7.105559612E0
3.242702121E0,2.992950201E0,2.821050167E0,-6.117000103E0,7.371144091E0
3.244665334E0,3.070050240E0,2.935950041E0,-6.193050385E0,7.509919053E0
3.246628253E0,3.070050240E0,2.974050045E0,-6.001950264E0,7.368418359E0
3.248591258E0,3.031950235E0,3.051000118E0,-5.772000313E0,7.198424242E0
3.250554360E0,2.955000162E0,3.088950157E0,-5.311950207E0,6.818390868E0
3.252517423E0,2.878050089E0,3.127050161E0,-4.852050304E0,6.450116835E0
3.254480458E0,2.725050211E0,3.127050161E0,-4.353000164E0,6.012732473E0
3.256443502E0,2.610000134E0,3.051000118E0,-3.739950180E0,5.487069324E0
3.258406404E0,2.380050182E0,3.051000118E0,-3.165000200E0,4.999046595E0
3.260369348E0,2.188950062E0,2.935950041E0,-2.514000177E0,4.442015523E0
3.262332094E0,1.920000076E0,2.859000206E0,-1.900950074E0,3.933687031E0
3.264294925E0,1.537050128E0,2.706000090E0,-1.287000060E0,3.367688931E0
3.266258043E0,1.269000053E0,2.629050016E0,-7.120500207E-1,3.004876097E0
3.268221077E0,8.470500112E-1,2.322000027E0,-6.105000153E-2,2.472428957E0
3.270182495E0,2.719500065E-1,1.978050113E0,4.360500276E-1,2.043716879E0
3.272144386E0,-1.870500147E-1,1.441050053E0,9.730500579E-1,1.748839437E0
