"Time (s)","Acceleration x (m/s^2)","Acceleration y (m/s^2)","Acceleration z (m/s^2)","Absolute acceleration (m/s^2)"
3.176986700E-2,4.260000288E-1,-1.203000069E0,1.816050053E0,2.219622261E0
3.373138600E-2,3.490500152E-1,-1.126049995E0,1.816050053E0,2.165147177E0
3.569532900E-2,2.719500065E-1,-1.087950110E0,1.930950046E0,2.232971188E0
3.765807700E-2,2.340000123E-1,-9.340500236E-1,2.046000004E0,2.261265457E0
3.962117500E-2,1.570500135E-1,-8.959500194E-1,2.046000004E0,2.239086233E0
4.158412400E-2,8.100000024E-2,-7.810500264E-1,2.046000004E0,2.191510018E0
4.354710900E-2,4.200000316E-2,-7.429500222E-1,2.238000154E0,2.358470570E0
4.551020100E-2,4.200000316E-2,-7.429500222E-1,2.314950228E0,2.431611254E0
4.747326100E-2,4.050000105E-3,-7.039500475E-1,2.353049994E0,2.456095752E0
4.943616200E-2,4.200000316E-2,-6.280500293E-1,2.391000032E0,2.472466783E0
5.139910900E-2,-3.299999982E-2,-6.280500293E-1,2.467950106E0,2.546824211E0
5.336176900E-2,-1.480500102E-1,-5.509500504E-1,2.430000067E0,2.496069928E0
5.532453700E-2,-1.870500147E-1,-4.360500276E-1,2.506050110E0,2.550571404E0
5.728748600E-2,-1.870500147E-1,-3.979500234E-1,2.545050144E0,2.582756699E0
5.925038100E-2,-1.870500147E-1,-3.210000098E-1,2.620950222E0,2.647151069E0
6.121317500E-2,-1.870500147E-1,-1.680000126E-1,2.659050226E0,2.670909923E0
6.317599800E-2,-1.480500102E-1,-1.680000126E-1,2.736000061E0,2.745148292E0
6.513906700E-2,-1.870500147E-1,-1.290000081E-1,2.736000061E0,2.745418920E0
6.710206800E-2,-1.099500060E-1,-5.295000225E-2,2.736000061E0,2.738720329E0
6.906394200E-2,-7.200000435E-2,-1.500000060E-2,2.620950222E0,2.621981897E0
7.102614700E-2,-7.200000435E-2,6.105000153E-2,2.506050110E0,2.507827398E0
7.298919200E-2,8.100000024E-2,6.105000153E-2,2.430000067E0,2.432116039E0
7.495199100E-2,2.340000123E-1,9.900000691E-2,2.353049994E0,2.366727969E0
7.691512100E-2,2.340000123E-1,2.140500098E-1,2.238000154E0,2.260357959E0
7.887815000E-2,2.719500065E-1,1.759500057E-1,2.200050116E0,2.223766112E0
8.084141600E-2,3.109500110E-1,1.380000114E-1,2.161050081E0,2.187663449E0
8.280461200E-2,2.719500065E-1,1.380000114E-1,2.161050081E0,2.182461515E0
8.476744400E-2,3.870000243E-1,9.900000691E-2,2.238000154E0,2.273370782E0
8.673038300E-2,5.020500422E-1,1.380000114E-1,2.238000154E0,2.297769122E0
8.869334600E-2,3.870000243E-1,2.530499995E-1,2.314950228E0,2.360677419E0
9.065630300E-2,3.490500152E-1,2.910000086E-1,2.238000154E0,2.283672833E0
9.261904100E-2,3.490500152E-1,4.060500264E-1,2.085000038E0,2.152658286E0
9.458184300E-2,4.639500082E-1,4.830000103E-1,2.008050203E0,2.116791024E0
9.654496600E-2,5.410500169E-1,5.209500194E-1,1.969950080E0,2.108275921E0
9.850799500E-2,4.639500082E-1,5.980500579E-1,1.930950046E0,2.074001340E0
1.004707210E-1,5.020500422E-1,6.360000372E-1,1.855050087E0,2.024292745E0
1.024335360E-1,5.020500422E-1,7.129500508E-1,1.816050053E0,2.014544567E0
1.043966120E-1,4.639500082E-1,7.510500550E-1,1.701000094E0,1.916436045E0
1.063596110E-1,5.410500169E-1,7.510500550E-1,1.510050058E0,1.771175453E0
1.083231070E-1,6.169500351E-1,7.890000343E-1,1.471050024E0,1.779645069E0
1.102864570E-1,6.550500393E-1,7.890000343E-1,1.279950023E0,1.640086482E0
1.122501630E-1,6.940500140E-1,8.280000687E-1,9.349500537E-1,1.428783097E0
1.142137650E-1,8.089500666E-1,8.280000687E-1,3.220500052E-1,1.201540898E0
1.161765730E-1,8.850000501E-1,8.280000687E-1,-2.910000086E-1,1.246390873E0
1.181396130E-1,1.039050102E0,9.430500269E-1,-9.420000315E-1,1.690068794E0
1.201025610E-1,1.192050099E0,9.430500269E-1,-1.249050021E0,1.967346626E0
1.220655360E-1,1.306950092E0,9.810000658E-1,-1.171950102E0,2.010956666E0
1.240282600E-1,1.306950092E0,9.430500269E-1,-8.269500136E-1,1.811438164E0
1.259910640E-1,1.306950092E0,9.040500522E-1,-4.819500148E-1,1.660632668E0
1.279527010E-1,1.345050097E0,8.659500480E-1,-2.205000073E-2,1.599848571E0
1.299146800E-1,1.306950092E0,7.510500550E-1,3.979500234E-1,1.559025000E0
1.318774480E-1,1.384050012E0,6.360000372E-1,8.580000401E-1,1.748214675E0
1.338399850E-1,1.422000051E0,5.980500579E-1,1.318050027E0,2.029040140E0
1.358026190E-1,1.422000051E0,4.060500264E-1,1.548000097E0,2.140856153E0
1.377652210E-1,1.422000051E0,3.289500177E-1,1.701000094E0,2.241359761E0
1.397278390E-1,1.459950089E0,1.759500057E-1,1.930950046E0,2.427134266E0
1.416904520E-1,1.498950124E0,9.900000691E-2,2.122950077E0,2.600686353E0
1.436541490E-1,1.498950124E0,6.105000153E-2,2.200050116E0,2.662855439E0
1.456175290E-1,1.575000048E0,-5.295000225E-2,2.200050116E0,2.706224190E0
1.475801300E-1,1.690050125E0,-1.290000081E-1,2.122950077E0,2.716583784E0
1.495429730E-1,1.767000079E0,-2.059500068E-1,2.046000004E0,2.711239698E0
1.515055940E-1,1.843950033E0,-2.830500007E-1,1.777950048E0,2.577086611E0
1.534682810E-1,1.843950033E0,-3.979500234E-1,1.548000097E0,2.440250038E0
1.554308840E-1,1.920000076E0,-5.130000114E-1,1.279950023E0,2.363861537E0
1.573935120E-1,1.920000076E0,-7.429500222E-1,7.810500264E-1,2.201911481E0
1.593572110E-1,1.920000076E0,-1.011000037E0,2.830500007E-1,2.188295837E0
1.613205920E-1,1.920000076E0,-1.279050112E0,-2.910000086E-1,2.325306536E0
1.632834380E-1,1.920000076E0,-1.471050024E0,-8.659500480E-1,2.569096719E0
1.652464400E-1,1.843950033E0,-1.585950017E0,-1.287000060E0,2.751682819E0
1.672091240E-1,1.767000079E0,-1.816050053E0,-1.671000123E0,3.035221324E0
1.691719020E-1,1.690050125E0,-1.969050050E0,-1.824000120E0,3.171813986E0
1.711350140E-1,1.575000048E0,-2.199000120E0,-2.092050076E0,3.419488295E0
1.730980380E-1,1.575000048E0,-2.428950071E0,-2.245050192E0,3.663423803E0
1.750609900E-1,1.459950089E0,-2.697000027E0,-2.704950094E0,4.089256463E0
1.770239640E-1,1.306950092E0,-3.157050133E0,-3.625050068E0,4.981573253E0
1.789866980E-1,1.269000053E0,-3.694050074E0,-4.852050304E0,6.228865004E0
1.809495020E-1,1.077000022E0,-4.384050369E0,-5.580000401E0,7.177480836E0
1.829113530E-1,4.639500082E-1,-5.112000465E0,-5.388000488E0,7.441662961E0
1.848734590E-1,-1.870500147E-1,-5.839950085E0,-4.429950237E0,7.332425506E0
1.868361610E-1,-1.068000078E0,-6.645000458E0,-3.280050039E0,7.487014326E0
1.887986880E-1,-2.179949999E0,-7.680000305E0,-1.861950040E0,8.197648726E0
1.907605990E-1,-3.483000278E0,-8.944950104E0,-2.910000086E-1,9.603546444E0
1.927226900E-1,-4.786050320E0,-1.036305046E1,8.959500194E-1,1.144997026E1
1.946852680E-1,-6.280950069E0,-1.204905033E1,1.701000094E0,1.369391650E1
1.966476970E-1,-8.772000313E0,-1.404195023E1,2.122950077E0,1.669225188E1
1.986108400E-1,-1.111005020E1,-1.638000107E1,2.583000183E0,1.996019891E1
2.005737740E-1,-1.383105087E1,-1.883295059E1,2.773950100E0,2.353025277E1
2.025365610E-1,-1.674405098E1,-2.155500031E1,2.851050138E0,2.744284548E1
2.044993910E-1,-1.969500160E1,-2.435295105E1,3.118950129E0,3.147518329E1
2.064622700E-1,-2.237805176E1,-2.757195091E1,3.463950157E0,3.567896619E1
2.084251440E-1,-2.429505157E1,-3.098295212E1,4.384050369E0,3.961581440E1
2.103880760E-1,-2.548305130E1,-3.477795029E1,5.419050217E0,4.345408882E1
2.123509910E-1,-2.590500069E1,-3.883995056E1,6.186000347E0,4.709434595E1
2.143137810E-1,-2.575095177E1,-4.305600357E1,7.335000515E0,5.070239830E1
2.162766080E-1,-2.471595192E1,-4.715700150E1,8.791950226E0,5.396257461E1
2.182393360E-1,-2.245500183E1,-5.118195343E1,1.024800014E1,5.682289126E1
2.202020840E-1,-1.969500160E1,-5.547495270E1,1.090005016E1,5.986797607E1
2.221648560E-1,-1.570905113E1,-5.957595444E1,1.185795021E1,6.274296469E1
2.241276200E-1,-1.022895050E1,-6.325500488E1,1.097700024E1,6.501016540E1
2.260904350E-1,-5.053950310E0,-6.613005066E1,8.101950645E0,6.681592339E1
2.280532350E-1,4.050000105E-3,-6.869805145E1,5.035950184E0,6.888238588E1
2.300175660E-1,4.105050087E0,-7.088204956E1,3.600000143E-1,7.100173228E1
2.319814560E-1,8.320950508E0,-7.314405060E1,-6.844950199E0,7.393337337E1
2.339440340E-1,1.288200092E1,-7.563495636E1,-1.581300068E1,7.833673188E1
2.359069970E-1,1.648500061E1,-7.732095337E1,-2.248200035E1,8.219322001E1
2.378692370E-1,1.943595123E1,-7.743600464E1,-2.631495094E1,8.406287919E1
2.398316890E-1,1.997295189E1,-7.306695557E1,-2.750295067E1,8.058604779E1
2.417946560E-1,1.713600159E1,-6.475005341E1,-2.439900208E1,7.128480391E1
2.437574650E-1,1.222995090E1,-5.677800369E1,-2.010600090E1,6.146189612E1
2.457200480E-1,7.018050194E0,-5.022405243E1,-1.519995117E1,5.294097644E1
2.476826980E-1,2.457000017E0,-4.497300339E1,-1.037100029E1,4.621867079E1
2.496445860E-1,-6.469500065E-1,-4.060305023E1,-6.423000336E0,4.111302915E1
2.516066980E-1,-2.755050182E0,-3.711600113E1,-3.049950123E0,3.734287130E1
2.535684980E-1,-4.326000214E0,-3.389595032E1,1.300500035E-1,3.417113751E1
2.555303900E-1,-5.668050289E0,-3.094500160E1,1.126049995E0,3.147996040E1
2.574942550E-1,-6.549000263E0,-2.879895210E1,2.070000172E-1,2.953492671E1
2.594575420E-1,-6.856050491E0,-2.703495216E1,-8.269500136E-1,2.790300903E1
2.614201790E-1,-6.894000530E0,-2.580900192E1,-2.053950071E0,2.679273287E1
2.633830060E-1,-6.664050102E0,-2.496600151E1,-2.896950245E0,2.600198292E1
2.653456070E-1,-6.396000385E0,-2.435295105E1,-3.625050068E0,2.543847546E1
2.673082900E-1,-6.357000351E0,-2.377800179E1,-4.123950005E0,2.495619735E1
2.692712540E-1,-6.472050190E0,-2.331795120E1,-4.315050125E0,2.458117043E1
2.712341350E-1,-6.664050102E0,-2.308800125E1,-4.429950237E0,2.443542152E1
2.731970200E-1,-6.778950214E0,-2.297295189E1,-4.468050003E0,2.436542951E1
2.751599040E-1,-6.970950127E0,-2.278095055E1,-4.507050037E0,2.424622349E1
2.771226800E-1,-6.931950092E0,-2.270400047E1,-4.353000164E0,2.413446042E1
2.790855020E-1,-6.741000175E0,-2.274300194E1,-4.009050369E0,2.405738359E1
2.810483960E-1,-6.357000351E0,-2.289600182E1,-3.664050102E0,2.404295356E1
2.830112690E-1,-6.127950191E0,-2.308800125E1,-3.241950035E0,2.410638536E1
2.849740220E-1,-6.088950157E0,-2.320305061E1,-2.859000206E0,2.415845098E1
2.869368100E-1,-5.974050522E0,-2.327895164E1,-2.437050104E0,2.415653292E1
2.888994410E-1,-5.974050522E0,-2.327895164E1,-2.092050076E0,2.412416927E1
2.908621180E-1,-5.782950401E0,-2.327895164E1,-1.824000120E0,2.405574945E1
2.928250370E-1,-5.514000416E0,-2.324100113E1,-1.479000092E0,2.393189870E1
2.947878850E-1,-5.208000183E0,-2.312595177E1,-1.171950102E0,2.373407631E1
2.967508210E-1,-4.978050232E0,-2.293395042E1,-9.420000315E-1,2.348689912E1
2.987137310E-1,-4.824000359E0,-2.270400047E1,-7.890000343E-1,2.322423600E1
3.006765170E-1,-4.594050407E0,-2.235900116E1,-6.739500165E-1,2.283603382E1
3.026393430E-1,-4.326000214E0,-2.228295135E1,-5.590500236E-1,2.270587448E1
3.046024170E-1,-4.018949986E0,-2.193795013E1,-4.440000355E-1,2.230745954E1
3.065654180E-1,-4.018949986E0,-2.124795151E1,-2.910000086E-1,2.162665215E1
3.085283740E-1,-3.751050234E0,-2.074995041E1,-1.369500011E-1,2.108671561E1
3.104913430E-1,-3.445050240E0,-2.032800102E1,-9.900000691E-2,2.061809394E1
3.124540680E-1,-3.214950085E0,-1.983000183E1,-2.205000073E-2,2.008893633E1
3.144168720E-1,-2.830950022E0,-1.921695137E1,9.195000678E-2,1.942457085E1
3.163797690E-1,-2.677950144E0,-1.852695084E1,5.295000225E-2,1.871956538E1
3.183426390E-1,-2.485950232E0,-1.795200157E1,9.195000678E-2,1.812354170E1
3.203057520E-1,-2.103000164E0,-1.741500092E1,9.195000678E-2,1.754175936E1
3.222687930E-1,-1.681950092E0,-1.687905121E1,9.195000678E-2,1.696289423E1
3.242314980E-1,-1.375050068E0,-1.634205055E1,1.680000126E-1,1.640065861E1
3.261943150E-1,-1.030050039E0,-1.569000053E1,2.449500114E-1,1.572568346E1
3.281559940E-1,-6.079500318E-1,-1.511595058E1,3.220500052E-1,1.513159878E1
3.301180070E-1,-3.019500077E-1,-1.461705112E1,5.130000114E-1,1.462916698E1
3.320809050E-1,-3.299999982E-2,-1.411905098E1,6.660000086E-1,1.413478849E1
3.340435430E-1,3.109500110E-1,-1.358205032E1,8.580000401E-1,1.361267589E1
3.360072950E-1,5.410500169E-1,-1.304595089E1,8.959500194E-1,1.308786828E1
3.379707110E-1,6.169500351E-1,-1.247100067E1,1.087950110E0,1.253355977E1
3.399335500E-1,8.850000501E-1,-1.193400097E1,1.165050030E0,1.202335002E1
3.418965590E-1,1.306950092E0,-1.155105019E1,1.395000100E0,1.170815546E1
3.438596010E-1,1.498950124E0,-1.093800068E1,1.471050024E0,1.113780492E1
3.458226340E-1,1.882050037E0,-1.032495022E1,1.701000094E0,1.063203229E1
3.477855490E-1,2.341950178E0,-9.787950516E0,1.893000126E0,1.024071069E1
3.497484920E-1,2.649000168E0,-9.289950371E0,1.930950046E0,9.851342439E0
3.517108710E-1,2.917050123E0,-8.677050591E0,2.008050203E0,9.371907703E0
3.536734150E-1,3.184950113E0,-8.254950523E0,2.046000004E0,9.081532436E0
3.556358630E-1,3.223050117E0,-7.642050266E0,2.085000038E0,8.551971088E0
3.575983390E-1,3.376950264E0,-7.143000126E0,2.085000038E0,8.171503475E0
3.595610410E-1,3.415050268E0,-6.607050419E0,2.085000038E0,7.724176897E0
3.615236630E-1,3.645000219E0,-6.262050152E0,2.238000154E0,7.583399198E0
3.634865930E-1,3.682950258E0,-5.725050449E0,2.085000038E0,7.119518973E0
3.654494330E-1,3.529950142E0,-5.227050304E0,1.930950046E0,6.596299794E0
3.674120100E-1,3.415050268E0,-4.767000198E0,1.855050087E0,6.150452833E0
3.693746650E-1,3.262050152E0,-4.345950127E0,1.893000126E0,5.754276946E0
3.713373190E-1,3.108000040E0,-3.886050224E0,1.816050053E0,5.297083008E0
3.732999730E-1,2.992950201E0,-3.426000118E0,1.777950048E0,4.884294636E0
3.752623560E-1,2.649000168E0,-3.081000090E0,1.855050087E0,4.466651348E0
3.772248190E-1,2.494950056E0,-2.697000027E0,1.893000126E0,4.133041786E0
3.791878200E-1,2.341950178E0,-2.428950071E0,1.930950046E0,3.887556709E0
3.811506630E-1,2.111999989E0,-2.122950077E0,1.930950046E0,3.563148756E0
3.831131050E-1,1.959000111E0,-1.854000092E0,1.930950046E0,3.317162319E0
3.850756650E-1,1.690050125E0,-1.624050021E0,2.122950077E0,3.162392279E0
3.870387850E-1,1.459950089E0,-1.318050027E0,2.085000038E0,2.866345286E0
3.890017400E-1,1.345050097E0,-1.164000034E0,2.085000038E0,2.740671633E0
3.909647030E-1,1.345050097E0,-1.048950076E0,2.238000154E0,2.813911995E0
3.929276630E-1,1.269000053E0,-7.810500264E-1,2.314950228E0,2.753070075E0
3.948905410E-1,1.192050099E0,-5.130000114E-1,2.353049994E0,2.687191233E0
3.968534400E-1,1.192050099E0,-4.360500276E-1,2.430000067E0,2.741536684E0
3.988163660E-1,1.230000019E0,-2.830500007E-1,2.314950228E0,2.636666818E0
4.007792840E-1,1.345050097E0,-2.440500110E-1,2.161050081E0,2.557119009E0
4.027420290E-1,1.459950089E0,-2.440500110E-1,2.008050203E0,2.494650334E0
4.047048240E-1,1.459950089E0,-1.290000081E-1,2.008050203E0,2.486033162E0
4.066670430E-1,1.651950121E0,-5.295000225E-2,2.046000004E0,2.630182298E0
4.086294350E-1,1.804950118E0,2.295000106E-2,1.777950048E0,2.533668882E0
4.105924930E-1,1.920000076E0,9.900000691E-2,1.663050056E0,2.542033985E0
4.125553560E-1,1.996950150E0,1.380000114E-1,1.585950017E0,2.553838554E0
4.145182440E-1,1.996950150E0,3.289500177E-1,1.510050058E0,2.525127560E0
4.164811250E-1,2.035050154E0,4.060500264E-1,1.471050024E0,2.543677245E0
4.184440550E-1,1.996950150E0,4.830000103E-1,1.318050027E0,2.440974146E0
4.204069710E-1,1.959000111E0,5.590500236E-1,1.126049995E0,2.327704224E0
4.223695810E-1,1.920000076E0,5.980500579E-1,8.959500194E-1,2.201542778E0
4.243322810E-1,1.843950033E0,6.739500165E-1,5.899500251E-1,2.049975947E0
4.262959620E-1,1.804950118E0,7.890000343E-1,2.830500007E-1,1.990096301E0
4.282593560E-1,1.690050125E0,9.040500522E-1,1.500000060E-2,1.916716182E0
4.302222130E-1,1.575000048E0,9.430500269E-1,-2.520000041E-1,1.852963169E0
4.321852180E-1,1.537050128E0,1.018950105E0,-5.209500194E-1,1.916291036E0
4.341479010E-1,1.422000051E0,1.057950020E0,-8.659500480E-1,1.972615491E0
4.361106790E-1,1.345050097E0,1.096050024E0,-1.134000063E0,2.072785942E0
4.380732670E-1,1.345050097E0,1.210950017E0,-1.479000092E0,2.337306351E0
4.400359100E-1,1.306950092E0,1.288050056E0,-1.900950074E0,2.642120867E0
4.419987000E-1,1.306950092E0,1.363950014E0,-2.245050192E0,2.934063488E0
4.439614470E-1,1.306950092E0,1.441050053E0,-2.590050220E0,3.239306090E0
4.459242650E-1,1.306950092E0,1.441050053E0,-2.935050249E0,3.521258832E0
4.478870620E-1,1.306950092E0,1.518000126E0,-3.280050039E0,3.843328139E0
4.498499620E-1,1.306950092E0,1.594050050E0,-3.586950064E0,4.137067182E0
4.518128310E-1,1.269000053E0,1.633050084E0,-3.894000292E0,4.409132793E0
4.537758130E-1,1.269000053E0,1.671000123E0,-4.123950005E0,4.627047243E0
4.557387590E-1,1.306950092E0,1.708950043E0,-4.315050125E0,4.821647683E0
4.577016350E-1,1.306950092E0,1.747950077E0,-4.392000198E0,4.904397390E0
4.596645310E-1,1.269000053E0,1.786050081E0,-4.392000198E0,4.908156657E0
4.616273230E-1,1.306950092E0,1.824000120E0,-4.237950325E0,4.795343360E0
4.635901460E-1,1.269000053E0,1.863000035E0,-3.970050097E0,4.565350812E0
4.655530800E-1,1.230000019E0,1.863000035E0,-3.664050102E0,4.290563172E0
4.675159850E-1,1.269000053E0,1.863000035E0,-3.204000235E0,3.917492536E0
4.694789110E-1,1.230000019E0,1.900950074E0,-2.743950129E0,3.557495403E0
4.714418310E-1,1.230000019E0,1.939050078E0,-2.284050226E0,3.238780741E0
4.734047110E-1,1.114950061E0,1.863000035E0,-1.824000120E0,2.835640881E0
4.753676030E-1,1.077000022E0,1.863000035E0,-1.363950014E0,2.547755447E0
4.773305610E-1,1.000050068E0,1.900950074E0,-9.420000315E-1,2.345437141E0
4.792935100E-1,9.240000248E-1,1.824000120E0,-4.440000355E-1,2.092340440E0
4.812556630E-1,9.240000248E-1,1.824000120E0,-2.205000073E-2,2.044807738E0
4.832180500E-1,8.850000501E-1,1.824000120E0,3.600000143E-1,2.059077837E0
4.851808840E-1,8.089500666E-1,1.786050081E0,8.580000401E-1,2.140219421E0
4.871435870E-1,7.699500322E-1,1.786050081E0,1.203000069E0,2.286920880E0
4.891065570E-1,6.940500140E-1,1.786050081E0,1.395000100E0,2.370169950E0
4.910694420E-1,6.550500393E-1,1.708950043E0,1.585950017E0,2.421742814E0
4.930322370E-1,5.790000558E-1,1.747950077E0,1.893000126E0,2.640836991E0
4.949950590E-1,5.790000558E-1,1.633050084E0,2.085000038E0,2.710962707E0
4.969575940E-1,5.020500422E-1,1.633050084E0,2.353049994E0,2.907877421E0
4.989202130E-1,4.639500082E-1,1.594050050E0,2.545050144E0,3.038671652E0
5.008830070E-1,3.870000243E-1,1.555950046E0,2.659050226E0,3.105043908E0
5.028457500E-1,3.109500110E-1,1.518000126E0,2.698050022E0,3.111348295E0
5.048085690E-1,3.490500152E-1,1.402950048E0,2.736000061E0,3.094479130E0
5.067713650E-1,3.109500110E-1,1.402950048E0,2.698050022E0,3.056866479E0
5.087340850E-1,2.340000123E-1,1.326000094E0,2.736000061E0,3.049381673E0
5.106968280E-1,1.960500032E-1,1.288050056E0,2.698050022E0,2.996161289E0
5.126599760E-1,1.189500093E-1,1.210950017E0,2.620950222E0,2.889624390E0
5.146229950E-1,8.100000024E-2,1.210950017E0,2.391000032E0,2.681388092E0
5.165857680E-1,4.050000105E-3,1.134000063E0,2.314950228E0,2.577783370E0
5.185486130E-1,4.050000105E-3,1.134000063E0,2.200050116E0,2.475114756E0
5.205116840E-1,-3.299999982E-2,1.057950020E0,2.046000004E0,2.303576189E0
5.224746880E-1,4.050000105E-3,1.018950105E0,1.855050087E0,2.116479753E0
5.244378220E-1,-1.099500060E-1,9.810000658E-1,1.777950048E0,2.033606773E0
5.264009180E-1,-7.200000435E-2,9.430500269E-1,1.624950051E0,1.880156914E0
5.283643080E-1,-1.099500060E-1,8.659500480E-1,1.510050058E0,1.744193128E0
5.303276110E-1,-7.200000435E-2,8.280000687E-1,1.471050024E0,1.689602405E0
5.322905150E-1,-1.099500060E-1,7.890000343E-1,1.432950020E0,1.639498648E0
5.342535360E-1,-7.200000435E-2,7.890000343E-1,1.356000066E0,1.570490762E0
5.362163820E-1,-7.200000435E-2,7.510500550E-1,1.240950108E0,1.452314482E0
5.381792900E-1,-1.099500060E-1,7.129500508E-1,1.165050030E0,1.370302284E0
5.401420360E-1,-1.480500102E-1,7.510500550E-1,1.126049995E0,1.361610658E0
5.421048290E-1,-1.870500147E-1,7.510500550E-1,1.126049995E0,1.366401290E0
5.440679530E-1,-1.870500147E-1,6.739500165E-1,1.087950110E0,1.293379981E0
5.460309800E-1,-2.250000089E-1,7.510500550E-1,1.050000072E0,1.310420291E0
5.479937520E-1,-1.480500102E-1,6.360000372E-1,1.011000037E0,1.203551382E0
5.499565980E-1,-1.099500060E-1,5.209500194E-1,9.349500537E-1,1.075922641E0
5.519193540E-1,4.200000316E-2,3.679500222E-1,8.959500194E-1,9.694728755E-1
5.538821360E-1,1.570500135E-1,2.140500098E-1,9.730500579E-1,1.008617137E0
5.558450820E-1,2.719500065E-1,9.900000691E-2,8.959500194E-1,9.415329227E-1
5.578079800E-1,3.490500152E-1,-1.500000060E-2,9.349500537E-1,9.980944424E-1
5.597719890E-1,4.639500082E-1,-1.680000126E-1,9.730500579E-1,1.091008721E0
5.617356730E-1,6.169500351E-1,-2.059500068E-1,9.349500537E-1,1.138935623E0
5.636979260E-1,6.169500351E-1,-2.440500110E-1,9.349500537E-1,1.146437681E0
5.656605980E-1,6.940500140E-1,-3.210000098E-1,9.349500537E-1,1.207840234E0
5.676233370E-1,6.550500393E-1,-4.360500276E-1,9.349500537E-1,1.222031826E0
5.695860570E-1,6.550500393E-1,-4.740000367E-1,8.580000401E-1,1.178953204E0
5.715486960E-1,7.320000529E-1,-5.130000114E-1,8.580000401E-1,1.239014592E0
5.735113620E-1,7.699500322E-1,-5.509500504E-1,7.810500264E-1,1.227358201E0
5.754741030E-1,8.470500112E-1,-6.660000086E-1,7.810500264E-1,1.330822632E0
5.774368220E-1,8.850000501E-1,-6.660000086E-1,6.660000086E-1,1.292415224E0
5.793997800E-1,9.619500637E-1,-7.039500475E-1,6.280500293E-1,1.347345699E0
5.813626680E-1,1.039050102E0,-7.810500264E-1,5.899500251E-1,1.427482151E0
5.833255930E-1,1.039050102E0,-7.810500264E-1,4.750500321E-1,1.383956933E0
5.852885100E-1,1.077000022E0,-9.340500236E-1,4.360500276E-1,1.490811229E0
5.872522000E-1,1.192050099E0,-9.340500236E-1,3.220500052E-1,1.548272938E0
5.892156640E-1,1.269000053E0,-9.730500579E-1,2.070000172E-1,1.612462886E0
5.911784500E-1,1.306950092E0,-9.730500579E-1,5.295000225E-2,1.630260305E0
5.931414350E-1,1.384050012E0,-1.087950110E0,-9.900000691E-2,1.763244418E0
5.951041670E-1,1.537050128E0,-1.126049995E0,-1.369500011E-1,1.910305471E0
5.970669740E-1,1.651950121E0,-1.203000069E0,-2.910000086E-1,2.064177650E0
5.990297360E-1,1.767000079E0,-1.240950108E0,-3.289500177E-1,2.184137029E0
6.009925120E-1,1.920000076E0,-1.318050027E0,-4.060500264E-1,2.364007781E0
6.029551450E-1,2.035050154E0,-1.356000066E0,-5.209500194E-1,2.500310827E0
6.049178200E-1,2.035050154E0,-1.393950105E0,-4.819500148E-1,2.513324858E0
6.068805980E-1,2.149950027E0,-1.432950020E0,-4.819500148E-1,2.628289690E0
6.088433500E-1,2.265000105E0,-1.471050024E0,-5.209500194E-1,2.750564046E0
6.108059430E-1,2.380050182E0,-1.471050024E0,-4.060500264E-1,2.827278491E0
6.127685830E-1,2.341950178E0,-1.471050024E0,-2.520000041E-1,2.777088910E0
6.147311940E-1,2.304000139E0,-1.471050024E0,-2.205000073E-2,2.733658907E0
6.166938140E-1,2.265000105E0,-1.471050024E0,2.070000172E-1,2.708701286E0
6.186556880E-1,2.341950178E0,-1.471050024E0,4.360500276E-1,2.799796142E0
6.206177940E-1,2.341950178E0,-1.471050024E0,6.660000086E-1,2.844692395E0
6.225809910E-1,2.304000139E0,-1.393950105E0,8.200500607E-1,2.814959260E0
6.245438690E-1,2.341950178E0,-1.471050024E0,7.810500264E-1,2.873805483E0
6.265066650E-1,2.380050182E0,-1.432950020E0,7.810500264E-1,2.885831557E0
6.284694860E-1,2.380050182E0,-1.432950020E0,7.429500222E-1,2.875753704E0
6.304322110E-1,2.419050217E0,-1.393950105E0,7.429500222E-1,2.889095980E0
6.323949580E-1,2.457000017E0,-1.356000066E0,6.280500293E-1,2.875766350E0
6.343571900E-1,2.494950056E0,-1.318050027E0,5.899500251E-1,2.882719669E0
6.363195730E-1,2.457000017E0,-1.240950108E0,7.050000429E-1,2.841448806E0
6.382824070E-1,2.533950090E0,-1.240950108E0,7.050000429E-1,2.908244366E0
6.402451090E-1,2.533950090E0,-1.203000069E0,7.429500222E-1,2.901738610E0
6.422077800E-1,2.533950090E0,-1.126049995E0,7.810500264E-1,2.880786489E0
6.441704430E-1,2.457000017E0,-1.087950110E0,7.429500222E-1,2.787913066E0
6.461335450E-1,2.341950178E0,-1.011000037E0,5.509500504E-1,2.609673863E0
6.480965180E-1,2.341950178E0,-9.730500579E-1,3.220500052E-1,2.556418052E0
6.500597930E-1,2.227050066E0,-9.340500236E-1,-2.205000073E-2,2.415095784E0
6.520229800E-1,2.111999989E0,-9.340500236E-1,-3.289500177E-1,2.332638316E0
6.539853680E-1,2.111999989E0,-1.011000037E0,-7.890000343E-1,2.470867475E0
6.559479870E-1,2.035050154E0,-1.011000037E0,-1.171950102E0,2.556759129E0
6.579107360E-1,1.959000111E0,-1.087950110E0,-1.441050053E0,2.664196339E0
6.598734460E-1,1.882050037E0,-1.240950108E0,-1.516950130E0,2.717205773E0
6.618364060E-1,1.882050037E0,-1.318050027E0,-1.632000089E0,2.818296029E0
6.637992920E-1,1.804950118E0,-1.393950105E0,-1.747050047E0,2.872825384E0
6.657619210E-1,1.690050125E0,-1.471050024E0,-1.861950040E0,2.913265444E0
6.677246160E-1,1.767000079E0,-1.624050021E0,-1.939050078E0,3.085408070E0
6.696873970E-1,1.651950121E0,-1.701000094E0,-2.014950037E0,3.111649751E0
6.716501530E-1,1.575000048E0,-1.854000092E0,-2.130000114E0,3.233394807E0
6.736128800E-1,1.498950124E0,-2.008050203E0,-2.284050226E0,3.390575545E0
6.755756160E-1,1.384050012E0,-2.238000154E0,-2.514000177E0,3.639290593E0
6.775382020E-1,1.306950092E0,-2.391000032E0,-2.629050016E0,3.786410396E0
6.795008380E-1,1.269000053E0,-2.620950222E0,-2.743950129E0,4.001125280E0
6.814634500E-1,1.192050099E0,-2.812050104E0,-2.743950129E0,4.105833842E0
6.834260690E-1,1.077000022E0,-2.965950251E0,-2.551950216E0,4.058231122E0
6.853885030E-1,9.240000248E-1,-3.004050255E0,-2.169000149E0,3.818724345E0
6.873509920E-1,8.089500666E-1,-3.081000090E0,-1.632000089E0,3.579159965E0
6.893127470E-1,6.169500351E-1,-3.118950129E0,-9.040500522E-1,3.305417333E0
6.912747030E-1,4.639500082E-1,-3.118950129E0,-6.105000153E-2,3.153859004E0
6.932367090E-1,4.260000288E-1,-3.118950129E0,8.200500607E-1,3.252969110E0
6.951987010E-1,2.719500065E-1,-3.081000090E0,1.318050027E0,3.362108599E0
6.971612880E-1,1.189500093E-1,-3.042000055E0,1.510050058E0,3.398259057E0
6.991237010E-1,-1.480500102E-1,-3.157050133E0,1.740000129E0,3.607836581E0
7.010863320E-1,-4.930500090E-1,-3.502050161E0,1.777950048E0,3.958353195E0
7.030489130E-1,-1.106999993E0,-4.192049980E0,1.777950048E0,4.686132563E0
7.050116690E-1,-2.869950056E0,-6.147000313E0,1.548000097E0,6.958342509E0
7.069743740E-1,-6.741000175E0,-9.711000443E0,1.356000066E0,1.189888016E1
7.089372000E-1,-1.168500042E1,-1.369695091E1,1.165050030E0,1.804170282E1
7.108999900E-1,-1.636095047E1,-1.718505096E1,9.730500579E-1,2.374770522E1
7.128623270E-1,-2.092200089E1,-2.052000046E1,7.429500222E-1,2.931471498E1
7.148248140E-1,-2.425605202E1,-2.439105034E1,1.432950020E0,3.442866163E1
7.167874500E-1,-2.674800110E1,-2.845395088E1,2.583000183E0,3.913763883E1
7.187500430E-1,-2.870205116E1,-3.247800064E1,3.541050196E0,4.348755343E1
7.207125280E-1,-2.996700096E1,-3.677099991E1,4.461000443E0,4.764481195E1
7.226750450E-1,-3.012105179E1,-4.102500153E1,5.725950241E0,5.121635498E1
7.246374820E-1,-2.969895172E1,-4.485795212E1,7.219950199E0,5.428067135E1
7.265999530E-1,-2.747595215E1,-4.815405273E1,8.599950790E0,5.610436609E1
7.285623680E-1,-2.448600197E1,-5.102895355E1,9.634950638E0,5.741385431E1
7.305247990E-1,-2.095995140E1,-5.390295410E1,1.009500027E1,5.870908834E1
7.324872650E-1,-1.708905029E1,-5.658600235E1,1.024800014E1,5.999193953E1
7.344497200E-1,-1.249005032E1,-5.942205429E1,1.074705029E1,6.166426017E1
7.364124130E-1,-7.852050304E0,-6.260295486E1,1.009500027E1,6.389595983E1
7.383750330E-1,-3.865950108E0,-6.597600555E1,8.715000153E0,6.666130892E1
7.403386840E-1,-1.099500060E-1,-6.984705353E1,7.029000282E0,7.019992750E1
7.423020330E-1,3.415050268E0,-7.348905182E1,3.963000298E0,7.367502071E1
7.442648840E-1,6.940950394E0,-7.693800354E1,-1.210950017E0,7.725994810E1
7.462278810E-1,1.131105042E1,-7.850895691E1,-9.834000587E0,7.992686497E1
7.481907910E-1,1.702095032E1,-7.850895691E1,-2.520405197E1,8.419390299E1
7.501537270E-1,2.311500168E1,-7.831800079E1,-3.969195175E1,9.079352171E1
7.521159720E-1,2.315400124E1,-7.168695068E1,-4.080300140E1,8.567386763E1
7.540784190E-1,1.966605186E1,-6.244995117E1,-3.720000076E1,7.530332034E1
7.560410170E-1,1.506705093E1,-5.436300278E1,-3.229395294E1,6.500193452E1
7.580035710E-1,9.318000793E0,-4.723395157E1,-2.485905075E1,5.418342665E1
7.599651620E-1,3.760050297E0,-4.098705292E1,-1.592805099E1,4.413365262E1
7.619270350E-1,-5.700000525E-1,-3.531405258E1,-8.185950279E0,3.625488921E1
7.638897320E-1,-4.402950287E0,-3.136605072E1,-4.353000164E0,3.197129524E1
7.658521870E-1,-6.664050102E0,-2.879895210E1,-2.322000027E0,2.965098464E1
7.678148750E-1,-8.121000290E0,-2.657595062E1,-1.441050053E0,2.782639794E1
7.697774940E-1,-8.619000435E0,-2.515695190E1,-1.096050024E0,2.661504693E1
7.717401100E-1,-8.542050362E0,-2.389305115E1,-7.890000343E-1,2.538635536E1
7.737027270E-1,-8.464950562E0,-2.266605186E1,-4.440000355E-1,2.419922377E1
7.756652970E-1,-8.311950684E0,-2.178495026E1,-6.739500165E-1,2.332652547E1
7.776278810E-1,-8.350950241E0,-2.101800156E1,-1.057050109E0,2.264093890E1
7.795905460E-1,-7.891050339E0,-2.048100090E1,-1.326000094E0,2.198859590E1
7.815531870E-1,-7.123950481E0,-2.005995178E1,-1.287000060E0,2.132624452E1
7.835161630E-1,-6.511050224E0,-1.967700005E1,-1.249050021E0,2.076386842E1
7.854790380E-1,-5.974050522E0,-1.948500061E1,-1.057050109E0,2.040764277E1
7.874417450E-1,-5.743950367E0,-1.936995125E1,-9.040500522E-1,2.022387905E1
7.894045010E-1,-5.668050289E0,-1.940805054E1,-8.269500136E-1,2.023568793E1
7.913673170E-1,-5.553000450E0,-1.963800049E1,-5.590500236E-1,2.041566590E1
7.933301150E-1,-5.514000416E0,-1.979205132E1,-3.289500177E-1,2.054842339E1
7.952927050E-1,-5.398950100E0,-1.998300171E1,-1.369500011E-1,2.069994625E1
7.972553530E-1,-5.169000149E0,-2.021295166E1,-6.105000153E-2,2.086350173E1
7.992180970E-1,-4.978050232E0,-2.059605026E1,5.295000225E-2,2.118917351E1
8.011808120E-1,-4.786050320E0,-2.094105148E1,1.680000126E-1,2.148166983E1
8.031435910E-1,-4.633050442E0,-2.128605080E1,9.195000678E-2,2.178461773E1
8.051063510E-1,-4.594050407E0,-2.155500031E1,1.300500035E-1,2.203951565E1
8.070687620E-1,-4.633050442E0,-2.186100197E1,1.680000126E-1,2.234718746E1
8.090312760E-1,-4.594050407E0,-2.209095192E1,1.300500035E-1,2.256396173E1
8.109933680E-1,-4.555950165E0,-2.232105064E1,2.449500114E-1,2.278258072E1
8.129555830E-1,-4.518000126E0,-2.235900116E1,4.360500276E-1,2.281506953E1
8.149186270E-1,-4.479000092E0,-2.228295135E1,6.280500293E-1,2.273732196E1
8.168814280E-1,-4.518000126E0,-2.212995148E1,8.959500194E-1,2.260419881E1
8.188442280E-1,-4.518000126E0,-2.190000153E1,1.165050030E0,2.239151030E1
8.208070340E-1,-4.441050053E0,-2.159295082E1,1.471050024E0,2.209394575E1
8.227694370E-1,-4.210950375E0,-2.132505035E1,1.624950051E0,2.179748468E1
8.247319590E-1,-3.865950108E0,-2.109495163E1,2.085000038E0,2.154738452E1
8.266945440E-1,-3.406050205E0,-2.071095085E1,2.736000061E0,2.116672765E1
8.286571110E-1,-2.908050060E0,-2.040495110E1,3.118950129E0,2.084578217E1
8.306200950E-1,-2.371050119E0,-1.990695000E1,3.618000269E0,2.037151106E1
8.325829570E-1,-1.950000048E0,-1.936995125E1,4.000950336E0,1.987473560E1
8.345455310E-1,-1.987950087E0,-1.887195015E1,4.423050404E0,1.948501534E1
8.365081900E-1,-1.528050065E0,-1.837305069E1,4.729050159E0,1.903333507E1
8.384707980E-1,-6.850500107E-1,-1.783695030E1,4.959000111E0,1.852613753E1
8.404334210E-1,-3.019500077E-1,-1.726200104E1,5.304000378E0,1.806101530E1
8.423968280E-1,1.570500135E-1,-1.672500038E1,5.380950451E0,1.757000086E1
8.443599850E-1,5.790000558E-1,-1.618905067E1,5.533950329E0,1.711856329E1
8.463228690E-1,8.850000501E-1,-1.553700066E1,5.380950451E0,1.646621518E1
8.482858330E-1,1.039050102E0,-1.488600063E1,5.188950062E0,1.579866585E1
8.502485240E-1,1.077000022E0,-1.423395061E1,4.882050037E0,1.508640752E1
8.522112950E-1,1.306950092E0,-1.362105083E1,4.498950005E0,1.440422492E1
8.541741080E-1,1.498950124E0,-1.308405018E1,4.231050014E0,1.383260658E1
8.561369080E-1,1.804950118E0,-1.262400055E1,3.847950220E0,1.332028362E1
8.580996280E-1,2.111999989E0,-1.224105072E1,3.541050196E0,1.291676829E1
8.600623720E-1,2.380050182E0,-1.178100014E1,3.157950163E0,1.242695668E1
8.620250100E-1,2.419050217E0,-1.128300095E1,2.851050138E0,1.188639563E1
8.639876790E-1,2.494950056E0,-1.074600029E1,2.545050144E0,1.132159787E1
8.659506640E-1,2.494950056E0,-1.032495022E1,2.238000154E0,1.085532208E1
8.679135430E-1,2.572050095E0,-9.787950516E0,1.777950048E0,1.027523836E1
8.698762490E-1,2.572050095E0,-9.289950371E0,1.471050024E0,9.751031112E0
8.718390060E-1,2.686950207E0,-8.868000031E0,1.318050027E0,9.359400720E0
8.738021370E-1,2.686950207E0,-8.446949959E0,1.011000037E0,8.921478919E0
8.757651580E-1,2.764050245E0,-8.025000572E0,7.429500222E-1,8.520128090E0
8.777288020E-1,2.917050123E0,-7.603050232E0,3.979500234E-1,8.153153897E0
8.796922840E-1,3.070050240E0,-7.105050564E0,2.449500114E-1,7.743833191E0
8.816552470E-1,3.300000191E0,-6.684000492E0,1.300500035E-1,7.455385761E0
8.836183630E-1,3.376950264E0,-6.262050152E0,-2.205000073E-2,7.114601281E0
8.855809380E-1,3.453000069E0,-5.802000046E0,-1.759500057E-1,6.754063400E0
8.875436710E-1,3.607050180E0,-5.341950417E0,-4.060500264E-1,6.458492230E0
8.895066120E-1,3.645000219E0,-4.843950272E0,-4.819500148E-1,6.081295639E0
8.914694700E-1,3.721950293E0,-4.384050369E0,-6.360000372E-1,5.785957800E0
8.934322700E-1,3.682950258E0,-3.924000263E0,-7.510500550E-1,5.433781083E0
8.953950870E-1,3.760050297E0,-3.502050161E0,-7.120500207E-1,5.187422173E0
8.973580270E-1,3.645000219E0,-3.081000090E0,-7.510500550E-1,4.831424669E0
8.993209310E-1,3.607050180E0,-2.620950222E0,-8.269500136E-1,4.534758802E0
9.012835220E-1,3.529950142E0,-2.275950193E0,-7.120500207E-1,4.259989732E0
9.032461880E-1,3.337950230E0,-1.854000092E0,-6.360000372E-1,3.870881569E0
9.052087500E-1,3.184950113E0,-1.585950017E0,-4.440000355E-1,3.585565606E0
9.071713420E-1,2.992950201E0,-1.279050112E0,-2.910000086E-1,3.267782291E0
9.091338260E-1,2.802000046E0,-1.048950076E0,-1.369500011E-1,2.995038534E0
9.110963420E-1,2.610000134E0,-7.810500264E-1,9.195000678E-2,2.725911709E0
9.130589970E-1,2.533950090E0,-5.509500504E-1,2.449500114E-1,2.604697588E0
9.150215950E-1,2.533950090E0,-4.740000367E-1,2.830500007E-1,2.593394763E0
9.169836290E-1,2.419050217E0,-2.830500007E-1,5.899500251E-1,2.505985292E0
9.189458280E-1,2.227050066E0,-1.290000081E-1,8.580000401E-1,2.390095619E0
9.209074780E-1,2.149950027E0,-1.500000060E-2,8.959500194E-1,2.329213721E0
9.228692890E-1,2.074050188E0,9.900000691E-2,9.349500537E-1,2.277194938E0
9.248316770E-1,1.959000111E0,2.530499995E-1,9.730500579E-1,2.201940542E0
9.267938980E-1,1.920000076E0,3.289500177E-1,1.087950110E0,2.231197851E0
9.287565810E-1,1.959000111E0,3.679500222E-1,1.126049995E0,2.289335547E0
9.307191290E-1,1.843950033E0,4.440000355E-1,1.087950110E0,2.186532231E0
9.326820710E-1,1.767000079E0,5.980500579E-1,1.050000072E0,2.140666555E0
9.346448980E-1,1.729050040E0,6.360000372E-1,9.349500537E-1,2.065972336E0
9.366075270E-1,1.614000082E0,7.510500550E-1,7.810500264E-1,1.943993723E0
9.385702120E-1,1.537050128E0,7.510500550E-1,5.509500504E-1,1.797260482E0
9.405338510E-1,1.422000051E0,8.659500480E-1,3.979500234E-1,1.711817119E0
9.424972100E-1,1.345050097E0,9.040500522E-1,1.300500035E-1,1.625847244E0
9.444604200E-1,1.269000053E0,1.018950105E0,-2.205000073E-2,1.627607647E0
9.464236740E-1,1.192050099E0,1.096050024E0,-2.520000041E-1,1.638845050E0
9.483863410E-1,1.114950061E0,1.210950017E0,-6.739500165E-1,1.778685528E0
9.503491930E-1,9.240000248E-1,1.288050056E0,-1.057050109E0,1.905309404E0
9.523119480E-1,8.470500112E-1,1.441050053E0,-1.555950046E0,2.283659239E0
9.542747320E-1,7.320000529E-1,1.555950046E0,-2.245050192E0,2.827906467E0
9.562373180E-1,6.940500140E-1,1.786050081E0,-3.319050074E0,3.832463138E0
9.581999620E-1,6.550500393E-1,2.053950071E0,-4.774950027E0,5.239079043E0
9.601626030E-1,6.940500140E-1,2.284050226E0,-6.307950497E0,6.744540779E0
9.621252540E-1,7.699500322E-1,2.590950012E0,-7.879950523E0,8.330634146E0
9.640881790E-1,8.470500112E-1,2.896950245E0,-9.183000565E0,9.666297834E0
9.660510230E-1,9.619500637E-1,3.166050196E0,-1.037100029E1,1.088608602E1
9.680134200E-1,1.077000022E0,3.357000113E0,-1.136700058E1,1.190117981E1
9.699759480E-1,1.114950061E0,3.549000263E0,-1.198095036E1,1.254518585E1
9.719385910E-1,1.230000019E0,3.741000175E0,-1.217205048E1,1.279323240E1
9.739011910E-1,1.306950092E0,3.817050219E0,-1.198095036E1,1.264203948E1
9.758640350E-1,1.345050097E0,3.931950092E0,-1.148205090E1,1.221093297E1
9.778268070E-1,1.498950124E0,3.970950127E0,-1.067805004E1,1.149069402E1
9.797897110E-1,1.651950121E0,3.894000292E0,-9.643050194E0,1.052998549E1
9.817525760E-1,1.690050125E0,3.856050253E0,-8.416049957E0,9.410382025E0
9.837151400E-1,1.843950033E0,3.741000175E0,-7.228050232E0,8.345055074E0
9.856777990E-1,1.843950033E0,3.625950098E0,-6.117000103E0,7.346111631E0
9.876402720E-1,1.920000076E0,3.433950186E0,-4.890000343E0,6.276186544E0
9.896027990E-1,1.996950150E0,3.204000235E0,-3.739950180E0,5.314193707E0
9.915652490E-1,2.035050154E0,2.974050045E0,-2.782050133E0,4.552604281E0
9.935277220E-1,2.074050188E0,2.667000055E0,-1.939050078E0,3.895444607E0
9.954903560E-1,1.996950150E0,2.398950100E0,-1.096050024E0,3.308186382E0
9.974529460E-1,1.767000079E0,2.053950071E0,-4.060500264E-1,2.739685529E0
9.994146200E-1,1.459950089E0,1.633050084E0,3.979500234E-1,2.226358251E0
1.001376563E0,1.192050099E0,1.173000097E0,1.011000037E0,1.954234823E0
1.003338392E0,8.470500112E-1,8.280000687E-1,1.510050058E0,1.919200097E0
1.005300255E0,5.410500169E-1,3.679500222E-1,1.969950080E0,2.075771099E0
1.007263896E0,3.490500152E-1,1.380000114E-1,2.467950106E0,2.496328833E0
1.009227019E0,1.570500135E-1,-9.105000645E-2,2.851050138E0,2.856823709E0
1.011189593E0,4.200000316E-2,-1.680000126E-1,3.043050051E0,3.047973362E0
1.013152328E0,4.050000105E-3,-3.210000098E-1,3.234000206E0,3.249894574E0
1.015114742E0,-1.480500102E-1,-4.360500276E-1,3.310950041E0,3.342820457E0
1.017077251E0,-2.250000089E-1,-5.509500504E-1,3.388050079E0,3.439920683E0
1.019039334E0,-2.629500031E-1,-5.890500546E-1,3.388050079E0,3.448913744E0
1.021001549E0,-3.400500119E-1,-6.280500293E-1,3.426000118E0,3.499651077E0
1.022964187E0,-3.400500119E-1,-7.039500475E-1,3.310950041E0,3.401994981E0
1.024926701E0,-3.019500077E-1,-6.660000086E-1,3.310950041E0,3.390740331E0
1.026889334E0,-3.400500119E-1,-6.660000086E-1,3.196050167E0,3.282366020E0
1.028851932E0,-2.250000089E-1,-7.039500475E-1,3.118950129E0,3.205311307E0
1.030814371E0,-1.480500102E-1,-6.660000086E-1,3.043050051E0,3.118593983E0
1.032776857E0,-7.200000435E-2,-6.660000086E-1,2.889000177E0,2.965646985E0
1.034739538E0,4.050000105E-3,-7.429500222E-1,2.812950134E0,2.909412242E0
1.036702162E0,8.100000024E-2,-7.429500222E-1,2.620950222E0,2.725420298E0
1.038664552E0,1.570500135E-1,-7.810500264E-1,2.314950228E0,2.448203098E0
1.040627011E0,1.960500032E-1,-8.190000653E-1,2.085000038E0,2.248648899E0
1.042589157E0,2.719500065E-1,-8.959500194E-1,1.930950046E0,2.145984930E0
1.044551395E0,3.490500152E-1,-8.580000401E-1,1.816050053E0,2.038636254E0
1.046514210E0,3.870000243E-1,-8.580000401E-1,1.663050056E0,1.910933954E0
1.048476855E0,3.870000243E-1,-8.580000401E-1,1.548000097E0,1.811694618E0
1.050439467E0,4.639500082E-1,-8.580000401E-1,1.471050024E0,1.765050099E0
1.052402088E0,5.020500422E-1,-8.580000401E-1,1.471050024E0,1.775445433E0
1.054365433E0,5.410500169E-1,-8.190000653E-1,1.356000066E0,1.673986979E0
1.056328590E0,6.169500351E-1,-8.580000401E-1,1.318050027E0,1.689392580E0
1.058291249E0,6.550500393E-1,-8.959500194E-1,1.279950023E0,1.694133717E0
1.060254054E0,6.169500351E-1,-8.959500194E-1,1.240950108E0,1.650245725E0
1.062216502E0,6.940500140E-1,-9.340500236E-1,1.318050027E0,1.758240809E0
1.064179054E0,6.169500351E-1,-9.340500236E-1,1.279950023E0,1.700396675E0
1.066141859E0,6.169500351E-1,-9.730500579E-1,1.395000100E0,1.809275833E0
1.068104590E0,6.169500351E-1,-9.340500236E-1,1.471050024E0,1.848530488E0
1.070066285E0,5.410500169E-1,-9.730500579E-1,1.471050024E0,1.844871190E0
1.072028284E0,5.020500422E-1,-9.730500579E-1,1.510050058E0,1.865243104E0
1.073990959E0,4.639500082E-1,-9.730500579E-1,1.548000097E0,1.886366965E0
1.075953436E0,4.260000288E-1,-1.048950076E0,1.585950017E0,1.948591733E0
1.077916261E0,4.260000288E-1,-1.126049995E0,1.701000094E0,2.083954399E0
1.079878980E0,4.260000288E-1,-1.126049995E0,1.701000094E0,2.083954399E0
1.081841758E0,4.639500082E-1,-1.164000034E0,1.816050053E0,2.206396040E0
1.083804518E0,5.020500422E-1,-1.240950108E0,1.893000126E0,2.318504020E0
1.085766974E0,5.410500169E-1,-1.240950108E0,2.046000004E0,2.453325968E0
1.087729520E0,5.410500169E-1,-1.279050112E0,2.122950077E0,2.536852644E0
1.089692872E0,5.790000558E-1,-1.356000066E0,2.238000154E0,2.680041405E0
1.091655985E0,7.320000529E-1,-1.356000066E0,2.275950193E0,2.748546805E0
1.093618516E0,7.699500322E-1,-1.432950020E0,2.430000067E0,2.924221116E0
1.095581217E0,7.699500322E-1,-1.509000063E0,2.659050226E0,3.152848291E0
1.097543952E0,8.470500112E-1,-1.432950020E0,2.773950100E0,3.235063931E0
1.099506677E0,9.240000248E-1,-1.471050024E0,2.965950251E0,3.437240915E0
1.101469464E0,9.240000248E-1,-1.509000063E0,3.004050255E0,3.486427279E0
1.103432226E0,9.619500637E-1,-1.548000097E0,2.965950251E0,3.481165482E0
1.105394996E0,1.000050068E0,-1.548000097E0,2.965950251E0,3.491885641E0
1.107357764E0,1.077000022E0,-1.548000097E0,3.043050051E0,3.579998179E0
1.109320578E0,1.039050102E0,-1.509000063E0,3.043050051E0,3.552021948E0
1.111283379E0,1.114950061E0,-1.432950020E0,3.157950163E0,3.642678771E0
1.113246099E0,1.230000019E0,-1.471050024E0,3.118950129E0,3.661248165E0
1.115208843E0,1.306950092E0,-1.393950105E0,3.157950163E0,3.691051973E0
1.117171436E0,1.306950092E0,-1.318050027E0,3.081000090E0,3.596934246E0
1.119134074E0,1.345050097E0,-1.240950108E0,3.081000090E0,3.583528775E0
1.121096864E0,1.422000051E0,-1.203000069E0,3.004050255E0,3.534630284E0
1.123059610E0,1.459950089E0,-1.048950076E0,2.928000212E0,3.435831161E0
1.125022379E0,1.498950124E0,-9.340500236E-1,2.773950100E0,3.288479904E0
1.126985144E0,1.537050128E0,-8.580000401E-1,2.583000183E0,3.125792237E0
1.128947959E0,1.614000082E0,-7.039500475E-1,2.391000032E0,2.969414604E0
1.130910759E0,1.575000048E0,-6.660000086E-1,2.122950077E0,2.726004070E0
1.132873524E0,1.651950121E0,-5.130000114E-1,1.930950046E0,2.592426719E0
1.134836300E0,1.651950121E0,-4.360500276E-1,1.740000129E0,2.438581407E0
1.136798681E0,1.729050040E0,-3.979500234E-1,1.585950017E0,2.379751188E0
1.138761165E0,1.767000079E0,-2.830500007E-1,1.471050024E0,2.316548026E0
1.140723801E0,1.804950118E0,-2.830500007E-1,1.356000066E0,2.275235902E0
1.142686393E0,1.729050040E0,-1.680000126E-1,1.087950110E0,2.049749616E0
1.144649193E0,1.804950118E0,-1.680000126E-1,7.429500222E-1,1.959092563E0
1.146611932E0,1.843950033E0,-1.680000126E-1,3.220500052E-1,1.879386053E0
1.148575441E0,1.804950118E0,-1.290000081E-1,1.300500035E-1,1.814221302E0
1.150538715E0,1.767000079E0,-1.290000081E-1,-6.105000153E-2,1.772754181E0
1.152501264E0,1.767000079E0,-1.290000081E-1,-9.900000691E-2,1.774466478E0
1.154464025E0,1.767000079E0,-1.290000081E-1,-2.205000073E-2,1.771839859E0
1.156426390E0,1.729050040E0,-1.290000081E-1,1.500000060E-2,1.733920426E0
1.158388871E0,1.690050125E0,-9.105000645E-2,1.680000126E-1,1.700818489E0
1.160350414E0,1.729050040E0,-9.105000645E-2,2.449500114E-1,1.748686551E0
1.162312242E0,1.614000082E0,-9.105000645E-2,3.600000143E-1,1.656166169E0
1.164274135E0,1.537050128E0,-1.500000060E-2,5.130000114E-1,1.620468175E0
1.166236009E0,1.459950089E0,2.295000106E-2,4.750500321E-1,1.535465239E0
1.168198752E0,1.384050012E0,9.900000691E-2,4.360500276E-1,1.454487904E0
1.170161240E0,1.345050097E0,1.380000114E-1,3.600000143E-1,1.399215414E0
1.172125103E0,1.345050097E0,9.900000691E-2,2.070000172E-1,1.364481502E0
1.174088556E0,1.345050097E0,1.759500057E-1,5.295000225E-2,1.357542585E0
1.176051254E0,1.306950092E0,1.380000114E-1,-1.369500011E-1,1.321331847E0
1.178014174E0,1.345050097E0,1.759500057E-1,-3.670500219E-1,1.405291388E0
1.179976917E0,1.306950092E0,1.380000114E-1,-8.269500136E-1,1.552742371E0
1.181939712E0,1.345050097E0,1.759500057E-1,-1.479000092E0,2.006878033E0
1.183903337E0,1.422000051E0,9.900000691E-2,-2.667000055E0,3.024032811E0
1.185866715E0,1.575000048E0,-5.295000225E-2,-4.123950005E0,4.414792463E0
1.187829561E0,1.729050040E0,-1.290000081E-1,-5.503050327E0,5.769732918E0
1.189792563E0,1.843950033E0,-2.059500068E-1,-7.495950222E0,7.722165296E0
1.191754977E0,2.111999989E0,-4.740000367E-1,-1.010295010E1,1.033222244E1
1.193717563E0,2.304000139E0,-8.959500194E-1,-1.232595062E1,1.257140413E1
1.195679648E0,2.341950178E0,-1.356000066E0,-1.362900066E1,1.389507560E1
1.197641876E0,2.188950062E0,-1.893000126E0,-1.450995064E1,1.479572977E1
1.199604197E0,2.074050188E0,-2.467050076E0,-1.531500053E1,1.565047161E1
1.201566490E0,1.920000076E0,-2.965950251E0,-1.612005043E1,1.650270545E1
1.203528800E0,1.729050040E0,-3.502050161E0,-1.711695099E1,1.755687844E1
1.205491105E0,1.459950089E0,-4.269000053E0,-1.819005013E1,1.874123100E1
1.207453331E0,1.230000019E0,-5.227050304E0,-1.868805122E1,1.944423342E1
1.209415607E0,8.470500112E-1,-6.415050507E0,-1.700205040E1,1.819175870E1
1.211377380E0,4.200000316E-2,-7.258050442E0,-1.247895050E1,1.443624833E1
1.213339300E0,-6.469500065E-1,-7.795050144E0,-6.154950142E0,9.953128268E0
1.215300998E0,-9.919500351E-1,-7.948050499E0,-1.287000060E0,8.112449739E0
1.217262761E0,-1.260000110E0,-7.833000183E0,2.085000038E0,8.203091936E0
1.219225823E0,-1.605000019E0,-7.872000217E0,4.806000233E0,9.361733318E0
1.221188514E0,-2.218050003E0,-8.140049934E0,6.223950386E0,1.048416507E1
1.223150982E0,-2.869950056E0,-8.677050591E0,6.760950089E0,1.136830094E1
1.225113516E0,-3.636000156E0,-9.442950249E0,6.952050209E0,1.227684034E1
1.227076505E0,-4.479000092E0,-1.024800014E1,7.105050564E0,1.325008273E1
1.229039361E0,-5.974050522E0,-1.124400043E1,7.182000160E0,1.461841140E1
1.231001931E0,-7.699050426E0,-1.277805042E1,7.182000160E0,1.655702499E1
1.232964588E0,-9.615000725E0,-1.450200081E1,7.258950233E0,1.885334519E1
1.234927376E0,-1.141695023E1,-1.684005165E1,7.489050388E0,2.167994391E1
1.236890125E0,-1.367805099E1,-1.933200073E1,7.450050354E0,2.482576447E1
1.238852898E0,-1.601595116E1,-2.190000153E1,7.258950233E0,2.808581700E1
1.240815663E0,-1.827705002E1,-2.458200073E1,6.913950443E0,3.140267549E1
1.242778642E0,-2.000205040E1,-2.772495079E1,7.066950321E0,3.490983677E1
1.244741538E0,-2.142000008E1,-3.106005096E1,7.795050144E0,3.852669173E1
1.246704466E0,-2.249295044E1,-3.466305161E1,8.524050713E0,4.219146130E1
1.248667384E0,-2.326005173E1,-3.826500320E1,9.060000420E0,4.568724203E1
1.250629948E0,-2.318295097E1,-4.183005142E1,1.040205002E1,4.894287550E1
1.252592616E0,-2.161200142E1,-4.596900177E1,1.220295048E1,5.224116891E1
1.254555236E0,-1.889100075E1,-5.018505096E1,1.300800037E1,5.517805110E1
1.256517861E0,-1.467495060E1,-5.394105148E1,1.258605099E1,5.730095889E1
1.258480294E0,-9.769050598E0,-5.723805237E1,1.113000011E1,5.912280348E1
1.260442784E0,-3.981000185E0,-6.061005402E1,9.750000000E0,6.151820471E1
1.262406096E0,1.614000082E0,-6.386805344E1,7.527000427E0,6.433031153E1
1.264369167E0,7.248000145E0,-6.697305298E1,3.463950157E0,6.745311173E1
1.266332452E0,1.291995049E1,-6.992400360E1,-2.704950094E0,7.115903425E1
1.268295687E0,1.866900063E1,-7.264500427E1,-1.109895039E1,7.582225880E1
1.270258152E0,2.407395172E1,-7.483005524E1,-1.811295128E1,8.066703988E1
1.272220843E0,2.859600067E1,-7.540500641E1,-2.179305077E1,8.353791539E1
1.274183310E0,3.158595085E1,-7.333500671E1,-2.451405144E1,8.352624868E1
1.276145843E0,3.108795166E1,-6.747105408E1,-2.390100098E1,7.803884753E1
1.278108435E0,2.698695183E1,-5.980605316E1,-2.175405121E1,6.912523640E1
1.280071004E0,1.978095055E1,-5.225505066E1,-1.750005150E1,5.855021884E1
1.282033448E0,1.284405041E1,-4.527900314E1,-1.267095089E1,4.874126335E1
1.283995929E0,6.673050404E0,-3.933900070E1,-8.953050613E0,4.089307635E1
1.285957531E0,2.149950027E0,-3.447105026E1,-5.809950352E0,3.502329388E1
1.287919391E0,-1.336950064E0,-3.044700050E1,-3.586950064E0,3.068669884E1
1.289882052E0,-3.943050146E0,-2.726505089E1,-2.014950037E0,2.762228571E1
1.291844505E0,-5.782950401E0,-2.454405022E1,-9.420000315E-1,2.523371317E1
1.293807193E0,-7.086000443E0,-2.255100060E1,-8.659500480E-1,2.365394047E1
1.295769812E0,-8.044050217E0,-2.101800156E1,-9.420000315E-1,2.252444222E1
1.297732607E0,-8.580000877E0,-1.986795044E1,-8.659500480E-1,2.165875664E1
1.299695351E0,-8.964000702E0,-1.891005135E1,-7.510500550E-1,2.094056892E1
1.301657946E0,-9.424050331E0,-1.806705093E1,-8.269500136E-1,2.039399177E1
1.303620584E0,-9.499950409E0,-1.753005028E1,-1.096050024E0,1.996880182E1
1.305583150E0,-9.577050209E0,-1.718505096E1,-1.249050021E0,1.971309193E1
1.307545737E0,-9.691950798E0,-1.707000160E1,-1.210950017E0,1.966685702E1
1.309508356E0,-9.615000725E0,-1.710900116E1,-1.210950017E0,1.966297433E1
1.311470966E0,-9.654000282E0,-1.707000160E1,-1.249050021E0,1.965056748E1
1.313433268E0,-9.577050209E0,-1.745400047E1,-1.210950017E0,1.994563669E1
1.315395661E0,-9.615000725E0,-1.783695030E1,-1.096050024E0,2.029301261E1
1.317357954E0,-9.691950798E0,-1.825800133E1,-7.890000343E-1,2.068601082E1
1.319320276E0,-9.538950920E0,-1.887195015E1,-4.819500148E-1,2.115122604E1
1.321282896E0,-9.424050331E0,-1.948500061E1,-2.140500098E-1,2.164541039E1
1.323245428E0,-9.232050896E0,-2.025105095E1,1.500000060E-2,2.225614642E1
1.325207036E0,-8.848950386E0,-2.098005104E1,2.449500114E-1,2.277117619E1
1.327168905E0,-8.503950119E0,-2.167005157E1,5.899500251E-1,2.328639826E1
1.329132008E0,-8.044050217E0,-2.243595123E1,7.429500222E-1,2.384597715E1
1.331094750E0,-7.813950539E0,-2.270400047E1,1.011000037E0,2.403230288E1
1.333057524E0,-7.546050549E0,-2.297295189E1,1.203000069E0,2.421046481E1
1.335020288E0,-7.201050282E0,-2.324100113E1,1.318050027E0,2.436670914E1
1.336983024E0,-6.931950092E0,-2.335605049E1,1.395000100E0,2.440293122E1
1.338945762E0,-6.664050102E0,-2.339400101E1,1.395000100E0,2.436462337E1
1.340908401E0,-6.396000385E0,-2.331795120E1,1.356000066E0,2.421723364E1
1.342871069E0,-6.127950191E0,-2.324100113E1,1.356000066E0,2.407352577E1
1.344833855E0,-5.974050522E0,-2.301105118E1,1.318050027E0,2.381039714E1
1.346796606E0,-5.743950367E0,-2.262795067E1,1.203000069E0,2.337657645E1
1.348759559E0,-5.476050377E0,-2.224500084E1,1.203000069E0,2.294067129E1
1.350722452E0,-5.208000183E0,-2.182305145E1,1.279950023E0,2.247236331E1
1.352685201E0,-4.824000359E0,-2.140095139E1,1.356000066E0,2.197977333E1
1.354647992E0,-4.479000092E0,-2.101800156E1,1.432950020E0,2.153766879E1
1.356610892E0,-4.173000336E0,-2.055795097E1,1.432950020E0,2.102609393E1
1.358573760E0,-3.828000069E0,-2.021295166E1,1.395000100E0,2.061948168E1
1.360536513E0,-3.406050205E0,-1.979205132E1,1.240950108E0,2.012129296E1
1.362499300E0,-2.755050182E0,-1.944705009E1,1.126049995E0,1.967348590E1
1.364461931E0,-2.179949999E0,-1.906305122E1,9.730500579E-1,1.921194759E1
1.366424608E0,-1.642950058E0,-1.871805000E1,1.011000037E0,1.881719431E1
1.368387168E0,-1.222050071E0,-1.837305069E1,1.011000037E0,1.844138062E1
1.370349762E0,-8.380500674E-1,-1.798995018E1,9.730500579E-1,1.803572737E1
1.372312246E0,-6.079500318E-1,-1.764495087E1,9.730500579E-1,1.768221481E1
1.374274762E0,-3.400500119E-1,-1.729995155E1,9.730500579E-1,1.733063138E1
1.376237214E0,-7.200000435E-2,-1.695495033E1,9.349500537E-1,1.698086147E1
1.378199685E0,8.100000024E-2,-1.653404999E1,1.050000072E0,1.656755474E1
1.380162100E0,2.719500065E-1,-1.615005112E1,1.050000072E0,1.618643284E1
1.382124531E0,4.639500082E-1,-1.576695061E1,1.050000072E0,1.580868373E1
1.384087582E0,6.940500140E-1,-1.530705070E1,1.087950110E0,1.536135222E1
1.386050452E0,9.619500637E-1,-1.488600063E1,1.011000037E0,1.495127031E1
1.388013025E0,1.192050099E0,-1.450200081E1,8.580000401E-1,1.457618520E1
1.389975685E0,1.306950092E0,-1.400400066E1,8.580000401E-1,1.409100128E1
1.391938472E0,1.384050012E0,-1.354395103E1,7.050000429E-1,1.363272640E1
1.393901221E0,1.537050128E0,-1.304595089E1,5.509500504E-1,1.314773378E1
1.395864762E0,1.384050012E0,-1.250895023E1,4.360500276E-1,1.259283804E1
1.397828037E0,1.498950124E0,-1.201095104E1,2.070000172E-1,1.210589300E1
1.399790495E0,1.537050128E0,-1.158900070E1,9.195000678E-2,1.169084750E1
1.401753193E0,1.498950124E0,-1.105305099E1,-6.105000153E-2,1.115439442E1
1.403715659E0,1.345050097E0,-1.047795010E1,-2.520000041E-1,1.056693437E1
1.405678193E0,1.306950092E0,-9.940950394E0,-3.670500219E-1,1.003321180E1
1.407641137E0,1.269000053E0,-9.405000687E0,-5.209500194E-1,9.504514084E0
1.409603961E0,1.269000053E0,-8.907000542E0,-7.120500207E-1,9.025078117E0
1.411566586E0,1.153950095E0,-8.370000839E0,-7.510500550E-1,8.482487315E0
1.413529270E0,1.153950095E0,-7.872000217E0,-7.510500550E-1,7.991499511E0
1.415492233E0,1.114950061E0,-7.527000427E0,-9.040500522E-1,7.662646773E0
1.417455114E0,1.077000022E0,-7.027950287E0,-8.659500480E-1,7.162533334E0
1.419418185E0,1.039050102E0,-6.568950176E0,-9.040500522E-1,6.711783521E0
1.421381196E0,1.153950095E0,-6.184950352E0,-8.659500480E-1,6.350990565E0
1.423343790E0,1.269000053E0,-5.878950119E0,-8.659500480E-1,6.076371049E0
1.425306506E0,1.306950092E0,-5.494950294E0,-7.120500207E-1,5.692944099E0
1.427268879E0,1.384050012E0,-5.035050392E0,-6.739500165E-1,5.265124454E0
1.429231352E0,1.614000082E0,-4.651950359E0,-4.819500148E-1,4.947515965E0
1.431193981E0,1.882050037E0,-4.231050014E0,-3.289500177E-1,4.642424440E0
1.433156571E0,1.996950150E0,-3.808950186E0,-2.140500098E-1,4.306010778E0
1.435119371E0,1.959000111E0,-3.426000118E0,-1.369500011E-1,3.948912958E0
1.437082109E0,1.882050037E0,-3.042000055E0,-2.205000073E-2,3.577200425E0
1.439044929E0,1.882050037E0,-2.620950222E0,1.500000060E-2,3.226719295E0
1.441007725E0,1.843950033E0,-2.275950193E0,5.295000225E-2,2.929659487E0
1.442970316E0,1.767000079E0,-1.854000092E0,5.295000225E-2,2.561719993E0
1.444932963E0,1.651950121E0,-1.471050024E0,9.195000678E-2,2.213906543E0
1.446895393E0,1.575000048E0,-1.126049995E0,1.680000126E-1,1.943408796E0
1.448857886E0,1.306950092E0,-7.429500222E-1,1.500000060E-2,1.503435492E0
1.450820521E0,1.269000053E0,-4.360500276E-1,-1.759500057E-1,1.353314142E0
1.452783114E0,1.077000022E0,-2.059500068E-1,-2.520000041E-1,1.125099309E0
1.454744783E0,1.000050068E0,-5.295000225E-2,-3.670500219E-1,1.066597187E0
1.456706727E0,7.320000529E-1,2.530499995E-1,-4.819500148E-1,9.122138984E-1
1.458668916E0,5.020500422E-1,5.209500194E-1,-7.120500207E-1,1.015114969E0
1.460631033E0,3.109500110E-1,7.510500550E-1,-9.810000658E-1,1.274020103E0
1.462593734E0,1.960500032E-1,9.040500522E-1,-1.287000060E0,1.584964118E0
1.464556263E0,-3.299999982E-2,1.134000063E0,-1.441050053E0,1.834031188E0
1.466518910E0,-1.870500147E-1,1.326000094E0,-1.786050081E0,2.232316924E0
1.468481542E0,-3.400500119E-1,1.555950046E0,-2.206950188E0,2.721625192E0
1.470444290E0,-3.780000210E-1,1.824000120E0,-2.475000143E0,3.097658174E0
1.472407004E0,-4.549500346E-1,1.939050078E0,-2.820000172E0,3.452433303E0
1.474369828E0,-4.549500346E-1,2.131050110E0,-3.049950123E0,3.748406309E0
1.476332619E0,-4.170000255E-1,2.245950222E0,-3.394950151E0,4.091927168E0
1.478295769E0,-3.019500077E-1,2.361000061E0,-3.625050068E0,4.336644220E0
1.480258797E0,-1.870500147E-1,2.476050138E0,-3.894000292E0,4.618338475E0
1.482221658E0,-1.099500060E-1,2.629050016E0,-4.084949970E0,4.859095518E0
1.484184568E0,-3.299999982E-2,2.667000055E0,-4.276950359E0,5.040464529E0
1.486147537E0,1.570500135E-1,2.743950129E0,-4.468050003E0,5.245702798E0
1.488110489E0,3.109500110E-1,2.859000206E0,-4.507050037E0,5.346407404E0
1.490074123E0,4.260000288E-1,2.859000206E0,-4.507050037E0,5.354330793E0
1.492037561E0,6.169500351E-1,2.896950245E0,-4.468050003E0,5.360636053E0
1.494000036E0,8.089500666E-1,2.935950041E0,-4.507050037E0,5.439457959E0
1.495962794E0,1.000050068E0,2.974050045E0,-4.468050003E0,5.459720198E0
1.497925699E0,1.269000053E0,3.012000084E0,-4.353000164E0,5.443447076E0
1.499888561E0,1.384050012E0,3.051000118E0,-4.237950325E0,5.402260556E0
1.501851316E0,1.537050128E0,3.088950157E0,-4.084949970E0,5.347050816E0
1.503814102E0,1.690050125E0,3.088950157E0,-3.931950092E0,5.278078630E0
1.505776868E0,1.959000111E0,3.166050196E0,-3.739950180E0,5.277194579E0
1.507739640E0,2.149950027E0,3.166050196E0,-3.549000263E0,5.219344962E0
1.509702453E0,2.457000017E0,3.127050161E0,-3.280050039E0,5.154999520E0
1.511665253E0,2.649000168E0,3.088950157E0,-2.935050249E0,5.017303551E0
1.513628004E0,2.878050089E0,3.088950157E0,-2.629050016E0,4.973599238E0
1.515590780E0,3.184950113E0,3.051000118E0,-2.284050226E0,4.966829409E0
1.517553548E0,3.337950230E0,2.935950041E0,-1.900950074E0,4.834803570E0
1.519516318E0,3.645000219E0,2.821050167E0,-1.516950130E0,4.852369353E0
1.521478727E0,3.798000097E0,2.706000090E0,-1.210950017E0,4.818053670E0
1.523441242E0,4.027950287E0,2.514000177E0,-8.269500136E-1,4.819587817E0
1.525403685E0,4.219950199E0,2.284050226E0,-4.819500148E-1,4.822565804E0
1.527366156E0,4.297049999E0,2.016000032E0,-9.900000691E-2,4.747493636E0
1.529328210E0,4.488000393E0,1.708950043E0,2.449500114E-1,4.808602529E0
1.531290386E0,4.411950111E0,1.326000094E0,6.280500293E-1,4.649518994E0
1.533253076E0,3.913050175E0,7.510500550E-1,9.349500537E-1,4.092697088E0
1.535215615E0,3.376950264E0,2.140500098E-1,1.050000072E0,3.542895799E0
1.537179325E0,2.955000162E0,-2.059500068E-1,1.279950023E0,3.226873630E0
1.539142692E0,2.533950090E0,-5.130000114E-1,1.432950020E0,2.955912352E0
1.541105180E0,2.304000139E0,-8.580000401E-1,1.471050024E0,2.865060014E0
1.543067925E0,2.035050154E0,-1.126049995E0,1.510050058E0,2.773025225E0
1.545030563E0,1.804950118E0,-1.279050112E0,1.548000097E0,2.700021929E0
1.546993233E0,1.614000082E0,-1.393950105E0,1.510050058E0,2.613110089E0
1.548955644E0,1.422000051E0,-1.509000063E0,1.624950051E0,2.634317369E0
1.550918141E0,1.384050012E0,-1.663050056E0,1.663050056E0,2.728931184E0
1.552880596E0,1.345050097E0,-1.738950133E0,1.777950048E0,2.827404057E0
1.554843064E0,1.306950092E0,-1.816050053E0,1.893000126E0,2.930802930E0
1.556805838E0,1.306950092E0,-1.854000092E0,2.085000038E0,3.081016073E0
1.558768523E0,1.306950092E0,-1.969050050E0,2.275950193E0,3.281040372E0
1.560731273E0,1.269000053E0,-1.930950046E0,2.467950106E0,3.380784959E0
1.562694028E0,1.192050099E0,-1.969050050E0,2.620950222E0,3.488197472E0
1.564656665E0,1.153950095E0,-2.008050203E0,2.698050022E0,3.555747511E0
1.566619337E0,1.153950095E0,-1.930950046E0,2.773950100E0,3.571409814E0
1.568581898E0,1.077000022E0,-1.893000126E0,2.812950134E0,3.557536645E0
1.570544491E0,9.619500637E-1,-1.893000126E0,2.928000212E0,3.616902354E0
1.572507305E0,9.240000248E-1,-1.777950048E0,2.965950251E0,3.579349565E0
1.574470043E0,8.089500666E-1,-1.738950133E0,2.965950251E0,3.532026142E0
1.576432998E0,8.089500666E-1,-1.701000094E0,3.004050255E0,3.545718469E0
1.578395889E0,7.699500322E-1,-1.738950133E0,3.004050255E0,3.555430853E0
1.580358503E0,7.320000529E-1,-1.738950133E0,3.081000090E0,3.612801295E0
1.582321199E0,6.550500393E-1,-1.701000094E0,3.081000090E0,3.579811926E0
1.584283005E0,5.790000558E-1,-1.663050056E0,2.965950251E0,3.449324201E0
1.586245093E0,5.410500169E-1,-1.663050056E0,2.928000212E0,3.410521345E0
1.588207978E0,5.020500422E-1,-1.663050056E0,2.889000177E0,3.371069824E0
1.590170629E0,4.639500082E-1,-1.701000094E0,2.851050138E0,3.352184038E0
1.592133464E0,3.870000243E-1,-1.738950133E0,2.851050138E0,3.361874994E0
1.594096245E0,4.639500082E-1,-1.738950133E0,2.812950134E0,3.339443911E0
1.596058833E0,4.260000288E-1,-1.777950048E0,2.773950100E0,3.322255492E0
1.598021477E0,4.260000288E-1,-1.777950048E0,2.812950134E0,3.354887607E0
1.599983907E0,4.639500082E-1,-1.777950048E0,2.851050138E0,3.391878960E0
1.601946400E0,5.410500169E-1,-1.816050053E0,2.851050138E0,3.423340446E0
1.603909937E0,5.410500169E-1,-1.854000092E0,2.889000177E0,3.475107694E0
1.605873168E0,5.790000558E-1,-1.854000092E0,2.851050138E0,3.449789022E0
1.607834913E0,5.410500169E-1,-1.777950048E0,2.889000177E0,3.435136609E0
1.609797093E0,4.260000288E-1,-1.738950133E0,2.812950134E0,3.334383309E0
1.611759962E0,3.490500152E-1,-1.624050021E0,2.812950134E0,3.266812337E0
1.613722629E0,4.260000288E-1,-1.548000097E0,2.812950134E0,3.238899317E0
1.615685237E0,4.260000288E-1,-1.432950020E0,2.812950134E0,3.185515695E0
1.617647862E0,4.260000288E-1,-1.356000066E0,2.851050138E0,3.185702292E0
1.619611591E0,5.790000558E-1,-1.203000069E0,2.812950134E0,3.113701766E0
1.621575004E0,7.320000529E-1,-1.164000034E0,2.736000061E0,3.062093482E0
1.623537799E0,8.089500666E-1,-1.048950076E0,2.698050022E0,3.005689670E0
1.625500775E0,1.000050068E0,-8.959500194E-1,2.659050226E0,2.978821022E0
1.627463329E0,1.039050102E0,-7.810500264E-1,2.545050144E0,2.857786643E0
1.629426006E0,1.153950095E0,-6.660000086E-1,2.391000032E0,2.737158744E0
1.631388771E0,1.230000019E0,-5.130000114E-1,2.275950193E0,2.637426462E0
1.633351523E0,1.306950092E0,-3.979500234E-1,2.122950077E0,2.524559327E0
1.635314476E0,1.306950092E0,-3.210000098E-1,2.046000004E0,2.448933557E0
1.637277370E0,1.345050097E0,-2.440500110E-1,1.969950080E0,2.397795547E0
1.639240119E0,1.345050097E0,-1.680000126E-1,1.816050053E0,2.266146853E0
1.641202910E0,1.306950092E0,-1.290000081E-1,1.663050056E0,2.119078817E0
1.643165544E0,1.306950092E0,-1.290000081E-1,1.548000097E0,2.030040356E0
1.645128222E0,1.306950092E0,-9.105000645E-2,1.471050024E0,1.969872285E0
1.647090241E0,1.306950092E0,-5.295000225E-2,1.356000066E0,1.884053721E0
1.649052453E0,1.230000019E0,2.295000106E-2,1.050000072E0,1.617382731E0
1.651016038E0,1.230000019E0,-1.500000060E-2,5.899500251E-1,1.364245608E0
1.652979220E0,1.306950092E0,6.105000153E-2,-1.759500057E-1,1.320153041E0
1.654941600E0,1.345050097E0,6.105000153E-2,-9.810000658E-1,1.665907559E0
1.656904218E0,1.459950089E0,2.295000106E-2,-1.824000120E0,2.336441184E0
1.658866967E0,1.729050040E0,-1.500000060E-2,-3.433950186E0,3.844717534E0
1.660829677E0,1.959000111E0,2.295000106E-2,-5.427000046E0,5.769795285E0
1.662792142E0,2.304000139E0,1.380000114E-1,-7.113000393E0,7.478117092E0
1.664754679E0,2.533950090E0,1.380000114E-1,-8.185950279E0,8.570281736E0
1.666717477E0,2.686950207E0,1.380000114E-1,-8.340000153E0,8.763238440E0
1.668680206E0,2.878050089E0,6.105000153E-2,-8.110050201E0,8.605801165E0
1.670642623E0,3.031950235E0,-1.500000060E-2,-7.495950222E0,8.085927093E0
1.672605131E0,3.031950235E0,-1.500000060E-2,-6.499950409E0,7.172328949E0
1.674567944E0,2.917050123E0,-9.105000645E-2,-5.272950172E0,6.026730046E0
1.676530667E0,2.802000046E0,-9.105000645E-2,-3.970050097E0,4.860122645E0
1.678493225E0,2.533950090E0,-1.290000081E-1,-2.704950094E0,3.708678885E0
1.680455828E0,2.304000139E0,-1.290000081E-1,-1.632000089E0,2.826390266E0
1.682418130E0,2.188950062E0,-1.680000126E-1,-7.510500550E-1,2.320302257E0
1.684380521E0,2.111999989E0,-1.680000126E-1,1.500000060E-2,2.118724370E0
1.686342409E0,2.111999989E0,-2.830500007E-1,4.750500321E-1,2.183193484E0
1.688304444E0,2.149950027E0,-4.360500276E-1,8.959500194E-1,2.369631023E0
1.690266963E0,2.111999989E0,-5.890500546E-1,1.126049995E0,2.464855475E0
1.692229350E0,2.035050154E0,-7.429500222E-1,1.087950110E0,2.424260569E0
1.694192185E0,1.882050037E0,-9.340500236E-1,9.349500537E-1,2.299715937E0
1.696154888E0,1.729050040E0,-1.011000037E0,8.200500607E-1,2.164305251E0
1.698117535E0,1.575000048E0,-1.126049995E0,5.899500251E-1,2.024019460E0
1.700080198E0,1.384050012E0,-1.164000034E0,3.600000143E-1,1.843933438E0
1.702043646E0,1.269000053E0,-1.203000069E0,9.195000678E-2,1.751006883E0
1.704006874E0,1.230000019E0,-1.203000069E0,-2.520000041E-1,1.738853994E0
1.705969385E0,1.039050102E0,-1.279050112E0,-7.510500550E-1,1.810986054E0
1.707932107E0,9.240000248E-1,-1.393950105E0,-1.287000060E0,2.110270621E0
1.709894209E0,6.940500140E-1,-1.393950105E0,-1.977000117E0,2.516611170E0
1.711856492E0,5.410500169E-1,-1.624050021E0,-2.590050220E0,3.104614910E0
1.713818933E0,3.490500152E-1,-1.738950133E0,-3.012000084E0,3.495415281E0
1.715781331E0,1.960500032E-1,-1.930950046E0,-3.204000235E0,3.746014040E0
1.717744028E0,4.200000316E-2,-2.161050081E0,-3.204000235E0,3.864908661E0
1.719706638E0,-3.299999982E-2,-2.391000032E0,-3.127050161E0,3.936548344E0
1.721669435E0,4.050000105E-3,-2.736000061E0,-3.049950123E0,4.097305027E0
1.723632177E0,4.200000316E-2,-3.042000055E0,-2.935050249E0,4.227297991E0
1.725594727E0,1.189500093E-1,-3.271950245E0,-2.935050249E0,4.397081700E0
1.727557333E0,1.960500032E-1,-3.463950157E0,-2.859000206E0,4.495694437E0
1.729519994E0,2.340000123E-1,-3.732000113E0,-2.820000172E0,4.683479669E0
1.731482638E0,2.340000123E-1,-4.039050102E0,-2.820000172E0,4.931640975E0
1.733445205E0,1.570500135E-1,-4.345950127E0,-2.820000172E0,5.183082884E0
1.735407794E0,4.050000105E-3,-4.690050125E0,-2.974050045E0,5.553517826E0
1.737370433E0,-2.629500031E-1,-5.149950027E0,-3.357000113E0,6.153094973E0
1.739333043E0,-6.850500107E-1,-5.725050449E0,-3.778950214E0,6.893907520E0
1.741295705E0,-1.068000078E0,-6.339000225E0,-4.047000408E0,7.596167476E0
1.743258351E0,-1.567050099E0,-7.143000126E0,-3.817050219E0,8.249119297E0
1.745220917E0,-2.140950203E0,-7.987050533E0,-3.241950035E0,8.881828867E0
1.747183507E0,-2.946000099E0,-8.791950226E0,-2.169000149E0,9.522702715E0
1.749145795E0,-4.057950020E0,-9.711000443E0,-1.096050024E0,1.058167348E1
1.751108151E0,-5.169000149E0,-1.063095093E1,-2.205000073E-2,1.182100530E1
1.753069775E0,-6.396000385E0,-1.181895065E1,8.200500607E-1,1.346361384E1
1.755031613E0,-8.082000732E0,-1.339095020E1,1.318050027E0,1.569629061E1
1.756994180E0,-9.730050087E0,-1.480905056E1,1.624950051E0,1.779388423E1
1.758956534E0,-1.130205059E1,-1.618905067E1,1.969950080E0,1.984193571E1
1.760919130E0,-1.287300014E1,-1.783695030E1,2.391000032E0,2.212663124E1
1.762881669E0,-1.456005096E1,-1.967700005E1,2.430000067E0,2.459846164E1
1.764843983E0,-1.616895103E1,-2.147805023E1,2.659050226E0,2.701503595E1
1.766806363E0,-1.751100159E1,-2.339400101E1,2.928000212E0,2.936813996E1
1.768768837E0,-1.881405067E1,-2.538705063E1,3.234000206E0,3.176365218E1
1.770731284E0,-1.977195168E1,-2.741895103E1,3.733050108E0,3.400977230E1
1.772693583E0,-2.030895042E1,-2.968005180E1,4.576050282E0,3.625326439E1
1.774655915E0,-2.042400169E1,-3.220995331E1,5.419050217E0,3.852255239E1
1.776618398E0,-1.984905052E1,-3.508395004E1,5.917050362E0,4.074162297E1
1.778580836E0,-1.846905136E1,-3.822705078E1,5.917050362E0,4.286519281E1
1.780543258E0,-1.666800117E1,-4.125495148E1,5.649000168E0,4.485202880E1
1.782505685E0,-1.436805058E1,-4.432095337E1,5.878950119E0,4.696115245E1
1.784468137E0,-1.111005020E1,-4.777095413E1,6.492000103E0,4.947366309E1
1.786430592E0,-7.431000233E0,-5.087505341E1,4.806000233E0,5.163902073E1
1.788394316E0,-3.712950230E0,-5.386500168E1,2.161050081E0,5.403604855E1
1.790357669E0,-1.870500147E-1,-5.631795120E1,-6.360000372E-1,5.632185288E1
1.792320744E0,3.300000191E0,-5.827200317E1,-3.586950064E0,5.847548688E1
1.794283901E0,6.711000443E0,-5.984400177E1,-6.193050385E0,6.053673222E1
1.796246063E0,9.433050156E0,-6.049500275E1,-8.110050201E0,6.176083473E1
1.798208517E0,1.230705070E1,-6.072495270E1,-9.183000565E0,6.263633831E1
1.800170935E0,1.433805084E1,-5.995905304E1,-9.988050461E0,6.245341380E1
1.802133363E0,1.479795074E1,-5.696895218E1,-9.412950516E0,5.960741981E1
1.804095829E0,1.468305111E1,-5.332800293E1,-8.683950424E0,5.598998912E1
1.806058284E0,1.380195045E1,-4.984005356E1,-7.840950489E0,5.230683779E1
1.808020782E0,1.154100037E1,-4.635300064E1,-7.150950432E0,4.830042909E1
1.809983274E0,8.743050575E0,-4.286505127E1,-6.193050385E0,4.418379145E1
1.811945551E0,6.328050137E0,-3.968400192E1,-5.350050449E0,4.053994656E1
1.813907891E0,4.219950199E0,-3.646395111E1,-4.736999989E0,3.701171273E1
1.815870193E0,2.457000017E0,-3.355095291E1,-4.200000286E0,3.390196591E1
1.817832507E0,8.850000501E-1,-3.082995224E1,-4.392000198E0,3.115379344E1
1.819793898E0,-6.850500107E-1,-2.853000069E1,-4.813050270E0,2.894124541E1
1.821755570E0,-1.873050094E0,-2.657595062E1,-5.005050182E0,2.710793233E1
1.823718346E0,-2.793000221E0,-2.504205132E1,-5.005050182E0,2.568960318E1
1.825680799E0,-3.559950113E0,-2.396895027E1,-4.736999989E0,2.469054456E1
1.827643442E0,-4.018949986E0,-2.320305061E1,-4.315050125E0,2.394061767E1
1.829606029E0,-4.210950375E0,-2.278095055E1,-3.894000292E0,2.349185070E1
1.831568960E0,-4.326000214E0,-2.255100060E1,-3.510000229E0,2.322890457E1
1.833531794E0,-4.402950287E0,-2.235900116E1,-3.241950035E0,2.301784404E1
1.835494238E0,-4.671000004E0,-2.220600128E1,-2.935050249E0,2.288098018E1
1.837456796E0,-4.824000359E0,-2.201505089E1,-2.820000172E0,2.271312057E1
1.839419196E0,-4.939050198E0,-2.193795013E1,-2.743950129E0,2.265385475E1
1.841381642E0,-5.169000149E0,-2.170800018E1,-2.704950094E0,2.247826927E1
1.843344169E0,-5.437950134E0,-2.151600075E1,-2.551950216E0,2.233880122E1
1.845306659E0,-5.668050289E0,-2.136300087E1,-2.514000177E0,2.224465772E1
1.847269251E0,-5.821050167E0,-2.117100143E1,-2.398950100E0,2.208734679E1
1.849231813E0,-6.051000118E0,-2.094105148E1,-2.322000027E0,2.192108400E1
1.851194078E0,-6.241950512E0,-2.086500168E1,-2.092050076E0,2.187891484E1
1.853156430E0,-6.433950424E0,-2.067300034E1,-1.939050078E0,2.173772242E1
1.855118716E0,-6.702000141E0,-2.067300034E1,-1.747050047E0,2.180233778E1
1.857081031E0,-6.931950092E0,-2.074995041E1,-1.671000123E0,2.194093470E1
1.859043517E0,-7.047000408E0,-2.098005104E1,-1.594050050E0,2.218927110E1
1.861005952E0,-7.276950359E0,-2.117100143E1,-1.479000092E0,2.243552428E1
1.862968239E0,-7.392000198E0,-2.136300087E1,-1.479000092E0,2.265407059E1
1.864930570E0,-7.392000198E0,-2.163105011E1,-1.402050018E0,2.290217763E1
1.866892863E0,-7.123950481E0,-2.186100197E1,-1.479000092E0,2.303999824E1
1.868855175E0,-6.817050457E0,-2.212995148E1,-1.479000092E0,2.320332671E1
1.870817661E0,-6.586950302E0,-2.224500084E1,-1.326000094E0,2.323760428E1
1.872780096E0,-6.549000263E0,-2.235900116E1,-1.287000060E0,2.333389608E1
1.874742428E0,-6.511050224E0,-2.232105064E1,-1.171950102E0,2.328081923E1
1.876704791E0,-6.357000351E0,-2.235900116E1,-9.420000315E-1,2.326421609E1
1.878667039E0,-6.127950191E0,-2.228295135E1,-7.510500550E-1,2.312240841E1
1.880629324E0,-5.821050167E0,-2.220600128E1,-4.819500148E-1,2.296134564E1
1.882591679E0,-5.553000450E0,-2.197605133E1,-2.910000086E-1,2.266864193E1
1.884554014E0,-5.361000061E0,-2.174595070E1,-1.759500057E-1,2.239771533E1
1.886516318E0,-5.208000183E0,-2.132505035E1,1.500000060E-2,2.195179408E1
1.888478632E0,-5.131050110E0,-2.090295029E1,2.449500114E-1,2.152489272E1
1.890439987E0,-4.978050232E0,-2.036595154E1,4.750500321E-1,2.097089981E1
1.892401627E0,-4.747950077E0,-1.994505119E1,7.050000429E-1,2.051451004E1
1.894364048E0,-4.555950165E0,-1.940805054E1,1.011000037E0,1.996124316E1
1.896326240E0,-4.363950253E0,-1.887195015E1,1.165050030E0,1.940494540E1
1.898288748E0,-4.134000301E0,-1.833495140E1,1.279950023E0,1.883875456E1
1.900251163E0,-3.828000069E0,-1.783695030E1,1.395000100E0,1.829634952E1
1.902213624E0,-3.445050240E0,-1.737705040E1,1.471050024E0,1.777622682E1
1.904176077E0,-3.175950050E0,-1.684005165E1,1.510050058E0,1.720332089E1
1.906138226E0,-2.869950056E0,-1.626495171E1,1.548000097E0,1.658859764E1
1.908100464E0,-2.524950027E0,-1.576695061E1,1.510050058E0,1.603908836E1
1.910063143E0,-2.140950203E0,-1.519200039E1,1.548000097E0,1.542001452E1
1.912025693E0,-1.873050094E0,-1.469400024E1,1.663050056E0,1.490596174E1
1.913988255E0,-1.489950061E0,-1.415700054E1,1.663050056E0,1.433200443E1
1.915950827E0,-1.183050036E0,-1.358205032E1,1.624950051E0,1.372997309E1
1.917913090E0,-7.999500632E-1,-1.312305069E1,1.624950051E0,1.324744663E1
1.919875444E0,-3.400500119E-1,-1.281600094E1,1.585950017E0,1.291823330E1
1.921837789E0,-3.019500077E-1,-1.212600040E1,1.510050058E0,1.222339195E1
1.923800136E0,-7.200000435E-2,-1.162800026E1,1.585950017E0,1.173587711E1
1.925762433E0,4.050000105E-3,-1.113000011E1,1.510050058E0,1.123197089E1
1.927724748E0,4.200000316E-2,-1.059300041E1,1.432950020E0,1.068956348E1
1.929687234E0,1.960500032E-1,-1.005600071E1,1.395000100E0,1.015419180E1
1.931649669E0,2.719500065E-1,-9.558000565E0,1.240950108E0,9.642058326E0
1.933612270E0,2.719500065E-1,-8.944950104E0,1.165050030E0,9.024601417E0
1.935574823E0,4.260000288E-1,-8.407950401E0,1.165050030E0,8.498967440E0
1.937538155E0,6.550500393E-1,-7.872000217E0,1.011000037E0,7.963642323E0
1.939501269E0,7.320000529E-1,-7.335000515E0,9.730500579E-1,7.435380491E0
1.941463485E0,8.850000501E-1,-6.837000370E0,9.730500579E-1,6.962372122E0
1.943425964E0,9.619500637E-1,-6.300000191E0,8.580000401E-1,6.430514318E0
1.945388556E0,1.077000022E0,-5.802000046E0,8.580000401E-1,5.963161716E0
1.947351115E0,1.230000019E0,-5.265000343E0,7.429500222E-1,5.457573032E0
1.949313386E0,1.306950092E0,-4.804950237E0,7.429500222E-1,5.034643986E0
1.951275738E0,1.384050012E0,-4.306950092E0,7.050000429E-1,4.578475575E0
1.953238038E0,1.537050128E0,-3.808950186E0,7.050000429E-1,4.167451220E0
1.955200353E0,1.767000079E0,-3.426000118E0,6.660000086E-1,3.911946076E0
1.957163019E0,1.920000076E0,-2.926950216E0,5.509500504E-1,3.543583472E0
1.959125582E0,1.996950150E0,-2.467050076E0,5.509500504E-1,3.221442524E0
1.961088381E0,1.996950150E0,-2.008050203E0,4.750500321E-1,2.871541059E0
1.963051115E0,1.920000076E0,-1.624050021E0,5.130000114E-1,2.566536144E0
1.965013396E0,1.843950033E0,-1.279050112E0,4.360500276E-1,2.286101603E0
1.966975810E0,1.804950118E0,-8.580000401E-1,4.750500321E-1,2.054186343E0
1.968938414E0,1.767000079E0,-5.130000114E-1,4.360500276E-1,1.890925149E0
1.970900962E0,1.767000079E0,-1.680000126E-1,4.750500321E-1,1.837440017E0
1.972863094E0,1.729050040E0,-1.500000060E-2,6.280500293E-1,1.839642868E0
1.974825348E0,1.651950121E0,2.140500098E-1,7.810500264E-1,1.839781442E0
1.976788024E0,1.614000082E0,5.209500194E-1,8.580000401E-1,1.900670738E0
1.978750577E0,1.614000082E0,7.510500550E-1,8.959500194E-1,1.992937251E0
1.980713339E0,1.537050128E0,9.040500522E-1,9.730500579E-1,2.031417241E0
1.982676039E0,1.498950124E0,1.096050024E0,9.730500579E-1,2.096426375E0
1.984638671E0,1.459950089E0,1.096050024E0,8.580000401E-1,2.017162360E0
1.986601333E0,1.422000051E0,1.210950017E0,7.429500222E-1,2.010089257E0
1.988564075E0,1.345050097E0,1.288050056E0,6.660000086E-1,1.977824239E0
1.990526793E0,1.345050097E0,1.326000094E0,5.130000114E-1,1.957193149E0
1.992489392E0,1.345050097E0,1.363950014E0,3.979500234E-1,1.956497796E0
1.994452026E0,1.384050012E0,1.402950048E0,3.220500052E-1,1.996892456E0
1.996415724E0,1.306950092E0,1.441050053E0,2.070000172E-1,1.956423473E0
1.998379106E0,1.345050097E0,1.479000092E0,9.195000678E-2,2.001263560E0
2.000341636E0,1.384050012E0,1.518000126E0,5.295000225E-2,2.054926402E0
2.002304415E0,1.498950124E0,1.479000092E0,1.500000060E-2,2.105829467E0
2.004267362E0,1.498950124E0,1.518000126E0,-1.369500011E-1,2.137739731E0
2.006230259E0,1.614000082E0,1.555950046E0,-2.520000041E-1,2.255987768E0
2.008193167E0,1.575000048E0,1.555950046E0,-2.910000086E-1,2.232999485E0
2.010156055E0,1.614000082E0,1.555950046E0,-4.060500264E-1,2.278344450E0
2.012118488E0,1.690050125E0,1.594050050E0,-4.060500264E-1,2.358419303E0
2.014081055E0,1.690050125E0,1.633050084E0,-5.209500194E-1,2.407179039E0
2.016043677E0,1.767000079E0,1.633050084E0,-6.360000372E-1,2.488702052E0
2.018006283E0,1.843950033E0,1.633050084E0,-7.120500207E-1,2.563985089E0
2.019969086E0,1.996950150E0,1.594050050E0,-8.269500136E-1,2.685638059E0
2.021931827E0,2.111999989E0,1.594050050E0,-9.420000315E-1,2.808719205E0
2.023894557E0,2.227050066E0,1.555950046E0,-8.659500480E-1,2.851421054E0
2.025857290E0,2.265000105E0,1.555950046E0,-9.420000315E-1,2.904921699E0
2.027820110E0,2.380050182E0,1.555950046E0,-9.810000658E-1,3.007986128E0
2.029782904E0,2.457000017E0,1.594050050E0,-1.018950105E0,3.100984354E0
2.031745611E0,2.572050095E0,1.518000126E0,-1.057050109E0,3.168141569E0
2.033708353E0,2.610000134E0,1.555950046E0,-1.134000063E0,3.243306551E0
2.035670992E0,2.725050211E0,1.518000126E0,-1.134000063E0,3.319062997E0
2.037633661E0,2.764050245E0,1.518000126E0,-1.018950105E0,3.313994185E0
2.039596447E0,2.917050123E0,1.555950046E0,-1.057050109E0,3.470953313E0
2.041559198E0,2.917050123E0,1.518000126E0,-9.810000658E-1,3.431598306E0
2.043522119E0,2.992950201E0,1.555950046E0,-8.659500480E-1,3.482614095E0
2.045484981E0,3.108000040E0,1.518000126E0,-8.269500136E-1,3.556379473E0
2.047447780E0,3.147000074E0,1.479000092E0,-6.360000372E-1,3.534904070E0
2.049410598E0,3.184950113E0,1.441050053E0,-5.209500194E-1,3.534391235E0
2.051373359E0,3.184950113E0,1.441050053E0,-4.440000355E-1,3.523871239E0
2.053336137E0,3.262050152E0,1.402950048E0,-3.289500177E-1,3.566153130E0
2.055298645E0,3.223050117E0,1.402950048E0,-1.369500011E-1,3.517822651E0
2.057261257E0,3.184950113E0,1.326000094E0,-2.205000073E-2,3.450024591E0
2.059223917E0,3.223050117E0,1.249050021E0,9.195000678E-2,3.457836436E0
2.061186562E0,3.184950113E0,1.210950017E0,2.449500114E-1,3.416183203E0
2.063148633E0,3.184950113E0,1.173000097E0,3.600000143E-1,3.413127080E0
2.065110872E0,3.147000074E0,1.057950020E0,4.750500321E-1,3.353884352E0
2.067074062E0,3.070050240E0,9.430500269E-1,6.660000086E-1,3.279955463E0
2.069036962E0,2.917050123E0,8.280000687E-1,7.429500222E-1,3.121976981E0
2.070999530E0,2.725050211E0,6.739500165E-1,8.200500607E-1,2.924481044E0
2.072962195E0,2.494950056E0,4.060500264E-1,9.730500579E-1,2.708593514E0
2.074925567E0,2.149950027E0,1.759500057E-1,1.011000037E0,2.382302374E0
2.076888731E0,1.804950118E0,-5.295000225E-2,1.011000037E0,2.069485372E0
2.078851593E0,1.614000082E0,-1.290000081E-1,1.011000037E0,1.908863102E0
2.080814526E0,1.459950089E0,-2.059500068E-1,1.050000072E0,1.810074534E0
2.082777087E0,1.306950092E0,-3.210000098E-1,1.126049995E0,1.754750165E0
2.084739757E0,1.306950092E0,-4.740000367E-1,1.087950110E0,1.765341333E0
2.086702408E0,1.230000019E0,-6.280500293E-1,1.050000072E0,1.734891073E0
2.088665065E0,1.153950095E0,-8.190000653E-1,9.349500537E-1,1.696022857E0
2.090627682E0,1.114950061E0,-1.011000037E0,1.011000037E0,1.813106668E0
2.092590305E0,1.039050102E0,-1.126049995E0,8.959500194E-1,1.774919757E0
2.094552919E0,1.000050068E0,-1.240950108E0,8.959500194E-1,1.828328128E0
2.096515535E0,1.000050068E0,-1.318050027E0,7.810500264E-1,1.829588794E0
2.098478150E0,1.000050068E0,-1.393950105E0,7.429500222E-1,1.869537849E0
2.100440766E0,1.039050102E0,-1.393950105E0,8.200500607E-1,1.922291370E0
2.102403401E0,9.619500637E-1,-1.393950105E0,8.580000401E-1,1.898580756E0
2.104366017E0,9.240000248E-1,-1.393950105E0,8.959500194E-1,1.897261020E0
2.106328407E0,8.470500112E-1,-1.356000066E0,8.959500194E-1,1.832745573E0
2.108290863E0,7.699500322E-1,-1.318050027E0,9.349500537E-1,1.790030874E0
2.110253550E0,6.940500140E-1,-1.356000066E0,9.730500579E-1,1.807558579E0
2.112216169E0,6.940500140E-1,-1.318050027E0,1.050000072E0,1.822487708E0
2.114178019E0,6.169500351E-1,-1.240950108E0,1.126049995E0,1.785657612E0
2.116140094E0,4.639500082E-1,-1.203000069E0,1.165050030E0,1.737757275E0
2.118102801E0,4.639500082E-1,-1.279050112E0,1.165050030E0,1.791245480E0
2.120065323E0,3.870000243E-1,-1.203000069E0,1.203000069E0,1.744759969E0
2.122027775E0,3.490500152E-1,-1.240950108E0,1.356000066E0,1.870970139E0
2.123990248E0,3.109500110E-1,-1.164000034E0,1.356000066E0,1.813924521E0
2.125952906E0,2.719500065E-1,-1.126049995E0,1.395000100E0,1.813276228E0
2.127915496E0,2.340000123E-1,-1.126049995E0,1.356000066E0,1.778055336E0
2.129878160E0,1.960500032E-1,-1.087950110E0,1.395000100E0,1.779914696E0
2.131840803E0,1.960500032E-1,-1.048950076E0,1.432950020E0,1.786638639E0
2.133803955E0,1.570500135E-1,-1.087950110E0,1.432950020E0,1.806002743E0
2.135766957E0,1.570500135E-1,-1.048950076E0,1.432950020E0,1.782780617E0
2.137729507E0,1.189500093E-1,-1.048950076E0,1.356000066E0,1.718482338E0
2.139692190E0,8.100000024E-2,-1.011000037E0,1.318050027E0,1.663110925E0
2.141654794E0,4.200000316E-2,-1.048950076E0,1.203000069E0,1.596643175E0
2.143617421E0,-3.299999982E-2,-9.730500579E-1,1.165050030E0,1.518307277E0
2.145580034E0,4.050000105E-3,-9.730500579E-1,1.050000072E0,1.431552642E0
2.147542651E0,-7.200000435E-2,-9.730500579E-1,8.200500607E-1,1.274555812E0
2.149505256E0,-7.200000435E-2,-9.730500579E-1,6.660000086E-1,1.181340945E0
2.151467872E0,-3.299999982E-2,-8.959500194E-1,3.600000143E-1,9.661342803E-1
2.153431207E0,-7.200000435E-2,-8.580000401E-1,1.300500035E-1,8.707818744E-1
2.155394332E0,4.200000316E-2,-8.959500194E-1,-2.205000073E-2,8.972049041E-1
2.157356816E0,1.189500093E-1,-8.959500194E-1,-1.759500057E-1,9.207789889E-1
2.159319488E0,1.960500032E-1,-8.190000653E-1,-4.060500264E-1,9.349188920E-1
2.161283004E0,3.870000243E-1,-6.660000086E-1,-5.970000029E-1,9.745429871E-1
2.163246265E0,6.169500351E-1,-5.890500546E-1,-8.269500136E-1,1.188046143E0
2.165208816E0,8.470500112E-1,-5.509500504E-1,-1.096050024E0,1.490759986E0
2.167171575E0,1.077000022E0,-4.740000367E-1,-1.326000094E0,1.772817343E0
2.169134345E0,1.269000053E0,-3.979500234E-1,-1.632000089E0,2.105267120E0
2.171097111E0,1.345050097E0,-2.830500007E-1,-1.977000117E0,2.407863478E0
2.173060191E0,1.498950124E0,-2.440500110E-1,-2.245050192E0,2.710472698E0
2.175023183E0,1.651950121E0,-2.059500068E-1,-2.551950216E0,3.046933625E0
2.176985960E0,1.729050040E0,-1.680000126E-1,-2.859000206E0,3.345402849E0
2.178948800E0,1.882050037E0,-1.680000126E-1,-3.088950157E0,3.621042588E0
2.180911557E0,2.035050154E0,-1.680000126E-1,-3.357000113E0,3.929262385E0
2.182874339E0,2.149950027E0,-1.680000126E-1,-3.586950064E0,4.185298064E0
2.184837125E0,2.149950027E0,-1.290000081E-1,-3.739950180E0,4.315802761E0
2.186799896E0,2.074050188E0,-1.290000081E-1,-3.855000257E0,4.379423726E0
2.188762665E0,2.035050154E0,-1.290000081E-1,-3.855000257E0,4.361088983E0
2.190725435E0,2.074050188E0,-1.290000081E-1,-3.702000141E0,4.245365736E0
2.192688159E0,2.111999989E0,-1.680000126E-1,-3.549000263E0,4.133300234E0
2.194650896E0,2.111999989E0,-1.680000126E-1,-3.319050074E0,3.937621280E0
2.196613477E0,2.188950062E0,-1.290000081E-1,-3.088950157E0,3.788107238E0
2.198576113E0,2.265000105E0,-2.059500068E-1,-2.704950094E0,3.534033941E0
2.200538949E0,2.304000139E0,-2.440500110E-1,-2.398950100E0,3.335106990E0
2.202501727E0,2.380050182E0,-2.830500007E-1,-2.053950071E0,3.156496011E0
2.204464270E0,2.494950056E0,-3.979500234E-1,-1.747050047E0,3.071697230E0
2.206426882E0,2.572050095E0,-4.360500276E-1,-1.555950046E0,3.037525615E0
2.208389542E0,2.686950207E0,-5.130000114E-1,-1.516950130E0,3.127939917E0
2.210352188E0,2.878050089E0,-5.890500546E-1,-1.479000092E0,3.289011029E0
2.212314979E0,2.839950085E0,-5.890500546E-1,-1.402050018E0,3.221496656E0
2.214277727E0,2.878050089E0,-6.280500293E-1,-1.441050053E0,3.279366464E0
2.216240635E0,2.878050089E0,-6.280500293E-1,-1.479000092E0,3.296219110E0
2.218203496E0,2.839950085E0,-6.660000086E-1,-1.326000094E0,3.204239184E0
2.220166278E0,2.725050211E0,-6.280500293E-1,-1.057050109E0,2.989598706E0
2.222129064E0,2.494950056E0,-5.509500504E-1,-8.659500480E-1,2.697812304E0
2.224091831E0,2.341950178E0,-5.130000114E-1,-6.360000372E-1,2.480402325E0
2.226054603E0,2.074050188E0,-4.740000367E-1,-6.360000372E-1,2.220553144E0
2.228017731E0,1.843950033E0,-4.740000367E-1,-6.360000372E-1,2.007317565E0
2.229980755E0,1.614000082E0,-6.280500293E-1,-5.970000029E-1,1.831898498E0
2.231943722E0,1.537050128E0,-7.429500222E-1,-7.120500207E-1,1.849733241E0
2.233906695E0,1.384050012E0,-1.048950076E0,-6.739500165E-1,1.862820260E0
2.235869609E0,1.269000053E0,-1.318050027E0,-5.590500236E-1,1.913152879E0
2.237832541E0,1.192050099E0,-1.585950017E0,-5.590500236E-1,2.061251519E0
2.239795057E0,1.192050099E0,-1.893000126E0,-5.590500236E-1,2.305855556E0
2.241757695E0,1.230000019E0,-2.199000120E0,-8.659500480E-1,2.664276836E0
2.243720407E0,1.306950092E0,-2.506050110E0,-1.326000094E0,3.121967640E0
2.245683057E0,1.345050097E0,-2.926950216E0,-1.861950040E0,3.720625657E0
2.247645847E0,1.345050097E0,-3.157050133E0,-2.437050104E0,4.208959315E0
2.249608596E0,1.422000051E0,-3.463950157E0,-2.859000206E0,4.711148163E0
2.251571549E0,1.459950089E0,-3.732000113E0,-3.165000200E0,5.106515972E0
2.253534442E0,1.422000051E0,-4.077000141E0,-3.280050039E0,5.422429580E0
2.255497525E0,1.306950092E0,-4.422000408E0,-3.472050190E0,5.772117348E0
2.257460538E0,1.192050099E0,-4.804950237E0,-3.778950214E0,6.228081161E0
2.259423626E0,9.619500637E-1,-5.304000378E0,-3.702000141E0,6.539309824E0
2.261386692E0,6.550500393E-1,-5.725050449E0,-3.012000084E0,6.502110250E0
2.263348735E0,3.490500152E-1,-6.147000313E0,-1.516950130E0,6.341024086E0
2.265311078E0,-3.299999982E-2,-6.798000336E0,-6.105000153E-2,6.798354556E0
2.267273326E0,-8.380500674E-1,-7.603050232E0,1.240950108E0,7.749106911E0
2.269235608E0,-2.065050125E0,-8.791950226E0,2.008050203E0,9.251761260E0
2.271198820E0,-3.520950079E0,-1.021005058E1,2.545050144E0,1.109592279E1
2.273161760E0,-5.169000149E0,-1.185795021E1,2.736000061E0,1.322177152E1
2.275124681E0,-7.047000408E0,-1.335300064E1,2.812950134E0,1.535823979E1
2.277087608E0,-8.925000191E0,-1.500105095E1,3.234000206E0,1.775234957E1
2.279050535E0,-1.076505089E1,-1.672500038E1,3.924000263E0,2.027337506E1
2.281013459E0,-1.245195103E1,-1.860300064E1,4.345950127E0,2.280372776E1
2.282976202E0,-1.448295116E1,-2.055795097E1,4.729050159E0,2.558806632E1
2.284938998E0,-1.609305000E1,-2.255100060E1,5.266050339E0,2.820044632E1
2.286901806E0,-1.747200012E1,-2.465895081E1,5.686950207E0,3.075184622E1
2.288864611E0,-1.850699997E1,-2.665200043E1,6.531000137E0,3.309821955E1
2.290827379E0,-1.919700050E1,-2.879895210E1,7.527000427E0,3.541977140E1
2.292790155E0,-1.931205177E1,-3.144300079E1,8.677050591E0,3.790658056E1
2.294752923E0,-1.885200119E1,-3.427905273E1,9.558000565E0,4.027166225E1
2.296715694E0,-1.762605095E1,-3.719205093E1,1.036305046E1,4.244195023E1
2.298678777E0,-1.578600121E1,-4.014300156E1,1.132200050E1,4.459648084E1
2.300641769E0,-1.318005085E1,-4.336305237E1,1.159005070E1,4.678030917E1
2.302604661E0,-9.883950233E0,-4.635300064E1,9.942000389E0,4.842660955E1
2.304567597E0,-6.549000263E0,-4.915005112E1,7.411950588E0,5.013535619E1
2.306531102E0,-2.716050148E0,-5.217795181E1,4.959000111E0,5.248339991E1
2.308494441E0,1.114950061E0,-5.505300140E1,2.122950077E0,5.510519934E1
2.310458149E0,4.909950256E0,-5.800395203E1,-1.824000120E0,5.823996084E1
2.312421749E0,8.436000824E0,-6.080205154E1,-6.193050385E0,6.169610567E1
2.314384377E0,1.161705017E1,-6.302505112E1,-9.681000710E0,6.481384650E1
2.316347289E0,1.414695072E1,-6.482595062E1,-1.240200043E1,6.750073854E1
2.318309899E0,1.587195110E1,-6.586095428E1,-1.462500095E1,6.930710486E1
2.320272597E0,1.679100037E1,-6.589995575E1,-1.592805099E1,6.984586365E1
2.322235512E0,1.656105042E1,-6.398295212E1,-1.569795036E1,6.793020093E1
2.324198364E0,1.380195045E1,-5.850195312E1,-1.416495037E1,6.175449923E1
2.326161147E0,9.163949966E0,-5.129700089E1,-1.290105057E1,5.368237499E1
2.328123963E0,4.105050087E0,-4.485795212E1,-1.121400070E1,4.642026622E1
2.330085958E0,4.200000316E-2,-3.960705185E1,-8.953050613E0,4.060637186E1
2.332048193E0,-2.908050060E0,-3.562095261E1,-6.232050419E0,3.627874684E1
2.334010873E0,-5.131050110E0,-3.255495071E1,-3.970050097E0,3.319508682E1
2.335973422E0,-6.741000175E0,-2.994795227E1,-2.322000027E0,3.078494133E1
2.337935910E0,-7.660950184E0,-2.791695213E1,-1.363950014E0,2.898114445E1
2.339898419E0,-8.274000168E0,-2.626905060E1,-6.739500165E-1,2.754952462E1
2.341861232E0,-8.389050484E0,-2.496600151E1,-2.910000086E-1,2.633936371E1
2.343823956E0,-8.082000732E0,-2.393100166E1,-3.670500219E-1,2.526155779E1
2.345786374E0,-7.584000587E0,-2.312595177E1,-7.890000343E-1,2.435054889E1
2.347748881E0,-6.931950092E0,-2.255100060E1,-1.134000063E0,2.361960025E1
2.349711879E0,-6.357000351E0,-2.224500084E1,-1.632000089E0,2.319299334E1
2.351674730E0,-5.974050522E0,-2.193795013E1,-2.092050076E0,2.283286248E1
2.353637306E0,-5.821050167E0,-2.163105011E1,-2.514000177E0,2.254123224E1
2.355599963E0,-5.782950401E0,-2.140095139E1,-3.049950123E0,2.237734192E1
2.357562705E0,-5.782950401E0,-2.132505035E1,-3.394950151E0,2.235455154E1
2.359525422E0,-5.706000328E0,-2.132505035E1,-3.664050102E0,2.237725353E1
2.361488045E0,-5.743950367E0,-2.132505035E1,-3.739950180E0,2.239950816E1
2.363450679E0,-5.553000450E0,-2.132505035E1,-3.702000141E0,2.234498583E1
2.365413335E0,-5.514000416E0,-2.136300087E1,-3.702000141E0,2.237156257E1
2.367375985E0,-5.743950367E0,-2.136300087E1,-3.739950180E0,2.243564127E1
2.369338551E0,-6.013050079E0,-2.140095139E1,-3.549000263E0,2.251117266E1
2.371301141E0,-6.088950157E0,-2.140095139E1,-3.472050190E0,2.251957297E1
2.373263740E0,-6.166050434E0,-2.151600075E1,-3.280050039E0,2.262116695E1
2.375226350E0,-6.319050312E0,-2.174595070E1,-2.935050249E0,2.283487002E1
2.377189192E0,-6.396000385E0,-2.197605133E1,-2.551950216E0,2.302972216E1
2.379151966E0,-6.511050224E0,-2.224500084E1,-2.169000149E0,2.327957042E1
2.381114690E0,-6.357000351E0,-2.262795067E1,-1.939050078E0,2.358379783E1
2.383077429E0,-6.280950069E0,-2.281905174E1,-1.555950046E0,2.371877815E1
2.385039907E0,-6.204000473E0,-2.301105118E1,-1.134000063E0,2.385967423E1
2.387002448E0,-6.051000118E0,-2.316405106E1,-7.510500550E-1,2.395311963E1
2.388965391E0,-5.859000206E0,-2.324100113E1,-5.590500236E-1,2.397466483E1
2.390928216E0,-5.706000328E0,-2.327895164E1,-2.520000041E-1,2.396938742E1
2.392891022E0,-5.629050255E0,-2.324100113E1,-2.205000073E-2,2.391298447E1
2.394853833E0,-5.476050377E0,-2.312595177E1,2.070000172E-1,2.376635483E1
2.396815834E0,-5.361000061E0,-2.293395042E1,3.220500052E-1,2.355440765E1
2.398778069E0,-5.169000149E0,-2.270400047E1,5.899500251E-1,2.329245030E1
2.400740974E0,-5.053950310E0,-2.232105064E1,6.280500293E-1,2.289467542E1
2.402703682E0,-4.824000359E0,-2.193795013E1,6.280500293E-1,2.247084961E1
2.404666642E0,-4.555950165E0,-2.155500031E1,7.810500264E-1,2.204506201E1
2.406629528E0,-4.173000336E0,-2.113305092E1,9.730500579E-1,2.156308418E1
2.408592399E0,-3.865950108E0,-2.071095085E1,1.087950110E0,2.109674598E1
2.410555285E0,-3.445050240E0,-2.021295166E1,1.165050030E0,2.053750539E1
2.412518213E0,-3.061050177E0,-1.983000183E1,1.240950108E0,2.010320765E1
2.414481129E0,-2.755050182E0,-1.936995125E1,1.240950108E0,1.960421562E1
2.416443514E0,-2.371050119E0,-1.894799995E1,1.240950108E0,1.913605336E1
2.418406054E0,-2.026050091E0,-1.856505013E1,1.356000066E0,1.872444128E1
2.420368896E0,-1.681950092E0,-1.802805138E1,1.432950020E0,1.816295511E1
2.422331657E0,-1.336950064E0,-1.745400047E1,1.471050024E0,1.756683114E1
2.424294249E0,-9.150000215E-1,-1.703205109E1,1.510050058E0,1.712332446E1
2.426256890E0,-6.850500107E-1,-1.645695114E1,1.510050058E0,1.654027767E1
2.428219501E0,-2.250000089E-1,-1.584405041E1,1.510050058E0,1.591743728E1
2.430182121E0,1.570500135E-1,-1.530705070E1,1.624950051E0,1.539386010E1
2.432145802E0,5.020500422E-1,-1.473195076E1,1.777950048E0,1.484734097E1
2.434109182E0,1.039050102E0,-1.408095074E1,1.701000094E0,1.422132906E1
2.436071442E0,1.192050099E0,-1.346700096E1,1.585950017E0,1.361235967E1
2.438034030E0,1.230000019E0,-1.281600094E1,1.510050058E0,1.296314126E1
2.439996649E0,1.192050099E0,-1.220295048E1,1.432950020E0,1.234448580E1
2.441959259E0,1.192050099E0,-1.158900070E1,1.395000100E0,1.173336891E1
2.443921727E0,1.306950092E0,-1.105305099E1,1.356000066E0,1.121234993E1
2.445884247E0,1.345050097E0,-1.047795010E1,1.318050027E0,1.064583740E1
2.447847058E0,1.384050012E0,-9.903000832E0,1.240950108E0,1.007596035E1
2.449809783E0,1.345050097E0,-9.328050613E0,1.087950110E0,9.487113547E0
2.451772515E0,1.384050012E0,-8.791950226E0,1.050000072E0,8.961946405E0
2.453735245E0,1.498950124E0,-8.254950523E0,1.050000072E0,8.455386435E0
2.455698070E0,1.614000082E0,-7.795050144E0,1.011000037E0,8.024333249E0
2.457660864E0,1.729050040E0,-7.219950199E0,9.730500579E-1,7.487597835E0
2.459623585E0,1.804950118E0,-6.798000336E0,9.730500579E-1,7.100526735E0
2.461586328E0,1.843950033E0,-6.376950264E0,8.959500194E-1,6.698385838E0
2.463548966E0,2.035050154E0,-5.994000435E0,9.730500579E-1,6.404396674E0
2.465511635E0,2.188950062E0,-5.494950294E0,8.200500607E-1,5.971470775E0
2.467474556E0,2.341950178E0,-5.112000465E0,8.200500607E-1,5.682408072E0
2.469437403E0,2.419050217E0,-4.651950359E0,8.580000401E-1,5.313060339E0
2.471400384E0,2.610000134E0,-4.345950127E0,8.200500607E-1,5.135354448E0
2.473363326E0,2.725050211E0,-3.924000263E0,9.349500537E-1,4.868039474E0
2.475326021E0,2.917050123E0,-3.616950274E0,9.349500537E-1,4.739793488E0
2.477288789E0,3.147000074E0,-3.234000206E0,1.011000037E0,4.624336480E0
2.479251419E0,3.376950264E0,-2.889000177E0,9.349500537E-1,4.541392596E0
2.481214093E0,3.415050268E0,-2.467050076E0,1.011000037E0,4.332554153E0
2.483176698E0,3.415050268E0,-2.161050081E0,1.050000072E0,4.175548579E0
2.485139324E0,3.453000069E0,-1.854000092E0,1.126049995E0,4.077807549E0
2.487102116E0,3.529950142E0,-1.509000063E0,1.087950110E0,3.990145942E0
2.489064860E0,3.682950258E0,-1.279050112E0,1.240950108E0,4.091460493E0
2.491027448E0,3.760050297E0,-9.730500579E-1,1.356000066E0,4.113823140E0
2.492990055E0,3.760050297E0,-5.890500546E-1,1.432950020E0,4.066731361E0
2.494952491E0,3.798000097E0,-3.589500189E-1,1.471050024E0,4.088720830E0
2.496914978E0,3.798000097E0,-1.680000126E-1,1.432950020E0,4.062803774E0
2.498876894E0,3.607050180E0,-1.290000081E-1,1.432950020E0,3.883400284E0
2.500838978E0,3.453000069E0,-1.500000060E-2,1.356000066E0,3.709739971E0
2.502801188E0,3.223050117E0,1.380000114E-1,1.432950020E0,3.529935102E0
2.504763361E0,3.070050240E0,2.140500098E-1,1.356000066E0,3.362998968E0
2.506725872E0,2.878050089E0,3.679500222E-1,1.240950108E0,3.155711758E0
2.508688284E0,2.610000134E0,4.060500264E-1,1.240950108E0,2.918378743E0
2.510650889E0,2.457000017E0,4.830000103E-1,1.165050030E0,2.761789215E0
2.512613438E0,2.341950178E0,5.980500579E-1,9.349500537E-1,2.591626152E0
2.514575905E0,2.188950062E0,6.360000372E-1,8.200500607E-1,2.422494690E0
2.516538382E0,1.996950150E0,7.510500550E-1,5.899500251E-1,2.213577899E0
2.518501561E0,1.882050037E0,8.280000687E-1,3.600000143E-1,2.087413823E0
2.520464534E0,1.690050125E0,9.040500522E-1,1.300500035E-1,1.921064529E0
2.522427134E0,1.537050128E0,9.810000658E-1,1.500000060E-2,1.823488203E0
2.524389843E0,1.537050128E0,1.018950105E0,-2.140500098E-1,1.856502038E0
2.526352596E0,1.384050012E0,1.173000097E0,-4.060500264E-1,1.859139663E0
2.528315322E0,1.345050097E0,1.210950017E0,-5.590500236E-1,1.894227187E0
2.530277965E0,1.306950092E0,1.288050056E0,-7.890000343E-1,1.997426480E0
2.532240632E0,1.306950092E0,1.363950014E0,-1.018950105E0,2.146331172E0
2.534203193E0,1.230000019E0,1.402950048E0,-1.287000060E0,2.266613783E0
2.536165785E0,1.114950061E0,1.479000092E0,-1.555950046E0,2.418994720E0
2.538128250E0,1.077000022E0,1.518000126E0,-1.824000120E0,2.605998823E0
2.540090766E0,1.077000022E0,1.555950046E0,-2.092050076E0,2.820918841E0
2.542053352E0,1.114950061E0,1.633050084E0,-2.359950066E0,3.078852144E0
2.544015918E0,1.153950095E0,1.671000123E0,-2.743950129E0,3.413664386E0
2.545978002E0,1.192050099E0,1.747950077E0,-3.204000235E0,3.839522160E0
2.547940228E0,1.230000019E0,1.786050081E0,-3.625050068E0,4.224199680E0
2.549902719E0,1.306950092E0,1.863000035E0,-4.009050369E0,4.609921099E0
2.551865139E0,1.384050012E0,1.863000035E0,-4.392000198E0,4.967497288E0
2.553827833E0,1.459950089E0,1.939050078E0,-4.736999989E0,5.322643926E0
2.555790447E0,1.614000082E0,2.016000032E0,-4.927950382E0,5.563627177E0
2.557752658E0,1.729050040E0,2.016000032E0,-5.197050095E0,5.836368722E0
2.559714987E0,1.767000079E0,2.053950071E0,-5.235000134E0,5.894592995E0
2.561677730E0,1.920000076E0,2.092950106E0,-5.119950294E0,5.854974932E0
2.563640327E0,1.996950150E0,2.092950106E0,-4.927950382E0,5.714275546E0
2.565602902E0,2.074050188E0,2.131050110E0,-4.545000076E0,5.431398020E0
2.567565483E0,2.149950027E0,2.092950106E0,-4.237950325E0,5.192585890E0
2.569527969E0,2.265000105E0,2.053950071E0,-3.855000257E0,4.920362116E0
2.571490483E0,2.380050182E0,2.053950071E0,-3.357000113E0,4.599217273E0
2.573453290E0,2.419050217E0,2.016000032E0,-2.896950245E0,4.278829373E0
2.575416014E0,2.419050217E0,1.939050078E0,-2.359950066E0,3.896290989E0
2.577378746E0,2.380050182E0,1.900950074E0,-1.708950043E0,3.492672373E0
2.579341476E0,2.341950178E0,1.824000120E0,-1.134000063E0,3.177682051E0
2.581304117E0,2.304000139E0,1.824000120E0,-5.590500236E-1,2.991309079E0
2.583266785E0,2.227050066E0,1.747950077E0,1.500000060E-2,2.831131659E0
2.585228445E0,2.111999989E0,1.633050084E0,5.509500504E-1,2.725975511E0
2.587190401E0,1.959000111E0,1.555950046E0,1.087950110E0,2.728057445E0
2.589153129E0,1.729050040E0,1.402950048E0,1.510050058E0,2.690378051E0
2.591115630E0,1.422000051E0,1.249050021E0,1.777950048E0,2.596789648E0
2.593078265E0,1.230000019E0,1.018950105E0,2.122950077E0,2.656704047E0
2.595040860E0,8.470500112E-1,8.280000687E-1,2.430000067E0,2.703327239E0
2.597002380E0,4.639500082E-1,6.360000372E-1,2.698050022E0,2.810555030E0
2.598964228E0,2.340000123E-1,4.060500264E-1,2.812950134E0,2.851722477E0
2.600926794E0,8.100000024E-2,2.140500098E-1,2.812950134E0,2.822245004E0
2.602889149E0,4.050000105E-3,9.900000691E-2,2.736000061E0,2.737793589E0
2.604852710E0,-1.099500060E-1,-1.500000060E-2,2.698050022E0,2.700331077E0
2.606815918E0,-1.480500102E-1,-1.290000081E-1,2.620950222E0,2.628296002E0
2.608778433E0,-1.099500060E-1,-1.680000126E-1,2.545050144E0,2.552957744E0
2.610741151E0,-3.299999982E-2,-2.440500110E-1,2.430000067E0,2.442447488E0
2.612703749E0,4.200000316E-2,-3.210000098E-1,2.238000154E0,2.261293811E0
2.614666382E0,1.570500135E-1,-3.589500189E-1,2.085000038E0,2.121493573E0
2.616628859E0,2.340000123E-1,-4.360500276E-1,1.930950046E0,1.993354888E0
2.618591382E0,3.109500110E-1,-4.740000367E-1,1.777950048E0,1.866138344E0
2.620553838E0,4.260000288E-1,-4.740000367E-1,1.624950051E0,1.745455450E0
2.622516310E0,3.870000243E-1,-4.360500276E-1,1.585950017E0,1.689717758E0
2.624479084E0,3.490500152E-1,-3.979500234E-1,1.585950017E0,1.671956217E0
2.626441770E0,3.109500110E-1,-3.210000098E-1,1.471050024E0,1.537439133E0
2.628404419E0,2.719500065E-1,-3.210000098E-1,1.471050024E0,1.530028100E0
2.630367079E0,3.870000243E-1,-3.210000098E-1,1.318050027E0,1.410696955E0
2.632329642E0,3.870000243E-1,-3.589500189E-1,1.203000069E0,1.313705941E0
2.634292233E0,4.260000288E-1,-3.589500189E-1,9.730500579E-1,1.121225916E0
2.636254897E0,4.639500082E-1,-3.589500189E-1,8.959500194E-1,1.070897364E0
2.638217539E0,4.639500082E-1,-3.589500189E-1,8.200500607E-1,1.008254347E0
2.640180646E0,5.410500169E-1,-3.589500189E-1,7.050000429E-1,9.584389899E-1
2.642143616E0,5.410500169E-1,-3.979500234E-1,7.050000429E-1,9.737167978E-1
2.644106366E0,5.410500169E-1,-4.360500276E-1,6.280500293E-1,9.366544649E-1
2.646069170E0,5.790000558E-1,-3.979500234E-1,5.899500251E-1,9.174128394E-1
2.648032112E0,5.410500169E-1,-3.979500234E-1,5.899500251E-1,8.939465163E-1
2.649995014E0,5.790000558E-1,-3.589500189E-1,5.130000114E-1,8.527925846E-1
2.651957221E0,5.790000558E-1,-3.979500234E-1,5.509500504E-1,8.928332676E-1
2.653919632E0,5.020500422E-1,-4.360500276E-1,5.130000114E-1,8.398588472E-1
2.655882296E0,5.410500169E-1,-3.979500234E-1,5.130000114E-1,8.451439840E-1
2.657844875E0,5.020500422E-1,-4.360500276E-1,4.750500321E-1,8.172309370E-1
2.659807677E0,5.020500422E-1,-4.360500276E-1,6.660000086E-1,9.411428600E-1
2.661770413E0,4.639500082E-1,-4.740000367E-1,6.280500293E-1,9.134399182E-1
2.663733233E0,4.260000288E-1,-4.740000367E-1,7.050000429E-1,9.503563121E-1
2.665696028E0,3.870000243E-1,-4.740000367E-1,7.810500264E-1,9.922117704E-1
2.667658970E0,3.490500152E-1,-4.740000367E-1,8.200500607E-1,1.009452352E0
2.669621871E0,2.719500065E-1,-4.360500276E-1,9.730500579E-1,1.100419396E0
2.671584798E0,2.340000123E-1,-5.130000114E-1,1.050000072E0,1.191815912E0
2.673547717E0,1.960500032E-1,-5.130000114E-1,1.126049995E0,1.252834070E0
2.675510416E0,2.340000123E-1,-5.130000114E-1,1.240950108E0,1.363041521E0
2.677473180E0,2.719500065E-1,-5.509500504E-1,1.356000066E0,1.488703779E0
2.679436310E0,2.719500065E-1,-6.280500293E-1,1.395000100E0,1.553843275E0
2.681399332E0,2.340000123E-1,-6.280500293E-1,1.471050024E0,1.616536736E0
2.683362284E0,3.109500110E-1,-6.280500293E-1,1.471050024E0,1.629455407E0
2.685325257E0,3.109500110E-1,-6.660000086E-1,1.471050024E0,1.644455562E0
2.687288171E0,3.870000243E-1,-7.039500475E-1,1.471050024E0,1.676097510E0
2.689251103E0,5.020500422E-1,-7.429500222E-1,1.510050058E0,1.756211878E0
2.691214584E0,5.410500169E-1,-7.429500222E-1,1.510050058E0,1.767755932E0
2.693177890E0,5.790000558E-1,-8.190000653E-1,1.510050058E0,1.812802623E0
2.695140884E0,6.169500351E-1,-8.190000653E-1,1.510050058E0,1.825277960E0
2.697103969E0,6.940500140E-1,-8.190000653E-1,1.510050058E0,1.852759485E0
2.699066684E0,8.089500666E-1,-8.959500194E-1,1.471050024E0,1.902922705E0
2.701029507E0,1.000050068E0,-8.959500194E-1,1.471050024E0,1.991686408E0
2.702992491E0,1.153950095E0,-9.340500236E-1,1.510050058E0,2.117616927E0
2.704955428E0,1.306950092E0,-8.580000401E-1,1.471050024E0,2.146688330E0
2.706918484E0,1.345050097E0,-9.340500236E-1,1.471050024E0,2.201271765E0
2.708881505E0,1.459950089E0,-9.340500236E-1,1.471050024E0,2.273299779E0
2.710844052E0,1.498950124E0,-8.959500194E-1,1.432950020E0,2.258965177E0
2.712806738E0,1.498950124E0,-8.580000401E-1,1.356000066E0,2.195848747E0
2.714769706E0,1.651950121E0,-8.190000653E-1,1.240950108E0,2.222534022E0
2.716732587E0,1.767000079E0,-8.190000653E-1,9.730500579E-1,2.177125812E0
2.718696599E0,1.882050037E0,-7.429500222E-1,5.509500504E-1,2.097053418E0
2.720660279E0,1.996950150E0,-6.280500293E-1,2.070000172E-1,2.103593532E0
2.722623118E0,2.111999989E0,-5.890500546E-1,-1.369500011E-1,2.196879428E0
2.724586204E0,2.227050066E0,-5.130000114E-1,-5.970000029E-1,2.362060544E0
2.726548758E0,2.380050182E0,-4.740000367E-1,-1.171950102E0,2.694954906E0
2.728511454E0,2.494950056E0,-4.360500276E-1,-1.708950043E0,3.055392881E0
2.730473875E0,2.572050095E0,-3.589500189E-1,-2.053950071E0,3.311041785E0
2.732436377E0,2.649000168E0,-3.589500189E-1,-2.169000149E0,3.442471300E0
2.734398786E0,2.725050211E0,-2.830500007E-1,-2.245050192E0,3.542070908E0
2.736361223E0,2.686950207E0,-2.440500110E-1,-2.130000114E0,3.437464517E0
2.738323873E0,2.649000168E0,-2.440500110E-1,-1.939050078E0,3.291910920E0
2.740286457E0,2.572050095E0,-2.059500068E-1,-1.632000089E0,3.053077363E0
2.742249258E0,2.494950056E0,-1.680000126E-1,-1.326000094E0,2.830419763E0
2.744211996E0,2.419050217E0,-1.680000126E-1,-9.810000658E-1,2.615796071E0
2.746174636E0,2.304000139E0,-1.680000126E-1,-6.360000372E-1,2.396066922E0
2.748137305E0,1.996950150E0,-1.290000081E-1,-2.910000086E-1,2.022160208E0
2.750100211E0,1.767000079E0,-1.290000081E-1,-9.900000691E-2,1.774466478E0
2.752063058E0,1.459950089E0,-9.105000645E-2,-6.105000153E-2,1.464059927E0
2.754024959E0,1.269000053E0,-1.500000060E-2,-6.105000153E-2,1.270556271E0
2.755987137E0,1.039050102E0,-1.500000060E-2,-2.910000086E-1,1.079134431E0
2.757950367E0,8.089500666E-1,-9.105000645E-2,-6.360000372E-1,1.033047124E0
2.759913288E0,6.550500393E-1,-1.680000126E-1,-1.096050024E0,1.287882065E0
2.761875271E0,4.260000288E-1,-2.440500110E-1,-1.516950130E0,1.594419685E0
2.763837526E0,4.639500082E-1,-5.890500546E-1,-1.939050078E0,2.078976860E0
2.765800923E0,4.639500082E-1,-8.959500194E-1,-2.284050226E0,2.496970461E0
2.767763986E0,6.169500351E-1,-1.240950108E0,-2.820000172E0,3.142130723E0
2.769726886E0,8.089500666E-1,-1.585950017E0,-3.510000229E0,3.935700608E0
2.771689834E0,1.077000022E0,-2.008050203E0,-4.123950005E0,4.711598275E0
2.773652553E0,1.230000019E0,-2.351999998E0,-4.813050270E0,5.496385807E0
2.775615353E0,1.345050097E0,-2.697000027E0,-5.350050449E0,6.140521860E0
2.777578342E0,1.345050097E0,-3.004050255E0,-5.656950474E0,6.544812171E0
2.779541275E0,1.345050097E0,-3.310950041E0,-5.772000313E0,6.788780269E0
2.781504152E0,1.306950092E0,-3.655950069E0,-5.656950474E0,6.861135337E0
2.783467046E0,1.230000019E0,-4.039050102E0,-5.503050327E0,6.936165272E0
2.785429853E0,1.114950061E0,-4.345950127E0,-5.197050095E0,6.865837591E0
2.787392675E0,7.699500322E-1,-4.614000320E0,-4.621950150E0,6.576035675E0
2.789354353E0,5.410500169E-1,-4.804950237E0,-3.970050097E0,6.256323175E0
2.791316367E0,3.109500110E-1,-4.996950150E0,-3.241950035E0,5.964598959E0
2.793279040E0,1.570500135E-1,-5.149950027E0,-2.437050104E0,5.699637111E0
2.795241519E0,-3.299999982E-2,-5.341950417E0,-1.363950014E0,5.513427509E0
2.797203780E0,-2.629500031E-1,-5.494950294E0,-2.910000086E-1,5.508929338E0
2.799166118E0,-9.529500604E-1,-5.917050362E0,3.220500052E-1,6.001942603E0
2.801128645E0,-1.911000133E0,-6.760050297E0,5.899500251E-1,7.049698047E0
2.803091116E0,-3.100050211E0,-7.987050533E0,1.050000072E0,8.631673516E0
2.805054297E0,-4.863000393E0,-9.634950638E0,1.126049995E0,1.085122275E1
2.807017270E0,-7.123950481E0,-1.158900070E1,1.279950023E0,1.366359688E1
2.808980176E0,-9.462000847E0,-1.373595047E1,1.510050058E0,1.674771765E1
2.810943108E0,-1.164705086E1,-1.569000053E1,1.663050056E0,1.961111027E1
2.812906164E0,-1.375500107E1,-1.764495087E1,1.548000097E0,2.242633831E1
2.814869183E0,-1.582395077E1,-1.979205132E1,1.585950017E0,2.538972136E1
2.816832091E0,-1.758705139E1,-2.212995148E1,2.046000004E0,2.834122871E1
2.818795031E0,-1.881405067E1,-2.450595093E1,2.583000183E0,3.100293573E1
2.820757636E0,-1.954200172E1,-2.684400177E1,3.349050045E0,3.337223994E1
2.822720339E0,-1.981005096E1,-2.925795174E1,4.231050014E0,3.558605968E1
2.824683118E0,-1.950405121E1,-3.178800201E1,5.266050339E0,3.766452405E1
2.826645875E0,-1.889100075E1,-3.427905273E1,6.684000492E0,3.970641294E1
2.828608603E0,-1.781700134E1,-3.673200226E1,8.025000572E0,4.160632357E1
2.830571339E0,-1.574805069E1,-3.914700317E1,9.252000809E0,4.319824623E1
2.832533765E0,-1.337100029E1,-4.175295258E1,1.009500027E1,4.498890672E1
2.834496306E0,-1.087995052E1,-4.424505234E1,1.047795010E1,4.675238409E1
2.836459068E0,-7.929000378E0,-4.688895035E1,1.063200092E1,4.872865846E1
2.838421765E0,-4.594050407E0,-4.968705368E1,1.017195034E1,5.092521160E1
2.840385088E0,-7.620000243E-1,-5.260005188E1,9.098999977E0,5.338668282E1
2.842348227E0,3.492000103E0,-5.608800125E1,8.332050323E0,5.681092335E1
2.844310558E0,8.244000435E0,-5.969100189E1,6.876000404E0,6.064864905E1
2.846273137E0,1.322700024E1,-6.329295349E1,3.388050079E0,6.474897976E1
2.848236478E0,1.786500168E1,-6.616800690E1,-2.629050016E0,6.858771993E1
2.850199596E0,2.257905197E1,-6.846795654E1,-1.040895081E1,7.284243899E1
2.852161811E0,2.779095078E1,-6.992400360E1,-2.079600143E1,7.806520928E1
2.854124291E0,3.170100212E1,-6.923400116E1,-2.788695145E1,8.109243191E1
2.856086873E0,3.242895126E1,-6.536295319E1,-2.738805199E1,7.793624267E1
2.858049432E0,2.894100189E1,-5.892405319E1,-2.489700127E1,7.021030058E1
2.860011923E0,2.227200127E1,-5.233200073E1,-2.087295151E1,6.058349978E1
2.861974434E0,1.483695030E1,-4.631400299E1,-1.757595062E1,5.171108206E1
2.863937066E0,8.091000557E0,-4.106295013E1,-1.443405056E1,4.427157078E1
2.865899663E0,2.457000017E0,-3.642600250E1,-1.071600056E1,3.804895761E1
2.867861182E0,-2.218050003E0,-3.259305191E1,-7.495950222E0,3.351739919E1
2.869823031E0,-5.668050289E0,-2.968005180E1,-5.272950172E0,3.067305450E1
2.871785416E0,-8.503950119E0,-2.703495216E1,-3.817050219E0,2.859677741E1
2.873747644E0,-1.038195038E1,-2.485095024E1,-2.820000172E0,2.707964222E1
2.875710146E0,-1.176195049E1,-2.285805130E1,-2.629050016E0,2.584077964E1
2.877672567E0,-1.252800083E1,-2.124795151E1,-2.551950216E0,2.479795754E1
2.879635202E0,-1.298805046E1,-2.013600159E1,-2.820000172E0,2.412675726E1
2.881597784E0,-1.348605061E1,-1.940805054E1,-2.820000172E0,2.380122660E1
2.883560181E0,-1.402305031E1,-1.887195015E1,-2.667000055E0,2.366240334E1
2.885522632E0,-1.467495060E1,-1.845000076E1,-2.284050226E0,2.368488101E1
2.887485139E0,-1.490505028E1,-1.810500145E1,-1.632000089E0,2.350776522E1
2.889447630E0,-1.486605072E1,-1.779900169E1,-8.659500480E-1,2.320676183E1
2.891409307E0,-1.459800053E1,-1.753005028E1,-6.105000153E-2,2.281245294E1
2.893371233E0,-1.406100082E1,-1.733895111E1,7.810500264E-1,2.233743515E1
2.895333650E0,-1.337100029E1,-1.753005028E1,1.395000100E0,2.209145393E1
2.897295923E0,-1.275795078E1,-1.795200157E1,1.663050056E0,2.208631712E1
2.899258417E0,-1.214505100E1,-1.833495140E1,1.816050053E0,2.206741363E1
2.901220846E0,-1.153200054E1,-1.860300064E1,1.855050087E0,2.196587991E1
2.903183337E0,-1.107195091E1,-1.891005135E1,1.701000094E0,2.197888851E1
2.905145793E0,-1.061205006E1,-1.917795181E1,1.471050024E0,2.196755404E1
2.907108571E0,-1.003695011E1,-1.960005188E1,1.356000066E0,2.206221062E1
2.909071255E0,-9.346950531E0,-1.994505119E1,9.730500579E-1,2.204806971E1
2.911034084E0,-9.001950264E0,-2.002200127E1,5.130000114E-1,2.195857036E1
2.912996870E0,-8.619000435E0,-2.025105095E1,3.220500052E-1,2.201126869E1
2.914959967E0,-8.274000168E0,-2.055795097E1,5.295000225E-2,2.216057830E1
2.916922962E0,-7.891050339E0,-2.086500168E1,-1.759500057E-1,2.230802387E1
2.918885153E0,-7.660950184E0,-2.121000099E1,-5.590500236E-1,2.255807697E1
2.920847579E0,-7.621950150E0,-2.140095139E1,-7.510500550E-1,2.273013243E1
2.922809551E0,-7.621950150E0,-2.163105011E1,-1.018950105E0,2.295723660E1
2.924771656E0,-7.276950359E0,-2.190000153E1,-1.096050024E0,2.310336337E1
2.926734317E0,-6.856050491E0,-2.220600128E1,-9.810000658E-1,2.326100347E1
2.928696812E0,-6.511050224E0,-2.255100060E1,-8.659500480E-1,2.348810917E1
2.930659313E0,-6.166050434E0,-2.285805130E1,-4.819500148E-1,2.368001189E1
2.932621812E0,-5.668050289E0,-2.308800125E1,1.500000060E-2,2.377357400E1
2.934583682E0,-5.208000183E0,-2.327895164E1,5.130000114E-1,2.385992508E1
2.936545737E0,-4.555950165E0,-2.339400101E1,1.203000069E0,2.386384659E1
2.938508322E0,-3.865950108E0,-2.347095108E1,1.548000097E0,2.383752125E1
2.940470745E0,-3.214950085E0,-2.331795120E1,1.777950048E0,2.360558956E1
2.942433349E0,-2.448000193E0,-2.308800125E1,1.969950080E0,2.330084140E1
2.944395899E0,-1.758000135E0,-2.266605186E1,2.046000004E0,2.282600683E1
2.946358346E0,-1.144950032E0,-2.235900116E1,2.200050116E0,2.249613442E1
2.948320824E0,-4.930500090E-1,-2.193795013E1,2.200050116E0,2.205350255E1
2.950284543E0,1.189500093E-1,-2.159295082E1,2.200050116E0,2.170506611E1
2.952247899E0,7.699500322E-1,-2.124795151E1,2.200050116E0,2.137541782E1
2.954210073E0,1.422000051E0,-2.090295029E1,2.238000154E0,2.107045466E1
2.956172594E0,1.959000111E0,-2.048100090E1,2.122950077E0,2.068371331E1
2.958135179E0,2.227050066E0,-2.005995178E1,2.008050203E0,2.028284209E1
2.960097745E0,3.070050240E0,-1.952295113E1,1.893000126E0,1.985331908E1
2.962060369E0,3.492000103E0,-1.894799995E1,1.701000094E0,1.934203113E1
2.964022976E0,3.913050175E0,-1.829700089E1,1.585950017E0,1.877784441E1
2.965985638E0,4.219950199E0,-1.768395042E1,1.471050024E0,1.823990325E1
2.967948284E0,4.372950077E0,-1.707000160E1,1.318050027E0,1.767045282E1
2.969911255E0,4.372950077E0,-1.641900063E1,1.011000037E0,1.702140990E1
2.971874130E0,4.450050354E0,-1.565205097E1,6.660000086E-1,1.628598182E1
2.973837772E0,4.564949989E0,-1.500105095E1,3.979500234E-1,1.568530083E1
2.975801197E0,4.488000393E0,-1.431105042E1,1.300500035E-1,1.499884077E1
2.977763630E0,4.450050354E0,-1.373595047E1,-1.369500011E-1,1.443946117E1
2.979726353E0,4.450050354E0,-1.308405018E1,-2.520000041E-1,1.382240287E1
2.981689129E0,4.335000038E0,-1.247100067E1,-4.819500148E-1,1.321175079E1
2.983651889E0,4.143000126E0,-1.185795021E1,-6.360000372E-1,1.257696026E1
2.985614185E0,4.027950287E0,-1.135905075E1,-6.739500165E-1,1.207089997E1
2.987576603E0,3.874950171E0,-1.078500080E1,-8.269500136E-1,1.148979231E1
2.989539071E0,3.798000097E0,-1.017105007E1,-8.659500480E-1,1.089150742E1
2.991501524E0,3.721950293E0,-9.558000565E0,-9.420000315E-1,1.030027441E1
2.993464663E0,3.682950258E0,-8.868000031E0,-9.810000658E-1,9.652352474E0
2.995427601E0,3.682950258E0,-8.293050766E0,-1.057050109E0,9.135434776E0
2.997390179E0,3.645000219E0,-7.717950344E0,-1.096050024E0,8.605469759E0
2.999352882E0,3.568050146E0,-7.143000126E0,-1.018950105E0,8.049328665E0
3.001315662E0,3.415050268E0,-6.568950176E0,-9.420000315E-1,7.463312858E0
3.003278419E0,3.300000191E0,-6.031950474E0,-7.890000343E-1,6.920762157E0
3.005241146E0,3.031950235E0,-5.533950329E0,-7.120500207E-1,6.350145172E0
3.007203882E0,2.764050245E0,-5.112000465E0,-5.209500194E-1,5.834716055E0
3.009166641E0,2.610000134E0,-4.729050159E0,-4.819500148E-1,5.422941261E0
3.011129404E0,2.341950178E0,-4.269000053E0,-4.060500264E-1,4.886099540E0
3.013091995E0,2.188950062E0,-3.961950302E0,-2.140500098E-1,4.531486508E0
3.015054637E0,2.035050154E0,-3.655950069E0,1.500000060E-2,4.184211400E0
3.017016887E0,1.959000111E0,-3.463950157E0,9.195000678E-2,3.980588767E0
3.018979252E0,1.920000076E0,-3.196050167E0,2.830500007E-1,3.739151544E0
3.020941760E0,1.920000076E0,-2.926950216E0,3.220500052E-1,3.515274394E0
3.022904236E0,1.959000111E0,-2.736000061E0,5.130000114E-1,3.403901699E0
3.024867191E0,1.996950150E0,-2.467050076E0,5.899500251E-1,3.228341216E0
3.026830005E0,1.996950150E0,-2.199000120E0,6.280500293E-1,3.036092599E0
3.028792047E0,1.996950150E0,-1.930950046E0,6.280500293E-1,2.847950986E0
3.030754315E0,1.920000076E0,-1.738950133E0,6.660000086E-1,2.674678274E0
3.032717169E0,1.690050125E0,-1.432950020E0,7.429500222E-1,2.337004476E0
3.034679851E0,1.614000082E0,-1.240950108E0,7.429500222E-1,2.167239758E0
3.036642636E0,1.459950089E0,-9.730500579E-1,7.429500222E-1,1.905322916E0
3.038605390E0,1.345050097E0,-6.660000086E-1,7.810500264E-1,1.691967765E0
3.040567983E0,1.269000053E0,-4.360500276E-1,7.050000429E-1,1.515759157E0
3.042530623E0,1.192050099E0,-2.059500068E-1,5.509500504E-1,1.329264760E0
3.044493472E0,1.039050102E0,-9.105000645E-2,3.220500052E-1,1.091618718E0
3.046456250E0,9.619500637E-1,1.380000114E-1,1.680000126E-1,9.862129245E-1
3.048418478E0,8.089500666E-1,4.060500264E-1,-2.205000073E-2,9.054076633E-1
3.050380867E0,6.550500393E-1,6.739500165E-1,-2.520000041E-1,9.730381189E-1
3.052342756E0,5.020500422E-1,9.810000658E-1,-6.739500165E-1,1.291752298E0
3.054304791E0,4.639500082E-1,1.134000063E0,-9.420000315E-1,1.545499858E0
3.056267484E0,3.870000243E-1,1.326000094E0,-1.249050021E0,1.862302667E0
3.058229999E0,2.719500065E-1,1.402950048E0,-1.594050050E0,2.140845909E0
3.060192498E0,2.719500065E-1,1.594050050E0,-1.900950074E0,2.495709028E0
3.062155001E0,2.719500065E-1,1.786050081E0,-2.169000149E0,2.822851988E0
3.064117815E0,2.719500065E-1,1.863000035E0,-2.475000143E0,3.109718901E0
3.066080538E0,3.870000243E-1,2.016000032E0,-2.782050133E0,3.457430851E0
3.068043265E0,3.870000243E-1,2.131050110E0,-3.049950123E0,3.740767213E0
3.070005994E0,3.870000243E-1,2.208000183E0,-3.319050074E0,4.005137603E0
3.071969492E0,5.020500422E-1,2.361000061E0,-3.586950064E0,4.323492372E0
3.073932764E0,6.550500393E-1,2.398950100E0,-3.894000292E0,4.620312804E0
3.075895628E0,7.699500322E-1,2.437050104E0,-4.084949970E0,4.818594455E0
3.077858612E0,9.619500637E-1,2.398950100E0,-4.315050125E0,5.029907264E0
3.079821403E0,1.114950061E0,2.476050138E0,-4.429950237E0,5.195998175E0
3.081784241E0,1.192050099E0,2.476050138E0,-4.698000431E0,5.442702985E0
3.083746954E0,1.306950092E0,2.551950216E0,-4.927950382E0,5.701338739E0
3.085709703E0,1.345050097E0,2.514000177E0,-5.005050182E0,5.760198259E0
3.087672340E0,1.537050128E0,2.514000177E0,-5.043000221E0,5.840768033E0
3.089635010E0,1.575000048E0,2.590950012E0,-5.235000134E0,6.049700283E0
3.091597721E0,1.690050125E0,2.590950012E0,-5.235000134E0,6.080667545E0
3.093560441E0,1.804950118E0,2.590950012E0,-5.235000134E0,6.113599046E0
3.095523085E0,1.920000076E0,2.590950012E0,-5.158050060E0,6.083165515E0
3.097485751E0,2.035050154E0,2.551950216E0,-4.890000343E0,5.879284173E0
3.099448177E0,2.188950062E0,2.514000177E0,-4.698000431E0,5.760460686E0
3.101410674E0,2.341950178E0,2.476050138E0,-4.392000198E0,5.559246412E0
3.103373424E0,2.419050217E0,2.437050104E0,-3.931950092E0,5.220272856E0
3.105336114E0,2.533950090E0,2.398950100E0,-3.433950186E0,4.895700003E0
3.107298763E0,2.686950207E0,2.284050226E0,-2.782050133E0,4.491813642E0
3.109261424E0,2.917050123E0,2.208000183E0,-2.206950188E0,4.272595857E0
3.111224210E0,3.108000040E0,2.053950071E0,-1.671000123E0,4.082966637E0
3.113186960E0,3.300000191E0,1.939050078E0,-1.057050109E0,3.970802362E0
3.115149364E0,3.415050268E0,1.747950077E0,-4.440000355E-1,3.861998684E0
3.117111876E0,3.529950142E0,1.479000092E0,1.300500035E-1,3.829478069E0
3.119073788E0,3.529950142E0,1.173000097E0,6.280500293E-1,3.772389703E0
3.121035876E0,3.300000191E0,7.129500508E-1,1.203000069E0,3.584063085E0
3.122999256E0,3.031950235E0,2.140500098E-1,1.548000097E0,3.410988704E0
3.124962258E0,2.725050211E0,-1.680000126E-1,1.816050053E0,3.279048711E0
3.126924659E0,2.533950090E0,-5.130000114E-1,2.200050116E0,3.394744848E0
3.128887246E0,2.304000139E0,-8.580000401E-1,2.545050144E0,3.538624160E0
3.130849686E0,2.035050154E0,-1.203000069E0,2.773950100E0,3.644645038E0
3.132812169E0,1.804950118E0,-1.432950020E0,2.928000212E0,3.726174436E0
3.134774627E0,1.651950121E0,-1.548000097E0,2.928000212E0,3.701138844E0
3.136737092E0,1.459950089E0,-1.738950133E0,2.889000177E0,3.674469194E0
3.138699534E0,1.384050012E0,-1.854000092E0,2.851050138E0,3.671702285E0
3.140661996E0,1.306950092E0,-1.930950046E0,2.773950100E0,3.623739199E0
3.142624637E0,1.269000053E0,-2.008050203E0,2.698050022E0,3.594732351E0
3.144587225E0,1.230000019E0,-1.930950046E0,2.620950222E0,3.480064395E0
3.146549621E0,1.192050099E0,-1.930950046E0,2.506050110E0,3.380804441E0
3.148512073E0,1.114950061E0,-1.777950048E0,2.430000067E0,3.210781889E0
3.150474594E0,1.114950061E0,-1.816050053E0,2.275950193E0,3.117867976E0
3.152437085E0,1.114950061E0,-1.738950133E0,2.238000154E0,3.045604356E0
3.154399677E0,1.114950061E0,-1.701000094E0,2.161050081E0,2.967600447E0
3.156362239E0,1.039050102E0,-1.663050056E0,2.008050203E0,2.806710926E0
3.158324909E0,1.077000022E0,-1.624050021E0,1.893000126E0,2.716784311E0
3.160287547E0,9.619500637E-1,-1.509000063E0,1.855050087E0,2.577525934E0
3.162250288E0,9.240000248E-1,-1.471050024E0,1.855050087E0,2.541451366E0
3.164213003E0,8.089500666E-1,-1.393950105E0,1.777950048E0,2.399709041E0
3.166175648E0,7.699500322E-1,-1.393950105E0,1.777950048E0,2.386844428E0
3.168138313E0,7.699500322E-1,-1.318050027E0,1.740000129E0,2.314666147E0
3.170100875E0,6.550500393E-1,-1.318050027E0,1.663050056E0,2.220829105E0
3.172063467E0,6.940500140E-1,-1.318050027E0,1.548000097E0,2.148316922E0
3.174025733E0,6.550500393E-1,-1.279050112E0,1.585950017E0,2.140162891E0
3.175988121E0,6.169500351E-1,-1.318050027E0,1.510050058E0,2.097172954E0
3.177950054E0,6.550500393E-1,-1.279050112E0,1.510050058E0,2.084540938E0
3.179912121E0,5.410500169E-1,-1.318050027E0,1.471050024E0,2.047920694E0
3.181875370E0,5.410500169E-1,-1.279050112E0,1.471050024E0,2.023040406E0
3.183838273E0,5.790000558E-1,-1.279050112E0,1.471050024E0,2.033518730E0
3.185800869E0,5.790000558E-1,-1.318050027E0,1.432950020E0,2.031217048E0
3.187763535E0,6.169500351E-1,-1.356000066E0,1.471050024E0,2.093645552E0
3.189726276E0,6.550500393E-1,-1.356000066E0,1.471050024E0,2.105187618E0
3.191688995E0,6.169500351E-1,-1.356000066E0,1.471050024E0,2.093645552E0
3.193650737E0,5.790000558E-1,-1.318050027E0,1.471050024E0,2.058272361E0
3.195612766E0,5.790000558E-1,-1.318050027E0,1.471050024E0,2.058272361E0
3.197575445E0,5.790000558E-1,-1.240950108E0,1.510050058E0,2.038491946E0
3.199537927E0,6.169500351E-1,-1.203000069E0,1.510050058E0,2.026841802E0
3.201500206E0,6.940500140E-1,-1.087950110E0,1.548000097E0,2.015352368E0
3.203462544E0,7.699500322E-1,-1.048950076E0,1.548000097E0,2.022232335E0
3.205425251E0,8.089500666E-1,-1.011000037E0,1.624950051E0,2.077735295E0
3.207387850E0,8.089500666E-1,-9.340500236E-1,1.663050056E0,2.071855483E0
3.209350143E0,8.470500112E-1,-8.190000653E-1,1.663050056E0,2.038134028E0
3.211312501E0,8.850000501E-1,-7.810500264E-1,1.701000094E0,2.070426418E0
3.213275114E0,8.470500112E-1,-7.429500222E-1,1.740000129E0,2.072937265E0
3.215237653E0,8.089500666E-1,-6.280500293E-1,1.816050053E0,2.084918426E0
3.217200147E0,8.089500666E-1,-6.280500293E-1,1.855050087E0,2.118975666E0
3.219162655E0,8.470500112E-1,-5.890500546E-1,1.777950048E0,2.055621576E0
3.221125423E0,8.089500666E-1,-5.130000114E-1,1.777950048E0,2.019573122E0
3.223088115E0,8.089500666E-1,-4.740000367E-1,1.740000129E0,1.976531480E0
3.225050358E0,8.089500666E-1,-4.360500276E-1,1.701000094E0,1.933375586E0
3.227012732E0,8.470500112E-1,-3.210000098E-1,1.701000094E0,1.927157505E0
3.228975388E0,7.320000529E-1,-2.440500110E-1,1.663050056E0,1.833335750E0
3.230937961E0,6.550500393E-1,-2.059500068E-1,1.585950017E0,1.728219724E0
3.232899678E0,5.790000558E-1,-2.059500068E-1,1.585950017E0,1.700850942E0
3.234861650E0,5.410500169E-1,-1.680000126E-1,1.624950051E0,1.720878204E0
3.236824194E0,3.870000243E-1,-1.680000126E-1,1.585950017E0,1.641106480E0
3.238786571E0,3.490500152E-1,-1.290000081E-1,1.585950017E0,1.629022520E0
3.240748733E0,3.490500152E-1,-1.290000081E-1,1.585950017E0,1.629022520E0
3.242710958E0,4.260000288E-1,-1.680000126E-1,1.548000097E0,1.614312340E0
3.244673279E0,4.639500082E-1,-1.290000081E-1,1.510050058E0,1.584973751E0
3.246635571E0,5.410500169E-1,-1.290000081E-1,1.510050058E0,1.609231898E0
3.248598377E0,6.169500351E-1,-1.290000081E-1,1.471050024E0,1.600392615E0
3.250561033E0,7.320000529E-1,-1.680000126E-1,1.395000100E0,1.584321104E0
3.252523327E0,8.850000501E-1,-1.680000126E-1,1.050000072E0,1.383455544E0
3.254485727E0,1.000050068E0,-1.290000081E-1,5.509500504E-1,1.149037466E0
3.256448705E0,1.077000022E0,-1.680000126E-1,-2.520000041E-1,1.118774800E0
3.258411537E0,1.192050099E0,-1.680000126E-1,-1.249050021E0,1.734743035E0
3.260373350E0,1.306950092E0,-1.680000126E-1,-2.743950129E0,3.043945607E0
3.262335462E0,1.345050097E0,-1.680000126E-1,-3.855000257E0,4.086368896E0
3.264297082E0,1.345050097E0,-9.105000645E-2,-4.237950325E0,4.447209555E0
3.266258847E0,1.306950092E0,-1.500000060E-2,-4.237950325E0,4.434925760E0
